,subjID,experimentName,versionName,sequenceName,url,selected_row,windowWidth,windowHeight,screenWidth,screenHeight,startDate,startTime,trial,stimulus,duration,actual_depth,depth_estimate,trial_RT,log_sceneDuration,unitSelection,seq_filepath,experimentTime,totalTime,age,gender
0,252260,DepthScenes,duration_manipulation_targetAtFixation,jsons/v1_VE1000_randls_15.json,http://54.235.29.9/FacialAge/BNav_EC2/DepthDuration/v2_depth_duration_MTurk/v2_DepthDuration_HTML.html#380,380,1364,768,1364,768,8-29-2022,9-43-3,1,depth_duration_stimuli/002964_2014-06-08_17-46-11_094959634447_rgbf000091-resize_4/002964_2014-06-08_17-46-11_094959634447_rgbf000091-resize_4-target.png,1000,1.6909999999999998,5,9989,1059,feet,jsons/v1_VE1000_randls_15.json,1431206,1696138,48,Woman
1,252260,DepthScenes,duration_manipulation_targetAtFixation,jsons/v1_VE1000_randls_15.json,http://54.235.29.9/FacialAge/BNav_EC2/DepthDuration/v2_depth_duration_MTurk/v2_DepthDuration_HTML.html#380,380,1364,768,1364,768,8-29-2022,9-43-3,2,depth_duration_stimuli/002136_2014-06-25_21-18-03_260595134347_rgbf000109-resize_3/002136_2014-06-25_21-18-03_260595134347_rgbf000109-resize_3-target.png,1000,1.9569999999999999,5,28906,918,feet,jsons/v1_VE1000_randls_15.json,1431206,1696138,48,Woman
2,252260,DepthScenes,duration_manipulation_targetAtFixation,jsons/v1_VE1000_randls_15.json,http://54.235.29.9/FacialAge/BNav_EC2/DepthDuration/v2_depth_duration_MTurk/v2_DepthDuration_HTML.html#380,380,1364,768,1364,768,8-29-2022,9-43-3,3,depth_duration_stimuli/002272_2014-06-28_18-53-56_260595134347_rgbf000067-resize_2/002272_2014-06-28_18-53-56_260595134347_rgbf000067-resize_2-target.png,1000,1.138,6,6441,714,feet,jsons/v1_VE1000_randls_15.json,1431206,1696138,48,Woman
3,252260,DepthScenes,duration_manipulation_targetAtFixation,jsons/v1_VE1000_randls_15.json,http://54.235.29.9/FacialAge/BNav_EC2/DepthDuration/v2_depth_duration_MTurk/v2_DepthDuration_HTML.html#380,380,1364,768,1364,768,8-29-2022,9-43-3,4,depth_duration_stimuli/001571_2014-06-20_17-21-32_260595134347_rgbf000089-resize_1/001571_2014-06-20_17-21-32_260595134347_rgbf000089-resize_1-target.png,1000,1.86,6,3548,994,feet,jsons/v1_VE1000_randls_15.json,1431206,1696138,48,Woman
4,252260,DepthScenes,duration_manipulation_targetAtFixation,jsons/v1_VE1000_randls_15.json,http://54.235.29.9/FacialAge/BNav_EC2/DepthDuration/v2_depth_duration_MTurk/v2_DepthDuration_HTML.html#380,380,1364,768,1364,768,8-29-2022,9-43-3,5,depth_duration_stimuli/002988_2014-06-15_12-24-20_094959634447_rgbf000150-resize_1/002988_2014-06-15_12-24-20_094959634447_rgbf000150-resize_1-target.png,1000,4.7669999999999995,5,5721,995,feet,jsons/v1_VE1000_randls_15.json,1431206,1696138,48,Woman
5,252260,DepthScenes,duration_manipulation_targetAtFixation,jsons/v1_VE1000_randls_15.json,http://54.235.29.9/FacialAge/BNav_EC2/DepthDuration/v2_depth_duration_MTurk/v2_DepthDuration_HTML.html#380,380,1364,768,1364,768,8-29-2022,9-43-3,6,depth_duration_stimuli/001052_2014-06-08_18-24-54_260595134347_rgbf000130-resize_1/001052_2014-06-08_18-24-54_260595134347_rgbf000130-resize_1-target.png,1000,4.1045,6,3814,995,feet,jsons/v1_VE1000_randls_15.json,1431206,1696138,48,Woman
6,252260,DepthScenes,duration_manipulation_targetAtFixation,jsons/v1_VE1000_randls_15.json,http://54.235.29.9/FacialAge/BNav_EC2/DepthDuration/v2_depth_duration_MTurk/v2_DepthDuration_HTML.html#380,380,1364,768,1364,768,8-29-2022,9-43-3,7,depth_duration_stimuli/001110_2014-06-15_17-25-28_260595134347_rgbf000150-resize_1/001110_2014-06-15_17-25-28_260595134347_rgbf000150-resize_1-target.png,1000,1.7115,5,3726,1009,feet,jsons/v1_VE1000_randls_15.json,1431206,1696138,48,Woman
7,252260,DepthScenes,duration_manipulation_targetAtFixation,jsons/v1_VE1000_randls_15.json,http://54.235.29.9/FacialAge/BNav_EC2/DepthDuration/v2_depth_duration_MTurk/v2_DepthDuration_HTML.html#380,380,1364,768,1364,768,8-29-2022,9-43-3,8,depth_duration_stimuli/000927_2014-06-09_16-32-30_260595134347_rgbf000123-resize_3/000927_2014-06-09_16-32-30_260595134347_rgbf000123-resize_3-target.png,1000,2.6785,6,4811,987,feet,jsons/v1_VE1000_randls_15.json,1431206,1696138,48,Woman
8,252260,DepthScenes,duration_manipulation_targetAtFixation,jsons/v1_VE1000_randls_15.json,http://54.235.29.9/FacialAge/BNav_EC2/DepthDuration/v2_depth_duration_MTurk/v2_DepthDuration_HTML.html#380,380,1364,768,1364,768,8-29-2022,9-43-3,9,depth_duration_stimuli/002748_2014-06-22_19-07-22_094959634447_rgbf000078-resize_1/002748_2014-06-22_19-07-22_094959634447_rgbf000078-resize_1-target.png,1000,4.6705,5,6046,992,feet,jsons/v1_VE1000_randls_15.json,1431206,1696138,48,Woman
9,252260,DepthScenes,duration_manipulation_targetAtFixation,jsons/v1_VE1000_randls_15.json,http://54.235.29.9/FacialAge/BNav_EC2/DepthDuration/v2_depth_duration_MTurk/v2_DepthDuration_HTML.html#380,380,1364,768,1364,768,8-29-2022,9-43-3,10,depth_duration_stimuli/002995_2014-06-15_12-31-26_094959634447_rgbf000150-resize_1/002995_2014-06-15_12-31-26_094959634447_rgbf000150-resize_1-target.png,1000,3.8360000000000003,6,3715,1012,feet,jsons/v1_VE1000_randls_15.json,1431206,1696138,48,Woman
10,252260,DepthScenes,duration_manipulation_targetAtFixation,jsons/v1_VE1000_randls_15.json,http://54.235.29.9/FacialAge/BNav_EC2/DepthDuration/v2_depth_duration_MTurk/v2_DepthDuration_HTML.html#380,380,1364,768,1364,768,8-29-2022,9-43-3,11,depth_duration_stimuli/000773_2014-06-08_22-24-54_260595134347_rgbf000093-resize_1/000773_2014-06-08_22-24-54_260595134347_rgbf000093-resize_1-target.png,1000,4.973,4,5965,1063,feet,jsons/v1_VE1000_randls_15.json,1431206,1696138,48,Woman
11,252260,DepthScenes,duration_manipulation_targetAtFixation,jsons/v1_VE1000_randls_15.json,http://54.235.29.9/FacialAge/BNav_EC2/DepthDuration/v2_depth_duration_MTurk/v2_DepthDuration_HTML.html#380,380,1364,768,1364,768,8-29-2022,9-43-3,12,depth_duration_stimuli/002414_2014-06-28_20-24-58_260595134347_rgbf000067-resize_4/002414_2014-06-28_20-24-58_260595134347_rgbf000067-resize_4-target.png,1000,4.363,5,3769,1015,feet,jsons/v1_VE1000_randls_15.json,1431206,1696138,48,Woman
12,252260,DepthScenes,duration_manipulation_targetAtFixation,jsons/v1_VE1000_randls_15.json,http://54.235.29.9/FacialAge/BNav_EC2/DepthDuration/v2_depth_duration_MTurk/v2_DepthDuration_HTML.html#380,380,1364,768,1364,768,8-29-2022,9-43-3,13,depth_duration_stimuli/000569_2014-06-09_22-51-47_260595134347_rgbf000141-resize_3/000569_2014-06-09_22-51-47_260595134347_rgbf000141-resize-original.jpg,1000,4.512,6,5335,1042,feet,jsons/v1_VE1000_randls_15.json,1431206,1696138,48,Woman
13,252260,DepthScenes,duration_manipulation_targetAtFixation,jsons/v1_VE1000_randls_15.json,http://54.235.29.9/FacialAge/BNav_EC2/DepthDuration/v2_depth_duration_MTurk/v2_DepthDuration_HTML.html#380,380,1364,768,1364,768,8-29-2022,9-43-3,14,depth_duration_stimuli/002279_2014-06-28_18-55-32_260595134347_rgbf000040-resize_5/002279_2014-06-28_18-55-32_260595134347_rgbf000040-resize_5-target.png,1000,1.5043333333333,5,7059,992,feet,jsons/v1_VE1000_randls_15.json,1431206,1696138,48,Woman
14,252260,DepthScenes,duration_manipulation_targetAtFixation,jsons/v1_VE1000_randls_15.json,http://54.235.29.9/FacialAge/BNav_EC2/DepthDuration/v2_depth_duration_MTurk/v2_DepthDuration_HTML.html#380,380,1364,768,1364,768,8-29-2022,9-43-3,15,depth_duration_stimuli/000635_2014-06-08_16-38-42_260595134347_rgbf000106-resize_1/000635_2014-06-08_16-38-42_260595134347_rgbf000106-resize_1-target.png,1000,2.074,6,3546,868,feet,jsons/v1_VE1000_randls_15.json,1431206,1696138,48,Woman
15,252260,DepthScenes,duration_manipulation_targetAtFixation,jsons/v1_VE1000_randls_15.json,http://54.235.29.9/FacialAge/BNav_EC2/DepthDuration/v2_depth_duration_MTurk/v2_DepthDuration_HTML.html#380,380,1364,768,1364,768,8-29-2022,9-43-3,16,depth_duration_stimuli/001417_2014-06-19_16-25-36_260595134347_rgbf000115-resize_5/001417_2014-06-19_16-25-36_260595134347_rgbf000115-resize_5-target.png,1000,4.6255,5,4919,975,feet,jsons/v1_VE1000_randls_15.json,1431206,1696138,48,Woman
16,252260,DepthScenes,duration_manipulation_targetAtFixation,jsons/v1_VE1000_randls_15.json,http://54.235.29.9/FacialAge/BNav_EC2/DepthDuration/v2_depth_duration_MTurk/v2_DepthDuration_HTML.html#380,380,1364,768,1364,768,8-29-2022,9-43-3,17,depth_duration_stimuli/003081_2014-06-15_15-19-16_094959634447_rgbf000150-resize_1/003081_2014-06-15_15-19-16_094959634447_rgbf000150-resize_1-target.png,1000,3.9125,5,4880,994,feet,jsons/v1_VE1000_randls_15.json,1431206,1696138,48,Woman
17,252260,DepthScenes,duration_manipulation_targetAtFixation,jsons/v1_VE1000_randls_15.json,http://54.235.29.9/FacialAge/BNav_EC2/DepthDuration/v2_depth_duration_MTurk/v2_DepthDuration_HTML.html#380,380,1364,768,1364,768,8-29-2022,9-43-3,18,depth_duration_stimuli/003492_2014-05-21_15-50-55_094959634447_rgbf000828-resize_1/003492_2014-05-21_15-50-55_094959634447_rgbf000828-resize_1-target.png,1000,4.06875,6,5394,987,feet,jsons/v1_VE1000_randls_15.json,1431206,1696138,48,Woman
18,252260,DepthScenes,duration_manipulation_targetAtFixation,jsons/v1_VE1000_randls_15.json,http://54.235.29.9/FacialAge/BNav_EC2/DepthDuration/v2_depth_duration_MTurk/v2_DepthDuration_HTML.html#380,380,1364,768,1364,768,8-29-2022,9-43-3,19,depth_duration_stimuli/002568_2014-06-24_13-59-21_094959634447_rgbf000062-resize_4/002568_2014-06-24_13-59-21_094959634447_rgbf000062-resize_4-target.png,1000,3.015,5,3222,911,feet,jsons/v1_VE1000_randls_15.json,1431206,1696138,48,Woman
19,252260,DepthScenes,duration_manipulation_targetAtFixation,jsons/v1_VE1000_randls_15.json,http://54.235.29.9/FacialAge/BNav_EC2/DepthDuration/v2_depth_duration_MTurk/v2_DepthDuration_HTML.html#380,380,1364,768,1364,768,8-29-2022,9-43-3,20,depth_duration_stimuli/002989_2014-06-15_12-25-03_094959634447_rgbf000150-resize_3/002989_2014-06-15_12-25-03_094959634447_rgbf000150-resize_3-target.png,1000,4.1975,5,5445,939,feet,jsons/v1_VE1000_randls_15.json,1431206,1696138,48,Woman
20,252260,DepthScenes,duration_manipulation_targetAtFixation,jsons/v1_VE1000_randls_15.json,http://54.235.29.9/FacialAge/BNav_EC2/DepthDuration/v2_depth_duration_MTurk/v2_DepthDuration_HTML.html#380,380,1364,768,1364,768,8-29-2022,9-43-3,21,depth_duration_stimuli/000866_2014-06-09_20-45-42_260595134347_rgbf000139-resize_1/000866_2014-06-09_20-45-42_260595134347_rgbf000139-resize_1-target.png,1000,3.2155,5,2561,124,feet,jsons/v1_VE1000_randls_15.json,1431206,1696138,48,Woman
21,252260,DepthScenes,duration_manipulation_targetAtFixation,jsons/v1_VE1000_randls_15.json,http://54.235.29.9/FacialAge/BNav_EC2/DepthDuration/v2_depth_duration_MTurk/v2_DepthDuration_HTML.html#380,380,1364,768,1364,768,8-29-2022,9-43-3,22,depth_duration_stimuli/001810_2014-06-26_20-51-35_260595134347_rgbf000040-resize_3/001810_2014-06-26_20-51-35_260595134347_rgbf000040-resize_3-target.png,1000,2.2525,6,5375,994,feet,jsons/v1_VE1000_randls_15.json,1431206,1696138,48,Woman
22,252260,DepthScenes,duration_manipulation_targetAtFixation,jsons/v1_VE1000_randls_15.json,http://54.235.29.9/FacialAge/BNav_EC2/DepthDuration/v2_depth_duration_MTurk/v2_DepthDuration_HTML.html#380,380,1364,768,1364,768,8-29-2022,9-43-3,23,depth_duration_stimuli/003010_2014-06-15_12-54-35_094959634447_rgbf000112-resize_0/003010_2014-06-15_12-54-35_094959634447_rgbf000112-resize_0-target.png,1000,3.1185,5,3735,1003,feet,jsons/v1_VE1000_randls_15.json,1431206,1696138,48,Woman
23,252260,DepthScenes,duration_manipulation_targetAtFixation,jsons/v1_VE1000_randls_15.json,http://54.235.29.9/FacialAge/BNav_EC2/DepthDuration/v2_depth_duration_MTurk/v2_DepthDuration_HTML.html#380,380,1364,768,1364,768,8-29-2022,9-43-3,24,depth_duration_stimuli/000486_2014-06-09_20-47-20_260595134347_rgbf000143-resize_2/000486_2014-06-09_20-47-20_260595134347_rgbf000143-resize_2-target.png,1000,4.8325,6,5372,1003,feet,jsons/v1_VE1000_randls_15.json,1431206,1696138,48,Woman
24,252260,DepthScenes,duration_manipulation_targetAtFixation,jsons/v1_VE1000_randls_15.json,http://54.235.29.9/FacialAge/BNav_EC2/DepthDuration/v2_depth_duration_MTurk/v2_DepthDuration_HTML.html#380,380,1364,768,1364,768,8-29-2022,9-43-3,25,depth_duration_stimuli/003083_2014-06-15_15-21-03_094959634447_rgbf000063-resize_1/003083_2014-06-15_15-21-03_094959634447_rgbf000063-resize_1-target.png,1000,4.1405,5,7816,980,feet,jsons/v1_VE1000_randls_15.json,1431206,1696138,48,Woman
25,252260,DepthScenes,duration_manipulation_targetAtFixation,jsons/v1_VE1000_randls_15.json,http://54.235.29.9/FacialAge/BNav_EC2/DepthDuration/v2_depth_duration_MTurk/v2_DepthDuration_HTML.html#380,380,1364,768,1364,768,8-29-2022,9-43-3,26,depth_duration_stimuli/002375_2014-06-28_20-13-44_260595134347_rgbf000032-resize_1/002375_2014-06-28_20-13-44_260595134347_rgbf000032-resize_1-target.png,1000,4.0175,6,5633,906,feet,jsons/v1_VE1000_randls_15.json,1431206,1696138,48,Woman
26,252260,DepthScenes,duration_manipulation_targetAtFixation,jsons/v1_VE1000_randls_15.json,http://54.235.29.9/FacialAge/BNav_EC2/DepthDuration/v2_depth_duration_MTurk/v2_DepthDuration_HTML.html#380,380,1364,768,1364,768,8-29-2022,9-43-3,27,depth_duration_stimuli/002657_2014-06-13_15-29-54_094959634447_rgbf000150-resize_1/002657_2014-06-13_15-29-54_094959634447_rgbf000150-resize_1-target.png,1000,4.919,5,6772,266,feet,jsons/v1_VE1000_randls_15.json,1431206,1696138,48,Woman
27,252260,DepthScenes,duration_manipulation_targetAtFixation,jsons/v1_VE1000_randls_15.json,http://54.235.29.9/FacialAge/BNav_EC2/DepthDuration/v2_depth_duration_MTurk/v2_DepthDuration_HTML.html#380,380,1364,768,1364,768,8-29-2022,9-43-3,28,depth_duration_stimuli/001199_2014-06-17_16-03-48_260595134347_rgbf000077-resize_0/001199_2014-06-17_16-03-48_260595134347_rgbf000077-resize_0-target.png,1000,3.4375,6,6100,1047,feet,jsons/v1_VE1000_randls_15.json,1431206,1696138,48,Woman
28,252260,DepthScenes,duration_manipulation_targetAtFixation,jsons/v1_VE1000_randls_15.json,http://54.235.29.9/FacialAge/BNav_EC2/DepthDuration/v2_depth_duration_MTurk/v2_DepthDuration_HTML.html#380,380,1364,768,1364,768,8-29-2022,9-43-3,29,depth_duration_stimuli/000502_2014-06-08_23-02-32_260595134347_rgbf000063-resize_4/000502_2014-06-08_23-02-32_260595134347_rgbf000063-resize_4-target.png,1000,2.431,5,4689,1122,feet,jsons/v1_VE1000_randls_15.json,1431206,1696138,48,Woman
29,252260,DepthScenes,duration_manipulation_targetAtFixation,jsons/v1_VE1000_randls_15.json,http://54.235.29.9/FacialAge/BNav_EC2/DepthDuration/v2_depth_duration_MTurk/v2_DepthDuration_HTML.html#380,380,1364,768,1364,768,8-29-2022,9-43-3,30,depth_duration_stimuli/000375_2014-06-08_11-17-29_260595134347_rgbf000133-resize_2/000375_2014-06-08_11-17-29_260595134347_rgbf000133-resize-original.jpg,1000,4.718,6,4272,1044,feet,jsons/v1_VE1000_randls_15.json,1431206,1696138,48,Woman
30,252260,DepthScenes,duration_manipulation_targetAtFixation,jsons/v1_VE1000_randls_15.json,http://54.235.29.9/FacialAge/BNav_EC2/DepthDuration/v2_depth_duration_MTurk/v2_DepthDuration_HTML.html#380,380,1364,768,1364,768,8-29-2022,9-43-3,31,depth_duration_stimuli/001066_2014-06-08_22-03-20_260595134347_rgbf000066-resize_4/001066_2014-06-08_22-03-20_260595134347_rgbf000066-resize_4-target.png,1000,4.2330000000000005,5,5759,785,feet,jsons/v1_VE1000_randls_15.json,1431206,1696138,48,Woman
31,252260,DepthScenes,duration_manipulation_targetAtFixation,jsons/v1_VE1000_randls_15.json,http://54.235.29.9/FacialAge/BNav_EC2/DepthDuration/v2_depth_duration_MTurk/v2_DepthDuration_HTML.html#380,380,1364,768,1364,768,8-29-2022,9-43-3,32,depth_duration_stimuli/000742_2014-06-08_18-48-09_260595134347_rgbf000164-resize_4/000742_2014-06-08_18-48-09_260595134347_rgbf000164-resize_4-target.png,1000,4.632,6,4220,1124,feet,jsons/v1_VE1000_randls_15.json,1431206,1696138,48,Woman
32,252260,DepthScenes,duration_manipulation_targetAtFixation,jsons/v1_VE1000_randls_15.json,http://54.235.29.9/FacialAge/BNav_EC2/DepthDuration/v2_depth_duration_MTurk/v2_DepthDuration_HTML.html#380,380,1364,768,1364,768,8-29-2022,9-43-3,33,depth_duration_stimuli/001806_2014-06-26_20-50-20_260595134347_rgbf000091-resize_1/001806_2014-06-26_20-50-20_260595134347_rgbf000091-resize_1-target.png,1000,2.7305,5,5456,962,feet,jsons/v1_VE1000_randls_15.json,1431206,1696138,48,Woman
33,252260,DepthScenes,duration_manipulation_targetAtFixation,jsons/v1_VE1000_randls_15.json,http://54.235.29.9/FacialAge/BNav_EC2/DepthDuration/v2_depth_duration_MTurk/v2_DepthDuration_HTML.html#380,380,1364,768,1364,768,8-29-2022,9-43-3,34,depth_duration_stimuli/001617_2014-06-20_11-35-32_260595134347_rgbf000066-resize_1/001617_2014-06-20_11-35-32_260595134347_rgbf000066-resize_1-target.png,1000,3.7910000000000004,6,4267,995,feet,jsons/v1_VE1000_randls_15.json,1431206,1696138,48,Woman
34,252260,DepthScenes,duration_manipulation_targetAtFixation,jsons/v1_VE1000_randls_15.json,http://54.235.29.9/FacialAge/BNav_EC2/DepthDuration/v2_depth_duration_MTurk/v2_DepthDuration_HTML.html#380,380,1364,768,1364,768,8-29-2022,9-43-3,35,depth_duration_stimuli/002763_2014-06-22_19-13-10_094959634447_rgbf000075-resize_4/002763_2014-06-22_19-13-10_094959634447_rgbf000075-resize_4-target.png,1000,1.68375,5,4777,991,feet,jsons/v1_VE1000_randls_15.json,1431206,1696138,48,Woman
35,252260,DepthScenes,duration_manipulation_targetAtFixation,jsons/v1_VE1000_randls_15.json,http://54.235.29.9/FacialAge/BNav_EC2/DepthDuration/v2_depth_duration_MTurk/v2_DepthDuration_HTML.html#380,380,1364,768,1364,768,8-29-2022,9-43-3,36,depth_duration_stimuli/002209_2014-06-28_18-36-10_260595134347_rgbf000051-resize_1/002209_2014-06-28_18-36-10_260595134347_rgbf000051-resize_1-target.png,1000,2.057,5,5538,990,feet,jsons/v1_VE1000_randls_15.json,1431206,1696138,48,Woman
36,252260,DepthScenes,duration_manipulation_targetAtFixation,jsons/v1_VE1000_randls_15.json,http://54.235.29.9/FacialAge/BNav_EC2/DepthDuration/v2_depth_duration_MTurk/v2_DepthDuration_HTML.html#380,380,1364,768,1364,768,8-29-2022,9-43-3,37,depth_duration_stimuli/002905_2014-06-03_18-04-43_094959634447_rgbf000151-resize_2/002905_2014-06-03_18-04-43_094959634447_rgbf000151-resize_2-target.png,1000,2.0295,6,7421,930,feet,jsons/v1_VE1000_randls_15.json,1431206,1696138,48,Woman
37,252260,DepthScenes,duration_manipulation_targetAtFixation,jsons/v1_VE1000_randls_15.json,http://54.235.29.9/FacialAge/BNav_EC2/DepthDuration/v2_depth_duration_MTurk/v2_DepthDuration_HTML.html#380,380,1364,768,1364,768,8-29-2022,9-43-3,38,depth_duration_stimuli/003423_2014-05-21_10-23-26_094959634447_rgbf002665-resize_2/003423_2014-05-21_10-23-26_094959634447_rgbf002665-resize_2-target.png,1000,3.2575,5,4438,1104,feet,jsons/v1_VE1000_randls_15.json,1431206,1696138,48,Woman
38,252260,DepthScenes,duration_manipulation_targetAtFixation,jsons/v1_VE1000_randls_15.json,http://54.235.29.9/FacialAge/BNav_EC2/DepthDuration/v2_depth_duration_MTurk/v2_DepthDuration_HTML.html#380,380,1364,768,1364,768,8-29-2022,9-43-3,39,depth_duration_stimuli/001011_2014-06-08_23-18-54_260595134347_rgbf000044-resize_4/001011_2014-06-08_23-18-54_260595134347_rgbf000044-resize_4-target.png,1000,2.4730000000000003,6,8672,1004,feet,jsons/v1_VE1000_randls_15.json,1431206,1696138,48,Woman
39,252260,DepthScenes,duration_manipulation_targetAtFixation,jsons/v1_VE1000_randls_15.json,http://54.235.29.9/FacialAge/BNav_EC2/DepthDuration/v2_depth_duration_MTurk/v2_DepthDuration_HTML.html#380,380,1364,768,1364,768,8-29-2022,9-43-3,40,depth_duration_stimuli/002875_2014-06-01_15-19-00_094959634447_rgbf000151-resize_1/002875_2014-06-01_15-19-00_094959634447_rgbf000151-resize_1-target.png,1000,1.9675,5,4878,995,feet,jsons/v1_VE1000_randls_15.json,1431206,1696138,48,Woman
40,252260,DepthScenes,duration_manipulation_targetAtFixation,jsons/v1_VE1000_randls_15.json,http://54.235.29.9/FacialAge/BNav_EC2/DepthDuration/v2_depth_duration_MTurk/v2_DepthDuration_HTML.html#380,380,1364,768,1364,768,8-29-2022,9-43-3,41,depth_duration_stimuli/000414_2014-06-04_19-49-13_260595134347_rgbf000044-resize_0/000414_2014-06-04_19-49-13_260595134347_rgbf000044-resize_0-target.png,1000,4.329,6,5777,940,feet,jsons/v1_VE1000_randls_15.json,1431206,1696138,48,Woman
41,252260,DepthScenes,duration_manipulation_targetAtFixation,jsons/v1_VE1000_randls_15.json,http://54.235.29.9/FacialAge/BNav_EC2/DepthDuration/v2_depth_duration_MTurk/v2_DepthDuration_HTML.html#380,380,1364,768,1364,768,8-29-2022,9-43-3,42,depth_duration_stimuli/003129_2014-05-12_10-48-10_094959634447_rgbf000100-resize_0/003129_2014-05-12_10-48-10_094959634447_rgbf000100-resize_0-target.png,1000,4.9305,5,4656,1260,feet,jsons/v1_VE1000_randls_15.json,1431206,1696138,48,Woman
42,252260,DepthScenes,duration_manipulation_targetAtFixation,jsons/v1_VE1000_randls_15.json,http://54.235.29.9/FacialAge/BNav_EC2/DepthDuration/v2_depth_duration_MTurk/v2_DepthDuration_HTML.html#380,380,1364,768,1364,768,8-29-2022,9-43-3,43,depth_duration_stimuli/000506_2014-06-08_23-21-00_260595134347_rgbf000070-resize_7/000506_2014-06-08_23-21-00_260595134347_rgbf000070-resize_7-target.png,1000,4.0585,6,5978,534,feet,jsons/v1_VE1000_randls_15.json,1431206,1696138,48,Woman
43,252260,DepthScenes,duration_manipulation_targetAtFixation,jsons/v1_VE1000_randls_15.json,http://54.235.29.9/FacialAge/BNav_EC2/DepthDuration/v2_depth_duration_MTurk/v2_DepthDuration_HTML.html#380,380,1364,768,1364,768,8-29-2022,9-43-3,44,depth_duration_stimuli/003079_2014-06-15_15-18-20_094959634447_rgbf000152-resize_8/003079_2014-06-15_15-18-20_094959634447_rgbf000152-resize_8-target.png,1000,2.8775,5,59818,997,feet,jsons/v1_VE1000_randls_15.json,1431206,1696138,48,Woman
44,252260,DepthScenes,duration_manipulation_targetAtFixation,jsons/v1_VE1000_randls_15.json,http://54.235.29.9/FacialAge/BNav_EC2/DepthDuration/v2_depth_duration_MTurk/v2_DepthDuration_HTML.html#380,380,1364,768,1364,768,8-29-2022,9-43-3,45,depth_duration_stimuli/000787_2014-06-08_22-33-53_260595134347_rgbf000175-resize_1/000787_2014-06-08_22-33-53_260595134347_rgbf000175-resize-original.jpg,1000,4.784,6,7713,1009,feet,jsons/v1_VE1000_randls_15.json,1431206,1696138,48,Woman
45,252260,DepthScenes,duration_manipulation_targetAtFixation,jsons/v1_VE1000_randls_15.json,http://54.235.29.9/FacialAge/BNav_EC2/DepthDuration/v2_depth_duration_MTurk/v2_DepthDuration_HTML.html#380,380,1364,768,1364,768,8-29-2022,9-43-3,46,depth_duration_stimuli/001016_2014-06-09_16-16-10_260595134347_rgbf000112-resize_5/001016_2014-06-09_16-16-10_260595134347_rgbf000112-resize_5-target.png,1000,1.6565,5,7688,1145,feet,jsons/v1_VE1000_randls_15.json,1431206,1696138,48,Woman
46,252260,DepthScenes,duration_manipulation_targetAtFixation,jsons/v1_VE1000_randls_15.json,http://54.235.29.9/FacialAge/BNav_EC2/DepthDuration/v2_depth_duration_MTurk/v2_DepthDuration_HTML.html#380,380,1364,768,1364,768,8-29-2022,9-43-3,47,depth_duration_stimuli/002340_2014-06-28_20-05-46_260595134347_rgbf000113-resize_0/002340_2014-06-28_20-05-46_260595134347_rgbf000113-resize_0-target.png,1000,2.4735,6,5482,1870,feet,jsons/v1_VE1000_randls_15.json,1431206,1696138,48,Woman
47,252260,DepthScenes,duration_manipulation_targetAtFixation,jsons/v1_VE1000_randls_15.json,http://54.235.29.9/FacialAge/BNav_EC2/DepthDuration/v2_depth_duration_MTurk/v2_DepthDuration_HTML.html#380,380,1364,768,1364,768,8-29-2022,9-43-3,48,depth_duration_stimuli/000368_2014-06-09_15-53-01_260595134347_rgbf000155-resize_2/000368_2014-06-09_15-53-01_260595134347_rgbf000155-resize_2-target.png,1000,2.4859999999999998,5,6488,1017,feet,jsons/v1_VE1000_randls_15.json,1431206,1696138,48,Woman
48,252260,DepthScenes,duration_manipulation_targetAtFixation,jsons/v1_VE1000_randls_15.json,http://54.235.29.9/FacialAge/BNav_EC2/DepthDuration/v2_depth_duration_MTurk/v2_DepthDuration_HTML.html#380,380,1364,768,1364,768,8-29-2022,9-43-3,49,depth_duration_stimuli/002678_2014-06-13_16-15-32_094959634447_rgbf000151-resize_6/002678_2014-06-13_16-15-32_094959634447_rgbf000151-resize_6-target.png,1000,2.1830000000000003,6,4112,987,feet,jsons/v1_VE1000_randls_15.json,1431206,1696138,48,Woman
49,252260,DepthScenes,duration_manipulation_targetAtFixation,jsons/v1_VE1000_randls_15.json,http://54.235.29.9/FacialAge/BNav_EC2/DepthDuration/v2_depth_duration_MTurk/v2_DepthDuration_HTML.html#380,380,1364,768,1364,768,8-29-2022,9-43-3,50,depth_duration_stimuli/000917_2014-06-09_22-45-29_260595134347_rgbf000149-resize_3/000917_2014-06-09_22-45-29_260595134347_rgbf000149-resize_3-target.png,1000,4.1865,5,15074,988,feet,jsons/v1_VE1000_randls_15.json,1431206,1696138,48,Woman
50,252260,DepthScenes,duration_manipulation_targetAtFixation,jsons/v1_VE1000_randls_15.json,http://54.235.29.9/FacialAge/BNav_EC2/DepthDuration/v2_depth_duration_MTurk/v2_DepthDuration_HTML.html#380,380,1364,768,1364,768,8-29-2022,9-43-3,51,depth_duration_stimuli/002323_2014-06-28_20-01-54_260595134347_rgbf000051-resize_4/002323_2014-06-28_20-01-54_260595134347_rgbf000051-resize_4-target.png,1000,3.7310000000000003,6,6897,1002,feet,jsons/v1_VE1000_randls_15.json,1431206,1696138,48,Woman
51,252260,DepthScenes,duration_manipulation_targetAtFixation,jsons/v1_VE1000_randls_15.json,http://54.235.29.9/FacialAge/BNav_EC2/DepthDuration/v2_depth_duration_MTurk/v2_DepthDuration_HTML.html#380,380,1364,768,1364,768,8-29-2022,9-43-3,52,depth_duration_stimuli/001150_2014-06-17_15-27-34_260595134347_rgbf000108-resize_2/001150_2014-06-17_15-27-34_260595134347_rgbf000108-resize_2-target.png,1000,4.0325,5,13535,996,feet,jsons/v1_VE1000_randls_15.json,1431206,1696138,48,Woman
52,252260,DepthScenes,duration_manipulation_targetAtFixation,jsons/v1_VE1000_randls_15.json,http://54.235.29.9/FacialAge/BNav_EC2/DepthDuration/v2_depth_duration_MTurk/v2_DepthDuration_HTML.html#380,380,1364,768,1364,768,8-29-2022,9-43-3,53,depth_duration_stimuli/000665_2014-06-09_20-42-35_260595134347_rgbf000110-resize_1/000665_2014-06-09_20-42-35_260595134347_rgbf000110-resize_1-target.png,1000,3.057,6,12506,976,feet,jsons/v1_VE1000_randls_15.json,1431206,1696138,48,Woman
53,252260,DepthScenes,duration_manipulation_targetAtFixation,jsons/v1_VE1000_randls_15.json,http://54.235.29.9/FacialAge/BNav_EC2/DepthDuration/v2_depth_duration_MTurk/v2_DepthDuration_HTML.html#380,380,1364,768,1364,768,8-29-2022,9-43-3,54,depth_duration_stimuli/001244_2014-06-17_16-47-45_260595134347_rgbf000030-resize_4/001244_2014-06-17_16-47-45_260595134347_rgbf000030-resize_4-target.png,1000,2.0425,5,11152,986,feet,jsons/v1_VE1000_randls_15.json,1431206,1696138,48,Woman
54,252260,DepthScenes,duration_manipulation_targetAtFixation,jsons/v1_VE1000_randls_15.json,http://54.235.29.9/FacialAge/BNav_EC2/DepthDuration/v2_depth_duration_MTurk/v2_DepthDuration_HTML.html#380,380,1364,768,1364,768,8-29-2022,9-43-3,55,depth_duration_stimuli/003495_2014-05-21_16-01-51_094959634447_rgbf000100-resize_3/003495_2014-05-21_16-01-51_094959634447_rgbf000100-resize_3-target.png,1000,1.6255,6,4700,988,feet,jsons/v1_VE1000_randls_15.json,1431206,1696138,48,Woman
55,252260,DepthScenes,duration_manipulation_targetAtFixation,jsons/v1_VE1000_randls_15.json,http://54.235.29.9/FacialAge/BNav_EC2/DepthDuration/v2_depth_duration_MTurk/v2_DepthDuration_HTML.html#380,380,1364,768,1364,768,8-29-2022,9-43-3,56,depth_duration_stimuli/003534_2014-05-22_15-06-10_094959634447_rgbf000102-resize_4/003534_2014-05-22_15-06-10_094959634447_rgbf000102-resize_4-target.png,1000,1.426,5,7175,1004,feet,jsons/v1_VE1000_randls_15.json,1431206,1696138,48,Woman
56,252260,DepthScenes,duration_manipulation_targetAtFixation,jsons/v1_VE1000_randls_15.json,http://54.235.29.9/FacialAge/BNav_EC2/DepthDuration/v2_depth_duration_MTurk/v2_DepthDuration_HTML.html#380,380,1364,768,1364,768,8-29-2022,9-43-3,57,depth_duration_stimuli/002637_2014-06-24_14-51-13_094959634447_rgbf000066-resize_4/002637_2014-06-24_14-51-13_094959634447_rgbf000066-resize_4-target.png,1000,1.9955,6,3712,771,feet,jsons/v1_VE1000_randls_15.json,1431206,1696138,48,Woman
57,252260,DepthScenes,duration_manipulation_targetAtFixation,jsons/v1_VE1000_randls_15.json,http://54.235.29.9/FacialAge/BNav_EC2/DepthDuration/v2_depth_duration_MTurk/v2_DepthDuration_HTML.html#380,380,1364,768,1364,768,8-29-2022,9-43-3,58,depth_duration_stimuli/003621_2014-05-23_18-06-08_094959634447_rgbf000101-resize_1/003621_2014-05-23_18-06-08_094959634447_rgbf000101-resize_1-target.png,1000,3.9835,5,6340,513,feet,jsons/v1_VE1000_randls_15.json,1431206,1696138,48,Woman
58,252260,DepthScenes,duration_manipulation_targetAtFixation,jsons/v1_VE1000_randls_15.json,http://54.235.29.9/FacialAge/BNav_EC2/DepthDuration/v2_depth_duration_MTurk/v2_DepthDuration_HTML.html#380,380,1364,768,1364,768,8-29-2022,9-43-3,59,depth_duration_stimuli/001584_2014-06-20_11-07-43_260595134347_rgbf000002-resize_1/001584_2014-06-20_11-07-43_260595134347_rgbf000002-resize_1-target.png,1000,3.53,6,4218,1171,feet,jsons/v1_VE1000_randls_15.json,1431206,1696138,48,Woman
59,252260,DepthScenes,duration_manipulation_targetAtFixation,jsons/v1_VE1000_randls_15.json,http://54.235.29.9/FacialAge/BNav_EC2/DepthDuration/v2_depth_duration_MTurk/v2_DepthDuration_HTML.html#380,380,1364,768,1364,768,8-29-2022,9-43-3,60,depth_duration_stimuli/000522_2014-06-08_13-35-06_260595134347_rgbf000244-resize_1/000522_2014-06-08_13-35-06_260595134347_rgbf000244-resize_1-target.png,1000,2.3715,5,5711,1002,feet,jsons/v1_VE1000_randls_15.json,1431206,1696138,48,Woman
60,252260,DepthScenes,duration_manipulation_targetAtFixation,jsons/v1_VE1000_randls_15.json,http://54.235.29.9/FacialAge/BNav_EC2/DepthDuration/v2_depth_duration_MTurk/v2_DepthDuration_HTML.html#380,380,1364,768,1364,768,8-29-2022,9-43-3,61,depth_duration_stimuli/002949_2014-06-26_15-57-42_094959634447_rgbf000079-resize_1/002949_2014-06-26_15-57-42_094959634447_rgbf000079-resize_1-target.png,1000,1.8915,6,5953,3007,feet,jsons/v1_VE1000_randls_15.json,1431206,1696138,48,Woman
61,252260,DepthScenes,duration_manipulation_targetAtFixation,jsons/v1_VE1000_randls_15.json,http://54.235.29.9/FacialAge/BNav_EC2/DepthDuration/v2_depth_duration_MTurk/v2_DepthDuration_HTML.html#380,380,1364,768,1364,768,8-29-2022,9-43-3,62,depth_duration_stimuli/001055_2014-06-08_18-45-35_260595134347_rgbf000111-resize_4/001055_2014-06-08_18-45-35_260595134347_rgbf000111-resize_4-target.png,1000,2.4290000000000003,5,3505,1267,feet,jsons/v1_VE1000_randls_15.json,1431206,1696138,48,Woman
62,252260,DepthScenes,duration_manipulation_targetAtFixation,jsons/v1_VE1000_randls_15.json,http://54.235.29.9/FacialAge/BNav_EC2/DepthDuration/v2_depth_duration_MTurk/v2_DepthDuration_HTML.html#380,380,1364,768,1364,768,8-29-2022,9-43-3,63,depth_duration_stimuli/000549_2014-06-08_22-10-24_260595134347_rgbf000247-resize_3/000549_2014-06-08_22-10-24_260595134347_rgbf000247-resize_3-target.png,1000,1.841,5,5111,1015,feet,jsons/v1_VE1000_randls_15.json,1431206,1696138,48,Woman
63,252260,DepthScenes,duration_manipulation_targetAtFixation,jsons/v1_VE1000_randls_15.json,http://54.235.29.9/FacialAge/BNav_EC2/DepthDuration/v2_depth_duration_MTurk/v2_DepthDuration_HTML.html#380,380,1364,768,1364,768,8-29-2022,9-43-3,64,depth_duration_stimuli/001808_2014-06-26_20-50-58_260595134347_rgbf000029-resize_1/001808_2014-06-26_20-50-58_260595134347_rgbf000029-resize_1-target.png,1000,4.249,6,6060,1008,feet,jsons/v1_VE1000_randls_15.json,1431206,1696138,48,Woman
64,252260,DepthScenes,duration_manipulation_targetAtFixation,jsons/v1_VE1000_randls_15.json,http://54.235.29.9/FacialAge/BNav_EC2/DepthDuration/v2_depth_duration_MTurk/v2_DepthDuration_HTML.html#380,380,1364,768,1364,768,8-29-2022,9-43-3,65,depth_duration_stimuli/001815_2014-06-26_20-52-55_260595134347_rgbf000020-resize_0/001815_2014-06-26_20-52-55_260595134347_rgbf000020-resize_0-target.png,1000,3.3865,5,5344,1018,feet,jsons/v1_VE1000_randls_15.json,1431206,1696138,48,Woman
65,252260,DepthScenes,duration_manipulation_targetAtFixation,jsons/v1_VE1000_randls_15.json,http://54.235.29.9/FacialAge/BNav_EC2/DepthDuration/v2_depth_duration_MTurk/v2_DepthDuration_HTML.html#380,380,1364,768,1364,768,8-29-2022,9-43-3,66,depth_duration_stimuli/001222_2014-06-17_16-24-06_260595134347_rgbf000073-resize_0/001222_2014-06-17_16-24-06_260595134347_rgbf000073-resize-original.jpg,1000,1.4385,6,8643,967,feet,jsons/v1_VE1000_randls_15.json,1431206,1696138,48,Woman
66,252260,DepthScenes,duration_manipulation_targetAtFixation,jsons/v1_VE1000_randls_15.json,http://54.235.29.9/FacialAge/BNav_EC2/DepthDuration/v2_depth_duration_MTurk/v2_DepthDuration_HTML.html#380,380,1364,768,1364,768,8-29-2022,9-43-3,67,depth_duration_stimuli/002153_2014-06-25_21-27-18_260595134347_rgbf000038-resize_5/002153_2014-06-25_21-27-18_260595134347_rgbf000038-resize_5-target.png,1000,2.505,2,7042,1228,feet,jsons/v1_VE1000_randls_15.json,1431206,1696138,48,Woman
67,252260,DepthScenes,duration_manipulation_targetAtFixation,jsons/v1_VE1000_randls_15.json,http://54.235.29.9/FacialAge/BNav_EC2/DepthDuration/v2_depth_duration_MTurk/v2_DepthDuration_HTML.html#380,380,1364,768,1364,768,8-29-2022,9-43-3,68,depth_duration_stimuli/002660_2014-06-13_15-44-18_094959634447_rgbf001878-resize_2/002660_2014-06-13_15-44-18_094959634447_rgbf001878-resize_2-target.png,1000,3.576,6,6794,884,feet,jsons/v1_VE1000_randls_15.json,1431206,1696138,48,Woman
68,252260,DepthScenes,duration_manipulation_targetAtFixation,jsons/v1_VE1000_randls_15.json,http://54.235.29.9/FacialAge/BNav_EC2/DepthDuration/v2_depth_duration_MTurk/v2_DepthDuration_HTML.html#380,380,1364,768,1364,768,8-29-2022,9-43-3,69,depth_duration_stimuli/002509_2014-06-24_13-19-22_094959634447_rgbf000077-resize_0/002509_2014-06-24_13-19-22_094959634447_rgbf000077-resize_0-target.png,1000,1.3065,5,5569,989,feet,jsons/v1_VE1000_randls_15.json,1431206,1696138,48,Woman
69,252260,DepthScenes,duration_manipulation_targetAtFixation,jsons/v1_VE1000_randls_15.json,http://54.235.29.9/FacialAge/BNav_EC2/DepthDuration/v2_depth_duration_MTurk/v2_DepthDuration_HTML.html#380,380,1364,768,1364,768,8-29-2022,9-43-3,70,depth_duration_stimuli/003338_2014-05-20_11-01-23_094959634447_rgbf000051-resize_6/003338_2014-05-20_11-01-23_094959634447_rgbf000051-resize_6-target.png,1000,1.693,6,3648,1006,feet,jsons/v1_VE1000_randls_15.json,1431206,1696138,48,Woman
70,252260,DepthScenes,duration_manipulation_targetAtFixation,jsons/v1_VE1000_randls_15.json,http://54.235.29.9/FacialAge/BNav_EC2/DepthDuration/v2_depth_duration_MTurk/v2_DepthDuration_HTML.html#380,380,1364,768,1364,768,8-29-2022,9-43-3,71,depth_duration_stimuli/003070_2014-06-15_14-58-27_094959634447_rgbf000150-resize_3/003070_2014-06-15_14-58-27_094959634447_rgbf000150-resize_3-target.png,1000,2.9415,5,7025,1019,feet,jsons/v1_VE1000_randls_15.json,1431206,1696138,48,Woman
71,252260,DepthScenes,duration_manipulation_targetAtFixation,jsons/v1_VE1000_randls_15.json,http://54.235.29.9/FacialAge/BNav_EC2/DepthDuration/v2_depth_duration_MTurk/v2_DepthDuration_HTML.html#380,380,1364,768,1364,768,8-29-2022,9-43-3,72,depth_duration_stimuli/000943_2014-06-09_19-31-07_260595134347_rgbf000128-resize_1/000943_2014-06-09_19-31-07_260595134347_rgbf000128-resize_1-target.png,1000,1.9765,6,5912,1130,feet,jsons/v1_VE1000_randls_15.json,1431206,1696138,48,Woman
72,252260,DepthScenes,duration_manipulation_targetAtFixation,jsons/v1_VE1000_randls_15.json,http://54.235.29.9/FacialAge/BNav_EC2/DepthDuration/v2_depth_duration_MTurk/v2_DepthDuration_HTML.html#380,380,1364,768,1364,768,8-29-2022,9-43-3,73,depth_duration_stimuli/001555_2014-06-20_17-12-10_260595134347_rgbf000065-resize_4/001555_2014-06-20_17-12-10_260595134347_rgbf000065-resize_4-target.png,1000,1.633,5,7045,640,feet,jsons/v1_VE1000_randls_15.json,1431206,1696138,48,Woman
73,252260,DepthScenes,duration_manipulation_targetAtFixation,jsons/v1_VE1000_randls_15.json,http://54.235.29.9/FacialAge/BNav_EC2/DepthDuration/v2_depth_duration_MTurk/v2_DepthDuration_HTML.html#380,380,1364,768,1364,768,8-29-2022,9-43-3,74,depth_duration_stimuli/000103_2014-05-14_22-01-17_260595134347_rgbf000152-resize_5/000103_2014-05-14_22-01-17_260595134347_rgbf000152-resize_5-target.png,1000,1.993,6,3681,993,feet,jsons/v1_VE1000_randls_15.json,1431206,1696138,48,Woman
74,252260,DepthScenes,duration_manipulation_targetAtFixation,jsons/v1_VE1000_randls_15.json,http://54.235.29.9/FacialAge/BNav_EC2/DepthDuration/v2_depth_duration_MTurk/v2_DepthDuration_HTML.html#380,380,1364,768,1364,768,8-29-2022,9-43-3,75,depth_duration_stimuli/000009_2014-05-26_14-32-05_260595134347_rgbf000034-resize_3/000009_2014-05-26_14-32-05_260595134347_rgbf000034-resize_3-target.png,1000,3.8715,6,5791,1004,feet,jsons/v1_VE1000_randls_15.json,1431206,1696138,48,Woman
75,252260,DepthScenes,duration_manipulation_targetAtFixation,jsons/v1_VE1000_randls_15.json,http://54.235.29.9/FacialAge/BNav_EC2/DepthDuration/v2_depth_duration_MTurk/v2_DepthDuration_HTML.html#380,380,1364,768,1364,768,8-29-2022,9-43-3,76,depth_duration_stimuli/001828_2014-06-26_21-40-03_260595134347_rgbf000024-resize_0/001828_2014-06-26_21-40-03_260595134347_rgbf000024-resize_0-target.png,1000,4.8260000000000005,6,3603,998,feet,jsons/v1_VE1000_randls_15.json,1431206,1696138,48,Woman
76,252260,DepthScenes,duration_manipulation_targetAtFixation,jsons/v1_VE1000_randls_15.json,http://54.235.29.9/FacialAge/BNav_EC2/DepthDuration/v2_depth_duration_MTurk/v2_DepthDuration_HTML.html#380,380,1364,768,1364,768,8-29-2022,9-43-3,77,depth_duration_stimuli/000642_2014-06-08_16-59-25_260595134347_rgbf000098-resize_2/000642_2014-06-08_16-59-25_260595134347_rgbf000098-resize_2-target.png,1000,2.8815,6,2704,0,feet,jsons/v1_VE1000_randls_15.json,1431206,1696138,48,Woman
77,252260,DepthScenes,duration_manipulation_targetAtFixation,jsons/v1_VE1000_randls_15.json,http://54.235.29.9/FacialAge/BNav_EC2/DepthDuration/v2_depth_duration_MTurk/v2_DepthDuration_HTML.html#380,380,1364,768,1364,768,8-29-2022,9-43-3,78,depth_duration_stimuli/002425_2014-06-28_20-27-29_260595134347_rgbf000031-resize_8/002425_2014-06-28_20-27-29_260595134347_rgbf000031-resize_8-target.png,1000,3.8960000000000004,6,7533,1050,feet,jsons/v1_VE1000_randls_15.json,1431206,1696138,48,Woman
78,252260,DepthScenes,duration_manipulation_targetAtFixation,jsons/v1_VE1000_randls_15.json,http://54.235.29.9/FacialAge/BNav_EC2/DepthDuration/v2_depth_duration_MTurk/v2_DepthDuration_HTML.html#380,380,1364,768,1364,768,8-29-2022,9-43-3,79,depth_duration_stimuli/002630_2014-06-24_14-47-50_094959634447_rgbf000055-resize_1/002630_2014-06-24_14-47-50_094959634447_rgbf000055-resize_1-target.png,1000,3.0095,5,5682,984,feet,jsons/v1_VE1000_randls_15.json,1431206,1696138,48,Woman
79,252260,DepthScenes,duration_manipulation_targetAtFixation,jsons/v1_VE1000_randls_15.json,http://54.235.29.9/FacialAge/BNav_EC2/DepthDuration/v2_depth_duration_MTurk/v2_DepthDuration_HTML.html#380,380,1364,768,1364,768,8-29-2022,9-43-3,80,depth_duration_stimuli/002758_2014-06-22_19-11-20_094959634447_rgbf000128-resize_1/002758_2014-06-22_19-11-20_094959634447_rgbf000128-resize_1-target.png,1000,2.555,5,3755,951,feet,jsons/v1_VE1000_randls_15.json,1431206,1696138,48,Woman
80,252260,DepthScenes,duration_manipulation_targetAtFixation,jsons/v1_VE1000_randls_15.json,http://54.235.29.9/FacialAge/BNav_EC2/DepthDuration/v2_depth_duration_MTurk/v2_DepthDuration_HTML.html#380,380,1364,768,1364,768,8-29-2022,9-43-3,81,depth_duration_stimuli/001158_2014-06-17_15-32-16_260595134347_rgbf000138-resize_2/001158_2014-06-17_15-32-16_260595134347_rgbf000138-resize_2-target.png,1000,4.5315,6,5294,936,feet,jsons/v1_VE1000_randls_15.json,1431206,1696138,48,Woman
81,252260,DepthScenes,duration_manipulation_targetAtFixation,jsons/v1_VE1000_randls_15.json,http://54.235.29.9/FacialAge/BNav_EC2/DepthDuration/v2_depth_duration_MTurk/v2_DepthDuration_HTML.html#380,380,1364,768,1364,768,8-29-2022,9-43-3,82,depth_duration_stimuli/000556_2014-06-09_22-42-56_260595134347_rgbf000214-resize_1/000556_2014-06-09_22-42-56_260595134347_rgbf000214-resize_1-target.png,1000,4.8415,5,4181,1004,feet,jsons/v1_VE1000_randls_15.json,1431206,1696138,48,Woman
82,252260,DepthScenes,duration_manipulation_targetAtFixation,jsons/v1_VE1000_randls_15.json,http://54.235.29.9/FacialAge/BNav_EC2/DepthDuration/v2_depth_duration_MTurk/v2_DepthDuration_HTML.html#380,380,1364,768,1364,768,8-29-2022,9-43-3,83,depth_duration_stimuli/001167_2014-06-17_15-38-07_260595134347_rgbf000108-resize_0/001167_2014-06-17_15-38-07_260595134347_rgbf000108-resize_0-target.png,1000,1.8505,6,5240,693,feet,jsons/v1_VE1000_randls_15.json,1431206,1696138,48,Woman
83,252260,DepthScenes,duration_manipulation_targetAtFixation,jsons/v1_VE1000_randls_15.json,http://54.235.29.9/FacialAge/BNav_EC2/DepthDuration/v2_depth_duration_MTurk/v2_DepthDuration_HTML.html#380,380,1364,768,1364,768,8-29-2022,9-43-3,84,depth_duration_stimuli/003587_2014-05-23_16-48-02_094959634447_rgbf002384-resize_2/003587_2014-05-23_16-48-02_094959634447_rgbf002384-resize_2-target.png,1000,1.357,5,4021,1447,feet,jsons/v1_VE1000_randls_15.json,1431206,1696138,48,Woman
84,252260,DepthScenes,duration_manipulation_targetAtFixation,jsons/v1_VE1000_randls_15.json,http://54.235.29.9/FacialAge/BNav_EC2/DepthDuration/v2_depth_duration_MTurk/v2_DepthDuration_HTML.html#380,380,1364,768,1364,768,8-29-2022,9-43-3,85,depth_duration_stimuli/002725_2014-06-22_11-47-51_094959634447_rgbf000070-resize_1/002725_2014-06-22_11-47-51_094959634447_rgbf000070-resize_1-target.png,1000,2.195,6,5057,1007,feet,jsons/v1_VE1000_randls_15.json,1431206,1696138,48,Woman
85,252260,DepthScenes,duration_manipulation_targetAtFixation,jsons/v1_VE1000_randls_15.json,http://54.235.29.9/FacialAge/BNav_EC2/DepthDuration/v2_depth_duration_MTurk/v2_DepthDuration_HTML.html#380,380,1364,768,1364,768,8-29-2022,9-43-3,86,depth_duration_stimuli/002344_2014-06-28_20-06-29_260595134347_rgbf000030-resize_1/002344_2014-06-28_20-06-29_260595134347_rgbf000030-resize_1-target.png,1000,1.5795,5,3502,991,feet,jsons/v1_VE1000_randls_15.json,1431206,1696138,48,Woman
86,252260,DepthScenes,duration_manipulation_targetAtFixation,jsons/v1_VE1000_randls_15.json,http://54.235.29.9/FacialAge/BNav_EC2/DepthDuration/v2_depth_duration_MTurk/v2_DepthDuration_HTML.html#380,380,1364,768,1364,768,8-29-2022,9-43-3,87,depth_duration_stimuli/000736_2014-06-08_18-24-15_260595134347_rgbf000206-resize_3/000736_2014-06-08_18-24-15_260595134347_rgbf000206-resize_3-target.png,1000,3.515,5,4914,1014,feet,jsons/v1_VE1000_randls_15.json,1431206,1696138,48,Woman
87,252260,DepthScenes,duration_manipulation_targetAtFixation,jsons/v1_VE1000_randls_15.json,http://54.235.29.9/FacialAge/BNav_EC2/DepthDuration/v2_depth_duration_MTurk/v2_DepthDuration_HTML.html#380,380,1364,768,1364,768,8-29-2022,9-43-3,88,depth_duration_stimuli/000137_2014-05-20_17-04-49_260595134347_rgbf000120-resize_1/000137_2014-05-20_17-04-49_260595134347_rgbf000120-resize_1-target.png,1000,3.786,6,8755,1004,feet,jsons/v1_VE1000_randls_15.json,1431206,1696138,48,Woman
88,252260,DepthScenes,duration_manipulation_targetAtFixation,jsons/v1_VE1000_randls_15.json,http://54.235.29.9/FacialAge/BNav_EC2/DepthDuration/v2_depth_duration_MTurk/v2_DepthDuration_HTML.html#380,380,1364,768,1364,768,8-29-2022,9-43-3,89,depth_duration_stimuli/000436_2014-06-09_22-25-11_260595134347_rgbf000137-resize_1/000436_2014-06-09_22-25-11_260595134347_rgbf000137-resize_1-target.png,1000,4.0705,5,11565,1122,feet,jsons/v1_VE1000_randls_15.json,1431206,1696138,48,Woman
89,252260,DepthScenes,duration_manipulation_targetAtFixation,jsons/v1_VE1000_randls_15.json,http://54.235.29.9/FacialAge/BNav_EC2/DepthDuration/v2_depth_duration_MTurk/v2_DepthDuration_HTML.html#380,380,1364,768,1364,768,8-29-2022,9-43-3,90,depth_duration_stimuli/002444_2014-06-28_20-32-08_260595134347_rgbf000027-resize_0/002444_2014-06-28_20-32-08_260595134347_rgbf000027-resize_0-target.png,1000,4.388999999999999,6,10036,1069,feet,jsons/v1_VE1000_randls_15.json,1431206,1696138,48,Woman
90,252260,DepthScenes,duration_manipulation_targetAtFixation,jsons/v1_VE1000_randls_15.json,http://54.235.29.9/FacialAge/BNav_EC2/DepthDuration/v2_depth_duration_MTurk/v2_DepthDuration_HTML.html#380,380,1364,768,1364,768,8-29-2022,9-43-3,91,depth_duration_stimuli/002600_2014-06-24_14-27-04_094959634447_rgbf000074-resize_2/002600_2014-06-24_14-27-04_094959634447_rgbf000074-resize_2-target.png,1000,2.7575,5,10831,956,feet,jsons/v1_VE1000_randls_15.json,1431206,1696138,48,Woman
91,252260,DepthScenes,duration_manipulation_targetAtFixation,jsons/v1_VE1000_randls_15.json,http://54.235.29.9/FacialAge/BNav_EC2/DepthDuration/v2_depth_duration_MTurk/v2_DepthDuration_HTML.html#380,380,1364,768,1364,768,8-29-2022,9-43-3,92,depth_duration_stimuli/003228_2014-05-14_13-42-35_094959634447_rgbf000101-resize_1/003228_2014-05-14_13-42-35_094959634447_rgbf000101-resize_1-target.png,1000,1.9680000000000002,6,5723,1008,feet,jsons/v1_VE1000_randls_15.json,1431206,1696138,48,Woman
92,252260,DepthScenes,duration_manipulation_targetAtFixation,jsons/v1_VE1000_randls_15.json,http://54.235.29.9/FacialAge/BNav_EC2/DepthDuration/v2_depth_duration_MTurk/v2_DepthDuration_HTML.html#380,380,1364,768,1364,768,8-29-2022,9-43-3,93,depth_duration_stimuli/000682_2014-06-08_23-14-58_260595134347_rgbf000041-resize_5/000682_2014-06-08_23-14-58_260595134347_rgbf000041-resize_5-target.png,1000,2.7239999999999998,5,7786,997,feet,jsons/v1_VE1000_randls_15.json,1431206,1696138,48,Woman
93,252260,DepthScenes,duration_manipulation_targetAtFixation,jsons/v1_VE1000_randls_15.json,http://54.235.29.9/FacialAge/BNav_EC2/DepthDuration/v2_depth_duration_MTurk/v2_DepthDuration_HTML.html#380,380,1364,768,1364,768,8-29-2022,9-43-3,94,depth_duration_stimuli/001650_2014-06-20_12-09-00_260595134347_rgbf000087-resize_3/001650_2014-06-20_12-09-00_260595134347_rgbf000087-resize_3-target.png,1000,1.9505,6,3241,1010,feet,jsons/v1_VE1000_randls_15.json,1431206,1696138,48,Woman
94,252260,DepthScenes,duration_manipulation_targetAtFixation,jsons/v1_VE1000_randls_15.json,http://54.235.29.9/FacialAge/BNav_EC2/DepthDuration/v2_depth_duration_MTurk/v2_DepthDuration_HTML.html#380,380,1364,768,1364,768,8-29-2022,9-43-3,95,depth_duration_stimuli/002445_2014-06-28_20-32-16_260595134347_rgbf000029-resize_4/002445_2014-06-28_20-32-16_260595134347_rgbf000029-resize_4-target.png,1000,2.5315,55,9207,992,feet,jsons/v1_VE1000_randls_15.json,1431206,1696138,48,Woman
95,252260,DepthScenes,duration_manipulation_targetAtFixation,jsons/v1_VE1000_randls_15.json,http://54.235.29.9/FacialAge/BNav_EC2/DepthDuration/v2_depth_duration_MTurk/v2_DepthDuration_HTML.html#380,380,1364,768,1364,768,8-29-2022,9-43-3,96,depth_duration_stimuli/000780_2014-06-08_22-28-29_260595134347_rgbf000126-resize_1/000780_2014-06-08_22-28-29_260595134347_rgbf000126-resize_1-target.png,1000,3.3825,6,16795,154,feet,jsons/v1_VE1000_randls_15.json,1431206,1696138,48,Woman
96,252260,DepthScenes,duration_manipulation_targetAtFixation,jsons/v1_VE1000_randls_15.json,http://54.235.29.9/FacialAge/BNav_EC2/DepthDuration/v2_depth_duration_MTurk/v2_DepthDuration_HTML.html#380,380,1364,768,1364,768,8-29-2022,9-43-3,97,depth_duration_stimuli/000788_2014-06-08_22-34-36_260595134347_rgbf000131-resize_1/000788_2014-06-08_22-34-36_260595134347_rgbf000131-resize_1-target.png,1000,3.359,5,16798,1258,feet,jsons/v1_VE1000_randls_15.json,1431206,1696138,48,Woman
97,252260,DepthScenes,duration_manipulation_targetAtFixation,jsons/v1_VE1000_randls_15.json,http://54.235.29.9/FacialAge/BNav_EC2/DepthDuration/v2_depth_duration_MTurk/v2_DepthDuration_HTML.html#380,380,1364,768,1364,768,8-29-2022,9-43-3,98,depth_duration_stimuli/001235_2014-06-17_16-37-36_260595134347_rgbf000084-resize_4/001235_2014-06-17_16-37-36_260595134347_rgbf000084-resize_4-target.png,1000,3.6605,5,21947,1083,feet,jsons/v1_VE1000_randls_15.json,1431206,1696138,48,Woman
98,252260,DepthScenes,duration_manipulation_targetAtFixation,jsons/v1_VE1000_randls_15.json,http://54.235.29.9/FacialAge/BNav_EC2/DepthDuration/v2_depth_duration_MTurk/v2_DepthDuration_HTML.html#380,380,1364,768,1364,768,8-29-2022,9-43-3,99,depth_duration_stimuli/001540_2014-06-20_17-01-05_260595134347_rgbf000086-resize_2/001540_2014-06-20_17-01-05_260595134347_rgbf000086-resize-original.jpg,1000,1.459,5,12894,994,feet,jsons/v1_VE1000_randls_15.json,1431206,1696138,48,Woman
99,252260,DepthScenes,duration_manipulation_targetAtFixation,jsons/v1_VE1000_randls_15.json,http://54.235.29.9/FacialAge/BNav_EC2/DepthDuration/v2_depth_duration_MTurk/v2_DepthDuration_HTML.html#380,380,1364,768,1364,768,8-29-2022,9-43-3,100,depth_duration_stimuli/000692_2014-06-08_13-09-42_260595134347_rgbf000199-resize_2/000692_2014-06-08_13-09-42_260595134347_rgbf000199-resize_2-target.png,1000,3.661,5,6862,856,feet,jsons/v1_VE1000_randls_15.json,1431206,1696138,48,Woman
100,252260,DepthScenes,duration_manipulation_targetAtFixation,jsons/v1_VE1000_randls_15.json,http://54.235.29.9/FacialAge/BNav_EC2/DepthDuration/v2_depth_duration_MTurk/v2_DepthDuration_HTML.html#380,380,1364,768,1364,768,8-29-2022,9-43-3,101,depth_duration_stimuli/001094_2014-06-15_17-36-00_260595134347_rgbf000205-resize_0/001094_2014-06-15_17-36-00_260595134347_rgbf000205-resize_0-target.png,1000,4.2175,5,10042,452,feet,jsons/v1_VE1000_randls_15.json,1431206,1696138,48,Woman
101,252260,DepthScenes,duration_manipulation_targetAtFixation,jsons/v1_VE1000_randls_15.json,http://54.235.29.9/FacialAge/BNav_EC2/DepthDuration/v2_depth_duration_MTurk/v2_DepthDuration_HTML.html#380,380,1364,768,1364,768,8-29-2022,9-43-3,102,depth_duration_stimuli/000810_2014-06-08_17-20-01_260595134347_rgbf000105-resize_0/000810_2014-06-08_17-20-01_260595134347_rgbf000105-resize_0-target.png,1000,1.4865,5,8355,990,feet,jsons/v1_VE1000_randls_15.json,1431206,1696138,48,Woman
102,252260,DepthScenes,duration_manipulation_targetAtFixation,jsons/v1_VE1000_randls_15.json,http://54.235.29.9/FacialAge/BNav_EC2/DepthDuration/v2_depth_duration_MTurk/v2_DepthDuration_HTML.html#380,380,1364,768,1364,768,8-29-2022,9-43-3,103,depth_duration_stimuli/001214_2014-06-17_16-13-55_260595134347_rgbf000111-resize_0/001214_2014-06-17_16-13-55_260595134347_rgbf000111-resize_0-target.png,1000,2.6505,5,5885,975,feet,jsons/v1_VE1000_randls_15.json,1431206,1696138,48,Woman
103,252260,DepthScenes,duration_manipulation_targetAtFixation,jsons/v1_VE1000_randls_15.json,http://54.235.29.9/FacialAge/BNav_EC2/DepthDuration/v2_depth_duration_MTurk/v2_DepthDuration_HTML.html#380,380,1364,768,1364,768,8-29-2022,9-43-3,104,depth_duration_stimuli/003292_2014-05-14_21-53-49_094959634447_rgbf000100-resize_2/003292_2014-05-14_21-53-49_094959634447_rgbf000100-resize_2-target.png,1000,3.4815,6,4221,1318,feet,jsons/v1_VE1000_randls_15.json,1431206,1696138,48,Woman
104,252260,DepthScenes,duration_manipulation_targetAtFixation,jsons/v1_VE1000_randls_15.json,http://54.235.29.9/FacialAge/BNav_EC2/DepthDuration/v2_depth_duration_MTurk/v2_DepthDuration_HTML.html#380,380,1364,768,1364,768,8-29-2022,9-43-3,105,depth_duration_stimuli/002639_2014-06-24_14-51-37_094959634447_rgbf000074-resize_4/002639_2014-06-24_14-51-37_094959634447_rgbf000074-resize_4-target.png,1000,4.0375,5,8490,916,feet,jsons/v1_VE1000_randls_15.json,1431206,1696138,48,Woman
105,252260,DepthScenes,duration_manipulation_targetAtFixation,jsons/v1_VE1000_randls_15.json,http://54.235.29.9/FacialAge/BNav_EC2/DepthDuration/v2_depth_duration_MTurk/v2_DepthDuration_HTML.html#380,380,1364,768,1364,768,8-29-2022,9-43-3,106,depth_duration_stimuli/002118_2014-06-25_20-32-08_260595134347_rgbf000078-resize_1/002118_2014-06-25_20-32-08_260595134347_rgbf000078-resize_1-target.png,1000,2.6460000000000004,5,8548,929,feet,jsons/v1_VE1000_randls_15.json,1431206,1696138,48,Woman
106,252260,DepthScenes,duration_manipulation_targetAtFixation,jsons/v1_VE1000_randls_15.json,http://54.235.29.9/FacialAge/BNav_EC2/DepthDuration/v2_depth_duration_MTurk/v2_DepthDuration_HTML.html#380,380,1364,768,1364,768,8-29-2022,9-43-3,107,depth_duration_stimuli/001516_2014-06-20_16-25-09_260595134347_rgbf000076-resize_2/001516_2014-06-20_16-25-09_260595134347_rgbf000076-resize_2-target.png,1000,1.7445,5,24858,1004,feet,jsons/v1_VE1000_randls_15.json,1431206,1696138,48,Woman
107,252260,DepthScenes,duration_manipulation_targetAtFixation,jsons/v1_VE1000_randls_15.json,http://54.235.29.9/FacialAge/BNav_EC2/DepthDuration/v2_depth_duration_MTurk/v2_DepthDuration_HTML.html#380,380,1364,768,1364,768,8-29-2022,9-43-3,108,depth_duration_stimuli/000469_2014-06-09_19-42-10_260595134347_rgbf000081-resize_1/000469_2014-06-09_19-42-10_260595134347_rgbf000081-resize_1-target.png,1000,1.652,5,39091,1366,feet,jsons/v1_VE1000_randls_15.json,1431206,1696138,48,Woman
108,252260,DepthScenes,duration_manipulation_targetAtFixation,jsons/v1_VE1000_randls_15.json,http://54.235.29.9/FacialAge/BNav_EC2/DepthDuration/v2_depth_duration_MTurk/v2_DepthDuration_HTML.html#380,380,1364,768,1364,768,8-29-2022,9-43-3,109,depth_duration_stimuli/000483_2014-06-09_20-41-45_260595134347_rgbf000116-resize_4/000483_2014-06-09_20-41-45_260595134347_rgbf000116-resize_4-target.png,1000,1.337,5,12253,1002,feet,jsons/v1_VE1000_randls_15.json,1431206,1696138,48,Woman
109,252260,DepthScenes,duration_manipulation_targetAtFixation,jsons/v1_VE1000_randls_15.json,http://54.235.29.9/FacialAge/BNav_EC2/DepthDuration/v2_depth_duration_MTurk/v2_DepthDuration_HTML.html#380,380,1364,768,1364,768,8-29-2022,9-43-3,110,depth_duration_stimuli/001056_2014-06-08_18-46-44_260595134347_rgbf000068-resize_0/001056_2014-06-08_18-46-44_260595134347_rgbf000068-resize_0-target.png,1000,2.6625,6,7110,881,feet,jsons/v1_VE1000_randls_15.json,1431206,1696138,48,Woman
110,252260,DepthScenes,duration_manipulation_targetAtFixation,jsons/v1_VE1000_randls_15.json,http://54.235.29.9/FacialAge/BNav_EC2/DepthDuration/v2_depth_duration_MTurk/v2_DepthDuration_HTML.html#380,380,1364,768,1364,768,8-29-2022,9-43-3,111,depth_duration_stimuli/002199_2014-06-28_18-33-56_260595134347_rgbf000074-resize_0/002199_2014-06-28_18-33-56_260595134347_rgbf000074-resize_0-target.png,1000,1.996,5,9896,1026,feet,jsons/v1_VE1000_randls_15.json,1431206,1696138,48,Woman
111,252260,DepthScenes,duration_manipulation_targetAtFixation,jsons/v1_VE1000_randls_15.json,http://54.235.29.9/FacialAge/BNav_EC2/DepthDuration/v2_depth_duration_MTurk/v2_DepthDuration_HTML.html#380,380,1364,768,1364,768,8-29-2022,9-43-3,112,depth_duration_stimuli/000470_2014-06-09_19-42-40_260595134347_rgbf000094-resize_1/000470_2014-06-09_19-42-40_260595134347_rgbf000094-resize_1-target.png,1000,1.831,6,15286,1063,feet,jsons/v1_VE1000_randls_15.json,1431206,1696138,48,Woman
112,252260,DepthScenes,duration_manipulation_targetAtFixation,jsons/v1_VE1000_randls_15.json,http://54.235.29.9/FacialAge/BNav_EC2/DepthDuration/v2_depth_duration_MTurk/v2_DepthDuration_HTML.html#380,380,1364,768,1364,768,8-29-2022,9-43-3,113,depth_duration_stimuli/000109_2014-05-14_23-41-52_260595134347_rgbf000035-resize_9/000109_2014-05-14_23-41-52_260595134347_rgbf000035-resize_9-target.png,1000,1.3545,5,18140,1179,feet,jsons/v1_VE1000_randls_15.json,1431206,1696138,48,Woman
113,252260,DepthScenes,duration_manipulation_targetAtFixation,jsons/v1_VE1000_randls_15.json,http://54.235.29.9/FacialAge/BNav_EC2/DepthDuration/v2_depth_duration_MTurk/v2_DepthDuration_HTML.html#380,380,1364,768,1364,768,8-29-2022,9-43-3,114,depth_duration_stimuli/001059_2014-06-08_21-53-27_260595134347_rgbf000061-resize_4/001059_2014-06-08_21-53-27_260595134347_rgbf000061-resize_4-target.png,1000,2.4185,5,14274,1005,feet,jsons/v1_VE1000_randls_15.json,1431206,1696138,48,Woman
114,252260,DepthScenes,duration_manipulation_targetAtFixation,jsons/v1_VE1000_randls_15.json,http://54.235.29.9/FacialAge/BNav_EC2/DepthDuration/v2_depth_duration_MTurk/v2_DepthDuration_HTML.html#380,380,1364,768,1364,768,8-29-2022,9-43-3,115,depth_duration_stimuli/001032_2014-06-08_13-23-17_260595134347_rgbf000021-resize_3/001032_2014-06-08_13-23-17_260595134347_rgbf000021-resize_3-target.png,1000,3.2725,6,10581,1001,feet,jsons/v1_VE1000_randls_15.json,1431206,1696138,48,Woman
115,252260,DepthScenes,duration_manipulation_targetAtFixation,jsons/v1_VE1000_randls_15.json,http://54.235.29.9/FacialAge/BNav_EC2/DepthDuration/v2_depth_duration_MTurk/v2_DepthDuration_HTML.html#380,380,1364,768,1364,768,8-29-2022,9-43-3,116,depth_duration_stimuli/001170_2014-06-17_15-43-44_260595134347_rgbf000096-resize_6/001170_2014-06-17_15-43-44_260595134347_rgbf000096-resize-original.jpg,1000,1.1909999999999998,6,8007,1151,feet,jsons/v1_VE1000_randls_15.json,1431206,1696138,48,Woman
116,252260,DepthScenes,duration_manipulation_targetAtFixation,jsons/v1_VE1000_randls_15.json,http://54.235.29.9/FacialAge/BNav_EC2/DepthDuration/v2_depth_duration_MTurk/v2_DepthDuration_HTML.html#380,380,1364,768,1364,768,8-29-2022,9-43-3,117,depth_duration_stimuli/002549_2014-06-24_13-41-39_094959634447_rgbf000022-resize_3/002549_2014-06-24_13-41-39_094959634447_rgbf000022-resize_3-target.png,1000,1.476,6,13053,1013,feet,jsons/v1_VE1000_randls_15.json,1431206,1696138,48,Woman
117,252260,DepthScenes,duration_manipulation_targetAtFixation,jsons/v1_VE1000_randls_15.json,http://54.235.29.9/FacialAge/BNav_EC2/DepthDuration/v2_depth_duration_MTurk/v2_DepthDuration_HTML.html#380,380,1364,768,1364,768,8-29-2022,9-43-3,118,depth_duration_stimuli/002750_2014-06-22_19-08-03_094959634447_rgbf000094-resize_4/002750_2014-06-22_19-08-03_094959634447_rgbf000094-resize_4-target.png,1000,2.354,6,5168,955,feet,jsons/v1_VE1000_randls_15.json,1431206,1696138,48,Woman
118,252260,DepthScenes,duration_manipulation_targetAtFixation,jsons/v1_VE1000_randls_15.json,http://54.235.29.9/FacialAge/BNav_EC2/DepthDuration/v2_depth_duration_MTurk/v2_DepthDuration_HTML.html#380,380,1364,768,1364,768,8-29-2022,9-43-3,119,depth_duration_stimuli/001092_2014-06-15_17-34-58_260595134347_rgbf000171-resize_3/001092_2014-06-15_17-34-58_260595134347_rgbf000171-resize_3-target.png,1000,2.6935,6,11548,1208,feet,jsons/v1_VE1000_randls_15.json,1431206,1696138,48,Woman
119,252260,DepthScenes,duration_manipulation_targetAtFixation,jsons/v1_VE1000_randls_15.json,http://54.235.29.9/FacialAge/BNav_EC2/DepthDuration/v2_depth_duration_MTurk/v2_DepthDuration_HTML.html#380,380,1364,768,1364,768,8-29-2022,9-43-3,120,depth_duration_stimuli/002545_2014-06-24_13-38-53_094959634447_rgbf000080-resize_4/002545_2014-06-24_13-38-53_094959634447_rgbf000080-resize_4-target.png,1000,1.9205,6,10032,1000,feet,jsons/v1_VE1000_randls_15.json,1431206,1696138,48,Woman
120,252260,DepthScenes,duration_manipulation_targetAtFixation,jsons/v1_VE1000_randls_15.json,http://54.235.29.9/FacialAge/BNav_EC2/DepthDuration/v2_depth_duration_MTurk/v2_DepthDuration_HTML.html#380,380,1364,768,1364,768,8-29-2022,9-43-3,121,depth_duration_stimuli/001164_2014-06-17_15-35-46_260595134347_rgbf000085-resize_3/001164_2014-06-17_15-35-46_260595134347_rgbf000085-resize_3-target.png,1000,2.354,6,14698,1007,feet,jsons/v1_VE1000_randls_15.json,1431206,1696138,48,Woman
121,252260,DepthScenes,duration_manipulation_targetAtFixation,jsons/v1_VE1000_randls_15.json,http://54.235.29.9/FacialAge/BNav_EC2/DepthDuration/v2_depth_duration_MTurk/v2_DepthDuration_HTML.html#380,380,1364,768,1364,768,8-29-2022,9-43-3,122,depth_duration_stimuli/001136_2014-06-17_15-19-41_260595134347_rgbf000076-resize_3/001136_2014-06-17_15-19-41_260595134347_rgbf000076-resize_3-target.png,1000,1.8655,6,10222,875,feet,jsons/v1_VE1000_randls_15.json,1431206,1696138,48,Woman
122,252260,DepthScenes,duration_manipulation_targetAtFixation,jsons/v1_VE1000_randls_15.json,http://54.235.29.9/FacialAge/BNav_EC2/DepthDuration/v2_depth_duration_MTurk/v2_DepthDuration_HTML.html#380,380,1364,768,1364,768,8-29-2022,9-43-3,123,depth_duration_stimuli/002043_2014-06-24_20-29-38_260595134347_rgbf000039-resize_4/002043_2014-06-24_20-29-38_260595134347_rgbf000039-resize_4-target.png,1000,2.8435,6,14763,1277,feet,jsons/v1_VE1000_randls_15.json,1431206,1696138,48,Woman
123,252260,DepthScenes,duration_manipulation_targetAtFixation,jsons/v1_VE1000_randls_15.json,http://54.235.29.9/FacialAge/BNav_EC2/DepthDuration/v2_depth_duration_MTurk/v2_DepthDuration_HTML.html#380,380,1364,768,1364,768,8-29-2022,9-43-3,124,depth_duration_stimuli/003048_2014-06-15_13-49-43_094959634447_rgbf000150-resize_1/003048_2014-06-15_13-49-43_094959634447_rgbf000150-resize_1-target.png,1000,4.0035,6,6194,977,feet,jsons/v1_VE1000_randls_15.json,1431206,1696138,48,Woman
124,252260,DepthScenes,duration_manipulation_targetAtFixation,jsons/v1_VE1000_randls_15.json,http://54.235.29.9/FacialAge/BNav_EC2/DepthDuration/v2_depth_duration_MTurk/v2_DepthDuration_HTML.html#380,380,1364,768,1364,768,8-29-2022,9-43-3,125,depth_duration_stimuli/002039_2014-06-24_20-22-38_260595134347_rgbf000084-resize_1/002039_2014-06-24_20-22-38_260595134347_rgbf000084-resize_1-target.png,1000,4.408,5,8989,1062,feet,jsons/v1_VE1000_randls_15.json,1431206,1696138,48,Woman
125,252260,DepthScenes,duration_manipulation_targetAtFixation,jsons/v1_VE1000_randls_15.json,http://54.235.29.9/FacialAge/BNav_EC2/DepthDuration/v2_depth_duration_MTurk/v2_DepthDuration_HTML.html#380,380,1364,768,1364,768,8-29-2022,9-43-3,126,depth_duration_stimuli/002103_2014-06-25_20-00-40_260595134347_rgbf000049-resize_0/002103_2014-06-25_20-00-40_260595134347_rgbf000049-resize_0-target.png,1000,4.105,6,5964,1739,feet,jsons/v1_VE1000_randls_15.json,1431206,1696138,48,Woman
126,252260,DepthScenes,duration_manipulation_targetAtFixation,jsons/v1_VE1000_randls_15.json,http://54.235.29.9/FacialAge/BNav_EC2/DepthDuration/v2_depth_duration_MTurk/v2_DepthDuration_HTML.html#380,380,1364,768,1364,768,8-29-2022,9-43-3,127,depth_duration_stimuli/002213_2014-06-28_18-37-58_260595134347_rgbf000055-resize_1/002213_2014-06-28_18-37-58_260595134347_rgbf000055-resize_1-target.png,1000,3.62,6,5594,902,feet,jsons/v1_VE1000_randls_15.json,1431206,1696138,48,Woman
127,252260,DepthScenes,duration_manipulation_targetAtFixation,jsons/v1_VE1000_randls_15.json,http://54.235.29.9/FacialAge/BNav_EC2/DepthDuration/v2_depth_duration_MTurk/v2_DepthDuration_HTML.html#380,380,1364,768,1364,768,8-29-2022,9-43-3,128,depth_duration_stimuli/000691_2014-06-08_13-08-50_260595134347_rgbf000132-resize_3/000691_2014-06-08_13-08-50_260595134347_rgbf000132-resize_3-target.png,1000,4.1530000000000005,5,3997,1004,feet,jsons/v1_VE1000_randls_15.json,1431206,1696138,48,Woman
128,252260,DepthScenes,duration_manipulation_targetAtFixation,jsons/v1_VE1000_randls_15.json,http://54.235.29.9/FacialAge/BNav_EC2/DepthDuration/v2_depth_duration_MTurk/v2_DepthDuration_HTML.html#380,380,1364,768,1364,768,8-29-2022,9-43-3,129,depth_duration_stimuli/000493_2014-06-09_21-01-18_260595134347_rgbf000196-resize_3/000493_2014-06-09_21-01-18_260595134347_rgbf000196-resize_3-target.png,1000,3.44,6,6841,956,feet,jsons/v1_VE1000_randls_15.json,1431206,1696138,48,Woman
129,252260,DepthScenes,duration_manipulation_targetAtFixation,jsons/v1_VE1000_randls_15.json,http://54.235.29.9/FacialAge/BNav_EC2/DepthDuration/v2_depth_duration_MTurk/v2_DepthDuration_HTML.html#380,380,1364,768,1364,768,8-29-2022,9-43-3,130,depth_duration_stimuli/000191_2014-05-12_17-07-38_260595134347_rgbf000199-resize_0/000191_2014-05-12_17-07-38_260595134347_rgbf000199-resize_0-target.png,1000,3.7995,5,8901,998,feet,jsons/v1_VE1000_randls_15.json,1431206,1696138,48,Woman
130,252260,DepthScenes,duration_manipulation_targetAtFixation,jsons/v1_VE1000_randls_15.json,http://54.235.29.9/FacialAge/BNav_EC2/DepthDuration/v2_depth_duration_MTurk/v2_DepthDuration_HTML.html#380,380,1364,768,1364,768,8-29-2022,9-43-3,131,depth_duration_stimuli/000447_2014-06-08_16-15-46_260595134347_rgbf000130-resize_1/000447_2014-06-08_16-15-46_260595134347_rgbf000130-resize_1-target.png,1000,4.479,6,6201,1023,feet,jsons/v1_VE1000_randls_15.json,1431206,1696138,48,Woman
131,252260,DepthScenes,duration_manipulation_targetAtFixation,jsons/v1_VE1000_randls_15.json,http://54.235.29.9/FacialAge/BNav_EC2/DepthDuration/v2_depth_duration_MTurk/v2_DepthDuration_HTML.html#380,380,1364,768,1364,768,8-29-2022,9-43-3,132,depth_duration_stimuli/001447_2014-06-19_17-00-32_260595134347_rgbf000082-resize_5/001447_2014-06-19_17-00-32_260595134347_rgbf000082-resize_5-target.png,1000,4.13775,5,7084,981,feet,jsons/v1_VE1000_randls_15.json,1431206,1696138,48,Woman
132,252260,DepthScenes,duration_manipulation_targetAtFixation,jsons/v1_VE1000_randls_15.json,http://54.235.29.9/FacialAge/BNav_EC2/DepthDuration/v2_depth_duration_MTurk/v2_DepthDuration_HTML.html#380,380,1364,768,1364,768,8-29-2022,9-43-3,133,depth_duration_stimuli/001133_2014-06-17_14-49-16_260595134347_rgbf000100-resize_0/001133_2014-06-17_14-49-16_260595134347_rgbf000100-resize_0-target.png,1000,4.2115,6,43879,867,feet,jsons/v1_VE1000_randls_15.json,1431206,1696138,48,Woman
133,252260,DepthScenes,duration_manipulation_targetAtFixation,jsons/v1_VE1000_randls_15.json,http://54.235.29.9/FacialAge/BNav_EC2/DepthDuration/v2_depth_duration_MTurk/v2_DepthDuration_HTML.html#380,380,1364,768,1364,768,8-29-2022,9-43-3,134,depth_duration_stimuli/001132_2014-06-17_14-48-54_260595134347_rgbf000100-resize_2/001132_2014-06-17_14-48-54_260595134347_rgbf000100-resize_2-target.png,1000,3.753,6,6759,893,feet,jsons/v1_VE1000_randls_15.json,1431206,1696138,48,Woman
134,252260,DepthScenes,duration_manipulation_targetAtFixation,jsons/v1_VE1000_randls_15.json,http://54.235.29.9/FacialAge/BNav_EC2/DepthDuration/v2_depth_duration_MTurk/v2_DepthDuration_HTML.html#380,380,1364,768,1364,768,8-29-2022,9-43-3,135,depth_duration_stimuli/002072_2014-06-24_21-48-06_260595134347_rgbf000115-resize_0/002072_2014-06-24_21-48-06_260595134347_rgbf000115-resize-original.jpg,1000,4.702,5,6059,891,feet,jsons/v1_VE1000_randls_15.json,1431206,1696138,48,Woman
135,252260,DepthScenes,duration_manipulation_targetAtFixation,jsons/v1_VE1000_randls_15.json,http://54.235.29.9/FacialAge/BNav_EC2/DepthDuration/v2_depth_duration_MTurk/v2_DepthDuration_HTML.html#380,380,1364,768,1364,768,8-29-2022,9-43-3,136,depth_duration_stimuli/000758_2014-06-08_22-05-08_260595134347_rgbf000085-resize_0/000758_2014-06-08_22-05-08_260595134347_rgbf000085-resize_0-target.png,1000,3.3810000000000002,6,5128,1000,feet,jsons/v1_VE1000_randls_15.json,1431206,1696138,48,Woman
136,252260,DepthScenes,duration_manipulation_targetAtFixation,jsons/v1_VE1000_randls_15.json,http://54.235.29.9/FacialAge/BNav_EC2/DepthDuration/v2_depth_duration_MTurk/v2_DepthDuration_HTML.html#380,380,1364,768,1364,768,8-29-2022,9-43-3,137,depth_duration_stimuli/000854_2014-06-09_19-43-13_260595134347_rgbf000066-resize_0/000854_2014-06-09_19-43-13_260595134347_rgbf000066-resize_0-target.png,1000,3.068,5,4613,1013,feet,jsons/v1_VE1000_randls_15.json,1431206,1696138,48,Woman
137,252260,DepthScenes,duration_manipulation_targetAtFixation,jsons/v1_VE1000_randls_15.json,http://54.235.29.9/FacialAge/BNav_EC2/DepthDuration/v2_depth_duration_MTurk/v2_DepthDuration_HTML.html#380,380,1364,768,1364,768,8-29-2022,9-43-3,138,depth_duration_stimuli/000878_2014-06-08_22-52-45_260595134347_rgbf000045-resize_2/000878_2014-06-08_22-52-45_260595134347_rgbf000045-resize_2-target.png,1000,2.092,6,4875,1087,feet,jsons/v1_VE1000_randls_15.json,1431206,1696138,48,Woman
138,252260,DepthScenes,duration_manipulation_targetAtFixation,jsons/v1_VE1000_randls_15.json,http://54.235.29.9/FacialAge/BNav_EC2/DepthDuration/v2_depth_duration_MTurk/v2_DepthDuration_HTML.html#380,380,1364,768,1364,768,8-29-2022,9-43-3,139,depth_duration_stimuli/002953_2014-06-08_17-32-18_094959634447_rgbf000059-resize_5/002953_2014-06-08_17-32-18_094959634447_rgbf000059-resize_5-target.png,1000,1.551,5,4666,499,feet,jsons/v1_VE1000_randls_15.json,1431206,1696138,48,Woman
139,252260,DepthScenes,duration_manipulation_targetAtFixation,jsons/v1_VE1000_randls_15.json,http://54.235.29.9/FacialAge/BNav_EC2/DepthDuration/v2_depth_duration_MTurk/v2_DepthDuration_HTML.html#380,380,1364,768,1364,768,8-29-2022,9-43-3,140,depth_duration_stimuli/001449_2014-06-19_17-01-27_260595134347_rgbf000116-resize_2/001449_2014-06-19_17-01-27_260595134347_rgbf000116-resize_2-target.png,1000,3.452,6,5613,1560,feet,jsons/v1_VE1000_randls_15.json,1431206,1696138,48,Woman
140,252260,DepthScenes,duration_manipulation_targetAtFixation,jsons/v1_VE1000_randls_15.json,http://54.235.29.9/FacialAge/BNav_EC2/DepthDuration/v2_depth_duration_MTurk/v2_DepthDuration_HTML.html#380,380,1364,768,1364,768,8-29-2022,9-43-3,141,depth_duration_stimuli/001450_2014-06-19_17-02-03_260595134347_rgbf000203-resize_4/001450_2014-06-19_17-02-03_260595134347_rgbf000203-resize_4-target.png,1000,4.0106666666667,5,5226,929,feet,jsons/v1_VE1000_randls_15.json,1431206,1696138,48,Woman
141,252260,DepthScenes,duration_manipulation_targetAtFixation,jsons/v1_VE1000_randls_15.json,http://54.235.29.9/FacialAge/BNav_EC2/DepthDuration/v2_depth_duration_MTurk/v2_DepthDuration_HTML.html#380,380,1364,768,1364,768,8-29-2022,9-43-3,142,depth_duration_stimuli/002570_2014-06-24_13-59-54_094959634447_rgbf000059-resize_0/002570_2014-06-24_13-59-54_094959634447_rgbf000059-resize_0-target.png,1000,4.037,6,4811,850,feet,jsons/v1_VE1000_randls_15.json,1431206,1696138,48,Woman
142,252260,DepthScenes,duration_manipulation_targetAtFixation,jsons/v1_VE1000_randls_15.json,http://54.235.29.9/FacialAge/BNav_EC2/DepthDuration/v2_depth_duration_MTurk/v2_DepthDuration_HTML.html#380,380,1364,768,1364,768,8-29-2022,9-43-3,143,depth_duration_stimuli/002467_2014-06-28_20-38-07_260595134347_rgbf000026-resize_2/002467_2014-06-28_20-38-07_260595134347_rgbf000026-resize_2-target.png,1000,4.742,5,4532,1027,feet,jsons/v1_VE1000_randls_15.json,1431206,1696138,48,Woman
143,252260,DepthScenes,duration_manipulation_targetAtFixation,jsons/v1_VE1000_randls_15.json,http://54.235.29.9/FacialAge/BNav_EC2/DepthDuration/v2_depth_duration_MTurk/v2_DepthDuration_HTML.html#380,380,1364,768,1364,768,8-29-2022,9-43-3,144,depth_duration_stimuli/000929_2014-06-09_16-33-19_260595134347_rgbf000139-resize_0/000929_2014-06-09_16-33-19_260595134347_rgbf000139-resize_0-target.png,1000,2.8680000000000003,5,8318,1024,feet,jsons/v1_VE1000_randls_15.json,1431206,1696138,48,Woman
144,252260,DepthScenes,duration_manipulation_targetAtFixation,jsons/v1_VE1000_randls_15.json,http://54.235.29.9/FacialAge/BNav_EC2/DepthDuration/v2_depth_duration_MTurk/v2_DepthDuration_HTML.html#380,380,1364,768,1364,768,8-29-2022,9-43-3,145,depth_duration_stimuli/000457_2014-06-08_16-52-43_260595134347_rgbf000199-resize_1/000457_2014-06-08_16-52-43_260595134347_rgbf000199-resize_1-target.png,1000,3.6489999999999996,6,10114,1016,feet,jsons/v1_VE1000_randls_15.json,1431206,1696138,48,Woman
145,252260,DepthScenes,duration_manipulation_targetAtFixation,jsons/v1_VE1000_randls_15.json,http://54.235.29.9/FacialAge/BNav_EC2/DepthDuration/v2_depth_duration_MTurk/v2_DepthDuration_HTML.html#380,380,1364,768,1364,768,8-29-2022,9-43-3,146,depth_duration_stimuli/001498_2014-06-19_17-45-14_260595134347_rgbf000129-resize_4/001498_2014-06-19_17-45-14_260595134347_rgbf000129-resize-original.jpg,1000,1.4075,5,5494,929,feet,jsons/v1_VE1000_randls_15.json,1431206,1696138,48,Woman
146,252260,DepthScenes,duration_manipulation_targetAtFixation,jsons/v1_VE1000_randls_15.json,http://54.235.29.9/FacialAge/BNav_EC2/DepthDuration/v2_depth_duration_MTurk/v2_DepthDuration_HTML.html#380,380,1364,768,1364,768,8-29-2022,9-43-3,147,depth_duration_stimuli/001029_2014-06-08_13-17-57_260595134347_rgbf000065-resize_1/001029_2014-06-08_13-17-57_260595134347_rgbf000065-resize_1-target.png,1000,3.0835,5,5421,992,feet,jsons/v1_VE1000_randls_15.json,1431206,1696138,48,Woman
147,252260,DepthScenes,duration_manipulation_targetAtFixation,jsons/v1_VE1000_randls_15.json,http://54.235.29.9/FacialAge/BNav_EC2/DepthDuration/v2_depth_duration_MTurk/v2_DepthDuration_HTML.html#380,380,1364,768,1364,768,8-29-2022,9-43-3,148,depth_duration_stimuli/000677_2014-06-08_23-10-32_260595134347_rgbf000158-resize_6/000677_2014-06-08_23-10-32_260595134347_rgbf000158-resize_6-target.png,1000,3.556,6,3407,1007,feet,jsons/v1_VE1000_randls_15.json,1431206,1696138,48,Woman
148,252260,DepthScenes,duration_manipulation_targetAtFixation,jsons/v1_VE1000_randls_15.json,http://54.235.29.9/FacialAge/BNav_EC2/DepthDuration/v2_depth_duration_MTurk/v2_DepthDuration_HTML.html#380,380,1364,768,1364,768,8-29-2022,9-43-3,149,depth_duration_stimuli/002788_2014-06-22_19-36-03_094959634447_rgbf000088-resize_2/002788_2014-06-22_19-36-03_094959634447_rgbf000088-resize_2-target.png,1000,1.6465,5,4286,1015,feet,jsons/v1_VE1000_randls_15.json,1431206,1696138,48,Woman
149,252260,DepthScenes,duration_manipulation_targetAtFixation,jsons/v1_VE1000_randls_15.json,http://54.235.29.9/FacialAge/BNav_EC2/DepthDuration/v2_depth_duration_MTurk/v2_DepthDuration_HTML.html#380,380,1364,768,1364,768,8-29-2022,9-43-3,150,depth_duration_stimuli/000749_2014-06-08_21-55-06_260595134347_rgbf000070-resize_2/000749_2014-06-08_21-55-06_260595134347_rgbf000070-resize_2-target.png,1000,2.331,6,3752,1003,feet,jsons/v1_VE1000_randls_15.json,1431206,1696138,48,Woman
150,252260,DepthScenes,duration_manipulation_targetAtFixation,jsons/v1_VE1000_randls_15.json,http://54.235.29.9/FacialAge/BNav_EC2/DepthDuration/v2_depth_duration_MTurk/v2_DepthDuration_HTML.html#380,380,1364,768,1364,768,8-29-2022,9-43-3,151,depth_duration_stimuli/000739_2014-06-08_18-45-58_260595134347_rgbf000068-resize_1/000739_2014-06-08_18-45-58_260595134347_rgbf000068-resize_1-target.png,1000,3.534,5,8046,974,feet,jsons/v1_VE1000_randls_15.json,1431206,1696138,48,Woman
151,252260,DepthScenes,duration_manipulation_targetAtFixation,jsons/v1_VE1000_randls_15.json,http://54.235.29.9/FacialAge/BNav_EC2/DepthDuration/v2_depth_duration_MTurk/v2_DepthDuration_HTML.html#380,380,1364,768,1364,768,8-29-2022,9-43-3,152,depth_duration_stimuli/000734_2014-06-08_17-39-11_260595134347_rgbf000128-resize_2/000734_2014-06-08_17-39-11_260595134347_rgbf000128-resize_2-target.png,1000,4.098,6,5118,961,feet,jsons/v1_VE1000_randls_15.json,1431206,1696138,48,Woman
152,252260,DepthScenes,duration_manipulation_targetAtFixation,jsons/v1_VE1000_randls_15.json,http://54.235.29.9/FacialAge/BNav_EC2/DepthDuration/v2_depth_duration_MTurk/v2_DepthDuration_HTML.html#380,380,1364,768,1364,768,8-29-2022,9-43-3,153,depth_duration_stimuli/002784_2014-06-22_19-26-30_094959634447_rgbf000083-resize_3/002784_2014-06-22_19-26-30_094959634447_rgbf000083-resize_3-target.png,1000,1.8046666666667,5,7194,1124,feet,jsons/v1_VE1000_randls_15.json,1431206,1696138,48,Woman
153,252260,DepthScenes,duration_manipulation_targetAtFixation,jsons/v1_VE1000_randls_15.json,http://54.235.29.9/FacialAge/BNav_EC2/DepthDuration/v2_depth_duration_MTurk/v2_DepthDuration_HTML.html#380,380,1364,768,1364,768,8-29-2022,9-43-3,154,depth_duration_stimuli/001100_2014-06-15_17-46-26_260595134347_rgbf000225-resize_2/001100_2014-06-15_17-46-26_260595134347_rgbf000225-resize_2-target.png,1000,2.24,6,10618,1001,feet,jsons/v1_VE1000_randls_15.json,1431206,1696138,48,Woman
154,252260,DepthScenes,duration_manipulation_targetAtFixation,jsons/v1_VE1000_randls_15.json,http://54.235.29.9/FacialAge/BNav_EC2/DepthDuration/v2_depth_duration_MTurk/v2_DepthDuration_HTML.html#380,380,1364,768,1364,768,8-29-2022,9-43-3,155,depth_duration_stimuli/001570_2014-06-20_17-21-09_260595134347_rgbf000135-resize_4/001570_2014-06-20_17-21-09_260595134347_rgbf000135-resize_4-target.png,1000,4.467,5,11942,990,feet,jsons/v1_VE1000_randls_15.json,1431206,1696138,48,Woman
155,252260,DepthScenes,duration_manipulation_targetAtFixation,jsons/v1_VE1000_randls_15.json,http://54.235.29.9/FacialAge/BNav_EC2/DepthDuration/v2_depth_duration_MTurk/v2_DepthDuration_HTML.html#380,380,1364,768,1364,768,8-29-2022,9-43-3,156,depth_duration_stimuli/001392_2014-06-19_16-07-59_260595134347_rgbf000046-resize_1/001392_2014-06-19_16-07-59_260595134347_rgbf000046-resize_1-target.png,1000,4.135,5,29736,896,feet,jsons/v1_VE1000_randls_15.json,1431206,1696138,48,Woman
156,252260,DepthScenes,duration_manipulation_targetAtFixation,jsons/v1_VE1000_randls_15.json,http://54.235.29.9/FacialAge/BNav_EC2/DepthDuration/v2_depth_duration_MTurk/v2_DepthDuration_HTML.html#380,380,1364,768,1364,768,8-29-2022,9-43-3,157,depth_duration_stimuli/000906_2014-06-08_13-35-43_260595134347_rgbf000155-resize_1/000906_2014-06-08_13-35-43_260595134347_rgbf000155-resize_1-target.png,1000,2.8489999999999998,6,8488,1099,feet,jsons/v1_VE1000_randls_15.json,1431206,1696138,48,Woman
157,252260,DepthScenes,duration_manipulation_targetAtFixation,jsons/v1_VE1000_randls_15.json,http://54.235.29.9/FacialAge/BNav_EC2/DepthDuration/v2_depth_duration_MTurk/v2_DepthDuration_HTML.html#380,380,1364,768,1364,768,8-29-2022,9-43-3,158,depth_duration_stimuli/002805_2014-06-22_19-54-03_094959634447_rgbf000079-resize_1/002805_2014-06-22_19-54-03_094959634447_rgbf000079-resize_1-target.png,1000,3.1439999999999997,5,5408,1005,feet,jsons/v1_VE1000_randls_15.json,1431206,1696138,48,Woman
158,252260,DepthScenes,duration_manipulation_targetAtFixation,jsons/v1_VE1000_randls_15.json,http://54.235.29.9/FacialAge/BNav_EC2/DepthDuration/v2_depth_duration_MTurk/v2_DepthDuration_HTML.html#380,380,1364,768,1364,768,8-29-2022,9-43-3,159,depth_duration_stimuli/001175_2014-06-17_15-45-55_260595134347_rgbf000129-resize_4/001175_2014-06-17_15-45-55_260595134347_rgbf000129-resize_4-target.png,1000,4.255,6,5841,998,feet,jsons/v1_VE1000_randls_15.json,1431206,1696138,48,Woman
159,252260,DepthScenes,duration_manipulation_targetAtFixation,jsons/v1_VE1000_randls_15.json,http://54.235.29.9/FacialAge/BNav_EC2/DepthDuration/v2_depth_duration_MTurk/v2_DepthDuration_HTML.html#380,380,1364,768,1364,768,8-29-2022,9-43-3,160,depth_duration_stimuli/003490_2014-05-21_15-50-11_094959634447_rgbf000101-resize_3/003490_2014-05-21_15-50-11_094959634447_rgbf000101-resize_3-target.png,1000,3.6445,5,9961,1012,feet,jsons/v1_VE1000_randls_15.json,1431206,1696138,48,Woman
160,252260,DepthScenes,duration_manipulation_targetAtFixation,jsons/v1_VE1000_randls_15.json,http://54.235.29.9/FacialAge/BNav_EC2/DepthDuration/v2_depth_duration_MTurk/v2_DepthDuration_HTML.html#380,380,1364,768,1364,768,8-29-2022,9-43-3,161,depth_duration_stimuli/002057_2014-06-24_21-00-13_260595134347_rgbf000120-resize_1/002057_2014-06-24_21-00-13_260595134347_rgbf000120-resize_1-target.png,1000,2.967,6,6790,982,feet,jsons/v1_VE1000_randls_15.json,1431206,1696138,48,Woman
161,252260,DepthScenes,duration_manipulation_targetAtFixation,jsons/v1_VE1000_randls_15.json,http://54.235.29.9/FacialAge/BNav_EC2/DepthDuration/v2_depth_duration_MTurk/v2_DepthDuration_HTML.html#380,380,1364,768,1364,768,8-29-2022,9-43-3,162,depth_duration_stimuli/000709_2014-06-08_13-51-55_260595134347_rgbf000068-resize_3/000709_2014-06-08_13-51-55_260595134347_rgbf000068-resize_3-target.png,1000,1.8030000000000002,5,3903,1008,feet,jsons/v1_VE1000_randls_15.json,1431206,1696138,48,Woman
162,252260,DepthScenes,duration_manipulation_targetAtFixation,jsons/v1_VE1000_randls_15.json,http://54.235.29.9/FacialAge/BNav_EC2/DepthDuration/v2_depth_duration_MTurk/v2_DepthDuration_HTML.html#380,380,1364,768,1364,768,8-29-2022,9-43-3,163,depth_duration_stimuli/002663_2014-06-13_15-50-26_094959634447_rgbf000075-resize_1/002663_2014-06-13_15-50-26_094959634447_rgbf000075-resize_1-target.png,1000,4.7495,6,9589,989,feet,jsons/v1_VE1000_randls_15.json,1431206,1696138,48,Woman
163,252260,DepthScenes,duration_manipulation_targetAtFixation,jsons/v1_VE1000_randls_15.json,http://54.235.29.9/FacialAge/BNav_EC2/DepthDuration/v2_depth_duration_MTurk/v2_DepthDuration_HTML.html#380,380,1364,768,1364,768,8-29-2022,9-43-3,164,depth_duration_stimuli/000409_2014-06-04_19-23-33_260595134347_rgbf000067-resize_0/000409_2014-06-04_19-23-33_260595134347_rgbf000067-resize_0-target.png,1000,3.7335,6,10292,1008,feet,jsons/v1_VE1000_randls_15.json,1431206,1696138,48,Woman
