,subjID,experimentName,versionName,sequenceName,url,selected_row,windowWidth,windowHeight,screenWidth,screenHeight,startDate,startTime,trial,stimulus,duration,actual_depth,depth_estimate,trial_RT,log_sceneDuration,unitSelection,seq_filepath,experimentTime,totalTime,age,gender
0,252951,DepthScenes,duration_manipulation_targetAtFixation,jsons/v1_VE1000_randls_74_rotated.json,http://54.235.29.9/FacialAge/BNav_EC2/DepthDuration/v2_depth_duration_MTurk/v2_DepthDuration_HTML.html#86,86,1366,625,1366,768,8-22-2022,8-0-4,1,depth_duration_stimuli/000691_2014-06-08_13-08-50_260595134347_rgbf000132-resize_3/000691_2014-06-08_13-08-50_260595134347_rgbf000132-resize_3-target.png,1000,4.1530000000000005,3,6669,998,meters,jsons/v1_VE1000_randls_74_rotated.json,903740,1132451,50,Man
1,252951,DepthScenes,duration_manipulation_targetAtFixation,jsons/v1_VE1000_randls_74_rotated.json,http://54.235.29.9/FacialAge/BNav_EC2/DepthDuration/v2_depth_duration_MTurk/v2_DepthDuration_HTML.html#86,86,1366,625,1366,768,8-22-2022,8-0-4,2,depth_duration_stimuli/002213_2014-06-28_18-37-58_260595134347_rgbf000055-resize_1/002213_2014-06-28_18-37-58_260595134347_rgbf000055-resize_1-target.png,1000,3.62,2,6898,1001,meters,jsons/v1_VE1000_randls_74_rotated.json,903740,1132451,50,Man
2,252951,DepthScenes,duration_manipulation_targetAtFixation,jsons/v1_VE1000_randls_74_rotated.json,http://54.235.29.9/FacialAge/BNav_EC2/DepthDuration/v2_depth_duration_MTurk/v2_DepthDuration_HTML.html#86,86,1366,625,1366,768,8-22-2022,8-0-4,3,depth_duration_stimuli/002568_2014-06-24_13-59-21_094959634447_rgbf000062-resize_4/002568_2014-06-24_13-59-21_094959634447_rgbf000062-resize_4-target.png,1000,3.015,4,6352,999,meters,jsons/v1_VE1000_randls_74_rotated.json,903740,1132451,50,Man
3,252951,DepthScenes,duration_manipulation_targetAtFixation,jsons/v1_VE1000_randls_74_rotated.json,http://54.235.29.9/FacialAge/BNav_EC2/DepthDuration/v2_depth_duration_MTurk/v2_DepthDuration_HTML.html#86,86,1366,625,1366,768,8-22-2022,8-0-4,4,depth_duration_stimuli/003492_2014-05-21_15-50-55_094959634447_rgbf000828-resize_1/003492_2014-05-21_15-50-55_094959634447_rgbf000828-resize_1-target.png,1000,4.06875,3,4550,987,meters,jsons/v1_VE1000_randls_74_rotated.json,903740,1132451,50,Man
4,252951,DepthScenes,duration_manipulation_targetAtFixation,jsons/v1_VE1000_randls_74_rotated.json,http://54.235.29.9/FacialAge/BNav_EC2/DepthDuration/v2_depth_duration_MTurk/v2_DepthDuration_HTML.html#86,86,1366,625,1366,768,8-22-2022,8-0-4,5,depth_duration_stimuli/000549_2014-06-08_22-10-24_260595134347_rgbf000247-resize_3/000549_2014-06-08_22-10-24_260595134347_rgbf000247-resize_3-target.png,1000,1.841,3,4908,1006,meters,jsons/v1_VE1000_randls_74_rotated.json,903740,1132451,50,Man
5,252951,DepthScenes,duration_manipulation_targetAtFixation,jsons/v1_VE1000_randls_74_rotated.json,http://54.235.29.9/FacialAge/BNav_EC2/DepthDuration/v2_depth_duration_MTurk/v2_DepthDuration_HTML.html#86,86,1366,625,1366,768,8-22-2022,8-0-4,6,depth_duration_stimuli/001055_2014-06-08_18-45-35_260595134347_rgbf000111-resize_4/001055_2014-06-08_18-45-35_260595134347_rgbf000111-resize_4-target.png,1000,2.4290000000000003,2,5243,869,meters,jsons/v1_VE1000_randls_74_rotated.json,903740,1132451,50,Man
6,252951,DepthScenes,duration_manipulation_targetAtFixation,jsons/v1_VE1000_randls_74_rotated.json,http://54.235.29.9/FacialAge/BNav_EC2/DepthDuration/v2_depth_duration_MTurk/v2_DepthDuration_HTML.html#86,86,1366,625,1366,768,8-22-2022,8-0-4,7,depth_duration_stimuli/003129_2014-05-12_10-48-10_094959634447_rgbf000100-resize_0/003129_2014-05-12_10-48-10_094959634447_rgbf000100-resize_0-target.png,1000,4.9305,3,5514,992,meters,jsons/v1_VE1000_randls_74_rotated.json,903740,1132451,50,Man
7,252951,DepthScenes,duration_manipulation_targetAtFixation,jsons/v1_VE1000_randls_74_rotated.json,http://54.235.29.9/FacialAge/BNav_EC2/DepthDuration/v2_depth_duration_MTurk/v2_DepthDuration_HTML.html#86,86,1366,625,1366,768,8-22-2022,8-0-4,8,depth_duration_stimuli/000414_2014-06-04_19-49-13_260595134347_rgbf000044-resize_0/000414_2014-06-04_19-49-13_260595134347_rgbf000044-resize_0-target.png,1000,4.329,4,5022,1006,meters,jsons/v1_VE1000_randls_74_rotated.json,903740,1132451,50,Man
8,252951,DepthScenes,duration_manipulation_targetAtFixation,jsons/v1_VE1000_randls_74_rotated.json,http://54.235.29.9/FacialAge/BNav_EC2/DepthDuration/v2_depth_duration_MTurk/v2_DepthDuration_HTML.html#86,86,1366,625,1366,768,8-22-2022,8-0-4,9,depth_duration_stimuli/001132_2014-06-17_14-48-54_260595134347_rgbf000100-resize_2/001132_2014-06-17_14-48-54_260595134347_rgbf000100-resize_2-target.png,1000,3.753,3,4375,983,meters,jsons/v1_VE1000_randls_74_rotated.json,903740,1132451,50,Man
9,252951,DepthScenes,duration_manipulation_targetAtFixation,jsons/v1_VE1000_randls_74_rotated.json,http://54.235.29.9/FacialAge/BNav_EC2/DepthDuration/v2_depth_duration_MTurk/v2_DepthDuration_HTML.html#86,86,1366,625,1366,768,8-22-2022,8-0-4,10,depth_duration_stimuli/001133_2014-06-17_14-49-16_260595134347_rgbf000100-resize_0/001133_2014-06-17_14-49-16_260595134347_rgbf000100-resize_0-target.png,1000,4.2115,2,5695,996,meters,jsons/v1_VE1000_randls_74_rotated.json,903740,1132451,50,Man
10,252951,DepthScenes,duration_manipulation_targetAtFixation,jsons/v1_VE1000_randls_74_rotated.json,http://54.235.29.9/FacialAge/BNav_EC2/DepthDuration/v2_depth_duration_MTurk/v2_DepthDuration_HTML.html#86,86,1366,625,1366,768,8-22-2022,8-0-4,11,depth_duration_stimuli/002545_2014-06-24_13-38-53_094959634447_rgbf000080-resize_4/002545_2014-06-24_13-38-53_094959634447_rgbf000080-resize_4-target.png,1000,1.9205,3,5365,1092,meters,jsons/v1_VE1000_randls_74_rotated.json,903740,1132451,50,Man
11,252951,DepthScenes,duration_manipulation_targetAtFixation,jsons/v1_VE1000_randls_74_rotated.json,http://54.235.29.9/FacialAge/BNav_EC2/DepthDuration/v2_depth_duration_MTurk/v2_DepthDuration_HTML.html#86,86,1366,625,1366,768,8-22-2022,8-0-4,12,depth_duration_stimuli/001092_2014-06-15_17-34-58_260595134347_rgbf000171-resize_3/001092_2014-06-15_17-34-58_260595134347_rgbf000171-resize_3-target.png,1000,2.6935,2,4513,1003,meters,jsons/v1_VE1000_randls_74_rotated.json,903740,1132451,50,Man
12,252951,DepthScenes,duration_manipulation_targetAtFixation,jsons/v1_VE1000_randls_74_rotated.json,http://54.235.29.9/FacialAge/BNav_EC2/DepthDuration/v2_depth_duration_MTurk/v2_DepthDuration_HTML.html#86,86,1366,625,1366,768,8-22-2022,8-0-4,13,depth_duration_stimuli/000635_2014-06-08_16-38-42_260595134347_rgbf000106-resize_1/000635_2014-06-08_16-38-42_260595134347_rgbf000106-resize_1-target.png,1000,2.074,4,4487,888,meters,jsons/v1_VE1000_randls_74_rotated.json,903740,1132451,50,Man
13,252951,DepthScenes,duration_manipulation_targetAtFixation,jsons/v1_VE1000_randls_74_rotated.json,http://54.235.29.9/FacialAge/BNav_EC2/DepthDuration/v2_depth_duration_MTurk/v2_DepthDuration_HTML.html#86,86,1366,625,1366,768,8-22-2022,8-0-4,14,depth_duration_stimuli/002279_2014-06-28_18-55-32_260595134347_rgbf000040-resize_5/002279_2014-06-28_18-55-32_260595134347_rgbf000040-resize_5-target.png,1000,1.5043333333333,3,4363,991,meters,jsons/v1_VE1000_randls_74_rotated.json,903740,1132451,50,Man
14,252951,DepthScenes,duration_manipulation_targetAtFixation,jsons/v1_VE1000_randls_74_rotated.json,http://54.235.29.9/FacialAge/BNav_EC2/DepthDuration/v2_depth_duration_MTurk/v2_DepthDuration_HTML.html#86,86,1366,625,1366,768,8-22-2022,8-0-4,15,depth_duration_stimuli/003495_2014-05-21_16-01-51_094959634447_rgbf000100-resize_3/003495_2014-05-21_16-01-51_094959634447_rgbf000100-resize_3-target.png,1000,1.6255,2,5243,989,meters,jsons/v1_VE1000_randls_74_rotated.json,903740,1132451,50,Man
15,252951,DepthScenes,duration_manipulation_targetAtFixation,jsons/v1_VE1000_randls_74_rotated.json,http://54.235.29.9/FacialAge/BNav_EC2/DepthDuration/v2_depth_duration_MTurk/v2_DepthDuration_HTML.html#86,86,1366,625,1366,768,8-22-2022,8-0-4,16,depth_duration_stimuli/001244_2014-06-17_16-47-45_260595134347_rgbf000030-resize_4/001244_2014-06-17_16-47-45_260595134347_rgbf000030-resize_4-target.png,1000,2.0425,3,4204,1005,meters,jsons/v1_VE1000_randls_74_rotated.json,903740,1132451,50,Man
16,252951,DepthScenes,duration_manipulation_targetAtFixation,jsons/v1_VE1000_randls_74_rotated.json,http://54.235.29.9/FacialAge/BNav_EC2/DepthDuration/v2_depth_duration_MTurk/v2_DepthDuration_HTML.html#86,86,1366,625,1366,768,8-22-2022,8-0-4,17,depth_duration_stimuli/001136_2014-06-17_15-19-41_260595134347_rgbf000076-resize_3/001136_2014-06-17_15-19-41_260595134347_rgbf000076-resize_3-target.png,1000,1.8655,2,6929,969,meters,jsons/v1_VE1000_randls_74_rotated.json,903740,1132451,50,Man
17,252951,DepthScenes,duration_manipulation_targetAtFixation,jsons/v1_VE1000_randls_74_rotated.json,http://54.235.29.9/FacialAge/BNav_EC2/DepthDuration/v2_depth_duration_MTurk/v2_DepthDuration_HTML.html#86,86,1366,625,1366,768,8-22-2022,8-0-4,18,depth_duration_stimuli/001164_2014-06-17_15-35-46_260595134347_rgbf000085-resize_3/001164_2014-06-17_15-35-46_260595134347_rgbf000085-resize_3-target.png,1000,2.354,3,3970,1005,meters,jsons/v1_VE1000_randls_74_rotated.json,903740,1132451,50,Man
18,252951,DepthScenes,duration_manipulation_targetAtFixation,jsons/v1_VE1000_randls_74_rotated.json,http://54.235.29.9/FacialAge/BNav_EC2/DepthDuration/v2_depth_duration_MTurk/v2_DepthDuration_HTML.html#86,86,1366,625,1366,768,8-22-2022,8-0-4,19,depth_duration_stimuli/001498_2014-06-19_17-45-14_260595134347_rgbf000129-resize_4/001498_2014-06-19_17-45-14_260595134347_rgbf000129-resize-original.jpg,1000,1.4075,2,6324,1001,meters,jsons/v1_VE1000_randls_74_rotated.json,903740,1132451,50,Man
19,252951,DepthScenes,duration_manipulation_targetAtFixation,jsons/v1_VE1000_randls_74_rotated.json,http://54.235.29.9/FacialAge/BNav_EC2/DepthDuration/v2_depth_duration_MTurk/v2_DepthDuration_HTML.html#86,86,1366,625,1366,768,8-22-2022,8-0-4,20,depth_duration_stimuli/002344_2014-06-28_20-06-29_260595134347_rgbf000030-resize_1/002344_2014-06-28_20-06-29_260595134347_rgbf000030-resize_1-target.png,1000,1.5795,2,5136,1000,meters,jsons/v1_VE1000_randls_74_rotated.json,903740,1132451,50,Man
20,252951,DepthScenes,duration_manipulation_targetAtFixation,jsons/v1_VE1000_randls_74_rotated.json,http://54.235.29.9/FacialAge/BNav_EC2/DepthDuration/v2_depth_duration_MTurk/v2_DepthDuration_HTML.html#86,86,1366,625,1366,768,8-22-2022,8-0-4,21,depth_duration_stimuli/002725_2014-06-22_11-47-51_094959634447_rgbf000070-resize_1/002725_2014-06-22_11-47-51_094959634447_rgbf000070-resize_1-target.png,1000,2.195,2,17092,999,meters,jsons/v1_VE1000_randls_74_rotated.json,903740,1132451,50,Man
21,252951,DepthScenes,duration_manipulation_targetAtFixation,jsons/v1_VE1000_randls_74_rotated.json,http://54.235.29.9/FacialAge/BNav_EC2/DepthDuration/v2_depth_duration_MTurk/v2_DepthDuration_HTML.html#86,86,1366,625,1366,768,8-22-2022,8-0-4,22,depth_duration_stimuli/002323_2014-06-28_20-01-54_260595134347_rgbf000051-resize_4/002323_2014-06-28_20-01-54_260595134347_rgbf000051-resize_4-target.png,1000,3.7310000000000003,2,4683,967,meters,jsons/v1_VE1000_randls_74_rotated.json,903740,1132451,50,Man
22,252951,DepthScenes,duration_manipulation_targetAtFixation,jsons/v1_VE1000_randls_74_rotated.json,http://54.235.29.9/FacialAge/BNav_EC2/DepthDuration/v2_depth_duration_MTurk/v2_DepthDuration_HTML.html#86,86,1366,625,1366,768,8-22-2022,8-0-4,23,depth_duration_stimuli/000917_2014-06-09_22-45-29_260595134347_rgbf000149-resize_3/000917_2014-06-09_22-45-29_260595134347_rgbf000149-resize_3-target.png,1000,4.1865,3,5461,1012,meters,jsons/v1_VE1000_randls_74_rotated.json,903740,1132451,50,Man
23,252951,DepthScenes,duration_manipulation_targetAtFixation,jsons/v1_VE1000_randls_74_rotated.json,http://54.235.29.9/FacialAge/BNav_EC2/DepthDuration/v2_depth_duration_MTurk/v2_DepthDuration_HTML.html#86,86,1366,625,1366,768,8-22-2022,8-0-4,24,depth_duration_stimuli/002949_2014-06-26_15-57-42_094959634447_rgbf000079-resize_1/002949_2014-06-26_15-57-42_094959634447_rgbf000079-resize_1-target.png,1000,1.8915,2,4318,1005,meters,jsons/v1_VE1000_randls_74_rotated.json,903740,1132451,50,Man
24,252951,DepthScenes,duration_manipulation_targetAtFixation,jsons/v1_VE1000_randls_74_rotated.json,http://54.235.29.9/FacialAge/BNav_EC2/DepthDuration/v2_depth_duration_MTurk/v2_DepthDuration_HTML.html#86,86,1366,625,1366,768,8-22-2022,8-0-4,25,depth_duration_stimuli/000522_2014-06-08_13-35-06_260595134347_rgbf000244-resize_1/000522_2014-06-08_13-35-06_260595134347_rgbf000244-resize_1-target.png,1000,2.3715,1,5588,990,meters,jsons/v1_VE1000_randls_74_rotated.json,903740,1132451,50,Man
25,252951,DepthScenes,duration_manipulation_targetAtFixation,jsons/v1_VE1000_randls_74_rotated.json,http://54.235.29.9/FacialAge/BNav_EC2/DepthDuration/v2_depth_duration_MTurk/v2_DepthDuration_HTML.html#86,86,1366,625,1366,768,8-22-2022,8-0-4,26,depth_duration_stimuli/000556_2014-06-09_22-42-56_260595134347_rgbf000214-resize_1/000556_2014-06-09_22-42-56_260595134347_rgbf000214-resize_1-target.png,1000,4.8415,2,4541,971,meters,jsons/v1_VE1000_randls_74_rotated.json,903740,1132451,50,Man
26,252951,DepthScenes,duration_manipulation_targetAtFixation,jsons/v1_VE1000_randls_74_rotated.json,http://54.235.29.9/FacialAge/BNav_EC2/DepthDuration/v2_depth_duration_MTurk/v2_DepthDuration_HTML.html#86,86,1366,625,1366,768,8-22-2022,8-0-4,27,depth_duration_stimuli/001158_2014-06-17_15-32-16_260595134347_rgbf000138-resize_2/001158_2014-06-17_15-32-16_260595134347_rgbf000138-resize_2-target.png,1000,4.5315,2,4462,1000,meters,jsons/v1_VE1000_randls_74_rotated.json,903740,1132451,50,Man
27,252951,DepthScenes,duration_manipulation_targetAtFixation,jsons/v1_VE1000_randls_74_rotated.json,http://54.235.29.9/FacialAge/BNav_EC2/DepthDuration/v2_depth_duration_MTurk/v2_DepthDuration_HTML.html#86,86,1366,625,1366,768,8-22-2022,8-0-4,28,depth_duration_stimuli/001815_2014-06-26_20-52-55_260595134347_rgbf000020-resize_0/001815_2014-06-26_20-52-55_260595134347_rgbf000020-resize_0-target.png,1000,3.3865,3,4322,989,meters,jsons/v1_VE1000_randls_74_rotated.json,903740,1132451,50,Man
28,252951,DepthScenes,duration_manipulation_targetAtFixation,jsons/v1_VE1000_randls_74_rotated.json,http://54.235.29.9/FacialAge/BNav_EC2/DepthDuration/v2_depth_duration_MTurk/v2_DepthDuration_HTML.html#86,86,1366,625,1366,768,8-22-2022,8-0-4,29,depth_duration_stimuli/001808_2014-06-26_20-50-58_260595134347_rgbf000029-resize_1/001808_2014-06-26_20-50-58_260595134347_rgbf000029-resize_1-target.png,1000,4.249,2,4760,997,meters,jsons/v1_VE1000_randls_74_rotated.json,903740,1132451,50,Man
29,252951,DepthScenes,duration_manipulation_targetAtFixation,jsons/v1_VE1000_randls_74_rotated.json,http://54.235.29.9/FacialAge/BNav_EC2/DepthDuration/v2_depth_duration_MTurk/v2_DepthDuration_HTML.html#86,86,1366,625,1366,768,8-22-2022,8-0-4,30,depth_duration_stimuli/002072_2014-06-24_21-48-06_260595134347_rgbf000115-resize_0/002072_2014-06-24_21-48-06_260595134347_rgbf000115-resize-original.jpg,1000,4.702,2,13006,994,meters,jsons/v1_VE1000_randls_74_rotated.json,903740,1132451,50,Man
30,252951,DepthScenes,duration_manipulation_targetAtFixation,jsons/v1_VE1000_randls_74_rotated.json,http://54.235.29.9/FacialAge/BNav_EC2/DepthDuration/v2_depth_duration_MTurk/v2_DepthDuration_HTML.html#86,86,1366,625,1366,768,8-22-2022,8-0-4,31,depth_duration_stimuli/002678_2014-06-13_16-15-32_094959634447_rgbf000151-resize_6/002678_2014-06-13_16-15-32_094959634447_rgbf000151-resize_6-target.png,1000,2.1830000000000003,2,4499,998,meters,jsons/v1_VE1000_randls_74_rotated.json,903740,1132451,50,Man
31,252951,DepthScenes,duration_manipulation_targetAtFixation,jsons/v1_VE1000_randls_74_rotated.json,http://54.235.29.9/FacialAge/BNav_EC2/DepthDuration/v2_depth_duration_MTurk/v2_DepthDuration_HTML.html#86,86,1366,625,1366,768,8-22-2022,8-0-4,32,depth_duration_stimuli/000368_2014-06-09_15-53-01_260595134347_rgbf000155-resize_2/000368_2014-06-09_15-53-01_260595134347_rgbf000155-resize_2-target.png,1000,2.4859999999999998,3,5912,993,meters,jsons/v1_VE1000_randls_74_rotated.json,903740,1132451,50,Man
32,252951,DepthScenes,duration_manipulation_targetAtFixation,jsons/v1_VE1000_randls_74_rotated.json,http://54.235.29.9/FacialAge/BNav_EC2/DepthDuration/v2_depth_duration_MTurk/v2_DepthDuration_HTML.html#86,86,1366,625,1366,768,8-22-2022,8-0-4,33,depth_duration_stimuli/002414_2014-06-28_20-24-58_260595134347_rgbf000067-resize_4/002414_2014-06-28_20-24-58_260595134347_rgbf000067-resize_4-target.png,1000,4.363,1,4218,996,meters,jsons/v1_VE1000_randls_74_rotated.json,903740,1132451,50,Man
33,252951,DepthScenes,duration_manipulation_targetAtFixation,jsons/v1_VE1000_randls_74_rotated.json,http://54.235.29.9/FacialAge/BNav_EC2/DepthDuration/v2_depth_duration_MTurk/v2_DepthDuration_HTML.html#86,86,1366,625,1366,768,8-22-2022,8-0-4,34,depth_duration_stimuli/000773_2014-06-08_22-24-54_260595134347_rgbf000093-resize_1/000773_2014-06-08_22-24-54_260595134347_rgbf000093-resize_1-target.png,1000,4.973,2,7379,992,meters,jsons/v1_VE1000_randls_74_rotated.json,903740,1132451,50,Man
34,252951,DepthScenes,duration_manipulation_targetAtFixation,jsons/v1_VE1000_randls_74_rotated.json,http://54.235.29.9/FacialAge/BNav_EC2/DepthDuration/v2_depth_duration_MTurk/v2_DepthDuration_HTML.html#86,86,1366,625,1366,768,8-22-2022,8-0-4,35,depth_duration_stimuli/001214_2014-06-17_16-13-55_260595134347_rgbf000111-resize_0/001214_2014-06-17_16-13-55_260595134347_rgbf000111-resize_0-target.png,1000,2.6505,2,13557,970,meters,jsons/v1_VE1000_randls_74_rotated.json,903740,1132451,50,Man
35,252951,DepthScenes,duration_manipulation_targetAtFixation,jsons/v1_VE1000_randls_74_rotated.json,http://54.235.29.9/FacialAge/BNav_EC2/DepthDuration/v2_depth_duration_MTurk/v2_DepthDuration_HTML.html#86,86,1366,625,1366,768,8-22-2022,8-0-4,36,depth_duration_stimuli/000810_2014-06-08_17-20-01_260595134347_rgbf000105-resize_0/000810_2014-06-08_17-20-01_260595134347_rgbf000105-resize_0-target.png,1000,1.4865,2,4664,1003,meters,jsons/v1_VE1000_randls_74_rotated.json,903740,1132451,50,Man
36,252951,DepthScenes,duration_manipulation_targetAtFixation,jsons/v1_VE1000_randls_74_rotated.json,http://54.235.29.9/FacialAge/BNav_EC2/DepthDuration/v2_depth_duration_MTurk/v2_DepthDuration_HTML.html#86,86,1366,625,1366,768,8-22-2022,8-0-4,37,depth_duration_stimuli/002444_2014-06-28_20-32-08_260595134347_rgbf000027-resize_0/002444_2014-06-28_20-32-08_260595134347_rgbf000027-resize_0-target.png,1000,4.388999999999999,2,4476,1003,meters,jsons/v1_VE1000_randls_74_rotated.json,903740,1132451,50,Man
37,252951,DepthScenes,duration_manipulation_targetAtFixation,jsons/v1_VE1000_randls_74_rotated.json,http://54.235.29.9/FacialAge/BNav_EC2/DepthDuration/v2_depth_duration_MTurk/v2_DepthDuration_HTML.html#86,86,1366,625,1366,768,8-22-2022,8-0-4,38,depth_duration_stimuli/000436_2014-06-09_22-25-11_260595134347_rgbf000137-resize_1/000436_2014-06-09_22-25-11_260595134347_rgbf000137-resize_1-target.png,1000,4.0705,2,4434,998,meters,jsons/v1_VE1000_randls_74_rotated.json,903740,1132451,50,Man
38,252951,DepthScenes,duration_manipulation_targetAtFixation,jsons/v1_VE1000_randls_74_rotated.json,http://54.235.29.9/FacialAge/BNav_EC2/DepthDuration/v2_depth_duration_MTurk/v2_DepthDuration_HTML.html#86,86,1366,625,1366,768,8-22-2022,8-0-4,39,depth_duration_stimuli/001516_2014-06-20_16-25-09_260595134347_rgbf000076-resize_2/001516_2014-06-20_16-25-09_260595134347_rgbf000076-resize_2-target.png,1000,1.7445,3,4359,989,meters,jsons/v1_VE1000_randls_74_rotated.json,903740,1132451,50,Man
39,252951,DepthScenes,duration_manipulation_targetAtFixation,jsons/v1_VE1000_randls_74_rotated.json,http://54.235.29.9/FacialAge/BNav_EC2/DepthDuration/v2_depth_duration_MTurk/v2_DepthDuration_HTML.html#86,86,1366,625,1366,768,8-22-2022,8-0-4,40,depth_duration_stimuli/002118_2014-06-25_20-32-08_260595134347_rgbf000078-resize_1/002118_2014-06-25_20-32-08_260595134347_rgbf000078-resize_1-target.png,1000,2.6460000000000004,1,4411,1002,meters,jsons/v1_VE1000_randls_74_rotated.json,903740,1132451,50,Man
40,252951,DepthScenes,duration_manipulation_targetAtFixation,jsons/v1_VE1000_randls_74_rotated.json,http://54.235.29.9/FacialAge/BNav_EC2/DepthDuration/v2_depth_duration_MTurk/v2_DepthDuration_HTML.html#86,86,1366,625,1366,768,8-22-2022,8-0-4,41,depth_duration_stimuli/003423_2014-05-21_10-23-26_094959634447_rgbf002665-resize_2/003423_2014-05-21_10-23-26_094959634447_rgbf002665-resize_2-target.png,1000,3.2575,2,5000,1014,meters,jsons/v1_VE1000_randls_74_rotated.json,903740,1132451,50,Man
41,252951,DepthScenes,duration_manipulation_targetAtFixation,jsons/v1_VE1000_randls_74_rotated.json,http://54.235.29.9/FacialAge/BNav_EC2/DepthDuration/v2_depth_duration_MTurk/v2_DepthDuration_HTML.html#86,86,1366,625,1366,768,8-22-2022,8-0-4,42,depth_duration_stimuli/002905_2014-06-03_18-04-43_094959634447_rgbf000151-resize_2/002905_2014-06-03_18-04-43_094959634447_rgbf000151-resize_2-target.png,1000,2.0295,2,5171,991,meters,jsons/v1_VE1000_randls_74_rotated.json,903740,1132451,50,Man
42,252951,DepthScenes,duration_manipulation_targetAtFixation,jsons/v1_VE1000_randls_74_rotated.json,http://54.235.29.9/FacialAge/BNav_EC2/DepthDuration/v2_depth_duration_MTurk/v2_DepthDuration_HTML.html#86,86,1366,625,1366,768,8-22-2022,8-0-4,43,depth_duration_stimuli/002209_2014-06-28_18-36-10_260595134347_rgbf000051-resize_1/002209_2014-06-28_18-36-10_260595134347_rgbf000051-resize_1-target.png,1000,2.057,3,6705,979,meters,jsons/v1_VE1000_randls_74_rotated.json,903740,1132451,50,Man
43,252951,DepthScenes,duration_manipulation_targetAtFixation,jsons/v1_VE1000_randls_74_rotated.json,http://54.235.29.9/FacialAge/BNav_EC2/DepthDuration/v2_depth_duration_MTurk/v2_DepthDuration_HTML.html#86,86,1366,625,1366,768,8-22-2022,8-0-4,44,depth_duration_stimuli/002763_2014-06-22_19-13-10_094959634447_rgbf000075-resize_4/002763_2014-06-22_19-13-10_094959634447_rgbf000075-resize_4-target.png,1000,1.68375,2,4482,990,meters,jsons/v1_VE1000_randls_74_rotated.json,903740,1132451,50,Man
44,252951,DepthScenes,duration_manipulation_targetAtFixation,jsons/v1_VE1000_randls_74_rotated.json,http://54.235.29.9/FacialAge/BNav_EC2/DepthDuration/v2_depth_duration_MTurk/v2_DepthDuration_HTML.html#86,86,1366,625,1366,768,8-22-2022,8-0-4,45,depth_duration_stimuli/002425_2014-06-28_20-27-29_260595134347_rgbf000031-resize_8/002425_2014-06-28_20-27-29_260595134347_rgbf000031-resize_8-target.png,1000,3.8960000000000004,3,4288,984,meters,jsons/v1_VE1000_randls_74_rotated.json,903740,1132451,50,Man
45,252951,DepthScenes,duration_manipulation_targetAtFixation,jsons/v1_VE1000_randls_74_rotated.json,http://54.235.29.9/FacialAge/BNav_EC2/DepthDuration/v2_depth_duration_MTurk/v2_DepthDuration_HTML.html#86,86,1366,625,1366,768,8-22-2022,8-0-4,46,depth_duration_stimuli/000642_2014-06-08_16-59-25_260595134347_rgbf000098-resize_2/000642_2014-06-08_16-59-25_260595134347_rgbf000098-resize_2-target.png,1000,2.8815,2,4993,1034,meters,jsons/v1_VE1000_randls_74_rotated.json,903740,1132451,50,Man
46,252951,DepthScenes,duration_manipulation_targetAtFixation,jsons/v1_VE1000_randls_74_rotated.json,http://54.235.29.9/FacialAge/BNav_EC2/DepthDuration/v2_depth_duration_MTurk/v2_DepthDuration_HTML.html#86,86,1366,625,1366,768,8-22-2022,8-0-4,47,depth_duration_stimuli/001828_2014-06-26_21-40-03_260595134347_rgbf000024-resize_0/001828_2014-06-26_21-40-03_260595134347_rgbf000024-resize_0-target.png,1000,4.8260000000000005,3,4619,993,meters,jsons/v1_VE1000_randls_74_rotated.json,903740,1132451,50,Man
47,252951,DepthScenes,duration_manipulation_targetAtFixation,jsons/v1_VE1000_randls_74_rotated.json,http://54.235.29.9/FacialAge/BNav_EC2/DepthDuration/v2_depth_duration_MTurk/v2_DepthDuration_HTML.html#86,86,1366,625,1366,768,8-22-2022,8-0-4,48,depth_duration_stimuli/000009_2014-05-26_14-32-05_260595134347_rgbf000034-resize_3/000009_2014-05-26_14-32-05_260595134347_rgbf000034-resize_3-target.png,1000,3.8715,2,4336,995,meters,jsons/v1_VE1000_randls_74_rotated.json,903740,1132451,50,Man
48,252951,DepthScenes,duration_manipulation_targetAtFixation,jsons/v1_VE1000_randls_74_rotated.json,http://54.235.29.9/FacialAge/BNav_EC2/DepthDuration/v2_depth_duration_MTurk/v2_DepthDuration_HTML.html#86,86,1366,625,1366,768,8-22-2022,8-0-4,49,depth_duration_stimuli/001170_2014-06-17_15-43-44_260595134347_rgbf000096-resize_6/001170_2014-06-17_15-43-44_260595134347_rgbf000096-resize-original.jpg,1000,1.1909999999999998,0,4684,990,meters,jsons/v1_VE1000_randls_74_rotated.json,903740,1132451,50,Man
49,252951,DepthScenes,duration_manipulation_targetAtFixation,jsons/v1_VE1000_randls_74_rotated.json,http://54.235.29.9/FacialAge/BNav_EC2/DepthDuration/v2_depth_duration_MTurk/v2_DepthDuration_HTML.html#86,86,1366,625,1366,768,8-22-2022,8-0-4,50,depth_duration_stimuli/000109_2014-05-14_23-41-52_260595134347_rgbf000035-resize_9/000109_2014-05-14_23-41-52_260595134347_rgbf000035-resize_9-target.png,1000,1.3545,2,4800,985,meters,jsons/v1_VE1000_randls_74_rotated.json,903740,1132451,50,Man
50,252951,DepthScenes,duration_manipulation_targetAtFixation,jsons/v1_VE1000_randls_74_rotated.json,http://54.235.29.9/FacialAge/BNav_EC2/DepthDuration/v2_depth_duration_MTurk/v2_DepthDuration_HTML.html#86,86,1366,625,1366,768,8-22-2022,8-0-4,51,depth_duration_stimuli/000470_2014-06-09_19-42-40_260595134347_rgbf000094-resize_1/000470_2014-06-09_19-42-40_260595134347_rgbf000094-resize_1-target.png,1000,1.831,3,4370,991,meters,jsons/v1_VE1000_randls_74_rotated.json,903740,1132451,50,Man
51,252951,DepthScenes,duration_manipulation_targetAtFixation,jsons/v1_VE1000_randls_74_rotated.json,http://54.235.29.9/FacialAge/BNav_EC2/DepthDuration/v2_depth_duration_MTurk/v2_DepthDuration_HTML.html#86,86,1366,625,1366,768,8-22-2022,8-0-4,52,depth_duration_stimuli/000483_2014-06-09_20-41-45_260595134347_rgbf000116-resize_4/000483_2014-06-09_20-41-45_260595134347_rgbf000116-resize_4-target.png,1000,1.337,3,4645,1000,meters,jsons/v1_VE1000_randls_74_rotated.json,903740,1132451,50,Man
52,252951,DepthScenes,duration_manipulation_targetAtFixation,jsons/v1_VE1000_randls_74_rotated.json,http://54.235.29.9/FacialAge/BNav_EC2/DepthDuration/v2_depth_duration_MTurk/v2_DepthDuration_HTML.html#86,86,1366,625,1366,768,8-22-2022,8-0-4,53,depth_duration_stimuli/000469_2014-06-09_19-42-10_260595134347_rgbf000081-resize_1/000469_2014-06-09_19-42-10_260595134347_rgbf000081-resize_1-target.png,1000,1.652,2,4484,987,meters,jsons/v1_VE1000_randls_74_rotated.json,903740,1132451,50,Man
53,252951,DepthScenes,duration_manipulation_targetAtFixation,jsons/v1_VE1000_randls_74_rotated.json,http://54.235.29.9/FacialAge/BNav_EC2/DepthDuration/v2_depth_duration_MTurk/v2_DepthDuration_HTML.html#86,86,1366,625,1366,768,8-22-2022,8-0-4,54,depth_duration_stimuli/001094_2014-06-15_17-36-00_260595134347_rgbf000205-resize_0/001094_2014-06-15_17-36-00_260595134347_rgbf000205-resize_0-target.png,1000,4.2175,3,4452,1010,meters,jsons/v1_VE1000_randls_74_rotated.json,903740,1132451,50,Man
54,252951,DepthScenes,duration_manipulation_targetAtFixation,jsons/v1_VE1000_randls_74_rotated.json,http://54.235.29.9/FacialAge/BNav_EC2/DepthDuration/v2_depth_duration_MTurk/v2_DepthDuration_HTML.html#86,86,1366,625,1366,768,8-22-2022,8-0-4,55,depth_duration_stimuli/000692_2014-06-08_13-09-42_260595134347_rgbf000199-resize_2/000692_2014-06-08_13-09-42_260595134347_rgbf000199-resize_2-target.png,1000,3.661,2,4583,1000,meters,jsons/v1_VE1000_randls_74_rotated.json,903740,1132451,50,Man
55,252951,DepthScenes,duration_manipulation_targetAtFixation,jsons/v1_VE1000_randls_74_rotated.json,http://54.235.29.9/FacialAge/BNav_EC2/DepthDuration/v2_depth_duration_MTurk/v2_DepthDuration_HTML.html#86,86,1366,625,1366,768,8-22-2022,8-0-4,56,depth_duration_stimuli/002199_2014-06-28_18-33-56_260595134347_rgbf000074-resize_0/002199_2014-06-28_18-33-56_260595134347_rgbf000074-resize_0-target.png,1000,1.996,2,9301,992,meters,jsons/v1_VE1000_randls_74_rotated.json,903740,1132451,50,Man
56,252951,DepthScenes,duration_manipulation_targetAtFixation,jsons/v1_VE1000_randls_74_rotated.json,http://54.235.29.9/FacialAge/BNav_EC2/DepthDuration/v2_depth_duration_MTurk/v2_DepthDuration_HTML.html#86,86,1366,625,1366,768,8-22-2022,8-0-4,57,depth_duration_stimuli/001056_2014-06-08_18-46-44_260595134347_rgbf000068-resize_0/001056_2014-06-08_18-46-44_260595134347_rgbf000068-resize_0-target.png,1000,2.6625,2,10442,989,meters,jsons/v1_VE1000_randls_74_rotated.json,903740,1132451,50,Man
57,252951,DepthScenes,duration_manipulation_targetAtFixation,jsons/v1_VE1000_randls_74_rotated.json,http://54.235.29.9/FacialAge/BNav_EC2/DepthDuration/v2_depth_duration_MTurk/v2_DepthDuration_HTML.html#86,86,1366,625,1366,768,8-22-2022,8-0-4,58,depth_duration_stimuli/001235_2014-06-17_16-37-36_260595134347_rgbf000084-resize_4/001235_2014-06-17_16-37-36_260595134347_rgbf000084-resize_4-target.png,1000,3.6605,2,4662,1054,meters,jsons/v1_VE1000_randls_74_rotated.json,903740,1132451,50,Man
58,252951,DepthScenes,duration_manipulation_targetAtFixation,jsons/v1_VE1000_randls_74_rotated.json,http://54.235.29.9/FacialAge/BNav_EC2/DepthDuration/v2_depth_duration_MTurk/v2_DepthDuration_HTML.html#86,86,1366,625,1366,768,8-22-2022,8-0-4,59,depth_duration_stimuli/000788_2014-06-08_22-34-36_260595134347_rgbf000131-resize_1/000788_2014-06-08_22-34-36_260595134347_rgbf000131-resize_1-target.png,1000,3.359,3,4162,998,meters,jsons/v1_VE1000_randls_74_rotated.json,903740,1132451,50,Man
59,252951,DepthScenes,duration_manipulation_targetAtFixation,jsons/v1_VE1000_randls_74_rotated.json,http://54.235.29.9/FacialAge/BNav_EC2/DepthDuration/v2_depth_duration_MTurk/v2_DepthDuration_HTML.html#86,86,1366,625,1366,768,8-22-2022,8-0-4,60,depth_duration_stimuli/002136_2014-06-25_21-18-03_260595134347_rgbf000109-resize_3/002136_2014-06-25_21-18-03_260595134347_rgbf000109-resize_3-target.png,1000,1.9569999999999999,2,4350,1000,meters,jsons/v1_VE1000_randls_74_rotated.json,903740,1132451,50,Man
60,252951,DepthScenes,duration_manipulation_targetAtFixation,jsons/v1_VE1000_randls_74_rotated.json,http://54.235.29.9/FacialAge/BNav_EC2/DepthDuration/v2_depth_duration_MTurk/v2_DepthDuration_HTML.html#86,86,1366,625,1366,768,8-22-2022,8-0-4,61,depth_duration_stimuli/002964_2014-06-08_17-46-11_094959634447_rgbf000091-resize_4/002964_2014-06-08_17-46-11_094959634447_rgbf000091-resize_4-target.png,1000,1.6909999999999998,3,4271,999,meters,jsons/v1_VE1000_randls_74_rotated.json,903740,1132451,50,Man
61,252951,DepthScenes,duration_manipulation_targetAtFixation,jsons/v1_VE1000_randls_74_rotated.json,http://54.235.29.9/FacialAge/BNav_EC2/DepthDuration/v2_depth_duration_MTurk/v2_DepthDuration_HTML.html#86,86,1366,625,1366,768,8-22-2022,8-0-4,62,depth_duration_stimuli/001052_2014-06-08_18-24-54_260595134347_rgbf000130-resize_1/001052_2014-06-08_18-24-54_260595134347_rgbf000130-resize_1-target.png,1000,4.1045,2,4096,992,meters,jsons/v1_VE1000_randls_74_rotated.json,903740,1132451,50,Man
62,252951,DepthScenes,duration_manipulation_targetAtFixation,jsons/v1_VE1000_randls_74_rotated.json,http://54.235.29.9/FacialAge/BNav_EC2/DepthDuration/v2_depth_duration_MTurk/v2_DepthDuration_HTML.html#86,86,1366,625,1366,768,8-22-2022,8-0-4,63,depth_duration_stimuli/002988_2014-06-15_12-24-20_094959634447_rgbf000150-resize_1/002988_2014-06-15_12-24-20_094959634447_rgbf000150-resize_1-target.png,1000,4.7669999999999995,3,4687,1015,meters,jsons/v1_VE1000_randls_74_rotated.json,903740,1132451,50,Man
63,252951,DepthScenes,duration_manipulation_targetAtFixation,jsons/v1_VE1000_randls_74_rotated.json,http://54.235.29.9/FacialAge/BNav_EC2/DepthDuration/v2_depth_duration_MTurk/v2_DepthDuration_HTML.html#86,86,1366,625,1366,768,8-22-2022,8-0-4,64,depth_duration_stimuli/001450_2014-06-19_17-02-03_260595134347_rgbf000203-resize_4/001450_2014-06-19_17-02-03_260595134347_rgbf000203-resize_4-target.png,1000,4.0106666666667,2,4214,990,meters,jsons/v1_VE1000_randls_74_rotated.json,903740,1132451,50,Man
64,252951,DepthScenes,duration_manipulation_targetAtFixation,jsons/v1_VE1000_randls_74_rotated.json,http://54.235.29.9/FacialAge/BNav_EC2/DepthDuration/v2_depth_duration_MTurk/v2_DepthDuration_HTML.html#86,86,1366,625,1366,768,8-22-2022,8-0-4,65,depth_duration_stimuli/001449_2014-06-19_17-01-27_260595134347_rgbf000116-resize_2/001449_2014-06-19_17-01-27_260595134347_rgbf000116-resize_2-target.png,1000,3.452,3,4699,996,meters,jsons/v1_VE1000_randls_74_rotated.json,903740,1132451,50,Man
65,252951,DepthScenes,duration_manipulation_targetAtFixation,jsons/v1_VE1000_randls_74_rotated.json,http://54.235.29.9/FacialAge/BNav_EC2/DepthDuration/v2_depth_duration_MTurk/v2_DepthDuration_HTML.html#86,86,1366,625,1366,768,8-22-2022,8-0-4,66,depth_duration_stimuli/001540_2014-06-20_17-01-05_260595134347_rgbf000086-resize_2/001540_2014-06-20_17-01-05_260595134347_rgbf000086-resize-original.jpg,1000,1.459,2,4353,985,meters,jsons/v1_VE1000_randls_74_rotated.json,903740,1132451,50,Man
66,252951,DepthScenes,duration_manipulation_targetAtFixation,jsons/v1_VE1000_randls_74_rotated.json,http://54.235.29.9/FacialAge/BNav_EC2/DepthDuration/v2_depth_duration_MTurk/v2_DepthDuration_HTML.html#86,86,1366,625,1366,768,8-22-2022,8-0-4,67,depth_duration_stimuli/002639_2014-06-24_14-51-37_094959634447_rgbf000074-resize_4/002639_2014-06-24_14-51-37_094959634447_rgbf000074-resize_4-target.png,1000,4.0375,3,4306,1032,meters,jsons/v1_VE1000_randls_74_rotated.json,903740,1132451,50,Man
67,252951,DepthScenes,duration_manipulation_targetAtFixation,jsons/v1_VE1000_randls_74_rotated.json,http://54.235.29.9/FacialAge/BNav_EC2/DepthDuration/v2_depth_duration_MTurk/v2_DepthDuration_HTML.html#86,86,1366,625,1366,768,8-22-2022,8-0-4,68,depth_duration_stimuli/003292_2014-05-14_21-53-49_094959634447_rgbf000100-resize_2/003292_2014-05-14_21-53-49_094959634447_rgbf000100-resize_2-target.png,1000,3.4815,3,4321,989,meters,jsons/v1_VE1000_randls_74_rotated.json,903740,1132451,50,Man
68,252951,DepthScenes,duration_manipulation_targetAtFixation,jsons/v1_VE1000_randls_74_rotated.json,http://54.235.29.9/FacialAge/BNav_EC2/DepthDuration/v2_depth_duration_MTurk/v2_DepthDuration_HTML.html#86,86,1366,625,1366,768,8-22-2022,8-0-4,69,depth_duration_stimuli/002467_2014-06-28_20-38-07_260595134347_rgbf000026-resize_2/002467_2014-06-28_20-38-07_260595134347_rgbf000026-resize_2-target.png,1000,4.742,2,14782,1007,meters,jsons/v1_VE1000_randls_74_rotated.json,903740,1132451,50,Man
69,252951,DepthScenes,duration_manipulation_targetAtFixation,jsons/v1_VE1000_randls_74_rotated.json,http://54.235.29.9/FacialAge/BNav_EC2/DepthDuration/v2_depth_duration_MTurk/v2_DepthDuration_HTML.html#86,86,1366,625,1366,768,8-22-2022,8-0-4,70,depth_duration_stimuli/002570_2014-06-24_13-59-54_094959634447_rgbf000059-resize_0/002570_2014-06-24_13-59-54_094959634447_rgbf000059-resize_0-target.png,1000,4.037,3,4672,985,meters,jsons/v1_VE1000_randls_74_rotated.json,903740,1132451,50,Man
70,252951,DepthScenes,duration_manipulation_targetAtFixation,jsons/v1_VE1000_randls_74_rotated.json,http://54.235.29.9/FacialAge/BNav_EC2/DepthDuration/v2_depth_duration_MTurk/v2_DepthDuration_HTML.html#86,86,1366,625,1366,768,8-22-2022,8-0-4,71,depth_duration_stimuli/000780_2014-06-08_22-28-29_260595134347_rgbf000126-resize_1/000780_2014-06-08_22-28-29_260595134347_rgbf000126-resize_1-target.png,1000,3.3825,3,4128,1000,meters,jsons/v1_VE1000_randls_74_rotated.json,903740,1132451,50,Man
71,252951,DepthScenes,duration_manipulation_targetAtFixation,jsons/v1_VE1000_randls_74_rotated.json,http://54.235.29.9/FacialAge/BNav_EC2/DepthDuration/v2_depth_duration_MTurk/v2_DepthDuration_HTML.html#86,86,1366,625,1366,768,8-22-2022,8-0-4,72,depth_duration_stimuli/002445_2014-06-28_20-32-16_260595134347_rgbf000029-resize_4/002445_2014-06-28_20-32-16_260595134347_rgbf000029-resize_4-target.png,1000,2.5315,2,4723,808,meters,jsons/v1_VE1000_randls_74_rotated.json,903740,1132451,50,Man
72,252951,DepthScenes,duration_manipulation_targetAtFixation,jsons/v1_VE1000_randls_74_rotated.json,http://54.235.29.9/FacialAge/BNav_EC2/DepthDuration/v2_depth_duration_MTurk/v2_DepthDuration_HTML.html#86,86,1366,625,1366,768,8-22-2022,8-0-4,73,depth_duration_stimuli/001447_2014-06-19_17-00-32_260595134347_rgbf000082-resize_5/001447_2014-06-19_17-00-32_260595134347_rgbf000082-resize_5-target.png,1000,4.13775,3,4268,1028,meters,jsons/v1_VE1000_randls_74_rotated.json,903740,1132451,50,Man
73,252951,DepthScenes,duration_manipulation_targetAtFixation,jsons/v1_VE1000_randls_74_rotated.json,http://54.235.29.9/FacialAge/BNav_EC2/DepthDuration/v2_depth_duration_MTurk/v2_DepthDuration_HTML.html#86,86,1366,625,1366,768,8-22-2022,8-0-4,74,depth_duration_stimuli/000447_2014-06-08_16-15-46_260595134347_rgbf000130-resize_1/000447_2014-06-08_16-15-46_260595134347_rgbf000130-resize_1-target.png,1000,4.479,2,4614,1005,meters,jsons/v1_VE1000_randls_74_rotated.json,903740,1132451,50,Man
74,252951,DepthScenes,duration_manipulation_targetAtFixation,jsons/v1_VE1000_randls_74_rotated.json,http://54.235.29.9/FacialAge/BNav_EC2/DepthDuration/v2_depth_duration_MTurk/v2_DepthDuration_HTML.html#86,86,1366,625,1366,768,8-22-2022,8-0-4,75,depth_duration_stimuli/000103_2014-05-14_22-01-17_260595134347_rgbf000152-resize_5/000103_2014-05-14_22-01-17_260595134347_rgbf000152-resize_5-target.png,1000,1.993,3,4418,997,meters,jsons/v1_VE1000_randls_74_rotated.json,903740,1132451,50,Man
75,252951,DepthScenes,duration_manipulation_targetAtFixation,jsons/v1_VE1000_randls_74_rotated.json,http://54.235.29.9/FacialAge/BNav_EC2/DepthDuration/v2_depth_duration_MTurk/v2_DepthDuration_HTML.html#86,86,1366,625,1366,768,8-22-2022,8-0-4,76,depth_duration_stimuli/001555_2014-06-20_17-12-10_260595134347_rgbf000065-resize_4/001555_2014-06-20_17-12-10_260595134347_rgbf000065-resize_4-target.png,1000,1.633,3,4986,997,meters,jsons/v1_VE1000_randls_74_rotated.json,903740,1132451,50,Man
76,252951,DepthScenes,duration_manipulation_targetAtFixation,jsons/v1_VE1000_randls_74_rotated.json,http://54.235.29.9/FacialAge/BNav_EC2/DepthDuration/v2_depth_duration_MTurk/v2_DepthDuration_HTML.html#86,86,1366,625,1366,768,8-22-2022,8-0-4,77,depth_duration_stimuli/001100_2014-06-15_17-46-26_260595134347_rgbf000225-resize_2/001100_2014-06-15_17-46-26_260595134347_rgbf000225-resize_2-target.png,1000,2.24,3,4225,1012,meters,jsons/v1_VE1000_randls_74_rotated.json,903740,1132451,50,Man
77,252951,DepthScenes,duration_manipulation_targetAtFixation,jsons/v1_VE1000_randls_74_rotated.json,http://54.235.29.9/FacialAge/BNav_EC2/DepthDuration/v2_depth_duration_MTurk/v2_DepthDuration_HTML.html#86,86,1366,625,1366,768,8-22-2022,8-0-4,78,depth_duration_stimuli/002784_2014-06-22_19-26-30_094959634447_rgbf000083-resize_3/002784_2014-06-22_19-26-30_094959634447_rgbf000083-resize_3-target.png,1000,1.8046666666667,2,4147,917,meters,jsons/v1_VE1000_randls_74_rotated.json,903740,1132451,50,Man
78,252951,DepthScenes,duration_manipulation_targetAtFixation,jsons/v1_VE1000_randls_74_rotated.json,http://54.235.29.9/FacialAge/BNav_EC2/DepthDuration/v2_depth_duration_MTurk/v2_DepthDuration_HTML.html#86,86,1366,625,1366,768,8-22-2022,8-0-4,79,depth_duration_stimuli/001032_2014-06-08_13-23-17_260595134347_rgbf000021-resize_3/001032_2014-06-08_13-23-17_260595134347_rgbf000021-resize_3-target.png,1000,3.2725,3,5457,990,meters,jsons/v1_VE1000_randls_74_rotated.json,903740,1132451,50,Man
79,252951,DepthScenes,duration_manipulation_targetAtFixation,jsons/v1_VE1000_randls_74_rotated.json,http://54.235.29.9/FacialAge/BNav_EC2/DepthDuration/v2_depth_duration_MTurk/v2_DepthDuration_HTML.html#86,86,1366,625,1366,768,8-22-2022,8-0-4,80,depth_duration_stimuli/001059_2014-06-08_21-53-27_260595134347_rgbf000061-resize_4/001059_2014-06-08_21-53-27_260595134347_rgbf000061-resize_4-target.png,1000,2.4185,2,4432,987,meters,jsons/v1_VE1000_randls_74_rotated.json,903740,1132451,50,Man
80,252951,DepthScenes,duration_manipulation_targetAtFixation,jsons/v1_VE1000_randls_74_rotated.json,http://54.235.29.9/FacialAge/BNav_EC2/DepthDuration/v2_depth_duration_MTurk/v2_DepthDuration_HTML.html#86,86,1366,625,1366,768,8-22-2022,8-0-4,81,depth_duration_stimuli/002805_2014-06-22_19-54-03_094959634447_rgbf000079-resize_1/002805_2014-06-22_19-54-03_094959634447_rgbf000079-resize_1-target.png,1000,3.1439999999999997,3,3159,997,meters,jsons/v1_VE1000_randls_74_rotated.json,903740,1132451,50,Man
81,252951,DepthScenes,duration_manipulation_targetAtFixation,jsons/v1_VE1000_randls_74_rotated.json,http://54.235.29.9/FacialAge/BNav_EC2/DepthDuration/v2_depth_duration_MTurk/v2_DepthDuration_HTML.html#86,86,1366,625,1366,768,8-22-2022,8-0-4,82,depth_duration_stimuli/000906_2014-06-08_13-35-43_260595134347_rgbf000155-resize_1/000906_2014-06-08_13-35-43_260595134347_rgbf000155-resize_1-target.png,1000,2.8489999999999998,3,15058,1111,meters,jsons/v1_VE1000_randls_74_rotated.json,903740,1132451,50,Man
82,252951,DepthScenes,duration_manipulation_targetAtFixation,jsons/v1_VE1000_randls_74_rotated.json,http://54.235.29.9/FacialAge/BNav_EC2/DepthDuration/v2_depth_duration_MTurk/v2_DepthDuration_HTML.html#86,86,1366,625,1366,768,8-22-2022,8-0-4,83,depth_duration_stimuli/000927_2014-06-09_16-32-30_260595134347_rgbf000123-resize_3/000927_2014-06-09_16-32-30_260595134347_rgbf000123-resize_3-target.png,1000,2.6785,2,4329,1010,meters,jsons/v1_VE1000_randls_74_rotated.json,903740,1132451,50,Man
83,252951,DepthScenes,duration_manipulation_targetAtFixation,jsons/v1_VE1000_randls_74_rotated.json,http://54.235.29.9/FacialAge/BNav_EC2/DepthDuration/v2_depth_duration_MTurk/v2_DepthDuration_HTML.html#86,86,1366,625,1366,768,8-22-2022,8-0-4,84,depth_duration_stimuli/001110_2014-06-15_17-25-28_260595134347_rgbf000150-resize_1/001110_2014-06-15_17-25-28_260595134347_rgbf000150-resize_1-target.png,1000,1.7115,3,4385,989,meters,jsons/v1_VE1000_randls_74_rotated.json,903740,1132451,50,Man
84,252951,DepthScenes,duration_manipulation_targetAtFixation,jsons/v1_VE1000_randls_74_rotated.json,http://54.235.29.9/FacialAge/BNav_EC2/DepthDuration/v2_depth_duration_MTurk/v2_DepthDuration_HTML.html#86,86,1366,625,1366,768,8-22-2022,8-0-4,85,depth_duration_stimuli/002103_2014-06-25_20-00-40_260595134347_rgbf000049-resize_0/002103_2014-06-25_20-00-40_260595134347_rgbf000049-resize_0-target.png,1000,4.105,2,4274,998,meters,jsons/v1_VE1000_randls_74_rotated.json,903740,1132451,50,Man
85,252951,DepthScenes,duration_manipulation_targetAtFixation,jsons/v1_VE1000_randls_74_rotated.json,http://54.235.29.9/FacialAge/BNav_EC2/DepthDuration/v2_depth_duration_MTurk/v2_DepthDuration_HTML.html#86,86,1366,625,1366,768,8-22-2022,8-0-4,86,depth_duration_stimuli/002039_2014-06-24_20-22-38_260595134347_rgbf000084-resize_1/002039_2014-06-24_20-22-38_260595134347_rgbf000084-resize_1-target.png,1000,4.408,3,4188,1004,meters,jsons/v1_VE1000_randls_74_rotated.json,903740,1132451,50,Man
86,252951,DepthScenes,duration_manipulation_targetAtFixation,jsons/v1_VE1000_randls_74_rotated.json,http://54.235.29.9/FacialAge/BNav_EC2/DepthDuration/v2_depth_duration_MTurk/v2_DepthDuration_HTML.html#86,86,1366,625,1366,768,8-22-2022,8-0-4,87,depth_duration_stimuli/003338_2014-05-20_11-01-23_094959634447_rgbf000051-resize_6/003338_2014-05-20_11-01-23_094959634447_rgbf000051-resize_6-target.png,1000,1.693,2,4630,997,meters,jsons/v1_VE1000_randls_74_rotated.json,903740,1132451,50,Man
87,252951,DepthScenes,duration_manipulation_targetAtFixation,jsons/v1_VE1000_randls_74_rotated.json,http://54.235.29.9/FacialAge/BNav_EC2/DepthDuration/v2_depth_duration_MTurk/v2_DepthDuration_HTML.html#86,86,1366,625,1366,768,8-22-2022,8-0-4,88,depth_duration_stimuli/002509_2014-06-24_13-19-22_094959634447_rgbf000077-resize_0/002509_2014-06-24_13-19-22_094959634447_rgbf000077-resize_0-target.png,1000,1.3065,3,4494,994,meters,jsons/v1_VE1000_randls_74_rotated.json,903740,1132451,50,Man
88,252951,DepthScenes,duration_manipulation_targetAtFixation,jsons/v1_VE1000_randls_74_rotated.json,http://54.235.29.9/FacialAge/BNav_EC2/DepthDuration/v2_depth_duration_MTurk/v2_DepthDuration_HTML.html#86,86,1366,625,1366,768,8-22-2022,8-0-4,89,depth_duration_stimuli/002995_2014-06-15_12-31-26_094959634447_rgbf000150-resize_1/002995_2014-06-15_12-31-26_094959634447_rgbf000150-resize_1-target.png,1000,3.8360000000000003,3,4758,994,meters,jsons/v1_VE1000_randls_74_rotated.json,903740,1132451,50,Man
89,252951,DepthScenes,duration_manipulation_targetAtFixation,jsons/v1_VE1000_randls_74_rotated.json,http://54.235.29.9/FacialAge/BNav_EC2/DepthDuration/v2_depth_duration_MTurk/v2_DepthDuration_HTML.html#86,86,1366,625,1366,768,8-22-2022,8-0-4,90,depth_duration_stimuli/002748_2014-06-22_19-07-22_094959634447_rgbf000078-resize_1/002748_2014-06-22_19-07-22_094959634447_rgbf000078-resize_1-target.png,1000,4.6705,3,4179,1007,meters,jsons/v1_VE1000_randls_74_rotated.json,903740,1132451,50,Man
90,252951,DepthScenes,duration_manipulation_targetAtFixation,jsons/v1_VE1000_randls_74_rotated.json,http://54.235.29.9/FacialAge/BNav_EC2/DepthDuration/v2_depth_duration_MTurk/v2_DepthDuration_HTML.html#86,86,1366,625,1366,768,8-22-2022,8-0-4,91,depth_duration_stimuli/001571_2014-06-20_17-21-32_260595134347_rgbf000089-resize_1/001571_2014-06-20_17-21-32_260595134347_rgbf000089-resize_1-target.png,1000,1.86,2,3883,972,meters,jsons/v1_VE1000_randls_74_rotated.json,903740,1132451,50,Man
91,252951,DepthScenes,duration_manipulation_targetAtFixation,jsons/v1_VE1000_randls_74_rotated.json,http://54.235.29.9/FacialAge/BNav_EC2/DepthDuration/v2_depth_duration_MTurk/v2_DepthDuration_HTML.html#86,86,1366,625,1366,768,8-22-2022,8-0-4,92,depth_duration_stimuli/002272_2014-06-28_18-53-56_260595134347_rgbf000067-resize_2/002272_2014-06-28_18-53-56_260595134347_rgbf000067-resize_2-target.png,1000,1.138,3,4306,1000,meters,jsons/v1_VE1000_randls_74_rotated.json,903740,1132451,50,Man
92,252951,DepthScenes,duration_manipulation_targetAtFixation,jsons/v1_VE1000_randls_74_rotated.json,http://54.235.29.9/FacialAge/BNav_EC2/DepthDuration/v2_depth_duration_MTurk/v2_DepthDuration_HTML.html#86,86,1366,625,1366,768,8-22-2022,8-0-4,93,depth_duration_stimuli/003048_2014-06-15_13-49-43_094959634447_rgbf000150-resize_1/003048_2014-06-15_13-49-43_094959634447_rgbf000150-resize_1-target.png,1000,4.0035,2,4550,1005,meters,jsons/v1_VE1000_randls_74_rotated.json,903740,1132451,50,Man
93,252951,DepthScenes,duration_manipulation_targetAtFixation,jsons/v1_VE1000_randls_74_rotated.json,http://54.235.29.9/FacialAge/BNav_EC2/DepthDuration/v2_depth_duration_MTurk/v2_DepthDuration_HTML.html#86,86,1366,625,1366,768,8-22-2022,8-0-4,94,depth_duration_stimuli/002043_2014-06-24_20-29-38_260595134347_rgbf000039-resize_4/002043_2014-06-24_20-29-38_260595134347_rgbf000039-resize_4-target.png,1000,2.8435,2,4141,998,meters,jsons/v1_VE1000_randls_74_rotated.json,903740,1132451,50,Man
94,252951,DepthScenes,duration_manipulation_targetAtFixation,jsons/v1_VE1000_randls_74_rotated.json,http://54.235.29.9/FacialAge/BNav_EC2/DepthDuration/v2_depth_duration_MTurk/v2_DepthDuration_HTML.html#86,86,1366,625,1366,768,8-22-2022,8-0-4,95,depth_duration_stimuli/000409_2014-06-04_19-23-33_260595134347_rgbf000067-resize_0/000409_2014-06-04_19-23-33_260595134347_rgbf000067-resize_0-target.png,1000,3.7335,3,4659,998,meters,jsons/v1_VE1000_randls_74_rotated.json,903740,1132451,50,Man
95,252951,DepthScenes,duration_manipulation_targetAtFixation,jsons/v1_VE1000_randls_74_rotated.json,http://54.235.29.9/FacialAge/BNav_EC2/DepthDuration/v2_depth_duration_MTurk/v2_DepthDuration_HTML.html#86,86,1366,625,1366,768,8-22-2022,8-0-4,96,depth_duration_stimuli/002663_2014-06-13_15-50-26_094959634447_rgbf000075-resize_1/002663_2014-06-13_15-50-26_094959634447_rgbf000075-resize_1-target.png,1000,4.7495,2,4305,997,meters,jsons/v1_VE1000_randls_74_rotated.json,903740,1132451,50,Man
96,252951,DepthScenes,duration_manipulation_targetAtFixation,jsons/v1_VE1000_randls_74_rotated.json,http://54.235.29.9/FacialAge/BNav_EC2/DepthDuration/v2_depth_duration_MTurk/v2_DepthDuration_HTML.html#86,86,1366,625,1366,768,8-22-2022,8-0-4,97,depth_duration_stimuli/003587_2014-05-23_16-48-02_094959634447_rgbf002384-resize_2/003587_2014-05-23_16-48-02_094959634447_rgbf002384-resize_2-target.png,1000,1.357,3,4516,993,meters,jsons/v1_VE1000_randls_74_rotated.json,903740,1132451,50,Man
97,252951,DepthScenes,duration_manipulation_targetAtFixation,jsons/v1_VE1000_randls_74_rotated.json,http://54.235.29.9/FacialAge/BNav_EC2/DepthDuration/v2_depth_duration_MTurk/v2_DepthDuration_HTML.html#86,86,1366,625,1366,768,8-22-2022,8-0-4,98,depth_duration_stimuli/001167_2014-06-17_15-38-07_260595134347_rgbf000108-resize_0/001167_2014-06-17_15-38-07_260595134347_rgbf000108-resize_0-target.png,1000,1.8505,2,4648,987,meters,jsons/v1_VE1000_randls_74_rotated.json,903740,1132451,50,Man
98,252951,DepthScenes,duration_manipulation_targetAtFixation,jsons/v1_VE1000_randls_74_rotated.json,http://54.235.29.9/FacialAge/BNav_EC2/DepthDuration/v2_depth_duration_MTurk/v2_DepthDuration_HTML.html#86,86,1366,625,1366,768,8-22-2022,8-0-4,99,depth_duration_stimuli/001222_2014-06-17_16-24-06_260595134347_rgbf000073-resize_0/001222_2014-06-17_16-24-06_260595134347_rgbf000073-resize-original.jpg,1000,1.4385,0,4454,999,meters,jsons/v1_VE1000_randls_74_rotated.json,903740,1132451,50,Man
99,252951,DepthScenes,duration_manipulation_targetAtFixation,jsons/v1_VE1000_randls_74_rotated.json,http://54.235.29.9/FacialAge/BNav_EC2/DepthDuration/v2_depth_duration_MTurk/v2_DepthDuration_HTML.html#86,86,1366,625,1366,768,8-22-2022,8-0-4,100,depth_duration_stimuli/001617_2014-06-20_11-35-32_260595134347_rgbf000066-resize_1/001617_2014-06-20_11-35-32_260595134347_rgbf000066-resize_1-target.png,1000,3.7910000000000004,3,4598,998,meters,jsons/v1_VE1000_randls_74_rotated.json,903740,1132451,50,Man
100,252951,DepthScenes,duration_manipulation_targetAtFixation,jsons/v1_VE1000_randls_74_rotated.json,http://54.235.29.9/FacialAge/BNav_EC2/DepthDuration/v2_depth_duration_MTurk/v2_DepthDuration_HTML.html#86,86,1366,625,1366,768,8-22-2022,8-0-4,101,depth_duration_stimuli/001806_2014-06-26_20-50-20_260595134347_rgbf000091-resize_1/001806_2014-06-26_20-50-20_260595134347_rgbf000091-resize_1-target.png,1000,2.7305,3,4525,998,meters,jsons/v1_VE1000_randls_74_rotated.json,903740,1132451,50,Man
101,252951,DepthScenes,duration_manipulation_targetAtFixation,jsons/v1_VE1000_randls_74_rotated.json,http://54.235.29.9/FacialAge/BNav_EC2/DepthDuration/v2_depth_duration_MTurk/v2_DepthDuration_HTML.html#86,86,1366,625,1366,768,8-22-2022,8-0-4,102,depth_duration_stimuli/000502_2014-06-08_23-02-32_260595134347_rgbf000063-resize_4/000502_2014-06-08_23-02-32_260595134347_rgbf000063-resize_4-target.png,1000,2.431,3,4530,986,meters,jsons/v1_VE1000_randls_74_rotated.json,903740,1132451,50,Man
102,252951,DepthScenes,duration_manipulation_targetAtFixation,jsons/v1_VE1000_randls_74_rotated.json,http://54.235.29.9/FacialAge/BNav_EC2/DepthDuration/v2_depth_duration_MTurk/v2_DepthDuration_HTML.html#86,86,1366,625,1366,768,8-22-2022,8-0-4,103,depth_duration_stimuli/001199_2014-06-17_16-03-48_260595134347_rgbf000077-resize_0/001199_2014-06-17_16-03-48_260595134347_rgbf000077-resize_0-target.png,1000,3.4375,3,4419,996,meters,jsons/v1_VE1000_randls_74_rotated.json,903740,1132451,50,Man
103,252951,DepthScenes,duration_manipulation_targetAtFixation,jsons/v1_VE1000_randls_74_rotated.json,http://54.235.29.9/FacialAge/BNav_EC2/DepthDuration/v2_depth_duration_MTurk/v2_DepthDuration_HTML.html#86,86,1366,625,1366,768,8-22-2022,8-0-4,104,depth_duration_stimuli/000854_2014-06-09_19-43-13_260595134347_rgbf000066-resize_0/000854_2014-06-09_19-43-13_260595134347_rgbf000066-resize_0-target.png,1000,3.068,3,4508,984,meters,jsons/v1_VE1000_randls_74_rotated.json,903740,1132451,50,Man
104,252951,DepthScenes,duration_manipulation_targetAtFixation,jsons/v1_VE1000_randls_74_rotated.json,http://54.235.29.9/FacialAge/BNav_EC2/DepthDuration/v2_depth_duration_MTurk/v2_DepthDuration_HTML.html#86,86,1366,625,1366,768,8-22-2022,8-0-4,105,depth_duration_stimuli/000758_2014-06-08_22-05-08_260595134347_rgbf000085-resize_0/000758_2014-06-08_22-05-08_260595134347_rgbf000085-resize_0-target.png,1000,3.3810000000000002,2,4244,990,meters,jsons/v1_VE1000_randls_74_rotated.json,903740,1132451,50,Man
105,252951,DepthScenes,duration_manipulation_targetAtFixation,jsons/v1_VE1000_randls_74_rotated.json,http://54.235.29.9/FacialAge/BNav_EC2/DepthDuration/v2_depth_duration_MTurk/v2_DepthDuration_HTML.html#86,86,1366,625,1366,768,8-22-2022,8-0-4,106,depth_duration_stimuli/002875_2014-06-01_15-19-00_094959634447_rgbf000151-resize_1/002875_2014-06-01_15-19-00_094959634447_rgbf000151-resize_1-target.png,1000,1.9675,3,4400,950,meters,jsons/v1_VE1000_randls_74_rotated.json,903740,1132451,50,Man
106,252951,DepthScenes,duration_manipulation_targetAtFixation,jsons/v1_VE1000_randls_74_rotated.json,http://54.235.29.9/FacialAge/BNav_EC2/DepthDuration/v2_depth_duration_MTurk/v2_DepthDuration_HTML.html#86,86,1366,625,1366,768,8-22-2022,8-0-4,107,depth_duration_stimuli/001011_2014-06-08_23-18-54_260595134347_rgbf000044-resize_4/001011_2014-06-08_23-18-54_260595134347_rgbf000044-resize_4-target.png,1000,2.4730000000000003,3,5138,1002,meters,jsons/v1_VE1000_randls_74_rotated.json,903740,1132451,50,Man
107,252951,DepthScenes,duration_manipulation_targetAtFixation,jsons/v1_VE1000_randls_74_rotated.json,http://54.235.29.9/FacialAge/BNav_EC2/DepthDuration/v2_depth_duration_MTurk/v2_DepthDuration_HTML.html#86,86,1366,625,1366,768,8-22-2022,8-0-4,108,depth_duration_stimuli/002340_2014-06-28_20-05-46_260595134347_rgbf000113-resize_0/002340_2014-06-28_20-05-46_260595134347_rgbf000113-resize_0-target.png,1000,2.4735,2,4396,1006,meters,jsons/v1_VE1000_randls_74_rotated.json,903740,1132451,50,Man
108,252951,DepthScenes,duration_manipulation_targetAtFixation,jsons/v1_VE1000_randls_74_rotated.json,http://54.235.29.9/FacialAge/BNav_EC2/DepthDuration/v2_depth_duration_MTurk/v2_DepthDuration_HTML.html#86,86,1366,625,1366,768,8-22-2022,8-0-4,109,depth_duration_stimuli/001016_2014-06-09_16-16-10_260595134347_rgbf000112-resize_5/001016_2014-06-09_16-16-10_260595134347_rgbf000112-resize_5-target.png,1000,1.6565,3,4053,996,meters,jsons/v1_VE1000_randls_74_rotated.json,903740,1132451,50,Man
109,252951,DepthScenes,duration_manipulation_targetAtFixation,jsons/v1_VE1000_randls_74_rotated.json,http://54.235.29.9/FacialAge/BNav_EC2/DepthDuration/v2_depth_duration_MTurk/v2_DepthDuration_HTML.html#86,86,1366,625,1366,768,8-22-2022,8-0-4,110,depth_duration_stimuli/002657_2014-06-13_15-29-54_094959634447_rgbf000150-resize_1/002657_2014-06-13_15-29-54_094959634447_rgbf000150-resize_1-target.png,1000,4.919,3,3983,964,meters,jsons/v1_VE1000_randls_74_rotated.json,903740,1132451,50,Man
110,252951,DepthScenes,duration_manipulation_targetAtFixation,jsons/v1_VE1000_randls_74_rotated.json,http://54.235.29.9/FacialAge/BNav_EC2/DepthDuration/v2_depth_duration_MTurk/v2_DepthDuration_HTML.html#86,86,1366,625,1366,768,8-22-2022,8-0-4,111,depth_duration_stimuli/002375_2014-06-28_20-13-44_260595134347_rgbf000032-resize_1/002375_2014-06-28_20-13-44_260595134347_rgbf000032-resize_1-target.png,1000,4.0175,2,4984,998,meters,jsons/v1_VE1000_randls_74_rotated.json,903740,1132451,50,Man
111,252951,DepthScenes,duration_manipulation_targetAtFixation,jsons/v1_VE1000_randls_74_rotated.json,http://54.235.29.9/FacialAge/BNav_EC2/DepthDuration/v2_depth_duration_MTurk/v2_DepthDuration_HTML.html#86,86,1366,625,1366,768,8-22-2022,8-0-4,112,depth_duration_stimuli/002953_2014-06-08_17-32-18_094959634447_rgbf000059-resize_5/002953_2014-06-08_17-32-18_094959634447_rgbf000059-resize_5-target.png,1000,1.551,3,3290,1007,meters,jsons/v1_VE1000_randls_74_rotated.json,903740,1132451,50,Man
112,252951,DepthScenes,duration_manipulation_targetAtFixation,jsons/v1_VE1000_randls_74_rotated.json,http://54.235.29.9/FacialAge/BNav_EC2/DepthDuration/v2_depth_duration_MTurk/v2_DepthDuration_HTML.html#86,86,1366,625,1366,768,8-22-2022,8-0-4,113,depth_duration_stimuli/000878_2014-06-08_22-52-45_260595134347_rgbf000045-resize_2/000878_2014-06-08_22-52-45_260595134347_rgbf000045-resize_2-target.png,1000,2.092,2,4632,989,meters,jsons/v1_VE1000_randls_74_rotated.json,903740,1132451,50,Man
113,252951,DepthScenes,duration_manipulation_targetAtFixation,jsons/v1_VE1000_randls_74_rotated.json,http://54.235.29.9/FacialAge/BNav_EC2/DepthDuration/v2_depth_duration_MTurk/v2_DepthDuration_HTML.html#86,86,1366,625,1366,768,8-22-2022,8-0-4,114,depth_duration_stimuli/000137_2014-05-20_17-04-49_260595134347_rgbf000120-resize_1/000137_2014-05-20_17-04-49_260595134347_rgbf000120-resize_1-target.png,1000,3.786,3,4228,996,meters,jsons/v1_VE1000_randls_74_rotated.json,903740,1132451,50,Man
114,252951,DepthScenes,duration_manipulation_targetAtFixation,jsons/v1_VE1000_randls_74_rotated.json,http://54.235.29.9/FacialAge/BNav_EC2/DepthDuration/v2_depth_duration_MTurk/v2_DepthDuration_HTML.html#86,86,1366,625,1366,768,8-22-2022,8-0-4,115,depth_duration_stimuli/000736_2014-06-08_18-24-15_260595134347_rgbf000206-resize_3/000736_2014-06-08_18-24-15_260595134347_rgbf000206-resize_3-target.png,1000,3.515,2,4306,959,meters,jsons/v1_VE1000_randls_74_rotated.json,903740,1132451,50,Man
115,252951,DepthScenes,duration_manipulation_targetAtFixation,jsons/v1_VE1000_randls_74_rotated.json,http://54.235.29.9/FacialAge/BNav_EC2/DepthDuration/v2_depth_duration_MTurk/v2_DepthDuration_HTML.html#86,86,1366,625,1366,768,8-22-2022,8-0-4,116,depth_duration_stimuli/000709_2014-06-08_13-51-55_260595134347_rgbf000068-resize_3/000709_2014-06-08_13-51-55_260595134347_rgbf000068-resize_3-target.png,1000,1.8030000000000002,3,4759,999,meters,jsons/v1_VE1000_randls_74_rotated.json,903740,1132451,50,Man
116,252951,DepthScenes,duration_manipulation_targetAtFixation,jsons/v1_VE1000_randls_74_rotated.json,http://54.235.29.9/FacialAge/BNav_EC2/DepthDuration/v2_depth_duration_MTurk/v2_DepthDuration_HTML.html#86,86,1366,625,1366,768,8-22-2022,8-0-4,117,depth_duration_stimuli/002057_2014-06-24_21-00-13_260595134347_rgbf000120-resize_1/002057_2014-06-24_21-00-13_260595134347_rgbf000120-resize_1-target.png,1000,2.967,3,4831,984,meters,jsons/v1_VE1000_randls_74_rotated.json,903740,1132451,50,Man
117,252951,DepthScenes,duration_manipulation_targetAtFixation,jsons/v1_VE1000_randls_74_rotated.json,http://54.235.29.9/FacialAge/BNav_EC2/DepthDuration/v2_depth_duration_MTurk/v2_DepthDuration_HTML.html#86,86,1366,625,1366,768,8-22-2022,8-0-4,118,depth_duration_stimuli/000665_2014-06-09_20-42-35_260595134347_rgbf000110-resize_1/000665_2014-06-09_20-42-35_260595134347_rgbf000110-resize_1-target.png,1000,3.057,3,4269,1004,meters,jsons/v1_VE1000_randls_74_rotated.json,903740,1132451,50,Man
118,252951,DepthScenes,duration_manipulation_targetAtFixation,jsons/v1_VE1000_randls_74_rotated.json,http://54.235.29.9/FacialAge/BNav_EC2/DepthDuration/v2_depth_duration_MTurk/v2_DepthDuration_HTML.html#86,86,1366,625,1366,768,8-22-2022,8-0-4,119,depth_duration_stimuli/001150_2014-06-17_15-27-34_260595134347_rgbf000108-resize_2/001150_2014-06-17_15-27-34_260595134347_rgbf000108-resize_2-target.png,1000,4.0325,2,4371,997,meters,jsons/v1_VE1000_randls_74_rotated.json,903740,1132451,50,Man
119,252951,DepthScenes,duration_manipulation_targetAtFixation,jsons/v1_VE1000_randls_74_rotated.json,http://54.235.29.9/FacialAge/BNav_EC2/DepthDuration/v2_depth_duration_MTurk/v2_DepthDuration_HTML.html#86,86,1366,625,1366,768,8-22-2022,8-0-4,120,depth_duration_stimuli/000787_2014-06-08_22-33-53_260595134347_rgbf000175-resize_1/000787_2014-06-08_22-33-53_260595134347_rgbf000175-resize-original.jpg,1000,4.784,0,5764,999,meters,jsons/v1_VE1000_randls_74_rotated.json,903740,1132451,50,Man
120,252951,DepthScenes,duration_manipulation_targetAtFixation,jsons/v1_VE1000_randls_74_rotated.json,http://54.235.29.9/FacialAge/BNav_EC2/DepthDuration/v2_depth_duration_MTurk/v2_DepthDuration_HTML.html#86,86,1366,625,1366,768,8-22-2022,8-0-4,121,depth_duration_stimuli/003490_2014-05-21_15-50-11_094959634447_rgbf000101-resize_3/003490_2014-05-21_15-50-11_094959634447_rgbf000101-resize_3-target.png,1000,3.6445,3,5099,1002,meters,jsons/v1_VE1000_randls_74_rotated.json,903740,1132451,50,Man
121,252951,DepthScenes,duration_manipulation_targetAtFixation,jsons/v1_VE1000_randls_74_rotated.json,http://54.235.29.9/FacialAge/BNav_EC2/DepthDuration/v2_depth_duration_MTurk/v2_DepthDuration_HTML.html#86,86,1366,625,1366,768,8-22-2022,8-0-4,122,depth_duration_stimuli/001175_2014-06-17_15-45-55_260595134347_rgbf000129-resize_4/001175_2014-06-17_15-45-55_260595134347_rgbf000129-resize_4-target.png,1000,4.255,2,4438,997,meters,jsons/v1_VE1000_randls_74_rotated.json,903740,1132451,50,Man
122,252951,DepthScenes,duration_manipulation_targetAtFixation,jsons/v1_VE1000_randls_74_rotated.json,http://54.235.29.9/FacialAge/BNav_EC2/DepthDuration/v2_depth_duration_MTurk/v2_DepthDuration_HTML.html#86,86,1366,625,1366,768,8-22-2022,8-0-4,123,depth_duration_stimuli/000742_2014-06-08_18-48-09_260595134347_rgbf000164-resize_4/000742_2014-06-08_18-48-09_260595134347_rgbf000164-resize_4-target.png,1000,4.632,3,4250,986,meters,jsons/v1_VE1000_randls_74_rotated.json,903740,1132451,50,Man
123,252951,DepthScenes,duration_manipulation_targetAtFixation,jsons/v1_VE1000_randls_74_rotated.json,http://54.235.29.9/FacialAge/BNav_EC2/DepthDuration/v2_depth_duration_MTurk/v2_DepthDuration_HTML.html#86,86,1366,625,1366,768,8-22-2022,8-0-4,124,depth_duration_stimuli/001066_2014-06-08_22-03-20_260595134347_rgbf000066-resize_4/001066_2014-06-08_22-03-20_260595134347_rgbf000066-resize_4-target.png,1000,4.2330000000000005,3,4508,1004,meters,jsons/v1_VE1000_randls_74_rotated.json,903740,1132451,50,Man
124,252951,DepthScenes,duration_manipulation_targetAtFixation,jsons/v1_VE1000_randls_74_rotated.json,http://54.235.29.9/FacialAge/BNav_EC2/DepthDuration/v2_depth_duration_MTurk/v2_DepthDuration_HTML.html#86,86,1366,625,1366,768,8-22-2022,8-0-4,125,depth_duration_stimuli/000677_2014-06-08_23-10-32_260595134347_rgbf000158-resize_6/000677_2014-06-08_23-10-32_260595134347_rgbf000158-resize_6-target.png,1000,3.556,3,4669,1000,meters,jsons/v1_VE1000_randls_74_rotated.json,903740,1132451,50,Man
125,252951,DepthScenes,duration_manipulation_targetAtFixation,jsons/v1_VE1000_randls_74_rotated.json,http://54.235.29.9/FacialAge/BNav_EC2/DepthDuration/v2_depth_duration_MTurk/v2_DepthDuration_HTML.html#86,86,1366,625,1366,768,8-22-2022,8-0-4,126,depth_duration_stimuli/001029_2014-06-08_13-17-57_260595134347_rgbf000065-resize_1/001029_2014-06-08_13-17-57_260595134347_rgbf000065-resize_1-target.png,1000,3.0835,2,4032,991,meters,jsons/v1_VE1000_randls_74_rotated.json,903740,1132451,50,Man
126,252951,DepthScenes,duration_manipulation_targetAtFixation,jsons/v1_VE1000_randls_74_rotated.json,http://54.235.29.9/FacialAge/BNav_EC2/DepthDuration/v2_depth_duration_MTurk/v2_DepthDuration_HTML.html#86,86,1366,625,1366,768,8-22-2022,8-0-4,127,depth_duration_stimuli/003083_2014-06-15_15-21-03_094959634447_rgbf000063-resize_1/003083_2014-06-15_15-21-03_094959634447_rgbf000063-resize_1-target.png,1000,4.1405,3,4450,978,meters,jsons/v1_VE1000_randls_74_rotated.json,903740,1132451,50,Man
127,252951,DepthScenes,duration_manipulation_targetAtFixation,jsons/v1_VE1000_randls_74_rotated.json,http://54.235.29.9/FacialAge/BNav_EC2/DepthDuration/v2_depth_duration_MTurk/v2_DepthDuration_HTML.html#86,86,1366,625,1366,768,8-22-2022,8-0-4,128,depth_duration_stimuli/000486_2014-06-09_20-47-20_260595134347_rgbf000143-resize_2/000486_2014-06-09_20-47-20_260595134347_rgbf000143-resize_2-target.png,1000,4.8325,3,6226,1013,meters,jsons/v1_VE1000_randls_74_rotated.json,903740,1132451,50,Man
128,252951,DepthScenes,duration_manipulation_targetAtFixation,jsons/v1_VE1000_randls_74_rotated.json,http://54.235.29.9/FacialAge/BNav_EC2/DepthDuration/v2_depth_duration_MTurk/v2_DepthDuration_HTML.html#86,86,1366,625,1366,768,8-22-2022,8-0-4,129,depth_duration_stimuli/003228_2014-05-14_13-42-35_094959634447_rgbf000101-resize_1/003228_2014-05-14_13-42-35_094959634447_rgbf000101-resize_1-target.png,1000,1.9680000000000002,3,6325,983,meters,jsons/v1_VE1000_randls_74_rotated.json,903740,1132451,50,Man
129,252951,DepthScenes,duration_manipulation_targetAtFixation,jsons/v1_VE1000_randls_74_rotated.json,http://54.235.29.9/FacialAge/BNav_EC2/DepthDuration/v2_depth_duration_MTurk/v2_DepthDuration_HTML.html#86,86,1366,625,1366,768,8-22-2022,8-0-4,130,depth_duration_stimuli/002600_2014-06-24_14-27-04_094959634447_rgbf000074-resize_2/002600_2014-06-24_14-27-04_094959634447_rgbf000074-resize_2-target.png,1000,2.7575,2,5590,1006,meters,jsons/v1_VE1000_randls_74_rotated.json,903740,1132451,50,Man
130,252951,DepthScenes,duration_manipulation_targetAtFixation,jsons/v1_VE1000_randls_74_rotated.json,http://54.235.29.9/FacialAge/BNav_EC2/DepthDuration/v2_depth_duration_MTurk/v2_DepthDuration_HTML.html#86,86,1366,625,1366,768,8-22-2022,8-0-4,131,depth_duration_stimuli/000734_2014-06-08_17-39-11_260595134347_rgbf000128-resize_2/000734_2014-06-08_17-39-11_260595134347_rgbf000128-resize_2-target.png,1000,4.098,3,4335,991,meters,jsons/v1_VE1000_randls_74_rotated.json,903740,1132451,50,Man
131,252951,DepthScenes,duration_manipulation_targetAtFixation,jsons/v1_VE1000_randls_74_rotated.json,http://54.235.29.9/FacialAge/BNav_EC2/DepthDuration/v2_depth_duration_MTurk/v2_DepthDuration_HTML.html#86,86,1366,625,1366,768,8-22-2022,8-0-4,132,depth_duration_stimuli/000739_2014-06-08_18-45-58_260595134347_rgbf000068-resize_1/000739_2014-06-08_18-45-58_260595134347_rgbf000068-resize_1-target.png,1000,3.534,2,4287,994,meters,jsons/v1_VE1000_randls_74_rotated.json,903740,1132451,50,Man
132,252951,DepthScenes,duration_manipulation_targetAtFixation,jsons/v1_VE1000_randls_74_rotated.json,http://54.235.29.9/FacialAge/BNav_EC2/DepthDuration/v2_depth_duration_MTurk/v2_DepthDuration_HTML.html#86,86,1366,625,1366,768,8-22-2022,8-0-4,133,depth_duration_stimuli/003010_2014-06-15_12-54-35_094959634447_rgbf000112-resize_0/003010_2014-06-15_12-54-35_094959634447_rgbf000112-resize_0-target.png,1000,3.1185,3,4420,1003,meters,jsons/v1_VE1000_randls_74_rotated.json,903740,1132451,50,Man
133,252951,DepthScenes,duration_manipulation_targetAtFixation,jsons/v1_VE1000_randls_74_rotated.json,http://54.235.29.9/FacialAge/BNav_EC2/DepthDuration/v2_depth_duration_MTurk/v2_DepthDuration_HTML.html#86,86,1366,625,1366,768,8-22-2022,8-0-4,134,depth_duration_stimuli/001810_2014-06-26_20-51-35_260595134347_rgbf000040-resize_3/001810_2014-06-26_20-51-35_260595134347_rgbf000040-resize_3-target.png,1000,2.2525,2,5645,999,meters,jsons/v1_VE1000_randls_74_rotated.json,903740,1132451,50,Man
134,252951,DepthScenes,duration_manipulation_targetAtFixation,jsons/v1_VE1000_randls_74_rotated.json,http://54.235.29.9/FacialAge/BNav_EC2/DepthDuration/v2_depth_duration_MTurk/v2_DepthDuration_HTML.html#86,86,1366,625,1366,768,8-22-2022,8-0-4,135,depth_duration_stimuli/000375_2014-06-08_11-17-29_260595134347_rgbf000133-resize_2/000375_2014-06-08_11-17-29_260595134347_rgbf000133-resize-original.jpg,1000,4.718,0,4322,992,meters,jsons/v1_VE1000_randls_74_rotated.json,903740,1132451,50,Man
135,252951,DepthScenes,duration_manipulation_targetAtFixation,jsons/v1_VE1000_randls_74_rotated.json,http://54.235.29.9/FacialAge/BNav_EC2/DepthDuration/v2_depth_duration_MTurk/v2_DepthDuration_HTML.html#86,86,1366,625,1366,768,8-22-2022,8-0-4,136,depth_duration_stimuli/001584_2014-06-20_11-07-43_260595134347_rgbf000002-resize_1/001584_2014-06-20_11-07-43_260595134347_rgbf000002-resize_1-target.png,1000,3.53,3,4578,1002,meters,jsons/v1_VE1000_randls_74_rotated.json,903740,1132451,50,Man
136,252951,DepthScenes,duration_manipulation_targetAtFixation,jsons/v1_VE1000_randls_74_rotated.json,http://54.235.29.9/FacialAge/BNav_EC2/DepthDuration/v2_depth_duration_MTurk/v2_DepthDuration_HTML.html#86,86,1366,625,1366,768,8-22-2022,8-0-4,137,depth_duration_stimuli/003621_2014-05-23_18-06-08_094959634447_rgbf000101-resize_1/003621_2014-05-23_18-06-08_094959634447_rgbf000101-resize_1-target.png,1000,3.9835,2,4293,1005,meters,jsons/v1_VE1000_randls_74_rotated.json,903740,1132451,50,Man
137,252951,DepthScenes,duration_manipulation_targetAtFixation,jsons/v1_VE1000_randls_74_rotated.json,http://54.235.29.9/FacialAge/BNav_EC2/DepthDuration/v2_depth_duration_MTurk/v2_DepthDuration_HTML.html#86,86,1366,625,1366,768,8-22-2022,8-0-4,138,depth_duration_stimuli/001392_2014-06-19_16-07-59_260595134347_rgbf000046-resize_1/001392_2014-06-19_16-07-59_260595134347_rgbf000046-resize_1-target.png,1000,4.135,2,4305,995,meters,jsons/v1_VE1000_randls_74_rotated.json,903740,1132451,50,Man
138,252951,DepthScenes,duration_manipulation_targetAtFixation,jsons/v1_VE1000_randls_74_rotated.json,http://54.235.29.9/FacialAge/BNav_EC2/DepthDuration/v2_depth_duration_MTurk/v2_DepthDuration_HTML.html#86,86,1366,625,1366,768,8-22-2022,8-0-4,139,depth_duration_stimuli/001570_2014-06-20_17-21-09_260595134347_rgbf000135-resize_4/001570_2014-06-20_17-21-09_260595134347_rgbf000135-resize_4-target.png,1000,4.467,3,4365,1003,meters,jsons/v1_VE1000_randls_74_rotated.json,903740,1132451,50,Man
139,252951,DepthScenes,duration_manipulation_targetAtFixation,jsons/v1_VE1000_randls_74_rotated.json,http://54.235.29.9/FacialAge/BNav_EC2/DepthDuration/v2_depth_duration_MTurk/v2_DepthDuration_HTML.html#86,86,1366,625,1366,768,8-22-2022,8-0-4,140,depth_duration_stimuli/003081_2014-06-15_15-19-16_094959634447_rgbf000150-resize_1/003081_2014-06-15_15-19-16_094959634447_rgbf000150-resize_1-target.png,1000,3.9125,2,4591,999,meters,jsons/v1_VE1000_randls_74_rotated.json,903740,1132451,50,Man
140,252951,DepthScenes,duration_manipulation_targetAtFixation,jsons/v1_VE1000_randls_74_rotated.json,http://54.235.29.9/FacialAge/BNav_EC2/DepthDuration/v2_depth_duration_MTurk/v2_DepthDuration_HTML.html#86,86,1366,625,1366,768,8-22-2022,8-0-4,141,depth_duration_stimuli/001417_2014-06-19_16-25-36_260595134347_rgbf000115-resize_5/001417_2014-06-19_16-25-36_260595134347_rgbf000115-resize_5-target.png,1000,4.6255,2,4371,999,meters,jsons/v1_VE1000_randls_74_rotated.json,903740,1132451,50,Man
141,252951,DepthScenes,duration_manipulation_targetAtFixation,jsons/v1_VE1000_randls_74_rotated.json,http://54.235.29.9/FacialAge/BNav_EC2/DepthDuration/v2_depth_duration_MTurk/v2_DepthDuration_HTML.html#86,86,1366,625,1366,768,8-22-2022,8-0-4,142,depth_duration_stimuli/001650_2014-06-20_12-09-00_260595134347_rgbf000087-resize_3/001650_2014-06-20_12-09-00_260595134347_rgbf000087-resize_3-target.png,1000,1.9505,3,4611,1005,meters,jsons/v1_VE1000_randls_74_rotated.json,903740,1132451,50,Man
142,252951,DepthScenes,duration_manipulation_targetAtFixation,jsons/v1_VE1000_randls_74_rotated.json,http://54.235.29.9/FacialAge/BNav_EC2/DepthDuration/v2_depth_duration_MTurk/v2_DepthDuration_HTML.html#86,86,1366,625,1366,768,8-22-2022,8-0-4,143,depth_duration_stimuli/000682_2014-06-08_23-14-58_260595134347_rgbf000041-resize_5/000682_2014-06-08_23-14-58_260595134347_rgbf000041-resize_5-target.png,1000,2.7239999999999998,3,4346,994,meters,jsons/v1_VE1000_randls_74_rotated.json,903740,1132451,50,Man
143,252951,DepthScenes,duration_manipulation_targetAtFixation,jsons/v1_VE1000_randls_74_rotated.json,http://54.235.29.9/FacialAge/BNav_EC2/DepthDuration/v2_depth_duration_MTurk/v2_DepthDuration_HTML.html#86,86,1366,625,1366,768,8-22-2022,8-0-4,144,depth_duration_stimuli/000943_2014-06-09_19-31-07_260595134347_rgbf000128-resize_1/000943_2014-06-09_19-31-07_260595134347_rgbf000128-resize_1-target.png,1000,1.9765,2,4309,983,meters,jsons/v1_VE1000_randls_74_rotated.json,903740,1132451,50,Man
144,252951,DepthScenes,duration_manipulation_targetAtFixation,jsons/v1_VE1000_randls_74_rotated.json,http://54.235.29.9/FacialAge/BNav_EC2/DepthDuration/v2_depth_duration_MTurk/v2_DepthDuration_HTML.html#86,86,1366,625,1366,768,8-22-2022,8-0-4,145,depth_duration_stimuli/003070_2014-06-15_14-58-27_094959634447_rgbf000150-resize_3/003070_2014-06-15_14-58-27_094959634447_rgbf000150-resize_3-target.png,1000,2.9415,2,4286,997,meters,jsons/v1_VE1000_randls_74_rotated.json,903740,1132451,50,Man
145,252951,DepthScenes,duration_manipulation_targetAtFixation,jsons/v1_VE1000_randls_74_rotated.json,http://54.235.29.9/FacialAge/BNav_EC2/DepthDuration/v2_depth_duration_MTurk/v2_DepthDuration_HTML.html#86,86,1366,625,1366,768,8-22-2022,8-0-4,146,depth_duration_stimuli/000866_2014-06-09_20-45-42_260595134347_rgbf000139-resize_1/000866_2014-06-09_20-45-42_260595134347_rgbf000139-resize_1-target.png,1000,3.2155,3,3938,990,meters,jsons/v1_VE1000_randls_74_rotated.json,903740,1132451,50,Man
146,252951,DepthScenes,duration_manipulation_targetAtFixation,jsons/v1_VE1000_randls_74_rotated.json,http://54.235.29.9/FacialAge/BNav_EC2/DepthDuration/v2_depth_duration_MTurk/v2_DepthDuration_HTML.html#86,86,1366,625,1366,768,8-22-2022,8-0-4,147,depth_duration_stimuli/002989_2014-06-15_12-25-03_094959634447_rgbf000150-resize_3/002989_2014-06-15_12-25-03_094959634447_rgbf000150-resize_3-target.png,1000,4.1975,1,4050,1003,meters,jsons/v1_VE1000_randls_74_rotated.json,903740,1132451,50,Man
147,252951,DepthScenes,duration_manipulation_targetAtFixation,jsons/v1_VE1000_randls_74_rotated.json,http://54.235.29.9/FacialAge/BNav_EC2/DepthDuration/v2_depth_duration_MTurk/v2_DepthDuration_HTML.html#86,86,1366,625,1366,768,8-22-2022,8-0-4,148,depth_duration_stimuli/002750_2014-06-22_19-08-03_094959634447_rgbf000094-resize_4/002750_2014-06-22_19-08-03_094959634447_rgbf000094-resize_4-target.png,1000,2.354,2,4165,987,meters,jsons/v1_VE1000_randls_74_rotated.json,903740,1132451,50,Man
148,252951,DepthScenes,duration_manipulation_targetAtFixation,jsons/v1_VE1000_randls_74_rotated.json,http://54.235.29.9/FacialAge/BNav_EC2/DepthDuration/v2_depth_duration_MTurk/v2_DepthDuration_HTML.html#86,86,1366,625,1366,768,8-22-2022,8-0-4,149,depth_duration_stimuli/002549_2014-06-24_13-41-39_094959634447_rgbf000022-resize_3/002549_2014-06-24_13-41-39_094959634447_rgbf000022-resize_3-target.png,1000,1.476,3,4344,995,meters,jsons/v1_VE1000_randls_74_rotated.json,903740,1132451,50,Man
149,252951,DepthScenes,duration_manipulation_targetAtFixation,jsons/v1_VE1000_randls_74_rotated.json,http://54.235.29.9/FacialAge/BNav_EC2/DepthDuration/v2_depth_duration_MTurk/v2_DepthDuration_HTML.html#86,86,1366,625,1366,768,8-22-2022,8-0-4,150,depth_duration_stimuli/003079_2014-06-15_15-18-20_094959634447_rgbf000152-resize_8/003079_2014-06-15_15-18-20_094959634447_rgbf000152-resize_8-target.png,1000,2.8775,2,4219,1004,meters,jsons/v1_VE1000_randls_74_rotated.json,903740,1132451,50,Man
150,252951,DepthScenes,duration_manipulation_targetAtFixation,jsons/v1_VE1000_randls_74_rotated.json,http://54.235.29.9/FacialAge/BNav_EC2/DepthDuration/v2_depth_duration_MTurk/v2_DepthDuration_HTML.html#86,86,1366,625,1366,768,8-22-2022,8-0-4,151,depth_duration_stimuli/000506_2014-06-08_23-21-00_260595134347_rgbf000070-resize_7/000506_2014-06-08_23-21-00_260595134347_rgbf000070-resize_7-target.png,1000,4.0585,3,4177,988,meters,jsons/v1_VE1000_randls_74_rotated.json,903740,1132451,50,Man
151,252951,DepthScenes,duration_manipulation_targetAtFixation,jsons/v1_VE1000_randls_74_rotated.json,http://54.235.29.9/FacialAge/BNav_EC2/DepthDuration/v2_depth_duration_MTurk/v2_DepthDuration_HTML.html#86,86,1366,625,1366,768,8-22-2022,8-0-4,152,depth_duration_stimuli/000569_2014-06-09_22-51-47_260595134347_rgbf000141-resize_3/000569_2014-06-09_22-51-47_260595134347_rgbf000141-resize-original.jpg,1000,4.512,0,3976,964,meters,jsons/v1_VE1000_randls_74_rotated.json,903740,1132451,50,Man
152,252951,DepthScenes,duration_manipulation_targetAtFixation,jsons/v1_VE1000_randls_74_rotated.json,http://54.235.29.9/FacialAge/BNav_EC2/DepthDuration/v2_depth_duration_MTurk/v2_DepthDuration_HTML.html#86,86,1366,625,1366,768,8-22-2022,8-0-4,153,depth_duration_stimuli/002660_2014-06-13_15-44-18_094959634447_rgbf001878-resize_2/002660_2014-06-13_15-44-18_094959634447_rgbf001878-resize_2-target.png,1000,3.576,2,4277,997,meters,jsons/v1_VE1000_randls_74_rotated.json,903740,1132451,50,Man
153,252951,DepthScenes,duration_manipulation_targetAtFixation,jsons/v1_VE1000_randls_74_rotated.json,http://54.235.29.9/FacialAge/BNav_EC2/DepthDuration/v2_depth_duration_MTurk/v2_DepthDuration_HTML.html#86,86,1366,625,1366,768,8-22-2022,8-0-4,154,depth_duration_stimuli/002153_2014-06-25_21-27-18_260595134347_rgbf000038-resize_5/002153_2014-06-25_21-27-18_260595134347_rgbf000038-resize_5-target.png,1000,2.505,3,4226,989,meters,jsons/v1_VE1000_randls_74_rotated.json,903740,1132451,50,Man
154,252951,DepthScenes,duration_manipulation_targetAtFixation,jsons/v1_VE1000_randls_74_rotated.json,http://54.235.29.9/FacialAge/BNav_EC2/DepthDuration/v2_depth_duration_MTurk/v2_DepthDuration_HTML.html#86,86,1366,625,1366,768,8-22-2022,8-0-4,155,depth_duration_stimuli/000749_2014-06-08_21-55-06_260595134347_rgbf000070-resize_2/000749_2014-06-08_21-55-06_260595134347_rgbf000070-resize_2-target.png,1000,2.331,3,4334,1010,meters,jsons/v1_VE1000_randls_74_rotated.json,903740,1132451,50,Man
155,252951,DepthScenes,duration_manipulation_targetAtFixation,jsons/v1_VE1000_randls_74_rotated.json,http://54.235.29.9/FacialAge/BNav_EC2/DepthDuration/v2_depth_duration_MTurk/v2_DepthDuration_HTML.html#86,86,1366,625,1366,768,8-22-2022,8-0-4,156,depth_duration_stimuli/002788_2014-06-22_19-36-03_094959634447_rgbf000088-resize_2/002788_2014-06-22_19-36-03_094959634447_rgbf000088-resize_2-target.png,1000,1.6465,3,4379,993,meters,jsons/v1_VE1000_randls_74_rotated.json,903740,1132451,50,Man
156,252951,DepthScenes,duration_manipulation_targetAtFixation,jsons/v1_VE1000_randls_74_rotated.json,http://54.235.29.9/FacialAge/BNav_EC2/DepthDuration/v2_depth_duration_MTurk/v2_DepthDuration_HTML.html#86,86,1366,625,1366,768,8-22-2022,8-0-4,157,depth_duration_stimuli/000457_2014-06-08_16-52-43_260595134347_rgbf000199-resize_1/000457_2014-06-08_16-52-43_260595134347_rgbf000199-resize_1-target.png,1000,3.6489999999999996,3,3979,1001,meters,jsons/v1_VE1000_randls_74_rotated.json,903740,1132451,50,Man
157,252951,DepthScenes,duration_manipulation_targetAtFixation,jsons/v1_VE1000_randls_74_rotated.json,http://54.235.29.9/FacialAge/BNav_EC2/DepthDuration/v2_depth_duration_MTurk/v2_DepthDuration_HTML.html#86,86,1366,625,1366,768,8-22-2022,8-0-4,158,depth_duration_stimuli/000929_2014-06-09_16-33-19_260595134347_rgbf000139-resize_0/000929_2014-06-09_16-33-19_260595134347_rgbf000139-resize_0-target.png,1000,2.8680000000000003,3,4201,1004,meters,jsons/v1_VE1000_randls_74_rotated.json,903740,1132451,50,Man
158,252951,DepthScenes,duration_manipulation_targetAtFixation,jsons/v1_VE1000_randls_74_rotated.json,http://54.235.29.9/FacialAge/BNav_EC2/DepthDuration/v2_depth_duration_MTurk/v2_DepthDuration_HTML.html#86,86,1366,625,1366,768,8-22-2022,8-0-4,159,depth_duration_stimuli/002637_2014-06-24_14-51-13_094959634447_rgbf000066-resize_4/002637_2014-06-24_14-51-13_094959634447_rgbf000066-resize_4-target.png,1000,1.9955,2,4218,935,meters,jsons/v1_VE1000_randls_74_rotated.json,903740,1132451,50,Man
159,252951,DepthScenes,duration_manipulation_targetAtFixation,jsons/v1_VE1000_randls_74_rotated.json,http://54.235.29.9/FacialAge/BNav_EC2/DepthDuration/v2_depth_duration_MTurk/v2_DepthDuration_HTML.html#86,86,1366,625,1366,768,8-22-2022,8-0-4,160,depth_duration_stimuli/003534_2014-05-22_15-06-10_094959634447_rgbf000102-resize_4/003534_2014-05-22_15-06-10_094959634447_rgbf000102-resize_4-target.png,1000,1.426,2,4521,990,meters,jsons/v1_VE1000_randls_74_rotated.json,903740,1132451,50,Man
160,252951,DepthScenes,duration_manipulation_targetAtFixation,jsons/v1_VE1000_randls_74_rotated.json,http://54.235.29.9/FacialAge/BNav_EC2/DepthDuration/v2_depth_duration_MTurk/v2_DepthDuration_HTML.html#86,86,1366,625,1366,768,8-22-2022,8-0-4,161,depth_duration_stimuli/000191_2014-05-12_17-07-38_260595134347_rgbf000199-resize_0/000191_2014-05-12_17-07-38_260595134347_rgbf000199-resize_0-target.png,1000,3.7995,3,4463,1002,meters,jsons/v1_VE1000_randls_74_rotated.json,903740,1132451,50,Man
161,252951,DepthScenes,duration_manipulation_targetAtFixation,jsons/v1_VE1000_randls_74_rotated.json,http://54.235.29.9/FacialAge/BNav_EC2/DepthDuration/v2_depth_duration_MTurk/v2_DepthDuration_HTML.html#86,86,1366,625,1366,768,8-22-2022,8-0-4,162,depth_duration_stimuli/000493_2014-06-09_21-01-18_260595134347_rgbf000196-resize_3/000493_2014-06-09_21-01-18_260595134347_rgbf000196-resize_3-target.png,1000,3.44,3,4881,999,meters,jsons/v1_VE1000_randls_74_rotated.json,903740,1132451,50,Man
162,252951,DepthScenes,duration_manipulation_targetAtFixation,jsons/v1_VE1000_randls_74_rotated.json,http://54.235.29.9/FacialAge/BNav_EC2/DepthDuration/v2_depth_duration_MTurk/v2_DepthDuration_HTML.html#86,86,1366,625,1366,768,8-22-2022,8-0-4,163,depth_duration_stimuli/002758_2014-06-22_19-11-20_094959634447_rgbf000128-resize_1/002758_2014-06-22_19-11-20_094959634447_rgbf000128-resize_1-target.png,1000,2.555,2,4295,991,meters,jsons/v1_VE1000_randls_74_rotated.json,903740,1132451,50,Man
163,252951,DepthScenes,duration_manipulation_targetAtFixation,jsons/v1_VE1000_randls_74_rotated.json,http://54.235.29.9/FacialAge/BNav_EC2/DepthDuration/v2_depth_duration_MTurk/v2_DepthDuration_HTML.html#86,86,1366,625,1366,768,8-22-2022,8-0-4,164,depth_duration_stimuli/002630_2014-06-24_14-47-50_094959634447_rgbf000055-resize_1/002630_2014-06-24_14-47-50_094959634447_rgbf000055-resize_1-target.png,1000,3.0095,3,3231,976,meters,jsons/v1_VE1000_randls_74_rotated.json,903740,1132451,50,Man
