,subjID,experimentName,versionName,sequenceName,url,selected_row,windowWidth,windowHeight,screenWidth,screenHeight,startDate,startTime,trial,stimulus,duration,actual_depth,depth_estimate,trial_RT,log_sceneDuration,unitSelection,seq_filepath,experimentTime,totalTime,age,gender
0,254234,DepthScenes,duration_manipulation_targetAtFixation,jsons/VE125_randls_0.json,http://54.235.29.9/FacialAge/BNav_EC2/DepthDuration/v2_depth_duration_MTurk/v2_DepthDuration_HTML.html#64,64,1366,625,1366,768,8-21-2022,9-44-20,1,depth_duration_stimuli/001133_2014-06-17_14-49-16_260595134347_rgbf000100-resize_0/001133_2014-06-17_14-49-16_260595134347_rgbf000100-resize_0-target.png,125,4.2115,77,11171,125,meters,jsons/VE125_randls_0.json,1139518,2527827,25,Man
1,254234,DepthScenes,duration_manipulation_targetAtFixation,jsons/VE125_randls_0.json,http://54.235.29.9/FacialAge/BNav_EC2/DepthDuration/v2_depth_duration_MTurk/v2_DepthDuration_HTML.html#64,64,1366,625,1366,768,8-21-2022,9-44-20,2,depth_duration_stimuli/001132_2014-06-17_14-48-54_260595134347_rgbf000100-resize_2/001132_2014-06-17_14-48-54_260595134347_rgbf000100-resize_2-target.png,125,3.753,77,4210,126,meters,jsons/VE125_randls_0.json,1139518,2527827,25,Man
2,254234,DepthScenes,duration_manipulation_targetAtFixation,jsons/VE125_randls_0.json,http://54.235.29.9/FacialAge/BNav_EC2/DepthDuration/v2_depth_duration_MTurk/v2_DepthDuration_HTML.html#64,64,1366,625,1366,768,8-21-2022,9-44-20,3,depth_duration_stimuli/003070_2014-06-15_14-58-27_094959634447_rgbf000150-resize_3/003070_2014-06-15_14-58-27_094959634447_rgbf000150-resize_3-target.png,125,2.9415,70,6016,125,meters,jsons/VE125_randls_0.json,1139518,2527827,25,Man
3,254234,DepthScenes,duration_manipulation_targetAtFixation,jsons/VE125_randls_0.json,http://54.235.29.9/FacialAge/BNav_EC2/DepthDuration/v2_depth_duration_MTurk/v2_DepthDuration_HTML.html#64,64,1366,625,1366,768,8-21-2022,9-44-20,4,depth_duration_stimuli/000943_2014-06-09_19-31-07_260595134347_rgbf000128-resize_1/000943_2014-06-09_19-31-07_260595134347_rgbf000128-resize_1-target.png,125,1.9765,77,4238,125,meters,jsons/VE125_randls_0.json,1139518,2527827,25,Man
4,254234,DepthScenes,duration_manipulation_targetAtFixation,jsons/VE125_randls_0.json,http://54.235.29.9/FacialAge/BNav_EC2/DepthDuration/v2_depth_duration_MTurk/v2_DepthDuration_HTML.html#64,64,1366,625,1366,768,8-21-2022,9-44-20,5,depth_duration_stimuli/002964_2014-06-08_17-46-11_094959634447_rgbf000091-resize_4/002964_2014-06-08_17-46-11_094959634447_rgbf000091-resize_4-target.png,125,1.6909999999999998,80,5197,126,meters,jsons/VE125_randls_0.json,1139518,2527827,25,Man
5,254234,DepthScenes,duration_manipulation_targetAtFixation,jsons/VE125_randls_0.json,http://54.235.29.9/FacialAge/BNav_EC2/DepthDuration/v2_depth_duration_MTurk/v2_DepthDuration_HTML.html#64,64,1366,625,1366,768,8-21-2022,9-44-20,6,depth_duration_stimuli/002136_2014-06-25_21-18-03_260595134347_rgbf000109-resize_3/002136_2014-06-25_21-18-03_260595134347_rgbf000109-resize_3-target.png,125,1.9569999999999999,85,4489,125,meters,jsons/VE125_randls_0.json,1139518,2527827,25,Man
6,254234,DepthScenes,duration_manipulation_targetAtFixation,jsons/VE125_randls_0.json,http://54.235.29.9/FacialAge/BNav_EC2/DepthDuration/v2_depth_duration_MTurk/v2_DepthDuration_HTML.html#64,64,1366,625,1366,768,8-21-2022,9-44-20,7,depth_duration_stimuli/000917_2014-06-09_22-45-29_260595134347_rgbf000149-resize_3/000917_2014-06-09_22-45-29_260595134347_rgbf000149-resize_3-target.png,125,4.1865,77,40754,125,meters,jsons/VE125_randls_0.json,1139518,2527827,25,Man
7,254234,DepthScenes,duration_manipulation_targetAtFixation,jsons/VE125_randls_0.json,http://54.235.29.9/FacialAge/BNav_EC2/DepthDuration/v2_depth_duration_MTurk/v2_DepthDuration_HTML.html#64,64,1366,625,1366,768,8-21-2022,9-44-20,8,depth_duration_stimuli/002323_2014-06-28_20-01-54_260595134347_rgbf000051-resize_4/002323_2014-06-28_20-01-54_260595134347_rgbf000051-resize_4-target.png,125,3.7310000000000003,70,4068,125,meters,jsons/VE125_randls_0.json,1139518,2527827,25,Man
8,254234,DepthScenes,duration_manipulation_targetAtFixation,jsons/VE125_randls_0.json,http://54.235.29.9/FacialAge/BNav_EC2/DepthDuration/v2_depth_duration_MTurk/v2_DepthDuration_HTML.html#64,64,1366,625,1366,768,8-21-2022,9-44-20,9,depth_duration_stimuli/002570_2014-06-24_13-59-54_094959634447_rgbf000059-resize_0/002570_2014-06-24_13-59-54_094959634447_rgbf000059-resize_0-target.png,125,4.037,77,3914,126,meters,jsons/VE125_randls_0.json,1139518,2527827,25,Man
9,254234,DepthScenes,duration_manipulation_targetAtFixation,jsons/VE125_randls_0.json,http://54.235.29.9/FacialAge/BNav_EC2/DepthDuration/v2_depth_duration_MTurk/v2_DepthDuration_HTML.html#64,64,1366,625,1366,768,8-21-2022,9-44-20,10,depth_duration_stimuli/002467_2014-06-28_20-38-07_260595134347_rgbf000026-resize_2/002467_2014-06-28_20-38-07_260595134347_rgbf000026-resize_2-target.png,125,4.742,68,5052,126,meters,jsons/VE125_randls_0.json,1139518,2527827,25,Man
10,254234,DepthScenes,duration_manipulation_targetAtFixation,jsons/VE125_randls_0.json,http://54.235.29.9/FacialAge/BNav_EC2/DepthDuration/v2_depth_duration_MTurk/v2_DepthDuration_HTML.html#64,64,1366,625,1366,768,8-21-2022,9-44-20,11,depth_duration_stimuli/001449_2014-06-19_17-01-27_260595134347_rgbf000116-resize_2/001449_2014-06-19_17-01-27_260595134347_rgbf000116-resize_2-target.png,125,3.452,77,3482,124,meters,jsons/VE125_randls_0.json,1139518,2527827,25,Man
11,254234,DepthScenes,duration_manipulation_targetAtFixation,jsons/VE125_randls_0.json,http://54.235.29.9/FacialAge/BNav_EC2/DepthDuration/v2_depth_duration_MTurk/v2_DepthDuration_HTML.html#64,64,1366,625,1366,768,8-21-2022,9-44-20,12,depth_duration_stimuli/001450_2014-06-19_17-02-03_260595134347_rgbf000203-resize_4/001450_2014-06-19_17-02-03_260595134347_rgbf000203-resize_4-target.png,125,4.0106666666667,77,3378,124,meters,jsons/VE125_randls_0.json,1139518,2527827,25,Man
12,254234,DepthScenes,duration_manipulation_targetAtFixation,jsons/VE125_randls_0.json,http://54.235.29.9/FacialAge/BNav_EC2/DepthDuration/v2_depth_duration_MTurk/v2_DepthDuration_HTML.html#64,64,1366,625,1366,768,8-21-2022,9-44-20,13,depth_duration_stimuli/000569_2014-06-09_22-51-47_260595134347_rgbf000141-resize_3/000569_2014-06-09_22-51-47_260595134347_rgbf000141-resize-original.jpg,125,4.512,80,3467,125,meters,jsons/VE125_randls_0.json,1139518,2527827,25,Man
13,254234,DepthScenes,duration_manipulation_targetAtFixation,jsons/VE125_randls_0.json,http://54.235.29.9/FacialAge/BNav_EC2/DepthDuration/v2_depth_duration_MTurk/v2_DepthDuration_HTML.html#64,64,1366,625,1366,768,8-21-2022,9-44-20,14,depth_duration_stimuli/000736_2014-06-08_18-24-15_260595134347_rgbf000206-resize_3/000736_2014-06-08_18-24-15_260595134347_rgbf000206-resize_3-target.png,125,3.515,90,3355,126,meters,jsons/VE125_randls_0.json,1139518,2527827,25,Man
14,254234,DepthScenes,duration_manipulation_targetAtFixation,jsons/VE125_randls_0.json,http://54.235.29.9/FacialAge/BNav_EC2/DepthDuration/v2_depth_duration_MTurk/v2_DepthDuration_HTML.html#64,64,1366,625,1366,768,8-21-2022,9-44-20,15,depth_duration_stimuli/000137_2014-05-20_17-04-49_260595134347_rgbf000120-resize_1/000137_2014-05-20_17-04-49_260595134347_rgbf000120-resize_1-target.png,125,3.786,77,3851,126,meters,jsons/VE125_randls_0.json,1139518,2527827,25,Man
15,254234,DepthScenes,duration_manipulation_targetAtFixation,jsons/VE125_randls_0.json,http://54.235.29.9/FacialAge/BNav_EC2/DepthDuration/v2_depth_duration_MTurk/v2_DepthDuration_HTML.html#64,64,1366,625,1366,768,8-21-2022,9-44-20,16,depth_duration_stimuli/002509_2014-06-24_13-19-22_094959634447_rgbf000077-resize_0/002509_2014-06-24_13-19-22_094959634447_rgbf000077-resize_0-target.png,125,1.3065,77,4556,124,meters,jsons/VE125_randls_0.json,1139518,2527827,25,Man
16,254234,DepthScenes,duration_manipulation_targetAtFixation,jsons/VE125_randls_0.json,http://54.235.29.9/FacialAge/BNav_EC2/DepthDuration/v2_depth_duration_MTurk/v2_DepthDuration_HTML.html#64,64,1366,625,1366,768,8-21-2022,9-44-20,17,depth_duration_stimuli/003338_2014-05-20_11-01-23_094959634447_rgbf000051-resize_6/003338_2014-05-20_11-01-23_094959634447_rgbf000051-resize_6-target.png,125,1.693,72,4169,126,meters,jsons/VE125_randls_0.json,1139518,2527827,25,Man
17,254234,DepthScenes,duration_manipulation_targetAtFixation,jsons/VE125_randls_0.json,http://54.235.29.9/FacialAge/BNav_EC2/DepthDuration/v2_depth_duration_MTurk/v2_DepthDuration_HTML.html#64,64,1366,625,1366,768,8-21-2022,9-44-20,18,depth_duration_stimuli/000810_2014-06-08_17-20-01_260595134347_rgbf000105-resize_0/000810_2014-06-08_17-20-01_260595134347_rgbf000105-resize_0-target.png,125,1.4865,80,4387,124,meters,jsons/VE125_randls_0.json,1139518,2527827,25,Man
18,254234,DepthScenes,duration_manipulation_targetAtFixation,jsons/VE125_randls_0.json,http://54.235.29.9/FacialAge/BNav_EC2/DepthDuration/v2_depth_duration_MTurk/v2_DepthDuration_HTML.html#64,64,1366,625,1366,768,8-21-2022,9-44-20,19,depth_duration_stimuli/001214_2014-06-17_16-13-55_260595134347_rgbf000111-resize_0/001214_2014-06-17_16-13-55_260595134347_rgbf000111-resize_0-target.png,125,2.6505,77,37378,124,meters,jsons/VE125_randls_0.json,1139518,2527827,25,Man
19,254234,DepthScenes,duration_manipulation_targetAtFixation,jsons/VE125_randls_0.json,http://54.235.29.9/FacialAge/BNav_EC2/DepthDuration/v2_depth_duration_MTurk/v2_DepthDuration_HTML.html#64,64,1366,625,1366,768,8-21-2022,9-44-20,20,depth_duration_stimuli/000486_2014-06-09_20-47-20_260595134347_rgbf000143-resize_2/000486_2014-06-09_20-47-20_260595134347_rgbf000143-resize_2-target.png,125,4.8325,70,3507,126,meters,jsons/VE125_randls_0.json,1139518,2527827,25,Man
20,254234,DepthScenes,duration_manipulation_targetAtFixation,jsons/VE125_randls_0.json,http://54.235.29.9/FacialAge/BNav_EC2/DepthDuration/v2_depth_duration_MTurk/v2_DepthDuration_HTML.html#64,64,1366,625,1366,768,8-21-2022,9-44-20,21,depth_duration_stimuli/003083_2014-06-15_15-21-03_094959634447_rgbf000063-resize_1/003083_2014-06-15_15-21-03_094959634447_rgbf000063-resize_1-target.png,125,4.1405,70,3547,125,meters,jsons/VE125_randls_0.json,1139518,2527827,25,Man
21,254234,DepthScenes,duration_manipulation_targetAtFixation,jsons/VE125_randls_0.json,http://54.235.29.9/FacialAge/BNav_EC2/DepthDuration/v2_depth_duration_MTurk/v2_DepthDuration_HTML.html#64,64,1366,625,1366,768,8-21-2022,9-44-20,22,depth_duration_stimuli/002788_2014-06-22_19-36-03_094959634447_rgbf000088-resize_2/002788_2014-06-22_19-36-03_094959634447_rgbf000088-resize_2-target.png,125,1.6465,77,17762,125,meters,jsons/VE125_randls_0.json,1139518,2527827,25,Man
22,254234,DepthScenes,duration_manipulation_targetAtFixation,jsons/VE125_randls_0.json,http://54.235.29.9/FacialAge/BNav_EC2/DepthDuration/v2_depth_duration_MTurk/v2_DepthDuration_HTML.html#64,64,1366,625,1366,768,8-21-2022,9-44-20,23,depth_duration_stimuli/000749_2014-06-08_21-55-06_260595134347_rgbf000070-resize_2/000749_2014-06-08_21-55-06_260595134347_rgbf000070-resize_2-target.png,125,2.331,72,4523,126,meters,jsons/VE125_randls_0.json,1139518,2527827,25,Man
23,254234,DepthScenes,duration_manipulation_targetAtFixation,jsons/VE125_randls_0.json,http://54.235.29.9/FacialAge/BNav_EC2/DepthDuration/v2_depth_duration_MTurk/v2_DepthDuration_HTML.html#64,64,1366,625,1366,768,8-21-2022,9-44-20,24,depth_duration_stimuli/002763_2014-06-22_19-13-10_094959634447_rgbf000075-resize_4/002763_2014-06-22_19-13-10_094959634447_rgbf000075-resize_4-target.png,125,1.68375,66,3611,125,meters,jsons/VE125_randls_0.json,1139518,2527827,25,Man
24,254234,DepthScenes,duration_manipulation_targetAtFixation,jsons/VE125_randls_0.json,http://54.235.29.9/FacialAge/BNav_EC2/DepthDuration/v2_depth_duration_MTurk/v2_DepthDuration_HTML.html#64,64,1366,625,1366,768,8-21-2022,9-44-20,25,depth_duration_stimuli/002209_2014-06-28_18-36-10_260595134347_rgbf000051-resize_1/002209_2014-06-28_18-36-10_260595134347_rgbf000051-resize_1-target.png,125,2.057,70,3955,124,meters,jsons/VE125_randls_0.json,1139518,2527827,25,Man
25,254234,DepthScenes,duration_manipulation_targetAtFixation,jsons/VE125_randls_0.json,http://54.235.29.9/FacialAge/BNav_EC2/DepthDuration/v2_depth_duration_MTurk/v2_DepthDuration_HTML.html#64,64,1366,625,1366,768,8-21-2022,9-44-20,26,depth_duration_stimuli/001029_2014-06-08_13-17-57_260595134347_rgbf000065-resize_1/001029_2014-06-08_13-17-57_260595134347_rgbf000065-resize_1-target.png,125,3.0835,50,3627,124,meters,jsons/VE125_randls_0.json,1139518,2527827,25,Man
26,254234,DepthScenes,duration_manipulation_targetAtFixation,jsons/VE125_randls_0.json,http://54.235.29.9/FacialAge/BNav_EC2/DepthDuration/v2_depth_duration_MTurk/v2_DepthDuration_HTML.html#64,64,1366,625,1366,768,8-21-2022,9-44-20,27,depth_duration_stimuli/000677_2014-06-08_23-10-32_260595134347_rgbf000158-resize_6/000677_2014-06-08_23-10-32_260595134347_rgbf000158-resize_6-target.png,125,3.556,77,3284,125,meters,jsons/VE125_randls_0.json,1139518,2527827,25,Man
27,254234,DepthScenes,duration_manipulation_targetAtFixation,jsons/VE125_randls_0.json,http://54.235.29.9/FacialAge/BNav_EC2/DepthDuration/v2_depth_duration_MTurk/v2_DepthDuration_HTML.html#64,64,1366,625,1366,768,8-21-2022,9-44-20,28,depth_duration_stimuli/002663_2014-06-13_15-50-26_094959634447_rgbf000075-resize_1/002663_2014-06-13_15-50-26_094959634447_rgbf000075-resize_1-target.png,125,4.7495,90,3874,123,meters,jsons/VE125_randls_0.json,1139518,2527827,25,Man
28,254234,DepthScenes,duration_manipulation_targetAtFixation,jsons/VE125_randls_0.json,http://54.235.29.9/FacialAge/BNav_EC2/DepthDuration/v2_depth_duration_MTurk/v2_DepthDuration_HTML.html#64,64,1366,625,1366,768,8-21-2022,9-44-20,29,depth_duration_stimuli/000409_2014-06-04_19-23-33_260595134347_rgbf000067-resize_0/000409_2014-06-04_19-23-33_260595134347_rgbf000067-resize_0-target.png,125,3.7335,77,4139,126,meters,jsons/VE125_randls_0.json,1139518,2527827,25,Man
29,254234,DepthScenes,duration_manipulation_targetAtFixation,jsons/VE125_randls_0.json,http://54.235.29.9/FacialAge/BNav_EC2/DepthDuration/v2_depth_duration_MTurk/v2_DepthDuration_HTML.html#64,64,1366,625,1366,768,8-21-2022,9-44-20,30,depth_duration_stimuli/000375_2014-06-08_11-17-29_260595134347_rgbf000133-resize_2/000375_2014-06-08_11-17-29_260595134347_rgbf000133-resize-original.jpg,125,4.718,82,4315,126,meters,jsons/VE125_randls_0.json,1139518,2527827,25,Man
30,254234,DepthScenes,duration_manipulation_targetAtFixation,jsons/VE125_randls_0.json,http://54.235.29.9/FacialAge/BNav_EC2/DepthDuration/v2_depth_duration_MTurk/v2_DepthDuration_HTML.html#64,64,1366,625,1366,768,8-21-2022,9-44-20,31,depth_duration_stimuli/001806_2014-06-26_20-50-20_260595134347_rgbf000091-resize_1/001806_2014-06-26_20-50-20_260595134347_rgbf000091-resize_1-target.png,125,2.7305,72,4579,125,meters,jsons/VE125_randls_0.json,1139518,2527827,25,Man
31,254234,DepthScenes,duration_manipulation_targetAtFixation,jsons/VE125_randls_0.json,http://54.235.29.9/FacialAge/BNav_EC2/DepthDuration/v2_depth_duration_MTurk/v2_DepthDuration_HTML.html#64,64,1366,625,1366,768,8-21-2022,9-44-20,32,depth_duration_stimuli/001617_2014-06-20_11-35-32_260595134347_rgbf000066-resize_1/001617_2014-06-20_11-35-32_260595134347_rgbf000066-resize_1-target.png,125,3.7910000000000004,72,3476,125,meters,jsons/VE125_randls_0.json,1139518,2527827,25,Man
32,254234,DepthScenes,duration_manipulation_targetAtFixation,jsons/VE125_randls_0.json,http://54.235.29.9/FacialAge/BNav_EC2/DepthDuration/v2_depth_duration_MTurk/v2_DepthDuration_HTML.html#64,64,1366,625,1366,768,8-21-2022,9-44-20,33,depth_duration_stimuli/002272_2014-06-28_18-53-56_260595134347_rgbf000067-resize_2/002272_2014-06-28_18-53-56_260595134347_rgbf000067-resize_2-target.png,125,1.138,72,3721,124,meters,jsons/VE125_randls_0.json,1139518,2527827,25,Man
33,254234,DepthScenes,duration_manipulation_targetAtFixation,jsons/VE125_randls_0.json,http://54.235.29.9/FacialAge/BNav_EC2/DepthDuration/v2_depth_duration_MTurk/v2_DepthDuration_HTML.html#64,64,1366,625,1366,768,8-21-2022,9-44-20,34,depth_duration_stimuli/001571_2014-06-20_17-21-32_260595134347_rgbf000089-resize_1/001571_2014-06-20_17-21-32_260595134347_rgbf000089-resize_1-target.png,125,1.86,44,41229,126,meters,jsons/VE125_randls_0.json,1139518,2527827,25,Man
34,254234,DepthScenes,duration_manipulation_targetAtFixation,jsons/VE125_randls_0.json,http://54.235.29.9/FacialAge/BNav_EC2/DepthDuration/v2_depth_duration_MTurk/v2_DepthDuration_HTML.html#64,64,1366,625,1366,768,8-21-2022,9-44-20,35,depth_duration_stimuli/001056_2014-06-08_18-46-44_260595134347_rgbf000068-resize_0/001056_2014-06-08_18-46-44_260595134347_rgbf000068-resize_0-target.png,125,2.6625,77,3233,123,meters,jsons/VE125_randls_0.json,1139518,2527827,25,Man
35,254234,DepthScenes,duration_manipulation_targetAtFixation,jsons/VE125_randls_0.json,http://54.235.29.9/FacialAge/BNav_EC2/DepthDuration/v2_depth_duration_MTurk/v2_DepthDuration_HTML.html#64,64,1366,625,1366,768,8-21-2022,9-44-20,36,depth_duration_stimuli/002199_2014-06-28_18-33-56_260595134347_rgbf000074-resize_0/002199_2014-06-28_18-33-56_260595134347_rgbf000074-resize_0-target.png,125,1.996,90,3427,125,meters,jsons/VE125_randls_0.json,1139518,2527827,25,Man
36,254234,DepthScenes,duration_manipulation_targetAtFixation,jsons/VE125_randls_0.json,http://54.235.29.9/FacialAge/BNav_EC2/DepthDuration/v2_depth_duration_MTurk/v2_DepthDuration_HTML.html#64,64,1366,625,1366,768,8-21-2022,9-44-20,37,depth_duration_stimuli/000682_2014-06-08_23-14-58_260595134347_rgbf000041-resize_5/000682_2014-06-08_23-14-58_260595134347_rgbf000041-resize_5-target.png,125,2.7239999999999998,50,3682,124,meters,jsons/VE125_randls_0.json,1139518,2527827,25,Man
37,254234,DepthScenes,duration_manipulation_targetAtFixation,jsons/VE125_randls_0.json,http://54.235.29.9/FacialAge/BNav_EC2/DepthDuration/v2_depth_duration_MTurk/v2_DepthDuration_HTML.html#64,64,1366,625,1366,768,8-21-2022,9-44-20,38,depth_duration_stimuli/001650_2014-06-20_12-09-00_260595134347_rgbf000087-resize_3/001650_2014-06-20_12-09-00_260595134347_rgbf000087-resize_3-target.png,125,1.9505,80,3827,125,meters,jsons/VE125_randls_0.json,1139518,2527827,25,Man
38,254234,DepthScenes,duration_manipulation_targetAtFixation,jsons/VE125_randls_0.json,http://54.235.29.9/FacialAge/BNav_EC2/DepthDuration/v2_depth_duration_MTurk/v2_DepthDuration_HTML.html#64,64,1366,625,1366,768,8-21-2022,9-44-20,39,depth_duration_stimuli/000878_2014-06-08_22-52-45_260595134347_rgbf000045-resize_2/000878_2014-06-08_22-52-45_260595134347_rgbf000045-resize_2-target.png,125,2.092,80,4147,125,meters,jsons/VE125_randls_0.json,1139518,2527827,25,Man
39,254234,DepthScenes,duration_manipulation_targetAtFixation,jsons/VE125_randls_0.json,http://54.235.29.9/FacialAge/BNav_EC2/DepthDuration/v2_depth_duration_MTurk/v2_DepthDuration_HTML.html#64,64,1366,625,1366,768,8-21-2022,9-44-20,40,depth_duration_stimuli/002953_2014-06-08_17-32-18_094959634447_rgbf000059-resize_5/002953_2014-06-08_17-32-18_094959634447_rgbf000059-resize_5-target.png,125,1.551,88,74979,126,meters,jsons/VE125_randls_0.json,1139518,2527827,25,Man
40,254234,DepthScenes,duration_manipulation_targetAtFixation,jsons/VE125_randls_0.json,http://54.235.29.9/FacialAge/BNav_EC2/DepthDuration/v2_depth_duration_MTurk/v2_DepthDuration_HTML.html#64,64,1366,625,1366,768,8-21-2022,9-44-20,41,depth_duration_stimuli/001417_2014-06-19_16-25-36_260595134347_rgbf000115-resize_5/001417_2014-06-19_16-25-36_260595134347_rgbf000115-resize_5-target.png,125,4.6255,77,3651,124,meters,jsons/VE125_randls_0.json,1139518,2527827,25,Man
41,254234,DepthScenes,duration_manipulation_targetAtFixation,jsons/VE125_randls_0.json,http://54.235.29.9/FacialAge/BNav_EC2/DepthDuration/v2_depth_duration_MTurk/v2_DepthDuration_HTML.html#64,64,1366,625,1366,768,8-21-2022,9-44-20,42,depth_duration_stimuli/003081_2014-06-15_15-19-16_094959634447_rgbf000150-resize_1/003081_2014-06-15_15-19-16_094959634447_rgbf000150-resize_1-target.png,125,3.9125,60,5265,124,meters,jsons/VE125_randls_0.json,1139518,2527827,25,Man
42,254234,DepthScenes,duration_manipulation_targetAtFixation,jsons/VE125_randls_0.json,http://54.235.29.9/FacialAge/BNav_EC2/DepthDuration/v2_depth_duration_MTurk/v2_DepthDuration_HTML.html#64,64,1366,625,1366,768,8-21-2022,9-44-20,43,depth_duration_stimuli/001167_2014-06-17_15-38-07_260595134347_rgbf000108-resize_0/001167_2014-06-17_15-38-07_260595134347_rgbf000108-resize_0-target.png,125,1.8505,80,3906,123,meters,jsons/VE125_randls_0.json,1139518,2527827,25,Man
43,254234,DepthScenes,duration_manipulation_targetAtFixation,jsons/VE125_randls_0.json,http://54.235.29.9/FacialAge/BNav_EC2/DepthDuration/v2_depth_duration_MTurk/v2_DepthDuration_HTML.html#64,64,1366,625,1366,768,8-21-2022,9-44-20,44,depth_duration_stimuli/003587_2014-05-23_16-48-02_094959634447_rgbf002384-resize_2/003587_2014-05-23_16-48-02_094959634447_rgbf002384-resize_2-target.png,125,1.357,30,3860,127,meters,jsons/VE125_randls_0.json,1139518,2527827,25,Man
44,254234,DepthScenes,duration_manipulation_targetAtFixation,jsons/VE125_randls_0.json,http://54.235.29.9/FacialAge/BNav_EC2/DepthDuration/v2_depth_duration_MTurk/v2_DepthDuration_HTML.html#64,64,1366,625,1366,768,8-21-2022,9-44-20,45,depth_duration_stimuli/000787_2014-06-08_22-33-53_260595134347_rgbf000175-resize_1/000787_2014-06-08_22-33-53_260595134347_rgbf000175-resize-original.jpg,125,4.784,60,4112,125,meters,jsons/VE125_randls_0.json,1139518,2527827,25,Man
45,254234,DepthScenes,duration_manipulation_targetAtFixation,jsons/VE125_randls_0.json,http://54.235.29.9/FacialAge/BNav_EC2/DepthDuration/v2_depth_duration_MTurk/v2_DepthDuration_HTML.html#64,64,1366,625,1366,768,8-21-2022,9-44-20,46,depth_duration_stimuli/002375_2014-06-28_20-13-44_260595134347_rgbf000032-resize_1/002375_2014-06-28_20-13-44_260595134347_rgbf000032-resize_1-target.png,125,4.0175,70,4131,125,meters,jsons/VE125_randls_0.json,1139518,2527827,25,Man
46,254234,DepthScenes,duration_manipulation_targetAtFixation,jsons/VE125_randls_0.json,http://54.235.29.9/FacialAge/BNav_EC2/DepthDuration/v2_depth_duration_MTurk/v2_DepthDuration_HTML.html#64,64,1366,625,1366,768,8-21-2022,9-44-20,47,depth_duration_stimuli/002657_2014-06-13_15-29-54_094959634447_rgbf000150-resize_1/002657_2014-06-13_15-29-54_094959634447_rgbf000150-resize_1-target.png,125,4.919,90,4259,127,meters,jsons/VE125_randls_0.json,1139518,2527827,25,Man
47,254234,DepthScenes,duration_manipulation_targetAtFixation,jsons/VE125_randls_0.json,http://54.235.29.9/FacialAge/BNav_EC2/DepthDuration/v2_depth_duration_MTurk/v2_DepthDuration_HTML.html#64,64,1366,625,1366,768,8-21-2022,9-44-20,48,depth_duration_stimuli/000009_2014-05-26_14-32-05_260595134347_rgbf000034-resize_3/000009_2014-05-26_14-32-05_260595134347_rgbf000034-resize_3-target.png,125,3.8715,80,3731,125,meters,jsons/VE125_randls_0.json,1139518,2527827,25,Man
48,254234,DepthScenes,duration_manipulation_targetAtFixation,jsons/VE125_randls_0.json,http://54.235.29.9/FacialAge/BNav_EC2/DepthDuration/v2_depth_duration_MTurk/v2_DepthDuration_HTML.html#64,64,1366,625,1366,768,8-21-2022,9-44-20,49,depth_duration_stimuli/001828_2014-06-26_21-40-03_260595134347_rgbf000024-resize_0/001828_2014-06-26_21-40-03_260595134347_rgbf000024-resize_0-target.png,125,4.8260000000000005,90,3659,126,meters,jsons/VE125_randls_0.json,1139518,2527827,25,Man
49,254234,DepthScenes,duration_manipulation_targetAtFixation,jsons/VE125_randls_0.json,http://54.235.29.9/FacialAge/BNav_EC2/DepthDuration/v2_depth_duration_MTurk/v2_DepthDuration_HTML.html#64,64,1366,625,1366,768,8-21-2022,9-44-20,50,depth_duration_stimuli/000368_2014-06-09_15-53-01_260595134347_rgbf000155-resize_2/000368_2014-06-09_15-53-01_260595134347_rgbf000155-resize_2-target.png,125,2.4859999999999998,50,4140,125,meters,jsons/VE125_randls_0.json,1139518,2527827,25,Man
50,254234,DepthScenes,duration_manipulation_targetAtFixation,jsons/VE125_randls_0.json,http://54.235.29.9/FacialAge/BNav_EC2/DepthDuration/v2_depth_duration_MTurk/v2_DepthDuration_HTML.html#64,64,1366,625,1366,768,8-21-2022,9-44-20,51,depth_duration_stimuli/002678_2014-06-13_16-15-32_094959634447_rgbf000151-resize_6/002678_2014-06-13_16-15-32_094959634447_rgbf000151-resize_6-target.png,125,2.1830000000000003,77,27525,126,meters,jsons/VE125_randls_0.json,1139518,2527827,25,Man
51,254234,DepthScenes,duration_manipulation_targetAtFixation,jsons/VE125_randls_0.json,http://54.235.29.9/FacialAge/BNav_EC2/DepthDuration/v2_depth_duration_MTurk/v2_DepthDuration_HTML.html#64,64,1366,625,1366,768,8-21-2022,9-44-20,52,depth_duration_stimuli/002630_2014-06-24_14-47-50_094959634447_rgbf000055-resize_1/002630_2014-06-24_14-47-50_094959634447_rgbf000055-resize_1-target.png,125,3.0095,99,7409,125,meters,jsons/VE125_randls_0.json,1139518,2527827,25,Man
52,254234,DepthScenes,duration_manipulation_targetAtFixation,jsons/VE125_randls_0.json,http://54.235.29.9/FacialAge/BNav_EC2/DepthDuration/v2_depth_duration_MTurk/v2_DepthDuration_HTML.html#64,64,1366,625,1366,768,8-21-2022,9-44-20,53,depth_duration_stimuli/002758_2014-06-22_19-11-20_094959634447_rgbf000128-resize_1/002758_2014-06-22_19-11-20_094959634447_rgbf000128-resize_1-target.png,125,2.555,80,4315,125,meters,jsons/VE125_randls_0.json,1139518,2527827,25,Man
53,254234,DepthScenes,duration_manipulation_targetAtFixation,jsons/VE125_randls_0.json,http://54.235.29.9/FacialAge/BNav_EC2/DepthDuration/v2_depth_duration_MTurk/v2_DepthDuration_HTML.html#64,64,1366,625,1366,768,8-21-2022,9-44-20,54,depth_duration_stimuli/002748_2014-06-22_19-07-22_094959634447_rgbf000078-resize_1/002748_2014-06-22_19-07-22_094959634447_rgbf000078-resize_1-target.png,125,4.6705,30,3795,126,meters,jsons/VE125_randls_0.json,1139518,2527827,25,Man
54,254234,DepthScenes,duration_manipulation_targetAtFixation,jsons/VE125_randls_0.json,http://54.235.29.9/FacialAge/BNav_EC2/DepthDuration/v2_depth_duration_MTurk/v2_DepthDuration_HTML.html#64,64,1366,625,1366,768,8-21-2022,9-44-20,55,depth_duration_stimuli/002995_2014-06-15_12-31-26_094959634447_rgbf000150-resize_1/002995_2014-06-15_12-31-26_094959634447_rgbf000150-resize_1-target.png,125,3.8360000000000003,60,3396,125,meters,jsons/VE125_randls_0.json,1139518,2527827,25,Man
55,254234,DepthScenes,duration_manipulation_targetAtFixation,jsons/VE125_randls_0.json,http://54.235.29.9/FacialAge/BNav_EC2/DepthDuration/v2_depth_duration_MTurk/v2_DepthDuration_HTML.html#64,64,1366,625,1366,768,8-21-2022,9-44-20,56,depth_duration_stimuli/001808_2014-06-26_20-50-58_260595134347_rgbf000029-resize_1/001808_2014-06-26_20-50-58_260595134347_rgbf000029-resize_1-target.png,125,4.249,80,3787,125,meters,jsons/VE125_randls_0.json,1139518,2527827,25,Man
56,254234,DepthScenes,duration_manipulation_targetAtFixation,jsons/VE125_randls_0.json,http://54.235.29.9/FacialAge/BNav_EC2/DepthDuration/v2_depth_duration_MTurk/v2_DepthDuration_HTML.html#64,64,1366,625,1366,768,8-21-2022,9-44-20,57,depth_duration_stimuli/001815_2014-06-26_20-52-55_260595134347_rgbf000020-resize_0/001815_2014-06-26_20-52-55_260595134347_rgbf000020-resize_0-target.png,125,3.3865,90,3427,125,meters,jsons/VE125_randls_0.json,1139518,2527827,25,Man
57,254234,DepthScenes,duration_manipulation_targetAtFixation,jsons/VE125_randls_0.json,http://54.235.29.9/FacialAge/BNav_EC2/DepthDuration/v2_depth_duration_MTurk/v2_DepthDuration_HTML.html#64,64,1366,625,1366,768,8-21-2022,9-44-20,58,depth_duration_stimuli/001164_2014-06-17_15-35-46_260595134347_rgbf000085-resize_3/001164_2014-06-17_15-35-46_260595134347_rgbf000085-resize_3-target.png,125,2.354,90,3443,125,meters,jsons/VE125_randls_0.json,1139518,2527827,25,Man
58,254234,DepthScenes,duration_manipulation_targetAtFixation,jsons/VE125_randls_0.json,http://54.235.29.9/FacialAge/BNav_EC2/DepthDuration/v2_depth_duration_MTurk/v2_DepthDuration_HTML.html#64,64,1366,625,1366,768,8-21-2022,9-44-20,59,depth_duration_stimuli/001136_2014-06-17_15-19-41_260595134347_rgbf000076-resize_3/001136_2014-06-17_15-19-41_260595134347_rgbf000076-resize_3-target.png,125,1.8655,77,36979,125,meters,jsons/VE125_randls_0.json,1139518,2527827,25,Man
59,254234,DepthScenes,duration_manipulation_targetAtFixation,jsons/VE125_randls_0.json,http://54.235.29.9/FacialAge/BNav_EC2/DepthDuration/v2_depth_duration_MTurk/v2_DepthDuration_HTML.html#64,64,1366,625,1366,768,8-21-2022,9-44-20,60,depth_duration_stimuli/000506_2014-06-08_23-21-00_260595134347_rgbf000070-resize_7/000506_2014-06-08_23-21-00_260595134347_rgbf000070-resize_7-target.png,125,4.0585,90,4489,123,meters,jsons/VE125_randls_0.json,1139518,2527827,25,Man
60,254234,DepthScenes,duration_manipulation_targetAtFixation,jsons/VE125_randls_0.json,http://54.235.29.9/FacialAge/BNav_EC2/DepthDuration/v2_depth_duration_MTurk/v2_DepthDuration_HTML.html#64,64,1366,625,1366,768,8-21-2022,9-44-20,61,depth_duration_stimuli/003079_2014-06-15_15-18-20_094959634447_rgbf000152-resize_8/003079_2014-06-15_15-18-20_094959634447_rgbf000152-resize_8-target.png,125,2.8775,150,3873,125,meters,jsons/VE125_randls_0.json,1139518,2527827,25,Man
61,254234,DepthScenes,duration_manipulation_targetAtFixation,jsons/VE125_randls_0.json,http://54.235.29.9/FacialAge/BNav_EC2/DepthDuration/v2_depth_duration_MTurk/v2_DepthDuration_HTML.html#64,64,1366,625,1366,768,8-21-2022,9-44-20,62,depth_duration_stimuli/000739_2014-06-08_18-45-58_260595134347_rgbf000068-resize_1/000739_2014-06-08_18-45-58_260595134347_rgbf000068-resize_1-target.png,125,3.534,80,4625,123,meters,jsons/VE125_randls_0.json,1139518,2527827,25,Man
62,254234,DepthScenes,duration_manipulation_targetAtFixation,jsons/VE125_randls_0.json,http://54.235.29.9/FacialAge/BNav_EC2/DepthDuration/v2_depth_duration_MTurk/v2_DepthDuration_HTML.html#64,64,1366,625,1366,768,8-21-2022,9-44-20,63,depth_duration_stimuli/000734_2014-06-08_17-39-11_260595134347_rgbf000128-resize_2/000734_2014-06-08_17-39-11_260595134347_rgbf000128-resize_2-target.png,125,4.098,90,3891,126,meters,jsons/VE125_randls_0.json,1139518,2527827,25,Man
63,254234,DepthScenes,duration_manipulation_targetAtFixation,jsons/VE125_randls_0.json,http://54.235.29.9/FacialAge/BNav_EC2/DepthDuration/v2_depth_duration_MTurk/v2_DepthDuration_HTML.html#64,64,1366,625,1366,768,8-21-2022,9-44-20,64,depth_duration_stimuli/001555_2014-06-20_17-12-10_260595134347_rgbf000065-resize_4/001555_2014-06-20_17-12-10_260595134347_rgbf000065-resize_4-target.png,125,1.633,80,3540,125,meters,jsons/VE125_randls_0.json,1139518,2527827,25,Man
64,254234,DepthScenes,duration_manipulation_targetAtFixation,jsons/VE125_randls_0.json,http://54.235.29.9/FacialAge/BNav_EC2/DepthDuration/v2_depth_duration_MTurk/v2_DepthDuration_HTML.html#64,64,1366,625,1366,768,8-21-2022,9-44-20,65,depth_duration_stimuli/000103_2014-05-14_22-01-17_260595134347_rgbf000152-resize_5/000103_2014-05-14_22-01-17_260595134347_rgbf000152-resize_5-target.png,125,1.993,90,57300,125,meters,jsons/VE125_randls_0.json,1139518,2527827,25,Man
65,254234,DepthScenes,duration_manipulation_targetAtFixation,jsons/VE125_randls_0.json,http://54.235.29.9/FacialAge/BNav_EC2/DepthDuration/v2_depth_duration_MTurk/v2_DepthDuration_HTML.html#64,64,1366,625,1366,768,8-21-2022,9-44-20,66,depth_duration_stimuli/001222_2014-06-17_16-24-06_260595134347_rgbf000073-resize_0/001222_2014-06-17_16-24-06_260595134347_rgbf000073-resize-original.jpg,125,1.4385,150,8537,125,meters,jsons/VE125_randls_0.json,1139518,2527827,25,Man
66,254234,DepthScenes,duration_manipulation_targetAtFixation,jsons/VE125_randls_0.json,http://54.235.29.9/FacialAge/BNav_EC2/DepthDuration/v2_depth_duration_MTurk/v2_DepthDuration_HTML.html#64,64,1366,625,1366,768,8-21-2022,9-44-20,67,depth_duration_stimuli/000642_2014-06-08_16-59-25_260595134347_rgbf000098-resize_2/000642_2014-06-08_16-59-25_260595134347_rgbf000098-resize_2-target.png,125,2.8815,50,4249,124,meters,jsons/VE125_randls_0.json,1139518,2527827,25,Man
67,254234,DepthScenes,duration_manipulation_targetAtFixation,jsons/VE125_randls_0.json,http://54.235.29.9/FacialAge/BNav_EC2/DepthDuration/v2_depth_duration_MTurk/v2_DepthDuration_HTML.html#64,64,1366,625,1366,768,8-21-2022,9-44-20,68,depth_duration_stimuli/002425_2014-06-28_20-27-29_260595134347_rgbf000031-resize_8/002425_2014-06-28_20-27-29_260595134347_rgbf000031-resize_8-target.png,125,3.8960000000000004,60,4330,125,meters,jsons/VE125_randls_0.json,1139518,2527827,25,Man
68,254234,DepthScenes,duration_manipulation_targetAtFixation,jsons/VE125_randls_0.json,http://54.235.29.9/FacialAge/BNav_EC2/DepthDuration/v2_depth_duration_MTurk/v2_DepthDuration_HTML.html#64,64,1366,625,1366,768,8-21-2022,9-44-20,69,depth_duration_stimuli/001570_2014-06-20_17-21-09_260595134347_rgbf000135-resize_4/001570_2014-06-20_17-21-09_260595134347_rgbf000135-resize_4-target.png,125,4.467,80,3699,126,meters,jsons/VE125_randls_0.json,1139518,2527827,25,Man
69,254234,DepthScenes,duration_manipulation_targetAtFixation,jsons/VE125_randls_0.json,http://54.235.29.9/FacialAge/BNav_EC2/DepthDuration/v2_depth_duration_MTurk/v2_DepthDuration_HTML.html#64,64,1366,625,1366,768,8-21-2022,9-44-20,70,depth_duration_stimuli/001392_2014-06-19_16-07-59_260595134347_rgbf000046-resize_1/001392_2014-06-19_16-07-59_260595134347_rgbf000046-resize_1-target.png,125,4.135,80,3066,124,meters,jsons/VE125_randls_0.json,1139518,2527827,25,Man
70,254234,DepthScenes,duration_manipulation_targetAtFixation,jsons/VE125_randls_0.json,http://54.235.29.9/FacialAge/BNav_EC2/DepthDuration/v2_depth_duration_MTurk/v2_DepthDuration_HTML.html#64,64,1366,625,1366,768,8-21-2022,9-44-20,71,depth_duration_stimuli/002153_2014-06-25_21-27-18_260595134347_rgbf000038-resize_5/002153_2014-06-25_21-27-18_260595134347_rgbf000038-resize_5-target.png,125,2.505,90,3521,124,meters,jsons/VE125_randls_0.json,1139518,2527827,25,Man
71,254234,DepthScenes,duration_manipulation_targetAtFixation,jsons/VE125_randls_0.json,http://54.235.29.9/FacialAge/BNav_EC2/DepthDuration/v2_depth_duration_MTurk/v2_DepthDuration_HTML.html#64,64,1366,625,1366,768,8-21-2022,9-44-20,72,depth_duration_stimuli/002660_2014-06-13_15-44-18_094959634447_rgbf001878-resize_2/002660_2014-06-13_15-44-18_094959634447_rgbf001878-resize_2-target.png,125,3.576,70,3812,125,meters,jsons/VE125_randls_0.json,1139518,2527827,25,Man
72,254234,DepthScenes,duration_manipulation_targetAtFixation,jsons/VE125_randls_0.json,http://54.235.29.9/FacialAge/BNav_EC2/DepthDuration/v2_depth_duration_MTurk/v2_DepthDuration_HTML.html#64,64,1366,625,1366,768,8-21-2022,9-44-20,73,depth_duration_stimuli/000929_2014-06-09_16-33-19_260595134347_rgbf000139-resize_0/000929_2014-06-09_16-33-19_260595134347_rgbf000139-resize_0-target.png,125,2.8680000000000003,80,3569,125,meters,jsons/VE125_randls_0.json,1139518,2527827,25,Man
73,254234,DepthScenes,duration_manipulation_targetAtFixation,jsons/VE125_randls_0.json,http://54.235.29.9/FacialAge/BNav_EC2/DepthDuration/v2_depth_duration_MTurk/v2_DepthDuration_HTML.html#64,64,1366,625,1366,768,8-21-2022,9-44-20,74,depth_duration_stimuli/000457_2014-06-08_16-52-43_260595134347_rgbf000199-resize_1/000457_2014-06-08_16-52-43_260595134347_rgbf000199-resize_1-target.png,125,3.6489999999999996,50,4285,126,meters,jsons/VE125_randls_0.json,1139518,2527827,25,Man
74,254234,DepthScenes,duration_manipulation_targetAtFixation,jsons/VE125_randls_0.json,http://54.235.29.9/FacialAge/BNav_EC2/DepthDuration/v2_depth_duration_MTurk/v2_DepthDuration_HTML.html#64,64,1366,625,1366,768,8-21-2022,9-44-20,75,depth_duration_stimuli/000447_2014-06-08_16-15-46_260595134347_rgbf000130-resize_1/000447_2014-06-08_16-15-46_260595134347_rgbf000130-resize_1-target.png,125,4.479,60,2489,125,meters,jsons/VE125_randls_0.json,1139518,2527827,25,Man
75,254234,DepthScenes,duration_manipulation_targetAtFixation,jsons/VE125_randls_0.json,http://54.235.29.9/FacialAge/BNav_EC2/DepthDuration/v2_depth_duration_MTurk/v2_DepthDuration_HTML.html#64,64,1366,625,1366,768,8-21-2022,9-44-20,76,depth_duration_stimuli/001447_2014-06-19_17-00-32_260595134347_rgbf000082-resize_5/001447_2014-06-19_17-00-32_260595134347_rgbf000082-resize_5-target.png,125,4.13775,90,2610,124,meters,jsons/VE125_randls_0.json,1139518,2527827,25,Man
76,254234,DepthScenes,duration_manipulation_targetAtFixation,jsons/VE125_randls_0.json,http://54.235.29.9/FacialAge/BNav_EC2/DepthDuration/v2_depth_duration_MTurk/v2_DepthDuration_HTML.html#64,64,1366,625,1366,768,8-21-2022,9-44-20,77,depth_duration_stimuli/002445_2014-06-28_20-32-16_260595134347_rgbf000029-resize_4/002445_2014-06-28_20-32-16_260595134347_rgbf000029-resize_4-target.png,125,2.5315,60,3105,125,meters,jsons/VE125_randls_0.json,1139518,2527827,25,Man
77,254234,DepthScenes,duration_manipulation_targetAtFixation,jsons/VE125_randls_0.json,http://54.235.29.9/FacialAge/BNav_EC2/DepthDuration/v2_depth_duration_MTurk/v2_DepthDuration_HTML.html#64,64,1366,625,1366,768,8-21-2022,9-44-20,78,depth_duration_stimuli/000780_2014-06-08_22-28-29_260595134347_rgbf000126-resize_1/000780_2014-06-08_22-28-29_260595134347_rgbf000126-resize_1-target.png,125,3.3825,90,2629,126,meters,jsons/VE125_randls_0.json,1139518,2527827,25,Man
78,254234,DepthScenes,duration_manipulation_targetAtFixation,jsons/VE125_randls_0.json,http://54.235.29.9/FacialAge/BNav_EC2/DepthDuration/v2_depth_duration_MTurk/v2_DepthDuration_HTML.html#64,64,1366,625,1366,768,8-21-2022,9-44-20,79,depth_duration_stimuli/002549_2014-06-24_13-41-39_094959634447_rgbf000022-resize_3/002549_2014-06-24_13-41-39_094959634447_rgbf000022-resize_3-target.png,125,1.476,90,66476,125,meters,jsons/VE125_randls_0.json,1139518,2527827,25,Man
79,254234,DepthScenes,duration_manipulation_targetAtFixation,jsons/VE125_randls_0.json,http://54.235.29.9/FacialAge/BNav_EC2/DepthDuration/v2_depth_duration_MTurk/v2_DepthDuration_HTML.html#64,64,1366,625,1366,768,8-21-2022,9-44-20,80,depth_duration_stimuli/002750_2014-06-22_19-08-03_094959634447_rgbf000094-resize_4/002750_2014-06-22_19-08-03_094959634447_rgbf000094-resize_4-target.png,125,2.354,50,3131,126,meters,jsons/VE125_randls_0.json,1139518,2527827,25,Man
80,254234,DepthScenes,duration_manipulation_targetAtFixation,jsons/VE125_randls_0.json,http://54.235.29.9/FacialAge/BNav_EC2/DepthDuration/v2_depth_duration_MTurk/v2_DepthDuration_HTML.html#64,64,1366,625,1366,768,8-21-2022,9-44-20,81,depth_duration_stimuli/002988_2014-06-15_12-24-20_094959634447_rgbf000150-resize_1/002988_2014-06-15_12-24-20_094959634447_rgbf000150-resize_1-target.png,125,4.7669999999999995,30,3610,125,meters,jsons/VE125_randls_0.json,1139518,2527827,25,Man
81,254234,DepthScenes,duration_manipulation_targetAtFixation,jsons/VE125_randls_0.json,http://54.235.29.9/FacialAge/BNav_EC2/DepthDuration/v2_depth_duration_MTurk/v2_DepthDuration_HTML.html#64,64,1366,625,1366,768,8-21-2022,9-44-20,82,depth_duration_stimuli/001052_2014-06-08_18-24-54_260595134347_rgbf000130-resize_1/001052_2014-06-08_18-24-54_260595134347_rgbf000130-resize_1-target.png,125,4.1045,90,3674,124,meters,jsons/VE125_randls_0.json,1139518,2527827,25,Man
82,254234,DepthScenes,duration_manipulation_targetAtFixation,jsons/VE125_randls_0.json,http://54.235.29.9/FacialAge/BNav_EC2/DepthDuration/v2_depth_duration_MTurk/v2_DepthDuration_HTML.html#64,64,1366,625,1366,768,8-21-2022,9-44-20,83,depth_duration_stimuli/002725_2014-06-22_11-47-51_094959634447_rgbf000070-resize_1/002725_2014-06-22_11-47-51_094959634447_rgbf000070-resize_1-target.png,125,2.195,60,3491,125,meters,jsons/VE125_randls_0.json,1139518,2527827,25,Man
83,254234,DepthScenes,duration_manipulation_targetAtFixation,jsons/VE125_randls_0.json,http://54.235.29.9/FacialAge/BNav_EC2/DepthDuration/v2_depth_duration_MTurk/v2_DepthDuration_HTML.html#64,64,1366,625,1366,768,8-21-2022,9-44-20,84,depth_duration_stimuli/002344_2014-06-28_20-06-29_260595134347_rgbf000030-resize_1/002344_2014-06-28_20-06-29_260595134347_rgbf000030-resize_1-target.png,125,1.5795,90,4010,125,meters,jsons/VE125_randls_0.json,1139518,2527827,25,Man
84,254234,DepthScenes,duration_manipulation_targetAtFixation,jsons/VE125_randls_0.json,http://54.235.29.9/FacialAge/BNav_EC2/DepthDuration/v2_depth_duration_MTurk/v2_DepthDuration_HTML.html#64,64,1366,625,1366,768,8-21-2022,9-44-20,85,depth_duration_stimuli/002989_2014-06-15_12-25-03_094959634447_rgbf000150-resize_3/002989_2014-06-15_12-25-03_094959634447_rgbf000150-resize_3-target.png,125,4.1975,60,2402,125,meters,jsons/VE125_randls_0.json,1139518,2527827,25,Man
85,254234,DepthScenes,duration_manipulation_targetAtFixation,jsons/VE125_randls_0.json,http://54.235.29.9/FacialAge/BNav_EC2/DepthDuration/v2_depth_duration_MTurk/v2_DepthDuration_HTML.html#64,64,1366,625,1366,768,8-21-2022,9-44-20,86,depth_duration_stimuli/000866_2014-06-09_20-45-42_260595134347_rgbf000139-resize_1/000866_2014-06-09_20-45-42_260595134347_rgbf000139-resize_1-target.png,125,3.2155,90,2500,125,meters,jsons/VE125_randls_0.json,1139518,2527827,25,Man
86,254234,DepthScenes,duration_manipulation_targetAtFixation,jsons/VE125_randls_0.json,http://54.235.29.9/FacialAge/BNav_EC2/DepthDuration/v2_depth_duration_MTurk/v2_DepthDuration_HTML.html#64,64,1366,625,1366,768,8-21-2022,9-44-20,87,depth_duration_stimuli/003621_2014-05-23_18-06-08_094959634447_rgbf000101-resize_1/003621_2014-05-23_18-06-08_094959634447_rgbf000101-resize_1-target.png,125,3.9835,80,2593,126,meters,jsons/VE125_randls_0.json,1139518,2527827,25,Man
87,254234,DepthScenes,duration_manipulation_targetAtFixation,jsons/VE125_randls_0.json,http://54.235.29.9/FacialAge/BNav_EC2/DepthDuration/v2_depth_duration_MTurk/v2_DepthDuration_HTML.html#64,64,1366,625,1366,768,8-21-2022,9-44-20,88,depth_duration_stimuli/001584_2014-06-20_11-07-43_260595134347_rgbf000002-resize_1/001584_2014-06-20_11-07-43_260595134347_rgbf000002-resize_1-target.png,125,3.53,60,2660,126,meters,jsons/VE125_randls_0.json,1139518,2527827,25,Man
88,254234,DepthScenes,duration_manipulation_targetAtFixation,jsons/VE125_randls_0.json,http://54.235.29.9/FacialAge/BNav_EC2/DepthDuration/v2_depth_duration_MTurk/v2_DepthDuration_HTML.html#64,64,1366,625,1366,768,8-21-2022,9-44-20,89,depth_duration_stimuli/000906_2014-06-08_13-35-43_260595134347_rgbf000155-resize_1/000906_2014-06-08_13-35-43_260595134347_rgbf000155-resize_1-target.png,125,2.8489999999999998,50,2754,125,meters,jsons/VE125_randls_0.json,1139518,2527827,25,Man
89,254234,DepthScenes,duration_manipulation_targetAtFixation,jsons/VE125_randls_0.json,http://54.235.29.9/FacialAge/BNav_EC2/DepthDuration/v2_depth_duration_MTurk/v2_DepthDuration_HTML.html#64,64,1366,625,1366,768,8-21-2022,9-44-20,90,depth_duration_stimuli/002805_2014-06-22_19-54-03_094959634447_rgbf000079-resize_1/002805_2014-06-22_19-54-03_094959634447_rgbf000079-resize_1-target.png,125,3.1439999999999997,90,2474,125,meters,jsons/VE125_randls_0.json,1139518,2527827,25,Man
90,254234,DepthScenes,duration_manipulation_targetAtFixation,jsons/VE125_randls_0.json,http://54.235.29.9/FacialAge/BNav_EC2/DepthDuration/v2_depth_duration_MTurk/v2_DepthDuration_HTML.html#64,64,1366,625,1366,768,8-21-2022,9-44-20,91,depth_duration_stimuli/001810_2014-06-26_20-51-35_260595134347_rgbf000040-resize_3/001810_2014-06-26_20-51-35_260595134347_rgbf000040-resize_3-target.png,125,2.2525,90,3235,124,meters,jsons/VE125_randls_0.json,1139518,2527827,25,Man
91,254234,DepthScenes,duration_manipulation_targetAtFixation,jsons/VE125_randls_0.json,http://54.235.29.9/FacialAge/BNav_EC2/DepthDuration/v2_depth_duration_MTurk/v2_DepthDuration_HTML.html#64,64,1366,625,1366,768,8-21-2022,9-44-20,92,depth_duration_stimuli/003010_2014-06-15_12-54-35_094959634447_rgbf000112-resize_0/003010_2014-06-15_12-54-35_094959634447_rgbf000112-resize_0-target.png,125,3.1185,60,2690,126,meters,jsons/VE125_randls_0.json,1139518,2527827,25,Man
92,254234,DepthScenes,duration_manipulation_targetAtFixation,jsons/VE125_randls_0.json,http://54.235.29.9/FacialAge/BNav_EC2/DepthDuration/v2_depth_duration_MTurk/v2_DepthDuration_HTML.html#64,64,1366,625,1366,768,8-21-2022,9-44-20,93,depth_duration_stimuli/000692_2014-06-08_13-09-42_260595134347_rgbf000199-resize_2/000692_2014-06-08_13-09-42_260595134347_rgbf000199-resize_2-target.png,125,3.661,80,2619,124,meters,jsons/VE125_randls_0.json,1139518,2527827,25,Man
93,254234,DepthScenes,duration_manipulation_targetAtFixation,jsons/VE125_randls_0.json,http://54.235.29.9/FacialAge/BNav_EC2/DepthDuration/v2_depth_duration_MTurk/v2_DepthDuration_HTML.html#64,64,1366,625,1366,768,8-21-2022,9-44-20,94,depth_duration_stimuli/001094_2014-06-15_17-36-00_260595134347_rgbf000205-resize_0/001094_2014-06-15_17-36-00_260595134347_rgbf000205-resize_0-target.png,125,4.2175,150,2618,125,meters,jsons/VE125_randls_0.json,1139518,2527827,25,Man
94,254234,DepthScenes,duration_manipulation_targetAtFixation,jsons/VE125_randls_0.json,http://54.235.29.9/FacialAge/BNav_EC2/DepthDuration/v2_depth_duration_MTurk/v2_DepthDuration_HTML.html#64,64,1366,625,1366,768,8-21-2022,9-44-20,95,depth_duration_stimuli/002279_2014-06-28_18-55-32_260595134347_rgbf000040-resize_5/002279_2014-06-28_18-55-32_260595134347_rgbf000040-resize_5-target.png,125,1.5043333333333,90,2460,125,meters,jsons/VE125_randls_0.json,1139518,2527827,25,Man
95,254234,DepthScenes,duration_manipulation_targetAtFixation,jsons/VE125_randls_0.json,http://54.235.29.9/FacialAge/BNav_EC2/DepthDuration/v2_depth_duration_MTurk/v2_DepthDuration_HTML.html#64,64,1366,625,1366,768,8-21-2022,9-44-20,96,depth_duration_stimuli/000635_2014-06-08_16-38-42_260595134347_rgbf000106-resize_1/000635_2014-06-08_16-38-42_260595134347_rgbf000106-resize_1-target.png,125,2.074,60,2532,125,meters,jsons/VE125_randls_0.json,1139518,2527827,25,Man
96,254234,DepthScenes,duration_manipulation_targetAtFixation,jsons/VE125_randls_0.json,http://54.235.29.9/FacialAge/BNav_EC2/DepthDuration/v2_depth_duration_MTurk/v2_DepthDuration_HTML.html#64,64,1366,625,1366,768,8-21-2022,9-44-20,97,depth_duration_stimuli/001059_2014-06-08_21-53-27_260595134347_rgbf000061-resize_4/001059_2014-06-08_21-53-27_260595134347_rgbf000061-resize_4-target.png,125,2.4185,80,2523,124,meters,jsons/VE125_randls_0.json,1139518,2527827,25,Man
97,254234,DepthScenes,duration_manipulation_targetAtFixation,jsons/VE125_randls_0.json,http://54.235.29.9/FacialAge/BNav_EC2/DepthDuration/v2_depth_duration_MTurk/v2_DepthDuration_HTML.html#64,64,1366,625,1366,768,8-21-2022,9-44-20,98,depth_duration_stimuli/001032_2014-06-08_13-23-17_260595134347_rgbf000021-resize_3/001032_2014-06-08_13-23-17_260595134347_rgbf000021-resize_3-target.png,125,3.2725,70,3011,126,meters,jsons/VE125_randls_0.json,1139518,2527827,25,Man
98,254234,DepthScenes,duration_manipulation_targetAtFixation,jsons/VE125_randls_0.json,http://54.235.29.9/FacialAge/BNav_EC2/DepthDuration/v2_depth_duration_MTurk/v2_DepthDuration_HTML.html#64,64,1366,625,1366,768,8-21-2022,9-44-20,99,depth_duration_stimuli/001540_2014-06-20_17-01-05_260595134347_rgbf000086-resize_2/001540_2014-06-20_17-01-05_260595134347_rgbf000086-resize-original.jpg,125,1.459,99,2811,125,meters,jsons/VE125_randls_0.json,1139518,2527827,25,Man
99,254234,DepthScenes,duration_manipulation_targetAtFixation,jsons/VE125_randls_0.json,http://54.235.29.9/FacialAge/BNav_EC2/DepthDuration/v2_depth_duration_MTurk/v2_DepthDuration_HTML.html#64,64,1366,625,1366,768,8-21-2022,9-44-20,100,depth_duration_stimuli/001244_2014-06-17_16-47-45_260595134347_rgbf000030-resize_4/001244_2014-06-17_16-47-45_260595134347_rgbf000030-resize_4-target.png,125,2.0425,1503,2576,125,meters,jsons/VE125_randls_0.json,1139518,2527827,25,Man
100,254234,DepthScenes,duration_manipulation_targetAtFixation,jsons/VE125_randls_0.json,http://54.235.29.9/FacialAge/BNav_EC2/DepthDuration/v2_depth_duration_MTurk/v2_DepthDuration_HTML.html#64,64,1366,625,1366,768,8-21-2022,9-44-20,101,depth_duration_stimuli/003495_2014-05-21_16-01-51_094959634447_rgbf000100-resize_3/003495_2014-05-21_16-01-51_094959634447_rgbf000100-resize_3-target.png,125,1.6255,160,3756,125,meters,jsons/VE125_randls_0.json,1139518,2527827,25,Man
101,254234,DepthScenes,duration_manipulation_targetAtFixation,jsons/VE125_randls_0.json,http://54.235.29.9/FacialAge/BNav_EC2/DepthDuration/v2_depth_duration_MTurk/v2_DepthDuration_HTML.html#64,64,1366,625,1366,768,8-21-2022,9-44-20,102,depth_duration_stimuli/002213_2014-06-28_18-37-58_260595134347_rgbf000055-resize_1/002213_2014-06-28_18-37-58_260595134347_rgbf000055-resize_1-target.png,125,3.62,160,3266,124,meters,jsons/VE125_randls_0.json,1139518,2527827,25,Man
102,254234,DepthScenes,duration_manipulation_targetAtFixation,jsons/VE125_randls_0.json,http://54.235.29.9/FacialAge/BNav_EC2/DepthDuration/v2_depth_duration_MTurk/v2_DepthDuration_HTML.html#64,64,1366,625,1366,768,8-21-2022,9-44-20,103,depth_duration_stimuli/000691_2014-06-08_13-08-50_260595134347_rgbf000132-resize_3/000691_2014-06-08_13-08-50_260595134347_rgbf000132-resize_3-target.png,125,4.1530000000000005,250,4260,124,meters,jsons/VE125_randls_0.json,1139518,2527827,25,Man
103,254234,DepthScenes,duration_manipulation_targetAtFixation,jsons/VE125_randls_0.json,http://54.235.29.9/FacialAge/BNav_EC2/DepthDuration/v2_depth_duration_MTurk/v2_DepthDuration_HTML.html#64,64,1366,625,1366,768,8-21-2022,9-44-20,104,depth_duration_stimuli/002118_2014-06-25_20-32-08_260595134347_rgbf000078-resize_1/002118_2014-06-25_20-32-08_260595134347_rgbf000078-resize_1-target.png,125,2.6460000000000004,500,4449,124,meters,jsons/VE125_randls_0.json,1139518,2527827,25,Man
104,254234,DepthScenes,duration_manipulation_targetAtFixation,jsons/VE125_randls_0.json,http://54.235.29.9/FacialAge/BNav_EC2/DepthDuration/v2_depth_duration_MTurk/v2_DepthDuration_HTML.html#64,64,1366,625,1366,768,8-21-2022,9-44-20,105,depth_duration_stimuli/001516_2014-06-20_16-25-09_260595134347_rgbf000076-resize_2/001516_2014-06-20_16-25-09_260595134347_rgbf000076-resize_2-target.png,125,1.7445,90,2338,124,meters,jsons/VE125_randls_0.json,1139518,2527827,25,Man
105,254234,DepthScenes,duration_manipulation_targetAtFixation,jsons/VE125_randls_0.json,http://54.235.29.9/FacialAge/BNav_EC2/DepthDuration/v2_depth_duration_MTurk/v2_DepthDuration_HTML.html#64,64,1366,625,1366,768,8-21-2022,9-44-20,106,depth_duration_stimuli/000469_2014-06-09_19-42-10_260595134347_rgbf000081-resize_1/000469_2014-06-09_19-42-10_260595134347_rgbf000081-resize_1-target.png,125,1.652,99,2355,125,meters,jsons/VE125_randls_0.json,1139518,2527827,25,Man
106,254234,DepthScenes,duration_manipulation_targetAtFixation,jsons/VE125_randls_0.json,http://54.235.29.9/FacialAge/BNav_EC2/DepthDuration/v2_depth_duration_MTurk/v2_DepthDuration_HTML.html#64,64,1366,625,1366,768,8-21-2022,9-44-20,107,depth_duration_stimuli/000483_2014-06-09_20-41-45_260595134347_rgbf000116-resize_4/000483_2014-06-09_20-41-45_260595134347_rgbf000116-resize_4-target.png,125,1.337,110,3018,125,meters,jsons/VE125_randls_0.json,1139518,2527827,25,Man
107,254234,DepthScenes,duration_manipulation_targetAtFixation,jsons/VE125_randls_0.json,http://54.235.29.9/FacialAge/BNav_EC2/DepthDuration/v2_depth_duration_MTurk/v2_DepthDuration_HTML.html#64,64,1366,625,1366,768,8-21-2022,9-44-20,108,depth_duration_stimuli/002057_2014-06-24_21-00-13_260595134347_rgbf000120-resize_1/002057_2014-06-24_21-00-13_260595134347_rgbf000120-resize_1-target.png,125,2.967,220,3234,125,meters,jsons/VE125_randls_0.json,1139518,2527827,25,Man
108,254234,DepthScenes,duration_manipulation_targetAtFixation,jsons/VE125_randls_0.json,http://54.235.29.9/FacialAge/BNav_EC2/DepthDuration/v2_depth_duration_MTurk/v2_DepthDuration_HTML.html#64,64,1366,625,1366,768,8-21-2022,9-44-20,109,depth_duration_stimuli/000709_2014-06-08_13-51-55_260595134347_rgbf000068-resize_3/000709_2014-06-08_13-51-55_260595134347_rgbf000068-resize_3-target.png,125,1.8030000000000002,620,3161,125,meters,jsons/VE125_randls_0.json,1139518,2527827,25,Man
109,254234,DepthScenes,duration_manipulation_targetAtFixation,jsons/VE125_randls_0.json,http://54.235.29.9/FacialAge/BNav_EC2/DepthDuration/v2_depth_duration_MTurk/v2_DepthDuration_HTML.html#64,64,1366,625,1366,768,8-21-2022,9-44-20,110,depth_duration_stimuli/002600_2014-06-24_14-27-04_094959634447_rgbf000074-resize_2/002600_2014-06-24_14-27-04_094959634447_rgbf000074-resize_2-target.png,125,2.7575,150,49940,124,meters,jsons/VE125_randls_0.json,1139518,2527827,25,Man
110,254234,DepthScenes,duration_manipulation_targetAtFixation,jsons/VE125_randls_0.json,http://54.235.29.9/FacialAge/BNav_EC2/DepthDuration/v2_depth_duration_MTurk/v2_DepthDuration_HTML.html#64,64,1366,625,1366,768,8-21-2022,9-44-20,111,depth_duration_stimuli/003228_2014-05-14_13-42-35_094959634447_rgbf000101-resize_1/003228_2014-05-14_13-42-35_094959634447_rgbf000101-resize_1-target.png,125,1.9680000000000002,200,3497,124,meters,jsons/VE125_randls_0.json,1139518,2527827,25,Man
111,254234,DepthScenes,duration_manipulation_targetAtFixation,jsons/VE125_randls_0.json,http://54.235.29.9/FacialAge/BNav_EC2/DepthDuration/v2_depth_duration_MTurk/v2_DepthDuration_HTML.html#64,64,1366,625,1366,768,8-21-2022,9-44-20,112,depth_duration_stimuli/000414_2014-06-04_19-49-13_260595134347_rgbf000044-resize_0/000414_2014-06-04_19-49-13_260595134347_rgbf000044-resize_0-target.png,125,4.329,50,3115,126,meters,jsons/VE125_randls_0.json,1139518,2527827,25,Man
112,254234,DepthScenes,duration_manipulation_targetAtFixation,jsons/VE125_randls_0.json,http://54.235.29.9/FacialAge/BNav_EC2/DepthDuration/v2_depth_duration_MTurk/v2_DepthDuration_HTML.html#64,64,1366,625,1366,768,8-21-2022,9-44-20,113,depth_duration_stimuli/003129_2014-05-12_10-48-10_094959634447_rgbf000100-resize_0/003129_2014-05-12_10-48-10_094959634447_rgbf000100-resize_0-target.png,125,4.9305,60,2449,125,meters,jsons/VE125_randls_0.json,1139518,2527827,25,Man
113,254234,DepthScenes,duration_manipulation_targetAtFixation,jsons/VE125_randls_0.json,http://54.235.29.9/FacialAge/BNav_EC2/DepthDuration/v2_depth_duration_MTurk/v2_DepthDuration_HTML.html#64,64,1366,625,1366,768,8-21-2022,9-44-20,114,depth_duration_stimuli/002043_2014-06-24_20-29-38_260595134347_rgbf000039-resize_4/002043_2014-06-24_20-29-38_260595134347_rgbf000039-resize_4-target.png,125,2.8435,1500,2642,125,meters,jsons/VE125_randls_0.json,1139518,2527827,25,Man
114,254234,DepthScenes,duration_manipulation_targetAtFixation,jsons/VE125_randls_0.json,http://54.235.29.9/FacialAge/BNav_EC2/DepthDuration/v2_depth_duration_MTurk/v2_DepthDuration_HTML.html#64,64,1366,625,1366,768,8-21-2022,9-44-20,115,depth_duration_stimuli/003048_2014-06-15_13-49-43_094959634447_rgbf000150-resize_1/003048_2014-06-15_13-49-43_094959634447_rgbf000150-resize_1-target.png,125,4.0035,500,2730,124,meters,jsons/VE125_randls_0.json,1139518,2527827,25,Man
115,254234,DepthScenes,duration_manipulation_targetAtFixation,jsons/VE125_randls_0.json,http://54.235.29.9/FacialAge/BNav_EC2/DepthDuration/v2_depth_duration_MTurk/v2_DepthDuration_HTML.html#64,64,1366,625,1366,768,8-21-2022,9-44-20,116,depth_duration_stimuli/001170_2014-06-17_15-43-44_260595134347_rgbf000096-resize_6/001170_2014-06-17_15-43-44_260595134347_rgbf000096-resize-original.jpg,125,1.1909999999999998,200,2674,124,meters,jsons/VE125_randls_0.json,1139518,2527827,25,Man
116,254234,DepthScenes,duration_manipulation_targetAtFixation,jsons/VE125_randls_0.json,http://54.235.29.9/FacialAge/BNav_EC2/DepthDuration/v2_depth_duration_MTurk/v2_DepthDuration_HTML.html#64,64,1366,625,1366,768,8-21-2022,9-44-20,117,depth_duration_stimuli/002905_2014-06-03_18-04-43_094959634447_rgbf000151-resize_2/002905_2014-06-03_18-04-43_094959634447_rgbf000151-resize_2-target.png,125,2.0295,199,2458,124,meters,jsons/VE125_randls_0.json,1139518,2527827,25,Man
117,254234,DepthScenes,duration_manipulation_targetAtFixation,jsons/VE125_randls_0.json,http://54.235.29.9/FacialAge/BNav_EC2/DepthDuration/v2_depth_duration_MTurk/v2_DepthDuration_HTML.html#64,64,1366,625,1366,768,8-21-2022,9-44-20,118,depth_duration_stimuli/003423_2014-05-21_10-23-26_094959634447_rgbf002665-resize_2/003423_2014-05-21_10-23-26_094959634447_rgbf002665-resize_2-target.png,125,3.2575,25,67082,125,meters,jsons/VE125_randls_0.json,1139518,2527827,25,Man
118,254234,DepthScenes,duration_manipulation_targetAtFixation,jsons/VE125_randls_0.json,http://54.235.29.9/FacialAge/BNav_EC2/DepthDuration/v2_depth_duration_MTurk/v2_DepthDuration_HTML.html#64,64,1366,625,1366,768,8-21-2022,9-44-20,119,depth_duration_stimuli/003292_2014-05-14_21-53-49_094959634447_rgbf000100-resize_2/003292_2014-05-14_21-53-49_094959634447_rgbf000100-resize_2-target.png,125,3.4815,2503,2578,125,meters,jsons/VE125_randls_0.json,1139518,2527827,25,Man
119,254234,DepthScenes,duration_manipulation_targetAtFixation,jsons/VE125_randls_0.json,http://54.235.29.9/FacialAge/BNav_EC2/DepthDuration/v2_depth_duration_MTurk/v2_DepthDuration_HTML.html#64,64,1366,625,1366,768,8-21-2022,9-44-20,120,depth_duration_stimuli/002639_2014-06-24_14-51-37_094959634447_rgbf000074-resize_4/002639_2014-06-24_14-51-37_094959634447_rgbf000074-resize_4-target.png,125,4.0375,250,2740,126,meters,jsons/VE125_randls_0.json,1139518,2527827,25,Man
120,254234,DepthScenes,duration_manipulation_targetAtFixation,jsons/VE125_randls_0.json,http://54.235.29.9/FacialAge/BNav_EC2/DepthDuration/v2_depth_duration_MTurk/v2_DepthDuration_HTML.html#64,64,1366,625,1366,768,8-21-2022,9-44-20,121,depth_duration_stimuli/000788_2014-06-08_22-34-36_260595134347_rgbf000131-resize_1/000788_2014-06-08_22-34-36_260595134347_rgbf000131-resize_1-target.png,125,3.359,300,3522,126,meters,jsons/VE125_randls_0.json,1139518,2527827,25,Man
121,254234,DepthScenes,duration_manipulation_targetAtFixation,jsons/VE125_randls_0.json,http://54.235.29.9/FacialAge/BNav_EC2/DepthDuration/v2_depth_duration_MTurk/v2_DepthDuration_HTML.html#64,64,1366,625,1366,768,8-21-2022,9-44-20,122,depth_duration_stimuli/001235_2014-06-17_16-37-36_260595134347_rgbf000084-resize_4/001235_2014-06-17_16-37-36_260595134347_rgbf000084-resize_4-target.png,125,3.6605,600,2739,124,meters,jsons/VE125_randls_0.json,1139518,2527827,25,Man
122,254234,DepthScenes,duration_manipulation_targetAtFixation,jsons/VE125_randls_0.json,http://54.235.29.9/FacialAge/BNav_EC2/DepthDuration/v2_depth_duration_MTurk/v2_DepthDuration_HTML.html#64,64,1366,625,1366,768,8-21-2022,9-44-20,123,depth_duration_stimuli/002784_2014-06-22_19-26-30_094959634447_rgbf000083-resize_3/002784_2014-06-22_19-26-30_094959634447_rgbf000083-resize_3-target.png,125,1.8046666666667,600,5322,124,meters,jsons/VE125_randls_0.json,1139518,2527827,25,Man
123,254234,DepthScenes,duration_manipulation_targetAtFixation,jsons/VE125_randls_0.json,http://54.235.29.9/FacialAge/BNav_EC2/DepthDuration/v2_depth_duration_MTurk/v2_DepthDuration_HTML.html#64,64,1366,625,1366,768,8-21-2022,9-44-20,124,depth_duration_stimuli/001100_2014-06-15_17-46-26_260595134347_rgbf000225-resize_2/001100_2014-06-15_17-46-26_260595134347_rgbf000225-resize_2-target.png,125,2.24,250,5131,126,meters,jsons/VE125_randls_0.json,1139518,2527827,25,Man
124,254234,DepthScenes,duration_manipulation_targetAtFixation,jsons/VE125_randls_0.json,http://54.235.29.9/FacialAge/BNav_EC2/DepthDuration/v2_depth_duration_MTurk/v2_DepthDuration_HTML.html#64,64,1366,625,1366,768,8-21-2022,9-44-20,125,depth_duration_stimuli/001016_2014-06-09_16-16-10_260595134347_rgbf000112-resize_5/001016_2014-06-09_16-16-10_260595134347_rgbf000112-resize_5-target.png,125,1.6565,300,2692,126,meters,jsons/VE125_randls_0.json,1139518,2527827,25,Man
125,254234,DepthScenes,duration_manipulation_targetAtFixation,jsons/VE125_randls_0.json,http://54.235.29.9/FacialAge/BNav_EC2/DepthDuration/v2_depth_duration_MTurk/v2_DepthDuration_HTML.html#64,64,1366,625,1366,768,8-21-2022,9-44-20,126,depth_duration_stimuli/002340_2014-06-28_20-05-46_260595134347_rgbf000113-resize_0/002340_2014-06-28_20-05-46_260595134347_rgbf000113-resize_0-target.png,125,2.4735,500,3001,125,meters,jsons/VE125_randls_0.json,1139518,2527827,25,Man
126,254234,DepthScenes,duration_manipulation_targetAtFixation,jsons/VE125_randls_0.json,http://54.235.29.9/FacialAge/BNav_EC2/DepthDuration/v2_depth_duration_MTurk/v2_DepthDuration_HTML.html#64,64,1366,625,1366,768,8-21-2022,9-44-20,127,depth_duration_stimuli/000522_2014-06-08_13-35-06_260595134347_rgbf000244-resize_1/000522_2014-06-08_13-35-06_260595134347_rgbf000244-resize_1-target.png,125,2.3715,90,2594,125,meters,jsons/VE125_randls_0.json,1139518,2527827,25,Man
127,254234,DepthScenes,duration_manipulation_targetAtFixation,jsons/VE125_randls_0.json,http://54.235.29.9/FacialAge/BNav_EC2/DepthDuration/v2_depth_duration_MTurk/v2_DepthDuration_HTML.html#64,64,1366,625,1366,768,8-21-2022,9-44-20,128,depth_duration_stimuli/002949_2014-06-26_15-57-42_094959634447_rgbf000079-resize_1/002949_2014-06-26_15-57-42_094959634447_rgbf000079-resize_1-target.png,125,1.8915,1500,2635,125,meters,jsons/VE125_randls_0.json,1139518,2527827,25,Man
128,254234,DepthScenes,duration_manipulation_targetAtFixation,jsons/VE125_randls_0.json,http://54.235.29.9/FacialAge/BNav_EC2/DepthDuration/v2_depth_duration_MTurk/v2_DepthDuration_HTML.html#64,64,1366,625,1366,768,8-21-2022,9-44-20,129,depth_duration_stimuli/001175_2014-06-17_15-45-55_260595134347_rgbf000129-resize_4/001175_2014-06-17_15-45-55_260595134347_rgbf000129-resize_4-target.png,125,4.255,200,3153,125,meters,jsons/VE125_randls_0.json,1139518,2527827,25,Man
129,254234,DepthScenes,duration_manipulation_targetAtFixation,jsons/VE125_randls_0.json,http://54.235.29.9/FacialAge/BNav_EC2/DepthDuration/v2_depth_duration_MTurk/v2_DepthDuration_HTML.html#64,64,1366,625,1366,768,8-21-2022,9-44-20,130,depth_duration_stimuli/003490_2014-05-21_15-50-11_094959634447_rgbf000101-resize_3/003490_2014-05-21_15-50-11_094959634447_rgbf000101-resize_3-target.png,125,3.6445,59,5250,124,meters,jsons/VE125_randls_0.json,1139518,2527827,25,Man
130,254234,DepthScenes,duration_manipulation_targetAtFixation,jsons/VE125_randls_0.json,http://54.235.29.9/FacialAge/BNav_EC2/DepthDuration/v2_depth_duration_MTurk/v2_DepthDuration_HTML.html#64,64,1366,625,1366,768,8-21-2022,9-44-20,131,depth_duration_stimuli/001199_2014-06-17_16-03-48_260595134347_rgbf000077-resize_0/001199_2014-06-17_16-03-48_260595134347_rgbf000077-resize_0-target.png,125,3.4375,22,3507,125,meters,jsons/VE125_randls_0.json,1139518,2527827,25,Man
131,254234,DepthScenes,duration_manipulation_targetAtFixation,jsons/VE125_randls_0.json,http://54.235.29.9/FacialAge/BNav_EC2/DepthDuration/v2_depth_duration_MTurk/v2_DepthDuration_HTML.html#64,64,1366,625,1366,768,8-21-2022,9-44-20,132,depth_duration_stimuli/000502_2014-06-08_23-02-32_260595134347_rgbf000063-resize_4/000502_2014-06-08_23-02-32_260595134347_rgbf000063-resize_4-target.png,125,2.431,95,4218,124,meters,jsons/VE125_randls_0.json,1139518,2527827,25,Man
132,254234,DepthScenes,duration_manipulation_targetAtFixation,jsons/VE125_randls_0.json,http://54.235.29.9/FacialAge/BNav_EC2/DepthDuration/v2_depth_duration_MTurk/v2_DepthDuration_HTML.html#64,64,1366,625,1366,768,8-21-2022,9-44-20,133,depth_duration_stimuli/001055_2014-06-08_18-45-35_260595134347_rgbf000111-resize_4/001055_2014-06-08_18-45-35_260595134347_rgbf000111-resize_4-target.png,125,2.4290000000000003,92,3026,125,meters,jsons/VE125_randls_0.json,1139518,2527827,25,Man
133,254234,DepthScenes,duration_manipulation_targetAtFixation,jsons/VE125_randls_0.json,http://54.235.29.9/FacialAge/BNav_EC2/DepthDuration/v2_depth_duration_MTurk/v2_DepthDuration_HTML.html#64,64,1366,625,1366,768,8-21-2022,9-44-20,134,depth_duration_stimuli/000549_2014-06-08_22-10-24_260595134347_rgbf000247-resize_3/000549_2014-06-08_22-10-24_260595134347_rgbf000247-resize_3-target.png,125,1.841,99,3282,125,meters,jsons/VE125_randls_0.json,1139518,2527827,25,Man
134,254234,DepthScenes,duration_manipulation_targetAtFixation,jsons/VE125_randls_0.json,http://54.235.29.9/FacialAge/BNav_EC2/DepthDuration/v2_depth_duration_MTurk/v2_DepthDuration_HTML.html#64,64,1366,625,1366,768,8-21-2022,9-44-20,135,depth_duration_stimuli/002072_2014-06-24_21-48-06_260595134347_rgbf000115-resize_0/002072_2014-06-24_21-48-06_260595134347_rgbf000115-resize-original.jpg,125,4.702,110,2458,124,meters,jsons/VE125_randls_0.json,1139518,2527827,25,Man
135,254234,DepthScenes,duration_manipulation_targetAtFixation,jsons/VE125_randls_0.json,http://54.235.29.9/FacialAge/BNav_EC2/DepthDuration/v2_depth_duration_MTurk/v2_DepthDuration_HTML.html#64,64,1366,625,1366,768,8-21-2022,9-44-20,136,depth_duration_stimuli/001011_2014-06-08_23-18-54_260595134347_rgbf000044-resize_4/001011_2014-06-08_23-18-54_260595134347_rgbf000044-resize_4-target.png,125,2.4730000000000003,200,2802,125,meters,jsons/VE125_randls_0.json,1139518,2527827,25,Man
136,254234,DepthScenes,duration_manipulation_targetAtFixation,jsons/VE125_randls_0.json,http://54.235.29.9/FacialAge/BNav_EC2/DepthDuration/v2_depth_duration_MTurk/v2_DepthDuration_HTML.html#64,64,1366,625,1366,768,8-21-2022,9-44-20,137,depth_duration_stimuli/002875_2014-06-01_15-19-00_094959634447_rgbf000151-resize_1/002875_2014-06-01_15-19-00_094959634447_rgbf000151-resize_1-target.png,125,1.9675,300,2577,125,meters,jsons/VE125_randls_0.json,1139518,2527827,25,Man
137,254234,DepthScenes,duration_manipulation_targetAtFixation,jsons/VE125_randls_0.json,http://54.235.29.9/FacialAge/BNav_EC2/DepthDuration/v2_depth_duration_MTurk/v2_DepthDuration_HTML.html#64,64,1366,625,1366,768,8-21-2022,9-44-20,138,depth_duration_stimuli/001150_2014-06-17_15-27-34_260595134347_rgbf000108-resize_2/001150_2014-06-17_15-27-34_260595134347_rgbf000108-resize_2-target.png,125,4.0325,200,2850,125,meters,jsons/VE125_randls_0.json,1139518,2527827,25,Man
138,254234,DepthScenes,duration_manipulation_targetAtFixation,jsons/VE125_randls_0.json,http://54.235.29.9/FacialAge/BNav_EC2/DepthDuration/v2_depth_duration_MTurk/v2_DepthDuration_HTML.html#64,64,1366,625,1366,768,8-21-2022,9-44-20,139,depth_duration_stimuli/000665_2014-06-09_20-42-35_260595134347_rgbf000110-resize_1/000665_2014-06-09_20-42-35_260595134347_rgbf000110-resize_1-target.png,125,3.057,300,2673,125,meters,jsons/VE125_randls_0.json,1139518,2527827,25,Man
139,254234,DepthScenes,duration_manipulation_targetAtFixation,jsons/VE125_randls_0.json,http://54.235.29.9/FacialAge/BNav_EC2/DepthDuration/v2_depth_duration_MTurk/v2_DepthDuration_HTML.html#64,64,1366,625,1366,768,8-21-2022,9-44-20,140,depth_duration_stimuli/001110_2014-06-15_17-25-28_260595134347_rgbf000150-resize_1/001110_2014-06-15_17-25-28_260595134347_rgbf000150-resize_1-target.png,125,1.7115,55,2588,125,meters,jsons/VE125_randls_0.json,1139518,2527827,25,Man
140,254234,DepthScenes,duration_manipulation_targetAtFixation,jsons/VE125_randls_0.json,http://54.235.29.9/FacialAge/BNav_EC2/DepthDuration/v2_depth_duration_MTurk/v2_DepthDuration_HTML.html#64,64,1366,625,1366,768,8-21-2022,9-44-20,141,depth_duration_stimuli/000927_2014-06-09_16-32-30_260595134347_rgbf000123-resize_3/000927_2014-06-09_16-32-30_260595134347_rgbf000123-resize_3-target.png,125,2.6785,66,2563,124,meters,jsons/VE125_randls_0.json,1139518,2527827,25,Man
141,254234,DepthScenes,duration_manipulation_targetAtFixation,jsons/VE125_randls_0.json,http://54.235.29.9/FacialAge/BNav_EC2/DepthDuration/v2_depth_duration_MTurk/v2_DepthDuration_HTML.html#64,64,1366,625,1366,768,8-21-2022,9-44-20,142,depth_duration_stimuli/000773_2014-06-08_22-24-54_260595134347_rgbf000093-resize_1/000773_2014-06-08_22-24-54_260595134347_rgbf000093-resize_1-target.png,125,4.973,220,3313,124,meters,jsons/VE125_randls_0.json,1139518,2527827,25,Man
142,254234,DepthScenes,duration_manipulation_targetAtFixation,jsons/VE125_randls_0.json,http://54.235.29.9/FacialAge/BNav_EC2/DepthDuration/v2_depth_duration_MTurk/v2_DepthDuration_HTML.html#64,64,1366,625,1366,768,8-21-2022,9-44-20,143,depth_duration_stimuli/002414_2014-06-28_20-24-58_260595134347_rgbf000067-resize_4/002414_2014-06-28_20-24-58_260595134347_rgbf000067-resize_4-target.png,125,4.363,300,2586,125,meters,jsons/VE125_randls_0.json,1139518,2527827,25,Man
143,254234,DepthScenes,duration_manipulation_targetAtFixation,jsons/VE125_randls_0.json,http://54.235.29.9/FacialAge/BNav_EC2/DepthDuration/v2_depth_duration_MTurk/v2_DepthDuration_HTML.html#64,64,1366,625,1366,768,8-21-2022,9-44-20,144,depth_duration_stimuli/000470_2014-06-09_19-42-40_260595134347_rgbf000094-resize_1/000470_2014-06-09_19-42-40_260595134347_rgbf000094-resize_1-target.png,125,1.831,300,3586,125,meters,jsons/VE125_randls_0.json,1139518,2527827,25,Man
144,254234,DepthScenes,duration_manipulation_targetAtFixation,jsons/VE125_randls_0.json,http://54.235.29.9/FacialAge/BNav_EC2/DepthDuration/v2_depth_duration_MTurk/v2_DepthDuration_HTML.html#64,64,1366,625,1366,768,8-21-2022,9-44-20,145,depth_duration_stimuli/000109_2014-05-14_23-41-52_260595134347_rgbf000035-resize_9/000109_2014-05-14_23-41-52_260595134347_rgbf000035-resize_9-target.png,125,1.3545,300,2562,126,meters,jsons/VE125_randls_0.json,1139518,2527827,25,Man
145,254234,DepthScenes,duration_manipulation_targetAtFixation,jsons/VE125_randls_0.json,http://54.235.29.9/FacialAge/BNav_EC2/DepthDuration/v2_depth_duration_MTurk/v2_DepthDuration_HTML.html#64,64,1366,625,1366,768,8-21-2022,9-44-20,146,depth_duration_stimuli/001498_2014-06-19_17-45-14_260595134347_rgbf000129-resize_4/001498_2014-06-19_17-45-14_260595134347_rgbf000129-resize-original.jpg,125,1.4075,900,3891,126,meters,jsons/VE125_randls_0.json,1139518,2527827,25,Man
146,254234,DepthScenes,duration_manipulation_targetAtFixation,jsons/VE125_randls_0.json,http://54.235.29.9/FacialAge/BNav_EC2/DepthDuration/v2_depth_duration_MTurk/v2_DepthDuration_HTML.html#64,64,1366,625,1366,768,8-21-2022,9-44-20,147,depth_duration_stimuli/000436_2014-06-09_22-25-11_260595134347_rgbf000137-resize_1/000436_2014-06-09_22-25-11_260595134347_rgbf000137-resize_1-target.png,125,4.0705,90,2586,125,meters,jsons/VE125_randls_0.json,1139518,2527827,25,Man
147,254234,DepthScenes,duration_manipulation_targetAtFixation,jsons/VE125_randls_0.json,http://54.235.29.9/FacialAge/BNav_EC2/DepthDuration/v2_depth_duration_MTurk/v2_DepthDuration_HTML.html#64,64,1366,625,1366,768,8-21-2022,9-44-20,148,depth_duration_stimuli/002444_2014-06-28_20-32-08_260595134347_rgbf000027-resize_0/002444_2014-06-28_20-32-08_260595134347_rgbf000027-resize_0-target.png,125,4.388999999999999,60,2499,126,meters,jsons/VE125_randls_0.json,1139518,2527827,25,Man
148,254234,DepthScenes,duration_manipulation_targetAtFixation,jsons/VE125_randls_0.json,http://54.235.29.9/FacialAge/BNav_EC2/DepthDuration/v2_depth_duration_MTurk/v2_DepthDuration_HTML.html#64,64,1366,625,1366,768,8-21-2022,9-44-20,149,depth_duration_stimuli/000493_2014-06-09_21-01-18_260595134347_rgbf000196-resize_3/000493_2014-06-09_21-01-18_260595134347_rgbf000196-resize_3-target.png,125,3.44,77,2602,125,meters,jsons/VE125_randls_0.json,1139518,2527827,25,Man
149,254234,DepthScenes,duration_manipulation_targetAtFixation,jsons/VE125_randls_0.json,http://54.235.29.9/FacialAge/BNav_EC2/DepthDuration/v2_depth_duration_MTurk/v2_DepthDuration_HTML.html#64,64,1366,625,1366,768,8-21-2022,9-44-20,150,depth_duration_stimuli/000191_2014-05-12_17-07-38_260595134347_rgbf000199-resize_0/000191_2014-05-12_17-07-38_260595134347_rgbf000199-resize_0-target.png,125,3.7995,63,3330,125,meters,jsons/VE125_randls_0.json,1139518,2527827,25,Man
150,254234,DepthScenes,duration_manipulation_targetAtFixation,jsons/VE125_randls_0.json,http://54.235.29.9/FacialAge/BNav_EC2/DepthDuration/v2_depth_duration_MTurk/v2_DepthDuration_HTML.html#64,64,1366,625,1366,768,8-21-2022,9-44-20,151,depth_duration_stimuli/001092_2014-06-15_17-34-58_260595134347_rgbf000171-resize_3/001092_2014-06-15_17-34-58_260595134347_rgbf000171-resize_3-target.png,125,2.6935,99,3242,126,meters,jsons/VE125_randls_0.json,1139518,2527827,25,Man
151,254234,DepthScenes,duration_manipulation_targetAtFixation,jsons/VE125_randls_0.json,http://54.235.29.9/FacialAge/BNav_EC2/DepthDuration/v2_depth_duration_MTurk/v2_DepthDuration_HTML.html#64,64,1366,625,1366,768,8-21-2022,9-44-20,152,depth_duration_stimuli/002545_2014-06-24_13-38-53_094959634447_rgbf000080-resize_4/002545_2014-06-24_13-38-53_094959634447_rgbf000080-resize_4-target.png,125,1.9205,79,3371,124,meters,jsons/VE125_randls_0.json,1139518,2527827,25,Man
152,254234,DepthScenes,duration_manipulation_targetAtFixation,jsons/VE125_randls_0.json,http://54.235.29.9/FacialAge/BNav_EC2/DepthDuration/v2_depth_duration_MTurk/v2_DepthDuration_HTML.html#64,64,1366,625,1366,768,8-21-2022,9-44-20,153,depth_duration_stimuli/001158_2014-06-17_15-32-16_260595134347_rgbf000138-resize_2/001158_2014-06-17_15-32-16_260595134347_rgbf000138-resize_2-target.png,125,4.5315,600,2890,125,meters,jsons/VE125_randls_0.json,1139518,2527827,25,Man
153,254234,DepthScenes,duration_manipulation_targetAtFixation,jsons/VE125_randls_0.json,http://54.235.29.9/FacialAge/BNav_EC2/DepthDuration/v2_depth_duration_MTurk/v2_DepthDuration_HTML.html#64,64,1366,625,1366,768,8-21-2022,9-44-20,154,depth_duration_stimuli/000556_2014-06-09_22-42-56_260595134347_rgbf000214-resize_1/000556_2014-06-09_22-42-56_260595134347_rgbf000214-resize_1-target.png,125,4.8415,66,3066,124,meters,jsons/VE125_randls_0.json,1139518,2527827,25,Man
154,254234,DepthScenes,duration_manipulation_targetAtFixation,jsons/VE125_randls_0.json,http://54.235.29.9/FacialAge/BNav_EC2/DepthDuration/v2_depth_duration_MTurk/v2_DepthDuration_HTML.html#64,64,1366,625,1366,768,8-21-2022,9-44-20,155,depth_duration_stimuli/003534_2014-05-22_15-06-10_094959634447_rgbf000102-resize_4/003534_2014-05-22_15-06-10_094959634447_rgbf000102-resize_4-target.png,125,1.426,5200,2914,124,meters,jsons/VE125_randls_0.json,1139518,2527827,25,Man
155,254234,DepthScenes,duration_manipulation_targetAtFixation,jsons/VE125_randls_0.json,http://54.235.29.9/FacialAge/BNav_EC2/DepthDuration/v2_depth_duration_MTurk/v2_DepthDuration_HTML.html#64,64,1366,625,1366,768,8-21-2022,9-44-20,156,depth_duration_stimuli/002637_2014-06-24_14-51-13_094959634447_rgbf000066-resize_4/002637_2014-06-24_14-51-13_094959634447_rgbf000066-resize_4-target.png,125,1.9955,522,2698,124,meters,jsons/VE125_randls_0.json,1139518,2527827,25,Man
156,254234,DepthScenes,duration_manipulation_targetAtFixation,jsons/VE125_randls_0.json,http://54.235.29.9/FacialAge/BNav_EC2/DepthDuration/v2_depth_duration_MTurk/v2_DepthDuration_HTML.html#64,64,1366,625,1366,768,8-21-2022,9-44-20,157,depth_duration_stimuli/003492_2014-05-21_15-50-55_094959634447_rgbf000828-resize_1/003492_2014-05-21_15-50-55_094959634447_rgbf000828-resize_1-target.png,125,4.06875,632,2444,125,meters,jsons/VE125_randls_0.json,1139518,2527827,25,Man
157,254234,DepthScenes,duration_manipulation_targetAtFixation,jsons/VE125_randls_0.json,http://54.235.29.9/FacialAge/BNav_EC2/DepthDuration/v2_depth_duration_MTurk/v2_DepthDuration_HTML.html#64,64,1366,625,1366,768,8-21-2022,9-44-20,158,depth_duration_stimuli/002568_2014-06-24_13-59-21_094959634447_rgbf000062-resize_4/002568_2014-06-24_13-59-21_094959634447_rgbf000062-resize_4-target.png,125,3.015,322,3264,125,meters,jsons/VE125_randls_0.json,1139518,2527827,25,Man
158,254234,DepthScenes,duration_manipulation_targetAtFixation,jsons/VE125_randls_0.json,http://54.235.29.9/FacialAge/BNav_EC2/DepthDuration/v2_depth_duration_MTurk/v2_DepthDuration_HTML.html#64,64,1366,625,1366,768,8-21-2022,9-44-20,159,depth_duration_stimuli/001066_2014-06-08_22-03-20_260595134347_rgbf000066-resize_4/001066_2014-06-08_22-03-20_260595134347_rgbf000066-resize_4-target.png,125,4.2330000000000005,32,2354,125,meters,jsons/VE125_randls_0.json,1139518,2527827,25,Man
159,254234,DepthScenes,duration_manipulation_targetAtFixation,jsons/VE125_randls_0.json,http://54.235.29.9/FacialAge/BNav_EC2/DepthDuration/v2_depth_duration_MTurk/v2_DepthDuration_HTML.html#64,64,1366,625,1366,768,8-21-2022,9-44-20,160,depth_duration_stimuli/000742_2014-06-08_18-48-09_260595134347_rgbf000164-resize_4/000742_2014-06-08_18-48-09_260595134347_rgbf000164-resize_4-target.png,125,4.632,360,3337,125,meters,jsons/VE125_randls_0.json,1139518,2527827,25,Man
160,254234,DepthScenes,duration_manipulation_targetAtFixation,jsons/VE125_randls_0.json,http://54.235.29.9/FacialAge/BNav_EC2/DepthDuration/v2_depth_duration_MTurk/v2_DepthDuration_HTML.html#64,64,1366,625,1366,768,8-21-2022,9-44-20,161,depth_duration_stimuli/002039_2014-06-24_20-22-38_260595134347_rgbf000084-resize_1/002039_2014-06-24_20-22-38_260595134347_rgbf000084-resize_1-target.png,125,4.408,30,2498,125,meters,jsons/VE125_randls_0.json,1139518,2527827,25,Man
161,254234,DepthScenes,duration_manipulation_targetAtFixation,jsons/VE125_randls_0.json,http://54.235.29.9/FacialAge/BNav_EC2/DepthDuration/v2_depth_duration_MTurk/v2_DepthDuration_HTML.html#64,64,1366,625,1366,768,8-21-2022,9-44-20,162,depth_duration_stimuli/002103_2014-06-25_20-00-40_260595134347_rgbf000049-resize_0/002103_2014-06-25_20-00-40_260595134347_rgbf000049-resize_0-target.png,125,4.105,20,2393,125,meters,jsons/VE125_randls_0.json,1139518,2527827,25,Man
162,254234,DepthScenes,duration_manipulation_targetAtFixation,jsons/VE125_randls_0.json,http://54.235.29.9/FacialAge/BNav_EC2/DepthDuration/v2_depth_duration_MTurk/v2_DepthDuration_HTML.html#64,64,1366,625,1366,768,8-21-2022,9-44-20,163,depth_duration_stimuli/000758_2014-06-08_22-05-08_260595134347_rgbf000085-resize_0/000758_2014-06-08_22-05-08_260595134347_rgbf000085-resize_0-target.png,125,3.3810000000000002,90,2851,124,meters,jsons/VE125_randls_0.json,1139518,2527827,25,Man
163,254234,DepthScenes,duration_manipulation_targetAtFixation,jsons/VE125_randls_0.json,http://54.235.29.9/FacialAge/BNav_EC2/DepthDuration/v2_depth_duration_MTurk/v2_DepthDuration_HTML.html#64,64,1366,625,1366,768,8-21-2022,9-44-20,164,depth_duration_stimuli/000854_2014-06-09_19-43-13_260595134347_rgbf000066-resize_0/000854_2014-06-09_19-43-13_260595134347_rgbf000066-resize_0-target.png,125,3.068,5003,3834,124,meters,jsons/VE125_randls_0.json,1139518,2527827,25,Man
