,subjID,experimentName,versionName,sequenceName,url,selected_row,windowWidth,windowHeight,screenWidth,screenHeight,startDate,startTime,trial,stimulus,duration,actual_depth,depth_estimate,trial_RT,log_sceneDuration,unitSelection,seq_filepath,experimentTime,totalTime,age,gender
0,254724,DepthScenes,duration_manipulation_targetAtFixation,jsons/VE125_randls_34.json,http://54.235.29.9/FacialAge/BNav_EC2/DepthDuration/v2_depth_duration_MTurk/v2_DepthDuration_HTML.html#84,84,1920,969,1920,1080,9-3-2022,9-13-17,1,depth_duration_stimuli/000739_2014-06-08_18-45-58_260595134347_rgbf000068-resize_1/000739_2014-06-08_18-45-58_260595134347_rgbf000068-resize_1-target.png,125,3.534,40,3451,125,feet,jsons/VE125_randls_34.json,502486,673326,29,Woman
1,254724,DepthScenes,duration_manipulation_targetAtFixation,jsons/VE125_randls_34.json,http://54.235.29.9/FacialAge/BNav_EC2/DepthDuration/v2_depth_duration_MTurk/v2_DepthDuration_HTML.html#84,84,1920,969,1920,1080,9-3-2022,9-13-17,2,depth_duration_stimuli/000734_2014-06-08_17-39-11_260595134347_rgbf000128-resize_2/000734_2014-06-08_17-39-11_260595134347_rgbf000128-resize_2-target.png,125,4.098,20,2747,138,feet,jsons/VE125_randls_34.json,502486,673326,29,Woman
2,254724,DepthScenes,duration_manipulation_targetAtFixation,jsons/VE125_randls_34.json,http://54.235.29.9/FacialAge/BNav_EC2/DepthDuration/v2_depth_duration_MTurk/v2_DepthDuration_HTML.html#84,84,1920,969,1920,1080,9-3-2022,9-13-17,3,depth_duration_stimuli/000788_2014-06-08_22-34-36_260595134347_rgbf000131-resize_1/000788_2014-06-08_22-34-36_260595134347_rgbf000131-resize_1-target.png,125,3.359,10,2584,124,feet,jsons/VE125_randls_34.json,502486,673326,29,Woman
3,254724,DepthScenes,duration_manipulation_targetAtFixation,jsons/VE125_randls_34.json,http://54.235.29.9/FacialAge/BNav_EC2/DepthDuration/v2_depth_duration_MTurk/v2_DepthDuration_HTML.html#84,84,1920,969,1920,1080,9-3-2022,9-13-17,4,depth_duration_stimuli/001235_2014-06-17_16-37-36_260595134347_rgbf000084-resize_4/001235_2014-06-17_16-37-36_260595134347_rgbf000084-resize_4-target.png,125,3.6605,15,2625,125,feet,jsons/VE125_randls_34.json,502486,673326,29,Woman
4,254724,DepthScenes,duration_manipulation_targetAtFixation,jsons/VE125_randls_34.json,http://54.235.29.9/FacialAge/BNav_EC2/DepthDuration/v2_depth_duration_MTurk/v2_DepthDuration_HTML.html#84,84,1920,969,1920,1080,9-3-2022,9-13-17,5,depth_duration_stimuli/000493_2014-06-09_21-01-18_260595134347_rgbf000196-resize_3/000493_2014-06-09_21-01-18_260595134347_rgbf000196-resize_3-target.png,125,3.44,10,2503,122,feet,jsons/VE125_randls_34.json,502486,673326,29,Woman
5,254724,DepthScenes,duration_manipulation_targetAtFixation,jsons/VE125_randls_34.json,http://54.235.29.9/FacialAge/BNav_EC2/DepthDuration/v2_depth_duration_MTurk/v2_DepthDuration_HTML.html#84,84,1920,969,1920,1080,9-3-2022,9-13-17,6,depth_duration_stimuli/000191_2014-05-12_17-07-38_260595134347_rgbf000199-resize_0/000191_2014-05-12_17-07-38_260595134347_rgbf000199-resize_0-target.png,125,3.7995,20,3126,123,feet,jsons/VE125_randls_34.json,502486,673326,29,Woman
6,254724,DepthScenes,duration_manipulation_targetAtFixation,jsons/VE125_randls_34.json,http://54.235.29.9/FacialAge/BNav_EC2/DepthDuration/v2_depth_duration_MTurk/v2_DepthDuration_HTML.html#84,84,1920,969,1920,1080,9-3-2022,9-13-17,7,depth_duration_stimuli/002213_2014-06-28_18-37-58_260595134347_rgbf000055-resize_1/002213_2014-06-28_18-37-58_260595134347_rgbf000055-resize_1-target.png,125,3.62,25,3292,135,feet,jsons/VE125_randls_34.json,502486,673326,29,Woman
7,254724,DepthScenes,duration_manipulation_targetAtFixation,jsons/VE125_randls_34.json,http://54.235.29.9/FacialAge/BNav_EC2/DepthDuration/v2_depth_duration_MTurk/v2_DepthDuration_HTML.html#84,84,1920,969,1920,1080,9-3-2022,9-13-17,8,depth_duration_stimuli/000691_2014-06-08_13-08-50_260595134347_rgbf000132-resize_3/000691_2014-06-08_13-08-50_260595134347_rgbf000132-resize_3-target.png,125,4.1530000000000005,25,3320,132,feet,jsons/VE125_randls_34.json,502486,673326,29,Woman
8,254724,DepthScenes,duration_manipulation_targetAtFixation,jsons/VE125_randls_34.json,http://54.235.29.9/FacialAge/BNav_EC2/DepthDuration/v2_depth_duration_MTurk/v2_DepthDuration_HTML.html#84,84,1920,969,1920,1080,9-3-2022,9-13-17,9,depth_duration_stimuli/002663_2014-06-13_15-50-26_094959634447_rgbf000075-resize_1/002663_2014-06-13_15-50-26_094959634447_rgbf000075-resize_1-target.png,125,4.7495,25,1947,131,feet,jsons/VE125_randls_34.json,502486,673326,29,Woman
9,254724,DepthScenes,duration_manipulation_targetAtFixation,jsons/VE125_randls_34.json,http://54.235.29.9/FacialAge/BNav_EC2/DepthDuration/v2_depth_duration_MTurk/v2_DepthDuration_HTML.html#84,84,1920,969,1920,1080,9-3-2022,9-13-17,10,depth_duration_stimuli/000409_2014-06-04_19-23-33_260595134347_rgbf000067-resize_0/000409_2014-06-04_19-23-33_260595134347_rgbf000067-resize_0-target.png,125,3.7335,10,3457,124,feet,jsons/VE125_randls_34.json,502486,673326,29,Woman
10,254724,DepthScenes,duration_manipulation_targetAtFixation,jsons/VE125_randls_34.json,http://54.235.29.9/FacialAge/BNav_EC2/DepthDuration/v2_depth_duration_MTurk/v2_DepthDuration_HTML.html#84,84,1920,969,1920,1080,9-3-2022,9-13-17,11,depth_duration_stimuli/000486_2014-06-09_20-47-20_260595134347_rgbf000143-resize_2/000486_2014-06-09_20-47-20_260595134347_rgbf000143-resize_2-target.png,125,4.8325,5,2548,115,feet,jsons/VE125_randls_34.json,502486,673326,29,Woman
11,254724,DepthScenes,duration_manipulation_targetAtFixation,jsons/VE125_randls_34.json,http://54.235.29.9/FacialAge/BNav_EC2/DepthDuration/v2_depth_duration_MTurk/v2_DepthDuration_HTML.html#84,84,1920,969,1920,1080,9-3-2022,9-13-17,12,depth_duration_stimuli/003083_2014-06-15_15-21-03_094959634447_rgbf000063-resize_1/003083_2014-06-15_15-21-03_094959634447_rgbf000063-resize_1-target.png,125,4.1405,10,2619,135,feet,jsons/VE125_randls_34.json,502486,673326,29,Woman
12,254724,DepthScenes,duration_manipulation_targetAtFixation,jsons/VE125_randls_34.json,http://54.235.29.9/FacialAge/BNav_EC2/DepthDuration/v2_depth_duration_MTurk/v2_DepthDuration_HTML.html#84,84,1920,969,1920,1080,9-3-2022,9-13-17,13,depth_duration_stimuli/000569_2014-06-09_22-51-47_260595134347_rgbf000141-resize_3/000569_2014-06-09_22-51-47_260595134347_rgbf000141-resize-original.jpg,125,4.512,0,1802,121,feet,jsons/VE125_randls_34.json,502486,673326,29,Woman
13,254724,DepthScenes,duration_manipulation_targetAtFixation,jsons/VE125_randls_34.json,http://54.235.29.9/FacialAge/BNav_EC2/DepthDuration/v2_depth_duration_MTurk/v2_DepthDuration_HTML.html#84,84,1920,969,1920,1080,9-3-2022,9-13-17,14,depth_duration_stimuli/000522_2014-06-08_13-35-06_260595134347_rgbf000244-resize_1/000522_2014-06-08_13-35-06_260595134347_rgbf000244-resize_1-target.png,125,2.3715,1,2248,118,feet,jsons/VE125_randls_34.json,502486,673326,29,Woman
14,254724,DepthScenes,duration_manipulation_targetAtFixation,jsons/VE125_randls_34.json,http://54.235.29.9/FacialAge/BNav_EC2/DepthDuration/v2_depth_duration_MTurk/v2_DepthDuration_HTML.html#84,84,1920,969,1920,1080,9-3-2022,9-13-17,15,depth_duration_stimuli/002949_2014-06-26_15-57-42_094959634447_rgbf000079-resize_1/002949_2014-06-26_15-57-42_094959634447_rgbf000079-resize_1-target.png,125,1.8915,3,2128,114,feet,jsons/VE125_randls_34.json,502486,673326,29,Woman
15,254724,DepthScenes,duration_manipulation_targetAtFixation,jsons/VE125_randls_34.json,http://54.235.29.9/FacialAge/BNav_EC2/DepthDuration/v2_depth_duration_MTurk/v2_DepthDuration_HTML.html#84,84,1920,969,1920,1080,9-3-2022,9-13-17,16,depth_duration_stimuli/001570_2014-06-20_17-21-09_260595134347_rgbf000135-resize_4/001570_2014-06-20_17-21-09_260595134347_rgbf000135-resize_4-target.png,125,4.467,6,3992,120,feet,jsons/VE125_randls_34.json,502486,673326,29,Woman
16,254724,DepthScenes,duration_manipulation_targetAtFixation,jsons/VE125_randls_34.json,http://54.235.29.9/FacialAge/BNav_EC2/DepthDuration/v2_depth_duration_MTurk/v2_DepthDuration_HTML.html#84,84,1920,969,1920,1080,9-3-2022,9-13-17,17,depth_duration_stimuli/001392_2014-06-19_16-07-59_260595134347_rgbf000046-resize_1/001392_2014-06-19_16-07-59_260595134347_rgbf000046-resize_1-target.png,125,4.135,10,2480,117,feet,jsons/VE125_randls_34.json,502486,673326,29,Woman
17,254724,DepthScenes,duration_manipulation_targetAtFixation,jsons/VE125_randls_34.json,http://54.235.29.9/FacialAge/BNav_EC2/DepthDuration/v2_depth_duration_MTurk/v2_DepthDuration_HTML.html#84,84,1920,969,1920,1080,9-3-2022,9-13-17,18,depth_duration_stimuli/001158_2014-06-17_15-32-16_260595134347_rgbf000138-resize_2/001158_2014-06-17_15-32-16_260595134347_rgbf000138-resize_2-target.png,125,4.5315,8,4556,128,feet,jsons/VE125_randls_34.json,502486,673326,29,Woman
18,254724,DepthScenes,duration_manipulation_targetAtFixation,jsons/VE125_randls_34.json,http://54.235.29.9/FacialAge/BNav_EC2/DepthDuration/v2_depth_duration_MTurk/v2_DepthDuration_HTML.html#84,84,1920,969,1920,1080,9-3-2022,9-13-17,19,depth_duration_stimuli/000556_2014-06-09_22-42-56_260595134347_rgbf000214-resize_1/000556_2014-06-09_22-42-56_260595134347_rgbf000214-resize_1-target.png,125,4.8415,10,2479,123,feet,jsons/VE125_randls_34.json,502486,673326,29,Woman
19,254724,DepthScenes,duration_manipulation_targetAtFixation,jsons/VE125_randls_34.json,http://54.235.29.9/FacialAge/BNav_EC2/DepthDuration/v2_depth_duration_MTurk/v2_DepthDuration_HTML.html#84,84,1920,969,1920,1080,9-3-2022,9-13-17,20,depth_duration_stimuli/002118_2014-06-25_20-32-08_260595134347_rgbf000078-resize_1/002118_2014-06-25_20-32-08_260595134347_rgbf000078-resize_1-target.png,125,2.6460000000000004,5,2254,125,feet,jsons/VE125_randls_34.json,502486,673326,29,Woman
20,254724,DepthScenes,duration_manipulation_targetAtFixation,jsons/VE125_randls_34.json,http://54.235.29.9/FacialAge/BNav_EC2/DepthDuration/v2_depth_duration_MTurk/v2_DepthDuration_HTML.html#84,84,1920,969,1920,1080,9-3-2022,9-13-17,21,depth_duration_stimuli/001516_2014-06-20_16-25-09_260595134347_rgbf000076-resize_2/001516_2014-06-20_16-25-09_260595134347_rgbf000076-resize_2-target.png,125,1.7445,5,1939,125,feet,jsons/VE125_randls_34.json,502486,673326,29,Woman
21,254724,DepthScenes,duration_manipulation_targetAtFixation,jsons/VE125_randls_34.json,http://54.235.29.9/FacialAge/BNav_EC2/DepthDuration/v2_depth_duration_MTurk/v2_DepthDuration_HTML.html#84,84,1920,969,1920,1080,9-3-2022,9-13-17,22,depth_duration_stimuli/000773_2014-06-08_22-24-54_260595134347_rgbf000093-resize_1/000773_2014-06-08_22-24-54_260595134347_rgbf000093-resize_1-target.png,125,4.973,10,3115,125,feet,jsons/VE125_randls_34.json,502486,673326,29,Woman
22,254724,DepthScenes,duration_manipulation_targetAtFixation,jsons/VE125_randls_34.json,http://54.235.29.9/FacialAge/BNav_EC2/DepthDuration/v2_depth_duration_MTurk/v2_DepthDuration_HTML.html#84,84,1920,969,1920,1080,9-3-2022,9-13-17,23,depth_duration_stimuli/002414_2014-06-28_20-24-58_260595134347_rgbf000067-resize_4/002414_2014-06-28_20-24-58_260595134347_rgbf000067-resize_4-target.png,125,4.363,10,2327,117,feet,jsons/VE125_randls_34.json,502486,673326,29,Woman
23,254724,DepthScenes,duration_manipulation_targetAtFixation,jsons/VE125_randls_34.json,http://54.235.29.9/FacialAge/BNav_EC2/DepthDuration/v2_depth_duration_MTurk/v2_DepthDuration_HTML.html#84,84,1920,969,1920,1080,9-3-2022,9-13-17,24,depth_duration_stimuli/002375_2014-06-28_20-13-44_260595134347_rgbf000032-resize_1/002375_2014-06-28_20-13-44_260595134347_rgbf000032-resize_1-target.png,125,4.0175,6,3485,119,feet,jsons/VE125_randls_34.json,502486,673326,29,Woman
24,254724,DepthScenes,duration_manipulation_targetAtFixation,jsons/VE125_randls_34.json,http://54.235.29.9/FacialAge/BNav_EC2/DepthDuration/v2_depth_duration_MTurk/v2_DepthDuration_HTML.html#84,84,1920,969,1920,1080,9-3-2022,9-13-17,25,depth_duration_stimuli/002657_2014-06-13_15-29-54_094959634447_rgbf000150-resize_1/002657_2014-06-13_15-29-54_094959634447_rgbf000150-resize_1-target.png,125,4.919,10,3515,124,feet,jsons/VE125_randls_34.json,502486,673326,29,Woman
25,254724,DepthScenes,duration_manipulation_targetAtFixation,jsons/VE125_randls_34.json,http://54.235.29.9/FacialAge/BNav_EC2/DepthDuration/v2_depth_duration_MTurk/v2_DepthDuration_HTML.html#84,84,1920,969,1920,1080,9-3-2022,9-13-17,26,depth_duration_stimuli/002057_2014-06-24_21-00-13_260595134347_rgbf000120-resize_1/002057_2014-06-24_21-00-13_260595134347_rgbf000120-resize_1-target.png,125,2.967,5,2448,120,feet,jsons/VE125_randls_34.json,502486,673326,29,Woman
26,254724,DepthScenes,duration_manipulation_targetAtFixation,jsons/VE125_randls_34.json,http://54.235.29.9/FacialAge/BNav_EC2/DepthDuration/v2_depth_duration_MTurk/v2_DepthDuration_HTML.html#84,84,1920,969,1920,1080,9-3-2022,9-13-17,27,depth_duration_stimuli/000709_2014-06-08_13-51-55_260595134347_rgbf000068-resize_3/000709_2014-06-08_13-51-55_260595134347_rgbf000068-resize_3-target.png,125,1.8030000000000002,5,1920,127,feet,jsons/VE125_randls_34.json,502486,673326,29,Woman
27,254724,DepthScenes,duration_manipulation_targetAtFixation,jsons/VE125_randls_34.json,http://54.235.29.9/FacialAge/BNav_EC2/DepthDuration/v2_depth_duration_MTurk/v2_DepthDuration_HTML.html#84,84,1920,969,1920,1080,9-3-2022,9-13-17,28,depth_duration_stimuli/001167_2014-06-17_15-38-07_260595134347_rgbf000108-resize_0/001167_2014-06-17_15-38-07_260595134347_rgbf000108-resize_0-target.png,125,1.8505,2,1752,119,feet,jsons/VE125_randls_34.json,502486,673326,29,Woman
28,254724,DepthScenes,duration_manipulation_targetAtFixation,jsons/VE125_randls_34.json,http://54.235.29.9/FacialAge/BNav_EC2/DepthDuration/v2_depth_duration_MTurk/v2_DepthDuration_HTML.html#84,84,1920,969,1920,1080,9-3-2022,9-13-17,29,depth_duration_stimuli/003587_2014-05-23_16-48-02_094959634447_rgbf002384-resize_2/003587_2014-05-23_16-48-02_094959634447_rgbf002384-resize_2-target.png,125,1.357,1,1583,119,feet,jsons/VE125_randls_34.json,502486,673326,29,Woman
29,254724,DepthScenes,duration_manipulation_targetAtFixation,jsons/VE125_randls_34.json,http://54.235.29.9/FacialAge/BNav_EC2/DepthDuration/v2_depth_duration_MTurk/v2_DepthDuration_HTML.html#84,84,1920,969,1920,1080,9-3-2022,9-13-17,30,depth_duration_stimuli/000375_2014-06-08_11-17-29_260595134347_rgbf000133-resize_2/000375_2014-06-08_11-17-29_260595134347_rgbf000133-resize-original.jpg,125,4.718,0,2480,118,feet,jsons/VE125_randls_34.json,502486,673326,29,Woman
30,254724,DepthScenes,duration_manipulation_targetAtFixation,jsons/VE125_randls_34.json,http://54.235.29.9/FacialAge/BNav_EC2/DepthDuration/v2_depth_duration_MTurk/v2_DepthDuration_HTML.html#84,84,1920,969,1920,1080,9-3-2022,9-13-17,31,depth_duration_stimuli/000414_2014-06-04_19-49-13_260595134347_rgbf000044-resize_0/000414_2014-06-04_19-49-13_260595134347_rgbf000044-resize_0-target.png,125,4.329,10,3645,123,feet,jsons/VE125_randls_34.json,502486,673326,29,Woman
31,254724,DepthScenes,duration_manipulation_targetAtFixation,jsons/VE125_randls_34.json,http://54.235.29.9/FacialAge/BNav_EC2/DepthDuration/v2_depth_duration_MTurk/v2_DepthDuration_HTML.html#84,84,1920,969,1920,1080,9-3-2022,9-13-17,32,depth_duration_stimuli/003129_2014-05-12_10-48-10_094959634447_rgbf000100-resize_0/003129_2014-05-12_10-48-10_094959634447_rgbf000100-resize_0-target.png,125,4.9305,8,2386,125,feet,jsons/VE125_randls_34.json,502486,673326,29,Woman
32,254724,DepthScenes,duration_manipulation_targetAtFixation,jsons/VE125_randls_34.json,http://54.235.29.9/FacialAge/BNav_EC2/DepthDuration/v2_depth_duration_MTurk/v2_DepthDuration_HTML.html#84,84,1920,969,1920,1080,9-3-2022,9-13-17,33,depth_duration_stimuli/001449_2014-06-19_17-01-27_260595134347_rgbf000116-resize_2/001449_2014-06-19_17-01-27_260595134347_rgbf000116-resize_2-target.png,125,3.452,5,1908,116,feet,jsons/VE125_randls_34.json,502486,673326,29,Woman
33,254724,DepthScenes,duration_manipulation_targetAtFixation,jsons/VE125_randls_34.json,http://54.235.29.9/FacialAge/BNav_EC2/DepthDuration/v2_depth_duration_MTurk/v2_DepthDuration_HTML.html#84,84,1920,969,1920,1080,9-3-2022,9-13-17,34,depth_duration_stimuli/001450_2014-06-19_17-02-03_260595134347_rgbf000203-resize_4/001450_2014-06-19_17-02-03_260595134347_rgbf000203-resize_4-target.png,125,4.0106666666667,8,2660,120,feet,jsons/VE125_randls_34.json,502486,673326,29,Woman
34,254724,DepthScenes,duration_manipulation_targetAtFixation,jsons/VE125_randls_34.json,http://54.235.29.9/FacialAge/BNav_EC2/DepthDuration/v2_depth_duration_MTurk/v2_DepthDuration_HTML.html#84,84,1920,969,1920,1080,9-3-2022,9-13-17,35,depth_duration_stimuli/001133_2014-06-17_14-49-16_260595134347_rgbf000100-resize_0/001133_2014-06-17_14-49-16_260595134347_rgbf000100-resize_0-target.png,125,4.2115,10,3503,129,feet,jsons/VE125_randls_34.json,502486,673326,29,Woman
35,254724,DepthScenes,duration_manipulation_targetAtFixation,jsons/VE125_randls_34.json,http://54.235.29.9/FacialAge/BNav_EC2/DepthDuration/v2_depth_duration_MTurk/v2_DepthDuration_HTML.html#84,84,1920,969,1920,1080,9-3-2022,9-13-17,36,depth_duration_stimuli/001132_2014-06-17_14-48-54_260595134347_rgbf000100-resize_2/001132_2014-06-17_14-48-54_260595134347_rgbf000100-resize_2-target.png,125,3.753,11,4341,130,feet,jsons/VE125_randls_34.json,502486,673326,29,Woman
36,254724,DepthScenes,duration_manipulation_targetAtFixation,jsons/VE125_randls_34.json,http://54.235.29.9/FacialAge/BNav_EC2/DepthDuration/v2_depth_duration_MTurk/v2_DepthDuration_HTML.html#84,84,1920,969,1920,1080,9-3-2022,9-13-17,37,depth_duration_stimuli/000470_2014-06-09_19-42-40_260595134347_rgbf000094-resize_1/000470_2014-06-09_19-42-40_260595134347_rgbf000094-resize_1-target.png,125,1.831,2,2200,117,feet,jsons/VE125_randls_34.json,502486,673326,29,Woman
37,254724,DepthScenes,duration_manipulation_targetAtFixation,jsons/VE125_randls_34.json,http://54.235.29.9/FacialAge/BNav_EC2/DepthDuration/v2_depth_duration_MTurk/v2_DepthDuration_HTML.html#84,84,1920,969,1920,1080,9-3-2022,9-13-17,38,depth_duration_stimuli/000109_2014-05-14_23-41-52_260595134347_rgbf000035-resize_9/000109_2014-05-14_23-41-52_260595134347_rgbf000035-resize_9-target.png,125,1.3545,0,2060,111,feet,jsons/VE125_randls_34.json,502486,673326,29,Woman
38,254724,DepthScenes,duration_manipulation_targetAtFixation,jsons/VE125_randls_34.json,http://54.235.29.9/FacialAge/BNav_EC2/DepthDuration/v2_depth_duration_MTurk/v2_DepthDuration_HTML.html#84,84,1920,969,1920,1080,9-3-2022,9-13-17,39,depth_duration_stimuli/000469_2014-06-09_19-42-10_260595134347_rgbf000081-resize_1/000469_2014-06-09_19-42-10_260595134347_rgbf000081-resize_1-target.png,125,1.652,1,3661,123,feet,jsons/VE125_randls_34.json,502486,673326,29,Woman
39,254724,DepthScenes,duration_manipulation_targetAtFixation,jsons/VE125_randls_34.json,http://54.235.29.9/FacialAge/BNav_EC2/DepthDuration/v2_depth_duration_MTurk/v2_DepthDuration_HTML.html#84,84,1920,969,1920,1080,9-3-2022,9-13-17,40,depth_duration_stimuli/000483_2014-06-09_20-41-45_260595134347_rgbf000116-resize_4/000483_2014-06-09_20-41-45_260595134347_rgbf000116-resize_4-target.png,125,1.337,1,2323,133,feet,jsons/VE125_randls_34.json,502486,673326,29,Woman
40,254724,DepthScenes,duration_manipulation_targetAtFixation,jsons/VE125_randls_34.json,http://54.235.29.9/FacialAge/BNav_EC2/DepthDuration/v2_depth_duration_MTurk/v2_DepthDuration_HTML.html#84,84,1920,969,1920,1080,9-3-2022,9-13-17,41,depth_duration_stimuli/002784_2014-06-22_19-26-30_094959634447_rgbf000083-resize_3/002784_2014-06-22_19-26-30_094959634447_rgbf000083-resize_3-target.png,125,1.8046666666667,1,1545,139,feet,jsons/VE125_randls_34.json,502486,673326,29,Woman
41,254724,DepthScenes,duration_manipulation_targetAtFixation,jsons/VE125_randls_34.json,http://54.235.29.9/FacialAge/BNav_EC2/DepthDuration/v2_depth_duration_MTurk/v2_DepthDuration_HTML.html#84,84,1920,969,1920,1080,9-3-2022,9-13-17,42,depth_duration_stimuli/001100_2014-06-15_17-46-26_260595134347_rgbf000225-resize_2/001100_2014-06-15_17-46-26_260595134347_rgbf000225-resize_2-target.png,125,2.24,1,1589,125,feet,jsons/VE125_randls_34.json,502486,673326,29,Woman
42,254724,DepthScenes,duration_manipulation_targetAtFixation,jsons/VE125_randls_34.json,http://54.235.29.9/FacialAge/BNav_EC2/DepthDuration/v2_depth_duration_MTurk/v2_DepthDuration_HTML.html#84,84,1920,969,1920,1080,9-3-2022,9-13-17,43,depth_duration_stimuli/002989_2014-06-15_12-25-03_094959634447_rgbf000150-resize_3/002989_2014-06-15_12-25-03_094959634447_rgbf000150-resize_3-target.png,125,4.1975,10,5562,122,feet,jsons/VE125_randls_34.json,502486,673326,29,Woman
43,254724,DepthScenes,duration_manipulation_targetAtFixation,jsons/VE125_randls_34.json,http://54.235.29.9/FacialAge/BNav_EC2/DepthDuration/v2_depth_duration_MTurk/v2_DepthDuration_HTML.html#84,84,1920,969,1920,1080,9-3-2022,9-13-17,44,depth_duration_stimuli/000866_2014-06-09_20-45-42_260595134347_rgbf000139-resize_1/000866_2014-06-09_20-45-42_260595134347_rgbf000139-resize_1-target.png,125,3.2155,5,2603,126,feet,jsons/VE125_randls_34.json,502486,673326,29,Woman
44,254724,DepthScenes,duration_manipulation_targetAtFixation,jsons/VE125_randls_34.json,http://54.235.29.9/FacialAge/BNav_EC2/DepthDuration/v2_depth_duration_MTurk/v2_DepthDuration_HTML.html#84,84,1920,969,1920,1080,9-3-2022,9-13-17,45,depth_duration_stimuli/000787_2014-06-08_22-33-53_260595134347_rgbf000175-resize_1/000787_2014-06-08_22-33-53_260595134347_rgbf000175-resize-original.jpg,125,4.784,0,1922,133,feet,jsons/VE125_randls_34.json,502486,673326,29,Woman
45,254724,DepthScenes,duration_manipulation_targetAtFixation,jsons/VE125_randls_34.json,http://54.235.29.9/FacialAge/BNav_EC2/DepthDuration/v2_depth_duration_MTurk/v2_DepthDuration_HTML.html#84,84,1920,969,1920,1080,9-3-2022,9-13-17,46,depth_duration_stimuli/003070_2014-06-15_14-58-27_094959634447_rgbf000150-resize_3/003070_2014-06-15_14-58-27_094959634447_rgbf000150-resize_3-target.png,125,2.9415,4,2832,111,feet,jsons/VE125_randls_34.json,502486,673326,29,Woman
46,254724,DepthScenes,duration_manipulation_targetAtFixation,jsons/VE125_randls_34.json,http://54.235.29.9/FacialAge/BNav_EC2/DepthDuration/v2_depth_duration_MTurk/v2_DepthDuration_HTML.html#84,84,1920,969,1920,1080,9-3-2022,9-13-17,47,depth_duration_stimuli/000943_2014-06-09_19-31-07_260595134347_rgbf000128-resize_1/000943_2014-06-09_19-31-07_260595134347_rgbf000128-resize_1-target.png,125,1.9765,2,1771,124,feet,jsons/VE125_randls_34.json,502486,673326,29,Woman
47,254724,DepthScenes,duration_manipulation_targetAtFixation,jsons/VE125_randls_34.json,http://54.235.29.9/FacialAge/BNav_EC2/DepthDuration/v2_depth_duration_MTurk/v2_DepthDuration_HTML.html#84,84,1920,969,1920,1080,9-3-2022,9-13-17,48,depth_duration_stimuli/003292_2014-05-14_21-53-49_094959634447_rgbf000100-resize_2/003292_2014-05-14_21-53-49_094959634447_rgbf000100-resize_2-target.png,125,3.4815,3,1833,129,feet,jsons/VE125_randls_34.json,502486,673326,29,Woman
48,254724,DepthScenes,duration_manipulation_targetAtFixation,jsons/VE125_randls_34.json,http://54.235.29.9/FacialAge/BNav_EC2/DepthDuration/v2_depth_duration_MTurk/v2_DepthDuration_HTML.html#84,84,1920,969,1920,1080,9-3-2022,9-13-17,49,depth_duration_stimuli/002639_2014-06-24_14-51-37_094959634447_rgbf000074-resize_4/002639_2014-06-24_14-51-37_094959634447_rgbf000074-resize_4-target.png,125,4.0375,8,2730,132,feet,jsons/VE125_randls_34.json,502486,673326,29,Woman
49,254724,DepthScenes,duration_manipulation_targetAtFixation,jsons/VE125_randls_34.json,http://54.235.29.9/FacialAge/BNav_EC2/DepthDuration/v2_depth_duration_MTurk/v2_DepthDuration_HTML.html#84,84,1920,969,1920,1080,9-3-2022,9-13-17,50,depth_duration_stimuli/002570_2014-06-24_13-59-54_094959634447_rgbf000059-resize_0/002570_2014-06-24_13-59-54_094959634447_rgbf000059-resize_0-target.png,125,4.037,2,2668,124,feet,jsons/VE125_randls_34.json,502486,673326,29,Woman
50,254724,DepthScenes,duration_manipulation_targetAtFixation,jsons/VE125_randls_34.json,http://54.235.29.9/FacialAge/BNav_EC2/DepthDuration/v2_depth_duration_MTurk/v2_DepthDuration_HTML.html#84,84,1920,969,1920,1080,9-3-2022,9-13-17,51,depth_duration_stimuli/002467_2014-06-28_20-38-07_260595134347_rgbf000026-resize_2/002467_2014-06-28_20-38-07_260595134347_rgbf000026-resize_2-target.png,125,4.742,10,5027,124,feet,jsons/VE125_randls_34.json,502486,673326,29,Woman
51,254724,DepthScenes,duration_manipulation_targetAtFixation,jsons/VE125_randls_34.json,http://54.235.29.9/FacialAge/BNav_EC2/DepthDuration/v2_depth_duration_MTurk/v2_DepthDuration_HTML.html#84,84,1920,969,1920,1080,9-3-2022,9-13-17,52,depth_duration_stimuli/000917_2014-06-09_22-45-29_260595134347_rgbf000149-resize_3/000917_2014-06-09_22-45-29_260595134347_rgbf000149-resize_3-target.png,125,4.1865,10,2846,122,feet,jsons/VE125_randls_34.json,502486,673326,29,Woman
52,254724,DepthScenes,duration_manipulation_targetAtFixation,jsons/VE125_randls_34.json,http://54.235.29.9/FacialAge/BNav_EC2/DepthDuration/v2_depth_duration_MTurk/v2_DepthDuration_HTML.html#84,84,1920,969,1920,1080,9-3-2022,9-13-17,53,depth_duration_stimuli/002323_2014-06-28_20-01-54_260595134347_rgbf000051-resize_4/002323_2014-06-28_20-01-54_260595134347_rgbf000051-resize_4-target.png,125,3.7310000000000003,9,2221,124,feet,jsons/VE125_randls_34.json,502486,673326,29,Woman
53,254724,DepthScenes,duration_manipulation_targetAtFixation,jsons/VE125_randls_34.json,http://54.235.29.9/FacialAge/BNav_EC2/DepthDuration/v2_depth_duration_MTurk/v2_DepthDuration_HTML.html#84,84,1920,969,1920,1080,9-3-2022,9-13-17,54,depth_duration_stimuli/003492_2014-05-21_15-50-55_094959634447_rgbf000828-resize_1/003492_2014-05-21_15-50-55_094959634447_rgbf000828-resize_1-target.png,125,4.06875,8,2777,123,feet,jsons/VE125_randls_34.json,502486,673326,29,Woman
54,254724,DepthScenes,duration_manipulation_targetAtFixation,jsons/VE125_randls_34.json,http://54.235.29.9/FacialAge/BNav_EC2/DepthDuration/v2_depth_duration_MTurk/v2_DepthDuration_HTML.html#84,84,1920,969,1920,1080,9-3-2022,9-13-17,55,depth_duration_stimuli/002568_2014-06-24_13-59-21_094959634447_rgbf000062-resize_4/002568_2014-06-24_13-59-21_094959634447_rgbf000062-resize_4-target.png,125,3.015,8,2798,133,feet,jsons/VE125_randls_34.json,502486,673326,29,Woman
55,254724,DepthScenes,duration_manipulation_targetAtFixation,jsons/VE125_randls_34.json,http://54.235.29.9/FacialAge/BNav_EC2/DepthDuration/v2_depth_duration_MTurk/v2_DepthDuration_HTML.html#84,84,1920,969,1920,1080,9-3-2022,9-13-17,56,depth_duration_stimuli/001011_2014-06-08_23-18-54_260595134347_rgbf000044-resize_4/001011_2014-06-08_23-18-54_260595134347_rgbf000044-resize_4-target.png,125,2.4730000000000003,5,2628,125,feet,jsons/VE125_randls_34.json,502486,673326,29,Woman
56,254724,DepthScenes,duration_manipulation_targetAtFixation,jsons/VE125_randls_34.json,http://54.235.29.9/FacialAge/BNav_EC2/DepthDuration/v2_depth_duration_MTurk/v2_DepthDuration_HTML.html#84,84,1920,969,1920,1080,9-3-2022,9-13-17,57,depth_duration_stimuli/002875_2014-06-01_15-19-00_094959634447_rgbf000151-resize_1/002875_2014-06-01_15-19-00_094959634447_rgbf000151-resize_1-target.png,125,1.9675,3,1894,122,feet,jsons/VE125_randls_34.json,502486,673326,29,Woman
57,254724,DepthScenes,duration_manipulation_targetAtFixation,jsons/VE125_randls_34.json,http://54.235.29.9/FacialAge/BNav_EC2/DepthDuration/v2_depth_duration_MTurk/v2_DepthDuration_HTML.html#84,84,1920,969,1920,1080,9-3-2022,9-13-17,58,depth_duration_stimuli/001016_2014-06-09_16-16-10_260595134347_rgbf000112-resize_5/001016_2014-06-09_16-16-10_260595134347_rgbf000112-resize_5-target.png,125,1.6565,2,1597,133,feet,jsons/VE125_randls_34.json,502486,673326,29,Woman
58,254724,DepthScenes,duration_manipulation_targetAtFixation,jsons/VE125_randls_34.json,http://54.235.29.9/FacialAge/BNav_EC2/DepthDuration/v2_depth_duration_MTurk/v2_DepthDuration_HTML.html#84,84,1920,969,1920,1080,9-3-2022,9-13-17,59,depth_duration_stimuli/002340_2014-06-28_20-05-46_260595134347_rgbf000113-resize_0/002340_2014-06-28_20-05-46_260595134347_rgbf000113-resize_0-target.png,125,2.4735,10,5577,123,feet,jsons/VE125_randls_34.json,502486,673326,29,Woman
59,254724,DepthScenes,duration_manipulation_targetAtFixation,jsons/VE125_randls_34.json,http://54.235.29.9/FacialAge/BNav_EC2/DepthDuration/v2_depth_duration_MTurk/v2_DepthDuration_HTML.html#84,84,1920,969,1920,1080,9-3-2022,9-13-17,60,depth_duration_stimuli/001808_2014-06-26_20-50-58_260595134347_rgbf000029-resize_1/001808_2014-06-26_20-50-58_260595134347_rgbf000029-resize_1-target.png,125,4.249,8,3484,136,feet,jsons/VE125_randls_34.json,502486,673326,29,Woman
60,254724,DepthScenes,duration_manipulation_targetAtFixation,jsons/VE125_randls_34.json,http://54.235.29.9/FacialAge/BNav_EC2/DepthDuration/v2_depth_duration_MTurk/v2_DepthDuration_HTML.html#84,84,1920,969,1920,1080,9-3-2022,9-13-17,61,depth_duration_stimuli/001815_2014-06-26_20-52-55_260595134347_rgbf000020-resize_0/001815_2014-06-26_20-52-55_260595134347_rgbf000020-resize_0-target.png,125,3.3865,8,3339,120,feet,jsons/VE125_randls_34.json,502486,673326,29,Woman
61,254724,DepthScenes,duration_manipulation_targetAtFixation,jsons/VE125_randls_34.json,http://54.235.29.9/FacialAge/BNav_EC2/DepthDuration/v2_depth_duration_MTurk/v2_DepthDuration_HTML.html#84,84,1920,969,1920,1080,9-3-2022,9-13-17,62,depth_duration_stimuli/001092_2014-06-15_17-34-58_260595134347_rgbf000171-resize_3/001092_2014-06-15_17-34-58_260595134347_rgbf000171-resize_3-target.png,125,2.6935,3,2314,128,feet,jsons/VE125_randls_34.json,502486,673326,29,Woman
62,254724,DepthScenes,duration_manipulation_targetAtFixation,jsons/VE125_randls_34.json,http://54.235.29.9/FacialAge/BNav_EC2/DepthDuration/v2_depth_duration_MTurk/v2_DepthDuration_HTML.html#84,84,1920,969,1920,1080,9-3-2022,9-13-17,63,depth_duration_stimuli/002545_2014-06-24_13-38-53_094959634447_rgbf000080-resize_4/002545_2014-06-24_13-38-53_094959634447_rgbf000080-resize_4-target.png,125,1.9205,3,1769,124,feet,jsons/VE125_randls_34.json,502486,673326,29,Woman
63,254724,DepthScenes,duration_manipulation_targetAtFixation,jsons/VE125_randls_34.json,http://54.235.29.9/FacialAge/BNav_EC2/DepthDuration/v2_depth_duration_MTurk/v2_DepthDuration_HTML.html#84,84,1920,969,1920,1080,9-3-2022,9-13-17,64,depth_duration_stimuli/001199_2014-06-17_16-03-48_260595134347_rgbf000077-resize_0/001199_2014-06-17_16-03-48_260595134347_rgbf000077-resize_0-target.png,125,3.4375,9,2877,121,feet,jsons/VE125_randls_34.json,502486,673326,29,Woman
64,254724,DepthScenes,duration_manipulation_targetAtFixation,jsons/VE125_randls_34.json,http://54.235.29.9/FacialAge/BNav_EC2/DepthDuration/v2_depth_duration_MTurk/v2_DepthDuration_HTML.html#84,84,1920,969,1920,1080,9-3-2022,9-13-17,65,depth_duration_stimuli/000502_2014-06-08_23-02-32_260595134347_rgbf000063-resize_4/000502_2014-06-08_23-02-32_260595134347_rgbf000063-resize_4-target.png,125,2.431,0,2217,119,feet,jsons/VE125_randls_34.json,502486,673326,29,Woman
65,254724,DepthScenes,duration_manipulation_targetAtFixation,jsons/VE125_randls_34.json,http://54.235.29.9/FacialAge/BNav_EC2/DepthDuration/v2_depth_duration_MTurk/v2_DepthDuration_HTML.html#84,84,1920,969,1920,1080,9-3-2022,9-13-17,66,depth_duration_stimuli/001222_2014-06-17_16-24-06_260595134347_rgbf000073-resize_0/001222_2014-06-17_16-24-06_260595134347_rgbf000073-resize-original.jpg,125,1.4385,0,2148,134,feet,jsons/VE125_randls_34.json,502486,673326,29,Woman
66,254724,DepthScenes,duration_manipulation_targetAtFixation,jsons/VE125_randls_34.json,http://54.235.29.9/FacialAge/BNav_EC2/DepthDuration/v2_depth_duration_MTurk/v2_DepthDuration_HTML.html#84,84,1920,969,1920,1080,9-3-2022,9-13-17,67,depth_duration_stimuli/002788_2014-06-22_19-36-03_094959634447_rgbf000088-resize_2/002788_2014-06-22_19-36-03_094959634447_rgbf000088-resize_2-target.png,125,1.6465,5,2667,126,feet,jsons/VE125_randls_34.json,502486,673326,29,Woman
67,254724,DepthScenes,duration_manipulation_targetAtFixation,jsons/VE125_randls_34.json,http://54.235.29.9/FacialAge/BNav_EC2/DepthDuration/v2_depth_duration_MTurk/v2_DepthDuration_HTML.html#84,84,1920,969,1920,1080,9-3-2022,9-13-17,68,depth_duration_stimuli/000749_2014-06-08_21-55-06_260595134347_rgbf000070-resize_2/000749_2014-06-08_21-55-06_260595134347_rgbf000070-resize_2-target.png,125,2.331,4,2157,135,feet,jsons/VE125_randls_34.json,502486,673326,29,Woman
68,254724,DepthScenes,duration_manipulation_targetAtFixation,jsons/VE125_randls_34.json,http://54.235.29.9/FacialAge/BNav_EC2/DepthDuration/v2_depth_duration_MTurk/v2_DepthDuration_HTML.html#84,84,1920,969,1920,1080,9-3-2022,9-13-17,69,depth_duration_stimuli/001055_2014-06-08_18-45-35_260595134347_rgbf000111-resize_4/001055_2014-06-08_18-45-35_260595134347_rgbf000111-resize_4-target.png,125,2.4290000000000003,4,2155,129,feet,jsons/VE125_randls_34.json,502486,673326,29,Woman
69,254724,DepthScenes,duration_manipulation_targetAtFixation,jsons/VE125_randls_34.json,http://54.235.29.9/FacialAge/BNav_EC2/DepthDuration/v2_depth_duration_MTurk/v2_DepthDuration_HTML.html#84,84,1920,969,1920,1080,9-3-2022,9-13-17,70,depth_duration_stimuli/000549_2014-06-08_22-10-24_260595134347_rgbf000247-resize_3/000549_2014-06-08_22-10-24_260595134347_rgbf000247-resize_3-target.png,125,1.841,2,1772,130,feet,jsons/VE125_randls_34.json,502486,673326,29,Woman
70,254724,DepthScenes,duration_manipulation_targetAtFixation,jsons/VE125_randls_34.json,http://54.235.29.9/FacialAge/BNav_EC2/DepthDuration/v2_depth_duration_MTurk/v2_DepthDuration_HTML.html#84,84,1920,969,1920,1080,9-3-2022,9-13-17,71,depth_duration_stimuli/000506_2014-06-08_23-21-00_260595134347_rgbf000070-resize_7/000506_2014-06-08_23-21-00_260595134347_rgbf000070-resize_7-target.png,125,4.0585,10,3450,113,feet,jsons/VE125_randls_34.json,502486,673326,29,Woman
71,254724,DepthScenes,duration_manipulation_targetAtFixation,jsons/VE125_randls_34.json,http://54.235.29.9/FacialAge/BNav_EC2/DepthDuration/v2_depth_duration_MTurk/v2_DepthDuration_HTML.html#84,84,1920,969,1920,1080,9-3-2022,9-13-17,72,depth_duration_stimuli/003079_2014-06-15_15-18-20_094959634447_rgbf000152-resize_8/003079_2014-06-15_15-18-20_094959634447_rgbf000152-resize_8-target.png,125,2.8775,5,2397,127,feet,jsons/VE125_randls_34.json,502486,673326,29,Woman
72,254724,DepthScenes,duration_manipulation_targetAtFixation,jsons/VE125_randls_34.json,http://54.235.29.9/FacialAge/BNav_EC2/DepthDuration/v2_depth_duration_MTurk/v2_DepthDuration_HTML.html#84,84,1920,969,1920,1080,9-3-2022,9-13-17,73,depth_duration_stimuli/000368_2014-06-09_15-53-01_260595134347_rgbf000155-resize_2/000368_2014-06-09_15-53-01_260595134347_rgbf000155-resize_2-target.png,125,2.4859999999999998,2,2303,125,feet,jsons/VE125_randls_34.json,502486,673326,29,Woman
73,254724,DepthScenes,duration_manipulation_targetAtFixation,jsons/VE125_randls_34.json,http://54.235.29.9/FacialAge/BNav_EC2/DepthDuration/v2_depth_duration_MTurk/v2_DepthDuration_HTML.html#84,84,1920,969,1920,1080,9-3-2022,9-13-17,74,depth_duration_stimuli/002678_2014-06-13_16-15-32_094959634447_rgbf000151-resize_6/002678_2014-06-13_16-15-32_094959634447_rgbf000151-resize_6-target.png,125,2.1830000000000003,5,2705,123,feet,jsons/VE125_randls_34.json,502486,673326,29,Woman
74,254724,DepthScenes,duration_manipulation_targetAtFixation,jsons/VE125_randls_34.json,http://54.235.29.9/FacialAge/BNav_EC2/DepthDuration/v2_depth_duration_MTurk/v2_DepthDuration_HTML.html#84,84,1920,969,1920,1080,9-3-2022,9-13-17,75,depth_duration_stimuli/002445_2014-06-28_20-32-16_260595134347_rgbf000029-resize_4/002445_2014-06-28_20-32-16_260595134347_rgbf000029-resize_4-target.png,125,2.5315,2,1992,127,feet,jsons/VE125_randls_34.json,502486,673326,29,Woman
75,254724,DepthScenes,duration_manipulation_targetAtFixation,jsons/VE125_randls_34.json,http://54.235.29.9/FacialAge/BNav_EC2/DepthDuration/v2_depth_duration_MTurk/v2_DepthDuration_HTML.html#84,84,1920,969,1920,1080,9-3-2022,9-13-17,76,depth_duration_stimuli/000780_2014-06-08_22-28-29_260595134347_rgbf000126-resize_1/000780_2014-06-08_22-28-29_260595134347_rgbf000126-resize_1-target.png,125,3.3825,10,3065,125,feet,jsons/VE125_randls_34.json,502486,673326,29,Woman
76,254724,DepthScenes,duration_manipulation_targetAtFixation,jsons/VE125_randls_34.json,http://54.235.29.9/FacialAge/BNav_EC2/DepthDuration/v2_depth_duration_MTurk/v2_DepthDuration_HTML.html#84,84,1920,969,1920,1080,9-3-2022,9-13-17,77,depth_duration_stimuli/002153_2014-06-25_21-27-18_260595134347_rgbf000038-resize_5/002153_2014-06-25_21-27-18_260595134347_rgbf000038-resize_5-target.png,125,2.505,3,2256,125,feet,jsons/VE125_randls_34.json,502486,673326,29,Woman
77,254724,DepthScenes,duration_manipulation_targetAtFixation,jsons/VE125_randls_34.json,http://54.235.29.9/FacialAge/BNav_EC2/DepthDuration/v2_depth_duration_MTurk/v2_DepthDuration_HTML.html#84,84,1920,969,1920,1080,9-3-2022,9-13-17,78,depth_duration_stimuli/002660_2014-06-13_15-44-18_094959634447_rgbf001878-resize_2/002660_2014-06-13_15-44-18_094959634447_rgbf001878-resize_2-target.png,125,3.576,4,1928,124,feet,jsons/VE125_randls_34.json,502486,673326,29,Woman
78,254724,DepthScenes,duration_manipulation_targetAtFixation,jsons/VE125_randls_34.json,http://54.235.29.9/FacialAge/BNav_EC2/DepthDuration/v2_depth_duration_MTurk/v2_DepthDuration_HTML.html#84,84,1920,969,1920,1080,9-3-2022,9-13-17,79,depth_duration_stimuli/000682_2014-06-08_23-14-58_260595134347_rgbf000041-resize_5/000682_2014-06-08_23-14-58_260595134347_rgbf000041-resize_5-target.png,125,2.7239999999999998,1,2449,126,feet,jsons/VE125_randls_34.json,502486,673326,29,Woman
79,254724,DepthScenes,duration_manipulation_targetAtFixation,jsons/VE125_randls_34.json,http://54.235.29.9/FacialAge/BNav_EC2/DepthDuration/v2_depth_duration_MTurk/v2_DepthDuration_HTML.html#84,84,1920,969,1920,1080,9-3-2022,9-13-17,80,depth_duration_stimuli/001650_2014-06-20_12-09-00_260595134347_rgbf000087-resize_3/001650_2014-06-20_12-09-00_260595134347_rgbf000087-resize_3-target.png,125,1.9505,1,1816,123,feet,jsons/VE125_randls_34.json,502486,673326,29,Woman
80,254724,DepthScenes,duration_manipulation_targetAtFixation,jsons/VE125_randls_34.json,http://54.235.29.9/FacialAge/BNav_EC2/DepthDuration/v2_depth_duration_MTurk/v2_DepthDuration_HTML.html#84,84,1920,969,1920,1080,9-3-2022,9-13-17,81,depth_duration_stimuli/003621_2014-05-23_18-06-08_094959634447_rgbf000101-resize_1/003621_2014-05-23_18-06-08_094959634447_rgbf000101-resize_1-target.png,125,3.9835,10,3272,124,feet,jsons/VE125_randls_34.json,502486,673326,29,Woman
81,254724,DepthScenes,duration_manipulation_targetAtFixation,jsons/VE125_randls_34.json,http://54.235.29.9/FacialAge/BNav_EC2/DepthDuration/v2_depth_duration_MTurk/v2_DepthDuration_HTML.html#84,84,1920,969,1920,1080,9-3-2022,9-13-17,82,depth_duration_stimuli/001584_2014-06-20_11-07-43_260595134347_rgbf000002-resize_1/001584_2014-06-20_11-07-43_260595134347_rgbf000002-resize_1-target.png,125,3.53,5,2488,124,feet,jsons/VE125_randls_34.json,502486,673326,29,Woman
82,254724,DepthScenes,duration_manipulation_targetAtFixation,jsons/VE125_randls_34.json,http://54.235.29.9/FacialAge/BNav_EC2/DepthDuration/v2_depth_duration_MTurk/v2_DepthDuration_HTML.html#84,84,1920,969,1920,1080,9-3-2022,9-13-17,83,depth_duration_stimuli/000009_2014-05-26_14-32-05_260595134347_rgbf000034-resize_3/000009_2014-05-26_14-32-05_260595134347_rgbf000034-resize_3-target.png,125,3.8715,10,2799,123,feet,jsons/VE125_randls_34.json,502486,673326,29,Woman
83,254724,DepthScenes,duration_manipulation_targetAtFixation,jsons/VE125_randls_34.json,http://54.235.29.9/FacialAge/BNav_EC2/DepthDuration/v2_depth_duration_MTurk/v2_DepthDuration_HTML.html#84,84,1920,969,1920,1080,9-3-2022,9-13-17,84,depth_duration_stimuli/001828_2014-06-26_21-40-03_260595134347_rgbf000024-resize_0/001828_2014-06-26_21-40-03_260595134347_rgbf000024-resize_0-target.png,125,4.8260000000000005,10,2553,125,feet,jsons/VE125_randls_34.json,502486,673326,29,Woman
84,254724,DepthScenes,duration_manipulation_targetAtFixation,jsons/VE125_randls_34.json,http://54.235.29.9/FacialAge/BNav_EC2/DepthDuration/v2_depth_duration_MTurk/v2_DepthDuration_HTML.html#84,84,1920,969,1920,1080,9-3-2022,9-13-17,85,depth_duration_stimuli/002279_2014-06-28_18-55-32_260595134347_rgbf000040-resize_5/002279_2014-06-28_18-55-32_260595134347_rgbf000040-resize_5-target.png,125,1.5043333333333,1,1749,118,feet,jsons/VE125_randls_34.json,502486,673326,29,Woman
85,254724,DepthScenes,duration_manipulation_targetAtFixation,jsons/VE125_randls_34.json,http://54.235.29.9/FacialAge/BNav_EC2/DepthDuration/v2_depth_duration_MTurk/v2_DepthDuration_HTML.html#84,84,1920,969,1920,1080,9-3-2022,9-13-17,86,depth_duration_stimuli/000635_2014-06-08_16-38-42_260595134347_rgbf000106-resize_1/000635_2014-06-08_16-38-42_260595134347_rgbf000106-resize_1-target.png,125,2.074,3,2369,122,feet,jsons/VE125_randls_34.json,502486,673326,29,Woman
86,254724,DepthScenes,duration_manipulation_targetAtFixation,jsons/VE125_randls_34.json,http://54.235.29.9/FacialAge/BNav_EC2/DepthDuration/v2_depth_duration_MTurk/v2_DepthDuration_HTML.html#84,84,1920,969,1920,1080,9-3-2022,9-13-17,87,depth_duration_stimuli/002905_2014-06-03_18-04-43_094959634447_rgbf000151-resize_2/002905_2014-06-03_18-04-43_094959634447_rgbf000151-resize_2-target.png,125,2.0295,2,2030,122,feet,jsons/VE125_randls_34.json,502486,673326,29,Woman
87,254724,DepthScenes,duration_manipulation_targetAtFixation,jsons/VE125_randls_34.json,http://54.235.29.9/FacialAge/BNav_EC2/DepthDuration/v2_depth_duration_MTurk/v2_DepthDuration_HTML.html#84,84,1920,969,1920,1080,9-3-2022,9-13-17,88,depth_duration_stimuli/003423_2014-05-21_10-23-26_094959634447_rgbf002665-resize_2/003423_2014-05-21_10-23-26_094959634447_rgbf002665-resize_2-target.png,125,3.2575,8,2632,132,feet,jsons/VE125_randls_34.json,502486,673326,29,Woman
88,254724,DepthScenes,duration_manipulation_targetAtFixation,jsons/VE125_randls_34.json,http://54.235.29.9/FacialAge/BNav_EC2/DepthDuration/v2_depth_duration_MTurk/v2_DepthDuration_HTML.html#84,84,1920,969,1920,1080,9-3-2022,9-13-17,89,depth_duration_stimuli/001175_2014-06-17_15-45-55_260595134347_rgbf000129-resize_4/001175_2014-06-17_15-45-55_260595134347_rgbf000129-resize_4-target.png,125,4.255,15,4580,133,feet,jsons/VE125_randls_34.json,502486,673326,29,Woman
89,254724,DepthScenes,duration_manipulation_targetAtFixation,jsons/VE125_randls_34.json,http://54.235.29.9/FacialAge/BNav_EC2/DepthDuration/v2_depth_duration_MTurk/v2_DepthDuration_HTML.html#84,84,1920,969,1920,1080,9-3-2022,9-13-17,90,depth_duration_stimuli/003490_2014-05-21_15-50-11_094959634447_rgbf000101-resize_3/003490_2014-05-21_15-50-11_094959634447_rgbf000101-resize_3-target.png,125,3.6445,10,3588,111,feet,jsons/VE125_randls_34.json,502486,673326,29,Woman
90,254724,DepthScenes,duration_manipulation_targetAtFixation,jsons/VE125_randls_34.json,http://54.235.29.9/FacialAge/BNav_EC2/DepthDuration/v2_depth_duration_MTurk/v2_DepthDuration_HTML.html#84,84,1920,969,1920,1080,9-3-2022,9-13-17,91,depth_duration_stimuli/002509_2014-06-24_13-19-22_094959634447_rgbf000077-resize_0/002509_2014-06-24_13-19-22_094959634447_rgbf000077-resize_0-target.png,125,1.3065,1,1898,127,feet,jsons/VE125_randls_34.json,502486,673326,29,Woman
91,254724,DepthScenes,duration_manipulation_targetAtFixation,jsons/VE125_randls_34.json,http://54.235.29.9/FacialAge/BNav_EC2/DepthDuration/v2_depth_duration_MTurk/v2_DepthDuration_HTML.html#84,84,1920,969,1920,1080,9-3-2022,9-13-17,92,depth_duration_stimuli/003338_2014-05-20_11-01-23_094959634447_rgbf000051-resize_6/003338_2014-05-20_11-01-23_094959634447_rgbf000051-resize_6-target.png,125,1.693,2,1776,120,feet,jsons/VE125_randls_34.json,502486,673326,29,Woman
92,254724,DepthScenes,duration_manipulation_targetAtFixation,jsons/VE125_randls_34.json,http://54.235.29.9/FacialAge/BNav_EC2/DepthDuration/v2_depth_duration_MTurk/v2_DepthDuration_HTML.html#84,84,1920,969,1920,1080,9-3-2022,9-13-17,93,depth_duration_stimuli/000906_2014-06-08_13-35-43_260595134347_rgbf000155-resize_1/000906_2014-06-08_13-35-43_260595134347_rgbf000155-resize_1-target.png,125,2.8489999999999998,8,2999,126,feet,jsons/VE125_randls_34.json,502486,673326,29,Woman
93,254724,DepthScenes,duration_manipulation_targetAtFixation,jsons/VE125_randls_34.json,http://54.235.29.9/FacialAge/BNav_EC2/DepthDuration/v2_depth_duration_MTurk/v2_DepthDuration_HTML.html#84,84,1920,969,1920,1080,9-3-2022,9-13-17,94,depth_duration_stimuli/002805_2014-06-22_19-54-03_094959634447_rgbf000079-resize_1/002805_2014-06-22_19-54-03_094959634447_rgbf000079-resize_1-target.png,125,3.1439999999999997,5,2131,115,feet,jsons/VE125_randls_34.json,502486,673326,29,Woman
94,254724,DepthScenes,duration_manipulation_targetAtFixation,jsons/VE125_randls_34.json,http://54.235.29.9/FacialAge/BNav_EC2/DepthDuration/v2_depth_duration_MTurk/v2_DepthDuration_HTML.html#84,84,1920,969,1920,1080,9-3-2022,9-13-17,95,depth_duration_stimuli/001056_2014-06-08_18-46-44_260595134347_rgbf000068-resize_0/001056_2014-06-08_18-46-44_260595134347_rgbf000068-resize_0-target.png,125,2.6625,5,2259,131,feet,jsons/VE125_randls_34.json,502486,673326,29,Woman
95,254724,DepthScenes,duration_manipulation_targetAtFixation,jsons/VE125_randls_34.json,http://54.235.29.9/FacialAge/BNav_EC2/DepthDuration/v2_depth_duration_MTurk/v2_DepthDuration_HTML.html#84,84,1920,969,1920,1080,9-3-2022,9-13-17,96,depth_duration_stimuli/002199_2014-06-28_18-33-56_260595134347_rgbf000074-resize_0/002199_2014-06-28_18-33-56_260595134347_rgbf000074-resize_0-target.png,125,1.996,1,1689,115,feet,jsons/VE125_randls_34.json,502486,673326,29,Woman
96,254724,DepthScenes,duration_manipulation_targetAtFixation,jsons/VE125_randls_34.json,http://54.235.29.9/FacialAge/BNav_EC2/DepthDuration/v2_depth_duration_MTurk/v2_DepthDuration_HTML.html#84,84,1920,969,1920,1080,9-3-2022,9-13-17,97,depth_duration_stimuli/001066_2014-06-08_22-03-20_260595134347_rgbf000066-resize_4/001066_2014-06-08_22-03-20_260595134347_rgbf000066-resize_4-target.png,125,4.2330000000000005,15,5812,121,feet,jsons/VE125_randls_34.json,502486,673326,29,Woman
97,254724,DepthScenes,duration_manipulation_targetAtFixation,jsons/VE125_randls_34.json,http://54.235.29.9/FacialAge/BNav_EC2/DepthDuration/v2_depth_duration_MTurk/v2_DepthDuration_HTML.html#84,84,1920,969,1920,1080,9-3-2022,9-13-17,98,depth_duration_stimuli/000742_2014-06-08_18-48-09_260595134347_rgbf000164-resize_4/000742_2014-06-08_18-48-09_260595134347_rgbf000164-resize_4-target.png,125,4.632,10,2761,129,feet,jsons/VE125_randls_34.json,502486,673326,29,Woman
98,254724,DepthScenes,duration_manipulation_targetAtFixation,jsons/VE125_randls_34.json,http://54.235.29.9/FacialAge/BNav_EC2/DepthDuration/v2_depth_duration_MTurk/v2_DepthDuration_HTML.html#84,84,1920,969,1920,1080,9-3-2022,9-13-17,99,depth_duration_stimuli/001540_2014-06-20_17-01-05_260595134347_rgbf000086-resize_2/001540_2014-06-20_17-01-05_260595134347_rgbf000086-resize-original.jpg,125,1.459,0,2253,132,feet,jsons/VE125_randls_34.json,502486,673326,29,Woman
99,254724,DepthScenes,duration_manipulation_targetAtFixation,jsons/VE125_randls_34.json,http://54.235.29.9/FacialAge/BNav_EC2/DepthDuration/v2_depth_duration_MTurk/v2_DepthDuration_HTML.html#84,84,1920,969,1920,1080,9-3-2022,9-13-17,100,depth_duration_stimuli/002039_2014-06-24_20-22-38_260595134347_rgbf000084-resize_1/002039_2014-06-24_20-22-38_260595134347_rgbf000084-resize_1-target.png,125,4.408,10,3657,140,feet,jsons/VE125_randls_34.json,502486,673326,29,Woman
100,254724,DepthScenes,duration_manipulation_targetAtFixation,jsons/VE125_randls_34.json,http://54.235.29.9/FacialAge/BNav_EC2/DepthDuration/v2_depth_duration_MTurk/v2_DepthDuration_HTML.html#84,84,1920,969,1920,1080,9-3-2022,9-13-17,101,depth_duration_stimuli/002103_2014-06-25_20-00-40_260595134347_rgbf000049-resize_0/002103_2014-06-25_20-00-40_260595134347_rgbf000049-resize_0-target.png,125,4.105,15,5370,137,feet,jsons/VE125_randls_34.json,502486,673326,29,Woman
101,254724,DepthScenes,duration_manipulation_targetAtFixation,jsons/VE125_randls_34.json,http://54.235.29.9/FacialAge/BNav_EC2/DepthDuration/v2_depth_duration_MTurk/v2_DepthDuration_HTML.html#84,84,1920,969,1920,1080,9-3-2022,9-13-17,102,depth_duration_stimuli/002748_2014-06-22_19-07-22_094959634447_rgbf000078-resize_1/002748_2014-06-22_19-07-22_094959634447_rgbf000078-resize_1-target.png,125,4.6705,20,2787,119,feet,jsons/VE125_randls_34.json,502486,673326,29,Woman
102,254724,DepthScenes,duration_manipulation_targetAtFixation,jsons/VE125_randls_34.json,http://54.235.29.9/FacialAge/BNav_EC2/DepthDuration/v2_depth_duration_MTurk/v2_DepthDuration_HTML.html#84,84,1920,969,1920,1080,9-3-2022,9-13-17,103,depth_duration_stimuli/002995_2014-06-15_12-31-26_094959634447_rgbf000150-resize_1/002995_2014-06-15_12-31-26_094959634447_rgbf000150-resize_1-target.png,125,3.8360000000000003,10,2518,133,feet,jsons/VE125_randls_34.json,502486,673326,29,Woman
103,254724,DepthScenes,duration_manipulation_targetAtFixation,jsons/VE125_randls_34.json,http://54.235.29.9/FacialAge/BNav_EC2/DepthDuration/v2_depth_duration_MTurk/v2_DepthDuration_HTML.html#84,84,1920,969,1920,1080,9-3-2022,9-13-17,104,depth_duration_stimuli/001810_2014-06-26_20-51-35_260595134347_rgbf000040-resize_3/001810_2014-06-26_20-51-35_260595134347_rgbf000040-resize_3-target.png,125,2.2525,3,1938,128,feet,jsons/VE125_randls_34.json,502486,673326,29,Woman
104,254724,DepthScenes,duration_manipulation_targetAtFixation,jsons/VE125_randls_34.json,http://54.235.29.9/FacialAge/BNav_EC2/DepthDuration/v2_depth_duration_MTurk/v2_DepthDuration_HTML.html#84,84,1920,969,1920,1080,9-3-2022,9-13-17,105,depth_duration_stimuli/003010_2014-06-15_12-54-35_094959634447_rgbf000112-resize_0/003010_2014-06-15_12-54-35_094959634447_rgbf000112-resize_0-target.png,125,3.1185,10,4321,134,feet,jsons/VE125_randls_34.json,502486,673326,29,Woman
105,254724,DepthScenes,duration_manipulation_targetAtFixation,jsons/VE125_randls_34.json,http://54.235.29.9/FacialAge/BNav_EC2/DepthDuration/v2_depth_duration_MTurk/v2_DepthDuration_HTML.html#84,84,1920,969,1920,1080,9-3-2022,9-13-17,106,depth_duration_stimuli/001110_2014-06-15_17-25-28_260595134347_rgbf000150-resize_1/001110_2014-06-15_17-25-28_260595134347_rgbf000150-resize_1-target.png,125,1.7115,3,2870,126,feet,jsons/VE125_randls_34.json,502486,673326,29,Woman
106,254724,DepthScenes,duration_manipulation_targetAtFixation,jsons/VE125_randls_34.json,http://54.235.29.9/FacialAge/BNav_EC2/DepthDuration/v2_depth_duration_MTurk/v2_DepthDuration_HTML.html#84,84,1920,969,1920,1080,9-3-2022,9-13-17,107,depth_duration_stimuli/000927_2014-06-09_16-32-30_260595134347_rgbf000123-resize_3/000927_2014-06-09_16-32-30_260595134347_rgbf000123-resize_3-target.png,125,2.6785,8,2835,135,feet,jsons/VE125_randls_34.json,502486,673326,29,Woman
107,254724,DepthScenes,duration_manipulation_targetAtFixation,jsons/VE125_randls_34.json,http://54.235.29.9/FacialAge/BNav_EC2/DepthDuration/v2_depth_duration_MTurk/v2_DepthDuration_HTML.html#84,84,1920,969,1920,1080,9-3-2022,9-13-17,108,depth_duration_stimuli/002549_2014-06-24_13-41-39_094959634447_rgbf000022-resize_3/002549_2014-06-24_13-41-39_094959634447_rgbf000022-resize_3-target.png,125,1.476,2,2430,116,feet,jsons/VE125_randls_34.json,502486,673326,29,Woman
108,254724,DepthScenes,duration_manipulation_targetAtFixation,jsons/VE125_randls_34.json,http://54.235.29.9/FacialAge/BNav_EC2/DepthDuration/v2_depth_duration_MTurk/v2_DepthDuration_HTML.html#84,84,1920,969,1920,1080,9-3-2022,9-13-17,109,depth_duration_stimuli/002750_2014-06-22_19-08-03_094959634447_rgbf000094-resize_4/002750_2014-06-22_19-08-03_094959634447_rgbf000094-resize_4-target.png,125,2.354,5,2298,136,feet,jsons/VE125_randls_34.json,502486,673326,29,Woman
109,254724,DepthScenes,duration_manipulation_targetAtFixation,jsons/VE125_randls_34.json,http://54.235.29.9/FacialAge/BNav_EC2/DepthDuration/v2_depth_duration_MTurk/v2_DepthDuration_HTML.html#84,84,1920,969,1920,1080,9-3-2022,9-13-17,110,depth_duration_stimuli/000736_2014-06-08_18-24-15_260595134347_rgbf000206-resize_3/000736_2014-06-08_18-24-15_260595134347_rgbf000206-resize_3-target.png,125,3.515,5,1618,127,feet,jsons/VE125_randls_34.json,502486,673326,29,Woman
110,254724,DepthScenes,duration_manipulation_targetAtFixation,jsons/VE125_randls_34.json,http://54.235.29.9/FacialAge/BNav_EC2/DepthDuration/v2_depth_duration_MTurk/v2_DepthDuration_HTML.html#84,84,1920,969,1920,1080,9-3-2022,9-13-17,111,depth_duration_stimuli/000137_2014-05-20_17-04-49_260595134347_rgbf000120-resize_1/000137_2014-05-20_17-04-49_260595134347_rgbf000120-resize_1-target.png,125,3.786,5,1944,133,feet,jsons/VE125_randls_34.json,502486,673326,29,Woman
111,254724,DepthScenes,duration_manipulation_targetAtFixation,jsons/VE125_randls_34.json,http://54.235.29.9/FacialAge/BNav_EC2/DepthDuration/v2_depth_duration_MTurk/v2_DepthDuration_HTML.html#84,84,1920,969,1920,1080,9-3-2022,9-13-17,112,depth_duration_stimuli/002964_2014-06-08_17-46-11_094959634447_rgbf000091-resize_4/002964_2014-06-08_17-46-11_094959634447_rgbf000091-resize_4-target.png,125,1.6909999999999998,1,1502,124,feet,jsons/VE125_randls_34.json,502486,673326,29,Woman
112,254724,DepthScenes,duration_manipulation_targetAtFixation,jsons/VE125_randls_34.json,http://54.235.29.9/FacialAge/BNav_EC2/DepthDuration/v2_depth_duration_MTurk/v2_DepthDuration_HTML.html#84,84,1920,969,1920,1080,9-3-2022,9-13-17,113,depth_duration_stimuli/002136_2014-06-25_21-18-03_260595134347_rgbf000109-resize_3/002136_2014-06-25_21-18-03_260595134347_rgbf000109-resize_3-target.png,125,1.9569999999999999,1,1917,117,feet,jsons/VE125_randls_34.json,502486,673326,29,Woman
113,254724,DepthScenes,duration_manipulation_targetAtFixation,jsons/VE125_randls_34.json,http://54.235.29.9/FacialAge/BNav_EC2/DepthDuration/v2_depth_duration_MTurk/v2_DepthDuration_HTML.html#84,84,1920,969,1920,1080,9-3-2022,9-13-17,114,depth_duration_stimuli/001164_2014-06-17_15-35-46_260595134347_rgbf000085-resize_3/001164_2014-06-17_15-35-46_260595134347_rgbf000085-resize_3-target.png,125,2.354,2,2033,124,feet,jsons/VE125_randls_34.json,502486,673326,29,Woman
114,254724,DepthScenes,duration_manipulation_targetAtFixation,jsons/VE125_randls_34.json,http://54.235.29.9/FacialAge/BNav_EC2/DepthDuration/v2_depth_duration_MTurk/v2_DepthDuration_HTML.html#84,84,1920,969,1920,1080,9-3-2022,9-13-17,115,depth_duration_stimuli/001136_2014-06-17_15-19-41_260595134347_rgbf000076-resize_3/001136_2014-06-17_15-19-41_260595134347_rgbf000076-resize_3-target.png,125,1.8655,2,1825,119,feet,jsons/VE125_randls_34.json,502486,673326,29,Woman
115,254724,DepthScenes,duration_manipulation_targetAtFixation,jsons/VE125_randls_34.json,http://54.235.29.9/FacialAge/BNav_EC2/DepthDuration/v2_depth_duration_MTurk/v2_DepthDuration_HTML.html#84,84,1920,969,1920,1080,9-3-2022,9-13-17,116,depth_duration_stimuli/001170_2014-06-17_15-43-44_260595134347_rgbf000096-resize_6/001170_2014-06-17_15-43-44_260595134347_rgbf000096-resize-original.jpg,125,1.1909999999999998,0,2137,117,feet,jsons/VE125_randls_34.json,502486,673326,29,Woman
116,254724,DepthScenes,duration_manipulation_targetAtFixation,jsons/VE125_randls_34.json,http://54.235.29.9/FacialAge/BNav_EC2/DepthDuration/v2_depth_duration_MTurk/v2_DepthDuration_HTML.html#84,84,1920,969,1920,1080,9-3-2022,9-13-17,117,depth_duration_stimuli/001150_2014-06-17_15-27-34_260595134347_rgbf000108-resize_2/001150_2014-06-17_15-27-34_260595134347_rgbf000108-resize_2-target.png,125,4.0325,2,3417,125,feet,jsons/VE125_randls_34.json,502486,673326,29,Woman
117,254724,DepthScenes,duration_manipulation_targetAtFixation,jsons/VE125_randls_34.json,http://54.235.29.9/FacialAge/BNav_EC2/DepthDuration/v2_depth_duration_MTurk/v2_DepthDuration_HTML.html#84,84,1920,969,1920,1080,9-3-2022,9-13-17,118,depth_duration_stimuli/000665_2014-06-09_20-42-35_260595134347_rgbf000110-resize_1/000665_2014-06-09_20-42-35_260595134347_rgbf000110-resize_1-target.png,125,3.057,5,3005,136,feet,jsons/VE125_randls_34.json,502486,673326,29,Woman
118,254724,DepthScenes,duration_manipulation_targetAtFixation,jsons/VE125_randls_34.json,http://54.235.29.9/FacialAge/BNav_EC2/DepthDuration/v2_depth_duration_MTurk/v2_DepthDuration_HTML.html#84,84,1920,969,1920,1080,9-3-2022,9-13-17,119,depth_duration_stimuli/000692_2014-06-08_13-09-42_260595134347_rgbf000199-resize_2/000692_2014-06-08_13-09-42_260595134347_rgbf000199-resize_2-target.png,125,3.661,8,3102,120,feet,jsons/VE125_randls_34.json,502486,673326,29,Woman
119,254724,DepthScenes,duration_manipulation_targetAtFixation,jsons/VE125_randls_34.json,http://54.235.29.9/FacialAge/BNav_EC2/DepthDuration/v2_depth_duration_MTurk/v2_DepthDuration_HTML.html#84,84,1920,969,1920,1080,9-3-2022,9-13-17,120,depth_duration_stimuli/001094_2014-06-15_17-36-00_260595134347_rgbf000205-resize_0/001094_2014-06-15_17-36-00_260595134347_rgbf000205-resize_0-target.png,125,4.2175,4,3474,113,feet,jsons/VE125_randls_34.json,502486,673326,29,Woman
120,254724,DepthScenes,duration_manipulation_targetAtFixation,jsons/VE125_randls_34.json,http://54.235.29.9/FacialAge/BNav_EC2/DepthDuration/v2_depth_duration_MTurk/v2_DepthDuration_HTML.html#84,84,1920,969,1920,1080,9-3-2022,9-13-17,121,depth_duration_stimuli/001029_2014-06-08_13-17-57_260595134347_rgbf000065-resize_1/001029_2014-06-08_13-17-57_260595134347_rgbf000065-resize_1-target.png,125,3.0835,3,3385,135,feet,jsons/VE125_randls_34.json,502486,673326,29,Woman
121,254724,DepthScenes,duration_manipulation_targetAtFixation,jsons/VE125_randls_34.json,http://54.235.29.9/FacialAge/BNav_EC2/DepthDuration/v2_depth_duration_MTurk/v2_DepthDuration_HTML.html#84,84,1920,969,1920,1080,9-3-2022,9-13-17,122,depth_duration_stimuli/000677_2014-06-08_23-10-32_260595134347_rgbf000158-resize_6/000677_2014-06-08_23-10-32_260595134347_rgbf000158-resize_6-target.png,125,3.556,5,2203,130,feet,jsons/VE125_randls_34.json,502486,673326,29,Woman
122,254724,DepthScenes,duration_manipulation_targetAtFixation,jsons/VE125_randls_34.json,http://54.235.29.9/FacialAge/BNav_EC2/DepthDuration/v2_depth_duration_MTurk/v2_DepthDuration_HTML.html#84,84,1920,969,1920,1080,9-3-2022,9-13-17,123,depth_duration_stimuli/000878_2014-06-08_22-52-45_260595134347_rgbf000045-resize_2/000878_2014-06-08_22-52-45_260595134347_rgbf000045-resize_2-target.png,125,2.092,4,2704,130,feet,jsons/VE125_randls_34.json,502486,673326,29,Woman
123,254724,DepthScenes,duration_manipulation_targetAtFixation,jsons/VE125_randls_34.json,http://54.235.29.9/FacialAge/BNav_EC2/DepthDuration/v2_depth_duration_MTurk/v2_DepthDuration_HTML.html#84,84,1920,969,1920,1080,9-3-2022,9-13-17,124,depth_duration_stimuli/002953_2014-06-08_17-32-18_094959634447_rgbf000059-resize_5/002953_2014-06-08_17-32-18_094959634447_rgbf000059-resize_5-target.png,125,1.551,2,1929,116,feet,jsons/VE125_randls_34.json,502486,673326,29,Woman
124,254724,DepthScenes,duration_manipulation_targetAtFixation,jsons/VE125_randls_34.json,http://54.235.29.9/FacialAge/BNav_EC2/DepthDuration/v2_depth_duration_MTurk/v2_DepthDuration_HTML.html#84,84,1920,969,1920,1080,9-3-2022,9-13-17,125,depth_duration_stimuli/000929_2014-06-09_16-33-19_260595134347_rgbf000139-resize_0/000929_2014-06-09_16-33-19_260595134347_rgbf000139-resize_0-target.png,125,2.8680000000000003,4,2040,126,feet,jsons/VE125_randls_34.json,502486,673326,29,Woman
125,254724,DepthScenes,duration_manipulation_targetAtFixation,jsons/VE125_randls_34.json,http://54.235.29.9/FacialAge/BNav_EC2/DepthDuration/v2_depth_duration_MTurk/v2_DepthDuration_HTML.html#84,84,1920,969,1920,1080,9-3-2022,9-13-17,126,depth_duration_stimuli/000457_2014-06-08_16-52-43_260595134347_rgbf000199-resize_1/000457_2014-06-08_16-52-43_260595134347_rgbf000199-resize_1-target.png,125,3.6489999999999996,5,1653,124,feet,jsons/VE125_randls_34.json,502486,673326,29,Woman
126,254724,DepthScenes,duration_manipulation_targetAtFixation,jsons/VE125_randls_34.json,http://54.235.29.9/FacialAge/BNav_EC2/DepthDuration/v2_depth_duration_MTurk/v2_DepthDuration_HTML.html#84,84,1920,969,1920,1080,9-3-2022,9-13-17,127,depth_duration_stimuli/001417_2014-06-19_16-25-36_260595134347_rgbf000115-resize_5/001417_2014-06-19_16-25-36_260595134347_rgbf000115-resize_5-target.png,125,4.6255,8,2064,137,feet,jsons/VE125_randls_34.json,502486,673326,29,Woman
127,254724,DepthScenes,duration_manipulation_targetAtFixation,jsons/VE125_randls_34.json,http://54.235.29.9/FacialAge/BNav_EC2/DepthDuration/v2_depth_duration_MTurk/v2_DepthDuration_HTML.html#84,84,1920,969,1920,1080,9-3-2022,9-13-17,128,depth_duration_stimuli/003081_2014-06-15_15-19-16_094959634447_rgbf000150-resize_1/003081_2014-06-15_15-19-16_094959634447_rgbf000150-resize_1-target.png,125,3.9125,9,4008,120,feet,jsons/VE125_randls_34.json,502486,673326,29,Woman
128,254724,DepthScenes,duration_manipulation_targetAtFixation,jsons/VE125_randls_34.json,http://54.235.29.9/FacialAge/BNav_EC2/DepthDuration/v2_depth_duration_MTurk/v2_DepthDuration_HTML.html#84,84,1920,969,1920,1080,9-3-2022,9-13-17,129,depth_duration_stimuli/002725_2014-06-22_11-47-51_094959634447_rgbf000070-resize_1/002725_2014-06-22_11-47-51_094959634447_rgbf000070-resize_1-target.png,125,2.195,2,1953,115,feet,jsons/VE125_randls_34.json,502486,673326,29,Woman
129,254724,DepthScenes,duration_manipulation_targetAtFixation,jsons/VE125_randls_34.json,http://54.235.29.9/FacialAge/BNav_EC2/DepthDuration/v2_depth_duration_MTurk/v2_DepthDuration_HTML.html#84,84,1920,969,1920,1080,9-3-2022,9-13-17,130,depth_duration_stimuli/002344_2014-06-28_20-06-29_260595134347_rgbf000030-resize_1/002344_2014-06-28_20-06-29_260595134347_rgbf000030-resize_1-target.png,125,1.5795,1,1623,118,feet,jsons/VE125_randls_34.json,502486,673326,29,Woman
130,254724,DepthScenes,duration_manipulation_targetAtFixation,jsons/VE125_randls_34.json,http://54.235.29.9/FacialAge/BNav_EC2/DepthDuration/v2_depth_duration_MTurk/v2_DepthDuration_HTML.html#84,84,1920,969,1920,1080,9-3-2022,9-13-17,131,depth_duration_stimuli/002630_2014-06-24_14-47-50_094959634447_rgbf000055-resize_1/002630_2014-06-24_14-47-50_094959634447_rgbf000055-resize_1-target.png,125,3.0095,10,2824,128,feet,jsons/VE125_randls_34.json,502486,673326,29,Woman
131,254724,DepthScenes,duration_manipulation_targetAtFixation,jsons/VE125_randls_34.json,http://54.235.29.9/FacialAge/BNav_EC2/DepthDuration/v2_depth_duration_MTurk/v2_DepthDuration_HTML.html#84,84,1920,969,1920,1080,9-3-2022,9-13-17,132,depth_duration_stimuli/002758_2014-06-22_19-11-20_094959634447_rgbf000128-resize_1/002758_2014-06-22_19-11-20_094959634447_rgbf000128-resize_1-target.png,125,2.555,0,2020,123,feet,jsons/VE125_randls_34.json,502486,673326,29,Woman
132,254724,DepthScenes,duration_manipulation_targetAtFixation,jsons/VE125_randls_34.json,http://54.235.29.9/FacialAge/BNav_EC2/DepthDuration/v2_depth_duration_MTurk/v2_DepthDuration_HTML.html#84,84,1920,969,1920,1080,9-3-2022,9-13-17,133,depth_duration_stimuli/002763_2014-06-22_19-13-10_094959634447_rgbf000075-resize_4/002763_2014-06-22_19-13-10_094959634447_rgbf000075-resize_4-target.png,125,1.68375,3,2212,130,feet,jsons/VE125_randls_34.json,502486,673326,29,Woman
133,254724,DepthScenes,duration_manipulation_targetAtFixation,jsons/VE125_randls_34.json,http://54.235.29.9/FacialAge/BNav_EC2/DepthDuration/v2_depth_duration_MTurk/v2_DepthDuration_HTML.html#84,84,1920,969,1920,1080,9-3-2022,9-13-17,134,depth_duration_stimuli/002209_2014-06-28_18-36-10_260595134347_rgbf000051-resize_1/002209_2014-06-28_18-36-10_260595134347_rgbf000051-resize_1-target.png,125,2.057,3,1543,125,feet,jsons/VE125_randls_34.json,502486,673326,29,Woman
134,254724,DepthScenes,duration_manipulation_targetAtFixation,jsons/VE125_randls_34.json,http://54.235.29.9/FacialAge/BNav_EC2/DepthDuration/v2_depth_duration_MTurk/v2_DepthDuration_HTML.html#84,84,1920,969,1920,1080,9-3-2022,9-13-17,135,depth_duration_stimuli/002072_2014-06-24_21-48-06_260595134347_rgbf000115-resize_0/002072_2014-06-24_21-48-06_260595134347_rgbf000115-resize-original.jpg,125,4.702,0,2009,130,feet,jsons/VE125_randls_34.json,502486,673326,29,Woman
135,254724,DepthScenes,duration_manipulation_targetAtFixation,jsons/VE125_randls_34.json,http://54.235.29.9/FacialAge/BNav_EC2/DepthDuration/v2_depth_duration_MTurk/v2_DepthDuration_HTML.html#84,84,1920,969,1920,1080,9-3-2022,9-13-17,136,depth_duration_stimuli/002988_2014-06-15_12-24-20_094959634447_rgbf000150-resize_1/002988_2014-06-15_12-24-20_094959634447_rgbf000150-resize_1-target.png,125,4.7669999999999995,10,4377,130,feet,jsons/VE125_randls_34.json,502486,673326,29,Woman
136,254724,DepthScenes,duration_manipulation_targetAtFixation,jsons/VE125_randls_34.json,http://54.235.29.9/FacialAge/BNav_EC2/DepthDuration/v2_depth_duration_MTurk/v2_DepthDuration_HTML.html#84,84,1920,969,1920,1080,9-3-2022,9-13-17,137,depth_duration_stimuli/001052_2014-06-08_18-24-54_260595134347_rgbf000130-resize_1/001052_2014-06-08_18-24-54_260595134347_rgbf000130-resize_1-target.png,125,4.1045,15,5382,116,feet,jsons/VE125_randls_34.json,502486,673326,29,Woman
137,254724,DepthScenes,duration_manipulation_targetAtFixation,jsons/VE125_randls_34.json,http://54.235.29.9/FacialAge/BNav_EC2/DepthDuration/v2_depth_duration_MTurk/v2_DepthDuration_HTML.html#84,84,1920,969,1920,1080,9-3-2022,9-13-17,138,depth_duration_stimuli/000758_2014-06-08_22-05-08_260595134347_rgbf000085-resize_0/000758_2014-06-08_22-05-08_260595134347_rgbf000085-resize_0-target.png,125,3.3810000000000002,10,2761,126,feet,jsons/VE125_randls_34.json,502486,673326,29,Woman
138,254724,DepthScenes,duration_manipulation_targetAtFixation,jsons/VE125_randls_34.json,http://54.235.29.9/FacialAge/BNav_EC2/DepthDuration/v2_depth_duration_MTurk/v2_DepthDuration_HTML.html#84,84,1920,969,1920,1080,9-3-2022,9-13-17,139,depth_duration_stimuli/000854_2014-06-09_19-43-13_260595134347_rgbf000066-resize_0/000854_2014-06-09_19-43-13_260595134347_rgbf000066-resize_0-target.png,125,3.068,3,2179,132,feet,jsons/VE125_randls_34.json,502486,673326,29,Woman
139,254724,DepthScenes,duration_manipulation_targetAtFixation,jsons/VE125_randls_34.json,http://54.235.29.9/FacialAge/BNav_EC2/DepthDuration/v2_depth_duration_MTurk/v2_DepthDuration_HTML.html#84,84,1920,969,1920,1080,9-3-2022,9-13-17,140,depth_duration_stimuli/000447_2014-06-08_16-15-46_260595134347_rgbf000130-resize_1/000447_2014-06-08_16-15-46_260595134347_rgbf000130-resize_1-target.png,125,4.479,8,2324,133,feet,jsons/VE125_randls_34.json,502486,673326,29,Woman
140,254724,DepthScenes,duration_manipulation_targetAtFixation,jsons/VE125_randls_34.json,http://54.235.29.9/FacialAge/BNav_EC2/DepthDuration/v2_depth_duration_MTurk/v2_DepthDuration_HTML.html#84,84,1920,969,1920,1080,9-3-2022,9-13-17,141,depth_duration_stimuli/001447_2014-06-19_17-00-32_260595134347_rgbf000082-resize_5/001447_2014-06-19_17-00-32_260595134347_rgbf000082-resize_5-target.png,125,4.13775,2,1923,135,feet,jsons/VE125_randls_34.json,502486,673326,29,Woman
141,254724,DepthScenes,duration_manipulation_targetAtFixation,jsons/VE125_randls_34.json,http://54.235.29.9/FacialAge/BNav_EC2/DepthDuration/v2_depth_duration_MTurk/v2_DepthDuration_HTML.html#84,84,1920,969,1920,1080,9-3-2022,9-13-17,142,depth_duration_stimuli/003534_2014-05-22_15-06-10_094959634447_rgbf000102-resize_4/003534_2014-05-22_15-06-10_094959634447_rgbf000102-resize_4-target.png,125,1.426,1,1547,123,feet,jsons/VE125_randls_34.json,502486,673326,29,Woman
142,254724,DepthScenes,duration_manipulation_targetAtFixation,jsons/VE125_randls_34.json,http://54.235.29.9/FacialAge/BNav_EC2/DepthDuration/v2_depth_duration_MTurk/v2_DepthDuration_HTML.html#84,84,1920,969,1920,1080,9-3-2022,9-13-17,143,depth_duration_stimuli/002637_2014-06-24_14-51-13_094959634447_rgbf000066-resize_4/002637_2014-06-24_14-51-13_094959634447_rgbf000066-resize_4-target.png,125,1.9955,2,1807,131,feet,jsons/VE125_randls_34.json,502486,673326,29,Woman
143,254724,DepthScenes,duration_manipulation_targetAtFixation,jsons/VE125_randls_34.json,http://54.235.29.9/FacialAge/BNav_EC2/DepthDuration/v2_depth_duration_MTurk/v2_DepthDuration_HTML.html#84,84,1920,969,1920,1080,9-3-2022,9-13-17,144,depth_duration_stimuli/000436_2014-06-09_22-25-11_260595134347_rgbf000137-resize_1/000436_2014-06-09_22-25-11_260595134347_rgbf000137-resize_1-target.png,125,4.0705,10,2105,123,feet,jsons/VE125_randls_34.json,502486,673326,29,Woman
144,254724,DepthScenes,duration_manipulation_targetAtFixation,jsons/VE125_randls_34.json,http://54.235.29.9/FacialAge/BNav_EC2/DepthDuration/v2_depth_duration_MTurk/v2_DepthDuration_HTML.html#84,84,1920,969,1920,1080,9-3-2022,9-13-17,145,depth_duration_stimuli/002444_2014-06-28_20-32-08_260595134347_rgbf000027-resize_0/002444_2014-06-28_20-32-08_260595134347_rgbf000027-resize_0-target.png,125,4.388999999999999,8,2572,124,feet,jsons/VE125_randls_34.json,502486,673326,29,Woman
145,254724,DepthScenes,duration_manipulation_targetAtFixation,jsons/VE125_randls_34.json,http://54.235.29.9/FacialAge/BNav_EC2/DepthDuration/v2_depth_duration_MTurk/v2_DepthDuration_HTML.html#84,84,1920,969,1920,1080,9-3-2022,9-13-17,146,depth_duration_stimuli/001498_2014-06-19_17-45-14_260595134347_rgbf000129-resize_4/001498_2014-06-19_17-45-14_260595134347_rgbf000129-resize-original.jpg,125,1.4075,0,1999,134,feet,jsons/VE125_randls_34.json,502486,673326,29,Woman
146,254724,DepthScenes,duration_manipulation_targetAtFixation,jsons/VE125_randls_34.json,http://54.235.29.9/FacialAge/BNav_EC2/DepthDuration/v2_depth_duration_MTurk/v2_DepthDuration_HTML.html#84,84,1920,969,1920,1080,9-3-2022,9-13-17,147,depth_duration_stimuli/000810_2014-06-08_17-20-01_260595134347_rgbf000105-resize_0/000810_2014-06-08_17-20-01_260595134347_rgbf000105-resize_0-target.png,125,1.4865,2,2137,119,feet,jsons/VE125_randls_34.json,502486,673326,29,Woman
147,254724,DepthScenes,duration_manipulation_targetAtFixation,jsons/VE125_randls_34.json,http://54.235.29.9/FacialAge/BNav_EC2/DepthDuration/v2_depth_duration_MTurk/v2_DepthDuration_HTML.html#84,84,1920,969,1920,1080,9-3-2022,9-13-17,148,depth_duration_stimuli/001214_2014-06-17_16-13-55_260595134347_rgbf000111-resize_0/001214_2014-06-17_16-13-55_260595134347_rgbf000111-resize_0-target.png,125,2.6505,2,1609,120,feet,jsons/VE125_randls_34.json,502486,673326,29,Woman
148,254724,DepthScenes,duration_manipulation_targetAtFixation,jsons/VE125_randls_34.json,http://54.235.29.9/FacialAge/BNav_EC2/DepthDuration/v2_depth_duration_MTurk/v2_DepthDuration_HTML.html#84,84,1920,969,1920,1080,9-3-2022,9-13-17,149,depth_duration_stimuli/002043_2014-06-24_20-29-38_260595134347_rgbf000039-resize_4/002043_2014-06-24_20-29-38_260595134347_rgbf000039-resize_4-target.png,125,2.8435,5,2072,124,feet,jsons/VE125_randls_34.json,502486,673326,29,Woman
149,254724,DepthScenes,duration_manipulation_targetAtFixation,jsons/VE125_randls_34.json,http://54.235.29.9/FacialAge/BNav_EC2/DepthDuration/v2_depth_duration_MTurk/v2_DepthDuration_HTML.html#84,84,1920,969,1920,1080,9-3-2022,9-13-17,150,depth_duration_stimuli/003048_2014-06-15_13-49-43_094959634447_rgbf000150-resize_1/003048_2014-06-15_13-49-43_094959634447_rgbf000150-resize_1-target.png,125,4.0035,5,3078,123,feet,jsons/VE125_randls_34.json,502486,673326,29,Woman
150,254724,DepthScenes,duration_manipulation_targetAtFixation,jsons/VE125_randls_34.json,http://54.235.29.9/FacialAge/BNav_EC2/DepthDuration/v2_depth_duration_MTurk/v2_DepthDuration_HTML.html#84,84,1920,969,1920,1080,9-3-2022,9-13-17,151,depth_duration_stimuli/002272_2014-06-28_18-53-56_260595134347_rgbf000067-resize_2/002272_2014-06-28_18-53-56_260595134347_rgbf000067-resize_2-target.png,125,1.138,1,1381,125,feet,jsons/VE125_randls_34.json,502486,673326,29,Woman
151,254724,DepthScenes,duration_manipulation_targetAtFixation,jsons/VE125_randls_34.json,http://54.235.29.9/FacialAge/BNav_EC2/DepthDuration/v2_depth_duration_MTurk/v2_DepthDuration_HTML.html#84,84,1920,969,1920,1080,9-3-2022,9-13-17,152,depth_duration_stimuli/001571_2014-06-20_17-21-32_260595134347_rgbf000089-resize_1/001571_2014-06-20_17-21-32_260595134347_rgbf000089-resize_1-target.png,125,1.86,2,1563,124,feet,jsons/VE125_randls_34.json,502486,673326,29,Woman
152,254724,DepthScenes,duration_manipulation_targetAtFixation,jsons/VE125_randls_34.json,http://54.235.29.9/FacialAge/BNav_EC2/DepthDuration/v2_depth_duration_MTurk/v2_DepthDuration_HTML.html#84,84,1920,969,1920,1080,9-3-2022,9-13-17,153,depth_duration_stimuli/000642_2014-06-08_16-59-25_260595134347_rgbf000098-resize_2/000642_2014-06-08_16-59-25_260595134347_rgbf000098-resize_2-target.png,125,2.8815,3,1472,124,feet,jsons/VE125_randls_34.json,502486,673326,29,Woman
153,254724,DepthScenes,duration_manipulation_targetAtFixation,jsons/VE125_randls_34.json,http://54.235.29.9/FacialAge/BNav_EC2/DepthDuration/v2_depth_duration_MTurk/v2_DepthDuration_HTML.html#84,84,1920,969,1920,1080,9-3-2022,9-13-17,154,depth_duration_stimuli/002425_2014-06-28_20-27-29_260595134347_rgbf000031-resize_8/002425_2014-06-28_20-27-29_260595134347_rgbf000031-resize_8-target.png,125,3.8960000000000004,9,3613,122,feet,jsons/VE125_randls_34.json,502486,673326,29,Woman
154,254724,DepthScenes,duration_manipulation_targetAtFixation,jsons/VE125_randls_34.json,http://54.235.29.9/FacialAge/BNav_EC2/DepthDuration/v2_depth_duration_MTurk/v2_DepthDuration_HTML.html#84,84,1920,969,1920,1080,9-3-2022,9-13-17,155,depth_duration_stimuli/001244_2014-06-17_16-47-45_260595134347_rgbf000030-resize_4/001244_2014-06-17_16-47-45_260595134347_rgbf000030-resize_4-target.png,125,2.0425,1,1729,123,feet,jsons/VE125_randls_34.json,502486,673326,29,Woman
155,254724,DepthScenes,duration_manipulation_targetAtFixation,jsons/VE125_randls_34.json,http://54.235.29.9/FacialAge/BNav_EC2/DepthDuration/v2_depth_duration_MTurk/v2_DepthDuration_HTML.html#84,84,1920,969,1920,1080,9-3-2022,9-13-17,156,depth_duration_stimuli/003495_2014-05-21_16-01-51_094959634447_rgbf000100-resize_3/003495_2014-05-21_16-01-51_094959634447_rgbf000100-resize_3-target.png,125,1.6255,1,1394,140,feet,jsons/VE125_randls_34.json,502486,673326,29,Woman
156,254724,DepthScenes,duration_manipulation_targetAtFixation,jsons/VE125_randls_34.json,http://54.235.29.9/FacialAge/BNav_EC2/DepthDuration/v2_depth_duration_MTurk/v2_DepthDuration_HTML.html#84,84,1920,969,1920,1080,9-3-2022,9-13-17,157,depth_duration_stimuli/001059_2014-06-08_21-53-27_260595134347_rgbf000061-resize_4/001059_2014-06-08_21-53-27_260595134347_rgbf000061-resize_4-target.png,125,2.4185,3,1602,123,feet,jsons/VE125_randls_34.json,502486,673326,29,Woman
157,254724,DepthScenes,duration_manipulation_targetAtFixation,jsons/VE125_randls_34.json,http://54.235.29.9/FacialAge/BNav_EC2/DepthDuration/v2_depth_duration_MTurk/v2_DepthDuration_HTML.html#84,84,1920,969,1920,1080,9-3-2022,9-13-17,158,depth_duration_stimuli/001032_2014-06-08_13-23-17_260595134347_rgbf000021-resize_3/001032_2014-06-08_13-23-17_260595134347_rgbf000021-resize_3-target.png,125,3.2725,3,1375,138,feet,jsons/VE125_randls_34.json,502486,673326,29,Woman
158,254724,DepthScenes,duration_manipulation_targetAtFixation,jsons/VE125_randls_34.json,http://54.235.29.9/FacialAge/BNav_EC2/DepthDuration/v2_depth_duration_MTurk/v2_DepthDuration_HTML.html#84,84,1920,969,1920,1080,9-3-2022,9-13-17,159,depth_duration_stimuli/002600_2014-06-24_14-27-04_094959634447_rgbf000074-resize_2/002600_2014-06-24_14-27-04_094959634447_rgbf000074-resize_2-target.png,125,2.7575,4,1683,123,feet,jsons/VE125_randls_34.json,502486,673326,29,Woman
159,254724,DepthScenes,duration_manipulation_targetAtFixation,jsons/VE125_randls_34.json,http://54.235.29.9/FacialAge/BNav_EC2/DepthDuration/v2_depth_duration_MTurk/v2_DepthDuration_HTML.html#84,84,1920,969,1920,1080,9-3-2022,9-13-17,160,depth_duration_stimuli/003228_2014-05-14_13-42-35_094959634447_rgbf000101-resize_1/003228_2014-05-14_13-42-35_094959634447_rgbf000101-resize_1-target.png,125,1.9680000000000002,2,1423,135,feet,jsons/VE125_randls_34.json,502486,673326,29,Woman
160,254724,DepthScenes,duration_manipulation_targetAtFixation,jsons/VE125_randls_34.json,http://54.235.29.9/FacialAge/BNav_EC2/DepthDuration/v2_depth_duration_MTurk/v2_DepthDuration_HTML.html#84,84,1920,969,1920,1080,9-3-2022,9-13-17,161,depth_duration_stimuli/001806_2014-06-26_20-50-20_260595134347_rgbf000091-resize_1/001806_2014-06-26_20-50-20_260595134347_rgbf000091-resize_1-target.png,125,2.7305,2,1359,133,feet,jsons/VE125_randls_34.json,502486,673326,29,Woman
161,254724,DepthScenes,duration_manipulation_targetAtFixation,jsons/VE125_randls_34.json,http://54.235.29.9/FacialAge/BNav_EC2/DepthDuration/v2_depth_duration_MTurk/v2_DepthDuration_HTML.html#84,84,1920,969,1920,1080,9-3-2022,9-13-17,162,depth_duration_stimuli/001617_2014-06-20_11-35-32_260595134347_rgbf000066-resize_1/001617_2014-06-20_11-35-32_260595134347_rgbf000066-resize_1-target.png,125,3.7910000000000004,10,3348,131,feet,jsons/VE125_randls_34.json,502486,673326,29,Woman
162,254724,DepthScenes,duration_manipulation_targetAtFixation,jsons/VE125_randls_34.json,http://54.235.29.9/FacialAge/BNav_EC2/DepthDuration/v2_depth_duration_MTurk/v2_DepthDuration_HTML.html#84,84,1920,969,1920,1080,9-3-2022,9-13-17,163,depth_duration_stimuli/001555_2014-06-20_17-12-10_260595134347_rgbf000065-resize_4/001555_2014-06-20_17-12-10_260595134347_rgbf000065-resize_4-target.png,125,1.633,1,1681,131,feet,jsons/VE125_randls_34.json,502486,673326,29,Woman
163,254724,DepthScenes,duration_manipulation_targetAtFixation,jsons/VE125_randls_34.json,http://54.235.29.9/FacialAge/BNav_EC2/DepthDuration/v2_depth_duration_MTurk/v2_DepthDuration_HTML.html#84,84,1920,969,1920,1080,9-3-2022,9-13-17,164,depth_duration_stimuli/000103_2014-05-14_22-01-17_260595134347_rgbf000152-resize_5/000103_2014-05-14_22-01-17_260595134347_rgbf000152-resize_5-target.png,125,1.993,5,1924,115,feet,jsons/VE125_randls_34.json,502486,673326,29,Woman
