,subjID,experimentName,versionName,sequenceName,url,selected_row,windowWidth,windowHeight,screenWidth,screenHeight,startDate,startTime,trial,stimulus,duration,actual_depth,depth_estimate,trial_RT,log_sceneDuration,unitSelection,seq_filepath,experimentTime,totalTime,age,gender
0,255144,DepthScenes,duration_manipulation_targetAtFixation,jsons/v1_VE250_randls_47_rotated.json,http://54.235.29.9/FacialAge/BNav_EC2/DepthDuration/v2_depth_duration_MTurk/v2_DepthDuration_HTML.html#21,21,1360,768,1360,768,8-20-2022,11-43-15,1,depth_duration_stimuli/001828_2014-06-26_21-40-03_260595134347_rgbf000024-resize_0/001828_2014-06-26_21-40-03_260595134347_rgbf000024-resize_0-target.png,250,4.8260000000000005,5,3440,251,meters,jsons/v1_VE250_randls_47_rotated.json,723555,1049829,55,Woman
1,255144,DepthScenes,duration_manipulation_targetAtFixation,jsons/v1_VE250_randls_47_rotated.json,http://54.235.29.9/FacialAge/BNav_EC2/DepthDuration/v2_depth_duration_MTurk/v2_DepthDuration_HTML.html#21,21,1360,768,1360,768,8-20-2022,11-43-15,2,depth_duration_stimuli/000009_2014-05-26_14-32-05_260595134347_rgbf000034-resize_3/000009_2014-05-26_14-32-05_260595134347_rgbf000034-resize_3-target.png,250,3.8715,9,3848,259,meters,jsons/v1_VE250_randls_47_rotated.json,723555,1049829,55,Woman
2,255144,DepthScenes,duration_manipulation_targetAtFixation,jsons/v1_VE250_randls_47_rotated.json,http://54.235.29.9/FacialAge/BNav_EC2/DepthDuration/v2_depth_duration_MTurk/v2_DepthDuration_HTML.html#21,21,1360,768,1360,768,8-20-2022,11-43-15,3,depth_duration_stimuli/000665_2014-06-09_20-42-35_260595134347_rgbf000110-resize_1/000665_2014-06-09_20-42-35_260595134347_rgbf000110-resize_1-target.png,250,3.057,5,3771,245,meters,jsons/v1_VE250_randls_47_rotated.json,723555,1049829,55,Woman
3,255144,DepthScenes,duration_manipulation_targetAtFixation,jsons/v1_VE250_randls_47_rotated.json,http://54.235.29.9/FacialAge/BNav_EC2/DepthDuration/v2_depth_duration_MTurk/v2_DepthDuration_HTML.html#21,21,1360,768,1360,768,8-20-2022,11-43-15,4,depth_duration_stimuli/001150_2014-06-17_15-27-34_260595134347_rgbf000108-resize_2/001150_2014-06-17_15-27-34_260595134347_rgbf000108-resize_2-target.png,250,4.0325,8,3903,237,meters,jsons/v1_VE250_randls_47_rotated.json,723555,1049829,55,Woman
4,255144,DepthScenes,duration_manipulation_targetAtFixation,jsons/v1_VE250_randls_47_rotated.json,http://54.235.29.9/FacialAge/BNav_EC2/DepthDuration/v2_depth_duration_MTurk/v2_DepthDuration_HTML.html#21,21,1360,768,1360,768,8-20-2022,11-43-15,5,depth_duration_stimuli/002467_2014-06-28_20-38-07_260595134347_rgbf000026-resize_2/002467_2014-06-28_20-38-07_260595134347_rgbf000026-resize_2-target.png,250,4.742,5,3832,246,meters,jsons/v1_VE250_randls_47_rotated.json,723555,1049829,55,Woman
5,255144,DepthScenes,duration_manipulation_targetAtFixation,jsons/v1_VE250_randls_47_rotated.json,http://54.235.29.9/FacialAge/BNav_EC2/DepthDuration/v2_depth_duration_MTurk/v2_DepthDuration_HTML.html#21,21,1360,768,1360,768,8-20-2022,11-43-15,6,depth_duration_stimuli/002570_2014-06-24_13-59-54_094959634447_rgbf000059-resize_0/002570_2014-06-24_13-59-54_094959634447_rgbf000059-resize_0-target.png,250,4.037,4,3363,245,meters,jsons/v1_VE250_randls_47_rotated.json,723555,1049829,55,Woman
6,255144,DepthScenes,duration_manipulation_targetAtFixation,jsons/v1_VE250_randls_47_rotated.json,http://54.235.29.9/FacialAge/BNav_EC2/DepthDuration/v2_depth_duration_MTurk/v2_DepthDuration_HTML.html#21,21,1360,768,1360,768,8-20-2022,11-43-15,7,depth_duration_stimuli/002199_2014-06-28_18-33-56_260595134347_rgbf000074-resize_0/002199_2014-06-28_18-33-56_260595134347_rgbf000074-resize_0-target.png,250,1.996,3,3269,250,meters,jsons/v1_VE250_randls_47_rotated.json,723555,1049829,55,Woman
7,255144,DepthScenes,duration_manipulation_targetAtFixation,jsons/v1_VE250_randls_47_rotated.json,http://54.235.29.9/FacialAge/BNav_EC2/DepthDuration/v2_depth_duration_MTurk/v2_DepthDuration_HTML.html#21,21,1360,768,1360,768,8-20-2022,11-43-15,8,depth_duration_stimuli/001056_2014-06-08_18-46-44_260595134347_rgbf000068-resize_0/001056_2014-06-08_18-46-44_260595134347_rgbf000068-resize_0-target.png,250,2.6625,6,3204,255,meters,jsons/v1_VE250_randls_47_rotated.json,723555,1049829,55,Woman
8,255144,DepthScenes,duration_manipulation_targetAtFixation,jsons/v1_VE250_randls_47_rotated.json,http://54.235.29.9/FacialAge/BNav_EC2/DepthDuration/v2_depth_duration_MTurk/v2_DepthDuration_HTML.html#21,21,1360,768,1360,768,8-20-2022,11-43-15,9,depth_duration_stimuli/000109_2014-05-14_23-41-52_260595134347_rgbf000035-resize_9/000109_2014-05-14_23-41-52_260595134347_rgbf000035-resize_9-target.png,250,1.3545,4,3646,166,meters,jsons/v1_VE250_randls_47_rotated.json,723555,1049829,55,Woman
9,255144,DepthScenes,duration_manipulation_targetAtFixation,jsons/v1_VE250_randls_47_rotated.json,http://54.235.29.9/FacialAge/BNav_EC2/DepthDuration/v2_depth_duration_MTurk/v2_DepthDuration_HTML.html#21,21,1360,768,1360,768,8-20-2022,11-43-15,10,depth_duration_stimuli/000470_2014-06-09_19-42-40_260595134347_rgbf000094-resize_1/000470_2014-06-09_19-42-40_260595134347_rgbf000094-resize_1-target.png,250,1.831,5,3709,215,meters,jsons/v1_VE250_randls_47_rotated.json,723555,1049829,55,Woman
10,255144,DepthScenes,duration_manipulation_targetAtFixation,jsons/v1_VE250_randls_47_rotated.json,http://54.235.29.9/FacialAge/BNav_EC2/DepthDuration/v2_depth_duration_MTurk/v2_DepthDuration_HTML.html#21,21,1360,768,1360,768,8-20-2022,11-43-15,11,depth_duration_stimuli/000549_2014-06-08_22-10-24_260595134347_rgbf000247-resize_3/000549_2014-06-08_22-10-24_260595134347_rgbf000247-resize_3-target.png,250,1.841,4,3533,247,meters,jsons/v1_VE250_randls_47_rotated.json,723555,1049829,55,Woman
11,255144,DepthScenes,duration_manipulation_targetAtFixation,jsons/v1_VE250_randls_47_rotated.json,http://54.235.29.9/FacialAge/BNav_EC2/DepthDuration/v2_depth_duration_MTurk/v2_DepthDuration_HTML.html#21,21,1360,768,1360,768,8-20-2022,11-43-15,12,depth_duration_stimuli/001055_2014-06-08_18-45-35_260595134347_rgbf000111-resize_4/001055_2014-06-08_18-45-35_260595134347_rgbf000111-resize_4-target.png,250,2.4290000000000003,9,3295,244,meters,jsons/v1_VE250_randls_47_rotated.json,723555,1049829,55,Woman
12,255144,DepthScenes,duration_manipulation_targetAtFixation,jsons/v1_VE250_randls_47_rotated.json,http://54.235.29.9/FacialAge/BNav_EC2/DepthDuration/v2_depth_duration_MTurk/v2_DepthDuration_HTML.html#21,21,1360,768,1360,768,8-20-2022,11-43-15,13,depth_duration_stimuli/003490_2014-05-21_15-50-11_094959634447_rgbf000101-resize_3/003490_2014-05-21_15-50-11_094959634447_rgbf000101-resize_3-target.png,250,3.6445,8,3341,243,meters,jsons/v1_VE250_randls_47_rotated.json,723555,1049829,55,Woman
13,255144,DepthScenes,duration_manipulation_targetAtFixation,jsons/v1_VE250_randls_47_rotated.json,http://54.235.29.9/FacialAge/BNav_EC2/DepthDuration/v2_depth_duration_MTurk/v2_DepthDuration_HTML.html#21,21,1360,768,1360,768,8-20-2022,11-43-15,14,depth_duration_stimuli/001175_2014-06-17_15-45-55_260595134347_rgbf000129-resize_4/001175_2014-06-17_15-45-55_260595134347_rgbf000129-resize_4-target.png,250,4.255,8,5206,239,meters,jsons/v1_VE250_randls_47_rotated.json,723555,1049829,55,Woman
14,255144,DepthScenes,duration_manipulation_targetAtFixation,jsons/v1_VE250_randls_47_rotated.json,http://54.235.29.9/FacialAge/BNav_EC2/DepthDuration/v2_depth_duration_MTurk/v2_DepthDuration_HTML.html#21,21,1360,768,1360,768,8-20-2022,11-43-15,15,depth_duration_stimuli/003010_2014-06-15_12-54-35_094959634447_rgbf000112-resize_0/003010_2014-06-15_12-54-35_094959634447_rgbf000112-resize_0-target.png,250,3.1185,5,7596,231,meters,jsons/v1_VE250_randls_47_rotated.json,723555,1049829,55,Woman
15,255144,DepthScenes,duration_manipulation_targetAtFixation,jsons/v1_VE250_randls_47_rotated.json,http://54.235.29.9/FacialAge/BNav_EC2/DepthDuration/v2_depth_duration_MTurk/v2_DepthDuration_HTML.html#21,21,1360,768,1360,768,8-20-2022,11-43-15,16,depth_duration_stimuli/001810_2014-06-26_20-51-35_260595134347_rgbf000040-resize_3/001810_2014-06-26_20-51-35_260595134347_rgbf000040-resize_3-target.png,250,2.2525,3,5501,244,meters,jsons/v1_VE250_randls_47_rotated.json,723555,1049829,55,Woman
16,255144,DepthScenes,duration_manipulation_targetAtFixation,jsons/v1_VE250_randls_47_rotated.json,http://54.235.29.9/FacialAge/BNav_EC2/DepthDuration/v2_depth_duration_MTurk/v2_DepthDuration_HTML.html#21,21,1360,768,1360,768,8-20-2022,11-43-15,17,depth_duration_stimuli/002209_2014-06-28_18-36-10_260595134347_rgbf000051-resize_1/002209_2014-06-28_18-36-10_260595134347_rgbf000051-resize_1-target.png,250,2.057,4,3840,256,meters,jsons/v1_VE250_randls_47_rotated.json,723555,1049829,55,Woman
17,255144,DepthScenes,duration_manipulation_targetAtFixation,jsons/v1_VE250_randls_47_rotated.json,http://54.235.29.9/FacialAge/BNav_EC2/DepthDuration/v2_depth_duration_MTurk/v2_DepthDuration_HTML.html#21,21,1360,768,1360,768,8-20-2022,11-43-15,18,depth_duration_stimuli/002763_2014-06-22_19-13-10_094959634447_rgbf000075-resize_4/002763_2014-06-22_19-13-10_094959634447_rgbf000075-resize_4-target.png,250,1.68375,6,3436,246,meters,jsons/v1_VE250_randls_47_rotated.json,723555,1049829,55,Woman
18,255144,DepthScenes,duration_manipulation_targetAtFixation,jsons/v1_VE250_randls_47_rotated.json,http://54.235.29.9/FacialAge/BNav_EC2/DepthDuration/v2_depth_duration_MTurk/v2_DepthDuration_HTML.html#21,21,1360,768,1360,768,8-20-2022,11-43-15,19,depth_duration_stimuli/001498_2014-06-19_17-45-14_260595134347_rgbf000129-resize_4/001498_2014-06-19_17-45-14_260595134347_rgbf000129-resize-original.jpg,250,1.4075,5,18545,239,meters,jsons/v1_VE250_randls_47_rotated.json,723555,1049829,55,Woman
19,255144,DepthScenes,duration_manipulation_targetAtFixation,jsons/v1_VE250_randls_47_rotated.json,http://54.235.29.9/FacialAge/BNav_EC2/DepthDuration/v2_depth_duration_MTurk/v2_DepthDuration_HTML.html#21,21,1360,768,1360,768,8-20-2022,11-43-15,20,depth_duration_stimuli/002657_2014-06-13_15-29-54_094959634447_rgbf000150-resize_1/002657_2014-06-13_15-29-54_094959634447_rgbf000150-resize_1-target.png,250,4.919,6,3402,263,meters,jsons/v1_VE250_randls_47_rotated.json,723555,1049829,55,Woman
20,255144,DepthScenes,duration_manipulation_targetAtFixation,jsons/v1_VE250_randls_47_rotated.json,http://54.235.29.9/FacialAge/BNav_EC2/DepthDuration/v2_depth_duration_MTurk/v2_DepthDuration_HTML.html#21,21,1360,768,1360,768,8-20-2022,11-43-15,21,depth_duration_stimuli/002375_2014-06-28_20-13-44_260595134347_rgbf000032-resize_1/002375_2014-06-28_20-13-44_260595134347_rgbf000032-resize_1-target.png,250,4.0175,6,3168,243,meters,jsons/v1_VE250_randls_47_rotated.json,723555,1049829,55,Woman
21,255144,DepthScenes,duration_manipulation_targetAtFixation,jsons/v1_VE250_randls_47_rotated.json,http://54.235.29.9/FacialAge/BNav_EC2/DepthDuration/v2_depth_duration_MTurk/v2_DepthDuration_HTML.html#21,21,1360,768,1360,768,8-20-2022,11-43-15,22,depth_duration_stimuli/001100_2014-06-15_17-46-26_260595134347_rgbf000225-resize_2/001100_2014-06-15_17-46-26_260595134347_rgbf000225-resize_2-target.png,250,2.24,5,3459,234,meters,jsons/v1_VE250_randls_47_rotated.json,723555,1049829,55,Woman
22,255144,DepthScenes,duration_manipulation_targetAtFixation,jsons/v1_VE250_randls_47_rotated.json,http://54.235.29.9/FacialAge/BNav_EC2/DepthDuration/v2_depth_duration_MTurk/v2_DepthDuration_HTML.html#21,21,1360,768,1360,768,8-20-2022,11-43-15,23,depth_duration_stimuli/002784_2014-06-22_19-26-30_094959634447_rgbf000083-resize_3/002784_2014-06-22_19-26-30_094959634447_rgbf000083-resize_3-target.png,250,1.8046666666667,4,3398,248,meters,jsons/v1_VE250_randls_47_rotated.json,723555,1049829,55,Woman
23,255144,DepthScenes,duration_manipulation_targetAtFixation,jsons/v1_VE250_randls_47_rotated.json,http://54.235.29.9/FacialAge/BNav_EC2/DepthDuration/v2_depth_duration_MTurk/v2_DepthDuration_HTML.html#21,21,1360,768,1360,768,8-20-2022,11-43-15,24,depth_duration_stimuli/001214_2014-06-17_16-13-55_260595134347_rgbf000111-resize_0/001214_2014-06-17_16-13-55_260595134347_rgbf000111-resize_0-target.png,250,2.6505,3,3284,223,meters,jsons/v1_VE250_randls_47_rotated.json,723555,1049829,55,Woman
24,255144,DepthScenes,duration_manipulation_targetAtFixation,jsons/v1_VE250_randls_47_rotated.json,http://54.235.29.9/FacialAge/BNav_EC2/DepthDuration/v2_depth_duration_MTurk/v2_DepthDuration_HTML.html#21,21,1360,768,1360,768,8-20-2022,11-43-15,25,depth_duration_stimuli/000810_2014-06-08_17-20-01_260595134347_rgbf000105-resize_0/000810_2014-06-08_17-20-01_260595134347_rgbf000105-resize_0-target.png,250,1.4865,5,3737,238,meters,jsons/v1_VE250_randls_47_rotated.json,723555,1049829,55,Woman
25,255144,DepthScenes,duration_manipulation_targetAtFixation,jsons/v1_VE250_randls_47_rotated.json,http://54.235.29.9/FacialAge/BNav_EC2/DepthDuration/v2_depth_duration_MTurk/v2_DepthDuration_HTML.html#21,21,1360,768,1360,768,8-20-2022,11-43-15,26,depth_duration_stimuli/003495_2014-05-21_16-01-51_094959634447_rgbf000100-resize_3/003495_2014-05-21_16-01-51_094959634447_rgbf000100-resize_3-target.png,250,1.6255,4,3213,225,meters,jsons/v1_VE250_randls_47_rotated.json,723555,1049829,55,Woman
26,255144,DepthScenes,duration_manipulation_targetAtFixation,jsons/v1_VE250_randls_47_rotated.json,http://54.235.29.9/FacialAge/BNav_EC2/DepthDuration/v2_depth_duration_MTurk/v2_DepthDuration_HTML.html#21,21,1360,768,1360,768,8-20-2022,11-43-15,27,depth_duration_stimuli/001244_2014-06-17_16-47-45_260595134347_rgbf000030-resize_4/001244_2014-06-17_16-47-45_260595134347_rgbf000030-resize_4-target.png,250,2.0425,5,4258,249,meters,jsons/v1_VE250_randls_47_rotated.json,723555,1049829,55,Woman
27,255144,DepthScenes,duration_manipulation_targetAtFixation,jsons/v1_VE250_randls_47_rotated.json,http://54.235.29.9/FacialAge/BNav_EC2/DepthDuration/v2_depth_duration_MTurk/v2_DepthDuration_HTML.html#21,21,1360,768,1360,768,8-20-2022,11-43-15,28,depth_duration_stimuli/000483_2014-06-09_20-41-45_260595134347_rgbf000116-resize_4/000483_2014-06-09_20-41-45_260595134347_rgbf000116-resize_4-target.png,250,1.337,3,3893,250,meters,jsons/v1_VE250_randls_47_rotated.json,723555,1049829,55,Woman
28,255144,DepthScenes,duration_manipulation_targetAtFixation,jsons/v1_VE250_randls_47_rotated.json,http://54.235.29.9/FacialAge/BNav_EC2/DepthDuration/v2_depth_duration_MTurk/v2_DepthDuration_HTML.html#21,21,1360,768,1360,768,8-20-2022,11-43-15,29,depth_duration_stimuli/000469_2014-06-09_19-42-10_260595134347_rgbf000081-resize_1/000469_2014-06-09_19-42-10_260595134347_rgbf000081-resize_1-target.png,250,1.652,5,3049,254,meters,jsons/v1_VE250_randls_47_rotated.json,723555,1049829,55,Woman
29,255144,DepthScenes,duration_manipulation_targetAtFixation,jsons/v1_VE250_randls_47_rotated.json,http://54.235.29.9/FacialAge/BNav_EC2/DepthDuration/v2_depth_duration_MTurk/v2_DepthDuration_HTML.html#21,21,1360,768,1360,768,8-20-2022,11-43-15,30,depth_duration_stimuli/002072_2014-06-24_21-48-06_260595134347_rgbf000115-resize_0/002072_2014-06-24_21-48-06_260595134347_rgbf000115-resize-original.jpg,250,4.702,0,4383,222,meters,jsons/v1_VE250_randls_47_rotated.json,723555,1049829,55,Woman
30,255144,DepthScenes,duration_manipulation_targetAtFixation,jsons/v1_VE250_randls_47_rotated.json,http://54.235.29.9/FacialAge/BNav_EC2/DepthDuration/v2_depth_duration_MTurk/v2_DepthDuration_HTML.html#21,21,1360,768,1360,768,8-20-2022,11-43-15,31,depth_duration_stimuli/003048_2014-06-15_13-49-43_094959634447_rgbf000150-resize_1/003048_2014-06-15_13-49-43_094959634447_rgbf000150-resize_1-target.png,250,4.0035,6,3953,257,meters,jsons/v1_VE250_randls_47_rotated.json,723555,1049829,55,Woman
31,255144,DepthScenes,duration_manipulation_targetAtFixation,jsons/v1_VE250_randls_47_rotated.json,http://54.235.29.9/FacialAge/BNav_EC2/DepthDuration/v2_depth_duration_MTurk/v2_DepthDuration_HTML.html#21,21,1360,768,1360,768,8-20-2022,11-43-15,32,depth_duration_stimuli/002043_2014-06-24_20-29-38_260595134347_rgbf000039-resize_4/002043_2014-06-24_20-29-38_260595134347_rgbf000039-resize_4-target.png,250,2.8435,5,3195,248,meters,jsons/v1_VE250_randls_47_rotated.json,723555,1049829,55,Woman
32,255144,DepthScenes,duration_manipulation_targetAtFixation,jsons/v1_VE250_randls_47_rotated.json,http://54.235.29.9/FacialAge/BNav_EC2/DepthDuration/v2_depth_duration_MTurk/v2_DepthDuration_HTML.html#21,21,1360,768,1360,768,8-20-2022,11-43-15,33,depth_duration_stimuli/000866_2014-06-09_20-45-42_260595134347_rgbf000139-resize_1/000866_2014-06-09_20-45-42_260595134347_rgbf000139-resize_1-target.png,250,3.2155,6,3137,391,meters,jsons/v1_VE250_randls_47_rotated.json,723555,1049829,55,Woman
33,255144,DepthScenes,duration_manipulation_targetAtFixation,jsons/v1_VE250_randls_47_rotated.json,http://54.235.29.9/FacialAge/BNav_EC2/DepthDuration/v2_depth_duration_MTurk/v2_DepthDuration_HTML.html#21,21,1360,768,1360,768,8-20-2022,11-43-15,34,depth_duration_stimuli/002989_2014-06-15_12-25-03_094959634447_rgbf000150-resize_3/002989_2014-06-15_12-25-03_094959634447_rgbf000150-resize_3-target.png,250,4.1975,4,3250,248,meters,jsons/v1_VE250_randls_47_rotated.json,723555,1049829,55,Woman
34,255144,DepthScenes,duration_manipulation_targetAtFixation,jsons/v1_VE250_randls_47_rotated.json,http://54.235.29.9/FacialAge/BNav_EC2/DepthDuration/v2_depth_duration_MTurk/v2_DepthDuration_HTML.html#21,21,1360,768,1360,768,8-20-2022,11-43-15,35,depth_duration_stimuli/002805_2014-06-22_19-54-03_094959634447_rgbf000079-resize_1/002805_2014-06-22_19-54-03_094959634447_rgbf000079-resize_1-target.png,250,3.1439999999999997,5,3190,235,meters,jsons/v1_VE250_randls_47_rotated.json,723555,1049829,55,Woman
35,255144,DepthScenes,duration_manipulation_targetAtFixation,jsons/v1_VE250_randls_47_rotated.json,http://54.235.29.9/FacialAge/BNav_EC2/DepthDuration/v2_depth_duration_MTurk/v2_DepthDuration_HTML.html#21,21,1360,768,1360,768,8-20-2022,11-43-15,36,depth_duration_stimuli/000906_2014-06-08_13-35-43_260595134347_rgbf000155-resize_1/000906_2014-06-08_13-35-43_260595134347_rgbf000155-resize_1-target.png,250,2.8489999999999998,3,4104,249,meters,jsons/v1_VE250_randls_47_rotated.json,723555,1049829,55,Woman
36,255144,DepthScenes,duration_manipulation_targetAtFixation,jsons/v1_VE250_randls_47_rotated.json,http://54.235.29.9/FacialAge/BNav_EC2/DepthDuration/v2_depth_duration_MTurk/v2_DepthDuration_HTML.html#21,21,1360,768,1360,768,8-20-2022,11-43-15,37,depth_duration_stimuli/002568_2014-06-24_13-59-21_094959634447_rgbf000062-resize_4/002568_2014-06-24_13-59-21_094959634447_rgbf000062-resize_4-target.png,250,3.015,5,3101,255,meters,jsons/v1_VE250_randls_47_rotated.json,723555,1049829,55,Woman
37,255144,DepthScenes,duration_manipulation_targetAtFixation,jsons/v1_VE250_randls_47_rotated.json,http://54.235.29.9/FacialAge/BNav_EC2/DepthDuration/v2_depth_duration_MTurk/v2_DepthDuration_HTML.html#21,21,1360,768,1360,768,8-20-2022,11-43-15,38,depth_duration_stimuli/003492_2014-05-21_15-50-55_094959634447_rgbf000828-resize_1/003492_2014-05-21_15-50-55_094959634447_rgbf000828-resize_1-target.png,250,4.06875,6,3570,254,meters,jsons/v1_VE250_randls_47_rotated.json,723555,1049829,55,Woman
38,255144,DepthScenes,duration_manipulation_targetAtFixation,jsons/v1_VE250_randls_47_rotated.json,http://54.235.29.9/FacialAge/BNav_EC2/DepthDuration/v2_depth_duration_MTurk/v2_DepthDuration_HTML.html#21,21,1360,768,1360,768,8-20-2022,11-43-15,39,depth_duration_stimuli/003081_2014-06-15_15-19-16_094959634447_rgbf000150-resize_1/003081_2014-06-15_15-19-16_094959634447_rgbf000150-resize_1-target.png,250,3.9125,6,3294,251,meters,jsons/v1_VE250_randls_47_rotated.json,723555,1049829,55,Woman
39,255144,DepthScenes,duration_manipulation_targetAtFixation,jsons/v1_VE250_randls_47_rotated.json,http://54.235.29.9/FacialAge/BNav_EC2/DepthDuration/v2_depth_duration_MTurk/v2_DepthDuration_HTML.html#21,21,1360,768,1360,768,8-20-2022,11-43-15,40,depth_duration_stimuli/001417_2014-06-19_16-25-36_260595134347_rgbf000115-resize_5/001417_2014-06-19_16-25-36_260595134347_rgbf000115-resize_5-target.png,250,4.6255,5,3429,249,meters,jsons/v1_VE250_randls_47_rotated.json,723555,1049829,55,Woman
40,255144,DepthScenes,duration_manipulation_targetAtFixation,jsons/v1_VE250_randls_47_rotated.json,http://54.235.29.9/FacialAge/BNav_EC2/DepthDuration/v2_depth_duration_MTurk/v2_DepthDuration_HTML.html#21,21,1360,768,1360,768,8-20-2022,11-43-15,41,depth_duration_stimuli/001447_2014-06-19_17-00-32_260595134347_rgbf000082-resize_5/001447_2014-06-19_17-00-32_260595134347_rgbf000082-resize_5-target.png,250,4.13775,5,3014,245,meters,jsons/v1_VE250_randls_47_rotated.json,723555,1049829,55,Woman
41,255144,DepthScenes,duration_manipulation_targetAtFixation,jsons/v1_VE250_randls_47_rotated.json,http://54.235.29.9/FacialAge/BNav_EC2/DepthDuration/v2_depth_duration_MTurk/v2_DepthDuration_HTML.html#21,21,1360,768,1360,768,8-20-2022,11-43-15,42,depth_duration_stimuli/000447_2014-06-08_16-15-46_260595134347_rgbf000130-resize_1/000447_2014-06-08_16-15-46_260595134347_rgbf000130-resize_1-target.png,250,4.479,6,3707,258,meters,jsons/v1_VE250_randls_47_rotated.json,723555,1049829,55,Woman
42,255144,DepthScenes,duration_manipulation_targetAtFixation,jsons/v1_VE250_randls_47_rotated.json,http://54.235.29.9/FacialAge/BNav_EC2/DepthDuration/v2_depth_duration_MTurk/v2_DepthDuration_HTML.html#21,21,1360,768,1360,768,8-20-2022,11-43-15,43,depth_duration_stimuli/000191_2014-05-12_17-07-38_260595134347_rgbf000199-resize_0/000191_2014-05-12_17-07-38_260595134347_rgbf000199-resize_0-target.png,250,3.7995,6,3658,228,meters,jsons/v1_VE250_randls_47_rotated.json,723555,1049829,55,Woman
43,255144,DepthScenes,duration_manipulation_targetAtFixation,jsons/v1_VE250_randls_47_rotated.json,http://54.235.29.9/FacialAge/BNav_EC2/DepthDuration/v2_depth_duration_MTurk/v2_DepthDuration_HTML.html#21,21,1360,768,1360,768,8-20-2022,11-43-15,44,depth_duration_stimuli/000493_2014-06-09_21-01-18_260595134347_rgbf000196-resize_3/000493_2014-06-09_21-01-18_260595134347_rgbf000196-resize_3-target.png,250,3.44,5,3197,246,meters,jsons/v1_VE250_randls_47_rotated.json,723555,1049829,55,Woman
44,255144,DepthScenes,duration_manipulation_targetAtFixation,jsons/v1_VE250_randls_47_rotated.json,http://54.235.29.9/FacialAge/BNav_EC2/DepthDuration/v2_depth_duration_MTurk/v2_DepthDuration_HTML.html#21,21,1360,768,1360,768,8-20-2022,11-43-15,45,depth_duration_stimuli/002875_2014-06-01_15-19-00_094959634447_rgbf000151-resize_1/002875_2014-06-01_15-19-00_094959634447_rgbf000151-resize_1-target.png,250,1.9675,5,5932,250,meters,jsons/v1_VE250_randls_47_rotated.json,723555,1049829,55,Woman
45,255144,DepthScenes,duration_manipulation_targetAtFixation,jsons/v1_VE250_randls_47_rotated.json,http://54.235.29.9/FacialAge/BNav_EC2/DepthDuration/v2_depth_duration_MTurk/v2_DepthDuration_HTML.html#21,21,1360,768,1360,768,8-20-2022,11-43-15,46,depth_duration_stimuli/001011_2014-06-08_23-18-54_260595134347_rgbf000044-resize_4/001011_2014-06-08_23-18-54_260595134347_rgbf000044-resize_4-target.png,250,2.4730000000000003,5,3285,250,meters,jsons/v1_VE250_randls_47_rotated.json,723555,1049829,55,Woman
46,255144,DepthScenes,duration_manipulation_targetAtFixation,jsons/v1_VE250_randls_47_rotated.json,http://54.235.29.9/FacialAge/BNav_EC2/DepthDuration/v2_depth_duration_MTurk/v2_DepthDuration_HTML.html#21,21,1360,768,1360,768,8-20-2022,11-43-15,47,depth_duration_stimuli/000457_2014-06-08_16-52-43_260595134347_rgbf000199-resize_1/000457_2014-06-08_16-52-43_260595134347_rgbf000199-resize_1-target.png,250,3.6489999999999996,4,4014,182,meters,jsons/v1_VE250_randls_47_rotated.json,723555,1049829,55,Woman
47,255144,DepthScenes,duration_manipulation_targetAtFixation,jsons/v1_VE250_randls_47_rotated.json,http://54.235.29.9/FacialAge/BNav_EC2/DepthDuration/v2_depth_duration_MTurk/v2_DepthDuration_HTML.html#21,21,1360,768,1360,768,8-20-2022,11-43-15,48,depth_duration_stimuli/000929_2014-06-09_16-33-19_260595134347_rgbf000139-resize_0/000929_2014-06-09_16-33-19_260595134347_rgbf000139-resize_0-target.png,250,2.8680000000000003,5,3676,255,meters,jsons/v1_VE250_randls_47_rotated.json,723555,1049829,55,Woman
48,255144,DepthScenes,duration_manipulation_targetAtFixation,jsons/v1_VE250_randls_47_rotated.json,http://54.235.29.9/FacialAge/BNav_EC2/DepthDuration/v2_depth_duration_MTurk/v2_DepthDuration_HTML.html#21,21,1360,768,1360,768,8-20-2022,11-43-15,49,depth_duration_stimuli/001170_2014-06-17_15-43-44_260595134347_rgbf000096-resize_6/001170_2014-06-17_15-43-44_260595134347_rgbf000096-resize-original.jpg,250,1.1909999999999998,0,2937,254,meters,jsons/v1_VE250_randls_47_rotated.json,723555,1049829,55,Woman
49,255144,DepthScenes,duration_manipulation_targetAtFixation,jsons/v1_VE250_randls_47_rotated.json,http://54.235.29.9/FacialAge/BNav_EC2/DepthDuration/v2_depth_duration_MTurk/v2_DepthDuration_HTML.html#21,21,1360,768,1360,768,8-20-2022,11-43-15,50,depth_duration_stimuli/002344_2014-06-28_20-06-29_260595134347_rgbf000030-resize_1/002344_2014-06-28_20-06-29_260595134347_rgbf000030-resize_1-target.png,250,1.5795,5,3149,237,meters,jsons/v1_VE250_randls_47_rotated.json,723555,1049829,55,Woman
50,255144,DepthScenes,duration_manipulation_targetAtFixation,jsons/v1_VE250_randls_47_rotated.json,http://54.235.29.9/FacialAge/BNav_EC2/DepthDuration/v2_depth_duration_MTurk/v2_DepthDuration_HTML.html#21,21,1360,768,1360,768,8-20-2022,11-43-15,51,depth_duration_stimuli/002725_2014-06-22_11-47-51_094959634447_rgbf000070-resize_1/002725_2014-06-22_11-47-51_094959634447_rgbf000070-resize_1-target.png,250,2.195,6,3463,243,meters,jsons/v1_VE250_randls_47_rotated.json,723555,1049829,55,Woman
51,255144,DepthScenes,duration_manipulation_targetAtFixation,jsons/v1_VE250_randls_47_rotated.json,http://54.235.29.9/FacialAge/BNav_EC2/DepthDuration/v2_depth_duration_MTurk/v2_DepthDuration_HTML.html#21,21,1360,768,1360,768,8-20-2022,11-43-15,52,depth_duration_stimuli/003228_2014-05-14_13-42-35_094959634447_rgbf000101-resize_1/003228_2014-05-14_13-42-35_094959634447_rgbf000101-resize_1-target.png,250,1.9680000000000002,5,5386,252,meters,jsons/v1_VE250_randls_47_rotated.json,723555,1049829,55,Woman
52,255144,DepthScenes,duration_manipulation_targetAtFixation,jsons/v1_VE250_randls_47_rotated.json,http://54.235.29.9/FacialAge/BNav_EC2/DepthDuration/v2_depth_duration_MTurk/v2_DepthDuration_HTML.html#21,21,1360,768,1360,768,8-20-2022,11-43-15,53,depth_duration_stimuli/002600_2014-06-24_14-27-04_094959634447_rgbf000074-resize_2/002600_2014-06-24_14-27-04_094959634447_rgbf000074-resize_2-target.png,250,2.7575,6,3246,248,meters,jsons/v1_VE250_randls_47_rotated.json,723555,1049829,55,Woman
53,255144,DepthScenes,duration_manipulation_targetAtFixation,jsons/v1_VE250_randls_47_rotated.json,http://54.235.29.9/FacialAge/BNav_EC2/DepthDuration/v2_depth_duration_MTurk/v2_DepthDuration_HTML.html#21,21,1360,768,1360,768,8-20-2022,11-43-15,54,depth_duration_stimuli/003129_2014-05-12_10-48-10_094959634447_rgbf000100-resize_0/003129_2014-05-12_10-48-10_094959634447_rgbf000100-resize_0-target.png,250,4.9305,5,4040,212,meters,jsons/v1_VE250_randls_47_rotated.json,723555,1049829,55,Woman
54,255144,DepthScenes,duration_manipulation_targetAtFixation,jsons/v1_VE250_randls_47_rotated.json,http://54.235.29.9/FacialAge/BNav_EC2/DepthDuration/v2_depth_duration_MTurk/v2_DepthDuration_HTML.html#21,21,1360,768,1360,768,8-20-2022,11-43-15,55,depth_duration_stimuli/000414_2014-06-04_19-49-13_260595134347_rgbf000044-resize_0/000414_2014-06-04_19-49-13_260595134347_rgbf000044-resize_0-target.png,250,4.329,5,3559,249,meters,jsons/v1_VE250_randls_47_rotated.json,723555,1049829,55,Woman
55,255144,DepthScenes,duration_manipulation_targetAtFixation,jsons/v1_VE250_randls_47_rotated.json,http://54.235.29.9/FacialAge/BNav_EC2/DepthDuration/v2_depth_duration_MTurk/v2_DepthDuration_HTML.html#21,21,1360,768,1360,768,8-20-2022,11-43-15,56,depth_duration_stimuli/001450_2014-06-19_17-02-03_260595134347_rgbf000203-resize_4/001450_2014-06-19_17-02-03_260595134347_rgbf000203-resize_4-target.png,250,4.0106666666667,6,3270,249,meters,jsons/v1_VE250_randls_47_rotated.json,723555,1049829,55,Woman
56,255144,DepthScenes,duration_manipulation_targetAtFixation,jsons/v1_VE250_randls_47_rotated.json,http://54.235.29.9/FacialAge/BNav_EC2/DepthDuration/v2_depth_duration_MTurk/v2_DepthDuration_HTML.html#21,21,1360,768,1360,768,8-20-2022,11-43-15,57,depth_duration_stimuli/001449_2014-06-19_17-01-27_260595134347_rgbf000116-resize_2/001449_2014-06-19_17-01-27_260595134347_rgbf000116-resize_2-target.png,250,3.452,4,3569,250,meters,jsons/v1_VE250_randls_47_rotated.json,723555,1049829,55,Woman
57,255144,DepthScenes,duration_manipulation_targetAtFixation,jsons/v1_VE250_randls_47_rotated.json,http://54.235.29.9/FacialAge/BNav_EC2/DepthDuration/v2_depth_duration_MTurk/v2_DepthDuration_HTML.html#21,21,1360,768,1360,768,8-20-2022,11-43-15,58,depth_duration_stimuli/000677_2014-06-08_23-10-32_260595134347_rgbf000158-resize_6/000677_2014-06-08_23-10-32_260595134347_rgbf000158-resize_6-target.png,250,3.556,4,2988,252,meters,jsons/v1_VE250_randls_47_rotated.json,723555,1049829,55,Woman
58,255144,DepthScenes,duration_manipulation_targetAtFixation,jsons/v1_VE250_randls_47_rotated.json,http://54.235.29.9/FacialAge/BNav_EC2/DepthDuration/v2_depth_duration_MTurk/v2_DepthDuration_HTML.html#21,21,1360,768,1360,768,8-20-2022,11-43-15,59,depth_duration_stimuli/001029_2014-06-08_13-17-57_260595134347_rgbf000065-resize_1/001029_2014-06-08_13-17-57_260595134347_rgbf000065-resize_1-target.png,250,3.0835,5,2797,235,meters,jsons/v1_VE250_randls_47_rotated.json,723555,1049829,55,Woman
59,255144,DepthScenes,duration_manipulation_targetAtFixation,jsons/v1_VE250_randls_47_rotated.json,http://54.235.29.9/FacialAge/BNav_EC2/DepthDuration/v2_depth_duration_MTurk/v2_DepthDuration_HTML.html#21,21,1360,768,1360,768,8-20-2022,11-43-15,60,depth_duration_stimuli/000691_2014-06-08_13-08-50_260595134347_rgbf000132-resize_3/000691_2014-06-08_13-08-50_260595134347_rgbf000132-resize_3-target.png,250,4.1530000000000005,5,2749,259,meters,jsons/v1_VE250_randls_47_rotated.json,723555,1049829,55,Woman
60,255144,DepthScenes,duration_manipulation_targetAtFixation,jsons/v1_VE250_randls_47_rotated.json,http://54.235.29.9/FacialAge/BNav_EC2/DepthDuration/v2_depth_duration_MTurk/v2_DepthDuration_HTML.html#21,21,1360,768,1360,768,8-20-2022,11-43-15,61,depth_duration_stimuli/002213_2014-06-28_18-37-58_260595134347_rgbf000055-resize_1/002213_2014-06-28_18-37-58_260595134347_rgbf000055-resize_1-target.png,250,3.62,5,2899,263,meters,jsons/v1_VE250_randls_47_rotated.json,723555,1049829,55,Woman
61,255144,DepthScenes,duration_manipulation_targetAtFixation,jsons/v1_VE250_randls_47_rotated.json,http://54.235.29.9/FacialAge/BNav_EC2/DepthDuration/v2_depth_duration_MTurk/v2_DepthDuration_HTML.html#21,21,1360,768,1360,768,8-20-2022,11-43-15,62,depth_duration_stimuli/003083_2014-06-15_15-21-03_094959634447_rgbf000063-resize_1/003083_2014-06-15_15-21-03_094959634447_rgbf000063-resize_1-target.png,250,4.1405,4,2637,197,meters,jsons/v1_VE250_randls_47_rotated.json,723555,1049829,55,Woman
62,255144,DepthScenes,duration_manipulation_targetAtFixation,jsons/v1_VE250_randls_47_rotated.json,http://54.235.29.9/FacialAge/BNav_EC2/DepthDuration/v2_depth_duration_MTurk/v2_DepthDuration_HTML.html#21,21,1360,768,1360,768,8-20-2022,11-43-15,63,depth_duration_stimuli/000486_2014-06-09_20-47-20_260595134347_rgbf000143-resize_2/000486_2014-06-09_20-47-20_260595134347_rgbf000143-resize_2-target.png,250,4.8325,5,7637,254,meters,jsons/v1_VE250_randls_47_rotated.json,723555,1049829,55,Woman
63,255144,DepthScenes,duration_manipulation_targetAtFixation,jsons/v1_VE250_randls_47_rotated.json,http://54.235.29.9/FacialAge/BNav_EC2/DepthDuration/v2_depth_duration_MTurk/v2_DepthDuration_HTML.html#21,21,1360,768,1360,768,8-20-2022,11-43-15,64,depth_duration_stimuli/001617_2014-06-20_11-35-32_260595134347_rgbf000066-resize_1/001617_2014-06-20_11-35-32_260595134347_rgbf000066-resize_1-target.png,250,3.7910000000000004,6,3011,236,meters,jsons/v1_VE250_randls_47_rotated.json,723555,1049829,55,Woman
64,255144,DepthScenes,duration_manipulation_targetAtFixation,jsons/v1_VE250_randls_47_rotated.json,http://54.235.29.9/FacialAge/BNav_EC2/DepthDuration/v2_depth_duration_MTurk/v2_DepthDuration_HTML.html#21,21,1360,768,1360,768,8-20-2022,11-43-15,65,depth_duration_stimuli/001806_2014-06-26_20-50-20_260595134347_rgbf000091-resize_1/001806_2014-06-26_20-50-20_260595134347_rgbf000091-resize_1-target.png,250,2.7305,4,2607,251,meters,jsons/v1_VE250_randls_47_rotated.json,723555,1049829,55,Woman
65,255144,DepthScenes,duration_manipulation_targetAtFixation,jsons/v1_VE250_randls_47_rotated.json,http://54.235.29.9/FacialAge/BNav_EC2/DepthDuration/v2_depth_duration_MTurk/v2_DepthDuration_HTML.html#21,21,1360,768,1360,768,8-20-2022,11-43-15,66,depth_duration_stimuli/001540_2014-06-20_17-01-05_260595134347_rgbf000086-resize_2/001540_2014-06-20_17-01-05_260595134347_rgbf000086-resize-original.jpg,250,1.459,0,3592,286,meters,jsons/v1_VE250_randls_47_rotated.json,723555,1049829,55,Woman
66,255144,DepthScenes,duration_manipulation_targetAtFixation,jsons/v1_VE250_randls_47_rotated.json,http://54.235.29.9/FacialAge/BNav_EC2/DepthDuration/v2_depth_duration_MTurk/v2_DepthDuration_HTML.html#21,21,1360,768,1360,768,8-20-2022,11-43-15,67,depth_duration_stimuli/001094_2014-06-15_17-36-00_260595134347_rgbf000205-resize_0/001094_2014-06-15_17-36-00_260595134347_rgbf000205-resize_0-target.png,250,4.2175,5,3005,251,meters,jsons/v1_VE250_randls_47_rotated.json,723555,1049829,55,Woman
67,255144,DepthScenes,duration_manipulation_targetAtFixation,jsons/v1_VE250_randls_47_rotated.json,http://54.235.29.9/FacialAge/BNav_EC2/DepthDuration/v2_depth_duration_MTurk/v2_DepthDuration_HTML.html#21,21,1360,768,1360,768,8-20-2022,11-43-15,68,depth_duration_stimuli/000692_2014-06-08_13-09-42_260595134347_rgbf000199-resize_2/000692_2014-06-08_13-09-42_260595134347_rgbf000199-resize_2-target.png,250,3.661,4,2600,249,meters,jsons/v1_VE250_randls_47_rotated.json,723555,1049829,55,Woman
68,255144,DepthScenes,duration_manipulation_targetAtFixation,jsons/v1_VE250_randls_47_rotated.json,http://54.235.29.9/FacialAge/BNav_EC2/DepthDuration/v2_depth_duration_MTurk/v2_DepthDuration_HTML.html#21,21,1360,768,1360,768,8-20-2022,11-43-15,69,depth_duration_stimuli/000502_2014-06-08_23-02-32_260595134347_rgbf000063-resize_4/000502_2014-06-08_23-02-32_260595134347_rgbf000063-resize_4-target.png,250,2.431,5,4678,237,meters,jsons/v1_VE250_randls_47_rotated.json,723555,1049829,55,Woman
69,255144,DepthScenes,duration_manipulation_targetAtFixation,jsons/v1_VE250_randls_47_rotated.json,http://54.235.29.9/FacialAge/BNav_EC2/DepthDuration/v2_depth_duration_MTurk/v2_DepthDuration_HTML.html#21,21,1360,768,1360,768,8-20-2022,11-43-15,70,depth_duration_stimuli/001199_2014-06-17_16-03-48_260595134347_rgbf000077-resize_0/001199_2014-06-17_16-03-48_260595134347_rgbf000077-resize_0-target.png,250,3.4375,4,2667,244,meters,jsons/v1_VE250_randls_47_rotated.json,723555,1049829,55,Woman
70,255144,DepthScenes,duration_manipulation_targetAtFixation,jsons/v1_VE250_randls_47_rotated.json,http://54.235.29.9/FacialAge/BNav_EC2/DepthDuration/v2_depth_duration_MTurk/v2_DepthDuration_HTML.html#21,21,1360,768,1360,768,8-20-2022,11-43-15,71,depth_duration_stimuli/002340_2014-06-28_20-05-46_260595134347_rgbf000113-resize_0/002340_2014-06-28_20-05-46_260595134347_rgbf000113-resize_0-target.png,250,2.4735,5,3107,235,meters,jsons/v1_VE250_randls_47_rotated.json,723555,1049829,55,Woman
71,255144,DepthScenes,duration_manipulation_targetAtFixation,jsons/v1_VE250_randls_47_rotated.json,http://54.235.29.9/FacialAge/BNav_EC2/DepthDuration/v2_depth_duration_MTurk/v2_DepthDuration_HTML.html#21,21,1360,768,1360,768,8-20-2022,11-43-15,72,depth_duration_stimuli/001016_2014-06-09_16-16-10_260595134347_rgbf000112-resize_5/001016_2014-06-09_16-16-10_260595134347_rgbf000112-resize_5-target.png,250,1.6565,4,2898,252,meters,jsons/v1_VE250_randls_47_rotated.json,723555,1049829,55,Woman
72,255144,DepthScenes,duration_manipulation_targetAtFixation,jsons/v1_VE250_randls_47_rotated.json,http://54.235.29.9/FacialAge/BNav_EC2/DepthDuration/v2_depth_duration_MTurk/v2_DepthDuration_HTML.html#21,21,1360,768,1360,768,8-20-2022,11-43-15,73,depth_duration_stimuli/002949_2014-06-26_15-57-42_094959634447_rgbf000079-resize_1/002949_2014-06-26_15-57-42_094959634447_rgbf000079-resize_1-target.png,250,1.8915,6,4225,263,meters,jsons/v1_VE250_randls_47_rotated.json,723555,1049829,55,Woman
73,255144,DepthScenes,duration_manipulation_targetAtFixation,jsons/v1_VE250_randls_47_rotated.json,http://54.235.29.9/FacialAge/BNav_EC2/DepthDuration/v2_depth_duration_MTurk/v2_DepthDuration_HTML.html#21,21,1360,768,1360,768,8-20-2022,11-43-15,74,depth_duration_stimuli/000522_2014-06-08_13-35-06_260595134347_rgbf000244-resize_1/000522_2014-06-08_13-35-06_260595134347_rgbf000244-resize_1-target.png,250,2.3715,5,4099,246,meters,jsons/v1_VE250_randls_47_rotated.json,723555,1049829,55,Woman
74,255144,DepthScenes,duration_manipulation_targetAtFixation,jsons/v1_VE250_randls_47_rotated.json,http://54.235.29.9/FacialAge/BNav_EC2/DepthDuration/v2_depth_duration_MTurk/v2_DepthDuration_HTML.html#21,21,1360,768,1360,768,8-20-2022,11-43-15,75,depth_duration_stimuli/001052_2014-06-08_18-24-54_260595134347_rgbf000130-resize_1/001052_2014-06-08_18-24-54_260595134347_rgbf000130-resize_1-target.png,250,4.1045,4,3204,247,meters,jsons/v1_VE250_randls_47_rotated.json,723555,1049829,55,Woman
75,255144,DepthScenes,duration_manipulation_targetAtFixation,jsons/v1_VE250_randls_47_rotated.json,http://54.235.29.9/FacialAge/BNav_EC2/DepthDuration/v2_depth_duration_MTurk/v2_DepthDuration_HTML.html#21,21,1360,768,1360,768,8-20-2022,11-43-15,76,depth_duration_stimuli/002988_2014-06-15_12-24-20_094959634447_rgbf000150-resize_1/002988_2014-06-15_12-24-20_094959634447_rgbf000150-resize_1-target.png,250,4.7669999999999995,6,3342,247,meters,jsons/v1_VE250_randls_47_rotated.json,723555,1049829,55,Woman
76,255144,DepthScenes,duration_manipulation_targetAtFixation,jsons/v1_VE250_randls_47_rotated.json,http://54.235.29.9/FacialAge/BNav_EC2/DepthDuration/v2_depth_duration_MTurk/v2_DepthDuration_HTML.html#21,21,1360,768,1360,768,8-20-2022,11-43-15,77,depth_duration_stimuli/002425_2014-06-28_20-27-29_260595134347_rgbf000031-resize_8/002425_2014-06-28_20-27-29_260595134347_rgbf000031-resize_8-target.png,250,3.8960000000000004,5,44120,248,meters,jsons/v1_VE250_randls_47_rotated.json,723555,1049829,55,Woman
77,255144,DepthScenes,duration_manipulation_targetAtFixation,jsons/v1_VE250_randls_47_rotated.json,http://54.235.29.9/FacialAge/BNav_EC2/DepthDuration/v2_depth_duration_MTurk/v2_DepthDuration_HTML.html#21,21,1360,768,1360,768,8-20-2022,11-43-15,78,depth_duration_stimuli/000642_2014-06-08_16-59-25_260595134347_rgbf000098-resize_2/000642_2014-06-08_16-59-25_260595134347_rgbf000098-resize_2-target.png,250,2.8815,5,3007,247,meters,jsons/v1_VE250_randls_47_rotated.json,723555,1049829,55,Woman
78,255144,DepthScenes,duration_manipulation_targetAtFixation,jsons/v1_VE250_randls_47_rotated.json,http://54.235.29.9/FacialAge/BNav_EC2/DepthDuration/v2_depth_duration_MTurk/v2_DepthDuration_HTML.html#21,21,1360,768,1360,768,8-20-2022,11-43-15,79,depth_duration_stimuli/002545_2014-06-24_13-38-53_094959634447_rgbf000080-resize_4/002545_2014-06-24_13-38-53_094959634447_rgbf000080-resize_4-target.png,250,1.9205,4,2693,242,meters,jsons/v1_VE250_randls_47_rotated.json,723555,1049829,55,Woman
79,255144,DepthScenes,duration_manipulation_targetAtFixation,jsons/v1_VE250_randls_47_rotated.json,http://54.235.29.9/FacialAge/BNav_EC2/DepthDuration/v2_depth_duration_MTurk/v2_DepthDuration_HTML.html#21,21,1360,768,1360,768,8-20-2022,11-43-15,80,depth_duration_stimuli/001092_2014-06-15_17-34-58_260595134347_rgbf000171-resize_3/001092_2014-06-15_17-34-58_260595134347_rgbf000171-resize_3-target.png,250,2.6935,5,2707,255,meters,jsons/v1_VE250_randls_47_rotated.json,723555,1049829,55,Woman
80,255144,DepthScenes,duration_manipulation_targetAtFixation,jsons/v1_VE250_randls_47_rotated.json,http://54.235.29.9/FacialAge/BNav_EC2/DepthDuration/v2_depth_duration_MTurk/v2_DepthDuration_HTML.html#21,21,1360,768,1360,768,8-20-2022,11-43-15,81,depth_duration_stimuli/001815_2014-06-26_20-52-55_260595134347_rgbf000020-resize_0/001815_2014-06-26_20-52-55_260595134347_rgbf000020-resize_0-target.png,250,3.3865,6,3468,248,meters,jsons/v1_VE250_randls_47_rotated.json,723555,1049829,55,Woman
81,255144,DepthScenes,duration_manipulation_targetAtFixation,jsons/v1_VE250_randls_47_rotated.json,http://54.235.29.9/FacialAge/BNav_EC2/DepthDuration/v2_depth_duration_MTurk/v2_DepthDuration_HTML.html#21,21,1360,768,1360,768,8-20-2022,11-43-15,82,depth_duration_stimuli/001808_2014-06-26_20-50-58_260595134347_rgbf000029-resize_1/001808_2014-06-26_20-50-58_260595134347_rgbf000029-resize_1-target.png,250,4.249,4,3905,253,meters,jsons/v1_VE250_randls_47_rotated.json,723555,1049829,55,Woman
82,255144,DepthScenes,duration_manipulation_targetAtFixation,jsons/v1_VE250_randls_47_rotated.json,http://54.235.29.9/FacialAge/BNav_EC2/DepthDuration/v2_depth_duration_MTurk/v2_DepthDuration_HTML.html#21,21,1360,768,1360,768,8-20-2022,11-43-15,83,depth_duration_stimuli/001032_2014-06-08_13-23-17_260595134347_rgbf000021-resize_3/001032_2014-06-08_13-23-17_260595134347_rgbf000021-resize_3-target.png,250,3.2725,4,3371,255,meters,jsons/v1_VE250_randls_47_rotated.json,723555,1049829,55,Woman
83,255144,DepthScenes,duration_manipulation_targetAtFixation,jsons/v1_VE250_randls_47_rotated.json,http://54.235.29.9/FacialAge/BNav_EC2/DepthDuration/v2_depth_duration_MTurk/v2_DepthDuration_HTML.html#21,21,1360,768,1360,768,8-20-2022,11-43-15,84,depth_duration_stimuli/001059_2014-06-08_21-53-27_260595134347_rgbf000061-resize_4/001059_2014-06-08_21-53-27_260595134347_rgbf000061-resize_4-target.png,250,2.4185,6,3205,251,meters,jsons/v1_VE250_randls_47_rotated.json,723555,1049829,55,Woman
84,255144,DepthScenes,duration_manipulation_targetAtFixation,jsons/v1_VE250_randls_47_rotated.json,http://54.235.29.9/FacialAge/BNav_EC2/DepthDuration/v2_depth_duration_MTurk/v2_DepthDuration_HTML.html#21,21,1360,768,1360,768,8-20-2022,11-43-15,85,depth_duration_stimuli/002660_2014-06-13_15-44-18_094959634447_rgbf001878-resize_2/002660_2014-06-13_15-44-18_094959634447_rgbf001878-resize_2-target.png,250,3.576,5,2666,242,meters,jsons/v1_VE250_randls_47_rotated.json,723555,1049829,55,Woman
85,255144,DepthScenes,duration_manipulation_targetAtFixation,jsons/v1_VE250_randls_47_rotated.json,http://54.235.29.9/FacialAge/BNav_EC2/DepthDuration/v2_depth_duration_MTurk/v2_DepthDuration_HTML.html#21,21,1360,768,1360,768,8-20-2022,11-43-15,86,depth_duration_stimuli/002153_2014-06-25_21-27-18_260595134347_rgbf000038-resize_5/002153_2014-06-25_21-27-18_260595134347_rgbf000038-resize_5-target.png,250,2.505,4,2542,246,meters,jsons/v1_VE250_randls_47_rotated.json,723555,1049829,55,Woman
86,255144,DepthScenes,duration_manipulation_targetAtFixation,jsons/v1_VE250_randls_47_rotated.json,http://54.235.29.9/FacialAge/BNav_EC2/DepthDuration/v2_depth_duration_MTurk/v2_DepthDuration_HTML.html#21,21,1360,768,1360,768,8-20-2022,11-43-15,87,depth_duration_stimuli/003079_2014-06-15_15-18-20_094959634447_rgbf000152-resize_8/003079_2014-06-15_15-18-20_094959634447_rgbf000152-resize_8-target.png,250,2.8775,5,2403,243,meters,jsons/v1_VE250_randls_47_rotated.json,723555,1049829,55,Woman
87,255144,DepthScenes,duration_manipulation_targetAtFixation,jsons/v1_VE250_randls_47_rotated.json,http://54.235.29.9/FacialAge/BNav_EC2/DepthDuration/v2_depth_duration_MTurk/v2_DepthDuration_HTML.html#21,21,1360,768,1360,768,8-20-2022,11-43-15,88,depth_duration_stimuli/000506_2014-06-08_23-21-00_260595134347_rgbf000070-resize_7/000506_2014-06-08_23-21-00_260595134347_rgbf000070-resize_7-target.png,250,4.0585,6,2735,230,meters,jsons/v1_VE250_randls_47_rotated.json,723555,1049829,55,Woman
88,255144,DepthScenes,duration_manipulation_targetAtFixation,jsons/v1_VE250_randls_47_rotated.json,http://54.235.29.9/FacialAge/BNav_EC2/DepthDuration/v2_depth_duration_MTurk/v2_DepthDuration_HTML.html#21,21,1360,768,1360,768,8-20-2022,11-43-15,89,depth_duration_stimuli/003423_2014-05-21_10-23-26_094959634447_rgbf002665-resize_2/003423_2014-05-21_10-23-26_094959634447_rgbf002665-resize_2-target.png,250,3.2575,5,2863,240,meters,jsons/v1_VE250_randls_47_rotated.json,723555,1049829,55,Woman
89,255144,DepthScenes,duration_manipulation_targetAtFixation,jsons/v1_VE250_randls_47_rotated.json,http://54.235.29.9/FacialAge/BNav_EC2/DepthDuration/v2_depth_duration_MTurk/v2_DepthDuration_HTML.html#21,21,1360,768,1360,768,8-20-2022,11-43-15,90,depth_duration_stimuli/002905_2014-06-03_18-04-43_094959634447_rgbf000151-resize_2/002905_2014-06-03_18-04-43_094959634447_rgbf000151-resize_2-target.png,250,2.0295,4,2415,237,meters,jsons/v1_VE250_randls_47_rotated.json,723555,1049829,55,Woman
90,255144,DepthScenes,duration_manipulation_targetAtFixation,jsons/v1_VE250_randls_47_rotated.json,http://54.235.29.9/FacialAge/BNav_EC2/DepthDuration/v2_depth_duration_MTurk/v2_DepthDuration_HTML.html#21,21,1360,768,1360,768,8-20-2022,11-43-15,91,depth_duration_stimuli/002639_2014-06-24_14-51-37_094959634447_rgbf000074-resize_4/002639_2014-06-24_14-51-37_094959634447_rgbf000074-resize_4-target.png,250,4.0375,6,2978,243,meters,jsons/v1_VE250_randls_47_rotated.json,723555,1049829,55,Woman
91,255144,DepthScenes,duration_manipulation_targetAtFixation,jsons/v1_VE250_randls_47_rotated.json,http://54.235.29.9/FacialAge/BNav_EC2/DepthDuration/v2_depth_duration_MTurk/v2_DepthDuration_HTML.html#21,21,1360,768,1360,768,8-20-2022,11-43-15,92,depth_duration_stimuli/003292_2014-05-14_21-53-49_094959634447_rgbf000100-resize_2/003292_2014-05-14_21-53-49_094959634447_rgbf000100-resize_2-target.png,250,3.4815,4,2900,245,meters,jsons/v1_VE250_randls_47_rotated.json,723555,1049829,55,Woman
92,255144,DepthScenes,duration_manipulation_targetAtFixation,jsons/v1_VE250_randls_47_rotated.json,http://54.235.29.9/FacialAge/BNav_EC2/DepthDuration/v2_depth_duration_MTurk/v2_DepthDuration_HTML.html#21,21,1360,768,1360,768,8-20-2022,11-43-15,93,depth_duration_stimuli/001136_2014-06-17_15-19-41_260595134347_rgbf000076-resize_3/001136_2014-06-17_15-19-41_260595134347_rgbf000076-resize_3-target.png,250,1.8655,5,2644,249,meters,jsons/v1_VE250_randls_47_rotated.json,723555,1049829,55,Woman
93,255144,DepthScenes,duration_manipulation_targetAtFixation,jsons/v1_VE250_randls_47_rotated.json,http://54.235.29.9/FacialAge/BNav_EC2/DepthDuration/v2_depth_duration_MTurk/v2_DepthDuration_HTML.html#21,21,1360,768,1360,768,8-20-2022,11-43-15,94,depth_duration_stimuli/001164_2014-06-17_15-35-46_260595134347_rgbf000085-resize_3/001164_2014-06-17_15-35-46_260595134347_rgbf000085-resize_3-target.png,250,2.354,1,2479,249,meters,jsons/v1_VE250_randls_47_rotated.json,723555,1049829,55,Woman
94,255144,DepthScenes,duration_manipulation_targetAtFixation,jsons/v1_VE250_randls_47_rotated.json,http://54.235.29.9/FacialAge/BNav_EC2/DepthDuration/v2_depth_duration_MTurk/v2_DepthDuration_HTML.html#21,21,1360,768,1360,768,8-20-2022,11-43-15,95,depth_duration_stimuli/000103_2014-05-14_22-01-17_260595134347_rgbf000152-resize_5/000103_2014-05-14_22-01-17_260595134347_rgbf000152-resize_5-target.png,250,1.993,3,7537,247,meters,jsons/v1_VE250_randls_47_rotated.json,723555,1049829,55,Woman
95,255144,DepthScenes,duration_manipulation_targetAtFixation,jsons/v1_VE250_randls_47_rotated.json,http://54.235.29.9/FacialAge/BNav_EC2/DepthDuration/v2_depth_duration_MTurk/v2_DepthDuration_HTML.html#21,21,1360,768,1360,768,8-20-2022,11-43-15,96,depth_duration_stimuli/001555_2014-06-20_17-12-10_260595134347_rgbf000065-resize_4/001555_2014-06-20_17-12-10_260595134347_rgbf000065-resize_4-target.png,250,1.633,3,3103,244,meters,jsons/v1_VE250_randls_47_rotated.json,723555,1049829,55,Woman
96,255144,DepthScenes,duration_manipulation_targetAtFixation,jsons/v1_VE250_randls_47_rotated.json,http://54.235.29.9/FacialAge/BNav_EC2/DepthDuration/v2_depth_duration_MTurk/v2_DepthDuration_HTML.html#21,21,1360,768,1360,768,8-20-2022,11-43-15,97,depth_duration_stimuli/000709_2014-06-08_13-51-55_260595134347_rgbf000068-resize_3/000709_2014-06-08_13-51-55_260595134347_rgbf000068-resize_3-target.png,250,1.8030000000000002,5,2688,243,meters,jsons/v1_VE250_randls_47_rotated.json,723555,1049829,55,Woman
97,255144,DepthScenes,duration_manipulation_targetAtFixation,jsons/v1_VE250_randls_47_rotated.json,http://54.235.29.9/FacialAge/BNav_EC2/DepthDuration/v2_depth_duration_MTurk/v2_DepthDuration_HTML.html#21,21,1360,768,1360,768,8-20-2022,11-43-15,98,depth_duration_stimuli/002057_2014-06-24_21-00-13_260595134347_rgbf000120-resize_1/002057_2014-06-24_21-00-13_260595134347_rgbf000120-resize_1-target.png,250,2.967,5,3190,249,meters,jsons/v1_VE250_randls_47_rotated.json,723555,1049829,55,Woman
98,255144,DepthScenes,duration_manipulation_targetAtFixation,jsons/v1_VE250_randls_47_rotated.json,http://54.235.29.9/FacialAge/BNav_EC2/DepthDuration/v2_depth_duration_MTurk/v2_DepthDuration_HTML.html#21,21,1360,768,1360,768,8-20-2022,11-43-15,99,depth_duration_stimuli/001222_2014-06-17_16-24-06_260595134347_rgbf000073-resize_0/001222_2014-06-17_16-24-06_260595134347_rgbf000073-resize-original.jpg,250,1.4385,0,2352,248,meters,jsons/v1_VE250_randls_47_rotated.json,723555,1049829,55,Woman
99,255144,DepthScenes,duration_manipulation_targetAtFixation,jsons/v1_VE250_randls_47_rotated.json,http://54.235.29.9/FacialAge/BNav_EC2/DepthDuration/v2_depth_duration_MTurk/v2_DepthDuration_HTML.html#21,21,1360,768,1360,768,8-20-2022,11-43-15,100,depth_duration_stimuli/002637_2014-06-24_14-51-13_094959634447_rgbf000066-resize_4/002637_2014-06-24_14-51-13_094959634447_rgbf000066-resize_4-target.png,250,1.9955,5,2652,229,meters,jsons/v1_VE250_randls_47_rotated.json,723555,1049829,55,Woman
100,255144,DepthScenes,duration_manipulation_targetAtFixation,jsons/v1_VE250_randls_47_rotated.json,http://54.235.29.9/FacialAge/BNav_EC2/DepthDuration/v2_depth_duration_MTurk/v2_DepthDuration_HTML.html#21,21,1360,768,1360,768,8-20-2022,11-43-15,101,depth_duration_stimuli/003534_2014-05-22_15-06-10_094959634447_rgbf000102-resize_4/003534_2014-05-22_15-06-10_094959634447_rgbf000102-resize_4-target.png,250,1.426,2,3857,233,meters,jsons/v1_VE250_randls_47_rotated.json,723555,1049829,55,Woman
101,255144,DepthScenes,duration_manipulation_targetAtFixation,jsons/v1_VE250_randls_47_rotated.json,http://54.235.29.9/FacialAge/BNav_EC2/DepthDuration/v2_depth_duration_MTurk/v2_DepthDuration_HTML.html#21,21,1360,768,1360,768,8-20-2022,11-43-15,102,depth_duration_stimuli/000409_2014-06-04_19-23-33_260595134347_rgbf000067-resize_0/000409_2014-06-04_19-23-33_260595134347_rgbf000067-resize_0-target.png,250,3.7335,5,2878,247,meters,jsons/v1_VE250_randls_47_rotated.json,723555,1049829,55,Woman
102,255144,DepthScenes,duration_manipulation_targetAtFixation,jsons/v1_VE250_randls_47_rotated.json,http://54.235.29.9/FacialAge/BNav_EC2/DepthDuration/v2_depth_duration_MTurk/v2_DepthDuration_HTML.html#21,21,1360,768,1360,768,8-20-2022,11-43-15,103,depth_duration_stimuli/002663_2014-06-13_15-50-26_094959634447_rgbf000075-resize_1/002663_2014-06-13_15-50-26_094959634447_rgbf000075-resize_1-target.png,250,4.7495,6,3202,258,meters,jsons/v1_VE250_randls_47_rotated.json,723555,1049829,55,Woman
103,255144,DepthScenes,duration_manipulation_targetAtFixation,jsons/v1_VE250_randls_47_rotated.json,http://54.235.29.9/FacialAge/BNav_EC2/DepthDuration/v2_depth_duration_MTurk/v2_DepthDuration_HTML.html#21,21,1360,768,1360,768,8-20-2022,11-43-15,104,depth_duration_stimuli/002678_2014-06-13_16-15-32_094959634447_rgbf000151-resize_6/002678_2014-06-13_16-15-32_094959634447_rgbf000151-resize_6-target.png,250,2.1830000000000003,5,3146,250,meters,jsons/v1_VE250_randls_47_rotated.json,723555,1049829,55,Woman
104,255144,DepthScenes,duration_manipulation_targetAtFixation,jsons/v1_VE250_randls_47_rotated.json,http://54.235.29.9/FacialAge/BNav_EC2/DepthDuration/v2_depth_duration_MTurk/v2_DepthDuration_HTML.html#21,21,1360,768,1360,768,8-20-2022,11-43-15,105,depth_duration_stimuli/000368_2014-06-09_15-53-01_260595134347_rgbf000155-resize_2/000368_2014-06-09_15-53-01_260595134347_rgbf000155-resize_2-target.png,250,2.4859999999999998,3,2895,242,meters,jsons/v1_VE250_randls_47_rotated.json,723555,1049829,55,Woman
105,255144,DepthScenes,duration_manipulation_targetAtFixation,jsons/v1_VE250_randls_47_rotated.json,http://54.235.29.9/FacialAge/BNav_EC2/DepthDuration/v2_depth_duration_MTurk/v2_DepthDuration_HTML.html#21,21,1360,768,1360,768,8-20-2022,11-43-15,106,depth_duration_stimuli/002414_2014-06-28_20-24-58_260595134347_rgbf000067-resize_4/002414_2014-06-28_20-24-58_260595134347_rgbf000067-resize_4-target.png,250,4.363,5,2920,249,meters,jsons/v1_VE250_randls_47_rotated.json,723555,1049829,55,Woman
106,255144,DepthScenes,duration_manipulation_targetAtFixation,jsons/v1_VE250_randls_47_rotated.json,http://54.235.29.9/FacialAge/BNav_EC2/DepthDuration/v2_depth_duration_MTurk/v2_DepthDuration_HTML.html#21,21,1360,768,1360,768,8-20-2022,11-43-15,107,depth_duration_stimuli/000773_2014-06-08_22-24-54_260595134347_rgbf000093-resize_1/000773_2014-06-08_22-24-54_260595134347_rgbf000093-resize_1-target.png,250,4.973,4,3200,246,meters,jsons/v1_VE250_randls_47_rotated.json,723555,1049829,55,Woman
107,255144,DepthScenes,duration_manipulation_targetAtFixation,jsons/v1_VE250_randls_47_rotated.json,http://54.235.29.9/FacialAge/BNav_EC2/DepthDuration/v2_depth_duration_MTurk/v2_DepthDuration_HTML.html#21,21,1360,768,1360,768,8-20-2022,11-43-15,108,depth_duration_stimuli/000780_2014-06-08_22-28-29_260595134347_rgbf000126-resize_1/000780_2014-06-08_22-28-29_260595134347_rgbf000126-resize_1-target.png,250,3.3825,5,3095,262,meters,jsons/v1_VE250_randls_47_rotated.json,723555,1049829,55,Woman
108,255144,DepthScenes,duration_manipulation_targetAtFixation,jsons/v1_VE250_randls_47_rotated.json,http://54.235.29.9/FacialAge/BNav_EC2/DepthDuration/v2_depth_duration_MTurk/v2_DepthDuration_HTML.html#21,21,1360,768,1360,768,8-20-2022,11-43-15,109,depth_duration_stimuli/002445_2014-06-28_20-32-16_260595134347_rgbf000029-resize_4/002445_2014-06-28_20-32-16_260595134347_rgbf000029-resize_4-target.png,250,2.5315,6,3024,234,meters,jsons/v1_VE250_randls_47_rotated.json,723555,1049829,55,Woman
109,255144,DepthScenes,duration_manipulation_targetAtFixation,jsons/v1_VE250_randls_47_rotated.json,http://54.235.29.9/FacialAge/BNav_EC2/DepthDuration/v2_depth_duration_MTurk/v2_DepthDuration_HTML.html#21,21,1360,768,1360,768,8-20-2022,11-43-15,110,depth_duration_stimuli/000742_2014-06-08_18-48-09_260595134347_rgbf000164-resize_4/000742_2014-06-08_18-48-09_260595134347_rgbf000164-resize_4-target.png,250,4.632,5,3924,250,meters,jsons/v1_VE250_randls_47_rotated.json,723555,1049829,55,Woman
110,255144,DepthScenes,duration_manipulation_targetAtFixation,jsons/v1_VE250_randls_47_rotated.json,http://54.235.29.9/FacialAge/BNav_EC2/DepthDuration/v2_depth_duration_MTurk/v2_DepthDuration_HTML.html#21,21,1360,768,1360,768,8-20-2022,11-43-15,111,depth_duration_stimuli/001066_2014-06-08_22-03-20_260595134347_rgbf000066-resize_4/001066_2014-06-08_22-03-20_260595134347_rgbf000066-resize_4-target.png,250,4.2330000000000005,6,4680,246,meters,jsons/v1_VE250_randls_47_rotated.json,723555,1049829,55,Woman
111,255144,DepthScenes,duration_manipulation_targetAtFixation,jsons/v1_VE250_randls_47_rotated.json,http://54.235.29.9/FacialAge/BNav_EC2/DepthDuration/v2_depth_duration_MTurk/v2_DepthDuration_HTML.html#21,21,1360,768,1360,768,8-20-2022,11-43-15,112,depth_duration_stimuli/001392_2014-06-19_16-07-59_260595134347_rgbf000046-resize_1/001392_2014-06-19_16-07-59_260595134347_rgbf000046-resize_1-target.png,250,4.135,8,3296,249,meters,jsons/v1_VE250_randls_47_rotated.json,723555,1049829,55,Woman
112,255144,DepthScenes,duration_manipulation_targetAtFixation,jsons/v1_VE250_randls_47_rotated.json,http://54.235.29.9/FacialAge/BNav_EC2/DepthDuration/v2_depth_duration_MTurk/v2_DepthDuration_HTML.html#21,21,1360,768,1360,768,8-20-2022,11-43-15,113,depth_duration_stimuli/001570_2014-06-20_17-21-09_260595134347_rgbf000135-resize_4/001570_2014-06-20_17-21-09_260595134347_rgbf000135-resize_4-target.png,250,4.467,5,3157,248,meters,jsons/v1_VE250_randls_47_rotated.json,723555,1049829,55,Woman
113,255144,DepthScenes,duration_manipulation_targetAtFixation,jsons/v1_VE250_randls_47_rotated.json,http://54.235.29.9/FacialAge/BNav_EC2/DepthDuration/v2_depth_duration_MTurk/v2_DepthDuration_HTML.html#21,21,1360,768,1360,768,8-20-2022,11-43-15,114,depth_duration_stimuli/000854_2014-06-09_19-43-13_260595134347_rgbf000066-resize_0/000854_2014-06-09_19-43-13_260595134347_rgbf000066-resize_0-target.png,250,3.068,6,3444,243,meters,jsons/v1_VE250_randls_47_rotated.json,723555,1049829,55,Woman
114,255144,DepthScenes,duration_manipulation_targetAtFixation,jsons/v1_VE250_randls_47_rotated.json,http://54.235.29.9/FacialAge/BNav_EC2/DepthDuration/v2_depth_duration_MTurk/v2_DepthDuration_HTML.html#21,21,1360,768,1360,768,8-20-2022,11-43-15,115,depth_duration_stimuli/000758_2014-06-08_22-05-08_260595134347_rgbf000085-resize_0/000758_2014-06-08_22-05-08_260595134347_rgbf000085-resize_0-target.png,250,3.3810000000000002,5,3368,246,meters,jsons/v1_VE250_randls_47_rotated.json,723555,1049829,55,Woman
115,255144,DepthScenes,duration_manipulation_targetAtFixation,jsons/v1_VE250_randls_47_rotated.json,http://54.235.29.9/FacialAge/BNav_EC2/DepthDuration/v2_depth_duration_MTurk/v2_DepthDuration_HTML.html#21,21,1360,768,1360,768,8-20-2022,11-43-15,116,depth_duration_stimuli/000635_2014-06-08_16-38-42_260595134347_rgbf000106-resize_1/000635_2014-06-08_16-38-42_260595134347_rgbf000106-resize_1-target.png,250,2.074,5,2626,228,meters,jsons/v1_VE250_randls_47_rotated.json,723555,1049829,55,Woman
116,255144,DepthScenes,duration_manipulation_targetAtFixation,jsons/v1_VE250_randls_47_rotated.json,http://54.235.29.9/FacialAge/BNav_EC2/DepthDuration/v2_depth_duration_MTurk/v2_DepthDuration_HTML.html#21,21,1360,768,1360,768,8-20-2022,11-43-15,117,depth_duration_stimuli/002279_2014-06-28_18-55-32_260595134347_rgbf000040-resize_5/002279_2014-06-28_18-55-32_260595134347_rgbf000040-resize_5-target.png,250,1.5043333333333,6,3080,227,meters,jsons/v1_VE250_randls_47_rotated.json,723555,1049829,55,Woman
117,255144,DepthScenes,duration_manipulation_targetAtFixation,jsons/v1_VE250_randls_47_rotated.json,http://54.235.29.9/FacialAge/BNav_EC2/DepthDuration/v2_depth_duration_MTurk/v2_DepthDuration_HTML.html#21,21,1360,768,1360,768,8-20-2022,11-43-15,118,depth_duration_stimuli/002136_2014-06-25_21-18-03_260595134347_rgbf000109-resize_3/002136_2014-06-25_21-18-03_260595134347_rgbf000109-resize_3-target.png,250,1.9569999999999999,4,2866,246,meters,jsons/v1_VE250_randls_47_rotated.json,723555,1049829,55,Woman
118,255144,DepthScenes,duration_manipulation_targetAtFixation,jsons/v1_VE250_randls_47_rotated.json,http://54.235.29.9/FacialAge/BNav_EC2/DepthDuration/v2_depth_duration_MTurk/v2_DepthDuration_HTML.html#21,21,1360,768,1360,768,8-20-2022,11-43-15,119,depth_duration_stimuli/002964_2014-06-08_17-46-11_094959634447_rgbf000091-resize_4/002964_2014-06-08_17-46-11_094959634447_rgbf000091-resize_4-target.png,250,1.6909999999999998,3,3059,246,meters,jsons/v1_VE250_randls_47_rotated.json,723555,1049829,55,Woman
119,255144,DepthScenes,duration_manipulation_targetAtFixation,jsons/v1_VE250_randls_47_rotated.json,http://54.235.29.9/FacialAge/BNav_EC2/DepthDuration/v2_depth_duration_MTurk/v2_DepthDuration_HTML.html#21,21,1360,768,1360,768,8-20-2022,11-43-15,120,depth_duration_stimuli/000787_2014-06-08_22-33-53_260595134347_rgbf000175-resize_1/000787_2014-06-08_22-33-53_260595134347_rgbf000175-resize-original.jpg,250,4.784,0,2566,251,meters,jsons/v1_VE250_randls_47_rotated.json,723555,1049829,55,Woman
120,255144,DepthScenes,duration_manipulation_targetAtFixation,jsons/v1_VE250_randls_47_rotated.json,http://54.235.29.9/FacialAge/BNav_EC2/DepthDuration/v2_depth_duration_MTurk/v2_DepthDuration_HTML.html#21,21,1360,768,1360,768,8-20-2022,11-43-15,121,depth_duration_stimuli/000734_2014-06-08_17-39-11_260595134347_rgbf000128-resize_2/000734_2014-06-08_17-39-11_260595134347_rgbf000128-resize_2-target.png,250,4.098,5,2956,239,meters,jsons/v1_VE250_randls_47_rotated.json,723555,1049829,55,Woman
121,255144,DepthScenes,duration_manipulation_targetAtFixation,jsons/v1_VE250_randls_47_rotated.json,http://54.235.29.9/FacialAge/BNav_EC2/DepthDuration/v2_depth_duration_MTurk/v2_DepthDuration_HTML.html#21,21,1360,768,1360,768,8-20-2022,11-43-15,122,depth_duration_stimuli/000739_2014-06-08_18-45-58_260595134347_rgbf000068-resize_1/000739_2014-06-08_18-45-58_260595134347_rgbf000068-resize_1-target.png,250,3.534,4,3252,244,meters,jsons/v1_VE250_randls_47_rotated.json,723555,1049829,55,Woman
122,255144,DepthScenes,duration_manipulation_targetAtFixation,jsons/v1_VE250_randls_47_rotated.json,http://54.235.29.9/FacialAge/BNav_EC2/DepthDuration/v2_depth_duration_MTurk/v2_DepthDuration_HTML.html#21,21,1360,768,1360,768,8-20-2022,11-43-15,123,depth_duration_stimuli/000927_2014-06-09_16-32-30_260595134347_rgbf000123-resize_3/000927_2014-06-09_16-32-30_260595134347_rgbf000123-resize_3-target.png,250,2.6785,3,3262,248,meters,jsons/v1_VE250_randls_47_rotated.json,723555,1049829,55,Woman
123,255144,DepthScenes,duration_manipulation_targetAtFixation,jsons/v1_VE250_randls_47_rotated.json,http://54.235.29.9/FacialAge/BNav_EC2/DepthDuration/v2_depth_duration_MTurk/v2_DepthDuration_HTML.html#21,21,1360,768,1360,768,8-20-2022,11-43-15,124,depth_duration_stimuli/001110_2014-06-15_17-25-28_260595134347_rgbf000150-resize_1/001110_2014-06-15_17-25-28_260595134347_rgbf000150-resize_1-target.png,250,1.7115,5,3076,246,meters,jsons/v1_VE250_randls_47_rotated.json,723555,1049829,55,Woman
124,255144,DepthScenes,duration_manipulation_targetAtFixation,jsons/v1_VE250_randls_47_rotated.json,http://54.235.29.9/FacialAge/BNav_EC2/DepthDuration/v2_depth_duration_MTurk/v2_DepthDuration_HTML.html#21,21,1360,768,1360,768,8-20-2022,11-43-15,125,depth_duration_stimuli/001235_2014-06-17_16-37-36_260595134347_rgbf000084-resize_4/001235_2014-06-17_16-37-36_260595134347_rgbf000084-resize_4-target.png,250,3.6605,5,3692,257,meters,jsons/v1_VE250_randls_47_rotated.json,723555,1049829,55,Woman
125,255144,DepthScenes,duration_manipulation_targetAtFixation,jsons/v1_VE250_randls_47_rotated.json,http://54.235.29.9/FacialAge/BNav_EC2/DepthDuration/v2_depth_duration_MTurk/v2_DepthDuration_HTML.html#21,21,1360,768,1360,768,8-20-2022,11-43-15,126,depth_duration_stimuli/000788_2014-06-08_22-34-36_260595134347_rgbf000131-resize_1/000788_2014-06-08_22-34-36_260595134347_rgbf000131-resize_1-target.png,250,3.359,4,2437,235,meters,jsons/v1_VE250_randls_47_rotated.json,723555,1049829,55,Woman
126,255144,DepthScenes,duration_manipulation_targetAtFixation,jsons/v1_VE250_randls_47_rotated.json,http://54.235.29.9/FacialAge/BNav_EC2/DepthDuration/v2_depth_duration_MTurk/v2_DepthDuration_HTML.html#21,21,1360,768,1360,768,8-20-2022,11-43-15,127,depth_duration_stimuli/000749_2014-06-08_21-55-06_260595134347_rgbf000070-resize_2/000749_2014-06-08_21-55-06_260595134347_rgbf000070-resize_2-target.png,250,2.331,5,2893,357,meters,jsons/v1_VE250_randls_47_rotated.json,723555,1049829,55,Woman
127,255144,DepthScenes,duration_manipulation_targetAtFixation,jsons/v1_VE250_randls_47_rotated.json,http://54.235.29.9/FacialAge/BNav_EC2/DepthDuration/v2_depth_duration_MTurk/v2_DepthDuration_HTML.html#21,21,1360,768,1360,768,8-20-2022,11-43-15,128,depth_duration_stimuli/002788_2014-06-22_19-36-03_094959634447_rgbf000088-resize_2/002788_2014-06-22_19-36-03_094959634447_rgbf000088-resize_2-target.png,250,1.6465,6,2244,244,meters,jsons/v1_VE250_randls_47_rotated.json,723555,1049829,55,Woman
128,255144,DepthScenes,duration_manipulation_targetAtFixation,jsons/v1_VE250_randls_47_rotated.json,http://54.235.29.9/FacialAge/BNav_EC2/DepthDuration/v2_depth_duration_MTurk/v2_DepthDuration_HTML.html#21,21,1360,768,1360,768,8-20-2022,11-43-15,129,depth_duration_stimuli/002323_2014-06-28_20-01-54_260595134347_rgbf000051-resize_4/002323_2014-06-28_20-01-54_260595134347_rgbf000051-resize_4-target.png,250,3.7310000000000003,5,2404,257,meters,jsons/v1_VE250_randls_47_rotated.json,723555,1049829,55,Woman
129,255144,DepthScenes,duration_manipulation_targetAtFixation,jsons/v1_VE250_randls_47_rotated.json,http://54.235.29.9/FacialAge/BNav_EC2/DepthDuration/v2_depth_duration_MTurk/v2_DepthDuration_HTML.html#21,21,1360,768,1360,768,8-20-2022,11-43-15,130,depth_duration_stimuli/000917_2014-06-09_22-45-29_260595134347_rgbf000149-resize_3/000917_2014-06-09_22-45-29_260595134347_rgbf000149-resize_3-target.png,250,4.1865,5,4100,243,meters,jsons/v1_VE250_randls_47_rotated.json,723555,1049829,55,Woman
130,255144,DepthScenes,duration_manipulation_targetAtFixation,jsons/v1_VE250_randls_47_rotated.json,http://54.235.29.9/FacialAge/BNav_EC2/DepthDuration/v2_depth_duration_MTurk/v2_DepthDuration_HTML.html#21,21,1360,768,1360,768,8-20-2022,11-43-15,131,depth_duration_stimuli/003587_2014-05-23_16-48-02_094959634447_rgbf002384-resize_2/003587_2014-05-23_16-48-02_094959634447_rgbf002384-resize_2-target.png,250,1.357,1,2821,249,meters,jsons/v1_VE250_randls_47_rotated.json,723555,1049829,55,Woman
131,255144,DepthScenes,duration_manipulation_targetAtFixation,jsons/v1_VE250_randls_47_rotated.json,http://54.235.29.9/FacialAge/BNav_EC2/DepthDuration/v2_depth_duration_MTurk/v2_DepthDuration_HTML.html#21,21,1360,768,1360,768,8-20-2022,11-43-15,132,depth_duration_stimuli/001167_2014-06-17_15-38-07_260595134347_rgbf000108-resize_0/001167_2014-06-17_15-38-07_260595134347_rgbf000108-resize_0-target.png,250,1.8505,5,2666,377,meters,jsons/v1_VE250_randls_47_rotated.json,723555,1049829,55,Woman
132,255144,DepthScenes,duration_manipulation_targetAtFixation,jsons/v1_VE250_randls_47_rotated.json,http://54.235.29.9/FacialAge/BNav_EC2/DepthDuration/v2_depth_duration_MTurk/v2_DepthDuration_HTML.html#21,21,1360,768,1360,768,8-20-2022,11-43-15,133,depth_duration_stimuli/001132_2014-06-17_14-48-54_260595134347_rgbf000100-resize_2/001132_2014-06-17_14-48-54_260595134347_rgbf000100-resize_2-target.png,250,3.753,6,2370,260,meters,jsons/v1_VE250_randls_47_rotated.json,723555,1049829,55,Woman
133,255144,DepthScenes,duration_manipulation_targetAtFixation,jsons/v1_VE250_randls_47_rotated.json,http://54.235.29.9/FacialAge/BNav_EC2/DepthDuration/v2_depth_duration_MTurk/v2_DepthDuration_HTML.html#21,21,1360,768,1360,768,8-20-2022,11-43-15,134,depth_duration_stimuli/001133_2014-06-17_14-49-16_260595134347_rgbf000100-resize_0/001133_2014-06-17_14-49-16_260595134347_rgbf000100-resize_0-target.png,250,4.2115,4,16944,245,meters,jsons/v1_VE250_randls_47_rotated.json,723555,1049829,55,Woman
134,255144,DepthScenes,duration_manipulation_targetAtFixation,jsons/v1_VE250_randls_47_rotated.json,http://54.235.29.9/FacialAge/BNav_EC2/DepthDuration/v2_depth_duration_MTurk/v2_DepthDuration_HTML.html#21,21,1360,768,1360,768,8-20-2022,11-43-15,135,depth_duration_stimuli/000375_2014-06-08_11-17-29_260595134347_rgbf000133-resize_2/000375_2014-06-08_11-17-29_260595134347_rgbf000133-resize-original.jpg,250,4.718,0,3134,250,meters,jsons/v1_VE250_randls_47_rotated.json,723555,1049829,55,Woman
135,255144,DepthScenes,duration_manipulation_targetAtFixation,jsons/v1_VE250_randls_47_rotated.json,http://54.235.29.9/FacialAge/BNav_EC2/DepthDuration/v2_depth_duration_MTurk/v2_DepthDuration_HTML.html#21,21,1360,768,1360,768,8-20-2022,11-43-15,136,depth_duration_stimuli/002953_2014-06-08_17-32-18_094959634447_rgbf000059-resize_5/002953_2014-06-08_17-32-18_094959634447_rgbf000059-resize_5-target.png,250,1.551,2,11845,248,meters,jsons/v1_VE250_randls_47_rotated.json,723555,1049829,55,Woman
136,255144,DepthScenes,duration_manipulation_targetAtFixation,jsons/v1_VE250_randls_47_rotated.json,http://54.235.29.9/FacialAge/BNav_EC2/DepthDuration/v2_depth_duration_MTurk/v2_DepthDuration_HTML.html#21,21,1360,768,1360,768,8-20-2022,11-43-15,137,depth_duration_stimuli/000878_2014-06-08_22-52-45_260595134347_rgbf000045-resize_2/000878_2014-06-08_22-52-45_260595134347_rgbf000045-resize_2-target.png,250,2.092,6,4364,246,meters,jsons/v1_VE250_randls_47_rotated.json,723555,1049829,55,Woman
137,255144,DepthScenes,duration_manipulation_targetAtFixation,jsons/v1_VE250_randls_47_rotated.json,http://54.235.29.9/FacialAge/BNav_EC2/DepthDuration/v2_depth_duration_MTurk/v2_DepthDuration_HTML.html#21,21,1360,768,1360,768,8-20-2022,11-43-15,138,depth_duration_stimuli/001584_2014-06-20_11-07-43_260595134347_rgbf000002-resize_1/001584_2014-06-20_11-07-43_260595134347_rgbf000002-resize_1-target.png,250,3.53,5,2852,244,meters,jsons/v1_VE250_randls_47_rotated.json,723555,1049829,55,Woman
138,255144,DepthScenes,duration_manipulation_targetAtFixation,jsons/v1_VE250_randls_47_rotated.json,http://54.235.29.9/FacialAge/BNav_EC2/DepthDuration/v2_depth_duration_MTurk/v2_DepthDuration_HTML.html#21,21,1360,768,1360,768,8-20-2022,11-43-15,139,depth_duration_stimuli/003621_2014-05-23_18-06-08_094959634447_rgbf000101-resize_1/003621_2014-05-23_18-06-08_094959634447_rgbf000101-resize_1-target.png,250,3.9835,4,3130,251,meters,jsons/v1_VE250_randls_47_rotated.json,723555,1049829,55,Woman
139,255144,DepthScenes,duration_manipulation_targetAtFixation,jsons/v1_VE250_randls_47_rotated.json,http://54.235.29.9/FacialAge/BNav_EC2/DepthDuration/v2_depth_duration_MTurk/v2_DepthDuration_HTML.html#21,21,1360,768,1360,768,8-20-2022,11-43-15,140,depth_duration_stimuli/002995_2014-06-15_12-31-26_094959634447_rgbf000150-resize_1/002995_2014-06-15_12-31-26_094959634447_rgbf000150-resize_1-target.png,250,3.8360000000000003,5,2992,238,meters,jsons/v1_VE250_randls_47_rotated.json,723555,1049829,55,Woman
140,255144,DepthScenes,duration_manipulation_targetAtFixation,jsons/v1_VE250_randls_47_rotated.json,http://54.235.29.9/FacialAge/BNav_EC2/DepthDuration/v2_depth_duration_MTurk/v2_DepthDuration_HTML.html#21,21,1360,768,1360,768,8-20-2022,11-43-15,141,depth_duration_stimuli/002748_2014-06-22_19-07-22_094959634447_rgbf000078-resize_1/002748_2014-06-22_19-07-22_094959634447_rgbf000078-resize_1-target.png,250,4.6705,6,3547,235,meters,jsons/v1_VE250_randls_47_rotated.json,723555,1049829,55,Woman
141,255144,DepthScenes,duration_manipulation_targetAtFixation,jsons/v1_VE250_randls_47_rotated.json,http://54.235.29.9/FacialAge/BNav_EC2/DepthDuration/v2_depth_duration_MTurk/v2_DepthDuration_HTML.html#21,21,1360,768,1360,768,8-20-2022,11-43-15,142,depth_duration_stimuli/000556_2014-06-09_22-42-56_260595134347_rgbf000214-resize_1/000556_2014-06-09_22-42-56_260595134347_rgbf000214-resize_1-target.png,250,4.8415,5,2843,242,meters,jsons/v1_VE250_randls_47_rotated.json,723555,1049829,55,Woman
142,255144,DepthScenes,duration_manipulation_targetAtFixation,jsons/v1_VE250_randls_47_rotated.json,http://54.235.29.9/FacialAge/BNav_EC2/DepthDuration/v2_depth_duration_MTurk/v2_DepthDuration_HTML.html#21,21,1360,768,1360,768,8-20-2022,11-43-15,143,depth_duration_stimuli/001158_2014-06-17_15-32-16_260595134347_rgbf000138-resize_2/001158_2014-06-17_15-32-16_260595134347_rgbf000138-resize_2-target.png,250,4.5315,6,4032,240,meters,jsons/v1_VE250_randls_47_rotated.json,723555,1049829,55,Woman
143,255144,DepthScenes,duration_manipulation_targetAtFixation,jsons/v1_VE250_randls_47_rotated.json,http://54.235.29.9/FacialAge/BNav_EC2/DepthDuration/v2_depth_duration_MTurk/v2_DepthDuration_HTML.html#21,21,1360,768,1360,768,8-20-2022,11-43-15,144,depth_duration_stimuli/001650_2014-06-20_12-09-00_260595134347_rgbf000087-resize_3/001650_2014-06-20_12-09-00_260595134347_rgbf000087-resize_3-target.png,250,1.9505,5,2365,251,meters,jsons/v1_VE250_randls_47_rotated.json,723555,1049829,55,Woman
144,255144,DepthScenes,duration_manipulation_targetAtFixation,jsons/v1_VE250_randls_47_rotated.json,http://54.235.29.9/FacialAge/BNav_EC2/DepthDuration/v2_depth_duration_MTurk/v2_DepthDuration_HTML.html#21,21,1360,768,1360,768,8-20-2022,11-43-15,145,depth_duration_stimuli/000682_2014-06-08_23-14-58_260595134347_rgbf000041-resize_5/000682_2014-06-08_23-14-58_260595134347_rgbf000041-resize_5-target.png,250,2.7239999999999998,4,2582,230,meters,jsons/v1_VE250_randls_47_rotated.json,723555,1049829,55,Woman
145,255144,DepthScenes,duration_manipulation_targetAtFixation,jsons/v1_VE250_randls_47_rotated.json,http://54.235.29.9/FacialAge/BNav_EC2/DepthDuration/v2_depth_duration_MTurk/v2_DepthDuration_HTML.html#21,21,1360,768,1360,768,8-20-2022,11-43-15,146,depth_duration_stimuli/002750_2014-06-22_19-08-03_094959634447_rgbf000094-resize_4/002750_2014-06-22_19-08-03_094959634447_rgbf000094-resize_4-target.png,250,2.354,5,2624,253,meters,jsons/v1_VE250_randls_47_rotated.json,723555,1049829,55,Woman
146,255144,DepthScenes,duration_manipulation_targetAtFixation,jsons/v1_VE250_randls_47_rotated.json,http://54.235.29.9/FacialAge/BNav_EC2/DepthDuration/v2_depth_duration_MTurk/v2_DepthDuration_HTML.html#21,21,1360,768,1360,768,8-20-2022,11-43-15,147,depth_duration_stimuli/002549_2014-06-24_13-41-39_094959634447_rgbf000022-resize_3/002549_2014-06-24_13-41-39_094959634447_rgbf000022-resize_3-target.png,250,1.476,6,5179,247,meters,jsons/v1_VE250_randls_47_rotated.json,723555,1049829,55,Woman
147,255144,DepthScenes,duration_manipulation_targetAtFixation,jsons/v1_VE250_randls_47_rotated.json,http://54.235.29.9/FacialAge/BNav_EC2/DepthDuration/v2_depth_duration_MTurk/v2_DepthDuration_HTML.html#21,21,1360,768,1360,768,8-20-2022,11-43-15,148,depth_duration_stimuli/001516_2014-06-20_16-25-09_260595134347_rgbf000076-resize_2/001516_2014-06-20_16-25-09_260595134347_rgbf000076-resize_2-target.png,250,1.7445,5,4192,243,meters,jsons/v1_VE250_randls_47_rotated.json,723555,1049829,55,Woman
148,255144,DepthScenes,duration_manipulation_targetAtFixation,jsons/v1_VE250_randls_47_rotated.json,http://54.235.29.9/FacialAge/BNav_EC2/DepthDuration/v2_depth_duration_MTurk/v2_DepthDuration_HTML.html#21,21,1360,768,1360,768,8-20-2022,11-43-15,149,depth_duration_stimuli/002118_2014-06-25_20-32-08_260595134347_rgbf000078-resize_1/002118_2014-06-25_20-32-08_260595134347_rgbf000078-resize_1-target.png,250,2.6460000000000004,1,3856,245,meters,jsons/v1_VE250_randls_47_rotated.json,723555,1049829,55,Woman
149,255144,DepthScenes,duration_manipulation_targetAtFixation,jsons/v1_VE250_randls_47_rotated.json,http://54.235.29.9/FacialAge/BNav_EC2/DepthDuration/v2_depth_duration_MTurk/v2_DepthDuration_HTML.html#21,21,1360,768,1360,768,8-20-2022,11-43-15,150,depth_duration_stimuli/001571_2014-06-20_17-21-32_260595134347_rgbf000089-resize_1/001571_2014-06-20_17-21-32_260595134347_rgbf000089-resize_1-target.png,250,1.86,6,3325,248,meters,jsons/v1_VE250_randls_47_rotated.json,723555,1049829,55,Woman
150,255144,DepthScenes,duration_manipulation_targetAtFixation,jsons/v1_VE250_randls_47_rotated.json,http://54.235.29.9/FacialAge/BNav_EC2/DepthDuration/v2_depth_duration_MTurk/v2_DepthDuration_HTML.html#21,21,1360,768,1360,768,8-20-2022,11-43-15,151,depth_duration_stimuli/002272_2014-06-28_18-53-56_260595134347_rgbf000067-resize_2/002272_2014-06-28_18-53-56_260595134347_rgbf000067-resize_2-target.png,250,1.138,4,2437,252,meters,jsons/v1_VE250_randls_47_rotated.json,723555,1049829,55,Woman
151,255144,DepthScenes,duration_manipulation_targetAtFixation,jsons/v1_VE250_randls_47_rotated.json,http://54.235.29.9/FacialAge/BNav_EC2/DepthDuration/v2_depth_duration_MTurk/v2_DepthDuration_HTML.html#21,21,1360,768,1360,768,8-20-2022,11-43-15,152,depth_duration_stimuli/000569_2014-06-09_22-51-47_260595134347_rgbf000141-resize_3/000569_2014-06-09_22-51-47_260595134347_rgbf000141-resize-original.jpg,250,4.512,0,3054,249,meters,jsons/v1_VE250_randls_47_rotated.json,723555,1049829,55,Woman
152,255144,DepthScenes,duration_manipulation_targetAtFixation,jsons/v1_VE250_randls_47_rotated.json,http://54.235.29.9/FacialAge/BNav_EC2/DepthDuration/v2_depth_duration_MTurk/v2_DepthDuration_HTML.html#21,21,1360,768,1360,768,8-20-2022,11-43-15,153,depth_duration_stimuli/003338_2014-05-20_11-01-23_094959634447_rgbf000051-resize_6/003338_2014-05-20_11-01-23_094959634447_rgbf000051-resize_6-target.png,250,1.693,1,2994,248,meters,jsons/v1_VE250_randls_47_rotated.json,723555,1049829,55,Woman
153,255144,DepthScenes,duration_manipulation_targetAtFixation,jsons/v1_VE250_randls_47_rotated.json,http://54.235.29.9/FacialAge/BNav_EC2/DepthDuration/v2_depth_duration_MTurk/v2_DepthDuration_HTML.html#21,21,1360,768,1360,768,8-20-2022,11-43-15,154,depth_duration_stimuli/002509_2014-06-24_13-19-22_094959634447_rgbf000077-resize_0/002509_2014-06-24_13-19-22_094959634447_rgbf000077-resize_0-target.png,250,1.3065,1,2406,233,meters,jsons/v1_VE250_randls_47_rotated.json,723555,1049829,55,Woman
154,255144,DepthScenes,duration_manipulation_targetAtFixation,jsons/v1_VE250_randls_47_rotated.json,http://54.235.29.9/FacialAge/BNav_EC2/DepthDuration/v2_depth_duration_MTurk/v2_DepthDuration_HTML.html#21,21,1360,768,1360,768,8-20-2022,11-43-15,155,depth_duration_stimuli/002103_2014-06-25_20-00-40_260595134347_rgbf000049-resize_0/002103_2014-06-25_20-00-40_260595134347_rgbf000049-resize_0-target.png,250,4.105,0,2550,248,meters,jsons/v1_VE250_randls_47_rotated.json,723555,1049829,55,Woman
155,255144,DepthScenes,duration_manipulation_targetAtFixation,jsons/v1_VE250_randls_47_rotated.json,http://54.235.29.9/FacialAge/BNav_EC2/DepthDuration/v2_depth_duration_MTurk/v2_DepthDuration_HTML.html#21,21,1360,768,1360,768,8-20-2022,11-43-15,156,depth_duration_stimuli/002039_2014-06-24_20-22-38_260595134347_rgbf000084-resize_1/002039_2014-06-24_20-22-38_260595134347_rgbf000084-resize_1-target.png,250,4.408,5,2268,239,meters,jsons/v1_VE250_randls_47_rotated.json,723555,1049829,55,Woman
156,255144,DepthScenes,duration_manipulation_targetAtFixation,jsons/v1_VE250_randls_47_rotated.json,http://54.235.29.9/FacialAge/BNav_EC2/DepthDuration/v2_depth_duration_MTurk/v2_DepthDuration_HTML.html#21,21,1360,768,1360,768,8-20-2022,11-43-15,157,depth_duration_stimuli/000137_2014-05-20_17-04-49_260595134347_rgbf000120-resize_1/000137_2014-05-20_17-04-49_260595134347_rgbf000120-resize_1-target.png,250,3.786,5,12652,237,meters,jsons/v1_VE250_randls_47_rotated.json,723555,1049829,55,Woman
157,255144,DepthScenes,duration_manipulation_targetAtFixation,jsons/v1_VE250_randls_47_rotated.json,http://54.235.29.9/FacialAge/BNav_EC2/DepthDuration/v2_depth_duration_MTurk/v2_DepthDuration_HTML.html#21,21,1360,768,1360,768,8-20-2022,11-43-15,158,depth_duration_stimuli/000736_2014-06-08_18-24-15_260595134347_rgbf000206-resize_3/000736_2014-06-08_18-24-15_260595134347_rgbf000206-resize_3-target.png,250,3.515,1,2620,254,meters,jsons/v1_VE250_randls_47_rotated.json,723555,1049829,55,Woman
158,255144,DepthScenes,duration_manipulation_targetAtFixation,jsons/v1_VE250_randls_47_rotated.json,http://54.235.29.9/FacialAge/BNav_EC2/DepthDuration/v2_depth_duration_MTurk/v2_DepthDuration_HTML.html#21,21,1360,768,1360,768,8-20-2022,11-43-15,159,depth_duration_stimuli/002444_2014-06-28_20-32-08_260595134347_rgbf000027-resize_0/002444_2014-06-28_20-32-08_260595134347_rgbf000027-resize_0-target.png,250,4.388999999999999,5,3622,242,meters,jsons/v1_VE250_randls_47_rotated.json,723555,1049829,55,Woman
159,255144,DepthScenes,duration_manipulation_targetAtFixation,jsons/v1_VE250_randls_47_rotated.json,http://54.235.29.9/FacialAge/BNav_EC2/DepthDuration/v2_depth_duration_MTurk/v2_DepthDuration_HTML.html#21,21,1360,768,1360,768,8-20-2022,11-43-15,160,depth_duration_stimuli/000436_2014-06-09_22-25-11_260595134347_rgbf000137-resize_1/000436_2014-06-09_22-25-11_260595134347_rgbf000137-resize_1-target.png,250,4.0705,5,4047,242,meters,jsons/v1_VE250_randls_47_rotated.json,723555,1049829,55,Woman
160,255144,DepthScenes,duration_manipulation_targetAtFixation,jsons/v1_VE250_randls_47_rotated.json,http://54.235.29.9/FacialAge/BNav_EC2/DepthDuration/v2_depth_duration_MTurk/v2_DepthDuration_HTML.html#21,21,1360,768,1360,768,8-20-2022,11-43-15,161,depth_duration_stimuli/002758_2014-06-22_19-11-20_094959634447_rgbf000128-resize_1/002758_2014-06-22_19-11-20_094959634447_rgbf000128-resize_1-target.png,250,2.555,1,3815,135,meters,jsons/v1_VE250_randls_47_rotated.json,723555,1049829,55,Woman
161,255144,DepthScenes,duration_manipulation_targetAtFixation,jsons/v1_VE250_randls_47_rotated.json,http://54.235.29.9/FacialAge/BNav_EC2/DepthDuration/v2_depth_duration_MTurk/v2_DepthDuration_HTML.html#21,21,1360,768,1360,768,8-20-2022,11-43-15,162,depth_duration_stimuli/002630_2014-06-24_14-47-50_094959634447_rgbf000055-resize_1/002630_2014-06-24_14-47-50_094959634447_rgbf000055-resize_1-target.png,250,3.0095,5,2550,250,meters,jsons/v1_VE250_randls_47_rotated.json,723555,1049829,55,Woman
162,255144,DepthScenes,duration_manipulation_targetAtFixation,jsons/v1_VE250_randls_47_rotated.json,http://54.235.29.9/FacialAge/BNav_EC2/DepthDuration/v2_depth_duration_MTurk/v2_DepthDuration_HTML.html#21,21,1360,768,1360,768,8-20-2022,11-43-15,163,depth_duration_stimuli/000943_2014-06-09_19-31-07_260595134347_rgbf000128-resize_1/000943_2014-06-09_19-31-07_260595134347_rgbf000128-resize_1-target.png,250,1.9765,4,2771,248,meters,jsons/v1_VE250_randls_47_rotated.json,723555,1049829,55,Woman
163,255144,DepthScenes,duration_manipulation_targetAtFixation,jsons/v1_VE250_randls_47_rotated.json,http://54.235.29.9/FacialAge/BNav_EC2/DepthDuration/v2_depth_duration_MTurk/v2_DepthDuration_HTML.html#21,21,1360,768,1360,768,8-20-2022,11-43-15,164,depth_duration_stimuli/003070_2014-06-15_14-58-27_094959634447_rgbf000150-resize_3/003070_2014-06-15_14-58-27_094959634447_rgbf000150-resize_3-target.png,250,2.9415,6,3383,256,meters,jsons/v1_VE250_randls_47_rotated.json,723555,1049829,55,Woman
