,subjID,experimentName,versionName,sequenceName,url,selected_row,windowWidth,windowHeight,screenWidth,screenHeight,startDate,startTime,trial,stimulus,duration,actual_depth,depth_estimate,trial_RT,log_sceneDuration,unitSelection,seq_filepath,experimentTime,totalTime,age,gender
0,257784,DepthScenes,duration_manipulation_targetAtFixation,jsons/v1_VE1000_randls_4.json,http://54.235.29.9/FacialAge/BNav_EC2/DepthDuration/v2_depth_duration_MTurk/v2_DepthDuration_HTML.html#301,301,1440,789,1440,900,9-18-2022,12-13-11,1,depth_duration_stimuli/002989_2014-06-15_12-25-03_094959634447_rgbf000150-resize_3/002989_2014-06-15_12-25-03_094959634447_rgbf000150-resize_3-target.png,1000,4.1975,1,4177,999,meters,jsons/v1_VE1000_randls_4.json,632069,781025,37,Man
1,257784,DepthScenes,duration_manipulation_targetAtFixation,jsons/v1_VE1000_randls_4.json,http://54.235.29.9/FacialAge/BNav_EC2/DepthDuration/v2_depth_duration_MTurk/v2_DepthDuration_HTML.html#301,301,1440,789,1440,900,9-18-2022,12-13-11,2,depth_duration_stimuli/000866_2014-06-09_20-45-42_260595134347_rgbf000139-resize_1/000866_2014-06-09_20-45-42_260595134347_rgbf000139-resize_1-target.png,1000,3.2155,1,2857,999,meters,jsons/v1_VE1000_randls_4.json,632069,781025,37,Man
2,257784,DepthScenes,duration_manipulation_targetAtFixation,jsons/v1_VE1000_randls_4.json,http://54.235.29.9/FacialAge/BNav_EC2/DepthDuration/v2_depth_duration_MTurk/v2_DepthDuration_HTML.html#301,301,1440,789,1440,900,9-18-2022,12-13-11,3,depth_duration_stimuli/001011_2014-06-08_23-18-54_260595134347_rgbf000044-resize_4/001011_2014-06-08_23-18-54_260595134347_rgbf000044-resize_4-target.png,1000,2.4730000000000003,1,4737,999,meters,jsons/v1_VE1000_randls_4.json,632069,781025,37,Man
3,257784,DepthScenes,duration_manipulation_targetAtFixation,jsons/v1_VE1000_randls_4.json,http://54.235.29.9/FacialAge/BNav_EC2/DepthDuration/v2_depth_duration_MTurk/v2_DepthDuration_HTML.html#301,301,1440,789,1440,900,9-18-2022,12-13-11,4,depth_duration_stimuli/002875_2014-06-01_15-19-00_094959634447_rgbf000151-resize_1/002875_2014-06-01_15-19-00_094959634447_rgbf000151-resize_1-target.png,1000,1.9675,1,3277,1000,meters,jsons/v1_VE1000_randls_4.json,632069,781025,37,Man
4,257784,DepthScenes,duration_manipulation_targetAtFixation,jsons/v1_VE1000_randls_4.json,http://54.235.29.9/FacialAge/BNav_EC2/DepthDuration/v2_depth_duration_MTurk/v2_DepthDuration_HTML.html#301,301,1440,789,1440,900,9-18-2022,12-13-11,5,depth_duration_stimuli/000736_2014-06-08_18-24-15_260595134347_rgbf000206-resize_3/000736_2014-06-08_18-24-15_260595134347_rgbf000206-resize_3-target.png,1000,3.515,1,3099,1000,meters,jsons/v1_VE1000_randls_4.json,632069,781025,37,Man
5,257784,DepthScenes,duration_manipulation_targetAtFixation,jsons/v1_VE1000_randls_4.json,http://54.235.29.9/FacialAge/BNav_EC2/DepthDuration/v2_depth_duration_MTurk/v2_DepthDuration_HTML.html#301,301,1440,789,1440,900,9-18-2022,12-13-11,6,depth_duration_stimuli/000137_2014-05-20_17-04-49_260595134347_rgbf000120-resize_1/000137_2014-05-20_17-04-49_260595134347_rgbf000120-resize_1-target.png,1000,3.786,1,3582,999,meters,jsons/v1_VE1000_randls_4.json,632069,781025,37,Man
6,257784,DepthScenes,duration_manipulation_targetAtFixation,jsons/v1_VE1000_randls_4.json,http://54.235.29.9/FacialAge/BNav_EC2/DepthDuration/v2_depth_duration_MTurk/v2_DepthDuration_HTML.html#301,301,1440,789,1440,900,9-18-2022,12-13-11,7,depth_duration_stimuli/002600_2014-06-24_14-27-04_094959634447_rgbf000074-resize_2/002600_2014-06-24_14-27-04_094959634447_rgbf000074-resize_2-target.png,1000,2.7575,1,2893,999,meters,jsons/v1_VE1000_randls_4.json,632069,781025,37,Man
7,257784,DepthScenes,duration_manipulation_targetAtFixation,jsons/v1_VE1000_randls_4.json,http://54.235.29.9/FacialAge/BNav_EC2/DepthDuration/v2_depth_duration_MTurk/v2_DepthDuration_HTML.html#301,301,1440,789,1440,900,9-18-2022,12-13-11,8,depth_duration_stimuli/003228_2014-05-14_13-42-35_094959634447_rgbf000101-resize_1/003228_2014-05-14_13-42-35_094959634447_rgbf000101-resize_1-target.png,1000,1.9680000000000002,1,3960,1002,meters,jsons/v1_VE1000_randls_4.json,632069,781025,37,Man
8,257784,DepthScenes,duration_manipulation_targetAtFixation,jsons/v1_VE1000_randls_4.json,http://54.235.29.9/FacialAge/BNav_EC2/DepthDuration/v2_depth_duration_MTurk/v2_DepthDuration_HTML.html#301,301,1440,789,1440,900,9-18-2022,12-13-11,9,depth_duration_stimuli/000739_2014-06-08_18-45-58_260595134347_rgbf000068-resize_1/000739_2014-06-08_18-45-58_260595134347_rgbf000068-resize_1-target.png,1000,3.534,1,3172,996,meters,jsons/v1_VE1000_randls_4.json,632069,781025,37,Man
9,257784,DepthScenes,duration_manipulation_targetAtFixation,jsons/v1_VE1000_randls_4.json,http://54.235.29.9/FacialAge/BNav_EC2/DepthDuration/v2_depth_duration_MTurk/v2_DepthDuration_HTML.html#301,301,1440,789,1440,900,9-18-2022,12-13-11,10,depth_duration_stimuli/000734_2014-06-08_17-39-11_260595134347_rgbf000128-resize_2/000734_2014-06-08_17-39-11_260595134347_rgbf000128-resize_2-target.png,1000,4.098,1,2866,999,meters,jsons/v1_VE1000_randls_4.json,632069,781025,37,Man
10,257784,DepthScenes,duration_manipulation_targetAtFixation,jsons/v1_VE1000_randls_4.json,http://54.235.29.9/FacialAge/BNav_EC2/DepthDuration/v2_depth_duration_MTurk/v2_DepthDuration_HTML.html#301,301,1440,789,1440,900,9-18-2022,12-13-11,11,depth_duration_stimuli/001164_2014-06-17_15-35-46_260595134347_rgbf000085-resize_3/001164_2014-06-17_15-35-46_260595134347_rgbf000085-resize_3-target.png,1000,2.354,1,3170,998,meters,jsons/v1_VE1000_randls_4.json,632069,781025,37,Man
11,257784,DepthScenes,duration_manipulation_targetAtFixation,jsons/v1_VE1000_randls_4.json,http://54.235.29.9/FacialAge/BNav_EC2/DepthDuration/v2_depth_duration_MTurk/v2_DepthDuration_HTML.html#301,301,1440,789,1440,900,9-18-2022,12-13-11,12,depth_duration_stimuli/001136_2014-06-17_15-19-41_260595134347_rgbf000076-resize_3/001136_2014-06-17_15-19-41_260595134347_rgbf000076-resize_3-target.png,1000,1.8655,1,3276,1004,meters,jsons/v1_VE1000_randls_4.json,632069,781025,37,Man
12,257784,DepthScenes,duration_manipulation_targetAtFixation,jsons/v1_VE1000_randls_4.json,http://54.235.29.9/FacialAge/BNav_EC2/DepthDuration/v2_depth_duration_MTurk/v2_DepthDuration_HTML.html#301,301,1440,789,1440,900,9-18-2022,12-13-11,13,depth_duration_stimuli/000569_2014-06-09_22-51-47_260595134347_rgbf000141-resize_3/000569_2014-06-09_22-51-47_260595134347_rgbf000141-resize-original.jpg,1000,4.512,0,2832,998,meters,jsons/v1_VE1000_randls_4.json,632069,781025,37,Man
13,257784,DepthScenes,duration_manipulation_targetAtFixation,jsons/v1_VE1000_randls_4.json,http://54.235.29.9/FacialAge/BNav_EC2/DepthDuration/v2_depth_duration_MTurk/v2_DepthDuration_HTML.html#301,301,1440,789,1440,900,9-18-2022,12-13-11,14,depth_duration_stimuli/000414_2014-06-04_19-49-13_260595134347_rgbf000044-resize_0/000414_2014-06-04_19-49-13_260595134347_rgbf000044-resize_0-target.png,1000,4.329,1,3711,999,meters,jsons/v1_VE1000_randls_4.json,632069,781025,37,Man
14,257784,DepthScenes,duration_manipulation_targetAtFixation,jsons/v1_VE1000_randls_4.json,http://54.235.29.9/FacialAge/BNav_EC2/DepthDuration/v2_depth_duration_MTurk/v2_DepthDuration_HTML.html#301,301,1440,789,1440,900,9-18-2022,12-13-11,15,depth_duration_stimuli/003129_2014-05-12_10-48-10_094959634447_rgbf000100-resize_0/003129_2014-05-12_10-48-10_094959634447_rgbf000100-resize_0-target.png,1000,4.9305,1,17092,1001,meters,jsons/v1_VE1000_randls_4.json,632069,781025,37,Man
15,257784,DepthScenes,duration_manipulation_targetAtFixation,jsons/v1_VE1000_randls_4.json,http://54.235.29.9/FacialAge/BNav_EC2/DepthDuration/v2_depth_duration_MTurk/v2_DepthDuration_HTML.html#301,301,1440,789,1440,900,9-18-2022,12-13-11,16,depth_duration_stimuli/001133_2014-06-17_14-49-16_260595134347_rgbf000100-resize_0/001133_2014-06-17_14-49-16_260595134347_rgbf000100-resize_0-target.png,1000,4.2115,1,2834,1000,meters,jsons/v1_VE1000_randls_4.json,632069,781025,37,Man
16,257784,DepthScenes,duration_manipulation_targetAtFixation,jsons/v1_VE1000_randls_4.json,http://54.235.29.9/FacialAge/BNav_EC2/DepthDuration/v2_depth_duration_MTurk/v2_DepthDuration_HTML.html#301,301,1440,789,1440,900,9-18-2022,12-13-11,17,depth_duration_stimuli/001132_2014-06-17_14-48-54_260595134347_rgbf000100-resize_2/001132_2014-06-17_14-48-54_260595134347_rgbf000100-resize_2-target.png,1000,3.753,1,2964,1030,meters,jsons/v1_VE1000_randls_4.json,632069,781025,37,Man
17,257784,DepthScenes,duration_manipulation_targetAtFixation,jsons/v1_VE1000_randls_4.json,http://54.235.29.9/FacialAge/BNav_EC2/DepthDuration/v2_depth_duration_MTurk/v2_DepthDuration_HTML.html#301,301,1440,789,1440,900,9-18-2022,12-13-11,18,depth_duration_stimuli/001570_2014-06-20_17-21-09_260595134347_rgbf000135-resize_4/001570_2014-06-20_17-21-09_260595134347_rgbf000135-resize_4-target.png,1000,4.467,1,2946,1000,meters,jsons/v1_VE1000_randls_4.json,632069,781025,37,Man
18,257784,DepthScenes,duration_manipulation_targetAtFixation,jsons/v1_VE1000_randls_4.json,http://54.235.29.9/FacialAge/BNav_EC2/DepthDuration/v2_depth_duration_MTurk/v2_DepthDuration_HTML.html#301,301,1440,789,1440,900,9-18-2022,12-13-11,19,depth_duration_stimuli/001392_2014-06-19_16-07-59_260595134347_rgbf000046-resize_1/001392_2014-06-19_16-07-59_260595134347_rgbf000046-resize_1-target.png,1000,4.135,1,2826,1000,meters,jsons/v1_VE1000_randls_4.json,632069,781025,37,Man
19,257784,DepthScenes,duration_manipulation_targetAtFixation,jsons/v1_VE1000_randls_4.json,http://54.235.29.9/FacialAge/BNav_EC2/DepthDuration/v2_depth_duration_MTurk/v2_DepthDuration_HTML.html#301,301,1440,789,1440,900,9-18-2022,12-13-11,20,depth_duration_stimuli/002964_2014-06-08_17-46-11_094959634447_rgbf000091-resize_4/002964_2014-06-08_17-46-11_094959634447_rgbf000091-resize_4-target.png,1000,1.6909999999999998,1,2988,1000,meters,jsons/v1_VE1000_randls_4.json,632069,781025,37,Man
20,257784,DepthScenes,duration_manipulation_targetAtFixation,jsons/v1_VE1000_randls_4.json,http://54.235.29.9/FacialAge/BNav_EC2/DepthDuration/v2_depth_duration_MTurk/v2_DepthDuration_HTML.html#301,301,1440,789,1440,900,9-18-2022,12-13-11,21,depth_duration_stimuli/002136_2014-06-25_21-18-03_260595134347_rgbf000109-resize_3/002136_2014-06-25_21-18-03_260595134347_rgbf000109-resize_3-target.png,1000,1.9569999999999999,1,2890,999,meters,jsons/v1_VE1000_randls_4.json,632069,781025,37,Man
21,257784,DepthScenes,duration_manipulation_targetAtFixation,jsons/v1_VE1000_randls_4.json,http://54.235.29.9/FacialAge/BNav_EC2/DepthDuration/v2_depth_duration_MTurk/v2_DepthDuration_HTML.html#301,301,1440,789,1440,900,9-18-2022,12-13-11,22,depth_duration_stimuli/002118_2014-06-25_20-32-08_260595134347_rgbf000078-resize_1/002118_2014-06-25_20-32-08_260595134347_rgbf000078-resize_1-target.png,1000,2.6460000000000004,1,2834,998,meters,jsons/v1_VE1000_randls_4.json,632069,781025,37,Man
22,257784,DepthScenes,duration_manipulation_targetAtFixation,jsons/v1_VE1000_randls_4.json,http://54.235.29.9/FacialAge/BNav_EC2/DepthDuration/v2_depth_duration_MTurk/v2_DepthDuration_HTML.html#301,301,1440,789,1440,900,9-18-2022,12-13-11,23,depth_duration_stimuli/001516_2014-06-20_16-25-09_260595134347_rgbf000076-resize_2/001516_2014-06-20_16-25-09_260595134347_rgbf000076-resize_2-target.png,1000,1.7445,1,2761,1001,meters,jsons/v1_VE1000_randls_4.json,632069,781025,37,Man
23,257784,DepthScenes,duration_manipulation_targetAtFixation,jsons/v1_VE1000_randls_4.json,http://54.235.29.9/FacialAge/BNav_EC2/DepthDuration/v2_depth_duration_MTurk/v2_DepthDuration_HTML.html#301,301,1440,789,1440,900,9-18-2022,12-13-11,24,depth_duration_stimuli/001158_2014-06-17_15-32-16_260595134347_rgbf000138-resize_2/001158_2014-06-17_15-32-16_260595134347_rgbf000138-resize_2-target.png,1000,4.5315,1,2877,1002,meters,jsons/v1_VE1000_randls_4.json,632069,781025,37,Man
24,257784,DepthScenes,duration_manipulation_targetAtFixation,jsons/v1_VE1000_randls_4.json,http://54.235.29.9/FacialAge/BNav_EC2/DepthDuration/v2_depth_duration_MTurk/v2_DepthDuration_HTML.html#301,301,1440,789,1440,900,9-18-2022,12-13-11,25,depth_duration_stimuli/000556_2014-06-09_22-42-56_260595134347_rgbf000214-resize_1/000556_2014-06-09_22-42-56_260595134347_rgbf000214-resize_1-target.png,1000,4.8415,1,3996,1000,meters,jsons/v1_VE1000_randls_4.json,632069,781025,37,Man
25,257784,DepthScenes,duration_manipulation_targetAtFixation,jsons/v1_VE1000_randls_4.json,http://54.235.29.9/FacialAge/BNav_EC2/DepthDuration/v2_depth_duration_MTurk/v2_DepthDuration_HTML.html#301,301,1440,789,1440,900,9-18-2022,12-13-11,26,depth_duration_stimuli/000486_2014-06-09_20-47-20_260595134347_rgbf000143-resize_2/000486_2014-06-09_20-47-20_260595134347_rgbf000143-resize_2-target.png,1000,4.8325,1,2851,1000,meters,jsons/v1_VE1000_randls_4.json,632069,781025,37,Man
26,257784,DepthScenes,duration_manipulation_targetAtFixation,jsons/v1_VE1000_randls_4.json,http://54.235.29.9/FacialAge/BNav_EC2/DepthDuration/v2_depth_duration_MTurk/v2_DepthDuration_HTML.html#301,301,1440,789,1440,900,9-18-2022,12-13-11,27,depth_duration_stimuli/003083_2014-06-15_15-21-03_094959634447_rgbf000063-resize_1/003083_2014-06-15_15-21-03_094959634447_rgbf000063-resize_1-target.png,1000,4.1405,1,2664,997,meters,jsons/v1_VE1000_randls_4.json,632069,781025,37,Man
27,257784,DepthScenes,duration_manipulation_targetAtFixation,jsons/v1_VE1000_randls_4.json,http://54.235.29.9/FacialAge/BNav_EC2/DepthDuration/v2_depth_duration_MTurk/v2_DepthDuration_HTML.html#301,301,1440,789,1440,900,9-18-2022,12-13-11,28,depth_duration_stimuli/001150_2014-06-17_15-27-34_260595134347_rgbf000108-resize_2/001150_2014-06-17_15-27-34_260595134347_rgbf000108-resize_2-target.png,1000,4.0325,1,2771,1001,meters,jsons/v1_VE1000_randls_4.json,632069,781025,37,Man
28,257784,DepthScenes,duration_manipulation_targetAtFixation,jsons/v1_VE1000_randls_4.json,http://54.235.29.9/FacialAge/BNav_EC2/DepthDuration/v2_depth_duration_MTurk/v2_DepthDuration_HTML.html#301,301,1440,789,1440,900,9-18-2022,12-13-11,29,depth_duration_stimuli/000665_2014-06-09_20-42-35_260595134347_rgbf000110-resize_1/000665_2014-06-09_20-42-35_260595134347_rgbf000110-resize_1-target.png,1000,3.057,1,2761,999,meters,jsons/v1_VE1000_randls_4.json,632069,781025,37,Man
29,257784,DepthScenes,duration_manipulation_targetAtFixation,jsons/v1_VE1000_randls_4.json,http://54.235.29.9/FacialAge/BNav_EC2/DepthDuration/v2_depth_duration_MTurk/v2_DepthDuration_HTML.html#301,301,1440,789,1440,900,9-18-2022,12-13-11,30,depth_duration_stimuli/000375_2014-06-08_11-17-29_260595134347_rgbf000133-resize_2/000375_2014-06-08_11-17-29_260595134347_rgbf000133-resize-original.jpg,1000,4.718,0,2915,1011,meters,jsons/v1_VE1000_randls_4.json,632069,781025,37,Man
30,257784,DepthScenes,duration_manipulation_targetAtFixation,jsons/v1_VE1000_randls_4.json,http://54.235.29.9/FacialAge/BNav_EC2/DepthDuration/v2_depth_duration_MTurk/v2_DepthDuration_HTML.html#301,301,1440,789,1440,900,9-18-2022,12-13-11,31,depth_duration_stimuli/002057_2014-06-24_21-00-13_260595134347_rgbf000120-resize_1/002057_2014-06-24_21-00-13_260595134347_rgbf000120-resize_1-target.png,1000,2.967,1,3584,1000,meters,jsons/v1_VE1000_randls_4.json,632069,781025,37,Man
31,257784,DepthScenes,duration_manipulation_targetAtFixation,jsons/v1_VE1000_randls_4.json,http://54.235.29.9/FacialAge/BNav_EC2/DepthDuration/v2_depth_duration_MTurk/v2_DepthDuration_HTML.html#301,301,1440,789,1440,900,9-18-2022,12-13-11,32,depth_duration_stimuli/000709_2014-06-08_13-51-55_260595134347_rgbf000068-resize_3/000709_2014-06-08_13-51-55_260595134347_rgbf000068-resize_3-target.png,1000,1.8030000000000002,1,3123,999,meters,jsons/v1_VE1000_randls_4.json,632069,781025,37,Man
32,257784,DepthScenes,duration_manipulation_targetAtFixation,jsons/v1_VE1000_randls_4.json,http://54.235.29.9/FacialAge/BNav_EC2/DepthDuration/v2_depth_duration_MTurk/v2_DepthDuration_HTML.html#301,301,1440,789,1440,900,9-18-2022,12-13-11,33,depth_duration_stimuli/002509_2014-06-24_13-19-22_094959634447_rgbf000077-resize_0/002509_2014-06-24_13-19-22_094959634447_rgbf000077-resize_0-target.png,1000,1.3065,1,3190,989,meters,jsons/v1_VE1000_randls_4.json,632069,781025,37,Man
33,257784,DepthScenes,duration_manipulation_targetAtFixation,jsons/v1_VE1000_randls_4.json,http://54.235.29.9/FacialAge/BNav_EC2/DepthDuration/v2_depth_duration_MTurk/v2_DepthDuration_HTML.html#301,301,1440,789,1440,900,9-18-2022,12-13-11,34,depth_duration_stimuli/003338_2014-05-20_11-01-23_094959634447_rgbf000051-resize_6/003338_2014-05-20_11-01-23_094959634447_rgbf000051-resize_6-target.png,1000,1.693,1,2773,999,meters,jsons/v1_VE1000_randls_4.json,632069,781025,37,Man
34,257784,DepthScenes,duration_manipulation_targetAtFixation,jsons/v1_VE1000_randls_4.json,http://54.235.29.9/FacialAge/BNav_EC2/DepthDuration/v2_depth_duration_MTurk/v2_DepthDuration_HTML.html#301,301,1440,789,1440,900,9-18-2022,12-13-11,35,depth_duration_stimuli/002630_2014-06-24_14-47-50_094959634447_rgbf000055-resize_1/002630_2014-06-24_14-47-50_094959634447_rgbf000055-resize_1-target.png,1000,3.0095,1,2957,999,meters,jsons/v1_VE1000_randls_4.json,632069,781025,37,Man
35,257784,DepthScenes,duration_manipulation_targetAtFixation,jsons/v1_VE1000_randls_4.json,http://54.235.29.9/FacialAge/BNav_EC2/DepthDuration/v2_depth_duration_MTurk/v2_DepthDuration_HTML.html#301,301,1440,789,1440,900,9-18-2022,12-13-11,36,depth_duration_stimuli/002758_2014-06-22_19-11-20_094959634447_rgbf000128-resize_1/002758_2014-06-22_19-11-20_094959634447_rgbf000128-resize_1-target.png,1000,2.555,1,3949,999,meters,jsons/v1_VE1000_randls_4.json,632069,781025,37,Man
36,257784,DepthScenes,duration_manipulation_targetAtFixation,jsons/v1_VE1000_randls_4.json,http://54.235.29.9/FacialAge/BNav_EC2/DepthDuration/v2_depth_duration_MTurk/v2_DepthDuration_HTML.html#301,301,1440,789,1440,900,9-18-2022,12-13-11,37,depth_duration_stimuli/000788_2014-06-08_22-34-36_260595134347_rgbf000131-resize_1/000788_2014-06-08_22-34-36_260595134347_rgbf000131-resize_1-target.png,1000,3.359,1,2779,1000,meters,jsons/v1_VE1000_randls_4.json,632069,781025,37,Man
37,257784,DepthScenes,duration_manipulation_targetAtFixation,jsons/v1_VE1000_randls_4.json,http://54.235.29.9/FacialAge/BNav_EC2/DepthDuration/v2_depth_duration_MTurk/v2_DepthDuration_HTML.html#301,301,1440,789,1440,900,9-18-2022,12-13-11,38,depth_duration_stimuli/001235_2014-06-17_16-37-36_260595134347_rgbf000084-resize_4/001235_2014-06-17_16-37-36_260595134347_rgbf000084-resize_4-target.png,1000,3.6605,1,2892,1004,meters,jsons/v1_VE1000_randls_4.json,632069,781025,37,Man
38,257784,DepthScenes,duration_manipulation_targetAtFixation,jsons/v1_VE1000_randls_4.json,http://54.235.29.9/FacialAge/BNav_EC2/DepthDuration/v2_depth_duration_MTurk/v2_DepthDuration_HTML.html#301,301,1440,789,1440,900,9-18-2022,12-13-11,39,depth_duration_stimuli/000758_2014-06-08_22-05-08_260595134347_rgbf000085-resize_0/000758_2014-06-08_22-05-08_260595134347_rgbf000085-resize_0-target.png,1000,3.3810000000000002,1,3290,1002,meters,jsons/v1_VE1000_randls_4.json,632069,781025,37,Man
39,257784,DepthScenes,duration_manipulation_targetAtFixation,jsons/v1_VE1000_randls_4.json,http://54.235.29.9/FacialAge/BNav_EC2/DepthDuration/v2_depth_duration_MTurk/v2_DepthDuration_HTML.html#301,301,1440,789,1440,900,9-18-2022,12-13-11,40,depth_duration_stimuli/000854_2014-06-09_19-43-13_260595134347_rgbf000066-resize_0/000854_2014-06-09_19-43-13_260595134347_rgbf000066-resize_0-target.png,1000,3.068,1,3036,1000,meters,jsons/v1_VE1000_randls_4.json,632069,781025,37,Man
40,257784,DepthScenes,duration_manipulation_targetAtFixation,jsons/v1_VE1000_randls_4.json,http://54.235.29.9/FacialAge/BNav_EC2/DepthDuration/v2_depth_duration_MTurk/v2_DepthDuration_HTML.html#301,301,1440,789,1440,900,9-18-2022,12-13-11,41,depth_duration_stimuli/001016_2014-06-09_16-16-10_260595134347_rgbf000112-resize_5/001016_2014-06-09_16-16-10_260595134347_rgbf000112-resize_5-target.png,1000,1.6565,1,2795,1000,meters,jsons/v1_VE1000_randls_4.json,632069,781025,37,Man
41,257784,DepthScenes,duration_manipulation_targetAtFixation,jsons/v1_VE1000_randls_4.json,http://54.235.29.9/FacialAge/BNav_EC2/DepthDuration/v2_depth_duration_MTurk/v2_DepthDuration_HTML.html#301,301,1440,789,1440,900,9-18-2022,12-13-11,42,depth_duration_stimuli/002340_2014-06-28_20-05-46_260595134347_rgbf000113-resize_0/002340_2014-06-28_20-05-46_260595134347_rgbf000113-resize_0-target.png,1000,2.4735,1,3563,1001,meters,jsons/v1_VE1000_randls_4.json,632069,781025,37,Man
42,257784,DepthScenes,duration_manipulation_targetAtFixation,jsons/v1_VE1000_randls_4.json,http://54.235.29.9/FacialAge/BNav_EC2/DepthDuration/v2_depth_duration_MTurk/v2_DepthDuration_HTML.html#301,301,1440,789,1440,900,9-18-2022,12-13-11,43,depth_duration_stimuli/003621_2014-05-23_18-06-08_094959634447_rgbf000101-resize_1/003621_2014-05-23_18-06-08_094959634447_rgbf000101-resize_1-target.png,1000,3.9835,1,2873,999,meters,jsons/v1_VE1000_randls_4.json,632069,781025,37,Man
43,257784,DepthScenes,duration_manipulation_targetAtFixation,jsons/v1_VE1000_randls_4.json,http://54.235.29.9/FacialAge/BNav_EC2/DepthDuration/v2_depth_duration_MTurk/v2_DepthDuration_HTML.html#301,301,1440,789,1440,900,9-18-2022,12-13-11,44,depth_duration_stimuli/001584_2014-06-20_11-07-43_260595134347_rgbf000002-resize_1/001584_2014-06-20_11-07-43_260595134347_rgbf000002-resize_1-target.png,1000,3.53,1,2775,1005,meters,jsons/v1_VE1000_randls_4.json,632069,781025,37,Man
44,257784,DepthScenes,duration_manipulation_targetAtFixation,jsons/v1_VE1000_randls_4.json,http://54.235.29.9/FacialAge/BNav_EC2/DepthDuration/v2_depth_duration_MTurk/v2_DepthDuration_HTML.html#301,301,1440,789,1440,900,9-18-2022,12-13-11,45,depth_duration_stimuli/000787_2014-06-08_22-33-53_260595134347_rgbf000175-resize_1/000787_2014-06-08_22-33-53_260595134347_rgbf000175-resize-original.jpg,1000,4.784,0,3197,999,meters,jsons/v1_VE1000_randls_4.json,632069,781025,37,Man
45,257784,DepthScenes,duration_manipulation_targetAtFixation,jsons/v1_VE1000_randls_4.json,http://54.235.29.9/FacialAge/BNav_EC2/DepthDuration/v2_depth_duration_MTurk/v2_DepthDuration_HTML.html#301,301,1440,789,1440,900,9-18-2022,12-13-11,46,depth_duration_stimuli/000692_2014-06-08_13-09-42_260595134347_rgbf000199-resize_2/000692_2014-06-08_13-09-42_260595134347_rgbf000199-resize_2-target.png,1000,3.661,1,3080,998,meters,jsons/v1_VE1000_randls_4.json,632069,781025,37,Man
46,257784,DepthScenes,duration_manipulation_targetAtFixation,jsons/v1_VE1000_randls_4.json,http://54.235.29.9/FacialAge/BNav_EC2/DepthDuration/v2_depth_duration_MTurk/v2_DepthDuration_HTML.html#301,301,1440,789,1440,900,9-18-2022,12-13-11,47,depth_duration_stimuli/001094_2014-06-15_17-36-00_260595134347_rgbf000205-resize_0/001094_2014-06-15_17-36-00_260595134347_rgbf000205-resize_0-target.png,1000,4.2175,1,3619,999,meters,jsons/v1_VE1000_randls_4.json,632069,781025,37,Man
47,257784,DepthScenes,duration_manipulation_targetAtFixation,jsons/v1_VE1000_randls_4.json,http://54.235.29.9/FacialAge/BNav_EC2/DepthDuration/v2_depth_duration_MTurk/v2_DepthDuration_HTML.html#301,301,1440,789,1440,900,9-18-2022,12-13-11,48,depth_duration_stimuli/000506_2014-06-08_23-21-00_260595134347_rgbf000070-resize_7/000506_2014-06-08_23-21-00_260595134347_rgbf000070-resize_7-target.png,1000,4.0585,1,2860,1019,meters,jsons/v1_VE1000_randls_4.json,632069,781025,37,Man
48,257784,DepthScenes,duration_manipulation_targetAtFixation,jsons/v1_VE1000_randls_4.json,http://54.235.29.9/FacialAge/BNav_EC2/DepthDuration/v2_depth_duration_MTurk/v2_DepthDuration_HTML.html#301,301,1440,789,1440,900,9-18-2022,12-13-11,49,depth_duration_stimuli/003079_2014-06-15_15-18-20_094959634447_rgbf000152-resize_8/003079_2014-06-15_15-18-20_094959634447_rgbf000152-resize_8-target.png,1000,2.8775,1,2944,1001,meters,jsons/v1_VE1000_randls_4.json,632069,781025,37,Man
49,257784,DepthScenes,duration_manipulation_targetAtFixation,jsons/v1_VE1000_randls_4.json,http://54.235.29.9/FacialAge/BNav_EC2/DepthDuration/v2_depth_duration_MTurk/v2_DepthDuration_HTML.html#301,301,1440,789,1440,900,9-18-2022,12-13-11,50,depth_duration_stimuli/002375_2014-06-28_20-13-44_260595134347_rgbf000032-resize_1/002375_2014-06-28_20-13-44_260595134347_rgbf000032-resize_1-target.png,1000,4.0175,1,2877,1001,meters,jsons/v1_VE1000_randls_4.json,632069,781025,37,Man
50,257784,DepthScenes,duration_manipulation_targetAtFixation,jsons/v1_VE1000_randls_4.json,http://54.235.29.9/FacialAge/BNav_EC2/DepthDuration/v2_depth_duration_MTurk/v2_DepthDuration_HTML.html#301,301,1440,789,1440,900,9-18-2022,12-13-11,51,depth_duration_stimuli/002657_2014-06-13_15-29-54_094959634447_rgbf000150-resize_1/002657_2014-06-13_15-29-54_094959634447_rgbf000150-resize_1-target.png,1000,4.919,1,3132,999,meters,jsons/v1_VE1000_randls_4.json,632069,781025,37,Man
51,257784,DepthScenes,duration_manipulation_targetAtFixation,jsons/v1_VE1000_randls_4.json,http://54.235.29.9/FacialAge/BNav_EC2/DepthDuration/v2_depth_duration_MTurk/v2_DepthDuration_HTML.html#301,301,1440,789,1440,900,9-18-2022,12-13-11,52,depth_duration_stimuli/002272_2014-06-28_18-53-56_260595134347_rgbf000067-resize_2/002272_2014-06-28_18-53-56_260595134347_rgbf000067-resize_2-target.png,1000,1.138,1,2892,1000,meters,jsons/v1_VE1000_randls_4.json,632069,781025,37,Man
52,257784,DepthScenes,duration_manipulation_targetAtFixation,jsons/v1_VE1000_randls_4.json,http://54.235.29.9/FacialAge/BNav_EC2/DepthDuration/v2_depth_duration_MTurk/v2_DepthDuration_HTML.html#301,301,1440,789,1440,900,9-18-2022,12-13-11,53,depth_duration_stimuli/001571_2014-06-20_17-21-32_260595134347_rgbf000089-resize_1/001571_2014-06-20_17-21-32_260595134347_rgbf000089-resize_1-target.png,1000,1.86,1,2798,998,meters,jsons/v1_VE1000_randls_4.json,632069,781025,37,Man
53,257784,DepthScenes,duration_manipulation_targetAtFixation,jsons/v1_VE1000_randls_4.json,http://54.235.29.9/FacialAge/BNav_EC2/DepthDuration/v2_depth_duration_MTurk/v2_DepthDuration_HTML.html#301,301,1440,789,1440,900,9-18-2022,12-13-11,54,depth_duration_stimuli/000682_2014-06-08_23-14-58_260595134347_rgbf000041-resize_5/000682_2014-06-08_23-14-58_260595134347_rgbf000041-resize_5-target.png,1000,2.7239999999999998,1,2817,1000,meters,jsons/v1_VE1000_randls_4.json,632069,781025,37,Man
54,257784,DepthScenes,duration_manipulation_targetAtFixation,jsons/v1_VE1000_randls_4.json,http://54.235.29.9/FacialAge/BNav_EC2/DepthDuration/v2_depth_duration_MTurk/v2_DepthDuration_HTML.html#301,301,1440,789,1440,900,9-18-2022,12-13-11,55,depth_duration_stimuli/001650_2014-06-20_12-09-00_260595134347_rgbf000087-resize_3/001650_2014-06-20_12-09-00_260595134347_rgbf000087-resize_3-target.png,1000,1.9505,1,2882,999,meters,jsons/v1_VE1000_randls_4.json,632069,781025,37,Man
55,257784,DepthScenes,duration_manipulation_targetAtFixation,jsons/v1_VE1000_randls_4.json,http://54.235.29.9/FacialAge/BNav_EC2/DepthDuration/v2_depth_duration_MTurk/v2_DepthDuration_HTML.html#301,301,1440,789,1440,900,9-18-2022,12-13-11,56,depth_duration_stimuli/002725_2014-06-22_11-47-51_094959634447_rgbf000070-resize_1/002725_2014-06-22_11-47-51_094959634447_rgbf000070-resize_1-target.png,1000,2.195,1,3252,1001,meters,jsons/v1_VE1000_randls_4.json,632069,781025,37,Man
56,257784,DepthScenes,duration_manipulation_targetAtFixation,jsons/v1_VE1000_randls_4.json,http://54.235.29.9/FacialAge/BNav_EC2/DepthDuration/v2_depth_duration_MTurk/v2_DepthDuration_HTML.html#301,301,1440,789,1440,900,9-18-2022,12-13-11,57,depth_duration_stimuli/002344_2014-06-28_20-06-29_260595134347_rgbf000030-resize_1/002344_2014-06-28_20-06-29_260595134347_rgbf000030-resize_1-target.png,1000,1.5795,1,2933,1001,meters,jsons/v1_VE1000_randls_4.json,632069,781025,37,Man
57,257784,DepthScenes,duration_manipulation_targetAtFixation,jsons/v1_VE1000_randls_4.json,http://54.235.29.9/FacialAge/BNav_EC2/DepthDuration/v2_depth_duration_MTurk/v2_DepthDuration_HTML.html#301,301,1440,789,1440,900,9-18-2022,12-13-11,58,depth_duration_stimuli/000878_2014-06-08_22-52-45_260595134347_rgbf000045-resize_2/000878_2014-06-08_22-52-45_260595134347_rgbf000045-resize_2-target.png,1000,2.092,1,2960,999,meters,jsons/v1_VE1000_randls_4.json,632069,781025,37,Man
58,257784,DepthScenes,duration_manipulation_targetAtFixation,jsons/v1_VE1000_randls_4.json,http://54.235.29.9/FacialAge/BNav_EC2/DepthDuration/v2_depth_duration_MTurk/v2_DepthDuration_HTML.html#301,301,1440,789,1440,900,9-18-2022,12-13-11,59,depth_duration_stimuli/002953_2014-06-08_17-32-18_094959634447_rgbf000059-resize_5/002953_2014-06-08_17-32-18_094959634447_rgbf000059-resize_5-target.png,1000,1.551,1,2971,1000,meters,jsons/v1_VE1000_randls_4.json,632069,781025,37,Man
59,257784,DepthScenes,duration_manipulation_targetAtFixation,jsons/v1_VE1000_randls_4.json,http://54.235.29.9/FacialAge/BNav_EC2/DepthDuration/v2_depth_duration_MTurk/v2_DepthDuration_HTML.html#301,301,1440,789,1440,900,9-18-2022,12-13-11,60,depth_duration_stimuli/002748_2014-06-22_19-07-22_094959634447_rgbf000078-resize_1/002748_2014-06-22_19-07-22_094959634447_rgbf000078-resize_1-target.png,1000,4.6705,1,3125,1000,meters,jsons/v1_VE1000_randls_4.json,632069,781025,37,Man
60,257784,DepthScenes,duration_manipulation_targetAtFixation,jsons/v1_VE1000_randls_4.json,http://54.235.29.9/FacialAge/BNav_EC2/DepthDuration/v2_depth_duration_MTurk/v2_DepthDuration_HTML.html#301,301,1440,789,1440,900,9-18-2022,12-13-11,61,depth_duration_stimuli/002995_2014-06-15_12-31-26_094959634447_rgbf000150-resize_1/002995_2014-06-15_12-31-26_094959634447_rgbf000150-resize_1-target.png,1000,3.8360000000000003,1,3010,1000,meters,jsons/v1_VE1000_randls_4.json,632069,781025,37,Man
61,257784,DepthScenes,duration_manipulation_targetAtFixation,jsons/v1_VE1000_randls_4.json,http://54.235.29.9/FacialAge/BNav_EC2/DepthDuration/v2_depth_duration_MTurk/v2_DepthDuration_HTML.html#301,301,1440,789,1440,900,9-18-2022,12-13-11,62,depth_duration_stimuli/002905_2014-06-03_18-04-43_094959634447_rgbf000151-resize_2/002905_2014-06-03_18-04-43_094959634447_rgbf000151-resize_2-target.png,1000,2.0295,1,2857,999,meters,jsons/v1_VE1000_randls_4.json,632069,781025,37,Man
62,257784,DepthScenes,duration_manipulation_targetAtFixation,jsons/v1_VE1000_randls_4.json,http://54.235.29.9/FacialAge/BNav_EC2/DepthDuration/v2_depth_duration_MTurk/v2_DepthDuration_HTML.html#301,301,1440,789,1440,900,9-18-2022,12-13-11,63,depth_duration_stimuli/003423_2014-05-21_10-23-26_094959634447_rgbf002665-resize_2/003423_2014-05-21_10-23-26_094959634447_rgbf002665-resize_2-target.png,1000,3.2575,1,2919,998,meters,jsons/v1_VE1000_randls_4.json,632069,781025,37,Man
63,257784,DepthScenes,duration_manipulation_targetAtFixation,jsons/v1_VE1000_randls_4.json,http://54.235.29.9/FacialAge/BNav_EC2/DepthDuration/v2_depth_duration_MTurk/v2_DepthDuration_HTML.html#301,301,1440,789,1440,900,9-18-2022,12-13-11,64,depth_duration_stimuli/000436_2014-06-09_22-25-11_260595134347_rgbf000137-resize_1/000436_2014-06-09_22-25-11_260595134347_rgbf000137-resize_1-target.png,1000,4.0705,1,4100,1002,meters,jsons/v1_VE1000_randls_4.json,632069,781025,37,Man
64,257784,DepthScenes,duration_manipulation_targetAtFixation,jsons/v1_VE1000_randls_4.json,http://54.235.29.9/FacialAge/BNav_EC2/DepthDuration/v2_depth_duration_MTurk/v2_DepthDuration_HTML.html#301,301,1440,789,1440,900,9-18-2022,12-13-11,65,depth_duration_stimuli/002444_2014-06-28_20-32-08_260595134347_rgbf000027-resize_0/002444_2014-06-28_20-32-08_260595134347_rgbf000027-resize_0-target.png,1000,4.388999999999999,1,2859,999,meters,jsons/v1_VE1000_randls_4.json,632069,781025,37,Man
65,257784,DepthScenes,duration_manipulation_targetAtFixation,jsons/v1_VE1000_randls_4.json,http://54.235.29.9/FacialAge/BNav_EC2/DepthDuration/v2_depth_duration_MTurk/v2_DepthDuration_HTML.html#301,301,1440,789,1440,900,9-18-2022,12-13-11,66,depth_duration_stimuli/001222_2014-06-17_16-24-06_260595134347_rgbf000073-resize_0/001222_2014-06-17_16-24-06_260595134347_rgbf000073-resize-original.jpg,1000,1.4385,0,2969,998,meters,jsons/v1_VE1000_randls_4.json,632069,781025,37,Man
66,257784,DepthScenes,duration_manipulation_targetAtFixation,jsons/v1_VE1000_randls_4.json,http://54.235.29.9/FacialAge/BNav_EC2/DepthDuration/v2_depth_duration_MTurk/v2_DepthDuration_HTML.html#301,301,1440,789,1440,900,9-18-2022,12-13-11,67,depth_duration_stimuli/003070_2014-06-15_14-58-27_094959634447_rgbf000150-resize_3/003070_2014-06-15_14-58-27_094959634447_rgbf000150-resize_3-target.png,1000,2.9415,1,2872,999,meters,jsons/v1_VE1000_randls_4.json,632069,781025,37,Man
67,257784,DepthScenes,duration_manipulation_targetAtFixation,jsons/v1_VE1000_randls_4.json,http://54.235.29.9/FacialAge/BNav_EC2/DepthDuration/v2_depth_duration_MTurk/v2_DepthDuration_HTML.html#301,301,1440,789,1440,900,9-18-2022,12-13-11,68,depth_duration_stimuli/000943_2014-06-09_19-31-07_260595134347_rgbf000128-resize_1/000943_2014-06-09_19-31-07_260595134347_rgbf000128-resize_1-target.png,1000,1.9765,1,2835,1000,meters,jsons/v1_VE1000_randls_4.json,632069,781025,37,Man
68,257784,DepthScenes,duration_manipulation_targetAtFixation,jsons/v1_VE1000_randls_4.json,http://54.235.29.9/FacialAge/BNav_EC2/DepthDuration/v2_depth_duration_MTurk/v2_DepthDuration_HTML.html#301,301,1440,789,1440,900,9-18-2022,12-13-11,69,depth_duration_stimuli/002279_2014-06-28_18-55-32_260595134347_rgbf000040-resize_5/002279_2014-06-28_18-55-32_260595134347_rgbf000040-resize_5-target.png,1000,1.5043333333333,1,2931,999,meters,jsons/v1_VE1000_randls_4.json,632069,781025,37,Man
69,257784,DepthScenes,duration_manipulation_targetAtFixation,jsons/v1_VE1000_randls_4.json,http://54.235.29.9/FacialAge/BNav_EC2/DepthDuration/v2_depth_duration_MTurk/v2_DepthDuration_HTML.html#301,301,1440,789,1440,900,9-18-2022,12-13-11,70,depth_duration_stimuli/000635_2014-06-08_16-38-42_260595134347_rgbf000106-resize_1/000635_2014-06-08_16-38-42_260595134347_rgbf000106-resize_1-target.png,1000,2.074,1,2825,998,meters,jsons/v1_VE1000_randls_4.json,632069,781025,37,Man
70,257784,DepthScenes,duration_manipulation_targetAtFixation,jsons/v1_VE1000_randls_4.json,http://54.235.29.9/FacialAge/BNav_EC2/DepthDuration/v2_depth_duration_MTurk/v2_DepthDuration_HTML.html#301,301,1440,789,1440,900,9-18-2022,12-13-11,71,depth_duration_stimuli/000009_2014-05-26_14-32-05_260595134347_rgbf000034-resize_3/000009_2014-05-26_14-32-05_260595134347_rgbf000034-resize_3-target.png,1000,3.8715,1,2836,1001,meters,jsons/v1_VE1000_randls_4.json,632069,781025,37,Man
71,257784,DepthScenes,duration_manipulation_targetAtFixation,jsons/v1_VE1000_randls_4.json,http://54.235.29.9/FacialAge/BNav_EC2/DepthDuration/v2_depth_duration_MTurk/v2_DepthDuration_HTML.html#301,301,1440,789,1440,900,9-18-2022,12-13-11,72,depth_duration_stimuli/001828_2014-06-26_21-40-03_260595134347_rgbf000024-resize_0/001828_2014-06-26_21-40-03_260595134347_rgbf000024-resize_0-target.png,1000,4.8260000000000005,1,3087,1000,meters,jsons/v1_VE1000_randls_4.json,632069,781025,37,Man
72,257784,DepthScenes,duration_manipulation_targetAtFixation,jsons/v1_VE1000_randls_4.json,http://54.235.29.9/FacialAge/BNav_EC2/DepthDuration/v2_depth_duration_MTurk/v2_DepthDuration_HTML.html#301,301,1440,789,1440,900,9-18-2022,12-13-11,73,depth_duration_stimuli/003534_2014-05-22_15-06-10_094959634447_rgbf000102-resize_4/003534_2014-05-22_15-06-10_094959634447_rgbf000102-resize_4-target.png,1000,1.426,1,2742,999,meters,jsons/v1_VE1000_randls_4.json,632069,781025,37,Man
73,257784,DepthScenes,duration_manipulation_targetAtFixation,jsons/v1_VE1000_randls_4.json,http://54.235.29.9/FacialAge/BNav_EC2/DepthDuration/v2_depth_duration_MTurk/v2_DepthDuration_HTML.html#301,301,1440,789,1440,900,9-18-2022,12-13-11,74,depth_duration_stimuli/002637_2014-06-24_14-51-13_094959634447_rgbf000066-resize_4/002637_2014-06-24_14-51-13_094959634447_rgbf000066-resize_4-target.png,1000,1.9955,1,3849,1000,meters,jsons/v1_VE1000_randls_4.json,632069,781025,37,Man
74,257784,DepthScenes,duration_manipulation_targetAtFixation,jsons/v1_VE1000_randls_4.json,http://54.235.29.9/FacialAge/BNav_EC2/DepthDuration/v2_depth_duration_MTurk/v2_DepthDuration_HTML.html#301,301,1440,789,1440,900,9-18-2022,12-13-11,75,depth_duration_stimuli/002763_2014-06-22_19-13-10_094959634447_rgbf000075-resize_4/002763_2014-06-22_19-13-10_094959634447_rgbf000075-resize_4-target.png,1000,1.68375,1,2839,1000,meters,jsons/v1_VE1000_randls_4.json,632069,781025,37,Man
75,257784,DepthScenes,duration_manipulation_targetAtFixation,jsons/v1_VE1000_randls_4.json,http://54.235.29.9/FacialAge/BNav_EC2/DepthDuration/v2_depth_duration_MTurk/v2_DepthDuration_HTML.html#301,301,1440,789,1440,900,9-18-2022,12-13-11,76,depth_duration_stimuli/002209_2014-06-28_18-36-10_260595134347_rgbf000051-resize_1/002209_2014-06-28_18-36-10_260595134347_rgbf000051-resize_1-target.png,1000,2.057,1,3836,1000,meters,jsons/v1_VE1000_randls_4.json,632069,781025,37,Man
76,257784,DepthScenes,duration_manipulation_targetAtFixation,jsons/v1_VE1000_randls_4.json,http://54.235.29.9/FacialAge/BNav_EC2/DepthDuration/v2_depth_duration_MTurk/v2_DepthDuration_HTML.html#301,301,1440,789,1440,900,9-18-2022,12-13-11,77,depth_duration_stimuli/000447_2014-06-08_16-15-46_260595134347_rgbf000130-resize_1/000447_2014-06-08_16-15-46_260595134347_rgbf000130-resize_1-target.png,1000,4.479,1,2819,1000,meters,jsons/v1_VE1000_randls_4.json,632069,781025,37,Man
77,257784,DepthScenes,duration_manipulation_targetAtFixation,jsons/v1_VE1000_randls_4.json,http://54.235.29.9/FacialAge/BNav_EC2/DepthDuration/v2_depth_duration_MTurk/v2_DepthDuration_HTML.html#301,301,1440,789,1440,900,9-18-2022,12-13-11,78,depth_duration_stimuli/001447_2014-06-19_17-00-32_260595134347_rgbf000082-resize_5/001447_2014-06-19_17-00-32_260595134347_rgbf000082-resize_5-target.png,1000,4.13775,1,4147,1000,meters,jsons/v1_VE1000_randls_4.json,632069,781025,37,Man
78,257784,DepthScenes,duration_manipulation_targetAtFixation,jsons/v1_VE1000_randls_4.json,http://54.235.29.9/FacialAge/BNav_EC2/DepthDuration/v2_depth_duration_MTurk/v2_DepthDuration_HTML.html#301,301,1440,789,1440,900,9-18-2022,12-13-11,79,depth_duration_stimuli/002213_2014-06-28_18-37-58_260595134347_rgbf000055-resize_1/002213_2014-06-28_18-37-58_260595134347_rgbf000055-resize_1-target.png,1000,3.62,1,3235,998,meters,jsons/v1_VE1000_randls_4.json,632069,781025,37,Man
79,257784,DepthScenes,duration_manipulation_targetAtFixation,jsons/v1_VE1000_randls_4.json,http://54.235.29.9/FacialAge/BNav_EC2/DepthDuration/v2_depth_duration_MTurk/v2_DepthDuration_HTML.html#301,301,1440,789,1440,900,9-18-2022,12-13-11,80,depth_duration_stimuli/000691_2014-06-08_13-08-50_260595134347_rgbf000132-resize_3/000691_2014-06-08_13-08-50_260595134347_rgbf000132-resize_3-target.png,1000,4.1530000000000005,1,2906,1000,meters,jsons/v1_VE1000_randls_4.json,632069,781025,37,Man
80,257784,DepthScenes,duration_manipulation_targetAtFixation,jsons/v1_VE1000_randls_4.json,http://54.235.29.9/FacialAge/BNav_EC2/DepthDuration/v2_depth_duration_MTurk/v2_DepthDuration_HTML.html#301,301,1440,789,1440,900,9-18-2022,12-13-11,81,depth_duration_stimuli/001244_2014-06-17_16-47-45_260595134347_rgbf000030-resize_4/001244_2014-06-17_16-47-45_260595134347_rgbf000030-resize_4-target.png,1000,2.0425,1,4105,1001,meters,jsons/v1_VE1000_randls_4.json,632069,781025,37,Man
81,257784,DepthScenes,duration_manipulation_targetAtFixation,jsons/v1_VE1000_randls_4.json,http://54.235.29.9/FacialAge/BNav_EC2/DepthDuration/v2_depth_duration_MTurk/v2_DepthDuration_HTML.html#301,301,1440,789,1440,900,9-18-2022,12-13-11,82,depth_duration_stimuli/003495_2014-05-21_16-01-51_094959634447_rgbf000100-resize_3/003495_2014-05-21_16-01-51_094959634447_rgbf000100-resize_3-target.png,1000,1.6255,1,3004,1000,meters,jsons/v1_VE1000_randls_4.json,632069,781025,37,Man
82,257784,DepthScenes,duration_manipulation_targetAtFixation,jsons/v1_VE1000_randls_4.json,http://54.235.29.9/FacialAge/BNav_EC2/DepthDuration/v2_depth_duration_MTurk/v2_DepthDuration_HTML.html#301,301,1440,789,1440,900,9-18-2022,12-13-11,83,depth_duration_stimuli/000469_2014-06-09_19-42-10_260595134347_rgbf000081-resize_1/000469_2014-06-09_19-42-10_260595134347_rgbf000081-resize_1-target.png,1000,1.652,1,2779,1000,meters,jsons/v1_VE1000_randls_4.json,632069,781025,37,Man
83,257784,DepthScenes,duration_manipulation_targetAtFixation,jsons/v1_VE1000_randls_4.json,http://54.235.29.9/FacialAge/BNav_EC2/DepthDuration/v2_depth_duration_MTurk/v2_DepthDuration_HTML.html#301,301,1440,789,1440,900,9-18-2022,12-13-11,84,depth_duration_stimuli/000483_2014-06-09_20-41-45_260595134347_rgbf000116-resize_4/000483_2014-06-09_20-41-45_260595134347_rgbf000116-resize_4-target.png,1000,1.337,1,4205,1028,meters,jsons/v1_VE1000_randls_4.json,632069,781025,37,Man
84,257784,DepthScenes,duration_manipulation_targetAtFixation,jsons/v1_VE1000_randls_4.json,http://54.235.29.9/FacialAge/BNav_EC2/DepthDuration/v2_depth_duration_MTurk/v2_DepthDuration_HTML.html#301,301,1440,789,1440,900,9-18-2022,12-13-11,85,depth_duration_stimuli/001056_2014-06-08_18-46-44_260595134347_rgbf000068-resize_0/001056_2014-06-08_18-46-44_260595134347_rgbf000068-resize_0-target.png,1000,2.6625,1,2963,1004,meters,jsons/v1_VE1000_randls_4.json,632069,781025,37,Man
85,257784,DepthScenes,duration_manipulation_targetAtFixation,jsons/v1_VE1000_randls_4.json,http://54.235.29.9/FacialAge/BNav_EC2/DepthDuration/v2_depth_duration_MTurk/v2_DepthDuration_HTML.html#301,301,1440,789,1440,900,9-18-2022,12-13-11,86,depth_duration_stimuli/002199_2014-06-28_18-33-56_260595134347_rgbf000074-resize_0/002199_2014-06-28_18-33-56_260595134347_rgbf000074-resize_0-target.png,1000,1.996,1,2983,1001,meters,jsons/v1_VE1000_randls_4.json,632069,781025,37,Man
86,257784,DepthScenes,duration_manipulation_targetAtFixation,jsons/v1_VE1000_randls_4.json,http://54.235.29.9/FacialAge/BNav_EC2/DepthDuration/v2_depth_duration_MTurk/v2_DepthDuration_HTML.html#301,301,1440,789,1440,900,9-18-2022,12-13-11,87,depth_duration_stimuli/000906_2014-06-08_13-35-43_260595134347_rgbf000155-resize_1/000906_2014-06-08_13-35-43_260595134347_rgbf000155-resize_1-target.png,1000,2.8489999999999998,1,2868,999,meters,jsons/v1_VE1000_randls_4.json,632069,781025,37,Man
87,257784,DepthScenes,duration_manipulation_targetAtFixation,jsons/v1_VE1000_randls_4.json,http://54.235.29.9/FacialAge/BNav_EC2/DepthDuration/v2_depth_duration_MTurk/v2_DepthDuration_HTML.html#301,301,1440,789,1440,900,9-18-2022,12-13-11,88,depth_duration_stimuli/002805_2014-06-22_19-54-03_094959634447_rgbf000079-resize_1/002805_2014-06-22_19-54-03_094959634447_rgbf000079-resize_1-target.png,1000,3.1439999999999997,1,2645,1000,meters,jsons/v1_VE1000_randls_4.json,632069,781025,37,Man
88,257784,DepthScenes,duration_manipulation_targetAtFixation,jsons/v1_VE1000_randls_4.json,http://54.235.29.9/FacialAge/BNav_EC2/DepthDuration/v2_depth_duration_MTurk/v2_DepthDuration_HTML.html#301,301,1440,789,1440,900,9-18-2022,12-13-11,89,depth_duration_stimuli/002445_2014-06-28_20-32-16_260595134347_rgbf000029-resize_4/002445_2014-06-28_20-32-16_260595134347_rgbf000029-resize_4-target.png,1000,2.5315,1,2789,999,meters,jsons/v1_VE1000_randls_4.json,632069,781025,37,Man
89,257784,DepthScenes,duration_manipulation_targetAtFixation,jsons/v1_VE1000_randls_4.json,http://54.235.29.9/FacialAge/BNav_EC2/DepthDuration/v2_depth_duration_MTurk/v2_DepthDuration_HTML.html#301,301,1440,789,1440,900,9-18-2022,12-13-11,90,depth_duration_stimuli/000780_2014-06-08_22-28-29_260595134347_rgbf000126-resize_1/000780_2014-06-08_22-28-29_260595134347_rgbf000126-resize_1-target.png,1000,3.3825,1,3504,1002,meters,jsons/v1_VE1000_randls_4.json,632069,781025,37,Man
90,257784,DepthScenes,duration_manipulation_targetAtFixation,jsons/v1_VE1000_randls_4.json,http://54.235.29.9/FacialAge/BNav_EC2/DepthDuration/v2_depth_duration_MTurk/v2_DepthDuration_HTML.html#301,301,1440,789,1440,900,9-18-2022,12-13-11,91,depth_duration_stimuli/001199_2014-06-17_16-03-48_260595134347_rgbf000077-resize_0/001199_2014-06-17_16-03-48_260595134347_rgbf000077-resize_0-target.png,1000,3.4375,1,3066,1001,meters,jsons/v1_VE1000_randls_4.json,632069,781025,37,Man
91,257784,DepthScenes,duration_manipulation_targetAtFixation,jsons/v1_VE1000_randls_4.json,http://54.235.29.9/FacialAge/BNav_EC2/DepthDuration/v2_depth_duration_MTurk/v2_DepthDuration_HTML.html#301,301,1440,789,1440,900,9-18-2022,12-13-11,92,depth_duration_stimuli/000502_2014-06-08_23-02-32_260595134347_rgbf000063-resize_4/000502_2014-06-08_23-02-32_260595134347_rgbf000063-resize_4-target.png,1000,2.431,1,2839,1002,meters,jsons/v1_VE1000_randls_4.json,632069,781025,37,Man
92,257784,DepthScenes,duration_manipulation_targetAtFixation,jsons/v1_VE1000_randls_4.json,http://54.235.29.9/FacialAge/BNav_EC2/DepthDuration/v2_depth_duration_MTurk/v2_DepthDuration_HTML.html#301,301,1440,789,1440,900,9-18-2022,12-13-11,93,depth_duration_stimuli/000642_2014-06-08_16-59-25_260595134347_rgbf000098-resize_2/000642_2014-06-08_16-59-25_260595134347_rgbf000098-resize_2-target.png,1000,2.8815,1,2999,999,meters,jsons/v1_VE1000_randls_4.json,632069,781025,37,Man
93,257784,DepthScenes,duration_manipulation_targetAtFixation,jsons/v1_VE1000_randls_4.json,http://54.235.29.9/FacialAge/BNav_EC2/DepthDuration/v2_depth_duration_MTurk/v2_DepthDuration_HTML.html#301,301,1440,789,1440,900,9-18-2022,12-13-11,94,depth_duration_stimuli/002425_2014-06-28_20-27-29_260595134347_rgbf000031-resize_8/002425_2014-06-28_20-27-29_260595134347_rgbf000031-resize_8-target.png,1000,3.8960000000000004,1,4699,1001,meters,jsons/v1_VE1000_randls_4.json,632069,781025,37,Man
94,257784,DepthScenes,duration_manipulation_targetAtFixation,jsons/v1_VE1000_randls_4.json,http://54.235.29.9/FacialAge/BNav_EC2/DepthDuration/v2_depth_duration_MTurk/v2_DepthDuration_HTML.html#301,301,1440,789,1440,900,9-18-2022,12-13-11,95,depth_duration_stimuli/001417_2014-06-19_16-25-36_260595134347_rgbf000115-resize_5/001417_2014-06-19_16-25-36_260595134347_rgbf000115-resize_5-target.png,1000,4.6255,1,2922,999,meters,jsons/v1_VE1000_randls_4.json,632069,781025,37,Man
95,257784,DepthScenes,duration_manipulation_targetAtFixation,jsons/v1_VE1000_randls_4.json,http://54.235.29.9/FacialAge/BNav_EC2/DepthDuration/v2_depth_duration_MTurk/v2_DepthDuration_HTML.html#301,301,1440,789,1440,900,9-18-2022,12-13-11,96,depth_duration_stimuli/003081_2014-06-15_15-19-16_094959634447_rgbf000150-resize_1/003081_2014-06-15_15-19-16_094959634447_rgbf000150-resize_1-target.png,1000,3.9125,1,3031,1001,meters,jsons/v1_VE1000_randls_4.json,632069,781025,37,Man
96,257784,DepthScenes,duration_manipulation_targetAtFixation,jsons/v1_VE1000_randls_4.json,http://54.235.29.9/FacialAge/BNav_EC2/DepthDuration/v2_depth_duration_MTurk/v2_DepthDuration_HTML.html#301,301,1440,789,1440,900,9-18-2022,12-13-11,97,depth_duration_stimuli/002663_2014-06-13_15-50-26_094959634447_rgbf000075-resize_1/002663_2014-06-13_15-50-26_094959634447_rgbf000075-resize_1-target.png,1000,4.7495,1,3127,1034,meters,jsons/v1_VE1000_randls_4.json,632069,781025,37,Man
97,257784,DepthScenes,duration_manipulation_targetAtFixation,jsons/v1_VE1000_randls_4.json,http://54.235.29.9/FacialAge/BNav_EC2/DepthDuration/v2_depth_duration_MTurk/v2_DepthDuration_HTML.html#301,301,1440,789,1440,900,9-18-2022,12-13-11,98,depth_duration_stimuli/000409_2014-06-04_19-23-33_260595134347_rgbf000067-resize_0/000409_2014-06-04_19-23-33_260595134347_rgbf000067-resize_0-target.png,1000,3.7335,1,3459,999,meters,jsons/v1_VE1000_randls_4.json,632069,781025,37,Man
98,257784,DepthScenes,duration_manipulation_targetAtFixation,jsons/v1_VE1000_randls_4.json,http://54.235.29.9/FacialAge/BNav_EC2/DepthDuration/v2_depth_duration_MTurk/v2_DepthDuration_HTML.html#301,301,1440,789,1440,900,9-18-2022,12-13-11,99,depth_duration_stimuli/001540_2014-06-20_17-01-05_260595134347_rgbf000086-resize_2/001540_2014-06-20_17-01-05_260595134347_rgbf000086-resize-original.jpg,1000,1.459,0,3393,1001,meters,jsons/v1_VE1000_randls_4.json,632069,781025,37,Man
99,257784,DepthScenes,duration_manipulation_targetAtFixation,jsons/v1_VE1000_randls_4.json,http://54.235.29.9/FacialAge/BNav_EC2/DepthDuration/v2_depth_duration_MTurk/v2_DepthDuration_HTML.html#301,301,1440,789,1440,900,9-18-2022,12-13-11,100,depth_duration_stimuli/001029_2014-06-08_13-17-57_260595134347_rgbf000065-resize_1/001029_2014-06-08_13-17-57_260595134347_rgbf000065-resize_1-target.png,1000,3.0835,1,31413,1000,meters,jsons/v1_VE1000_randls_4.json,632069,781025,37,Man
100,257784,DepthScenes,duration_manipulation_targetAtFixation,jsons/v1_VE1000_randls_4.json,http://54.235.29.9/FacialAge/BNav_EC2/DepthDuration/v2_depth_duration_MTurk/v2_DepthDuration_HTML.html#301,301,1440,789,1440,900,9-18-2022,12-13-11,101,depth_duration_stimuli/000677_2014-06-08_23-10-32_260595134347_rgbf000158-resize_6/000677_2014-06-08_23-10-32_260595134347_rgbf000158-resize_6-target.png,1000,3.556,1,3929,999,meters,jsons/v1_VE1000_randls_4.json,632069,781025,37,Man
101,257784,DepthScenes,duration_manipulation_targetAtFixation,jsons/v1_VE1000_randls_4.json,http://54.235.29.9/FacialAge/BNav_EC2/DepthDuration/v2_depth_duration_MTurk/v2_DepthDuration_HTML.html#301,301,1440,789,1440,900,9-18-2022,12-13-11,102,depth_duration_stimuli/001055_2014-06-08_18-45-35_260595134347_rgbf000111-resize_4/001055_2014-06-08_18-45-35_260595134347_rgbf000111-resize_4-target.png,1000,2.4290000000000003,1,4753,1000,meters,jsons/v1_VE1000_randls_4.json,632069,781025,37,Man
102,257784,DepthScenes,duration_manipulation_targetAtFixation,jsons/v1_VE1000_randls_4.json,http://54.235.29.9/FacialAge/BNav_EC2/DepthDuration/v2_depth_duration_MTurk/v2_DepthDuration_HTML.html#301,301,1440,789,1440,900,9-18-2022,12-13-11,103,depth_duration_stimuli/000549_2014-06-08_22-10-24_260595134347_rgbf000247-resize_3/000549_2014-06-08_22-10-24_260595134347_rgbf000247-resize_3-target.png,1000,1.841,1,3273,999,meters,jsons/v1_VE1000_randls_4.json,632069,781025,37,Man
103,257784,DepthScenes,duration_manipulation_targetAtFixation,jsons/v1_VE1000_randls_4.json,http://54.235.29.9/FacialAge/BNav_EC2/DepthDuration/v2_depth_duration_MTurk/v2_DepthDuration_HTML.html#301,301,1440,789,1440,900,9-18-2022,12-13-11,104,depth_duration_stimuli/001808_2014-06-26_20-50-58_260595134347_rgbf000029-resize_1/001808_2014-06-26_20-50-58_260595134347_rgbf000029-resize_1-target.png,1000,4.249,1,3212,998,meters,jsons/v1_VE1000_randls_4.json,632069,781025,37,Man
104,257784,DepthScenes,duration_manipulation_targetAtFixation,jsons/v1_VE1000_randls_4.json,http://54.235.29.9/FacialAge/BNav_EC2/DepthDuration/v2_depth_duration_MTurk/v2_DepthDuration_HTML.html#301,301,1440,789,1440,900,9-18-2022,12-13-11,105,depth_duration_stimuli/001815_2014-06-26_20-52-55_260595134347_rgbf000020-resize_0/001815_2014-06-26_20-52-55_260595134347_rgbf000020-resize_0-target.png,1000,3.3865,1,2634,1000,meters,jsons/v1_VE1000_randls_4.json,632069,781025,37,Man
105,257784,DepthScenes,duration_manipulation_targetAtFixation,jsons/v1_VE1000_randls_4.json,http://54.235.29.9/FacialAge/BNav_EC2/DepthDuration/v2_depth_duration_MTurk/v2_DepthDuration_HTML.html#301,301,1440,789,1440,900,9-18-2022,12-13-11,106,depth_duration_stimuli/001092_2014-06-15_17-34-58_260595134347_rgbf000171-resize_3/001092_2014-06-15_17-34-58_260595134347_rgbf000171-resize_3-target.png,1000,2.6935,1,2779,1000,meters,jsons/v1_VE1000_randls_4.json,632069,781025,37,Man
106,257784,DepthScenes,duration_manipulation_targetAtFixation,jsons/v1_VE1000_randls_4.json,http://54.235.29.9/FacialAge/BNav_EC2/DepthDuration/v2_depth_duration_MTurk/v2_DepthDuration_HTML.html#301,301,1440,789,1440,900,9-18-2022,12-13-11,107,depth_duration_stimuli/002545_2014-06-24_13-38-53_094959634447_rgbf000080-resize_4/002545_2014-06-24_13-38-53_094959634447_rgbf000080-resize_4-target.png,1000,1.9205,1,2830,1000,meters,jsons/v1_VE1000_randls_4.json,632069,781025,37,Man
107,257784,DepthScenes,duration_manipulation_targetAtFixation,jsons/v1_VE1000_randls_4.json,http://54.235.29.9/FacialAge/BNav_EC2/DepthDuration/v2_depth_duration_MTurk/v2_DepthDuration_HTML.html#301,301,1440,789,1440,900,9-18-2022,12-13-11,108,depth_duration_stimuli/001806_2014-06-26_20-50-20_260595134347_rgbf000091-resize_1/001806_2014-06-26_20-50-20_260595134347_rgbf000091-resize_1-target.png,1000,2.7305,1,3196,1000,meters,jsons/v1_VE1000_randls_4.json,632069,781025,37,Man
108,257784,DepthScenes,duration_manipulation_targetAtFixation,jsons/v1_VE1000_randls_4.json,http://54.235.29.9/FacialAge/BNav_EC2/DepthDuration/v2_depth_duration_MTurk/v2_DepthDuration_HTML.html#301,301,1440,789,1440,900,9-18-2022,12-13-11,109,depth_duration_stimuli/001617_2014-06-20_11-35-32_260595134347_rgbf000066-resize_1/001617_2014-06-20_11-35-32_260595134347_rgbf000066-resize_1-target.png,1000,3.7910000000000004,1,3073,1000,meters,jsons/v1_VE1000_randls_4.json,632069,781025,37,Man
109,257784,DepthScenes,duration_manipulation_targetAtFixation,jsons/v1_VE1000_randls_4.json,http://54.235.29.9/FacialAge/BNav_EC2/DepthDuration/v2_depth_duration_MTurk/v2_DepthDuration_HTML.html#301,301,1440,789,1440,900,9-18-2022,12-13-11,110,depth_duration_stimuli/001175_2014-06-17_15-45-55_260595134347_rgbf000129-resize_4/001175_2014-06-17_15-45-55_260595134347_rgbf000129-resize_4-target.png,1000,4.255,1,2973,1000,meters,jsons/v1_VE1000_randls_4.json,632069,781025,37,Man
110,257784,DepthScenes,duration_manipulation_targetAtFixation,jsons/v1_VE1000_randls_4.json,http://54.235.29.9/FacialAge/BNav_EC2/DepthDuration/v2_depth_duration_MTurk/v2_DepthDuration_HTML.html#301,301,1440,789,1440,900,9-18-2022,12-13-11,111,depth_duration_stimuli/003490_2014-05-21_15-50-11_094959634447_rgbf000101-resize_3/003490_2014-05-21_15-50-11_094959634447_rgbf000101-resize_3-target.png,1000,3.6445,1,3108,1000,meters,jsons/v1_VE1000_randls_4.json,632069,781025,37,Man
111,257784,DepthScenes,duration_manipulation_targetAtFixation,jsons/v1_VE1000_randls_4.json,http://54.235.29.9/FacialAge/BNav_EC2/DepthDuration/v2_depth_duration_MTurk/v2_DepthDuration_HTML.html#301,301,1440,789,1440,900,9-18-2022,12-13-11,112,depth_duration_stimuli/001167_2014-06-17_15-38-07_260595134347_rgbf000108-resize_0/001167_2014-06-17_15-38-07_260595134347_rgbf000108-resize_0-target.png,1000,1.8505,1,3267,1000,meters,jsons/v1_VE1000_randls_4.json,632069,781025,37,Man
112,257784,DepthScenes,duration_manipulation_targetAtFixation,jsons/v1_VE1000_randls_4.json,http://54.235.29.9/FacialAge/BNav_EC2/DepthDuration/v2_depth_duration_MTurk/v2_DepthDuration_HTML.html#301,301,1440,789,1440,900,9-18-2022,12-13-11,113,depth_duration_stimuli/003587_2014-05-23_16-48-02_094959634447_rgbf002384-resize_2/003587_2014-05-23_16-48-02_094959634447_rgbf002384-resize_2-target.png,1000,1.357,1,3523,1000,meters,jsons/v1_VE1000_randls_4.json,632069,781025,37,Man
113,257784,DepthScenes,duration_manipulation_targetAtFixation,jsons/v1_VE1000_randls_4.json,http://54.235.29.9/FacialAge/BNav_EC2/DepthDuration/v2_depth_duration_MTurk/v2_DepthDuration_HTML.html#301,301,1440,789,1440,900,9-18-2022,12-13-11,114,depth_duration_stimuli/000917_2014-06-09_22-45-29_260595134347_rgbf000149-resize_3/000917_2014-06-09_22-45-29_260595134347_rgbf000149-resize_3-target.png,1000,4.1865,1,2833,1000,meters,jsons/v1_VE1000_randls_4.json,632069,781025,37,Man
114,257784,DepthScenes,duration_manipulation_targetAtFixation,jsons/v1_VE1000_randls_4.json,http://54.235.29.9/FacialAge/BNav_EC2/DepthDuration/v2_depth_duration_MTurk/v2_DepthDuration_HTML.html#301,301,1440,789,1440,900,9-18-2022,12-13-11,115,depth_duration_stimuli/002323_2014-06-28_20-01-54_260595134347_rgbf000051-resize_4/002323_2014-06-28_20-01-54_260595134347_rgbf000051-resize_4-target.png,1000,3.7310000000000003,1,2909,998,meters,jsons/v1_VE1000_randls_4.json,632069,781025,37,Man
115,257784,DepthScenes,duration_manipulation_targetAtFixation,jsons/v1_VE1000_randls_4.json,http://54.235.29.9/FacialAge/BNav_EC2/DepthDuration/v2_depth_duration_MTurk/v2_DepthDuration_HTML.html#301,301,1440,789,1440,900,9-18-2022,12-13-11,116,depth_duration_stimuli/001170_2014-06-17_15-43-44_260595134347_rgbf000096-resize_6/001170_2014-06-17_15-43-44_260595134347_rgbf000096-resize-original.jpg,1000,1.1909999999999998,0,2786,1000,meters,jsons/v1_VE1000_randls_4.json,632069,781025,37,Man
116,257784,DepthScenes,duration_manipulation_targetAtFixation,jsons/v1_VE1000_randls_4.json,http://54.235.29.9/FacialAge/BNav_EC2/DepthDuration/v2_depth_duration_MTurk/v2_DepthDuration_HTML.html#301,301,1440,789,1440,900,9-18-2022,12-13-11,117,depth_duration_stimuli/002988_2014-06-15_12-24-20_094959634447_rgbf000150-resize_1/002988_2014-06-15_12-24-20_094959634447_rgbf000150-resize_1-target.png,1000,4.7669999999999995,1,2816,1001,meters,jsons/v1_VE1000_randls_4.json,632069,781025,37,Man
117,257784,DepthScenes,duration_manipulation_targetAtFixation,jsons/v1_VE1000_randls_4.json,http://54.235.29.9/FacialAge/BNav_EC2/DepthDuration/v2_depth_duration_MTurk/v2_DepthDuration_HTML.html#301,301,1440,789,1440,900,9-18-2022,12-13-11,118,depth_duration_stimuli/001052_2014-06-08_18-24-54_260595134347_rgbf000130-resize_1/001052_2014-06-08_18-24-54_260595134347_rgbf000130-resize_1-target.png,1000,4.1045,1,2747,1001,meters,jsons/v1_VE1000_randls_4.json,632069,781025,37,Man
118,257784,DepthScenes,duration_manipulation_targetAtFixation,jsons/v1_VE1000_randls_4.json,http://54.235.29.9/FacialAge/BNav_EC2/DepthDuration/v2_depth_duration_MTurk/v2_DepthDuration_HTML.html#301,301,1440,789,1440,900,9-18-2022,12-13-11,119,depth_duration_stimuli/000810_2014-06-08_17-20-01_260595134347_rgbf000105-resize_0/000810_2014-06-08_17-20-01_260595134347_rgbf000105-resize_0-target.png,1000,1.4865,1,3494,1001,meters,jsons/v1_VE1000_randls_4.json,632069,781025,37,Man
119,257784,DepthScenes,duration_manipulation_targetAtFixation,jsons/v1_VE1000_randls_4.json,http://54.235.29.9/FacialAge/BNav_EC2/DepthDuration/v2_depth_duration_MTurk/v2_DepthDuration_HTML.html#301,301,1440,789,1440,900,9-18-2022,12-13-11,120,depth_duration_stimuli/001214_2014-06-17_16-13-55_260595134347_rgbf000111-resize_0/001214_2014-06-17_16-13-55_260595134347_rgbf000111-resize_0-target.png,1000,2.6505,1,2755,1000,meters,jsons/v1_VE1000_randls_4.json,632069,781025,37,Man
120,257784,DepthScenes,duration_manipulation_targetAtFixation,jsons/v1_VE1000_randls_4.json,http://54.235.29.9/FacialAge/BNav_EC2/DepthDuration/v2_depth_duration_MTurk/v2_DepthDuration_HTML.html#301,301,1440,789,1440,900,9-18-2022,12-13-11,121,depth_duration_stimuli/000929_2014-06-09_16-33-19_260595134347_rgbf000139-resize_0/000929_2014-06-09_16-33-19_260595134347_rgbf000139-resize_0-target.png,1000,2.8680000000000003,1,2598,999,meters,jsons/v1_VE1000_randls_4.json,632069,781025,37,Man
121,257784,DepthScenes,duration_manipulation_targetAtFixation,jsons/v1_VE1000_randls_4.json,http://54.235.29.9/FacialAge/BNav_EC2/DepthDuration/v2_depth_duration_MTurk/v2_DepthDuration_HTML.html#301,301,1440,789,1440,900,9-18-2022,12-13-11,122,depth_duration_stimuli/000457_2014-06-08_16-52-43_260595134347_rgbf000199-resize_1/000457_2014-06-08_16-52-43_260595134347_rgbf000199-resize_1-target.png,1000,3.6489999999999996,1,2641,999,meters,jsons/v1_VE1000_randls_4.json,632069,781025,37,Man
122,257784,DepthScenes,duration_manipulation_targetAtFixation,jsons/v1_VE1000_randls_4.json,http://54.235.29.9/FacialAge/BNav_EC2/DepthDuration/v2_depth_duration_MTurk/v2_DepthDuration_HTML.html#301,301,1440,789,1440,900,9-18-2022,12-13-11,123,depth_duration_stimuli/000773_2014-06-08_22-24-54_260595134347_rgbf000093-resize_1/000773_2014-06-08_22-24-54_260595134347_rgbf000093-resize_1-target.png,1000,4.973,1,3059,1000,meters,jsons/v1_VE1000_randls_4.json,632069,781025,37,Man
123,257784,DepthScenes,duration_manipulation_targetAtFixation,jsons/v1_VE1000_randls_4.json,http://54.235.29.9/FacialAge/BNav_EC2/DepthDuration/v2_depth_duration_MTurk/v2_DepthDuration_HTML.html#301,301,1440,789,1440,900,9-18-2022,12-13-11,124,depth_duration_stimuli/002414_2014-06-28_20-24-58_260595134347_rgbf000067-resize_4/002414_2014-06-28_20-24-58_260595134347_rgbf000067-resize_4-target.png,1000,4.363,1,2672,1000,meters,jsons/v1_VE1000_randls_4.json,632069,781025,37,Man
124,257784,DepthScenes,duration_manipulation_targetAtFixation,jsons/v1_VE1000_randls_4.json,http://54.235.29.9/FacialAge/BNav_EC2/DepthDuration/v2_depth_duration_MTurk/v2_DepthDuration_HTML.html#301,301,1440,789,1440,900,9-18-2022,12-13-11,125,depth_duration_stimuli/002788_2014-06-22_19-36-03_094959634447_rgbf000088-resize_2/002788_2014-06-22_19-36-03_094959634447_rgbf000088-resize_2-target.png,1000,1.6465,1,2641,1000,meters,jsons/v1_VE1000_randls_4.json,632069,781025,37,Man
125,257784,DepthScenes,duration_manipulation_targetAtFixation,jsons/v1_VE1000_randls_4.json,http://54.235.29.9/FacialAge/BNav_EC2/DepthDuration/v2_depth_duration_MTurk/v2_DepthDuration_HTML.html#301,301,1440,789,1440,900,9-18-2022,12-13-11,126,depth_duration_stimuli/000749_2014-06-08_21-55-06_260595134347_rgbf000070-resize_2/000749_2014-06-08_21-55-06_260595134347_rgbf000070-resize_2-target.png,1000,2.331,1,2871,1004,meters,jsons/v1_VE1000_randls_4.json,632069,781025,37,Man
126,257784,DepthScenes,duration_manipulation_targetAtFixation,jsons/v1_VE1000_randls_4.json,http://54.235.29.9/FacialAge/BNav_EC2/DepthDuration/v2_depth_duration_MTurk/v2_DepthDuration_HTML.html#301,301,1440,789,1440,900,9-18-2022,12-13-11,127,depth_duration_stimuli/000470_2014-06-09_19-42-40_260595134347_rgbf000094-resize_1/000470_2014-06-09_19-42-40_260595134347_rgbf000094-resize_1-target.png,1000,1.831,1,2922,999,meters,jsons/v1_VE1000_randls_4.json,632069,781025,37,Man
127,257784,DepthScenes,duration_manipulation_targetAtFixation,jsons/v1_VE1000_randls_4.json,http://54.235.29.9/FacialAge/BNav_EC2/DepthDuration/v2_depth_duration_MTurk/v2_DepthDuration_HTML.html#301,301,1440,789,1440,900,9-18-2022,12-13-11,128,depth_duration_stimuli/000109_2014-05-14_23-41-52_260595134347_rgbf000035-resize_9/000109_2014-05-14_23-41-52_260595134347_rgbf000035-resize_9-target.png,1000,1.3545,1,3161,999,meters,jsons/v1_VE1000_randls_4.json,632069,781025,37,Man
128,257784,DepthScenes,duration_manipulation_targetAtFixation,jsons/v1_VE1000_randls_4.json,http://54.235.29.9/FacialAge/BNav_EC2/DepthDuration/v2_depth_duration_MTurk/v2_DepthDuration_HTML.html#301,301,1440,789,1440,900,9-18-2022,12-13-11,129,depth_duration_stimuli/002570_2014-06-24_13-59-54_094959634447_rgbf000059-resize_0/002570_2014-06-24_13-59-54_094959634447_rgbf000059-resize_0-target.png,1000,4.037,1,2699,1002,meters,jsons/v1_VE1000_randls_4.json,632069,781025,37,Man
129,257784,DepthScenes,duration_manipulation_targetAtFixation,jsons/v1_VE1000_randls_4.json,http://54.235.29.9/FacialAge/BNav_EC2/DepthDuration/v2_depth_duration_MTurk/v2_DepthDuration_HTML.html#301,301,1440,789,1440,900,9-18-2022,12-13-11,130,depth_duration_stimuli/002467_2014-06-28_20-38-07_260595134347_rgbf000026-resize_2/002467_2014-06-28_20-38-07_260595134347_rgbf000026-resize_2-target.png,1000,4.742,1,2795,1000,meters,jsons/v1_VE1000_randls_4.json,632069,781025,37,Man
130,257784,DepthScenes,duration_manipulation_targetAtFixation,jsons/v1_VE1000_randls_4.json,http://54.235.29.9/FacialAge/BNav_EC2/DepthDuration/v2_depth_duration_MTurk/v2_DepthDuration_HTML.html#301,301,1440,789,1440,900,9-18-2022,12-13-11,131,depth_duration_stimuli/002039_2014-06-24_20-22-38_260595134347_rgbf000084-resize_1/002039_2014-06-24_20-22-38_260595134347_rgbf000084-resize_1-target.png,1000,4.408,1,3300,1001,meters,jsons/v1_VE1000_randls_4.json,632069,781025,37,Man
131,257784,DepthScenes,duration_manipulation_targetAtFixation,jsons/v1_VE1000_randls_4.json,http://54.235.29.9/FacialAge/BNav_EC2/DepthDuration/v2_depth_duration_MTurk/v2_DepthDuration_HTML.html#301,301,1440,789,1440,900,9-18-2022,12-13-11,132,depth_duration_stimuli/002103_2014-06-25_20-00-40_260595134347_rgbf000049-resize_0/002103_2014-06-25_20-00-40_260595134347_rgbf000049-resize_0-target.png,1000,4.105,1,3030,976,meters,jsons/v1_VE1000_randls_4.json,632069,781025,37,Man
132,257784,DepthScenes,duration_manipulation_targetAtFixation,jsons/v1_VE1000_randls_4.json,http://54.235.29.9/FacialAge/BNav_EC2/DepthDuration/v2_depth_duration_MTurk/v2_DepthDuration_HTML.html#301,301,1440,789,1440,900,9-18-2022,12-13-11,133,depth_duration_stimuli/000522_2014-06-08_13-35-06_260595134347_rgbf000244-resize_1/000522_2014-06-08_13-35-06_260595134347_rgbf000244-resize_1-target.png,1000,2.3715,1,3384,999,meters,jsons/v1_VE1000_randls_4.json,632069,781025,37,Man
133,257784,DepthScenes,duration_manipulation_targetAtFixation,jsons/v1_VE1000_randls_4.json,http://54.235.29.9/FacialAge/BNav_EC2/DepthDuration/v2_depth_duration_MTurk/v2_DepthDuration_HTML.html#301,301,1440,789,1440,900,9-18-2022,12-13-11,134,depth_duration_stimuli/002949_2014-06-26_15-57-42_094959634447_rgbf000079-resize_1/002949_2014-06-26_15-57-42_094959634447_rgbf000079-resize_1-target.png,1000,1.8915,1,2921,1000,meters,jsons/v1_VE1000_randls_4.json,632069,781025,37,Man
134,257784,DepthScenes,duration_manipulation_targetAtFixation,jsons/v1_VE1000_randls_4.json,http://54.235.29.9/FacialAge/BNav_EC2/DepthDuration/v2_depth_duration_MTurk/v2_DepthDuration_HTML.html#301,301,1440,789,1440,900,9-18-2022,12-13-11,135,depth_duration_stimuli/002072_2014-06-24_21-48-06_260595134347_rgbf000115-resize_0/002072_2014-06-24_21-48-06_260595134347_rgbf000115-resize-original.jpg,1000,4.702,0,2906,1001,meters,jsons/v1_VE1000_randls_4.json,632069,781025,37,Man
135,257784,DepthScenes,duration_manipulation_targetAtFixation,jsons/v1_VE1000_randls_4.json,http://54.235.29.9/FacialAge/BNav_EC2/DepthDuration/v2_depth_duration_MTurk/v2_DepthDuration_HTML.html#301,301,1440,789,1440,900,9-18-2022,12-13-11,136,depth_duration_stimuli/003492_2014-05-21_15-50-55_094959634447_rgbf000828-resize_1/003492_2014-05-21_15-50-55_094959634447_rgbf000828-resize_1-target.png,1000,4.06875,1,2740,999,meters,jsons/v1_VE1000_randls_4.json,632069,781025,37,Man
136,257784,DepthScenes,duration_manipulation_targetAtFixation,jsons/v1_VE1000_randls_4.json,http://54.235.29.9/FacialAge/BNav_EC2/DepthDuration/v2_depth_duration_MTurk/v2_DepthDuration_HTML.html#301,301,1440,789,1440,900,9-18-2022,12-13-11,137,depth_duration_stimuli/002568_2014-06-24_13-59-21_094959634447_rgbf000062-resize_4/002568_2014-06-24_13-59-21_094959634447_rgbf000062-resize_4-target.png,1000,3.015,1,2817,999,meters,jsons/v1_VE1000_randls_4.json,632069,781025,37,Man
137,257784,DepthScenes,duration_manipulation_targetAtFixation,jsons/v1_VE1000_randls_4.json,http://54.235.29.9/FacialAge/BNav_EC2/DepthDuration/v2_depth_duration_MTurk/v2_DepthDuration_HTML.html#301,301,1440,789,1440,900,9-18-2022,12-13-11,138,depth_duration_stimuli/002153_2014-06-25_21-27-18_260595134347_rgbf000038-resize_5/002153_2014-06-25_21-27-18_260595134347_rgbf000038-resize_5-target.png,1000,2.505,1,3587,1001,meters,jsons/v1_VE1000_randls_4.json,632069,781025,37,Man
138,257784,DepthScenes,duration_manipulation_targetAtFixation,jsons/v1_VE1000_randls_4.json,http://54.235.29.9/FacialAge/BNav_EC2/DepthDuration/v2_depth_duration_MTurk/v2_DepthDuration_HTML.html#301,301,1440,789,1440,900,9-18-2022,12-13-11,139,depth_duration_stimuli/002660_2014-06-13_15-44-18_094959634447_rgbf001878-resize_2/002660_2014-06-13_15-44-18_094959634447_rgbf001878-resize_2-target.png,1000,3.576,1,2750,1000,meters,jsons/v1_VE1000_randls_4.json,632069,781025,37,Man
139,257784,DepthScenes,duration_manipulation_targetAtFixation,jsons/v1_VE1000_randls_4.json,http://54.235.29.9/FacialAge/BNav_EC2/DepthDuration/v2_depth_duration_MTurk/v2_DepthDuration_HTML.html#301,301,1440,789,1440,900,9-18-2022,12-13-11,140,depth_duration_stimuli/002784_2014-06-22_19-26-30_094959634447_rgbf000083-resize_3/002784_2014-06-22_19-26-30_094959634447_rgbf000083-resize_3-target.png,1000,1.8046666666667,1,3857,1000,meters,jsons/v1_VE1000_randls_4.json,632069,781025,37,Man
140,257784,DepthScenes,duration_manipulation_targetAtFixation,jsons/v1_VE1000_randls_4.json,http://54.235.29.9/FacialAge/BNav_EC2/DepthDuration/v2_depth_duration_MTurk/v2_DepthDuration_HTML.html#301,301,1440,789,1440,900,9-18-2022,12-13-11,141,depth_duration_stimuli/001100_2014-06-15_17-46-26_260595134347_rgbf000225-resize_2/001100_2014-06-15_17-46-26_260595134347_rgbf000225-resize_2-target.png,1000,2.24,1,2699,1000,meters,jsons/v1_VE1000_randls_4.json,632069,781025,37,Man
141,257784,DepthScenes,duration_manipulation_targetAtFixation,jsons/v1_VE1000_randls_4.json,http://54.235.29.9/FacialAge/BNav_EC2/DepthDuration/v2_depth_duration_MTurk/v2_DepthDuration_HTML.html#301,301,1440,789,1440,900,9-18-2022,12-13-11,142,depth_duration_stimuli/001810_2014-06-26_20-51-35_260595134347_rgbf000040-resize_3/001810_2014-06-26_20-51-35_260595134347_rgbf000040-resize_3-target.png,1000,2.2525,1,2915,1000,meters,jsons/v1_VE1000_randls_4.json,632069,781025,37,Man
142,257784,DepthScenes,duration_manipulation_targetAtFixation,jsons/v1_VE1000_randls_4.json,http://54.235.29.9/FacialAge/BNav_EC2/DepthDuration/v2_depth_duration_MTurk/v2_DepthDuration_HTML.html#301,301,1440,789,1440,900,9-18-2022,12-13-11,143,depth_duration_stimuli/003010_2014-06-15_12-54-35_094959634447_rgbf000112-resize_0/003010_2014-06-15_12-54-35_094959634447_rgbf000112-resize_0-target.png,1000,3.1185,1,2681,1001,meters,jsons/v1_VE1000_randls_4.json,632069,781025,37,Man
143,257784,DepthScenes,duration_manipulation_targetAtFixation,jsons/v1_VE1000_randls_4.json,http://54.235.29.9/FacialAge/BNav_EC2/DepthDuration/v2_depth_duration_MTurk/v2_DepthDuration_HTML.html#301,301,1440,789,1440,900,9-18-2022,12-13-11,144,depth_duration_stimuli/001059_2014-06-08_21-53-27_260595134347_rgbf000061-resize_4/001059_2014-06-08_21-53-27_260595134347_rgbf000061-resize_4-target.png,1000,2.4185,1,2791,1000,meters,jsons/v1_VE1000_randls_4.json,632069,781025,37,Man
144,257784,DepthScenes,duration_manipulation_targetAtFixation,jsons/v1_VE1000_randls_4.json,http://54.235.29.9/FacialAge/BNav_EC2/DepthDuration/v2_depth_duration_MTurk/v2_DepthDuration_HTML.html#301,301,1440,789,1440,900,9-18-2022,12-13-11,145,depth_duration_stimuli/001032_2014-06-08_13-23-17_260595134347_rgbf000021-resize_3/001032_2014-06-08_13-23-17_260595134347_rgbf000021-resize_3-target.png,1000,3.2725,1,3164,1000,meters,jsons/v1_VE1000_randls_4.json,632069,781025,37,Man
145,257784,DepthScenes,duration_manipulation_targetAtFixation,jsons/v1_VE1000_randls_4.json,http://54.235.29.9/FacialAge/BNav_EC2/DepthDuration/v2_depth_duration_MTurk/v2_DepthDuration_HTML.html#301,301,1440,789,1440,900,9-18-2022,12-13-11,146,depth_duration_stimuli/001498_2014-06-19_17-45-14_260595134347_rgbf000129-resize_4/001498_2014-06-19_17-45-14_260595134347_rgbf000129-resize-original.jpg,1000,1.4075,0,2747,1000,meters,jsons/v1_VE1000_randls_4.json,632069,781025,37,Man
146,257784,DepthScenes,duration_manipulation_targetAtFixation,jsons/v1_VE1000_randls_4.json,http://54.235.29.9/FacialAge/BNav_EC2/DepthDuration/v2_depth_duration_MTurk/v2_DepthDuration_HTML.html#301,301,1440,789,1440,900,9-18-2022,12-13-11,147,depth_duration_stimuli/000368_2014-06-09_15-53-01_260595134347_rgbf000155-resize_2/000368_2014-06-09_15-53-01_260595134347_rgbf000155-resize_2-target.png,1000,2.4859999999999998,1,4489,999,meters,jsons/v1_VE1000_randls_4.json,632069,781025,37,Man
147,257784,DepthScenes,duration_manipulation_targetAtFixation,jsons/v1_VE1000_randls_4.json,http://54.235.29.9/FacialAge/BNav_EC2/DepthDuration/v2_depth_duration_MTurk/v2_DepthDuration_HTML.html#301,301,1440,789,1440,900,9-18-2022,12-13-11,148,depth_duration_stimuli/002678_2014-06-13_16-15-32_094959634447_rgbf000151-resize_6/002678_2014-06-13_16-15-32_094959634447_rgbf000151-resize_6-target.png,1000,2.1830000000000003,1,2998,1000,meters,jsons/v1_VE1000_randls_4.json,632069,781025,37,Man
148,257784,DepthScenes,duration_manipulation_targetAtFixation,jsons/v1_VE1000_randls_4.json,http://54.235.29.9/FacialAge/BNav_EC2/DepthDuration/v2_depth_duration_MTurk/v2_DepthDuration_HTML.html#301,301,1440,789,1440,900,9-18-2022,12-13-11,149,depth_duration_stimuli/001555_2014-06-20_17-12-10_260595134347_rgbf000065-resize_4/001555_2014-06-20_17-12-10_260595134347_rgbf000065-resize_4-target.png,1000,1.633,1,2732,999,meters,jsons/v1_VE1000_randls_4.json,632069,781025,37,Man
149,257784,DepthScenes,duration_manipulation_targetAtFixation,jsons/v1_VE1000_randls_4.json,http://54.235.29.9/FacialAge/BNav_EC2/DepthDuration/v2_depth_duration_MTurk/v2_DepthDuration_HTML.html#301,301,1440,789,1440,900,9-18-2022,12-13-11,150,depth_duration_stimuli/000103_2014-05-14_22-01-17_260595134347_rgbf000152-resize_5/000103_2014-05-14_22-01-17_260595134347_rgbf000152-resize_5-target.png,1000,1.993,1,2597,999,meters,jsons/v1_VE1000_randls_4.json,632069,781025,37,Man
150,257784,DepthScenes,duration_manipulation_targetAtFixation,jsons/v1_VE1000_randls_4.json,http://54.235.29.9/FacialAge/BNav_EC2/DepthDuration/v2_depth_duration_MTurk/v2_DepthDuration_HTML.html#301,301,1440,789,1440,900,9-18-2022,12-13-11,151,depth_duration_stimuli/001066_2014-06-08_22-03-20_260595134347_rgbf000066-resize_4/001066_2014-06-08_22-03-20_260595134347_rgbf000066-resize_4-target.png,1000,4.2330000000000005,1,2856,999,meters,jsons/v1_VE1000_randls_4.json,632069,781025,37,Man
151,257784,DepthScenes,duration_manipulation_targetAtFixation,jsons/v1_VE1000_randls_4.json,http://54.235.29.9/FacialAge/BNav_EC2/DepthDuration/v2_depth_duration_MTurk/v2_DepthDuration_HTML.html#301,301,1440,789,1440,900,9-18-2022,12-13-11,152,depth_duration_stimuli/000742_2014-06-08_18-48-09_260595134347_rgbf000164-resize_4/000742_2014-06-08_18-48-09_260595134347_rgbf000164-resize_4-target.png,1000,4.632,1,2714,999,meters,jsons/v1_VE1000_randls_4.json,632069,781025,37,Man
152,257784,DepthScenes,duration_manipulation_targetAtFixation,jsons/v1_VE1000_randls_4.json,http://54.235.29.9/FacialAge/BNav_EC2/DepthDuration/v2_depth_duration_MTurk/v2_DepthDuration_HTML.html#301,301,1440,789,1440,900,9-18-2022,12-13-11,153,depth_duration_stimuli/001110_2014-06-15_17-25-28_260595134347_rgbf000150-resize_1/001110_2014-06-15_17-25-28_260595134347_rgbf000150-resize_1-target.png,1000,1.7115,1,3413,995,meters,jsons/v1_VE1000_randls_4.json,632069,781025,37,Man
153,257784,DepthScenes,duration_manipulation_targetAtFixation,jsons/v1_VE1000_randls_4.json,http://54.235.29.9/FacialAge/BNav_EC2/DepthDuration/v2_depth_duration_MTurk/v2_DepthDuration_HTML.html#301,301,1440,789,1440,900,9-18-2022,12-13-11,154,depth_duration_stimuli/000927_2014-06-09_16-32-30_260595134347_rgbf000123-resize_3/000927_2014-06-09_16-32-30_260595134347_rgbf000123-resize_3-target.png,1000,2.6785,1,2781,1001,meters,jsons/v1_VE1000_randls_4.json,632069,781025,37,Man
154,257784,DepthScenes,duration_manipulation_targetAtFixation,jsons/v1_VE1000_randls_4.json,http://54.235.29.9/FacialAge/BNav_EC2/DepthDuration/v2_depth_duration_MTurk/v2_DepthDuration_HTML.html#301,301,1440,789,1440,900,9-18-2022,12-13-11,155,depth_duration_stimuli/003292_2014-05-14_21-53-49_094959634447_rgbf000100-resize_2/003292_2014-05-14_21-53-49_094959634447_rgbf000100-resize_2-target.png,1000,3.4815,1,2570,1000,meters,jsons/v1_VE1000_randls_4.json,632069,781025,37,Man
155,257784,DepthScenes,duration_manipulation_targetAtFixation,jsons/v1_VE1000_randls_4.json,http://54.235.29.9/FacialAge/BNav_EC2/DepthDuration/v2_depth_duration_MTurk/v2_DepthDuration_HTML.html#301,301,1440,789,1440,900,9-18-2022,12-13-11,156,depth_duration_stimuli/002639_2014-06-24_14-51-37_094959634447_rgbf000074-resize_4/002639_2014-06-24_14-51-37_094959634447_rgbf000074-resize_4-target.png,1000,4.0375,1,3572,999,meters,jsons/v1_VE1000_randls_4.json,632069,781025,37,Man
156,257784,DepthScenes,duration_manipulation_targetAtFixation,jsons/v1_VE1000_randls_4.json,http://54.235.29.9/FacialAge/BNav_EC2/DepthDuration/v2_depth_duration_MTurk/v2_DepthDuration_HTML.html#301,301,1440,789,1440,900,9-18-2022,12-13-11,157,depth_duration_stimuli/002043_2014-06-24_20-29-38_260595134347_rgbf000039-resize_4/002043_2014-06-24_20-29-38_260595134347_rgbf000039-resize_4-target.png,1000,2.8435,1,2956,998,meters,jsons/v1_VE1000_randls_4.json,632069,781025,37,Man
157,257784,DepthScenes,duration_manipulation_targetAtFixation,jsons/v1_VE1000_randls_4.json,http://54.235.29.9/FacialAge/BNav_EC2/DepthDuration/v2_depth_duration_MTurk/v2_DepthDuration_HTML.html#301,301,1440,789,1440,900,9-18-2022,12-13-11,158,depth_duration_stimuli/003048_2014-06-15_13-49-43_094959634447_rgbf000150-resize_1/003048_2014-06-15_13-49-43_094959634447_rgbf000150-resize_1-target.png,1000,4.0035,1,2844,999,meters,jsons/v1_VE1000_randls_4.json,632069,781025,37,Man
158,257784,DepthScenes,duration_manipulation_targetAtFixation,jsons/v1_VE1000_randls_4.json,http://54.235.29.9/FacialAge/BNav_EC2/DepthDuration/v2_depth_duration_MTurk/v2_DepthDuration_HTML.html#301,301,1440,789,1440,900,9-18-2022,12-13-11,159,depth_duration_stimuli/000493_2014-06-09_21-01-18_260595134347_rgbf000196-resize_3/000493_2014-06-09_21-01-18_260595134347_rgbf000196-resize_3-target.png,1000,3.44,1,3445,1000,meters,jsons/v1_VE1000_randls_4.json,632069,781025,37,Man
159,257784,DepthScenes,duration_manipulation_targetAtFixation,jsons/v1_VE1000_randls_4.json,http://54.235.29.9/FacialAge/BNav_EC2/DepthDuration/v2_depth_duration_MTurk/v2_DepthDuration_HTML.html#301,301,1440,789,1440,900,9-18-2022,12-13-11,160,depth_duration_stimuli/000191_2014-05-12_17-07-38_260595134347_rgbf000199-resize_0/000191_2014-05-12_17-07-38_260595134347_rgbf000199-resize_0-target.png,1000,3.7995,1,2769,1000,meters,jsons/v1_VE1000_randls_4.json,632069,781025,37,Man
160,257784,DepthScenes,duration_manipulation_targetAtFixation,jsons/v1_VE1000_randls_4.json,http://54.235.29.9/FacialAge/BNav_EC2/DepthDuration/v2_depth_duration_MTurk/v2_DepthDuration_HTML.html#301,301,1440,789,1440,900,9-18-2022,12-13-11,161,depth_duration_stimuli/002549_2014-06-24_13-41-39_094959634447_rgbf000022-resize_3/002549_2014-06-24_13-41-39_094959634447_rgbf000022-resize_3-target.png,1000,1.476,1,3731,1001,meters,jsons/v1_VE1000_randls_4.json,632069,781025,37,Man
161,257784,DepthScenes,duration_manipulation_targetAtFixation,jsons/v1_VE1000_randls_4.json,http://54.235.29.9/FacialAge/BNav_EC2/DepthDuration/v2_depth_duration_MTurk/v2_DepthDuration_HTML.html#301,301,1440,789,1440,900,9-18-2022,12-13-11,162,depth_duration_stimuli/002750_2014-06-22_19-08-03_094959634447_rgbf000094-resize_4/002750_2014-06-22_19-08-03_094959634447_rgbf000094-resize_4-target.png,1000,2.354,1,2690,999,meters,jsons/v1_VE1000_randls_4.json,632069,781025,37,Man
162,257784,DepthScenes,duration_manipulation_targetAtFixation,jsons/v1_VE1000_randls_4.json,http://54.235.29.9/FacialAge/BNav_EC2/DepthDuration/v2_depth_duration_MTurk/v2_DepthDuration_HTML.html#301,301,1440,789,1440,900,9-18-2022,12-13-11,163,depth_duration_stimuli/001449_2014-06-19_17-01-27_260595134347_rgbf000116-resize_2/001449_2014-06-19_17-01-27_260595134347_rgbf000116-resize_2-target.png,1000,3.452,1,2826,998,meters,jsons/v1_VE1000_randls_4.json,632069,781025,37,Man
163,257784,DepthScenes,duration_manipulation_targetAtFixation,jsons/v1_VE1000_randls_4.json,http://54.235.29.9/FacialAge/BNav_EC2/DepthDuration/v2_depth_duration_MTurk/v2_DepthDuration_HTML.html#301,301,1440,789,1440,900,9-18-2022,12-13-11,164,depth_duration_stimuli/001450_2014-06-19_17-02-03_260595134347_rgbf000203-resize_4/001450_2014-06-19_17-02-03_260595134347_rgbf000203-resize_4-target.png,1000,4.0106666666667,1,2763,999,meters,jsons/v1_VE1000_randls_4.json,632069,781025,37,Man
