,subjID,experimentName,versionName,sequenceName,url,selected_row,windowWidth,windowHeight,screenWidth,screenHeight,startDate,startTime,trial,stimulus,duration,actual_depth,depth_estimate,trial_RT,log_sceneDuration,unitSelection,seq_filepath,experimentTime,totalTime,age,gender
0,258486,DepthScenes,duration_manipulation_targetAtFixation,jsons/VE125_randls_54.json,http://54.235.29.9/FacialAge/BNav_EC2/DepthDuration/v2_depth_duration_MTurk/v2_DepthDuration_HTML.html#15,15,1770,884,1920,1080,8-29-2022,9-48-8,1,depth_duration_stimuli/001066_2014-06-08_22-03-20_260595134347_rgbf000066-resize_4/001066_2014-06-08_22-03-20_260595134347_rgbf000066-resize_4-target.png,125,4.2330000000000005,6,2873,126,feet,jsons/VE125_randls_54.json,530750,941682,44,Woman
1,258486,DepthScenes,duration_manipulation_targetAtFixation,jsons/VE125_randls_54.json,http://54.235.29.9/FacialAge/BNav_EC2/DepthDuration/v2_depth_duration_MTurk/v2_DepthDuration_HTML.html#15,15,1770,884,1920,1080,8-29-2022,9-48-8,2,depth_duration_stimuli/000742_2014-06-08_18-48-09_260595134347_rgbf000164-resize_4/000742_2014-06-08_18-48-09_260595134347_rgbf000164-resize_4-target.png,125,4.632,6,2651,125,feet,jsons/VE125_randls_54.json,530750,941682,44,Woman
2,258486,DepthScenes,duration_manipulation_targetAtFixation,jsons/VE125_randls_54.json,http://54.235.29.9/FacialAge/BNav_EC2/DepthDuration/v2_depth_duration_MTurk/v2_DepthDuration_HTML.html#15,15,1770,884,1920,1080,8-29-2022,9-48-8,3,depth_duration_stimuli/002784_2014-06-22_19-26-30_094959634447_rgbf000083-resize_3/002784_2014-06-22_19-26-30_094959634447_rgbf000083-resize_3-target.png,125,1.8046666666667,3,2867,125,feet,jsons/VE125_randls_54.json,530750,941682,44,Woman
3,258486,DepthScenes,duration_manipulation_targetAtFixation,jsons/VE125_randls_54.json,http://54.235.29.9/FacialAge/BNav_EC2/DepthDuration/v2_depth_duration_MTurk/v2_DepthDuration_HTML.html#15,15,1770,884,1920,1080,8-29-2022,9-48-8,4,depth_duration_stimuli/001100_2014-06-15_17-46-26_260595134347_rgbf000225-resize_2/001100_2014-06-15_17-46-26_260595134347_rgbf000225-resize_2-target.png,125,2.24,2,2443,124,feet,jsons/VE125_randls_54.json,530750,941682,44,Woman
4,258486,DepthScenes,duration_manipulation_targetAtFixation,jsons/VE125_randls_54.json,http://54.235.29.9/FacialAge/BNav_EC2/DepthDuration/v2_depth_duration_MTurk/v2_DepthDuration_HTML.html#15,15,1770,884,1920,1080,8-29-2022,9-48-8,5,depth_duration_stimuli/002057_2014-06-24_21-00-13_260595134347_rgbf000120-resize_1/002057_2014-06-24_21-00-13_260595134347_rgbf000120-resize_1-target.png,125,2.967,7,2547,125,feet,jsons/VE125_randls_54.json,530750,941682,44,Woman
5,258486,DepthScenes,duration_manipulation_targetAtFixation,jsons/VE125_randls_54.json,http://54.235.29.9/FacialAge/BNav_EC2/DepthDuration/v2_depth_duration_MTurk/v2_DepthDuration_HTML.html#15,15,1770,884,1920,1080,8-29-2022,9-48-8,6,depth_duration_stimuli/000709_2014-06-08_13-51-55_260595134347_rgbf000068-resize_3/000709_2014-06-08_13-51-55_260595134347_rgbf000068-resize_3-target.png,125,1.8030000000000002,5,2603,126,feet,jsons/VE125_randls_54.json,530750,941682,44,Woman
6,258486,DepthScenes,duration_manipulation_targetAtFixation,jsons/VE125_randls_54.json,http://54.235.29.9/FacialAge/BNav_EC2/DepthDuration/v2_depth_duration_MTurk/v2_DepthDuration_HTML.html#15,15,1770,884,1920,1080,8-29-2022,9-48-8,7,depth_duration_stimuli/003292_2014-05-14_21-53-49_094959634447_rgbf000100-resize_2/003292_2014-05-14_21-53-49_094959634447_rgbf000100-resize_2-target.png,125,3.4815,0,7738,124,feet,jsons/VE125_randls_54.json,530750,941682,44,Woman
7,258486,DepthScenes,duration_manipulation_targetAtFixation,jsons/VE125_randls_54.json,http://54.235.29.9/FacialAge/BNav_EC2/DepthDuration/v2_depth_duration_MTurk/v2_DepthDuration_HTML.html#15,15,1770,884,1920,1080,8-29-2022,9-48-8,8,depth_duration_stimuli/002639_2014-06-24_14-51-37_094959634447_rgbf000074-resize_4/002639_2014-06-24_14-51-37_094959634447_rgbf000074-resize_4-target.png,125,4.0375,3,2499,124,feet,jsons/VE125_randls_54.json,530750,941682,44,Woman
8,258486,DepthScenes,duration_manipulation_targetAtFixation,jsons/VE125_randls_54.json,http://54.235.29.9/FacialAge/BNav_EC2/DepthDuration/v2_depth_duration_MTurk/v2_DepthDuration_HTML.html#15,15,1770,884,1920,1080,8-29-2022,9-48-8,9,depth_duration_stimuli/000906_2014-06-08_13-35-43_260595134347_rgbf000155-resize_1/000906_2014-06-08_13-35-43_260595134347_rgbf000155-resize_1-target.png,125,2.8489999999999998,5,2418,123,feet,jsons/VE125_randls_54.json,530750,941682,44,Woman
9,258486,DepthScenes,duration_manipulation_targetAtFixation,jsons/VE125_randls_54.json,http://54.235.29.9/FacialAge/BNav_EC2/DepthDuration/v2_depth_duration_MTurk/v2_DepthDuration_HTML.html#15,15,1770,884,1920,1080,8-29-2022,9-48-8,10,depth_duration_stimuli/002805_2014-06-22_19-54-03_094959634447_rgbf000079-resize_1/002805_2014-06-22_19-54-03_094959634447_rgbf000079-resize_1-target.png,125,3.1439999999999997,5,1658,124,feet,jsons/VE125_randls_54.json,530750,941682,44,Woman
10,258486,DepthScenes,duration_manipulation_targetAtFixation,jsons/VE125_randls_54.json,http://54.235.29.9/FacialAge/BNav_EC2/DepthDuration/v2_depth_duration_MTurk/v2_DepthDuration_HTML.html#15,15,1770,884,1920,1080,8-29-2022,9-48-8,11,depth_duration_stimuli/002570_2014-06-24_13-59-54_094959634447_rgbf000059-resize_0/002570_2014-06-24_13-59-54_094959634447_rgbf000059-resize_0-target.png,125,4.037,3,2042,126,feet,jsons/VE125_randls_54.json,530750,941682,44,Woman
11,258486,DepthScenes,duration_manipulation_targetAtFixation,jsons/VE125_randls_54.json,http://54.235.29.9/FacialAge/BNav_EC2/DepthDuration/v2_depth_duration_MTurk/v2_DepthDuration_HTML.html#15,15,1770,884,1920,1080,8-29-2022,9-48-8,12,depth_duration_stimuli/002467_2014-06-28_20-38-07_260595134347_rgbf000026-resize_2/002467_2014-06-28_20-38-07_260595134347_rgbf000026-resize_2-target.png,125,4.742,5,1874,124,feet,jsons/VE125_randls_54.json,530750,941682,44,Woman
12,258486,DepthScenes,duration_manipulation_targetAtFixation,jsons/VE125_randls_54.json,http://54.235.29.9/FacialAge/BNav_EC2/DepthDuration/v2_depth_duration_MTurk/v2_DepthDuration_HTML.html#15,15,1770,884,1920,1080,8-29-2022,9-48-8,13,depth_duration_stimuli/000569_2014-06-09_22-51-47_260595134347_rgbf000141-resize_3/000569_2014-06-09_22-51-47_260595134347_rgbf000141-resize-original.jpg,125,4.512,0,2221,126,feet,jsons/VE125_randls_54.json,530750,941682,44,Woman
13,258486,DepthScenes,duration_manipulation_targetAtFixation,jsons/VE125_randls_54.json,http://54.235.29.9/FacialAge/BNav_EC2/DepthDuration/v2_depth_duration_MTurk/v2_DepthDuration_HTML.html#15,15,1770,884,1920,1080,8-29-2022,9-48-8,14,depth_duration_stimuli/001417_2014-06-19_16-25-36_260595134347_rgbf000115-resize_5/001417_2014-06-19_16-25-36_260595134347_rgbf000115-resize_5-target.png,125,4.6255,3,2721,124,feet,jsons/VE125_randls_54.json,530750,941682,44,Woman
14,258486,DepthScenes,duration_manipulation_targetAtFixation,jsons/VE125_randls_54.json,http://54.235.29.9/FacialAge/BNav_EC2/DepthDuration/v2_depth_duration_MTurk/v2_DepthDuration_HTML.html#15,15,1770,884,1920,1080,8-29-2022,9-48-8,15,depth_duration_stimuli/003081_2014-06-15_15-19-16_094959634447_rgbf000150-resize_1/003081_2014-06-15_15-19-16_094959634447_rgbf000150-resize_1-target.png,125,3.9125,5,2620,127,feet,jsons/VE125_randls_54.json,530750,941682,44,Woman
15,258486,DepthScenes,duration_manipulation_targetAtFixation,jsons/VE125_randls_54.json,http://54.235.29.9/FacialAge/BNav_EC2/DepthDuration/v2_depth_duration_MTurk/v2_DepthDuration_HTML.html#15,15,1770,884,1920,1080,8-29-2022,9-48-8,16,depth_duration_stimuli/000368_2014-06-09_15-53-01_260595134347_rgbf000155-resize_2/000368_2014-06-09_15-53-01_260595134347_rgbf000155-resize_2-target.png,125,2.4859999999999998,2,2924,125,feet,jsons/VE125_randls_54.json,530750,941682,44,Woman
16,258486,DepthScenes,duration_manipulation_targetAtFixation,jsons/VE125_randls_54.json,http://54.235.29.9/FacialAge/BNav_EC2/DepthDuration/v2_depth_duration_MTurk/v2_DepthDuration_HTML.html#15,15,1770,884,1920,1080,8-29-2022,9-48-8,17,depth_duration_stimuli/002678_2014-06-13_16-15-32_094959634447_rgbf000151-resize_6/002678_2014-06-13_16-15-32_094959634447_rgbf000151-resize_6-target.png,125,2.1830000000000003,5,2379,125,feet,jsons/VE125_randls_54.json,530750,941682,44,Woman
17,258486,DepthScenes,duration_manipulation_targetAtFixation,jsons/VE125_randls_54.json,http://54.235.29.9/FacialAge/BNav_EC2/DepthDuration/v2_depth_duration_MTurk/v2_DepthDuration_HTML.html#15,15,1770,884,1920,1080,8-29-2022,9-48-8,18,depth_duration_stimuli/000486_2014-06-09_20-47-20_260595134347_rgbf000143-resize_2/000486_2014-06-09_20-47-20_260595134347_rgbf000143-resize_2-target.png,125,4.8325,4,2867,123,feet,jsons/VE125_randls_54.json,530750,941682,44,Woman
18,258486,DepthScenes,duration_manipulation_targetAtFixation,jsons/VE125_randls_54.json,http://54.235.29.9/FacialAge/BNav_EC2/DepthDuration/v2_depth_duration_MTurk/v2_DepthDuration_HTML.html#15,15,1770,884,1920,1080,8-29-2022,9-48-8,19,depth_duration_stimuli/003083_2014-06-15_15-21-03_094959634447_rgbf000063-resize_1/003083_2014-06-15_15-21-03_094959634447_rgbf000063-resize_1-target.png,125,4.1405,4,1867,126,feet,jsons/VE125_randls_54.json,530750,941682,44,Woman
19,258486,DepthScenes,duration_manipulation_targetAtFixation,jsons/VE125_randls_54.json,http://54.235.29.9/FacialAge/BNav_EC2/DepthDuration/v2_depth_duration_MTurk/v2_DepthDuration_HTML.html#15,15,1770,884,1920,1080,8-29-2022,9-48-8,20,depth_duration_stimuli/002153_2014-06-25_21-27-18_260595134347_rgbf000038-resize_5/002153_2014-06-25_21-27-18_260595134347_rgbf000038-resize_5-target.png,125,2.505,2,1796,125,feet,jsons/VE125_randls_54.json,530750,941682,44,Woman
20,258486,DepthScenes,duration_manipulation_targetAtFixation,jsons/VE125_randls_54.json,http://54.235.29.9/FacialAge/BNav_EC2/DepthDuration/v2_depth_duration_MTurk/v2_DepthDuration_HTML.html#15,15,1770,884,1920,1080,8-29-2022,9-48-8,21,depth_duration_stimuli/002660_2014-06-13_15-44-18_094959634447_rgbf001878-resize_2/002660_2014-06-13_15-44-18_094959634447_rgbf001878-resize_2-target.png,125,3.576,4,2292,126,feet,jsons/VE125_randls_54.json,530750,941682,44,Woman
21,258486,DepthScenes,duration_manipulation_targetAtFixation,jsons/VE125_randls_54.json,http://54.235.29.9/FacialAge/BNav_EC2/DepthDuration/v2_depth_duration_MTurk/v2_DepthDuration_HTML.html#15,15,1770,884,1920,1080,8-29-2022,9-48-8,22,depth_duration_stimuli/002043_2014-06-24_20-29-38_260595134347_rgbf000039-resize_4/002043_2014-06-24_20-29-38_260595134347_rgbf000039-resize_4-target.png,125,2.8435,3,1989,126,feet,jsons/VE125_randls_54.json,530750,941682,44,Woman
22,258486,DepthScenes,duration_manipulation_targetAtFixation,jsons/VE125_randls_54.json,http://54.235.29.9/FacialAge/BNav_EC2/DepthDuration/v2_depth_duration_MTurk/v2_DepthDuration_HTML.html#15,15,1770,884,1920,1080,8-29-2022,9-48-8,23,depth_duration_stimuli/003048_2014-06-15_13-49-43_094959634447_rgbf000150-resize_1/003048_2014-06-15_13-49-43_094959634447_rgbf000150-resize_1-target.png,125,4.0035,7,2481,123,feet,jsons/VE125_randls_54.json,530750,941682,44,Woman
23,258486,DepthScenes,duration_manipulation_targetAtFixation,jsons/VE125_randls_54.json,http://54.235.29.9/FacialAge/BNav_EC2/DepthDuration/v2_depth_duration_MTurk/v2_DepthDuration_HTML.html#15,15,1770,884,1920,1080,8-29-2022,9-48-8,24,depth_duration_stimuli/000929_2014-06-09_16-33-19_260595134347_rgbf000139-resize_0/000929_2014-06-09_16-33-19_260595134347_rgbf000139-resize_0-target.png,125,2.8680000000000003,3,3059,125,feet,jsons/VE125_randls_54.json,530750,941682,44,Woman
24,258486,DepthScenes,duration_manipulation_targetAtFixation,jsons/VE125_randls_54.json,http://54.235.29.9/FacialAge/BNav_EC2/DepthDuration/v2_depth_duration_MTurk/v2_DepthDuration_HTML.html#15,15,1770,884,1920,1080,8-29-2022,9-48-8,25,depth_duration_stimuli/000457_2014-06-08_16-52-43_260595134347_rgbf000199-resize_1/000457_2014-06-08_16-52-43_260595134347_rgbf000199-resize_1-target.png,125,3.6489999999999996,3,1683,126,feet,jsons/VE125_randls_54.json,530750,941682,44,Woman
25,258486,DepthScenes,duration_manipulation_targetAtFixation,jsons/VE125_randls_54.json,http://54.235.29.9/FacialAge/BNav_EC2/DepthDuration/v2_depth_duration_MTurk/v2_DepthDuration_HTML.html#15,15,1770,884,1920,1080,8-29-2022,9-48-8,26,depth_duration_stimuli/001055_2014-06-08_18-45-35_260595134347_rgbf000111-resize_4/001055_2014-06-08_18-45-35_260595134347_rgbf000111-resize_4-target.png,125,2.4290000000000003,3,2140,127,feet,jsons/VE125_randls_54.json,530750,941682,44,Woman
26,258486,DepthScenes,duration_manipulation_targetAtFixation,jsons/VE125_randls_54.json,http://54.235.29.9/FacialAge/BNav_EC2/DepthDuration/v2_depth_duration_MTurk/v2_DepthDuration_HTML.html#15,15,1770,884,1920,1080,8-29-2022,9-48-8,27,depth_duration_stimuli/000549_2014-06-08_22-10-24_260595134347_rgbf000247-resize_3/000549_2014-06-08_22-10-24_260595134347_rgbf000247-resize_3-target.png,125,1.841,1,2123,125,feet,jsons/VE125_randls_54.json,530750,941682,44,Woman
27,258486,DepthScenes,duration_manipulation_targetAtFixation,jsons/VE125_randls_54.json,http://54.235.29.9/FacialAge/BNav_EC2/DepthDuration/v2_depth_duration_MTurk/v2_DepthDuration_HTML.html#15,15,1770,884,1920,1080,8-29-2022,9-48-8,28,depth_duration_stimuli/001806_2014-06-26_20-50-20_260595134347_rgbf000091-resize_1/001806_2014-06-26_20-50-20_260595134347_rgbf000091-resize_1-target.png,125,2.7305,2,1707,126,feet,jsons/VE125_randls_54.json,530750,941682,44,Woman
28,258486,DepthScenes,duration_manipulation_targetAtFixation,jsons/VE125_randls_54.json,http://54.235.29.9/FacialAge/BNav_EC2/DepthDuration/v2_depth_duration_MTurk/v2_DepthDuration_HTML.html#15,15,1770,884,1920,1080,8-29-2022,9-48-8,29,depth_duration_stimuli/001617_2014-06-20_11-35-32_260595134347_rgbf000066-resize_1/001617_2014-06-20_11-35-32_260595134347_rgbf000066-resize_1-target.png,125,3.7910000000000004,5,2940,125,feet,jsons/VE125_randls_54.json,530750,941682,44,Woman
29,258486,DepthScenes,duration_manipulation_targetAtFixation,jsons/VE125_randls_54.json,http://54.235.29.9/FacialAge/BNav_EC2/DepthDuration/v2_depth_duration_MTurk/v2_DepthDuration_HTML.html#15,15,1770,884,1920,1080,8-29-2022,9-48-8,30,depth_duration_stimuli/000375_2014-06-08_11-17-29_260595134347_rgbf000133-resize_2/000375_2014-06-08_11-17-29_260595134347_rgbf000133-resize-original.jpg,125,4.718,0,24779,151,feet,jsons/VE125_randls_54.json,530750,941682,44,Woman
30,258486,DepthScenes,duration_manipulation_targetAtFixation,jsons/VE125_randls_54.json,http://54.235.29.9/FacialAge/BNav_EC2/DepthDuration/v2_depth_duration_MTurk/v2_DepthDuration_HTML.html#15,15,1770,884,1920,1080,8-29-2022,9-48-8,31,depth_duration_stimuli/000642_2014-06-08_16-59-25_260595134347_rgbf000098-resize_2/000642_2014-06-08_16-59-25_260595134347_rgbf000098-resize_2-target.png,125,2.8815,2,3658,124,feet,jsons/VE125_randls_54.json,530750,941682,44,Woman
31,258486,DepthScenes,duration_manipulation_targetAtFixation,jsons/VE125_randls_54.json,http://54.235.29.9/FacialAge/BNav_EC2/DepthDuration/v2_depth_duration_MTurk/v2_DepthDuration_HTML.html#15,15,1770,884,1920,1080,8-29-2022,9-48-8,32,depth_duration_stimuli/002425_2014-06-28_20-27-29_260595134347_rgbf000031-resize_8/002425_2014-06-28_20-27-29_260595134347_rgbf000031-resize_8-target.png,125,3.8960000000000004,7,2585,124,feet,jsons/VE125_randls_54.json,530750,941682,44,Woman
32,258486,DepthScenes,duration_manipulation_targetAtFixation,jsons/VE125_randls_54.json,http://54.235.29.9/FacialAge/BNav_EC2/DepthDuration/v2_depth_duration_MTurk/v2_DepthDuration_HTML.html#15,15,1770,884,1920,1080,8-29-2022,9-48-8,33,depth_duration_stimuli/000758_2014-06-08_22-05-08_260595134347_rgbf000085-resize_0/000758_2014-06-08_22-05-08_260595134347_rgbf000085-resize_0-target.png,125,3.3810000000000002,7,1634,125,feet,jsons/VE125_randls_54.json,530750,941682,44,Woman
33,258486,DepthScenes,duration_manipulation_targetAtFixation,jsons/VE125_randls_54.json,http://54.235.29.9/FacialAge/BNav_EC2/DepthDuration/v2_depth_duration_MTurk/v2_DepthDuration_HTML.html#15,15,1770,884,1920,1080,8-29-2022,9-48-8,34,depth_duration_stimuli/000854_2014-06-09_19-43-13_260595134347_rgbf000066-resize_0/000854_2014-06-09_19-43-13_260595134347_rgbf000066-resize_0-target.png,125,3.068,3,1740,126,feet,jsons/VE125_randls_54.json,530750,941682,44,Woman
34,258486,DepthScenes,duration_manipulation_targetAtFixation,jsons/VE125_randls_54.json,http://54.235.29.9/FacialAge/BNav_EC2/DepthDuration/v2_depth_duration_MTurk/v2_DepthDuration_HTML.html#15,15,1770,884,1920,1080,8-29-2022,9-48-8,35,depth_duration_stimuli/002748_2014-06-22_19-07-22_094959634447_rgbf000078-resize_1/002748_2014-06-22_19-07-22_094959634447_rgbf000078-resize_1-target.png,125,4.6705,9,2354,125,feet,jsons/VE125_randls_54.json,530750,941682,44,Woman
35,258486,DepthScenes,duration_manipulation_targetAtFixation,jsons/VE125_randls_54.json,http://54.235.29.9/FacialAge/BNav_EC2/DepthDuration/v2_depth_duration_MTurk/v2_DepthDuration_HTML.html#15,15,1770,884,1920,1080,8-29-2022,9-48-8,36,depth_duration_stimuli/002995_2014-06-15_12-31-26_094959634447_rgbf000150-resize_1/002995_2014-06-15_12-31-26_094959634447_rgbf000150-resize_1-target.png,125,3.8360000000000003,7,2411,126,feet,jsons/VE125_randls_54.json,530750,941682,44,Woman
36,258486,DepthScenes,duration_manipulation_targetAtFixation,jsons/VE125_randls_54.json,http://54.235.29.9/FacialAge/BNav_EC2/DepthDuration/v2_depth_duration_MTurk/v2_DepthDuration_HTML.html#15,15,1770,884,1920,1080,8-29-2022,9-48-8,37,depth_duration_stimuli/002630_2014-06-24_14-47-50_094959634447_rgbf000055-resize_1/002630_2014-06-24_14-47-50_094959634447_rgbf000055-resize_1-target.png,125,3.0095,5,2315,125,feet,jsons/VE125_randls_54.json,530750,941682,44,Woman
37,258486,DepthScenes,duration_manipulation_targetAtFixation,jsons/VE125_randls_54.json,http://54.235.29.9/FacialAge/BNav_EC2/DepthDuration/v2_depth_duration_MTurk/v2_DepthDuration_HTML.html#15,15,1770,884,1920,1080,8-29-2022,9-48-8,38,depth_duration_stimuli/002758_2014-06-22_19-11-20_094959634447_rgbf000128-resize_1/002758_2014-06-22_19-11-20_094959634447_rgbf000128-resize_1-target.png,125,2.555,5,2387,126,feet,jsons/VE125_randls_54.json,530750,941682,44,Woman
38,258486,DepthScenes,duration_manipulation_targetAtFixation,jsons/VE125_randls_54.json,http://54.235.29.9/FacialAge/BNav_EC2/DepthDuration/v2_depth_duration_MTurk/v2_DepthDuration_HTML.html#15,15,1770,884,1920,1080,8-29-2022,9-48-8,39,depth_duration_stimuli/000682_2014-06-08_23-14-58_260595134347_rgbf000041-resize_5/000682_2014-06-08_23-14-58_260595134347_rgbf000041-resize_5-target.png,125,2.7239999999999998,3,2354,125,feet,jsons/VE125_randls_54.json,530750,941682,44,Woman
39,258486,DepthScenes,duration_manipulation_targetAtFixation,jsons/VE125_randls_54.json,http://54.235.29.9/FacialAge/BNav_EC2/DepthDuration/v2_depth_duration_MTurk/v2_DepthDuration_HTML.html#15,15,1770,884,1920,1080,8-29-2022,9-48-8,40,depth_duration_stimuli/001650_2014-06-20_12-09-00_260595134347_rgbf000087-resize_3/001650_2014-06-20_12-09-00_260595134347_rgbf000087-resize_3-target.png,125,1.9505,2,1811,125,feet,jsons/VE125_randls_54.json,530750,941682,44,Woman
40,258486,DepthScenes,duration_manipulation_targetAtFixation,jsons/VE125_randls_54.json,http://54.235.29.9/FacialAge/BNav_EC2/DepthDuration/v2_depth_duration_MTurk/v2_DepthDuration_HTML.html#15,15,1770,884,1920,1080,8-29-2022,9-48-8,41,depth_duration_stimuli/001449_2014-06-19_17-01-27_260595134347_rgbf000116-resize_2/001449_2014-06-19_17-01-27_260595134347_rgbf000116-resize_2-target.png,125,3.452,3,2571,124,feet,jsons/VE125_randls_54.json,530750,941682,44,Woman
41,258486,DepthScenes,duration_manipulation_targetAtFixation,jsons/VE125_randls_54.json,http://54.235.29.9/FacialAge/BNav_EC2/DepthDuration/v2_depth_duration_MTurk/v2_DepthDuration_HTML.html#15,15,1770,884,1920,1080,8-29-2022,9-48-8,42,depth_duration_stimuli/001450_2014-06-19_17-02-03_260595134347_rgbf000203-resize_4/001450_2014-06-19_17-02-03_260595134347_rgbf000203-resize_4-target.png,125,4.0106666666667,6,2419,125,feet,jsons/VE125_randls_54.json,530750,941682,44,Woman
42,258486,DepthScenes,duration_manipulation_targetAtFixation,jsons/VE125_randls_54.json,http://54.235.29.9/FacialAge/BNav_EC2/DepthDuration/v2_depth_duration_MTurk/v2_DepthDuration_HTML.html#15,15,1770,884,1920,1080,8-29-2022,9-48-8,43,depth_duration_stimuli/000773_2014-06-08_22-24-54_260595134347_rgbf000093-resize_1/000773_2014-06-08_22-24-54_260595134347_rgbf000093-resize_1-target.png,125,4.973,6,1923,126,feet,jsons/VE125_randls_54.json,530750,941682,44,Woman
43,258486,DepthScenes,duration_manipulation_targetAtFixation,jsons/VE125_randls_54.json,http://54.235.29.9/FacialAge/BNav_EC2/DepthDuration/v2_depth_duration_MTurk/v2_DepthDuration_HTML.html#15,15,1770,884,1920,1080,8-29-2022,9-48-8,44,depth_duration_stimuli/002414_2014-06-28_20-24-58_260595134347_rgbf000067-resize_4/002414_2014-06-28_20-24-58_260595134347_rgbf000067-resize_4-target.png,125,4.363,3,2899,125,feet,jsons/VE125_randls_54.json,530750,941682,44,Woman
44,258486,DepthScenes,duration_manipulation_targetAtFixation,jsons/VE125_randls_54.json,http://54.235.29.9/FacialAge/BNav_EC2/DepthDuration/v2_depth_duration_MTurk/v2_DepthDuration_HTML.html#15,15,1770,884,1920,1080,8-29-2022,9-48-8,45,depth_duration_stimuli/000787_2014-06-08_22-33-53_260595134347_rgbf000175-resize_1/000787_2014-06-08_22-33-53_260595134347_rgbf000175-resize-original.jpg,125,4.784,0,2683,125,feet,jsons/VE125_randls_54.json,530750,941682,44,Woman
45,258486,DepthScenes,duration_manipulation_targetAtFixation,jsons/VE125_randls_54.json,http://54.235.29.9/FacialAge/BNav_EC2/DepthDuration/v2_depth_duration_MTurk/v2_DepthDuration_HTML.html#15,15,1770,884,1920,1080,8-29-2022,9-48-8,46,depth_duration_stimuli/001056_2014-06-08_18-46-44_260595134347_rgbf000068-resize_0/001056_2014-06-08_18-46-44_260595134347_rgbf000068-resize_0-target.png,125,2.6625,6,2908,125,feet,jsons/VE125_randls_54.json,530750,941682,44,Woman
46,258486,DepthScenes,duration_manipulation_targetAtFixation,jsons/VE125_randls_54.json,http://54.235.29.9/FacialAge/BNav_EC2/DepthDuration/v2_depth_duration_MTurk/v2_DepthDuration_HTML.html#15,15,1770,884,1920,1080,8-29-2022,9-48-8,47,depth_duration_stimuli/002199_2014-06-28_18-33-56_260595134347_rgbf000074-resize_0/002199_2014-06-28_18-33-56_260595134347_rgbf000074-resize_0-target.png,125,1.996,2,2010,124,feet,jsons/VE125_randls_54.json,530750,941682,44,Woman
47,258486,DepthScenes,duration_manipulation_targetAtFixation,jsons/VE125_randls_54.json,http://54.235.29.9/FacialAge/BNav_EC2/DepthDuration/v2_depth_duration_MTurk/v2_DepthDuration_HTML.html#15,15,1770,884,1920,1080,8-29-2022,9-48-8,48,depth_duration_stimuli/001244_2014-06-17_16-47-45_260595134347_rgbf000030-resize_4/001244_2014-06-17_16-47-45_260595134347_rgbf000030-resize_4-target.png,125,2.0425,4,3044,126,feet,jsons/VE125_randls_54.json,530750,941682,44,Woman
48,258486,DepthScenes,duration_manipulation_targetAtFixation,jsons/VE125_randls_54.json,http://54.235.29.9/FacialAge/BNav_EC2/DepthDuration/v2_depth_duration_MTurk/v2_DepthDuration_HTML.html#15,15,1770,884,1920,1080,8-29-2022,9-48-8,49,depth_duration_stimuli/003495_2014-05-21_16-01-51_094959634447_rgbf000100-resize_3/003495_2014-05-21_16-01-51_094959634447_rgbf000100-resize_3-target.png,125,1.6255,2,1667,125,feet,jsons/VE125_randls_54.json,530750,941682,44,Woman
49,258486,DepthScenes,duration_manipulation_targetAtFixation,jsons/VE125_randls_54.json,http://54.235.29.9/FacialAge/BNav_EC2/DepthDuration/v2_depth_duration_MTurk/v2_DepthDuration_HTML.html#15,15,1770,884,1920,1080,8-29-2022,9-48-8,50,depth_duration_stimuli/002905_2014-06-03_18-04-43_094959634447_rgbf000151-resize_2/002905_2014-06-03_18-04-43_094959634447_rgbf000151-resize_2-target.png,125,2.0295,2,1525,111,feet,jsons/VE125_randls_54.json,530750,941682,44,Woman
50,258486,DepthScenes,duration_manipulation_targetAtFixation,jsons/VE125_randls_54.json,http://54.235.29.9/FacialAge/BNav_EC2/DepthDuration/v2_depth_duration_MTurk/v2_DepthDuration_HTML.html#15,15,1770,884,1920,1080,8-29-2022,9-48-8,51,depth_duration_stimuli/003423_2014-05-21_10-23-26_094959634447_rgbf002665-resize_2/003423_2014-05-21_10-23-26_094959634447_rgbf002665-resize_2-target.png,125,3.2575,8,3427,125,feet,jsons/VE125_randls_54.json,530750,941682,44,Woman
51,258486,DepthScenes,duration_manipulation_targetAtFixation,jsons/VE125_randls_54.json,http://54.235.29.9/FacialAge/BNav_EC2/DepthDuration/v2_depth_duration_MTurk/v2_DepthDuration_HTML.html#15,15,1770,884,1920,1080,8-29-2022,9-48-8,52,depth_duration_stimuli/000469_2014-06-09_19-42-10_260595134347_rgbf000081-resize_1/000469_2014-06-09_19-42-10_260595134347_rgbf000081-resize_1-target.png,125,1.652,2,1987,125,feet,jsons/VE125_randls_54.json,530750,941682,44,Woman
52,258486,DepthScenes,duration_manipulation_targetAtFixation,jsons/VE125_randls_54.json,http://54.235.29.9/FacialAge/BNav_EC2/DepthDuration/v2_depth_duration_MTurk/v2_DepthDuration_HTML.html#15,15,1770,884,1920,1080,8-29-2022,9-48-8,53,depth_duration_stimuli/000483_2014-06-09_20-41-45_260595134347_rgbf000116-resize_4/000483_2014-06-09_20-41-45_260595134347_rgbf000116-resize_4-target.png,125,1.337,2,1610,125,feet,jsons/VE125_randls_54.json,530750,941682,44,Woman
53,258486,DepthScenes,duration_manipulation_targetAtFixation,jsons/VE125_randls_54.json,http://54.235.29.9/FacialAge/BNav_EC2/DepthDuration/v2_depth_duration_MTurk/v2_DepthDuration_HTML.html#15,15,1770,884,1920,1080,8-29-2022,9-48-8,54,depth_duration_stimuli/002279_2014-06-28_18-55-32_260595134347_rgbf000040-resize_5/002279_2014-06-28_18-55-32_260595134347_rgbf000040-resize_5-target.png,125,1.5043333333333,1,2596,125,feet,jsons/VE125_randls_54.json,530750,941682,44,Woman
54,258486,DepthScenes,duration_manipulation_targetAtFixation,jsons/VE125_randls_54.json,http://54.235.29.9/FacialAge/BNav_EC2/DepthDuration/v2_depth_duration_MTurk/v2_DepthDuration_HTML.html#15,15,1770,884,1920,1080,8-29-2022,9-48-8,55,depth_duration_stimuli/000635_2014-06-08_16-38-42_260595134347_rgbf000106-resize_1/000635_2014-06-08_16-38-42_260595134347_rgbf000106-resize_1-target.png,125,2.074,3,2346,124,feet,jsons/VE125_randls_54.json,530750,941682,44,Woman
55,258486,DepthScenes,duration_manipulation_targetAtFixation,jsons/VE125_randls_54.json,http://54.235.29.9/FacialAge/BNav_EC2/DepthDuration/v2_depth_duration_MTurk/v2_DepthDuration_HTML.html#15,15,1770,884,1920,1080,8-29-2022,9-48-8,56,depth_duration_stimuli/000414_2014-06-04_19-49-13_260595134347_rgbf000044-resize_0/000414_2014-06-04_19-49-13_260595134347_rgbf000044-resize_0-target.png,125,4.329,3,36379,124,feet,jsons/VE125_randls_54.json,530750,941682,44,Woman
56,258486,DepthScenes,duration_manipulation_targetAtFixation,jsons/VE125_randls_54.json,http://54.235.29.9/FacialAge/BNav_EC2/DepthDuration/v2_depth_duration_MTurk/v2_DepthDuration_HTML.html#15,15,1770,884,1920,1080,8-29-2022,9-48-8,57,depth_duration_stimuli/003129_2014-05-12_10-48-10_094959634447_rgbf000100-resize_0/003129_2014-05-12_10-48-10_094959634447_rgbf000100-resize_0-target.png,125,4.9305,7,2379,126,feet,jsons/VE125_randls_54.json,530750,941682,44,Woman
57,258486,DepthScenes,duration_manipulation_targetAtFixation,jsons/VE125_randls_54.json,http://54.235.29.9/FacialAge/BNav_EC2/DepthDuration/v2_depth_duration_MTurk/v2_DepthDuration_HTML.html#15,15,1770,884,1920,1080,8-29-2022,9-48-8,58,depth_duration_stimuli/001092_2014-06-15_17-34-58_260595134347_rgbf000171-resize_3/001092_2014-06-15_17-34-58_260595134347_rgbf000171-resize_3-target.png,125,2.6935,2,1692,124,feet,jsons/VE125_randls_54.json,530750,941682,44,Woman
58,258486,DepthScenes,duration_manipulation_targetAtFixation,jsons/VE125_randls_54.json,http://54.235.29.9/FacialAge/BNav_EC2/DepthDuration/v2_depth_duration_MTurk/v2_DepthDuration_HTML.html#15,15,1770,884,1920,1080,8-29-2022,9-48-8,59,depth_duration_stimuli/002545_2014-06-24_13-38-53_094959634447_rgbf000080-resize_4/002545_2014-06-24_13-38-53_094959634447_rgbf000080-resize_4-target.png,125,1.9205,2,1802,124,feet,jsons/VE125_randls_54.json,530750,941682,44,Woman
59,258486,DepthScenes,duration_manipulation_targetAtFixation,jsons/VE125_randls_54.json,http://54.235.29.9/FacialAge/BNav_EC2/DepthDuration/v2_depth_duration_MTurk/v2_DepthDuration_HTML.html#15,15,1770,884,1920,1080,8-29-2022,9-48-8,60,depth_duration_stimuli/003534_2014-05-22_15-06-10_094959634447_rgbf000102-resize_4/003534_2014-05-22_15-06-10_094959634447_rgbf000102-resize_4-target.png,125,1.426,1,2450,123,feet,jsons/VE125_randls_54.json,530750,941682,44,Woman
60,258486,DepthScenes,duration_manipulation_targetAtFixation,jsons/VE125_randls_54.json,http://54.235.29.9/FacialAge/BNav_EC2/DepthDuration/v2_depth_duration_MTurk/v2_DepthDuration_HTML.html#15,15,1770,884,1920,1080,8-29-2022,9-48-8,61,depth_duration_stimuli/002637_2014-06-24_14-51-13_094959634447_rgbf000066-resize_4/002637_2014-06-24_14-51-13_094959634447_rgbf000066-resize_4-target.png,125,1.9955,3,2658,124,feet,jsons/VE125_randls_54.json,530750,941682,44,Woman
61,258486,DepthScenes,duration_manipulation_targetAtFixation,jsons/VE125_randls_54.json,http://54.235.29.9/FacialAge/BNav_EC2/DepthDuration/v2_depth_duration_MTurk/v2_DepthDuration_HTML.html#15,15,1770,884,1920,1080,8-29-2022,9-48-8,62,depth_duration_stimuli/001175_2014-06-17_15-45-55_260595134347_rgbf000129-resize_4/001175_2014-06-17_15-45-55_260595134347_rgbf000129-resize_4-target.png,125,4.255,9,2290,124,feet,jsons/VE125_randls_54.json,530750,941682,44,Woman
62,258486,DepthScenes,duration_manipulation_targetAtFixation,jsons/VE125_randls_54.json,http://54.235.29.9/FacialAge/BNav_EC2/DepthDuration/v2_depth_duration_MTurk/v2_DepthDuration_HTML.html#15,15,1770,884,1920,1080,8-29-2022,9-48-8,63,depth_duration_stimuli/003490_2014-05-21_15-50-11_094959634447_rgbf000101-resize_3/003490_2014-05-21_15-50-11_094959634447_rgbf000101-resize_3-target.png,125,3.6445,12,2787,126,feet,jsons/VE125_randls_54.json,530750,941682,44,Woman
63,258486,DepthScenes,duration_manipulation_targetAtFixation,jsons/VE125_randls_54.json,http://54.235.29.9/FacialAge/BNav_EC2/DepthDuration/v2_depth_duration_MTurk/v2_DepthDuration_HTML.html#15,15,1770,884,1920,1080,8-29-2022,9-48-8,64,depth_duration_stimuli/000447_2014-06-08_16-15-46_260595134347_rgbf000130-resize_1/000447_2014-06-08_16-15-46_260595134347_rgbf000130-resize_1-target.png,125,4.479,8,3083,125,feet,jsons/VE125_randls_54.json,530750,941682,44,Woman
64,258486,DepthScenes,duration_manipulation_targetAtFixation,jsons/VE125_randls_54.json,http://54.235.29.9/FacialAge/BNav_EC2/DepthDuration/v2_depth_duration_MTurk/v2_DepthDuration_HTML.html#15,15,1770,884,1920,1080,8-29-2022,9-48-8,65,depth_duration_stimuli/001447_2014-06-19_17-00-32_260595134347_rgbf000082-resize_5/001447_2014-06-19_17-00-32_260595134347_rgbf000082-resize_5-target.png,125,4.13775,3,2554,125,feet,jsons/VE125_randls_54.json,530750,941682,44,Woman
65,258486,DepthScenes,duration_manipulation_targetAtFixation,jsons/VE125_randls_54.json,http://54.235.29.9/FacialAge/BNav_EC2/DepthDuration/v2_depth_duration_MTurk/v2_DepthDuration_HTML.html#15,15,1770,884,1920,1080,8-29-2022,9-48-8,66,depth_duration_stimuli/001222_2014-06-17_16-24-06_260595134347_rgbf000073-resize_0/001222_2014-06-17_16-24-06_260595134347_rgbf000073-resize-original.jpg,125,1.4385,0,2586,124,feet,jsons/VE125_randls_54.json,530750,941682,44,Woman
66,258486,DepthScenes,duration_manipulation_targetAtFixation,jsons/VE125_randls_54.json,http://54.235.29.9/FacialAge/BNav_EC2/DepthDuration/v2_depth_duration_MTurk/v2_DepthDuration_HTML.html#15,15,1770,884,1920,1080,8-29-2022,9-48-8,67,depth_duration_stimuli/001158_2014-06-17_15-32-16_260595134347_rgbf000138-resize_2/001158_2014-06-17_15-32-16_260595134347_rgbf000138-resize_2-target.png,125,4.5315,12,2955,124,feet,jsons/VE125_randls_54.json,530750,941682,44,Woman
67,258486,DepthScenes,duration_manipulation_targetAtFixation,jsons/VE125_randls_54.json,http://54.235.29.9/FacialAge/BNav_EC2/DepthDuration/v2_depth_duration_MTurk/v2_DepthDuration_HTML.html#15,15,1770,884,1920,1080,8-29-2022,9-48-8,68,depth_duration_stimuli/000556_2014-06-09_22-42-56_260595134347_rgbf000214-resize_1/000556_2014-06-09_22-42-56_260595134347_rgbf000214-resize_1-target.png,125,4.8415,5,2411,125,feet,jsons/VE125_randls_54.json,530750,941682,44,Woman
68,258486,DepthScenes,duration_manipulation_targetAtFixation,jsons/VE125_randls_54.json,http://54.235.29.9/FacialAge/BNav_EC2/DepthDuration/v2_depth_duration_MTurk/v2_DepthDuration_HTML.html#15,15,1770,884,1920,1080,8-29-2022,9-48-8,69,depth_duration_stimuli/002600_2014-06-24_14-27-04_094959634447_rgbf000074-resize_2/002600_2014-06-24_14-27-04_094959634447_rgbf000074-resize_2-target.png,125,2.7575,3,2739,126,feet,jsons/VE125_randls_54.json,530750,941682,44,Woman
69,258486,DepthScenes,duration_manipulation_targetAtFixation,jsons/VE125_randls_54.json,http://54.235.29.9/FacialAge/BNav_EC2/DepthDuration/v2_depth_duration_MTurk/v2_DepthDuration_HTML.html#15,15,1770,884,1920,1080,8-29-2022,9-48-8,70,depth_duration_stimuli/003228_2014-05-14_13-42-35_094959634447_rgbf000101-resize_1/003228_2014-05-14_13-42-35_094959634447_rgbf000101-resize_1-target.png,125,1.9680000000000002,2,2427,126,feet,jsons/VE125_randls_54.json,530750,941682,44,Woman
70,258486,DepthScenes,duration_manipulation_targetAtFixation,jsons/VE125_randls_54.json,http://54.235.29.9/FacialAge/BNav_EC2/DepthDuration/v2_depth_duration_MTurk/v2_DepthDuration_HTML.html#15,15,1770,884,1920,1080,8-29-2022,9-48-8,71,depth_duration_stimuli/002788_2014-06-22_19-36-03_094959634447_rgbf000088-resize_2/002788_2014-06-22_19-36-03_094959634447_rgbf000088-resize_2-target.png,125,1.6465,5,2195,125,feet,jsons/VE125_randls_54.json,530750,941682,44,Woman
71,258486,DepthScenes,duration_manipulation_targetAtFixation,jsons/VE125_randls_54.json,http://54.235.29.9/FacialAge/BNav_EC2/DepthDuration/v2_depth_duration_MTurk/v2_DepthDuration_HTML.html#15,15,1770,884,1920,1080,8-29-2022,9-48-8,72,depth_duration_stimuli/000749_2014-06-08_21-55-06_260595134347_rgbf000070-resize_2/000749_2014-06-08_21-55-06_260595134347_rgbf000070-resize_2-target.png,125,2.331,3,2491,125,feet,jsons/VE125_randls_54.json,530750,941682,44,Woman
72,258486,DepthScenes,duration_manipulation_targetAtFixation,jsons/VE125_randls_54.json,http://54.235.29.9/FacialAge/BNav_EC2/DepthDuration/v2_depth_duration_MTurk/v2_DepthDuration_HTML.html#15,15,1770,884,1920,1080,8-29-2022,9-48-8,73,depth_duration_stimuli/001016_2014-06-09_16-16-10_260595134347_rgbf000112-resize_5/001016_2014-06-09_16-16-10_260595134347_rgbf000112-resize_5-target.png,125,1.6565,4,2339,125,feet,jsons/VE125_randls_54.json,530750,941682,44,Woman
73,258486,DepthScenes,duration_manipulation_targetAtFixation,jsons/VE125_randls_54.json,http://54.235.29.9/FacialAge/BNav_EC2/DepthDuration/v2_depth_duration_MTurk/v2_DepthDuration_HTML.html#15,15,1770,884,1920,1080,8-29-2022,9-48-8,74,depth_duration_stimuli/002340_2014-06-28_20-05-46_260595134347_rgbf000113-resize_0/002340_2014-06-28_20-05-46_260595134347_rgbf000113-resize_0-target.png,125,2.4735,7,2410,125,feet,jsons/VE125_randls_54.json,530750,941682,44,Woman
74,258486,DepthScenes,duration_manipulation_targetAtFixation,jsons/VE125_randls_54.json,http://54.235.29.9/FacialAge/BNav_EC2/DepthDuration/v2_depth_duration_MTurk/v2_DepthDuration_HTML.html#15,15,1770,884,1920,1080,8-29-2022,9-48-8,75,depth_duration_stimuli/002549_2014-06-24_13-41-39_094959634447_rgbf000022-resize_3/002549_2014-06-24_13-41-39_094959634447_rgbf000022-resize_3-target.png,125,1.476,3,2275,126,feet,jsons/VE125_randls_54.json,530750,941682,44,Woman
75,258486,DepthScenes,duration_manipulation_targetAtFixation,jsons/VE125_randls_54.json,http://54.235.29.9/FacialAge/BNav_EC2/DepthDuration/v2_depth_duration_MTurk/v2_DepthDuration_HTML.html#15,15,1770,884,1920,1080,8-29-2022,9-48-8,76,depth_duration_stimuli/002750_2014-06-22_19-08-03_094959634447_rgbf000094-resize_4/002750_2014-06-22_19-08-03_094959634447_rgbf000094-resize_4-target.png,125,2.354,5,2579,126,feet,jsons/VE125_randls_54.json,530750,941682,44,Woman
76,258486,DepthScenes,duration_manipulation_targetAtFixation,jsons/VE125_randls_54.json,http://54.235.29.9/FacialAge/BNav_EC2/DepthDuration/v2_depth_duration_MTurk/v2_DepthDuration_HTML.html#15,15,1770,884,1920,1080,8-29-2022,9-48-8,77,depth_duration_stimuli/001029_2014-06-08_13-17-57_260595134347_rgbf000065-resize_1/001029_2014-06-08_13-17-57_260595134347_rgbf000065-resize_1-target.png,125,3.0835,3,2460,125,feet,jsons/VE125_randls_54.json,530750,941682,44,Woman
77,258486,DepthScenes,duration_manipulation_targetAtFixation,jsons/VE125_randls_54.json,http://54.235.29.9/FacialAge/BNav_EC2/DepthDuration/v2_depth_duration_MTurk/v2_DepthDuration_HTML.html#15,15,1770,884,1920,1080,8-29-2022,9-48-8,78,depth_duration_stimuli/000677_2014-06-08_23-10-32_260595134347_rgbf000158-resize_6/000677_2014-06-08_23-10-32_260595134347_rgbf000158-resize_6-target.png,125,3.556,5,2121,124,feet,jsons/VE125_randls_54.json,530750,941682,44,Woman
78,258486,DepthScenes,duration_manipulation_targetAtFixation,jsons/VE125_randls_54.json,http://54.235.29.9/FacialAge/BNav_EC2/DepthDuration/v2_depth_duration_MTurk/v2_DepthDuration_HTML.html#15,15,1770,884,1920,1080,8-29-2022,9-48-8,79,depth_duration_stimuli/003492_2014-05-21_15-50-55_094959634447_rgbf000828-resize_1/003492_2014-05-21_15-50-55_094959634447_rgbf000828-resize_1-target.png,125,4.06875,6,2139,124,feet,jsons/VE125_randls_54.json,530750,941682,44,Woman
79,258486,DepthScenes,duration_manipulation_targetAtFixation,jsons/VE125_randls_54.json,http://54.235.29.9/FacialAge/BNav_EC2/DepthDuration/v2_depth_duration_MTurk/v2_DepthDuration_HTML.html#15,15,1770,884,1920,1080,8-29-2022,9-48-8,80,depth_duration_stimuli/002568_2014-06-24_13-59-21_094959634447_rgbf000062-resize_4/002568_2014-06-24_13-59-21_094959634447_rgbf000062-resize_4-target.png,125,3.015,6,1810,125,feet,jsons/VE125_randls_54.json,530750,941682,44,Woman
80,258486,DepthScenes,duration_manipulation_targetAtFixation,jsons/VE125_randls_54.json,http://54.235.29.9/FacialAge/BNav_EC2/DepthDuration/v2_depth_duration_MTurk/v2_DepthDuration_HTML.html#15,15,1770,884,1920,1080,8-29-2022,9-48-8,81,depth_duration_stimuli/001164_2014-06-17_15-35-46_260595134347_rgbf000085-resize_3/001164_2014-06-17_15-35-46_260595134347_rgbf000085-resize_3-target.png,125,2.354,3,1579,127,feet,jsons/VE125_randls_54.json,530750,941682,44,Woman
81,258486,DepthScenes,duration_manipulation_targetAtFixation,jsons/VE125_randls_54.json,http://54.235.29.9/FacialAge/BNav_EC2/DepthDuration/v2_depth_duration_MTurk/v2_DepthDuration_HTML.html#15,15,1770,884,1920,1080,8-29-2022,9-48-8,82,depth_duration_stimuli/001136_2014-06-17_15-19-41_260595134347_rgbf000076-resize_3/001136_2014-06-17_15-19-41_260595134347_rgbf000076-resize_3-target.png,125,1.8655,3,1611,125,feet,jsons/VE125_randls_54.json,530750,941682,44,Woman
82,258486,DepthScenes,duration_manipulation_targetAtFixation,jsons/VE125_randls_54.json,http://54.235.29.9/FacialAge/BNav_EC2/DepthDuration/v2_depth_duration_MTurk/v2_DepthDuration_HTML.html#15,15,1770,884,1920,1080,8-29-2022,9-48-8,83,depth_duration_stimuli/000506_2014-06-08_23-21-00_260595134347_rgbf000070-resize_7/000506_2014-06-08_23-21-00_260595134347_rgbf000070-resize_7-target.png,125,4.0585,5,2260,124,feet,jsons/VE125_randls_54.json,530750,941682,44,Woman
83,258486,DepthScenes,duration_manipulation_targetAtFixation,jsons/VE125_randls_54.json,http://54.235.29.9/FacialAge/BNav_EC2/DepthDuration/v2_depth_duration_MTurk/v2_DepthDuration_HTML.html#15,15,1770,884,1920,1080,8-29-2022,9-48-8,84,depth_duration_stimuli/003079_2014-06-15_15-18-20_094959634447_rgbf000152-resize_8/003079_2014-06-15_15-18-20_094959634447_rgbf000152-resize_8-target.png,125,2.8775,3,2211,117,feet,jsons/VE125_randls_54.json,530750,941682,44,Woman
84,258486,DepthScenes,duration_manipulation_targetAtFixation,jsons/VE125_randls_54.json,http://54.235.29.9/FacialAge/BNav_EC2/DepthDuration/v2_depth_duration_MTurk/v2_DepthDuration_HTML.html#15,15,1770,884,1920,1080,8-29-2022,9-48-8,85,depth_duration_stimuli/002964_2014-06-08_17-46-11_094959634447_rgbf000091-resize_4/002964_2014-06-08_17-46-11_094959634447_rgbf000091-resize_4-target.png,125,1.6909999999999998,2,1612,126,feet,jsons/VE125_randls_54.json,530750,941682,44,Woman
85,258486,DepthScenes,duration_manipulation_targetAtFixation,jsons/VE125_randls_54.json,http://54.235.29.9/FacialAge/BNav_EC2/DepthDuration/v2_depth_duration_MTurk/v2_DepthDuration_HTML.html#15,15,1770,884,1920,1080,8-29-2022,9-48-8,86,depth_duration_stimuli/002136_2014-06-25_21-18-03_260595134347_rgbf000109-resize_3/002136_2014-06-25_21-18-03_260595134347_rgbf000109-resize_3-target.png,125,1.9569999999999999,2,1602,124,feet,jsons/VE125_randls_54.json,530750,941682,44,Woman
86,258486,DepthScenes,duration_manipulation_targetAtFixation,jsons/VE125_randls_54.json,http://54.235.29.9/FacialAge/BNav_EC2/DepthDuration/v2_depth_duration_MTurk/v2_DepthDuration_HTML.html#15,15,1770,884,1920,1080,8-29-2022,9-48-8,87,depth_duration_stimuli/002725_2014-06-22_11-47-51_094959634447_rgbf000070-resize_1/002725_2014-06-22_11-47-51_094959634447_rgbf000070-resize_1-target.png,125,2.195,2,1731,125,feet,jsons/VE125_randls_54.json,530750,941682,44,Woman
87,258486,DepthScenes,duration_manipulation_targetAtFixation,jsons/VE125_randls_54.json,http://54.235.29.9/FacialAge/BNav_EC2/DepthDuration/v2_depth_duration_MTurk/v2_DepthDuration_HTML.html#15,15,1770,884,1920,1080,8-29-2022,9-48-8,88,depth_duration_stimuli/002344_2014-06-28_20-06-29_260595134347_rgbf000030-resize_1/002344_2014-06-28_20-06-29_260595134347_rgbf000030-resize_1-target.png,125,1.5795,2,2043,125,feet,jsons/VE125_randls_54.json,530750,941682,44,Woman
88,258486,DepthScenes,duration_manipulation_targetAtFixation,jsons/VE125_randls_54.json,http://54.235.29.9/FacialAge/BNav_EC2/DepthDuration/v2_depth_duration_MTurk/v2_DepthDuration_HTML.html#15,15,1770,884,1920,1080,8-29-2022,9-48-8,89,depth_duration_stimuli/001011_2014-06-08_23-18-54_260595134347_rgbf000044-resize_4/001011_2014-06-08_23-18-54_260595134347_rgbf000044-resize_4-target.png,125,2.4730000000000003,4,2475,126,feet,jsons/VE125_randls_54.json,530750,941682,44,Woman
89,258486,DepthScenes,duration_manipulation_targetAtFixation,jsons/VE125_randls_54.json,http://54.235.29.9/FacialAge/BNav_EC2/DepthDuration/v2_depth_duration_MTurk/v2_DepthDuration_HTML.html#15,15,1770,884,1920,1080,8-29-2022,9-48-8,90,depth_duration_stimuli/002875_2014-06-01_15-19-00_094959634447_rgbf000151-resize_1/002875_2014-06-01_15-19-00_094959634447_rgbf000151-resize_1-target.png,125,1.9675,2,1771,125,feet,jsons/VE125_randls_54.json,530750,941682,44,Woman
90,258486,DepthScenes,duration_manipulation_targetAtFixation,jsons/VE125_randls_54.json,http://54.235.29.9/FacialAge/BNav_EC2/DepthDuration/v2_depth_duration_MTurk/v2_DepthDuration_HTML.html#15,15,1770,884,1920,1080,8-29-2022,9-48-8,91,depth_duration_stimuli/003621_2014-05-23_18-06-08_094959634447_rgbf000101-resize_1/003621_2014-05-23_18-06-08_094959634447_rgbf000101-resize_1-target.png,125,3.9835,5,2107,126,feet,jsons/VE125_randls_54.json,530750,941682,44,Woman
91,258486,DepthScenes,duration_manipulation_targetAtFixation,jsons/VE125_randls_54.json,http://54.235.29.9/FacialAge/BNav_EC2/DepthDuration/v2_depth_duration_MTurk/v2_DepthDuration_HTML.html#15,15,1770,884,1920,1080,8-29-2022,9-48-8,92,depth_duration_stimuli/001584_2014-06-20_11-07-43_260595134347_rgbf000002-resize_1/001584_2014-06-20_11-07-43_260595134347_rgbf000002-resize_1-target.png,125,3.53,4,2043,126,feet,jsons/VE125_randls_54.json,530750,941682,44,Woman
92,258486,DepthScenes,duration_manipulation_targetAtFixation,jsons/VE125_randls_54.json,http://54.235.29.9/FacialAge/BNav_EC2/DepthDuration/v2_depth_duration_MTurk/v2_DepthDuration_HTML.html#15,15,1770,884,1920,1080,8-29-2022,9-48-8,93,depth_duration_stimuli/000739_2014-06-08_18-45-58_260595134347_rgbf000068-resize_1/000739_2014-06-08_18-45-58_260595134347_rgbf000068-resize_1-target.png,125,3.534,3,1635,125,feet,jsons/VE125_randls_54.json,530750,941682,44,Woman
93,258486,DepthScenes,duration_manipulation_targetAtFixation,jsons/VE125_randls_54.json,http://54.235.29.9/FacialAge/BNav_EC2/DepthDuration/v2_depth_duration_MTurk/v2_DepthDuration_HTML.html#15,15,1770,884,1920,1080,8-29-2022,9-48-8,94,depth_duration_stimuli/000734_2014-06-08_17-39-11_260595134347_rgbf000128-resize_2/000734_2014-06-08_17-39-11_260595134347_rgbf000128-resize_2-target.png,125,4.098,3,1570,125,feet,jsons/VE125_randls_54.json,530750,941682,44,Woman
94,258486,DepthScenes,duration_manipulation_targetAtFixation,jsons/VE125_randls_54.json,http://54.235.29.9/FacialAge/BNav_EC2/DepthDuration/v2_depth_duration_MTurk/v2_DepthDuration_HTML.html#15,15,1770,884,1920,1080,8-29-2022,9-48-8,95,depth_duration_stimuli/002763_2014-06-22_19-13-10_094959634447_rgbf000075-resize_4/002763_2014-06-22_19-13-10_094959634447_rgbf000075-resize_4-target.png,125,1.68375,1,1714,123,feet,jsons/VE125_randls_54.json,530750,941682,44,Woman
95,258486,DepthScenes,duration_manipulation_targetAtFixation,jsons/VE125_randls_54.json,http://54.235.29.9/FacialAge/BNav_EC2/DepthDuration/v2_depth_duration_MTurk/v2_DepthDuration_HTML.html#15,15,1770,884,1920,1080,8-29-2022,9-48-8,96,depth_duration_stimuli/002209_2014-06-28_18-36-10_260595134347_rgbf000051-resize_1/002209_2014-06-28_18-36-10_260595134347_rgbf000051-resize_1-target.png,125,2.057,2,2083,125,feet,jsons/VE125_randls_54.json,530750,941682,44,Woman
96,258486,DepthScenes,duration_manipulation_targetAtFixation,jsons/VE125_randls_54.json,http://54.235.29.9/FacialAge/BNav_EC2/DepthDuration/v2_depth_duration_MTurk/v2_DepthDuration_HTML.html#15,15,1770,884,1920,1080,8-29-2022,9-48-8,97,depth_duration_stimuli/002118_2014-06-25_20-32-08_260595134347_rgbf000078-resize_1/002118_2014-06-25_20-32-08_260595134347_rgbf000078-resize_1-target.png,125,2.6460000000000004,3,2347,126,feet,jsons/VE125_randls_54.json,530750,941682,44,Woman
97,258486,DepthScenes,duration_manipulation_targetAtFixation,jsons/VE125_randls_54.json,http://54.235.29.9/FacialAge/BNav_EC2/DepthDuration/v2_depth_duration_MTurk/v2_DepthDuration_HTML.html#15,15,1770,884,1920,1080,8-29-2022,9-48-8,98,depth_duration_stimuli/001516_2014-06-20_16-25-09_260595134347_rgbf000076-resize_2/001516_2014-06-20_16-25-09_260595134347_rgbf000076-resize_2-target.png,125,1.7445,5,2162,125,feet,jsons/VE125_randls_54.json,530750,941682,44,Woman
98,258486,DepthScenes,duration_manipulation_targetAtFixation,jsons/VE125_randls_54.json,http://54.235.29.9/FacialAge/BNav_EC2/DepthDuration/v2_depth_duration_MTurk/v2_DepthDuration_HTML.html#15,15,1770,884,1920,1080,8-29-2022,9-48-8,99,depth_duration_stimuli/001540_2014-06-20_17-01-05_260595134347_rgbf000086-resize_2/001540_2014-06-20_17-01-05_260595134347_rgbf000086-resize-original.jpg,125,1.459,0,2396,126,feet,jsons/VE125_randls_54.json,530750,941682,44,Woman
99,258486,DepthScenes,duration_manipulation_targetAtFixation,jsons/VE125_randls_54.json,http://54.235.29.9/FacialAge/BNav_EC2/DepthDuration/v2_depth_duration_MTurk/v2_DepthDuration_HTML.html#15,15,1770,884,1920,1080,8-29-2022,9-48-8,100,depth_duration_stimuli/000436_2014-06-09_22-25-11_260595134347_rgbf000137-resize_1/000436_2014-06-09_22-25-11_260595134347_rgbf000137-resize_1-target.png,125,4.0705,5,2227,127,feet,jsons/VE125_randls_54.json,530750,941682,44,Woman
100,258486,DepthScenes,duration_manipulation_targetAtFixation,jsons/VE125_randls_54.json,http://54.235.29.9/FacialAge/BNav_EC2/DepthDuration/v2_depth_duration_MTurk/v2_DepthDuration_HTML.html#15,15,1770,884,1920,1080,8-29-2022,9-48-8,101,depth_duration_stimuli/002444_2014-06-28_20-32-08_260595134347_rgbf000027-resize_0/002444_2014-06-28_20-32-08_260595134347_rgbf000027-resize_0-target.png,125,4.388999999999999,5,1844,125,feet,jsons/VE125_randls_54.json,530750,941682,44,Woman
101,258486,DepthScenes,duration_manipulation_targetAtFixation,jsons/VE125_randls_54.json,http://54.235.29.9/FacialAge/BNav_EC2/DepthDuration/v2_depth_duration_MTurk/v2_DepthDuration_HTML.html#15,15,1770,884,1920,1080,8-29-2022,9-48-8,102,depth_duration_stimuli/001110_2014-06-15_17-25-28_260595134347_rgbf000150-resize_1/001110_2014-06-15_17-25-28_260595134347_rgbf000150-resize_1-target.png,125,1.7115,3,1787,125,feet,jsons/VE125_randls_54.json,530750,941682,44,Woman
102,258486,DepthScenes,duration_manipulation_targetAtFixation,jsons/VE125_randls_54.json,http://54.235.29.9/FacialAge/BNav_EC2/DepthDuration/v2_depth_duration_MTurk/v2_DepthDuration_HTML.html#15,15,1770,884,1920,1080,8-29-2022,9-48-8,103,depth_duration_stimuli/000927_2014-06-09_16-32-30_260595134347_rgbf000123-resize_3/000927_2014-06-09_16-32-30_260595134347_rgbf000123-resize_3-target.png,125,2.6785,4,2283,124,feet,jsons/VE125_randls_54.json,530750,941682,44,Woman
103,258486,DepthScenes,duration_manipulation_targetAtFixation,jsons/VE125_randls_54.json,http://54.235.29.9/FacialAge/BNav_EC2/DepthDuration/v2_depth_duration_MTurk/v2_DepthDuration_HTML.html#15,15,1770,884,1920,1080,8-29-2022,9-48-8,104,depth_duration_stimuli/002989_2014-06-15_12-25-03_094959634447_rgbf000150-resize_3/002989_2014-06-15_12-25-03_094959634447_rgbf000150-resize_3-target.png,125,4.1975,3,1859,126,feet,jsons/VE125_randls_54.json,530750,941682,44,Woman
104,258486,DepthScenes,duration_manipulation_targetAtFixation,jsons/VE125_randls_54.json,http://54.235.29.9/FacialAge/BNav_EC2/DepthDuration/v2_depth_duration_MTurk/v2_DepthDuration_HTML.html#15,15,1770,884,1920,1080,8-29-2022,9-48-8,105,depth_duration_stimuli/000866_2014-06-09_20-45-42_260595134347_rgbf000139-resize_1/000866_2014-06-09_20-45-42_260595134347_rgbf000139-resize_1-target.png,125,3.2155,2,2531,125,feet,jsons/VE125_randls_54.json,530750,941682,44,Woman
105,258486,DepthScenes,duration_manipulation_targetAtFixation,jsons/VE125_randls_54.json,http://54.235.29.9/FacialAge/BNav_EC2/DepthDuration/v2_depth_duration_MTurk/v2_DepthDuration_HTML.html#15,15,1770,884,1920,1080,8-29-2022,9-48-8,106,depth_duration_stimuli/000522_2014-06-08_13-35-06_260595134347_rgbf000244-resize_1/000522_2014-06-08_13-35-06_260595134347_rgbf000244-resize_1-target.png,125,2.3715,2,1790,120,feet,jsons/VE125_randls_54.json,530750,941682,44,Woman
106,258486,DepthScenes,duration_manipulation_targetAtFixation,jsons/VE125_randls_54.json,http://54.235.29.9/FacialAge/BNav_EC2/DepthDuration/v2_depth_duration_MTurk/v2_DepthDuration_HTML.html#15,15,1770,884,1920,1080,8-29-2022,9-48-8,107,depth_duration_stimuli/002949_2014-06-26_15-57-42_094959634447_rgbf000079-resize_1/002949_2014-06-26_15-57-42_094959634447_rgbf000079-resize_1-target.png,125,1.8915,3,2587,126,feet,jsons/VE125_randls_54.json,530750,941682,44,Woman
107,258486,DepthScenes,duration_manipulation_targetAtFixation,jsons/VE125_randls_54.json,http://54.235.29.9/FacialAge/BNav_EC2/DepthDuration/v2_depth_duration_MTurk/v2_DepthDuration_HTML.html#15,15,1770,884,1920,1080,8-29-2022,9-48-8,108,depth_duration_stimuli/002663_2014-06-13_15-50-26_094959634447_rgbf000075-resize_1/002663_2014-06-13_15-50-26_094959634447_rgbf000075-resize_1-target.png,125,4.7495,12,2547,126,feet,jsons/VE125_randls_54.json,530750,941682,44,Woman
108,258486,DepthScenes,duration_manipulation_targetAtFixation,jsons/VE125_randls_54.json,http://54.235.29.9/FacialAge/BNav_EC2/DepthDuration/v2_depth_duration_MTurk/v2_DepthDuration_HTML.html#15,15,1770,884,1920,1080,8-29-2022,9-48-8,109,depth_duration_stimuli/000409_2014-06-04_19-23-33_260595134347_rgbf000067-resize_0/000409_2014-06-04_19-23-33_260595134347_rgbf000067-resize_0-target.png,125,3.7335,6,2356,127,feet,jsons/VE125_randls_54.json,530750,941682,44,Woman
109,258486,DepthScenes,duration_manipulation_targetAtFixation,jsons/VE125_randls_54.json,http://54.235.29.9/FacialAge/BNav_EC2/DepthDuration/v2_depth_duration_MTurk/v2_DepthDuration_HTML.html#15,15,1770,884,1920,1080,8-29-2022,9-48-8,110,depth_duration_stimuli/002988_2014-06-15_12-24-20_094959634447_rgbf000150-resize_1/002988_2014-06-15_12-24-20_094959634447_rgbf000150-resize_1-target.png,125,4.7669999999999995,11,3194,124,feet,jsons/VE125_randls_54.json,530750,941682,44,Woman
110,258486,DepthScenes,duration_manipulation_targetAtFixation,jsons/VE125_randls_54.json,http://54.235.29.9/FacialAge/BNav_EC2/DepthDuration/v2_depth_duration_MTurk/v2_DepthDuration_HTML.html#15,15,1770,884,1920,1080,8-29-2022,9-48-8,111,depth_duration_stimuli/001052_2014-06-08_18-24-54_260595134347_rgbf000130-resize_1/001052_2014-06-08_18-24-54_260595134347_rgbf000130-resize_1-target.png,125,4.1045,5,2355,126,feet,jsons/VE125_randls_54.json,530750,941682,44,Woman
111,258486,DepthScenes,duration_manipulation_targetAtFixation,jsons/VE125_randls_54.json,http://54.235.29.9/FacialAge/BNav_EC2/DepthDuration/v2_depth_duration_MTurk/v2_DepthDuration_HTML.html#15,15,1770,884,1920,1080,8-29-2022,9-48-8,112,depth_duration_stimuli/001150_2014-06-17_15-27-34_260595134347_rgbf000108-resize_2/001150_2014-06-17_15-27-34_260595134347_rgbf000108-resize_2-target.png,125,4.0325,5,1572,127,feet,jsons/VE125_randls_54.json,530750,941682,44,Woman
112,258486,DepthScenes,duration_manipulation_targetAtFixation,jsons/VE125_randls_54.json,http://54.235.29.9/FacialAge/BNav_EC2/DepthDuration/v2_depth_duration_MTurk/v2_DepthDuration_HTML.html#15,15,1770,884,1920,1080,8-29-2022,9-48-8,113,depth_duration_stimuli/000665_2014-06-09_20-42-35_260595134347_rgbf000110-resize_1/000665_2014-06-09_20-42-35_260595134347_rgbf000110-resize_1-target.png,125,3.057,3,2531,126,feet,jsons/VE125_randls_54.json,530750,941682,44,Woman
113,258486,DepthScenes,duration_manipulation_targetAtFixation,jsons/VE125_randls_54.json,http://54.235.29.9/FacialAge/BNav_EC2/DepthDuration/v2_depth_duration_MTurk/v2_DepthDuration_HTML.html#15,15,1770,884,1920,1080,8-29-2022,9-48-8,114,depth_duration_stimuli/002039_2014-06-24_20-22-38_260595134347_rgbf000084-resize_1/002039_2014-06-24_20-22-38_260595134347_rgbf000084-resize_1-target.png,125,4.408,6,2475,124,feet,jsons/VE125_randls_54.json,530750,941682,44,Woman
114,258486,DepthScenes,duration_manipulation_targetAtFixation,jsons/VE125_randls_54.json,http://54.235.29.9/FacialAge/BNav_EC2/DepthDuration/v2_depth_duration_MTurk/v2_DepthDuration_HTML.html#15,15,1770,884,1920,1080,8-29-2022,9-48-8,115,depth_duration_stimuli/002103_2014-06-25_20-00-40_260595134347_rgbf000049-resize_0/002103_2014-06-25_20-00-40_260595134347_rgbf000049-resize_0-target.png,125,4.105,4,2210,125,feet,jsons/VE125_randls_54.json,530750,941682,44,Woman
115,258486,DepthScenes,duration_manipulation_targetAtFixation,jsons/VE125_randls_54.json,http://54.235.29.9/FacialAge/BNav_EC2/DepthDuration/v2_depth_duration_MTurk/v2_DepthDuration_HTML.html#15,15,1770,884,1920,1080,8-29-2022,9-48-8,116,depth_duration_stimuli/001170_2014-06-17_15-43-44_260595134347_rgbf000096-resize_6/001170_2014-06-17_15-43-44_260595134347_rgbf000096-resize-original.jpg,125,1.1909999999999998,0,2514,124,feet,jsons/VE125_randls_54.json,530750,941682,44,Woman
116,258486,DepthScenes,duration_manipulation_targetAtFixation,jsons/VE125_randls_54.json,http://54.235.29.9/FacialAge/BNav_EC2/DepthDuration/v2_depth_duration_MTurk/v2_DepthDuration_HTML.html#15,15,1770,884,1920,1080,8-29-2022,9-48-8,117,depth_duration_stimuli/000810_2014-06-08_17-20-01_260595134347_rgbf000105-resize_0/000810_2014-06-08_17-20-01_260595134347_rgbf000105-resize_0-target.png,125,1.4865,2,2788,126,feet,jsons/VE125_randls_54.json,530750,941682,44,Woman
117,258486,DepthScenes,duration_manipulation_targetAtFixation,jsons/VE125_randls_54.json,http://54.235.29.9/FacialAge/BNav_EC2/DepthDuration/v2_depth_duration_MTurk/v2_DepthDuration_HTML.html#15,15,1770,884,1920,1080,8-29-2022,9-48-8,118,depth_duration_stimuli/001214_2014-06-17_16-13-55_260595134347_rgbf000111-resize_0/001214_2014-06-17_16-13-55_260595134347_rgbf000111-resize_0-target.png,125,2.6505,4,2534,112,feet,jsons/VE125_randls_54.json,530750,941682,44,Woman
118,258486,DepthScenes,duration_manipulation_targetAtFixation,jsons/VE125_randls_54.json,http://54.235.29.9/FacialAge/BNav_EC2/DepthDuration/v2_depth_duration_MTurk/v2_DepthDuration_HTML.html#15,15,1770,884,1920,1080,8-29-2022,9-48-8,119,depth_duration_stimuli/000917_2014-06-09_22-45-29_260595134347_rgbf000149-resize_3/000917_2014-06-09_22-45-29_260595134347_rgbf000149-resize_3-target.png,125,4.1865,7,2218,125,feet,jsons/VE125_randls_54.json,530750,941682,44,Woman
119,258486,DepthScenes,duration_manipulation_targetAtFixation,jsons/VE125_randls_54.json,http://54.235.29.9/FacialAge/BNav_EC2/DepthDuration/v2_depth_duration_MTurk/v2_DepthDuration_HTML.html#15,15,1770,884,1920,1080,8-29-2022,9-48-8,120,depth_duration_stimuli/002323_2014-06-28_20-01-54_260595134347_rgbf000051-resize_4/002323_2014-06-28_20-01-54_260595134347_rgbf000051-resize_4-target.png,125,3.7310000000000003,12,2163,124,feet,jsons/VE125_randls_54.json,530750,941682,44,Woman
120,258486,DepthScenes,duration_manipulation_targetAtFixation,jsons/VE125_randls_54.json,http://54.235.29.9/FacialAge/BNav_EC2/DepthDuration/v2_depth_duration_MTurk/v2_DepthDuration_HTML.html#15,15,1770,884,1920,1080,8-29-2022,9-48-8,121,depth_duration_stimuli/001555_2014-06-20_17-12-10_260595134347_rgbf000065-resize_4/001555_2014-06-20_17-12-10_260595134347_rgbf000065-resize_4-target.png,125,1.633,5,2899,125,feet,jsons/VE125_randls_54.json,530750,941682,44,Woman
121,258486,DepthScenes,duration_manipulation_targetAtFixation,jsons/VE125_randls_54.json,http://54.235.29.9/FacialAge/BNav_EC2/DepthDuration/v2_depth_duration_MTurk/v2_DepthDuration_HTML.html#15,15,1770,884,1920,1080,8-29-2022,9-48-8,122,depth_duration_stimuli/000103_2014-05-14_22-01-17_260595134347_rgbf000152-resize_5/000103_2014-05-14_22-01-17_260595134347_rgbf000152-resize_5-target.png,125,1.993,5,1787,126,feet,jsons/VE125_randls_54.json,530750,941682,44,Woman
122,258486,DepthScenes,duration_manipulation_targetAtFixation,jsons/VE125_randls_54.json,http://54.235.29.9/FacialAge/BNav_EC2/DepthDuration/v2_depth_duration_MTurk/v2_DepthDuration_HTML.html#15,15,1770,884,1920,1080,8-29-2022,9-48-8,123,depth_duration_stimuli/002213_2014-06-28_18-37-58_260595134347_rgbf000055-resize_1/002213_2014-06-28_18-37-58_260595134347_rgbf000055-resize_1-target.png,125,3.62,16,2972,126,feet,jsons/VE125_randls_54.json,530750,941682,44,Woman
123,258486,DepthScenes,duration_manipulation_targetAtFixation,jsons/VE125_randls_54.json,http://54.235.29.9/FacialAge/BNav_EC2/DepthDuration/v2_depth_duration_MTurk/v2_DepthDuration_HTML.html#15,15,1770,884,1920,1080,8-29-2022,9-48-8,124,depth_duration_stimuli/000691_2014-06-08_13-08-50_260595134347_rgbf000132-resize_3/000691_2014-06-08_13-08-50_260595134347_rgbf000132-resize_3-target.png,125,4.1530000000000005,15,2874,125,feet,jsons/VE125_randls_54.json,530750,941682,44,Woman
124,258486,DepthScenes,duration_manipulation_targetAtFixation,jsons/VE125_randls_54.json,http://54.235.29.9/FacialAge/BNav_EC2/DepthDuration/v2_depth_duration_MTurk/v2_DepthDuration_HTML.html#15,15,1770,884,1920,1080,8-29-2022,9-48-8,125,depth_duration_stimuli/000878_2014-06-08_22-52-45_260595134347_rgbf000045-resize_2/000878_2014-06-08_22-52-45_260595134347_rgbf000045-resize_2-target.png,125,2.092,6,3170,124,feet,jsons/VE125_randls_54.json,530750,941682,44,Woman
125,258486,DepthScenes,duration_manipulation_targetAtFixation,jsons/VE125_randls_54.json,http://54.235.29.9/FacialAge/BNav_EC2/DepthDuration/v2_depth_duration_MTurk/v2_DepthDuration_HTML.html#15,15,1770,884,1920,1080,8-29-2022,9-48-8,126,depth_duration_stimuli/002953_2014-06-08_17-32-18_094959634447_rgbf000059-resize_5/002953_2014-06-08_17-32-18_094959634447_rgbf000059-resize_5-target.png,125,1.551,3,2252,125,feet,jsons/VE125_randls_54.json,530750,941682,44,Woman
126,258486,DepthScenes,duration_manipulation_targetAtFixation,jsons/VE125_randls_54.json,http://54.235.29.9/FacialAge/BNav_EC2/DepthDuration/v2_depth_duration_MTurk/v2_DepthDuration_HTML.html#15,15,1770,884,1920,1080,8-29-2022,9-48-8,127,depth_duration_stimuli/001059_2014-06-08_21-53-27_260595134347_rgbf000061-resize_4/001059_2014-06-08_21-53-27_260595134347_rgbf000061-resize_4-target.png,125,2.4185,4,2723,125,feet,jsons/VE125_randls_54.json,530750,941682,44,Woman
127,258486,DepthScenes,duration_manipulation_targetAtFixation,jsons/VE125_randls_54.json,http://54.235.29.9/FacialAge/BNav_EC2/DepthDuration/v2_depth_duration_MTurk/v2_DepthDuration_HTML.html#15,15,1770,884,1920,1080,8-29-2022,9-48-8,128,depth_duration_stimuli/001032_2014-06-08_13-23-17_260595134347_rgbf000021-resize_3/001032_2014-06-08_13-23-17_260595134347_rgbf000021-resize_3-target.png,125,3.2725,4,2412,126,feet,jsons/VE125_randls_54.json,530750,941682,44,Woman
128,258486,DepthScenes,duration_manipulation_targetAtFixation,jsons/VE125_randls_54.json,http://54.235.29.9/FacialAge/BNav_EC2/DepthDuration/v2_depth_duration_MTurk/v2_DepthDuration_HTML.html#15,15,1770,884,1920,1080,8-29-2022,9-48-8,129,depth_duration_stimuli/001167_2014-06-17_15-38-07_260595134347_rgbf000108-resize_0/001167_2014-06-17_15-38-07_260595134347_rgbf000108-resize_0-target.png,125,1.8505,2,1659,125,feet,jsons/VE125_randls_54.json,530750,941682,44,Woman
129,258486,DepthScenes,duration_manipulation_targetAtFixation,jsons/VE125_randls_54.json,http://54.235.29.9/FacialAge/BNav_EC2/DepthDuration/v2_depth_duration_MTurk/v2_DepthDuration_HTML.html#15,15,1770,884,1920,1080,8-29-2022,9-48-8,130,depth_duration_stimuli/003587_2014-05-23_16-48-02_094959634447_rgbf002384-resize_2/003587_2014-05-23_16-48-02_094959634447_rgbf002384-resize_2-target.png,125,1.357,2,1515,125,feet,jsons/VE125_randls_54.json,530750,941682,44,Woman
130,258486,DepthScenes,duration_manipulation_targetAtFixation,jsons/VE125_randls_54.json,http://54.235.29.9/FacialAge/BNav_EC2/DepthDuration/v2_depth_duration_MTurk/v2_DepthDuration_HTML.html#15,15,1770,884,1920,1080,8-29-2022,9-48-8,131,depth_duration_stimuli/000009_2014-05-26_14-32-05_260595134347_rgbf000034-resize_3/000009_2014-05-26_14-32-05_260595134347_rgbf000034-resize_3-target.png,125,3.8715,18,3163,125,feet,jsons/VE125_randls_54.json,530750,941682,44,Woman
131,258486,DepthScenes,duration_manipulation_targetAtFixation,jsons/VE125_randls_54.json,http://54.235.29.9/FacialAge/BNav_EC2/DepthDuration/v2_depth_duration_MTurk/v2_DepthDuration_HTML.html#15,15,1770,884,1920,1080,8-29-2022,9-48-8,132,depth_duration_stimuli/001828_2014-06-26_21-40-03_260595134347_rgbf000024-resize_0/001828_2014-06-26_21-40-03_260595134347_rgbf000024-resize_0-target.png,125,4.8260000000000005,23,3107,125,feet,jsons/VE125_randls_54.json,530750,941682,44,Woman
132,258486,DepthScenes,duration_manipulation_targetAtFixation,jsons/VE125_randls_54.json,http://54.235.29.9/FacialAge/BNav_EC2/DepthDuration/v2_depth_duration_MTurk/v2_DepthDuration_HTML.html#15,15,1770,884,1920,1080,8-29-2022,9-48-8,133,depth_duration_stimuli/001199_2014-06-17_16-03-48_260595134347_rgbf000077-resize_0/001199_2014-06-17_16-03-48_260595134347_rgbf000077-resize_0-target.png,125,3.4375,14,2842,125,feet,jsons/VE125_randls_54.json,530750,941682,44,Woman
133,258486,DepthScenes,duration_manipulation_targetAtFixation,jsons/VE125_randls_54.json,http://54.235.29.9/FacialAge/BNav_EC2/DepthDuration/v2_depth_duration_MTurk/v2_DepthDuration_HTML.html#15,15,1770,884,1920,1080,8-29-2022,9-48-8,134,depth_duration_stimuli/000502_2014-06-08_23-02-32_260595134347_rgbf000063-resize_4/000502_2014-06-08_23-02-32_260595134347_rgbf000063-resize_4-target.png,125,2.431,6,1971,124,feet,jsons/VE125_randls_54.json,530750,941682,44,Woman
134,258486,DepthScenes,duration_manipulation_targetAtFixation,jsons/VE125_randls_54.json,http://54.235.29.9/FacialAge/BNav_EC2/DepthDuration/v2_depth_duration_MTurk/v2_DepthDuration_HTML.html#15,15,1770,884,1920,1080,8-29-2022,9-48-8,135,depth_duration_stimuli/002072_2014-06-24_21-48-06_260595134347_rgbf000115-resize_0/002072_2014-06-24_21-48-06_260595134347_rgbf000115-resize-original.jpg,125,4.702,0,2075,125,feet,jsons/VE125_randls_54.json,530750,941682,44,Woman
135,258486,DepthScenes,duration_manipulation_targetAtFixation,jsons/VE125_randls_54.json,http://54.235.29.9/FacialAge/BNav_EC2/DepthDuration/v2_depth_duration_MTurk/v2_DepthDuration_HTML.html#15,15,1770,884,1920,1080,8-29-2022,9-48-8,136,depth_duration_stimuli/002375_2014-06-28_20-13-44_260595134347_rgbf000032-resize_1/002375_2014-06-28_20-13-44_260595134347_rgbf000032-resize_1-target.png,125,4.0175,7,2843,123,feet,jsons/VE125_randls_54.json,530750,941682,44,Woman
136,258486,DepthScenes,duration_manipulation_targetAtFixation,jsons/VE125_randls_54.json,http://54.235.29.9/FacialAge/BNav_EC2/DepthDuration/v2_depth_duration_MTurk/v2_DepthDuration_HTML.html#15,15,1770,884,1920,1080,8-29-2022,9-48-8,137,depth_duration_stimuli/002657_2014-06-13_15-29-54_094959634447_rgbf000150-resize_1/002657_2014-06-13_15-29-54_094959634447_rgbf000150-resize_1-target.png,125,4.919,7,2650,125,feet,jsons/VE125_randls_54.json,530750,941682,44,Woman
137,258486,DepthScenes,duration_manipulation_targetAtFixation,jsons/VE125_randls_54.json,http://54.235.29.9/FacialAge/BNav_EC2/DepthDuration/v2_depth_duration_MTurk/v2_DepthDuration_HTML.html#15,15,1770,884,1920,1080,8-29-2022,9-48-8,138,depth_duration_stimuli/002509_2014-06-24_13-19-22_094959634447_rgbf000077-resize_0/002509_2014-06-24_13-19-22_094959634447_rgbf000077-resize_0-target.png,125,1.3065,4,2459,125,feet,jsons/VE125_randls_54.json,530750,941682,44,Woman
138,258486,DepthScenes,duration_manipulation_targetAtFixation,jsons/VE125_randls_54.json,http://54.235.29.9/FacialAge/BNav_EC2/DepthDuration/v2_depth_duration_MTurk/v2_DepthDuration_HTML.html#15,15,1770,884,1920,1080,8-29-2022,9-48-8,139,depth_duration_stimuli/003338_2014-05-20_11-01-23_094959634447_rgbf000051-resize_6/003338_2014-05-20_11-01-23_094959634447_rgbf000051-resize_6-target.png,125,1.693,0,4907,126,feet,jsons/VE125_randls_54.json,530750,941682,44,Woman
139,258486,DepthScenes,duration_manipulation_targetAtFixation,jsons/VE125_randls_54.json,http://54.235.29.9/FacialAge/BNav_EC2/DepthDuration/v2_depth_duration_MTurk/v2_DepthDuration_HTML.html#15,15,1770,884,1920,1080,8-29-2022,9-48-8,140,depth_duration_stimuli/003070_2014-06-15_14-58-27_094959634447_rgbf000150-resize_3/003070_2014-06-15_14-58-27_094959634447_rgbf000150-resize_3-target.png,125,2.9415,12,2187,126,feet,jsons/VE125_randls_54.json,530750,941682,44,Woman
140,258486,DepthScenes,duration_manipulation_targetAtFixation,jsons/VE125_randls_54.json,http://54.235.29.9/FacialAge/BNav_EC2/DepthDuration/v2_depth_duration_MTurk/v2_DepthDuration_HTML.html#15,15,1770,884,1920,1080,8-29-2022,9-48-8,141,depth_duration_stimuli/000943_2014-06-09_19-31-07_260595134347_rgbf000128-resize_1/000943_2014-06-09_19-31-07_260595134347_rgbf000128-resize_1-target.png,125,1.9765,6,2211,126,feet,jsons/VE125_randls_54.json,530750,941682,44,Woman
141,258486,DepthScenes,duration_manipulation_targetAtFixation,jsons/VE125_randls_54.json,http://54.235.29.9/FacialAge/BNav_EC2/DepthDuration/v2_depth_duration_MTurk/v2_DepthDuration_HTML.html#15,15,1770,884,1920,1080,8-29-2022,9-48-8,142,depth_duration_stimuli/001570_2014-06-20_17-21-09_260595134347_rgbf000135-resize_4/001570_2014-06-20_17-21-09_260595134347_rgbf000135-resize_4-target.png,125,4.467,24,3083,125,feet,jsons/VE125_randls_54.json,530750,941682,44,Woman
142,258486,DepthScenes,duration_manipulation_targetAtFixation,jsons/VE125_randls_54.json,http://54.235.29.9/FacialAge/BNav_EC2/DepthDuration/v2_depth_duration_MTurk/v2_DepthDuration_HTML.html#15,15,1770,884,1920,1080,8-29-2022,9-48-8,143,depth_duration_stimuli/001392_2014-06-19_16-07-59_260595134347_rgbf000046-resize_1/001392_2014-06-19_16-07-59_260595134347_rgbf000046-resize_1-target.png,125,4.135,16,2451,125,feet,jsons/VE125_randls_54.json,530750,941682,44,Woman
143,258486,DepthScenes,duration_manipulation_targetAtFixation,jsons/VE125_randls_54.json,http://54.235.29.9/FacialAge/BNav_EC2/DepthDuration/v2_depth_duration_MTurk/v2_DepthDuration_HTML.html#15,15,1770,884,1920,1080,8-29-2022,9-48-8,144,depth_duration_stimuli/001810_2014-06-26_20-51-35_260595134347_rgbf000040-resize_3/001810_2014-06-26_20-51-35_260595134347_rgbf000040-resize_3-target.png,125,2.2525,5,2337,124,feet,jsons/VE125_randls_54.json,530750,941682,44,Woman
144,258486,DepthScenes,duration_manipulation_targetAtFixation,jsons/VE125_randls_54.json,http://54.235.29.9/FacialAge/BNav_EC2/DepthDuration/v2_depth_duration_MTurk/v2_DepthDuration_HTML.html#15,15,1770,884,1920,1080,8-29-2022,9-48-8,145,depth_duration_stimuli/003010_2014-06-15_12-54-35_094959634447_rgbf000112-resize_0/003010_2014-06-15_12-54-35_094959634447_rgbf000112-resize_0-target.png,125,3.1185,3,2025,124,feet,jsons/VE125_randls_54.json,530750,941682,44,Woman
145,258486,DepthScenes,duration_manipulation_targetAtFixation,jsons/VE125_randls_54.json,http://54.235.29.9/FacialAge/BNav_EC2/DepthDuration/v2_depth_duration_MTurk/v2_DepthDuration_HTML.html#15,15,1770,884,1920,1080,8-29-2022,9-48-8,146,depth_duration_stimuli/001498_2014-06-19_17-45-14_260595134347_rgbf000129-resize_4/001498_2014-06-19_17-45-14_260595134347_rgbf000129-resize-original.jpg,125,1.4075,0,2546,124,feet,jsons/VE125_randls_54.json,530750,941682,44,Woman
146,258486,DepthScenes,duration_manipulation_targetAtFixation,jsons/VE125_randls_54.json,http://54.235.29.9/FacialAge/BNav_EC2/DepthDuration/v2_depth_duration_MTurk/v2_DepthDuration_HTML.html#15,15,1770,884,1920,1080,8-29-2022,9-48-8,147,depth_duration_stimuli/000470_2014-06-09_19-42-40_260595134347_rgbf000094-resize_1/000470_2014-06-09_19-42-40_260595134347_rgbf000094-resize_1-target.png,125,1.831,3,1740,126,feet,jsons/VE125_randls_54.json,530750,941682,44,Woman
147,258486,DepthScenes,duration_manipulation_targetAtFixation,jsons/VE125_randls_54.json,http://54.235.29.9/FacialAge/BNav_EC2/DepthDuration/v2_depth_duration_MTurk/v2_DepthDuration_HTML.html#15,15,1770,884,1920,1080,8-29-2022,9-48-8,148,depth_duration_stimuli/000109_2014-05-14_23-41-52_260595134347_rgbf000035-resize_9/000109_2014-05-14_23-41-52_260595134347_rgbf000035-resize_9-target.png,125,1.3545,2,1564,125,feet,jsons/VE125_randls_54.json,530750,941682,44,Woman
148,258486,DepthScenes,duration_manipulation_targetAtFixation,jsons/VE125_randls_54.json,http://54.235.29.9/FacialAge/BNav_EC2/DepthDuration/v2_depth_duration_MTurk/v2_DepthDuration_HTML.html#15,15,1770,884,1920,1080,8-29-2022,9-48-8,149,depth_duration_stimuli/002445_2014-06-28_20-32-16_260595134347_rgbf000029-resize_4/002445_2014-06-28_20-32-16_260595134347_rgbf000029-resize_4-target.png,125,2.5315,3,1538,125,feet,jsons/VE125_randls_54.json,530750,941682,44,Woman
149,258486,DepthScenes,duration_manipulation_targetAtFixation,jsons/VE125_randls_54.json,http://54.235.29.9/FacialAge/BNav_EC2/DepthDuration/v2_depth_duration_MTurk/v2_DepthDuration_HTML.html#15,15,1770,884,1920,1080,8-29-2022,9-48-8,150,depth_duration_stimuli/000780_2014-06-08_22-28-29_260595134347_rgbf000126-resize_1/000780_2014-06-08_22-28-29_260595134347_rgbf000126-resize_1-target.png,125,3.3825,8,2491,125,feet,jsons/VE125_randls_54.json,530750,941682,44,Woman
150,258486,DepthScenes,duration_manipulation_targetAtFixation,jsons/VE125_randls_54.json,http://54.235.29.9/FacialAge/BNav_EC2/DepthDuration/v2_depth_duration_MTurk/v2_DepthDuration_HTML.html#15,15,1770,884,1920,1080,8-29-2022,9-48-8,151,depth_duration_stimuli/000493_2014-06-09_21-01-18_260595134347_rgbf000196-resize_3/000493_2014-06-09_21-01-18_260595134347_rgbf000196-resize_3-target.png,125,3.44,8,2146,125,feet,jsons/VE125_randls_54.json,530750,941682,44,Woman
151,258486,DepthScenes,duration_manipulation_targetAtFixation,jsons/VE125_randls_54.json,http://54.235.29.9/FacialAge/BNav_EC2/DepthDuration/v2_depth_duration_MTurk/v2_DepthDuration_HTML.html#15,15,1770,884,1920,1080,8-29-2022,9-48-8,152,depth_duration_stimuli/000191_2014-05-12_17-07-38_260595134347_rgbf000199-resize_0/000191_2014-05-12_17-07-38_260595134347_rgbf000199-resize_0-target.png,125,3.7995,16,2844,132,feet,jsons/VE125_randls_54.json,530750,941682,44,Woman
152,258486,DepthScenes,duration_manipulation_targetAtFixation,jsons/VE125_randls_54.json,http://54.235.29.9/FacialAge/BNav_EC2/DepthDuration/v2_depth_duration_MTurk/v2_DepthDuration_HTML.html#15,15,1770,884,1920,1080,8-29-2022,9-48-8,153,depth_duration_stimuli/002272_2014-06-28_18-53-56_260595134347_rgbf000067-resize_2/002272_2014-06-28_18-53-56_260595134347_rgbf000067-resize_2-target.png,125,1.138,4,2675,125,feet,jsons/VE125_randls_54.json,530750,941682,44,Woman
153,258486,DepthScenes,duration_manipulation_targetAtFixation,jsons/VE125_randls_54.json,http://54.235.29.9/FacialAge/BNav_EC2/DepthDuration/v2_depth_duration_MTurk/v2_DepthDuration_HTML.html#15,15,1770,884,1920,1080,8-29-2022,9-48-8,154,depth_duration_stimuli/001571_2014-06-20_17-21-32_260595134347_rgbf000089-resize_1/001571_2014-06-20_17-21-32_260595134347_rgbf000089-resize_1-target.png,125,1.86,3,1684,125,feet,jsons/VE125_randls_54.json,530750,941682,44,Woman
154,258486,DepthScenes,duration_manipulation_targetAtFixation,jsons/VE125_randls_54.json,http://54.235.29.9/FacialAge/BNav_EC2/DepthDuration/v2_depth_duration_MTurk/v2_DepthDuration_HTML.html#15,15,1770,884,1920,1080,8-29-2022,9-48-8,155,depth_duration_stimuli/000692_2014-06-08_13-09-42_260595134347_rgbf000199-resize_2/000692_2014-06-08_13-09-42_260595134347_rgbf000199-resize_2-target.png,125,3.661,34,3410,125,feet,jsons/VE125_randls_54.json,530750,941682,44,Woman
155,258486,DepthScenes,duration_manipulation_targetAtFixation,jsons/VE125_randls_54.json,http://54.235.29.9/FacialAge/BNav_EC2/DepthDuration/v2_depth_duration_MTurk/v2_DepthDuration_HTML.html#15,15,1770,884,1920,1080,8-29-2022,9-48-8,156,depth_duration_stimuli/001094_2014-06-15_17-36-00_260595134347_rgbf000205-resize_0/001094_2014-06-15_17-36-00_260595134347_rgbf000205-resize_0-target.png,125,4.2175,22,2651,126,feet,jsons/VE125_randls_54.json,530750,941682,44,Woman
156,258486,DepthScenes,duration_manipulation_targetAtFixation,jsons/VE125_randls_54.json,http://54.235.29.9/FacialAge/BNav_EC2/DepthDuration/v2_depth_duration_MTurk/v2_DepthDuration_HTML.html#15,15,1770,884,1920,1080,8-29-2022,9-48-8,157,depth_duration_stimuli/000788_2014-06-08_22-34-36_260595134347_rgbf000131-resize_1/000788_2014-06-08_22-34-36_260595134347_rgbf000131-resize_1-target.png,125,3.359,12,2381,126,feet,jsons/VE125_randls_54.json,530750,941682,44,Woman
157,258486,DepthScenes,duration_manipulation_targetAtFixation,jsons/VE125_randls_54.json,http://54.235.29.9/FacialAge/BNav_EC2/DepthDuration/v2_depth_duration_MTurk/v2_DepthDuration_HTML.html#15,15,1770,884,1920,1080,8-29-2022,9-48-8,158,depth_duration_stimuli/001235_2014-06-17_16-37-36_260595134347_rgbf000084-resize_4/001235_2014-06-17_16-37-36_260595134347_rgbf000084-resize_4-target.png,125,3.6605,16,3202,126,feet,jsons/VE125_randls_54.json,530750,941682,44,Woman
158,258486,DepthScenes,duration_manipulation_targetAtFixation,jsons/VE125_randls_54.json,http://54.235.29.9/FacialAge/BNav_EC2/DepthDuration/v2_depth_duration_MTurk/v2_DepthDuration_HTML.html#15,15,1770,884,1920,1080,8-29-2022,9-48-8,159,depth_duration_stimuli/001133_2014-06-17_14-49-16_260595134347_rgbf000100-resize_0/001133_2014-06-17_14-49-16_260595134347_rgbf000100-resize_0-target.png,125,4.2115,17,2971,125,feet,jsons/VE125_randls_54.json,530750,941682,44,Woman
159,258486,DepthScenes,duration_manipulation_targetAtFixation,jsons/VE125_randls_54.json,http://54.235.29.9/FacialAge/BNav_EC2/DepthDuration/v2_depth_duration_MTurk/v2_DepthDuration_HTML.html#15,15,1770,884,1920,1080,8-29-2022,9-48-8,160,depth_duration_stimuli/001132_2014-06-17_14-48-54_260595134347_rgbf000100-resize_2/001132_2014-06-17_14-48-54_260595134347_rgbf000100-resize_2-target.png,125,3.753,17,2306,125,feet,jsons/VE125_randls_54.json,530750,941682,44,Woman
160,258486,DepthScenes,duration_manipulation_targetAtFixation,jsons/VE125_randls_54.json,http://54.235.29.9/FacialAge/BNav_EC2/DepthDuration/v2_depth_duration_MTurk/v2_DepthDuration_HTML.html#15,15,1770,884,1920,1080,8-29-2022,9-48-8,161,depth_duration_stimuli/001808_2014-06-26_20-50-58_260595134347_rgbf000029-resize_1/001808_2014-06-26_20-50-58_260595134347_rgbf000029-resize_1-target.png,125,4.249,22,2467,125,feet,jsons/VE125_randls_54.json,530750,941682,44,Woman
161,258486,DepthScenes,duration_manipulation_targetAtFixation,jsons/VE125_randls_54.json,http://54.235.29.9/FacialAge/BNav_EC2/DepthDuration/v2_depth_duration_MTurk/v2_DepthDuration_HTML.html#15,15,1770,884,1920,1080,8-29-2022,9-48-8,162,depth_duration_stimuli/001815_2014-06-26_20-52-55_260595134347_rgbf000020-resize_0/001815_2014-06-26_20-52-55_260595134347_rgbf000020-resize_0-target.png,125,3.3865,22,2579,125,feet,jsons/VE125_randls_54.json,530750,941682,44,Woman
162,258486,DepthScenes,duration_manipulation_targetAtFixation,jsons/VE125_randls_54.json,http://54.235.29.9/FacialAge/BNav_EC2/DepthDuration/v2_depth_duration_MTurk/v2_DepthDuration_HTML.html#15,15,1770,884,1920,1080,8-29-2022,9-48-8,163,depth_duration_stimuli/000736_2014-06-08_18-24-15_260595134347_rgbf000206-resize_3/000736_2014-06-08_18-24-15_260595134347_rgbf000206-resize_3-target.png,125,3.515,16,3426,124,feet,jsons/VE125_randls_54.json,530750,941682,44,Woman
163,258486,DepthScenes,duration_manipulation_targetAtFixation,jsons/VE125_randls_54.json,http://54.235.29.9/FacialAge/BNav_EC2/DepthDuration/v2_depth_duration_MTurk/v2_DepthDuration_HTML.html#15,15,1770,884,1920,1080,8-29-2022,9-48-8,164,depth_duration_stimuli/000137_2014-05-20_17-04-49_260595134347_rgbf000120-resize_1/000137_2014-05-20_17-04-49_260595134347_rgbf000120-resize_1-target.png,125,3.786,22,2339,126,feet,jsons/VE125_randls_54.json,530750,941682,44,Woman
