,subjID,experimentName,versionName,sequenceName,url,selected_row,windowWidth,windowHeight,screenWidth,screenHeight,startDate,startTime,trial,stimulus,duration,actual_depth,depth_estimate,trial_RT,log_sceneDuration,unitSelection,seq_filepath,experimentTime,totalTime,age,gender
0,258754,DepthScenes,duration_manipulation_targetAtFixation,jsons/VE125_randls_3.json,http://54.235.29.9/FacialAge/BNav_EC2/DepthDuration/v2_depth_duration_MTurk/v2_DepthDuration_HTML.html#100,100,1717,1144,2560,1440,8-21-2022,8-5-37,1,depth_duration_stimuli/000368_2014-06-09_15-53-01_260595134347_rgbf000155-resize_2/000368_2014-06-09_15-53-01_260595134347_rgbf000155-resize_2-target.png,125,2.4859999999999998,0,1869,125,feet,jsons/VE125_randls_3.json,467749,602660,42,Man
1,258754,DepthScenes,duration_manipulation_targetAtFixation,jsons/VE125_randls_3.json,http://54.235.29.9/FacialAge/BNav_EC2/DepthDuration/v2_depth_duration_MTurk/v2_DepthDuration_HTML.html#100,100,1717,1144,2560,1440,8-21-2022,8-5-37,2,depth_duration_stimuli/002678_2014-06-13_16-15-32_094959634447_rgbf000151-resize_6/002678_2014-06-13_16-15-32_094959634447_rgbf000151-resize_6-target.png,125,2.1830000000000003,0,2056,124,feet,jsons/VE125_randls_3.json,467749,602660,42,Man
2,258754,DepthScenes,duration_manipulation_targetAtFixation,jsons/VE125_randls_3.json,http://54.235.29.9/FacialAge/BNav_EC2/DepthDuration/v2_depth_duration_MTurk/v2_DepthDuration_HTML.html#100,100,1717,1144,2560,1440,8-21-2022,8-5-37,3,depth_duration_stimuli/002445_2014-06-28_20-32-16_260595134347_rgbf000029-resize_4/002445_2014-06-28_20-32-16_260595134347_rgbf000029-resize_4-target.png,125,2.5315,5,1982,126,feet,jsons/VE125_randls_3.json,467749,602660,42,Man
3,258754,DepthScenes,duration_manipulation_targetAtFixation,jsons/VE125_randls_3.json,http://54.235.29.9/FacialAge/BNav_EC2/DepthDuration/v2_depth_duration_MTurk/v2_DepthDuration_HTML.html#100,100,1717,1144,2560,1440,8-21-2022,8-5-37,4,depth_duration_stimuli/000780_2014-06-08_22-28-29_260595134347_rgbf000126-resize_1/000780_2014-06-08_22-28-29_260595134347_rgbf000126-resize_1-target.png,125,3.3825,10,2121,125,feet,jsons/VE125_randls_3.json,467749,602660,42,Man
4,258754,DepthScenes,duration_manipulation_targetAtFixation,jsons/VE125_randls_3.json,http://54.235.29.9/FacialAge/BNav_EC2/DepthDuration/v2_depth_duration_MTurk/v2_DepthDuration_HTML.html#100,100,1717,1144,2560,1440,8-21-2022,8-5-37,5,depth_duration_stimuli/001167_2014-06-17_15-38-07_260595134347_rgbf000108-resize_0/001167_2014-06-17_15-38-07_260595134347_rgbf000108-resize_0-target.png,125,1.8505,5,1687,120,feet,jsons/VE125_randls_3.json,467749,602660,42,Man
5,258754,DepthScenes,duration_manipulation_targetAtFixation,jsons/VE125_randls_3.json,http://54.235.29.9/FacialAge/BNav_EC2/DepthDuration/v2_depth_duration_MTurk/v2_DepthDuration_HTML.html#100,100,1717,1144,2560,1440,8-21-2022,8-5-37,6,depth_duration_stimuli/003587_2014-05-23_16-48-02_094959634447_rgbf002384-resize_2/003587_2014-05-23_16-48-02_094959634447_rgbf002384-resize_2-target.png,125,1.357,3,2535,132,feet,jsons/VE125_randls_3.json,467749,602660,42,Man
6,258754,DepthScenes,duration_manipulation_targetAtFixation,jsons/VE125_randls_3.json,http://54.235.29.9/FacialAge/BNav_EC2/DepthDuration/v2_depth_duration_MTurk/v2_DepthDuration_HTML.html#100,100,1717,1144,2560,1440,8-21-2022,8-5-37,7,depth_duration_stimuli/002784_2014-06-22_19-26-30_094959634447_rgbf000083-resize_3/002784_2014-06-22_19-26-30_094959634447_rgbf000083-resize_3-target.png,125,1.8046666666667,5,1970,123,feet,jsons/VE125_randls_3.json,467749,602660,42,Man
7,258754,DepthScenes,duration_manipulation_targetAtFixation,jsons/VE125_randls_3.json,http://54.235.29.9/FacialAge/BNav_EC2/DepthDuration/v2_depth_duration_MTurk/v2_DepthDuration_HTML.html#100,100,1717,1144,2560,1440,8-21-2022,8-5-37,8,depth_duration_stimuli/001100_2014-06-15_17-46-26_260595134347_rgbf000225-resize_2/001100_2014-06-15_17-46-26_260595134347_rgbf000225-resize_2-target.png,125,2.24,5,2298,125,feet,jsons/VE125_randls_3.json,467749,602660,42,Man
8,258754,DepthScenes,duration_manipulation_targetAtFixation,jsons/VE125_randls_3.json,http://54.235.29.9/FacialAge/BNav_EC2/DepthDuration/v2_depth_duration_MTurk/v2_DepthDuration_HTML.html#100,100,1717,1144,2560,1440,8-21-2022,8-5-37,9,depth_duration_stimuli/001055_2014-06-08_18-45-35_260595134347_rgbf000111-resize_4/001055_2014-06-08_18-45-35_260595134347_rgbf000111-resize_4-target.png,125,2.4290000000000003,10,2324,125,feet,jsons/VE125_randls_3.json,467749,602660,42,Man
9,258754,DepthScenes,duration_manipulation_targetAtFixation,jsons/VE125_randls_3.json,http://54.235.29.9/FacialAge/BNav_EC2/DepthDuration/v2_depth_duration_MTurk/v2_DepthDuration_HTML.html#100,100,1717,1144,2560,1440,8-21-2022,8-5-37,10,depth_duration_stimuli/000549_2014-06-08_22-10-24_260595134347_rgbf000247-resize_3/000549_2014-06-08_22-10-24_260595134347_rgbf000247-resize_3-target.png,125,1.841,5,1833,127,feet,jsons/VE125_randls_3.json,467749,602660,42,Man
10,258754,DepthScenes,duration_manipulation_targetAtFixation,jsons/VE125_randls_3.json,http://54.235.29.9/FacialAge/BNav_EC2/DepthDuration/v2_depth_duration_MTurk/v2_DepthDuration_HTML.html#100,100,1717,1144,2560,1440,8-21-2022,8-5-37,11,depth_duration_stimuli/002788_2014-06-22_19-36-03_094959634447_rgbf000088-resize_2/002788_2014-06-22_19-36-03_094959634447_rgbf000088-resize_2-target.png,125,1.6465,7,2849,138,feet,jsons/VE125_randls_3.json,467749,602660,42,Man
11,258754,DepthScenes,duration_manipulation_targetAtFixation,jsons/VE125_randls_3.json,http://54.235.29.9/FacialAge/BNav_EC2/DepthDuration/v2_depth_duration_MTurk/v2_DepthDuration_HTML.html#100,100,1717,1144,2560,1440,8-21-2022,8-5-37,12,depth_duration_stimuli/000749_2014-06-08_21-55-06_260595134347_rgbf000070-resize_2/000749_2014-06-08_21-55-06_260595134347_rgbf000070-resize_2-target.png,125,2.331,5,1842,125,feet,jsons/VE125_randls_3.json,467749,602660,42,Man
12,258754,DepthScenes,duration_manipulation_targetAtFixation,jsons/VE125_randls_3.json,http://54.235.29.9/FacialAge/BNav_EC2/DepthDuration/v2_depth_duration_MTurk/v2_DepthDuration_HTML.html#100,100,1717,1144,2560,1440,8-21-2022,8-5-37,13,depth_duration_stimuli/000569_2014-06-09_22-51-47_260595134347_rgbf000141-resize_3/000569_2014-06-09_22-51-47_260595134347_rgbf000141-resize-original.jpg,125,4.512,0,1634,124,feet,jsons/VE125_randls_3.json,467749,602660,42,Man
13,258754,DepthScenes,duration_manipulation_targetAtFixation,jsons/VE125_randls_3.json,http://54.235.29.9/FacialAge/BNav_EC2/DepthDuration/v2_depth_duration_MTurk/v2_DepthDuration_HTML.html#100,100,1717,1144,2560,1440,8-21-2022,8-5-37,14,depth_duration_stimuli/003534_2014-05-22_15-06-10_094959634447_rgbf000102-resize_4/003534_2014-05-22_15-06-10_094959634447_rgbf000102-resize_4-target.png,125,1.426,5,1699,126,feet,jsons/VE125_randls_3.json,467749,602660,42,Man
14,258754,DepthScenes,duration_manipulation_targetAtFixation,jsons/VE125_randls_3.json,http://54.235.29.9/FacialAge/BNav_EC2/DepthDuration/v2_depth_duration_MTurk/v2_DepthDuration_HTML.html#100,100,1717,1144,2560,1440,8-21-2022,8-5-37,15,depth_duration_stimuli/002637_2014-06-24_14-51-13_094959634447_rgbf000066-resize_4/002637_2014-06-24_14-51-13_094959634447_rgbf000066-resize_4-target.png,125,1.9955,6,1903,124,feet,jsons/VE125_randls_3.json,467749,602660,42,Man
15,258754,DepthScenes,duration_manipulation_targetAtFixation,jsons/VE125_randls_3.json,http://54.235.29.9/FacialAge/BNav_EC2/DepthDuration/v2_depth_duration_MTurk/v2_DepthDuration_HTML.html#100,100,1717,1144,2560,1440,8-21-2022,8-5-37,16,depth_duration_stimuli/000773_2014-06-08_22-24-54_260595134347_rgbf000093-resize_1/000773_2014-06-08_22-24-54_260595134347_rgbf000093-resize_1-target.png,125,4.973,14,2909,125,feet,jsons/VE125_randls_3.json,467749,602660,42,Man
16,258754,DepthScenes,duration_manipulation_targetAtFixation,jsons/VE125_randls_3.json,http://54.235.29.9/FacialAge/BNav_EC2/DepthDuration/v2_depth_duration_MTurk/v2_DepthDuration_HTML.html#100,100,1717,1144,2560,1440,8-21-2022,8-5-37,17,depth_duration_stimuli/002414_2014-06-28_20-24-58_260595134347_rgbf000067-resize_4/002414_2014-06-28_20-24-58_260595134347_rgbf000067-resize_4-target.png,125,4.363,11,4879,126,feet,jsons/VE125_randls_3.json,467749,602660,42,Man
17,258754,DepthScenes,duration_manipulation_targetAtFixation,jsons/VE125_randls_3.json,http://54.235.29.9/FacialAge/BNav_EC2/DepthDuration/v2_depth_duration_MTurk/v2_DepthDuration_HTML.html#100,100,1717,1144,2560,1440,8-21-2022,8-5-37,18,depth_duration_stimuli/002153_2014-06-25_21-27-18_260595134347_rgbf000038-resize_5/002153_2014-06-25_21-27-18_260595134347_rgbf000038-resize_5-target.png,125,2.505,7,2100,125,feet,jsons/VE125_randls_3.json,467749,602660,42,Man
18,258754,DepthScenes,duration_manipulation_targetAtFixation,jsons/VE125_randls_3.json,http://54.235.29.9/FacialAge/BNav_EC2/DepthDuration/v2_depth_duration_MTurk/v2_DepthDuration_HTML.html#100,100,1717,1144,2560,1440,8-21-2022,8-5-37,19,depth_duration_stimuli/002660_2014-06-13_15-44-18_094959634447_rgbf001878-resize_2/002660_2014-06-13_15-44-18_094959634447_rgbf001878-resize_2-target.png,125,3.576,8,1936,128,feet,jsons/VE125_randls_3.json,467749,602660,42,Man
19,258754,DepthScenes,duration_manipulation_targetAtFixation,jsons/VE125_randls_3.json,http://54.235.29.9/FacialAge/BNav_EC2/DepthDuration/v2_depth_duration_MTurk/v2_DepthDuration_HTML.html#100,100,1717,1144,2560,1440,8-21-2022,8-5-37,20,depth_duration_stimuli/000788_2014-06-08_22-34-36_260595134347_rgbf000131-resize_1/000788_2014-06-08_22-34-36_260595134347_rgbf000131-resize_1-target.png,125,3.359,8,2118,125,feet,jsons/VE125_randls_3.json,467749,602660,42,Man
20,258754,DepthScenes,duration_manipulation_targetAtFixation,jsons/VE125_randls_3.json,http://54.235.29.9/FacialAge/BNav_EC2/DepthDuration/v2_depth_duration_MTurk/v2_DepthDuration_HTML.html#100,100,1717,1144,2560,1440,8-21-2022,8-5-37,21,depth_duration_stimuli/001235_2014-06-17_16-37-36_260595134347_rgbf000084-resize_4/001235_2014-06-17_16-37-36_260595134347_rgbf000084-resize_4-target.png,125,3.6605,8,1552,126,feet,jsons/VE125_randls_3.json,467749,602660,42,Man
21,258754,DepthScenes,duration_manipulation_targetAtFixation,jsons/VE125_randls_3.json,http://54.235.29.9/FacialAge/BNav_EC2/DepthDuration/v2_depth_duration_MTurk/v2_DepthDuration_HTML.html#100,100,1717,1144,2560,1440,8-21-2022,8-5-37,22,depth_duration_stimuli/002272_2014-06-28_18-53-56_260595134347_rgbf000067-resize_2/002272_2014-06-28_18-53-56_260595134347_rgbf000067-resize_2-target.png,125,1.138,5,1887,125,feet,jsons/VE125_randls_3.json,467749,602660,42,Man
22,258754,DepthScenes,duration_manipulation_targetAtFixation,jsons/VE125_randls_3.json,http://54.235.29.9/FacialAge/BNav_EC2/DepthDuration/v2_depth_duration_MTurk/v2_DepthDuration_HTML.html#100,100,1717,1144,2560,1440,8-21-2022,8-5-37,23,depth_duration_stimuli/001571_2014-06-20_17-21-32_260595134347_rgbf000089-resize_1/001571_2014-06-20_17-21-32_260595134347_rgbf000089-resize_1-target.png,125,1.86,5,2443,124,feet,jsons/VE125_randls_3.json,467749,602660,42,Man
23,258754,DepthScenes,duration_manipulation_targetAtFixation,jsons/VE125_randls_3.json,http://54.235.29.9/FacialAge/BNav_EC2/DepthDuration/v2_depth_duration_MTurk/v2_DepthDuration_HTML.html#100,100,1717,1144,2560,1440,8-21-2022,8-5-37,24,depth_duration_stimuli/002057_2014-06-24_21-00-13_260595134347_rgbf000120-resize_1/002057_2014-06-24_21-00-13_260595134347_rgbf000120-resize_1-target.png,125,2.967,8,1974,125,feet,jsons/VE125_randls_3.json,467749,602660,42,Man
24,258754,DepthScenes,duration_manipulation_targetAtFixation,jsons/VE125_randls_3.json,http://54.235.29.9/FacialAge/BNav_EC2/DepthDuration/v2_depth_duration_MTurk/v2_DepthDuration_HTML.html#100,100,1717,1144,2560,1440,8-21-2022,8-5-37,25,depth_duration_stimuli/000709_2014-06-08_13-51-55_260595134347_rgbf000068-resize_3/000709_2014-06-08_13-51-55_260595134347_rgbf000068-resize_3-target.png,125,1.8030000000000002,8,1780,123,feet,jsons/VE125_randls_3.json,467749,602660,42,Man
25,258754,DepthScenes,duration_manipulation_targetAtFixation,jsons/VE125_randls_3.json,http://54.235.29.9/FacialAge/BNav_EC2/DepthDuration/v2_depth_duration_MTurk/v2_DepthDuration_HTML.html#100,100,1717,1144,2560,1440,8-21-2022,8-5-37,26,depth_duration_stimuli/000736_2014-06-08_18-24-15_260595134347_rgbf000206-resize_3/000736_2014-06-08_18-24-15_260595134347_rgbf000206-resize_3-target.png,125,3.515,5,1666,126,feet,jsons/VE125_randls_3.json,467749,602660,42,Man
26,258754,DepthScenes,duration_manipulation_targetAtFixation,jsons/VE125_randls_3.json,http://54.235.29.9/FacialAge/BNav_EC2/DepthDuration/v2_depth_duration_MTurk/v2_DepthDuration_HTML.html#100,100,1717,1144,2560,1440,8-21-2022,8-5-37,27,depth_duration_stimuli/000137_2014-05-20_17-04-49_260595134347_rgbf000120-resize_1/000137_2014-05-20_17-04-49_260595134347_rgbf000120-resize_1-target.png,125,3.786,8,2137,126,feet,jsons/VE125_randls_3.json,467749,602660,42,Man
27,258754,DepthScenes,duration_manipulation_targetAtFixation,jsons/VE125_randls_3.json,http://54.235.29.9/FacialAge/BNav_EC2/DepthDuration/v2_depth_duration_MTurk/v2_DepthDuration_HTML.html#100,100,1717,1144,2560,1440,8-21-2022,8-5-37,28,depth_duration_stimuli/001449_2014-06-19_17-01-27_260595134347_rgbf000116-resize_2/001449_2014-06-19_17-01-27_260595134347_rgbf000116-resize_2-target.png,125,3.452,8,1541,124,feet,jsons/VE125_randls_3.json,467749,602660,42,Man
28,258754,DepthScenes,duration_manipulation_targetAtFixation,jsons/VE125_randls_3.json,http://54.235.29.9/FacialAge/BNav_EC2/DepthDuration/v2_depth_duration_MTurk/v2_DepthDuration_HTML.html#100,100,1717,1144,2560,1440,8-21-2022,8-5-37,29,depth_duration_stimuli/001450_2014-06-19_17-02-03_260595134347_rgbf000203-resize_4/001450_2014-06-19_17-02-03_260595134347_rgbf000203-resize_4-target.png,125,4.0106666666667,15,2476,124,feet,jsons/VE125_randls_3.json,467749,602660,42,Man
29,258754,DepthScenes,duration_manipulation_targetAtFixation,jsons/VE125_randls_3.json,http://54.235.29.9/FacialAge/BNav_EC2/DepthDuration/v2_depth_duration_MTurk/v2_DepthDuration_HTML.html#100,100,1717,1144,2560,1440,8-21-2022,8-5-37,30,depth_duration_stimuli/000375_2014-06-08_11-17-29_260595134347_rgbf000133-resize_2/000375_2014-06-08_11-17-29_260595134347_rgbf000133-resize-original.jpg,125,4.718,0,1606,125,feet,jsons/VE125_randls_3.json,467749,602660,42,Man
30,258754,DepthScenes,duration_manipulation_targetAtFixation,jsons/VE125_randls_3.json,http://54.235.29.9/FacialAge/BNav_EC2/DepthDuration/v2_depth_duration_MTurk/v2_DepthDuration_HTML.html#100,100,1717,1144,2560,1440,8-21-2022,8-5-37,31,depth_duration_stimuli/000009_2014-05-26_14-32-05_260595134347_rgbf000034-resize_3/000009_2014-05-26_14-32-05_260595134347_rgbf000034-resize_3-target.png,125,3.8715,14,2894,124,feet,jsons/VE125_randls_3.json,467749,602660,42,Man
31,258754,DepthScenes,duration_manipulation_targetAtFixation,jsons/VE125_randls_3.json,http://54.235.29.9/FacialAge/BNav_EC2/DepthDuration/v2_depth_duration_MTurk/v2_DepthDuration_HTML.html#100,100,1717,1144,2560,1440,8-21-2022,8-5-37,32,depth_duration_stimuli/001828_2014-06-26_21-40-03_260595134347_rgbf000024-resize_0/001828_2014-06-26_21-40-03_260595134347_rgbf000024-resize_0-target.png,125,4.8260000000000005,20,2614,125,feet,jsons/VE125_randls_3.json,467749,602660,42,Man
32,258754,DepthScenes,duration_manipulation_targetAtFixation,jsons/VE125_randls_3.json,http://54.235.29.9/FacialAge/BNav_EC2/DepthDuration/v2_depth_duration_MTurk/v2_DepthDuration_HTML.html#100,100,1717,1144,2560,1440,8-21-2022,8-5-37,33,depth_duration_stimuli/001056_2014-06-08_18-46-44_260595134347_rgbf000068-resize_0/001056_2014-06-08_18-46-44_260595134347_rgbf000068-resize_0-target.png,125,2.6625,10,2869,125,feet,jsons/VE125_randls_3.json,467749,602660,42,Man
33,258754,DepthScenes,duration_manipulation_targetAtFixation,jsons/VE125_randls_3.json,http://54.235.29.9/FacialAge/BNav_EC2/DepthDuration/v2_depth_duration_MTurk/v2_DepthDuration_HTML.html#100,100,1717,1144,2560,1440,8-21-2022,8-5-37,34,depth_duration_stimuli/002199_2014-06-28_18-33-56_260595134347_rgbf000074-resize_0/002199_2014-06-28_18-33-56_260595134347_rgbf000074-resize_0-target.png,125,1.996,5,1557,126,feet,jsons/VE125_randls_3.json,467749,602660,42,Man
34,258754,DepthScenes,duration_manipulation_targetAtFixation,jsons/VE125_randls_3.json,http://54.235.29.9/FacialAge/BNav_EC2/DepthDuration/v2_depth_duration_MTurk/v2_DepthDuration_HTML.html#100,100,1717,1144,2560,1440,8-21-2022,8-5-37,35,depth_duration_stimuli/000414_2014-06-04_19-49-13_260595134347_rgbf000044-resize_0/000414_2014-06-04_19-49-13_260595134347_rgbf000044-resize_0-target.png,125,4.329,15,3017,125,feet,jsons/VE125_randls_3.json,467749,602660,42,Man
35,258754,DepthScenes,duration_manipulation_targetAtFixation,jsons/VE125_randls_3.json,http://54.235.29.9/FacialAge/BNav_EC2/DepthDuration/v2_depth_duration_MTurk/v2_DepthDuration_HTML.html#100,100,1717,1144,2560,1440,8-21-2022,8-5-37,36,depth_duration_stimuli/003129_2014-05-12_10-48-10_094959634447_rgbf000100-resize_0/003129_2014-05-12_10-48-10_094959634447_rgbf000100-resize_0-target.png,125,4.9305,15,1846,124,feet,jsons/VE125_randls_3.json,467749,602660,42,Man
36,258754,DepthScenes,duration_manipulation_targetAtFixation,jsons/VE125_randls_3.json,http://54.235.29.9/FacialAge/BNav_EC2/DepthDuration/v2_depth_duration_MTurk/v2_DepthDuration_HTML.html#100,100,1717,1144,2560,1440,8-21-2022,8-5-37,37,depth_duration_stimuli/002043_2014-06-24_20-29-38_260595134347_rgbf000039-resize_4/002043_2014-06-24_20-29-38_260595134347_rgbf000039-resize_4-target.png,125,2.8435,10,1939,125,feet,jsons/VE125_randls_3.json,467749,602660,42,Man
37,258754,DepthScenes,duration_manipulation_targetAtFixation,jsons/VE125_randls_3.json,http://54.235.29.9/FacialAge/BNav_EC2/DepthDuration/v2_depth_duration_MTurk/v2_DepthDuration_HTML.html#100,100,1717,1144,2560,1440,8-21-2022,8-5-37,38,depth_duration_stimuli/003048_2014-06-15_13-49-43_094959634447_rgbf000150-resize_1/003048_2014-06-15_13-49-43_094959634447_rgbf000150-resize_1-target.png,125,4.0035,15,2232,126,feet,jsons/VE125_randls_3.json,467749,602660,42,Man
38,258754,DepthScenes,duration_manipulation_targetAtFixation,jsons/VE125_randls_3.json,http://54.235.29.9/FacialAge/BNav_EC2/DepthDuration/v2_depth_duration_MTurk/v2_DepthDuration_HTML.html#100,100,1717,1144,2560,1440,8-21-2022,8-5-37,39,depth_duration_stimuli/001806_2014-06-26_20-50-20_260595134347_rgbf000091-resize_1/001806_2014-06-26_20-50-20_260595134347_rgbf000091-resize_1-target.png,125,2.7305,5,1576,124,feet,jsons/VE125_randls_3.json,467749,602660,42,Man
39,258754,DepthScenes,duration_manipulation_targetAtFixation,jsons/VE125_randls_3.json,http://54.235.29.9/FacialAge/BNav_EC2/DepthDuration/v2_depth_duration_MTurk/v2_DepthDuration_HTML.html#100,100,1717,1144,2560,1440,8-21-2022,8-5-37,40,depth_duration_stimuli/001617_2014-06-20_11-35-32_260595134347_rgbf000066-resize_1/001617_2014-06-20_11-35-32_260595134347_rgbf000066-resize_1-target.png,125,3.7910000000000004,15,1853,119,feet,jsons/VE125_randls_3.json,467749,602660,42,Man
40,258754,DepthScenes,duration_manipulation_targetAtFixation,jsons/VE125_randls_3.json,http://54.235.29.9/FacialAge/BNav_EC2/DepthDuration/v2_depth_duration_MTurk/v2_DepthDuration_HTML.html#100,100,1717,1144,2560,1440,8-21-2022,8-5-37,41,depth_duration_stimuli/001810_2014-06-26_20-51-35_260595134347_rgbf000040-resize_3/001810_2014-06-26_20-51-35_260595134347_rgbf000040-resize_3-target.png,125,2.2525,5,1535,125,feet,jsons/VE125_randls_3.json,467749,602660,42,Man
41,258754,DepthScenes,duration_manipulation_targetAtFixation,jsons/VE125_randls_3.json,http://54.235.29.9/FacialAge/BNav_EC2/DepthDuration/v2_depth_duration_MTurk/v2_DepthDuration_HTML.html#100,100,1717,1144,2560,1440,8-21-2022,8-5-37,42,depth_duration_stimuli/003010_2014-06-15_12-54-35_094959634447_rgbf000112-resize_0/003010_2014-06-15_12-54-35_094959634447_rgbf000112-resize_0-target.png,125,3.1185,15,1889,124,feet,jsons/VE125_randls_3.json,467749,602660,42,Man
42,258754,DepthScenes,duration_manipulation_targetAtFixation,jsons/VE125_randls_3.json,http://54.235.29.9/FacialAge/BNav_EC2/DepthDuration/v2_depth_duration_MTurk/v2_DepthDuration_HTML.html#100,100,1717,1144,2560,1440,8-21-2022,8-5-37,43,depth_duration_stimuli/002600_2014-06-24_14-27-04_094959634447_rgbf000074-resize_2/002600_2014-06-24_14-27-04_094959634447_rgbf000074-resize_2-target.png,125,2.7575,10,1868,119,feet,jsons/VE125_randls_3.json,467749,602660,42,Man
43,258754,DepthScenes,duration_manipulation_targetAtFixation,jsons/VE125_randls_3.json,http://54.235.29.9/FacialAge/BNav_EC2/DepthDuration/v2_depth_duration_MTurk/v2_DepthDuration_HTML.html#100,100,1717,1144,2560,1440,8-21-2022,8-5-37,44,depth_duration_stimuli/003228_2014-05-14_13-42-35_094959634447_rgbf000101-resize_1/003228_2014-05-14_13-42-35_094959634447_rgbf000101-resize_1-target.png,125,1.9680000000000002,5,2174,123,feet,jsons/VE125_randls_3.json,467749,602660,42,Man
44,258754,DepthScenes,duration_manipulation_targetAtFixation,jsons/VE125_randls_3.json,http://54.235.29.9/FacialAge/BNav_EC2/DepthDuration/v2_depth_duration_MTurk/v2_DepthDuration_HTML.html#100,100,1717,1144,2560,1440,8-21-2022,8-5-37,45,depth_duration_stimuli/000787_2014-06-08_22-33-53_260595134347_rgbf000175-resize_1/000787_2014-06-08_22-33-53_260595134347_rgbf000175-resize-original.jpg,125,4.784,0,1897,137,feet,jsons/VE125_randls_3.json,467749,602660,42,Man
45,258754,DepthScenes,duration_manipulation_targetAtFixation,jsons/VE125_randls_3.json,http://54.235.29.9/FacialAge/BNav_EC2/DepthDuration/v2_depth_duration_MTurk/v2_DepthDuration_HTML.html#100,100,1717,1144,2560,1440,8-21-2022,8-5-37,46,depth_duration_stimuli/002905_2014-06-03_18-04-43_094959634447_rgbf000151-resize_2/002905_2014-06-03_18-04-43_094959634447_rgbf000151-resize_2-target.png,125,2.0295,5,1570,125,feet,jsons/VE125_randls_3.json,467749,602660,42,Man
46,258754,DepthScenes,duration_manipulation_targetAtFixation,jsons/VE125_randls_3.json,http://54.235.29.9/FacialAge/BNav_EC2/DepthDuration/v2_depth_duration_MTurk/v2_DepthDuration_HTML.html#100,100,1717,1144,2560,1440,8-21-2022,8-5-37,47,depth_duration_stimuli/003423_2014-05-21_10-23-26_094959634447_rgbf002665-resize_2/003423_2014-05-21_10-23-26_094959634447_rgbf002665-resize_2-target.png,125,3.2575,14,3027,125,feet,jsons/VE125_randls_3.json,467749,602660,42,Man
47,258754,DepthScenes,duration_manipulation_targetAtFixation,jsons/VE125_randls_3.json,http://54.235.29.9/FacialAge/BNav_EC2/DepthDuration/v2_depth_duration_MTurk/v2_DepthDuration_HTML.html#100,100,1717,1144,2560,1440,8-21-2022,8-5-37,48,depth_duration_stimuli/000469_2014-06-09_19-42-10_260595134347_rgbf000081-resize_1/000469_2014-06-09_19-42-10_260595134347_rgbf000081-resize_1-target.png,125,1.652,5,1752,125,feet,jsons/VE125_randls_3.json,467749,602660,42,Man
48,258754,DepthScenes,duration_manipulation_targetAtFixation,jsons/VE125_randls_3.json,http://54.235.29.9/FacialAge/BNav_EC2/DepthDuration/v2_depth_duration_MTurk/v2_DepthDuration_HTML.html#100,100,1717,1144,2560,1440,8-21-2022,8-5-37,49,depth_duration_stimuli/000483_2014-06-09_20-41-45_260595134347_rgbf000116-resize_4/000483_2014-06-09_20-41-45_260595134347_rgbf000116-resize_4-target.png,125,1.337,5,2196,123,feet,jsons/VE125_randls_3.json,467749,602660,42,Man
49,258754,DepthScenes,duration_manipulation_targetAtFixation,jsons/VE125_randls_3.json,http://54.235.29.9/FacialAge/BNav_EC2/DepthDuration/v2_depth_duration_MTurk/v2_DepthDuration_HTML.html#100,100,1717,1144,2560,1440,8-21-2022,8-5-37,50,depth_duration_stimuli/000906_2014-06-08_13-35-43_260595134347_rgbf000155-resize_1/000906_2014-06-08_13-35-43_260595134347_rgbf000155-resize_1-target.png,125,2.8489999999999998,15,2295,123,feet,jsons/VE125_randls_3.json,467749,602660,42,Man
50,258754,DepthScenes,duration_manipulation_targetAtFixation,jsons/VE125_randls_3.json,http://54.235.29.9/FacialAge/BNav_EC2/DepthDuration/v2_depth_duration_MTurk/v2_DepthDuration_HTML.html#100,100,1717,1144,2560,1440,8-21-2022,8-5-37,51,depth_duration_stimuli/002805_2014-06-22_19-54-03_094959634447_rgbf000079-resize_1/002805_2014-06-22_19-54-03_094959634447_rgbf000079-resize_1-target.png,125,3.1439999999999997,10,2662,123,feet,jsons/VE125_randls_3.json,467749,602660,42,Man
51,258754,DepthScenes,duration_manipulation_targetAtFixation,jsons/VE125_randls_3.json,http://54.235.29.9/FacialAge/BNav_EC2/DepthDuration/v2_depth_duration_MTurk/v2_DepthDuration_HTML.html#100,100,1717,1144,2560,1440,8-21-2022,8-5-37,52,depth_duration_stimuli/002989_2014-06-15_12-25-03_094959634447_rgbf000150-resize_3/002989_2014-06-15_12-25-03_094959634447_rgbf000150-resize_3-target.png,125,4.1975,10,4197,123,feet,jsons/VE125_randls_3.json,467749,602660,42,Man
52,258754,DepthScenes,duration_manipulation_targetAtFixation,jsons/VE125_randls_3.json,http://54.235.29.9/FacialAge/BNav_EC2/DepthDuration/v2_depth_duration_MTurk/v2_DepthDuration_HTML.html#100,100,1717,1144,2560,1440,8-21-2022,8-5-37,53,depth_duration_stimuli/000866_2014-06-09_20-45-42_260595134347_rgbf000139-resize_1/000866_2014-06-09_20-45-42_260595134347_rgbf000139-resize_1-target.png,125,3.2155,10,1671,126,feet,jsons/VE125_randls_3.json,467749,602660,42,Man
53,258754,DepthScenes,duration_manipulation_targetAtFixation,jsons/VE125_randls_3.json,http://54.235.29.9/FacialAge/BNav_EC2/DepthDuration/v2_depth_duration_MTurk/v2_DepthDuration_HTML.html#100,100,1717,1144,2560,1440,8-21-2022,8-5-37,54,depth_duration_stimuli/000758_2014-06-08_22-05-08_260595134347_rgbf000085-resize_0/000758_2014-06-08_22-05-08_260595134347_rgbf000085-resize_0-target.png,125,3.3810000000000002,14,1996,126,feet,jsons/VE125_randls_3.json,467749,602660,42,Man
54,258754,DepthScenes,duration_manipulation_targetAtFixation,jsons/VE125_randls_3.json,http://54.235.29.9/FacialAge/BNav_EC2/DepthDuration/v2_depth_duration_MTurk/v2_DepthDuration_HTML.html#100,100,1717,1144,2560,1440,8-21-2022,8-5-37,55,depth_duration_stimuli/000854_2014-06-09_19-43-13_260595134347_rgbf000066-resize_0/000854_2014-06-09_19-43-13_260595134347_rgbf000066-resize_0-target.png,125,3.068,5,1614,125,feet,jsons/VE125_randls_3.json,467749,602660,42,Man
55,258754,DepthScenes,duration_manipulation_targetAtFixation,jsons/VE125_randls_3.json,http://54.235.29.9/FacialAge/BNav_EC2/DepthDuration/v2_depth_duration_MTurk/v2_DepthDuration_HTML.html#100,100,1717,1144,2560,1440,8-21-2022,8-5-37,56,depth_duration_stimuli/001066_2014-06-08_22-03-20_260595134347_rgbf000066-resize_4/001066_2014-06-08_22-03-20_260595134347_rgbf000066-resize_4-target.png,125,4.2330000000000005,15,2550,138,feet,jsons/VE125_randls_3.json,467749,602660,42,Man
56,258754,DepthScenes,duration_manipulation_targetAtFixation,jsons/VE125_randls_3.json,http://54.235.29.9/FacialAge/BNav_EC2/DepthDuration/v2_depth_duration_MTurk/v2_DepthDuration_HTML.html#100,100,1717,1144,2560,1440,8-21-2022,8-5-37,57,depth_duration_stimuli/000742_2014-06-08_18-48-09_260595134347_rgbf000164-resize_4/000742_2014-06-08_18-48-09_260595134347_rgbf000164-resize_4-target.png,125,4.632,18,3284,121,feet,jsons/VE125_randls_3.json,467749,602660,42,Man
57,258754,DepthScenes,duration_manipulation_targetAtFixation,jsons/VE125_randls_3.json,http://54.235.29.9/FacialAge/BNav_EC2/DepthDuration/v2_depth_duration_MTurk/v2_DepthDuration_HTML.html#100,100,1717,1144,2560,1440,8-21-2022,8-5-37,58,depth_duration_stimuli/000692_2014-06-08_13-09-42_260595134347_rgbf000199-resize_2/000692_2014-06-08_13-09-42_260595134347_rgbf000199-resize_2-target.png,125,3.661,20,2347,128,feet,jsons/VE125_randls_3.json,467749,602660,42,Man
58,258754,DepthScenes,duration_manipulation_targetAtFixation,jsons/VE125_randls_3.json,http://54.235.29.9/FacialAge/BNav_EC2/DepthDuration/v2_depth_duration_MTurk/v2_DepthDuration_HTML.html#100,100,1717,1144,2560,1440,8-21-2022,8-5-37,59,depth_duration_stimuli/001094_2014-06-15_17-36-00_260595134347_rgbf000205-resize_0/001094_2014-06-15_17-36-00_260595134347_rgbf000205-resize_0-target.png,125,4.2175,18,4959,123,feet,jsons/VE125_randls_3.json,467749,602660,42,Man
59,258754,DepthScenes,duration_manipulation_targetAtFixation,jsons/VE125_randls_3.json,http://54.235.29.9/FacialAge/BNav_EC2/DepthDuration/v2_depth_duration_MTurk/v2_DepthDuration_HTML.html#100,100,1717,1144,2560,1440,8-21-2022,8-5-37,60,depth_duration_stimuli/001158_2014-06-17_15-32-16_260595134347_rgbf000138-resize_2/001158_2014-06-17_15-32-16_260595134347_rgbf000138-resize_2-target.png,125,4.5315,15,3099,124,feet,jsons/VE125_randls_3.json,467749,602660,42,Man
60,258754,DepthScenes,duration_manipulation_targetAtFixation,jsons/VE125_randls_3.json,http://54.235.29.9/FacialAge/BNav_EC2/DepthDuration/v2_depth_duration_MTurk/v2_DepthDuration_HTML.html#100,100,1717,1144,2560,1440,8-21-2022,8-5-37,61,depth_duration_stimuli/000556_2014-06-09_22-42-56_260595134347_rgbf000214-resize_1/000556_2014-06-09_22-42-56_260595134347_rgbf000214-resize_1-target.png,125,4.8415,10,2012,124,feet,jsons/VE125_randls_3.json,467749,602660,42,Man
61,258754,DepthScenes,duration_manipulation_targetAtFixation,jsons/VE125_randls_3.json,http://54.235.29.9/FacialAge/BNav_EC2/DepthDuration/v2_depth_duration_MTurk/v2_DepthDuration_HTML.html#100,100,1717,1144,2560,1440,8-21-2022,8-5-37,62,depth_duration_stimuli/001808_2014-06-26_20-50-58_260595134347_rgbf000029-resize_1/001808_2014-06-26_20-50-58_260595134347_rgbf000029-resize_1-target.png,125,4.249,14,2266,124,feet,jsons/VE125_randls_3.json,467749,602660,42,Man
62,258754,DepthScenes,duration_manipulation_targetAtFixation,jsons/VE125_randls_3.json,http://54.235.29.9/FacialAge/BNav_EC2/DepthDuration/v2_depth_duration_MTurk/v2_DepthDuration_HTML.html#100,100,1717,1144,2560,1440,8-21-2022,8-5-37,63,depth_duration_stimuli/001815_2014-06-26_20-52-55_260595134347_rgbf000020-resize_0/001815_2014-06-26_20-52-55_260595134347_rgbf000020-resize_0-target.png,125,3.3865,15,1739,121,feet,jsons/VE125_randls_3.json,467749,602660,42,Man
63,258754,DepthScenes,duration_manipulation_targetAtFixation,jsons/VE125_randls_3.json,http://54.235.29.9/FacialAge/BNav_EC2/DepthDuration/v2_depth_duration_MTurk/v2_DepthDuration_HTML.html#100,100,1717,1144,2560,1440,8-21-2022,8-5-37,64,depth_duration_stimuli/003492_2014-05-21_15-50-55_094959634447_rgbf000828-resize_1/003492_2014-05-21_15-50-55_094959634447_rgbf000828-resize_1-target.png,125,4.06875,15,1653,122,feet,jsons/VE125_randls_3.json,467749,602660,42,Man
64,258754,DepthScenes,duration_manipulation_targetAtFixation,jsons/VE125_randls_3.json,http://54.235.29.9/FacialAge/BNav_EC2/DepthDuration/v2_depth_duration_MTurk/v2_DepthDuration_HTML.html#100,100,1717,1144,2560,1440,8-21-2022,8-5-37,65,depth_duration_stimuli/002568_2014-06-24_13-59-21_094959634447_rgbf000062-resize_4/002568_2014-06-24_13-59-21_094959634447_rgbf000062-resize_4-target.png,125,3.015,10,2111,123,feet,jsons/VE125_randls_3.json,467749,602660,42,Man
65,258754,DepthScenes,duration_manipulation_targetAtFixation,jsons/VE125_randls_3.json,http://54.235.29.9/FacialAge/BNav_EC2/DepthDuration/v2_depth_duration_MTurk/v2_DepthDuration_HTML.html#100,100,1717,1144,2560,1440,8-21-2022,8-5-37,66,depth_duration_stimuli/001222_2014-06-17_16-24-06_260595134347_rgbf000073-resize_0/001222_2014-06-17_16-24-06_260595134347_rgbf000073-resize-original.jpg,125,1.4385,0,1702,138,feet,jsons/VE125_randls_3.json,467749,602660,42,Man
66,258754,DepthScenes,duration_manipulation_targetAtFixation,jsons/VE125_randls_3.json,http://54.235.29.9/FacialAge/BNav_EC2/DepthDuration/v2_depth_duration_MTurk/v2_DepthDuration_HTML.html#100,100,1717,1144,2560,1440,8-21-2022,8-5-37,67,depth_duration_stimuli/000470_2014-06-09_19-42-40_260595134347_rgbf000094-resize_1/000470_2014-06-09_19-42-40_260595134347_rgbf000094-resize_1-target.png,125,1.831,8,4105,123,feet,jsons/VE125_randls_3.json,467749,602660,42,Man
67,258754,DepthScenes,duration_manipulation_targetAtFixation,jsons/VE125_randls_3.json,http://54.235.29.9/FacialAge/BNav_EC2/DepthDuration/v2_depth_duration_MTurk/v2_DepthDuration_HTML.html#100,100,1717,1144,2560,1440,8-21-2022,8-5-37,68,depth_duration_stimuli/000109_2014-05-14_23-41-52_260595134347_rgbf000035-resize_9/000109_2014-05-14_23-41-52_260595134347_rgbf000035-resize_9-target.png,125,1.3545,5,1502,117,feet,jsons/VE125_randls_3.json,467749,602660,42,Man
68,258754,DepthScenes,duration_manipulation_targetAtFixation,jsons/VE125_randls_3.json,http://54.235.29.9/FacialAge/BNav_EC2/DepthDuration/v2_depth_duration_MTurk/v2_DepthDuration_HTML.html#100,100,1717,1144,2560,1440,8-21-2022,8-5-37,69,depth_duration_stimuli/001059_2014-06-08_21-53-27_260595134347_rgbf000061-resize_4/001059_2014-06-08_21-53-27_260595134347_rgbf000061-resize_4-target.png,125,2.4185,7,2239,114,feet,jsons/VE125_randls_3.json,467749,602660,42,Man
69,258754,DepthScenes,duration_manipulation_targetAtFixation,jsons/VE125_randls_3.json,http://54.235.29.9/FacialAge/BNav_EC2/DepthDuration/v2_depth_duration_MTurk/v2_DepthDuration_HTML.html#100,100,1717,1144,2560,1440,8-21-2022,8-5-37,70,depth_duration_stimuli/001032_2014-06-08_13-23-17_260595134347_rgbf000021-resize_3/001032_2014-06-08_13-23-17_260595134347_rgbf000021-resize_3-target.png,125,3.2725,7,1595,122,feet,jsons/VE125_randls_3.json,467749,602660,42,Man
70,258754,DepthScenes,duration_manipulation_targetAtFixation,jsons/VE125_randls_3.json,http://54.235.29.9/FacialAge/BNav_EC2/DepthDuration/v2_depth_duration_MTurk/v2_DepthDuration_HTML.html#100,100,1717,1144,2560,1440,8-21-2022,8-5-37,71,depth_duration_stimuli/002663_2014-06-13_15-50-26_094959634447_rgbf000075-resize_1/002663_2014-06-13_15-50-26_094959634447_rgbf000075-resize_1-target.png,125,4.7495,15,1788,125,feet,jsons/VE125_randls_3.json,467749,602660,42,Man
71,258754,DepthScenes,duration_manipulation_targetAtFixation,jsons/VE125_randls_3.json,http://54.235.29.9/FacialAge/BNav_EC2/DepthDuration/v2_depth_duration_MTurk/v2_DepthDuration_HTML.html#100,100,1717,1144,2560,1440,8-21-2022,8-5-37,72,depth_duration_stimuli/000409_2014-06-04_19-23-33_260595134347_rgbf000067-resize_0/000409_2014-06-04_19-23-33_260595134347_rgbf000067-resize_0-target.png,125,3.7335,15,1927,126,feet,jsons/VE125_randls_3.json,467749,602660,42,Man
72,258754,DepthScenes,duration_manipulation_targetAtFixation,jsons/VE125_randls_3.json,http://54.235.29.9/FacialAge/BNav_EC2/DepthDuration/v2_depth_duration_MTurk/v2_DepthDuration_HTML.html#100,100,1717,1144,2560,1440,8-21-2022,8-5-37,73,depth_duration_stimuli/002570_2014-06-24_13-59-54_094959634447_rgbf000059-resize_0/002570_2014-06-24_13-59-54_094959634447_rgbf000059-resize_0-target.png,125,4.037,7,3599,129,feet,jsons/VE125_randls_3.json,467749,602660,42,Man
73,258754,DepthScenes,duration_manipulation_targetAtFixation,jsons/VE125_randls_3.json,http://54.235.29.9/FacialAge/BNav_EC2/DepthDuration/v2_depth_duration_MTurk/v2_DepthDuration_HTML.html#100,100,1717,1144,2560,1440,8-21-2022,8-5-37,74,depth_duration_stimuli/002467_2014-06-28_20-38-07_260595134347_rgbf000026-resize_2/002467_2014-06-28_20-38-07_260595134347_rgbf000026-resize_2-target.png,125,4.742,15,1660,113,feet,jsons/VE125_randls_3.json,467749,602660,42,Man
74,258754,DepthScenes,duration_manipulation_targetAtFixation,jsons/VE125_randls_3.json,http://54.235.29.9/FacialAge/BNav_EC2/DepthDuration/v2_depth_duration_MTurk/v2_DepthDuration_HTML.html#100,100,1717,1144,2560,1440,8-21-2022,8-5-37,75,depth_duration_stimuli/001092_2014-06-15_17-34-58_260595134347_rgbf000171-resize_3/001092_2014-06-15_17-34-58_260595134347_rgbf000171-resize_3-target.png,125,2.6935,5,1523,118,feet,jsons/VE125_randls_3.json,467749,602660,42,Man
75,258754,DepthScenes,duration_manipulation_targetAtFixation,jsons/VE125_randls_3.json,http://54.235.29.9/FacialAge/BNav_EC2/DepthDuration/v2_depth_duration_MTurk/v2_DepthDuration_HTML.html#100,100,1717,1144,2560,1440,8-21-2022,8-5-37,76,depth_duration_stimuli/002545_2014-06-24_13-38-53_094959634447_rgbf000080-resize_4/002545_2014-06-24_13-38-53_094959634447_rgbf000080-resize_4-target.png,125,1.9205,7,2085,120,feet,jsons/VE125_randls_3.json,467749,602660,42,Man
76,258754,DepthScenes,duration_manipulation_targetAtFixation,jsons/VE125_randls_3.json,http://54.235.29.9/FacialAge/BNav_EC2/DepthDuration/v2_depth_duration_MTurk/v2_DepthDuration_HTML.html#100,100,1717,1144,2560,1440,8-21-2022,8-5-37,77,depth_duration_stimuli/001150_2014-06-17_15-27-34_260595134347_rgbf000108-resize_2/001150_2014-06-17_15-27-34_260595134347_rgbf000108-resize_2-target.png,125,4.0325,20,2622,123,feet,jsons/VE125_randls_3.json,467749,602660,42,Man
77,258754,DepthScenes,duration_manipulation_targetAtFixation,jsons/VE125_randls_3.json,http://54.235.29.9/FacialAge/BNav_EC2/DepthDuration/v2_depth_duration_MTurk/v2_DepthDuration_HTML.html#100,100,1717,1144,2560,1440,8-21-2022,8-5-37,78,depth_duration_stimuli/000665_2014-06-09_20-42-35_260595134347_rgbf000110-resize_1/000665_2014-06-09_20-42-35_260595134347_rgbf000110-resize_1-target.png,125,3.057,8,3133,116,feet,jsons/VE125_randls_3.json,467749,602660,42,Man
78,258754,DepthScenes,duration_manipulation_targetAtFixation,jsons/VE125_randls_3.json,http://54.235.29.9/FacialAge/BNav_EC2/DepthDuration/v2_depth_duration_MTurk/v2_DepthDuration_HTML.html#100,100,1717,1144,2560,1440,8-21-2022,8-5-37,79,depth_duration_stimuli/001011_2014-06-08_23-18-54_260595134347_rgbf000044-resize_4/001011_2014-06-08_23-18-54_260595134347_rgbf000044-resize_4-target.png,125,2.4730000000000003,14,2790,123,feet,jsons/VE125_randls_3.json,467749,602660,42,Man
79,258754,DepthScenes,duration_manipulation_targetAtFixation,jsons/VE125_randls_3.json,http://54.235.29.9/FacialAge/BNav_EC2/DepthDuration/v2_depth_duration_MTurk/v2_DepthDuration_HTML.html#100,100,1717,1144,2560,1440,8-21-2022,8-5-37,80,depth_duration_stimuli/002875_2014-06-01_15-19-00_094959634447_rgbf000151-resize_1/002875_2014-06-01_15-19-00_094959634447_rgbf000151-resize_1-target.png,125,1.9675,15,1987,135,feet,jsons/VE125_randls_3.json,467749,602660,42,Man
80,258754,DepthScenes,duration_manipulation_targetAtFixation,jsons/VE125_randls_3.json,http://54.235.29.9/FacialAge/BNav_EC2/DepthDuration/v2_depth_duration_MTurk/v2_DepthDuration_HTML.html#100,100,1717,1144,2560,1440,8-21-2022,8-5-37,81,depth_duration_stimuli/000486_2014-06-09_20-47-20_260595134347_rgbf000143-resize_2/000486_2014-06-09_20-47-20_260595134347_rgbf000143-resize_2-target.png,125,4.8325,15,1771,138,feet,jsons/VE125_randls_3.json,467749,602660,42,Man
81,258754,DepthScenes,duration_manipulation_targetAtFixation,jsons/VE125_randls_3.json,http://54.235.29.9/FacialAge/BNav_EC2/DepthDuration/v2_depth_duration_MTurk/v2_DepthDuration_HTML.html#100,100,1717,1144,2560,1440,8-21-2022,8-5-37,82,depth_duration_stimuli/003083_2014-06-15_15-21-03_094959634447_rgbf000063-resize_1/003083_2014-06-15_15-21-03_094959634447_rgbf000063-resize_1-target.png,125,4.1405,20,1950,121,feet,jsons/VE125_randls_3.json,467749,602660,42,Man
82,258754,DepthScenes,duration_manipulation_targetAtFixation,jsons/VE125_randls_3.json,http://54.235.29.9/FacialAge/BNav_EC2/DepthDuration/v2_depth_duration_MTurk/v2_DepthDuration_HTML.html#100,100,1717,1144,2560,1440,8-21-2022,8-5-37,83,depth_duration_stimuli/001244_2014-06-17_16-47-45_260595134347_rgbf000030-resize_4/001244_2014-06-17_16-47-45_260595134347_rgbf000030-resize_4-target.png,125,2.0425,15,1672,132,feet,jsons/VE125_randls_3.json,467749,602660,42,Man
83,258754,DepthScenes,duration_manipulation_targetAtFixation,jsons/VE125_randls_3.json,http://54.235.29.9/FacialAge/BNav_EC2/DepthDuration/v2_depth_duration_MTurk/v2_DepthDuration_HTML.html#100,100,1717,1144,2560,1440,8-21-2022,8-5-37,84,depth_duration_stimuli/003495_2014-05-21_16-01-51_094959634447_rgbf000100-resize_3/003495_2014-05-21_16-01-51_094959634447_rgbf000100-resize_3-target.png,125,1.6255,5,1559,122,feet,jsons/VE125_randls_3.json,467749,602660,42,Man
84,258754,DepthScenes,duration_manipulation_targetAtFixation,jsons/VE125_randls_3.json,http://54.235.29.9/FacialAge/BNav_EC2/DepthDuration/v2_depth_duration_MTurk/v2_DepthDuration_HTML.html#100,100,1717,1144,2560,1440,8-21-2022,8-5-37,85,depth_duration_stimuli/002630_2014-06-24_14-47-50_094959634447_rgbf000055-resize_1/002630_2014-06-24_14-47-50_094959634447_rgbf000055-resize_1-target.png,125,3.0095,15,1748,109,feet,jsons/VE125_randls_3.json,467749,602660,42,Man
85,258754,DepthScenes,duration_manipulation_targetAtFixation,jsons/VE125_randls_3.json,http://54.235.29.9/FacialAge/BNav_EC2/DepthDuration/v2_depth_duration_MTurk/v2_DepthDuration_HTML.html#100,100,1717,1144,2560,1440,8-21-2022,8-5-37,86,depth_duration_stimuli/002758_2014-06-22_19-11-20_094959634447_rgbf000128-resize_1/002758_2014-06-22_19-11-20_094959634447_rgbf000128-resize_1-target.png,125,2.555,20,4032,125,feet,jsons/VE125_randls_3.json,467749,602660,42,Man
86,258754,DepthScenes,duration_manipulation_targetAtFixation,jsons/VE125_randls_3.json,http://54.235.29.9/FacialAge/BNav_EC2/DepthDuration/v2_depth_duration_MTurk/v2_DepthDuration_HTML.html#100,100,1717,1144,2560,1440,8-21-2022,8-5-37,87,depth_duration_stimuli/002279_2014-06-28_18-55-32_260595134347_rgbf000040-resize_5/002279_2014-06-28_18-55-32_260595134347_rgbf000040-resize_5-target.png,125,1.5043333333333,5,3354,123,feet,jsons/VE125_randls_3.json,467749,602660,42,Man
87,258754,DepthScenes,duration_manipulation_targetAtFixation,jsons/VE125_randls_3.json,http://54.235.29.9/FacialAge/BNav_EC2/DepthDuration/v2_depth_duration_MTurk/v2_DepthDuration_HTML.html#100,100,1717,1144,2560,1440,8-21-2022,8-5-37,88,depth_duration_stimuli/000635_2014-06-08_16-38-42_260595134347_rgbf000106-resize_1/000635_2014-06-08_16-38-42_260595134347_rgbf000106-resize_1-target.png,125,2.074,8,2347,139,feet,jsons/VE125_randls_3.json,467749,602660,42,Man
88,258754,DepthScenes,duration_manipulation_targetAtFixation,jsons/VE125_randls_3.json,http://54.235.29.9/FacialAge/BNav_EC2/DepthDuration/v2_depth_duration_MTurk/v2_DepthDuration_HTML.html#100,100,1717,1144,2560,1440,8-21-2022,8-5-37,89,depth_duration_stimuli/002213_2014-06-28_18-37-58_260595134347_rgbf000055-resize_1/002213_2014-06-28_18-37-58_260595134347_rgbf000055-resize_1-target.png,125,3.62,20,1893,115,feet,jsons/VE125_randls_3.json,467749,602660,42,Man
89,258754,DepthScenes,duration_manipulation_targetAtFixation,jsons/VE125_randls_3.json,http://54.235.29.9/FacialAge/BNav_EC2/DepthDuration/v2_depth_duration_MTurk/v2_DepthDuration_HTML.html#100,100,1717,1144,2560,1440,8-21-2022,8-5-37,90,depth_duration_stimuli/000691_2014-06-08_13-08-50_260595134347_rgbf000132-resize_3/000691_2014-06-08_13-08-50_260595134347_rgbf000132-resize_3-target.png,125,4.1530000000000005,10,3793,123,feet,jsons/VE125_randls_3.json,467749,602660,42,Man
90,258754,DepthScenes,duration_manipulation_targetAtFixation,jsons/VE125_randls_3.json,http://54.235.29.9/FacialAge/BNav_EC2/DepthDuration/v2_depth_duration_MTurk/v2_DepthDuration_HTML.html#100,100,1717,1144,2560,1440,8-21-2022,8-5-37,91,depth_duration_stimuli/000642_2014-06-08_16-59-25_260595134347_rgbf000098-resize_2/000642_2014-06-08_16-59-25_260595134347_rgbf000098-resize_2-target.png,125,2.8815,8,2684,122,feet,jsons/VE125_randls_3.json,467749,602660,42,Man
91,258754,DepthScenes,duration_manipulation_targetAtFixation,jsons/VE125_randls_3.json,http://54.235.29.9/FacialAge/BNav_EC2/DepthDuration/v2_depth_duration_MTurk/v2_DepthDuration_HTML.html#100,100,1717,1144,2560,1440,8-21-2022,8-5-37,92,depth_duration_stimuli/002425_2014-06-28_20-27-29_260595134347_rgbf000031-resize_8/002425_2014-06-28_20-27-29_260595134347_rgbf000031-resize_8-target.png,125,3.8960000000000004,15,1786,111,feet,jsons/VE125_randls_3.json,467749,602660,42,Man
92,258754,DepthScenes,duration_manipulation_targetAtFixation,jsons/VE125_randls_3.json,http://54.235.29.9/FacialAge/BNav_EC2/DepthDuration/v2_depth_duration_MTurk/v2_DepthDuration_HTML.html#100,100,1717,1144,2560,1440,8-21-2022,8-5-37,93,depth_duration_stimuli/003621_2014-05-23_18-06-08_094959634447_rgbf000101-resize_1/003621_2014-05-23_18-06-08_094959634447_rgbf000101-resize_1-target.png,125,3.9835,20,2564,121,feet,jsons/VE125_randls_3.json,467749,602660,42,Man
93,258754,DepthScenes,duration_manipulation_targetAtFixation,jsons/VE125_randls_3.json,http://54.235.29.9/FacialAge/BNav_EC2/DepthDuration/v2_depth_duration_MTurk/v2_DepthDuration_HTML.html#100,100,1717,1144,2560,1440,8-21-2022,8-5-37,94,depth_duration_stimuli/001584_2014-06-20_11-07-43_260595134347_rgbf000002-resize_1/001584_2014-06-20_11-07-43_260595134347_rgbf000002-resize_1-target.png,125,3.53,15,1948,114,feet,jsons/VE125_randls_3.json,467749,602660,42,Man
94,258754,DepthScenes,duration_manipulation_targetAtFixation,jsons/VE125_randls_3.json,http://54.235.29.9/FacialAge/BNav_EC2/DepthDuration/v2_depth_duration_MTurk/v2_DepthDuration_HTML.html#100,100,1717,1144,2560,1440,8-21-2022,8-5-37,95,depth_duration_stimuli/000878_2014-06-08_22-52-45_260595134347_rgbf000045-resize_2/000878_2014-06-08_22-52-45_260595134347_rgbf000045-resize_2-target.png,125,2.092,10,1813,113,feet,jsons/VE125_randls_3.json,467749,602660,42,Man
95,258754,DepthScenes,duration_manipulation_targetAtFixation,jsons/VE125_randls_3.json,http://54.235.29.9/FacialAge/BNav_EC2/DepthDuration/v2_depth_duration_MTurk/v2_DepthDuration_HTML.html#100,100,1717,1144,2560,1440,8-21-2022,8-5-37,96,depth_duration_stimuli/002953_2014-06-08_17-32-18_094959634447_rgbf000059-resize_5/002953_2014-06-08_17-32-18_094959634447_rgbf000059-resize_5-target.png,125,1.551,5,2030,121,feet,jsons/VE125_randls_3.json,467749,602660,42,Man
96,258754,DepthScenes,duration_manipulation_targetAtFixation,jsons/VE125_randls_3.json,http://54.235.29.9/FacialAge/BNav_EC2/DepthDuration/v2_depth_duration_MTurk/v2_DepthDuration_HTML.html#100,100,1717,1144,2560,1440,8-21-2022,8-5-37,97,depth_duration_stimuli/000447_2014-06-08_16-15-46_260595134347_rgbf000130-resize_1/000447_2014-06-08_16-15-46_260595134347_rgbf000130-resize_1-target.png,125,4.479,15,1642,119,feet,jsons/VE125_randls_3.json,467749,602660,42,Man
97,258754,DepthScenes,duration_manipulation_targetAtFixation,jsons/VE125_randls_3.json,http://54.235.29.9/FacialAge/BNav_EC2/DepthDuration/v2_depth_duration_MTurk/v2_DepthDuration_HTML.html#100,100,1717,1144,2560,1440,8-21-2022,8-5-37,98,depth_duration_stimuli/001447_2014-06-19_17-00-32_260595134347_rgbf000082-resize_5/001447_2014-06-19_17-00-32_260595134347_rgbf000082-resize_5-target.png,125,4.13775,10,2126,126,feet,jsons/VE125_randls_3.json,467749,602660,42,Man
98,258754,DepthScenes,duration_manipulation_targetAtFixation,jsons/VE125_randls_3.json,http://54.235.29.9/FacialAge/BNav_EC2/DepthDuration/v2_depth_duration_MTurk/v2_DepthDuration_HTML.html#100,100,1717,1144,2560,1440,8-21-2022,8-5-37,99,depth_duration_stimuli/001540_2014-06-20_17-01-05_260595134347_rgbf000086-resize_2/001540_2014-06-20_17-01-05_260595134347_rgbf000086-resize-original.jpg,125,1.459,0,1847,121,feet,jsons/VE125_randls_3.json,467749,602660,42,Man
99,258754,DepthScenes,duration_manipulation_targetAtFixation,jsons/VE125_randls_3.json,http://54.235.29.9/FacialAge/BNav_EC2/DepthDuration/v2_depth_duration_MTurk/v2_DepthDuration_HTML.html#100,100,1717,1144,2560,1440,8-21-2022,8-5-37,100,depth_duration_stimuli/000929_2014-06-09_16-33-19_260595134347_rgbf000139-resize_0/000929_2014-06-09_16-33-19_260595134347_rgbf000139-resize_0-target.png,125,2.8680000000000003,7,2079,121,feet,jsons/VE125_randls_3.json,467749,602660,42,Man
100,258754,DepthScenes,duration_manipulation_targetAtFixation,jsons/VE125_randls_3.json,http://54.235.29.9/FacialAge/BNav_EC2/DepthDuration/v2_depth_duration_MTurk/v2_DepthDuration_HTML.html#100,100,1717,1144,2560,1440,8-21-2022,8-5-37,101,depth_duration_stimuli/000457_2014-06-08_16-52-43_260595134347_rgbf000199-resize_1/000457_2014-06-08_16-52-43_260595134347_rgbf000199-resize_1-target.png,125,3.6489999999999996,0,5371,122,feet,jsons/VE125_randls_3.json,467749,602660,42,Man
101,258754,DepthScenes,duration_manipulation_targetAtFixation,jsons/VE125_randls_3.json,http://54.235.29.9/FacialAge/BNav_EC2/DepthDuration/v2_depth_duration_MTurk/v2_DepthDuration_HTML.html#100,100,1717,1144,2560,1440,8-21-2022,8-5-37,102,depth_duration_stimuli/002964_2014-06-08_17-46-11_094959634447_rgbf000091-resize_4/002964_2014-06-08_17-46-11_094959634447_rgbf000091-resize_4-target.png,125,1.6909999999999998,5,1765,138,feet,jsons/VE125_randls_3.json,467749,602660,42,Man
102,258754,DepthScenes,duration_manipulation_targetAtFixation,jsons/VE125_randls_3.json,http://54.235.29.9/FacialAge/BNav_EC2/DepthDuration/v2_depth_duration_MTurk/v2_DepthDuration_HTML.html#100,100,1717,1144,2560,1440,8-21-2022,8-5-37,103,depth_duration_stimuli/002136_2014-06-25_21-18-03_260595134347_rgbf000109-resize_3/002136_2014-06-25_21-18-03_260595134347_rgbf000109-resize_3-target.png,125,1.9569999999999999,7,2013,132,feet,jsons/VE125_randls_3.json,467749,602660,42,Man
103,258754,DepthScenes,duration_manipulation_targetAtFixation,jsons/VE125_randls_3.json,http://54.235.29.9/FacialAge/BNav_EC2/DepthDuration/v2_depth_duration_MTurk/v2_DepthDuration_HTML.html#100,100,1717,1144,2560,1440,8-21-2022,8-5-37,104,depth_duration_stimuli/000917_2014-06-09_22-45-29_260595134347_rgbf000149-resize_3/000917_2014-06-09_22-45-29_260595134347_rgbf000149-resize_3-target.png,125,4.1865,15,1754,124,feet,jsons/VE125_randls_3.json,467749,602660,42,Man
104,258754,DepthScenes,duration_manipulation_targetAtFixation,jsons/VE125_randls_3.json,http://54.235.29.9/FacialAge/BNav_EC2/DepthDuration/v2_depth_duration_MTurk/v2_DepthDuration_HTML.html#100,100,1717,1144,2560,1440,8-21-2022,8-5-37,105,depth_duration_stimuli/002323_2014-06-28_20-01-54_260595134347_rgbf000051-resize_4/002323_2014-06-28_20-01-54_260595134347_rgbf000051-resize_4-target.png,125,3.7310000000000003,18,6355,128,feet,jsons/VE125_randls_3.json,467749,602660,42,Man
105,258754,DepthScenes,duration_manipulation_targetAtFixation,jsons/VE125_randls_3.json,http://54.235.29.9/FacialAge/BNav_EC2/DepthDuration/v2_depth_duration_MTurk/v2_DepthDuration_HTML.html#100,100,1717,1144,2560,1440,8-21-2022,8-5-37,106,depth_duration_stimuli/001199_2014-06-17_16-03-48_260595134347_rgbf000077-resize_0/001199_2014-06-17_16-03-48_260595134347_rgbf000077-resize_0-target.png,125,3.4375,15,3757,125,feet,jsons/VE125_randls_3.json,467749,602660,42,Man
106,258754,DepthScenes,duration_manipulation_targetAtFixation,jsons/VE125_randls_3.json,http://54.235.29.9/FacialAge/BNav_EC2/DepthDuration/v2_depth_duration_MTurk/v2_DepthDuration_HTML.html#100,100,1717,1144,2560,1440,8-21-2022,8-5-37,107,depth_duration_stimuli/000502_2014-06-08_23-02-32_260595134347_rgbf000063-resize_4/000502_2014-06-08_23-02-32_260595134347_rgbf000063-resize_4-target.png,125,2.431,7,2260,125,feet,jsons/VE125_randls_3.json,467749,602660,42,Man
107,258754,DepthScenes,duration_manipulation_targetAtFixation,jsons/VE125_randls_3.json,http://54.235.29.9/FacialAge/BNav_EC2/DepthDuration/v2_depth_duration_MTurk/v2_DepthDuration_HTML.html#100,100,1717,1144,2560,1440,8-21-2022,8-5-37,108,depth_duration_stimuli/001555_2014-06-20_17-12-10_260595134347_rgbf000065-resize_4/001555_2014-06-20_17-12-10_260595134347_rgbf000065-resize_4-target.png,125,1.633,5,2374,111,feet,jsons/VE125_randls_3.json,467749,602660,42,Man
108,258754,DepthScenes,duration_manipulation_targetAtFixation,jsons/VE125_randls_3.json,http://54.235.29.9/FacialAge/BNav_EC2/DepthDuration/v2_depth_duration_MTurk/v2_DepthDuration_HTML.html#100,100,1717,1144,2560,1440,8-21-2022,8-5-37,109,depth_duration_stimuli/000103_2014-05-14_22-01-17_260595134347_rgbf000152-resize_5/000103_2014-05-14_22-01-17_260595134347_rgbf000152-resize_5-target.png,125,1.993,7,3180,126,feet,jsons/VE125_randls_3.json,467749,602660,42,Man
109,258754,DepthScenes,duration_manipulation_targetAtFixation,jsons/VE125_randls_3.json,http://54.235.29.9/FacialAge/BNav_EC2/DepthDuration/v2_depth_duration_MTurk/v2_DepthDuration_HTML.html#100,100,1717,1144,2560,1440,8-21-2022,8-5-37,110,depth_duration_stimuli/000436_2014-06-09_22-25-11_260595134347_rgbf000137-resize_1/000436_2014-06-09_22-25-11_260595134347_rgbf000137-resize_1-target.png,125,4.0705,20,2686,123,feet,jsons/VE125_randls_3.json,467749,602660,42,Man
110,258754,DepthScenes,duration_manipulation_targetAtFixation,jsons/VE125_randls_3.json,http://54.235.29.9/FacialAge/BNav_EC2/DepthDuration/v2_depth_duration_MTurk/v2_DepthDuration_HTML.html#100,100,1717,1144,2560,1440,8-21-2022,8-5-37,111,depth_duration_stimuli/002444_2014-06-28_20-32-08_260595134347_rgbf000027-resize_0/002444_2014-06-28_20-32-08_260595134347_rgbf000027-resize_0-target.png,125,4.388999999999999,15,2783,122,feet,jsons/VE125_randls_3.json,467749,602660,42,Man
111,258754,DepthScenes,duration_manipulation_targetAtFixation,jsons/VE125_randls_3.json,http://54.235.29.9/FacialAge/BNav_EC2/DepthDuration/v2_depth_duration_MTurk/v2_DepthDuration_HTML.html#100,100,1717,1144,2560,1440,8-21-2022,8-5-37,112,depth_duration_stimuli/002725_2014-06-22_11-47-51_094959634447_rgbf000070-resize_1/002725_2014-06-22_11-47-51_094959634447_rgbf000070-resize_1-target.png,125,2.195,10,2035,135,feet,jsons/VE125_randls_3.json,467749,602660,42,Man
112,258754,DepthScenes,duration_manipulation_targetAtFixation,jsons/VE125_randls_3.json,http://54.235.29.9/FacialAge/BNav_EC2/DepthDuration/v2_depth_duration_MTurk/v2_DepthDuration_HTML.html#100,100,1717,1144,2560,1440,8-21-2022,8-5-37,113,depth_duration_stimuli/002344_2014-06-28_20-06-29_260595134347_rgbf000030-resize_1/002344_2014-06-28_20-06-29_260595134347_rgbf000030-resize_1-target.png,125,1.5795,5,1631,112,feet,jsons/VE125_randls_3.json,467749,602660,42,Man
113,258754,DepthScenes,duration_manipulation_targetAtFixation,jsons/VE125_randls_3.json,http://54.235.29.9/FacialAge/BNav_EC2/DepthDuration/v2_depth_duration_MTurk/v2_DepthDuration_HTML.html#100,100,1717,1144,2560,1440,8-21-2022,8-5-37,114,depth_duration_stimuli/000739_2014-06-08_18-45-58_260595134347_rgbf000068-resize_1/000739_2014-06-08_18-45-58_260595134347_rgbf000068-resize_1-target.png,125,3.534,14,2102,123,feet,jsons/VE125_randls_3.json,467749,602660,42,Man
114,258754,DepthScenes,duration_manipulation_targetAtFixation,jsons/VE125_randls_3.json,http://54.235.29.9/FacialAge/BNav_EC2/DepthDuration/v2_depth_duration_MTurk/v2_DepthDuration_HTML.html#100,100,1717,1144,2560,1440,8-21-2022,8-5-37,115,depth_duration_stimuli/000734_2014-06-08_17-39-11_260595134347_rgbf000128-resize_2/000734_2014-06-08_17-39-11_260595134347_rgbf000128-resize_2-target.png,125,4.098,20,1849,114,feet,jsons/VE125_randls_3.json,467749,602660,42,Man
115,258754,DepthScenes,duration_manipulation_targetAtFixation,jsons/VE125_randls_3.json,http://54.235.29.9/FacialAge/BNav_EC2/DepthDuration/v2_depth_duration_MTurk/v2_DepthDuration_HTML.html#100,100,1717,1144,2560,1440,8-21-2022,8-5-37,116,depth_duration_stimuli/001170_2014-06-17_15-43-44_260595134347_rgbf000096-resize_6/001170_2014-06-17_15-43-44_260595134347_rgbf000096-resize-original.jpg,125,1.1909999999999998,0,1687,125,feet,jsons/VE125_randls_3.json,467749,602660,42,Man
116,258754,DepthScenes,duration_manipulation_targetAtFixation,jsons/VE125_randls_3.json,http://54.235.29.9/FacialAge/BNav_EC2/DepthDuration/v2_depth_duration_MTurk/v2_DepthDuration_HTML.html#100,100,1717,1144,2560,1440,8-21-2022,8-5-37,117,depth_duration_stimuli/001175_2014-06-17_15-45-55_260595134347_rgbf000129-resize_4/001175_2014-06-17_15-45-55_260595134347_rgbf000129-resize_4-target.png,125,4.255,20,2448,125,feet,jsons/VE125_randls_3.json,467749,602660,42,Man
117,258754,DepthScenes,duration_manipulation_targetAtFixation,jsons/VE125_randls_3.json,http://54.235.29.9/FacialAge/BNav_EC2/DepthDuration/v2_depth_duration_MTurk/v2_DepthDuration_HTML.html#100,100,1717,1144,2560,1440,8-21-2022,8-5-37,118,depth_duration_stimuli/003490_2014-05-21_15-50-11_094959634447_rgbf000101-resize_3/003490_2014-05-21_15-50-11_094959634447_rgbf000101-resize_3-target.png,125,3.6445,15,3435,138,feet,jsons/VE125_randls_3.json,467749,602660,42,Man
118,258754,DepthScenes,duration_manipulation_targetAtFixation,jsons/VE125_randls_3.json,http://54.235.29.9/FacialAge/BNav_EC2/DepthDuration/v2_depth_duration_MTurk/v2_DepthDuration_HTML.html#100,100,1717,1144,2560,1440,8-21-2022,8-5-37,119,depth_duration_stimuli/002375_2014-06-28_20-13-44_260595134347_rgbf000032-resize_1/002375_2014-06-28_20-13-44_260595134347_rgbf000032-resize_1-target.png,125,4.0175,8,2207,125,feet,jsons/VE125_randls_3.json,467749,602660,42,Man
119,258754,DepthScenes,duration_manipulation_targetAtFixation,jsons/VE125_randls_3.json,http://54.235.29.9/FacialAge/BNav_EC2/DepthDuration/v2_depth_duration_MTurk/v2_DepthDuration_HTML.html#100,100,1717,1144,2560,1440,8-21-2022,8-5-37,120,depth_duration_stimuli/002657_2014-06-13_15-29-54_094959634447_rgbf000150-resize_1/002657_2014-06-13_15-29-54_094959634447_rgbf000150-resize_1-target.png,125,4.919,15,1824,128,feet,jsons/VE125_randls_3.json,467749,602660,42,Man
120,258754,DepthScenes,duration_manipulation_targetAtFixation,jsons/VE125_randls_3.json,http://54.235.29.9/FacialAge/BNav_EC2/DepthDuration/v2_depth_duration_MTurk/v2_DepthDuration_HTML.html#100,100,1717,1144,2560,1440,8-21-2022,8-5-37,121,depth_duration_stimuli/001016_2014-06-09_16-16-10_260595134347_rgbf000112-resize_5/001016_2014-06-09_16-16-10_260595134347_rgbf000112-resize_5-target.png,125,1.6565,10,1781,128,feet,jsons/VE125_randls_3.json,467749,602660,42,Man
121,258754,DepthScenes,duration_manipulation_targetAtFixation,jsons/VE125_randls_3.json,http://54.235.29.9/FacialAge/BNav_EC2/DepthDuration/v2_depth_duration_MTurk/v2_DepthDuration_HTML.html#100,100,1717,1144,2560,1440,8-21-2022,8-5-37,122,depth_duration_stimuli/002340_2014-06-28_20-05-46_260595134347_rgbf000113-resize_0/002340_2014-06-28_20-05-46_260595134347_rgbf000113-resize_0-target.png,125,2.4735,20,1817,123,feet,jsons/VE125_randls_3.json,467749,602660,42,Man
122,258754,DepthScenes,duration_manipulation_targetAtFixation,jsons/VE125_randls_3.json,http://54.235.29.9/FacialAge/BNav_EC2/DepthDuration/v2_depth_duration_MTurk/v2_DepthDuration_HTML.html#100,100,1717,1144,2560,1440,8-21-2022,8-5-37,123,depth_duration_stimuli/000506_2014-06-08_23-21-00_260595134347_rgbf000070-resize_7/000506_2014-06-08_23-21-00_260595134347_rgbf000070-resize_7-target.png,125,4.0585,15,2038,124,feet,jsons/VE125_randls_3.json,467749,602660,42,Man
123,258754,DepthScenes,duration_manipulation_targetAtFixation,jsons/VE125_randls_3.json,http://54.235.29.9/FacialAge/BNav_EC2/DepthDuration/v2_depth_duration_MTurk/v2_DepthDuration_HTML.html#100,100,1717,1144,2560,1440,8-21-2022,8-5-37,124,depth_duration_stimuli/003079_2014-06-15_15-18-20_094959634447_rgbf000152-resize_8/003079_2014-06-15_15-18-20_094959634447_rgbf000152-resize_8-target.png,125,2.8775,20,1831,122,feet,jsons/VE125_randls_3.json,467749,602660,42,Man
124,258754,DepthScenes,duration_manipulation_targetAtFixation,jsons/VE125_randls_3.json,http://54.235.29.9/FacialAge/BNav_EC2/DepthDuration/v2_depth_duration_MTurk/v2_DepthDuration_HTML.html#100,100,1717,1144,2560,1440,8-21-2022,8-5-37,125,depth_duration_stimuli/000493_2014-06-09_21-01-18_260595134347_rgbf000196-resize_3/000493_2014-06-09_21-01-18_260595134347_rgbf000196-resize_3-target.png,125,3.44,10,1954,124,feet,jsons/VE125_randls_3.json,467749,602660,42,Man
125,258754,DepthScenes,duration_manipulation_targetAtFixation,jsons/VE125_randls_3.json,http://54.235.29.9/FacialAge/BNav_EC2/DepthDuration/v2_depth_duration_MTurk/v2_DepthDuration_HTML.html#100,100,1717,1144,2560,1440,8-21-2022,8-5-37,126,depth_duration_stimuli/000191_2014-05-12_17-07-38_260595134347_rgbf000199-resize_0/000191_2014-05-12_17-07-38_260595134347_rgbf000199-resize_0-target.png,125,3.7995,20,2213,128,feet,jsons/VE125_randls_3.json,467749,602660,42,Man
126,258754,DepthScenes,duration_manipulation_targetAtFixation,jsons/VE125_randls_3.json,http://54.235.29.9/FacialAge/BNav_EC2/DepthDuration/v2_depth_duration_MTurk/v2_DepthDuration_HTML.html#100,100,1717,1144,2560,1440,8-21-2022,8-5-37,127,depth_duration_stimuli/002763_2014-06-22_19-13-10_094959634447_rgbf000075-resize_4/002763_2014-06-22_19-13-10_094959634447_rgbf000075-resize_4-target.png,125,1.68375,5,2291,125,feet,jsons/VE125_randls_3.json,467749,602660,42,Man
127,258754,DepthScenes,duration_manipulation_targetAtFixation,jsons/VE125_randls_3.json,http://54.235.29.9/FacialAge/BNav_EC2/DepthDuration/v2_depth_duration_MTurk/v2_DepthDuration_HTML.html#100,100,1717,1144,2560,1440,8-21-2022,8-5-37,128,depth_duration_stimuli/002209_2014-06-28_18-36-10_260595134347_rgbf000051-resize_1/002209_2014-06-28_18-36-10_260595134347_rgbf000051-resize_1-target.png,125,2.057,7,2000,123,feet,jsons/VE125_randls_3.json,467749,602660,42,Man
128,258754,DepthScenes,duration_manipulation_targetAtFixation,jsons/VE125_randls_3.json,http://54.235.29.9/FacialAge/BNav_EC2/DepthDuration/v2_depth_duration_MTurk/v2_DepthDuration_HTML.html#100,100,1717,1144,2560,1440,8-21-2022,8-5-37,129,depth_duration_stimuli/003292_2014-05-14_21-53-49_094959634447_rgbf000100-resize_2/003292_2014-05-14_21-53-49_094959634447_rgbf000100-resize_2-target.png,125,3.4815,10,2065,126,feet,jsons/VE125_randls_3.json,467749,602660,42,Man
129,258754,DepthScenes,duration_manipulation_targetAtFixation,jsons/VE125_randls_3.json,http://54.235.29.9/FacialAge/BNav_EC2/DepthDuration/v2_depth_duration_MTurk/v2_DepthDuration_HTML.html#100,100,1717,1144,2560,1440,8-21-2022,8-5-37,130,depth_duration_stimuli/002639_2014-06-24_14-51-37_094959634447_rgbf000074-resize_4/002639_2014-06-24_14-51-37_094959634447_rgbf000074-resize_4-target.png,125,4.0375,12,3756,117,feet,jsons/VE125_randls_3.json,467749,602660,42,Man
130,258754,DepthScenes,duration_manipulation_targetAtFixation,jsons/VE125_randls_3.json,http://54.235.29.9/FacialAge/BNav_EC2/DepthDuration/v2_depth_duration_MTurk/v2_DepthDuration_HTML.html#100,100,1717,1144,2560,1440,8-21-2022,8-5-37,131,depth_duration_stimuli/001133_2014-06-17_14-49-16_260595134347_rgbf000100-resize_0/001133_2014-06-17_14-49-16_260595134347_rgbf000100-resize_0-target.png,125,4.2115,13,3862,122,feet,jsons/VE125_randls_3.json,467749,602660,42,Man
131,258754,DepthScenes,duration_manipulation_targetAtFixation,jsons/VE125_randls_3.json,http://54.235.29.9/FacialAge/BNav_EC2/DepthDuration/v2_depth_duration_MTurk/v2_DepthDuration_HTML.html#100,100,1717,1144,2560,1440,8-21-2022,8-5-37,132,depth_duration_stimuli/001132_2014-06-17_14-48-54_260595134347_rgbf000100-resize_2/001132_2014-06-17_14-48-54_260595134347_rgbf000100-resize_2-target.png,125,3.753,15,2858,124,feet,jsons/VE125_randls_3.json,467749,602660,42,Man
132,258754,DepthScenes,duration_manipulation_targetAtFixation,jsons/VE125_randls_3.json,http://54.235.29.9/FacialAge/BNav_EC2/DepthDuration/v2_depth_duration_MTurk/v2_DepthDuration_HTML.html#100,100,1717,1144,2560,1440,8-21-2022,8-5-37,133,depth_duration_stimuli/002988_2014-06-15_12-24-20_094959634447_rgbf000150-resize_1/002988_2014-06-15_12-24-20_094959634447_rgbf000150-resize_1-target.png,125,4.7669999999999995,20,1735,113,feet,jsons/VE125_randls_3.json,467749,602660,42,Man
133,258754,DepthScenes,duration_manipulation_targetAtFixation,jsons/VE125_randls_3.json,http://54.235.29.9/FacialAge/BNav_EC2/DepthDuration/v2_depth_duration_MTurk/v2_DepthDuration_HTML.html#100,100,1717,1144,2560,1440,8-21-2022,8-5-37,134,depth_duration_stimuli/001052_2014-06-08_18-24-54_260595134347_rgbf000130-resize_1/001052_2014-06-08_18-24-54_260595134347_rgbf000130-resize_1-target.png,125,4.1045,21,4233,122,feet,jsons/VE125_randls_3.json,467749,602660,42,Man
134,258754,DepthScenes,duration_manipulation_targetAtFixation,jsons/VE125_randls_3.json,http://54.235.29.9/FacialAge/BNav_EC2/DepthDuration/v2_depth_duration_MTurk/v2_DepthDuration_HTML.html#100,100,1717,1144,2560,1440,8-21-2022,8-5-37,135,depth_duration_stimuli/002072_2014-06-24_21-48-06_260595134347_rgbf000115-resize_0/002072_2014-06-24_21-48-06_260595134347_rgbf000115-resize-original.jpg,125,4.702,0,1776,138,feet,jsons/VE125_randls_3.json,467749,602660,42,Man
135,258754,DepthScenes,duration_manipulation_targetAtFixation,jsons/VE125_randls_3.json,http://54.235.29.9/FacialAge/BNav_EC2/DepthDuration/v2_depth_duration_MTurk/v2_DepthDuration_HTML.html#100,100,1717,1144,2560,1440,8-21-2022,8-5-37,136,depth_duration_stimuli/002118_2014-06-25_20-32-08_260595134347_rgbf000078-resize_1/002118_2014-06-25_20-32-08_260595134347_rgbf000078-resize_1-target.png,125,2.6460000000000004,5,1532,126,feet,jsons/VE125_randls_3.json,467749,602660,42,Man
136,258754,DepthScenes,duration_manipulation_targetAtFixation,jsons/VE125_randls_3.json,http://54.235.29.9/FacialAge/BNav_EC2/DepthDuration/v2_depth_duration_MTurk/v2_DepthDuration_HTML.html#100,100,1717,1144,2560,1440,8-21-2022,8-5-37,137,depth_duration_stimuli/001516_2014-06-20_16-25-09_260595134347_rgbf000076-resize_2/001516_2014-06-20_16-25-09_260595134347_rgbf000076-resize_2-target.png,125,1.7445,0,1761,125,feet,jsons/VE125_randls_3.json,467749,602660,42,Man
137,258754,DepthScenes,duration_manipulation_targetAtFixation,jsons/VE125_randls_3.json,http://54.235.29.9/FacialAge/BNav_EC2/DepthDuration/v2_depth_duration_MTurk/v2_DepthDuration_HTML.html#100,100,1717,1144,2560,1440,8-21-2022,8-5-37,138,depth_duration_stimuli/002039_2014-06-24_20-22-38_260595134347_rgbf000084-resize_1/002039_2014-06-24_20-22-38_260595134347_rgbf000084-resize_1-target.png,125,4.408,20,1853,122,feet,jsons/VE125_randls_3.json,467749,602660,42,Man
138,258754,DepthScenes,duration_manipulation_targetAtFixation,jsons/VE125_randls_3.json,http://54.235.29.9/FacialAge/BNav_EC2/DepthDuration/v2_depth_duration_MTurk/v2_DepthDuration_HTML.html#100,100,1717,1144,2560,1440,8-21-2022,8-5-37,139,depth_duration_stimuli/002103_2014-06-25_20-00-40_260595134347_rgbf000049-resize_0/002103_2014-06-25_20-00-40_260595134347_rgbf000049-resize_0-target.png,125,4.105,10,1916,125,feet,jsons/VE125_randls_3.json,467749,602660,42,Man
139,258754,DepthScenes,duration_manipulation_targetAtFixation,jsons/VE125_randls_3.json,http://54.235.29.9/FacialAge/BNav_EC2/DepthDuration/v2_depth_duration_MTurk/v2_DepthDuration_HTML.html#100,100,1717,1144,2560,1440,8-21-2022,8-5-37,140,depth_duration_stimuli/002748_2014-06-22_19-07-22_094959634447_rgbf000078-resize_1/002748_2014-06-22_19-07-22_094959634447_rgbf000078-resize_1-target.png,125,4.6705,15,2648,122,feet,jsons/VE125_randls_3.json,467749,602660,42,Man
140,258754,DepthScenes,duration_manipulation_targetAtFixation,jsons/VE125_randls_3.json,http://54.235.29.9/FacialAge/BNav_EC2/DepthDuration/v2_depth_duration_MTurk/v2_DepthDuration_HTML.html#100,100,1717,1144,2560,1440,8-21-2022,8-5-37,141,depth_duration_stimuli/002995_2014-06-15_12-31-26_094959634447_rgbf000150-resize_1/002995_2014-06-15_12-31-26_094959634447_rgbf000150-resize_1-target.png,125,3.8360000000000003,10,10456,124,feet,jsons/VE125_randls_3.json,467749,602660,42,Man
141,258754,DepthScenes,duration_manipulation_targetAtFixation,jsons/VE125_randls_3.json,http://54.235.29.9/FacialAge/BNav_EC2/DepthDuration/v2_depth_duration_MTurk/v2_DepthDuration_HTML.html#100,100,1717,1144,2560,1440,8-21-2022,8-5-37,142,depth_duration_stimuli/001417_2014-06-19_16-25-36_260595134347_rgbf000115-resize_5/001417_2014-06-19_16-25-36_260595134347_rgbf000115-resize_5-target.png,125,4.6255,10,1944,125,feet,jsons/VE125_randls_3.json,467749,602660,42,Man
142,258754,DepthScenes,duration_manipulation_targetAtFixation,jsons/VE125_randls_3.json,http://54.235.29.9/FacialAge/BNav_EC2/DepthDuration/v2_depth_duration_MTurk/v2_DepthDuration_HTML.html#100,100,1717,1144,2560,1440,8-21-2022,8-5-37,143,depth_duration_stimuli/003081_2014-06-15_15-19-16_094959634447_rgbf000150-resize_1/003081_2014-06-15_15-19-16_094959634447_rgbf000150-resize_1-target.png,125,3.9125,12,2152,122,feet,jsons/VE125_randls_3.json,467749,602660,42,Man
143,258754,DepthScenes,duration_manipulation_targetAtFixation,jsons/VE125_randls_3.json,http://54.235.29.9/FacialAge/BNav_EC2/DepthDuration/v2_depth_duration_MTurk/v2_DepthDuration_HTML.html#100,100,1717,1144,2560,1440,8-21-2022,8-5-37,144,depth_duration_stimuli/000522_2014-06-08_13-35-06_260595134347_rgbf000244-resize_1/000522_2014-06-08_13-35-06_260595134347_rgbf000244-resize_1-target.png,125,2.3715,5,1502,125,feet,jsons/VE125_randls_3.json,467749,602660,42,Man
144,258754,DepthScenes,duration_manipulation_targetAtFixation,jsons/VE125_randls_3.json,http://54.235.29.9/FacialAge/BNav_EC2/DepthDuration/v2_depth_duration_MTurk/v2_DepthDuration_HTML.html#100,100,1717,1144,2560,1440,8-21-2022,8-5-37,145,depth_duration_stimuli/002949_2014-06-26_15-57-42_094959634447_rgbf000079-resize_1/002949_2014-06-26_15-57-42_094959634447_rgbf000079-resize_1-target.png,125,1.8915,7,2076,120,feet,jsons/VE125_randls_3.json,467749,602660,42,Man
145,258754,DepthScenes,duration_manipulation_targetAtFixation,jsons/VE125_randls_3.json,http://54.235.29.9/FacialAge/BNav_EC2/DepthDuration/v2_depth_duration_MTurk/v2_DepthDuration_HTML.html#100,100,1717,1144,2560,1440,8-21-2022,8-5-37,146,depth_duration_stimuli/001498_2014-06-19_17-45-14_260595134347_rgbf000129-resize_4/001498_2014-06-19_17-45-14_260595134347_rgbf000129-resize-original.jpg,125,1.4075,0,1558,128,feet,jsons/VE125_randls_3.json,467749,602660,42,Man
146,258754,DepthScenes,duration_manipulation_targetAtFixation,jsons/VE125_randls_3.json,http://54.235.29.9/FacialAge/BNav_EC2/DepthDuration/v2_depth_duration_MTurk/v2_DepthDuration_HTML.html#100,100,1717,1144,2560,1440,8-21-2022,8-5-37,147,depth_duration_stimuli/002549_2014-06-24_13-41-39_094959634447_rgbf000022-resize_3/002549_2014-06-24_13-41-39_094959634447_rgbf000022-resize_3-target.png,125,1.476,8,5249,125,feet,jsons/VE125_randls_3.json,467749,602660,42,Man
147,258754,DepthScenes,duration_manipulation_targetAtFixation,jsons/VE125_randls_3.json,http://54.235.29.9/FacialAge/BNav_EC2/DepthDuration/v2_depth_duration_MTurk/v2_DepthDuration_HTML.html#100,100,1717,1144,2560,1440,8-21-2022,8-5-37,148,depth_duration_stimuli/002750_2014-06-22_19-08-03_094959634447_rgbf000094-resize_4/002750_2014-06-22_19-08-03_094959634447_rgbf000094-resize_4-target.png,125,2.354,7,1971,117,feet,jsons/VE125_randls_3.json,467749,602660,42,Man
148,258754,DepthScenes,duration_manipulation_targetAtFixation,jsons/VE125_randls_3.json,http://54.235.29.9/FacialAge/BNav_EC2/DepthDuration/v2_depth_duration_MTurk/v2_DepthDuration_HTML.html#100,100,1717,1144,2560,1440,8-21-2022,8-5-37,149,depth_duration_stimuli/001570_2014-06-20_17-21-09_260595134347_rgbf000135-resize_4/001570_2014-06-20_17-21-09_260595134347_rgbf000135-resize_4-target.png,125,4.467,14,2141,126,feet,jsons/VE125_randls_3.json,467749,602660,42,Man
149,258754,DepthScenes,duration_manipulation_targetAtFixation,jsons/VE125_randls_3.json,http://54.235.29.9/FacialAge/BNav_EC2/DepthDuration/v2_depth_duration_MTurk/v2_DepthDuration_HTML.html#100,100,1717,1144,2560,1440,8-21-2022,8-5-37,150,depth_duration_stimuli/001392_2014-06-19_16-07-59_260595134347_rgbf000046-resize_1/001392_2014-06-19_16-07-59_260595134347_rgbf000046-resize_1-target.png,125,4.135,15,2206,118,feet,jsons/VE125_randls_3.json,467749,602660,42,Man
150,258754,DepthScenes,duration_manipulation_targetAtFixation,jsons/VE125_randls_3.json,http://54.235.29.9/FacialAge/BNav_EC2/DepthDuration/v2_depth_duration_MTurk/v2_DepthDuration_HTML.html#100,100,1717,1144,2560,1440,8-21-2022,8-5-37,151,depth_duration_stimuli/003070_2014-06-15_14-58-27_094959634447_rgbf000150-resize_3/003070_2014-06-15_14-58-27_094959634447_rgbf000150-resize_3-target.png,125,2.9415,10,2273,111,feet,jsons/VE125_randls_3.json,467749,602660,42,Man
151,258754,DepthScenes,duration_manipulation_targetAtFixation,jsons/VE125_randls_3.json,http://54.235.29.9/FacialAge/BNav_EC2/DepthDuration/v2_depth_duration_MTurk/v2_DepthDuration_HTML.html#100,100,1717,1144,2560,1440,8-21-2022,8-5-37,152,depth_duration_stimuli/000943_2014-06-09_19-31-07_260595134347_rgbf000128-resize_1/000943_2014-06-09_19-31-07_260595134347_rgbf000128-resize_1-target.png,125,1.9765,8,3513,116,feet,jsons/VE125_randls_3.json,467749,602660,42,Man
152,258754,DepthScenes,duration_manipulation_targetAtFixation,jsons/VE125_randls_3.json,http://54.235.29.9/FacialAge/BNav_EC2/DepthDuration/v2_depth_duration_MTurk/v2_DepthDuration_HTML.html#100,100,1717,1144,2560,1440,8-21-2022,8-5-37,153,depth_duration_stimuli/000682_2014-06-08_23-14-58_260595134347_rgbf000041-resize_5/000682_2014-06-08_23-14-58_260595134347_rgbf000041-resize_5-target.png,125,2.7239999999999998,8,2305,123,feet,jsons/VE125_randls_3.json,467749,602660,42,Man
153,258754,DepthScenes,duration_manipulation_targetAtFixation,jsons/VE125_randls_3.json,http://54.235.29.9/FacialAge/BNav_EC2/DepthDuration/v2_depth_duration_MTurk/v2_DepthDuration_HTML.html#100,100,1717,1144,2560,1440,8-21-2022,8-5-37,154,depth_duration_stimuli/001650_2014-06-20_12-09-00_260595134347_rgbf000087-resize_3/001650_2014-06-20_12-09-00_260595134347_rgbf000087-resize_3-target.png,125,1.9505,5,1605,124,feet,jsons/VE125_randls_3.json,467749,602660,42,Man
154,258754,DepthScenes,duration_manipulation_targetAtFixation,jsons/VE125_randls_3.json,http://54.235.29.9/FacialAge/BNav_EC2/DepthDuration/v2_depth_duration_MTurk/v2_DepthDuration_HTML.html#100,100,1717,1144,2560,1440,8-21-2022,8-5-37,155,depth_duration_stimuli/001029_2014-06-08_13-17-57_260595134347_rgbf000065-resize_1/001029_2014-06-08_13-17-57_260595134347_rgbf000065-resize_1-target.png,125,3.0835,10,2069,118,feet,jsons/VE125_randls_3.json,467749,602660,42,Man
155,258754,DepthScenes,duration_manipulation_targetAtFixation,jsons/VE125_randls_3.json,http://54.235.29.9/FacialAge/BNav_EC2/DepthDuration/v2_depth_duration_MTurk/v2_DepthDuration_HTML.html#100,100,1717,1144,2560,1440,8-21-2022,8-5-37,156,depth_duration_stimuli/000677_2014-06-08_23-10-32_260595134347_rgbf000158-resize_6/000677_2014-06-08_23-10-32_260595134347_rgbf000158-resize_6-target.png,125,3.556,10,3457,135,feet,jsons/VE125_randls_3.json,467749,602660,42,Man
156,258754,DepthScenes,duration_manipulation_targetAtFixation,jsons/VE125_randls_3.json,http://54.235.29.9/FacialAge/BNav_EC2/DepthDuration/v2_depth_duration_MTurk/v2_DepthDuration_HTML.html#100,100,1717,1144,2560,1440,8-21-2022,8-5-37,157,depth_duration_stimuli/002509_2014-06-24_13-19-22_094959634447_rgbf000077-resize_0/002509_2014-06-24_13-19-22_094959634447_rgbf000077-resize_0-target.png,125,1.3065,5,2204,125,feet,jsons/VE125_randls_3.json,467749,602660,42,Man
157,258754,DepthScenes,duration_manipulation_targetAtFixation,jsons/VE125_randls_3.json,http://54.235.29.9/FacialAge/BNav_EC2/DepthDuration/v2_depth_duration_MTurk/v2_DepthDuration_HTML.html#100,100,1717,1144,2560,1440,8-21-2022,8-5-37,158,depth_duration_stimuli/003338_2014-05-20_11-01-23_094959634447_rgbf000051-resize_6/003338_2014-05-20_11-01-23_094959634447_rgbf000051-resize_6-target.png,125,1.693,8,1915,117,feet,jsons/VE125_randls_3.json,467749,602660,42,Man
158,258754,DepthScenes,duration_manipulation_targetAtFixation,jsons/VE125_randls_3.json,http://54.235.29.9/FacialAge/BNav_EC2/DepthDuration/v2_depth_duration_MTurk/v2_DepthDuration_HTML.html#100,100,1717,1144,2560,1440,8-21-2022,8-5-37,159,depth_duration_stimuli/001164_2014-06-17_15-35-46_260595134347_rgbf000085-resize_3/001164_2014-06-17_15-35-46_260595134347_rgbf000085-resize_3-target.png,125,2.354,8,1584,114,feet,jsons/VE125_randls_3.json,467749,602660,42,Man
159,258754,DepthScenes,duration_manipulation_targetAtFixation,jsons/VE125_randls_3.json,http://54.235.29.9/FacialAge/BNav_EC2/DepthDuration/v2_depth_duration_MTurk/v2_DepthDuration_HTML.html#100,100,1717,1144,2560,1440,8-21-2022,8-5-37,160,depth_duration_stimuli/001136_2014-06-17_15-19-41_260595134347_rgbf000076-resize_3/001136_2014-06-17_15-19-41_260595134347_rgbf000076-resize_3-target.png,125,1.8655,8,1826,116,feet,jsons/VE125_randls_3.json,467749,602660,42,Man
160,258754,DepthScenes,duration_manipulation_targetAtFixation,jsons/VE125_randls_3.json,http://54.235.29.9/FacialAge/BNav_EC2/DepthDuration/v2_depth_duration_MTurk/v2_DepthDuration_HTML.html#100,100,1717,1144,2560,1440,8-21-2022,8-5-37,161,depth_duration_stimuli/000810_2014-06-08_17-20-01_260595134347_rgbf000105-resize_0/000810_2014-06-08_17-20-01_260595134347_rgbf000105-resize_0-target.png,125,1.4865,5,2304,124,feet,jsons/VE125_randls_3.json,467749,602660,42,Man
161,258754,DepthScenes,duration_manipulation_targetAtFixation,jsons/VE125_randls_3.json,http://54.235.29.9/FacialAge/BNav_EC2/DepthDuration/v2_depth_duration_MTurk/v2_DepthDuration_HTML.html#100,100,1717,1144,2560,1440,8-21-2022,8-5-37,162,depth_duration_stimuli/001214_2014-06-17_16-13-55_260595134347_rgbf000111-resize_0/001214_2014-06-17_16-13-55_260595134347_rgbf000111-resize_0-target.png,125,2.6505,10,1987,123,feet,jsons/VE125_randls_3.json,467749,602660,42,Man
162,258754,DepthScenes,duration_manipulation_targetAtFixation,jsons/VE125_randls_3.json,http://54.235.29.9/FacialAge/BNav_EC2/DepthDuration/v2_depth_duration_MTurk/v2_DepthDuration_HTML.html#100,100,1717,1144,2560,1440,8-21-2022,8-5-37,163,depth_duration_stimuli/001110_2014-06-15_17-25-28_260595134347_rgbf000150-resize_1/001110_2014-06-15_17-25-28_260595134347_rgbf000150-resize_1-target.png,125,1.7115,10,1627,125,feet,jsons/VE125_randls_3.json,467749,602660,42,Man
163,258754,DepthScenes,duration_manipulation_targetAtFixation,jsons/VE125_randls_3.json,http://54.235.29.9/FacialAge/BNav_EC2/DepthDuration/v2_depth_duration_MTurk/v2_DepthDuration_HTML.html#100,100,1717,1144,2560,1440,8-21-2022,8-5-37,164,depth_duration_stimuli/000927_2014-06-09_16-32-30_260595134347_rgbf000123-resize_3/000927_2014-06-09_16-32-30_260595134347_rgbf000123-resize_3-target.png,125,2.6785,10,2430,112,feet,jsons/VE125_randls_3.json,467749,602660,42,Man
