,subjID,experimentName,versionName,sequenceName,url,selected_row,windowWidth,windowHeight,screenWidth,screenHeight,startDate,startTime,trial,stimulus,duration,actual_depth,depth_estimate,trial_RT,log_sceneDuration,unitSelection,seq_filepath,experimentTime,totalTime,age,gender
0,258838,DepthScenes,duration_manipulation_targetAtFixation,jsons/VE83_randls_24_rotated.json,http://54.235.29.9/FacialAge/BNav_EC2/DepthDuration/v2_depth_duration_MTurk/v2_DepthDuration_HTML.html#14,14,1920,1080,1920,1080,8-29-2023,13-18-15,1,depth_duration_stimuli/000457_2014-06-08_16-52-43_260595134347_rgbf000199-resize_1/000457_2014-06-08_16-52-43_260595134347_rgbf000199-resize_1-target.png,83,3.6489999999999996,6,4929,82,meters,jsons/VE83_randls_24_rotated.json,1230459,1589625,35,Man
1,258838,DepthScenes,duration_manipulation_targetAtFixation,jsons/VE83_randls_24_rotated.json,http://54.235.29.9/FacialAge/BNav_EC2/DepthDuration/v2_depth_duration_MTurk/v2_DepthDuration_HTML.html#14,14,1920,1080,1920,1080,8-29-2023,13-18-15,2,depth_duration_stimuli/000929_2014-06-09_16-33-19_260595134347_rgbf000139-resize_0/000929_2014-06-09_16-33-19_260595134347_rgbf000139-resize_0-target.png,83,2.8680000000000003,3,5282,82,meters,jsons/VE83_randls_24_rotated.json,1230459,1589625,35,Man
2,258838,DepthScenes,duration_manipulation_targetAtFixation,jsons/VE83_randls_24_rotated.json,http://54.235.29.9/FacialAge/BNav_EC2/DepthDuration/v2_depth_duration_MTurk/v2_DepthDuration_HTML.html#14,14,1920,1080,1920,1080,8-29-2023,13-18-15,3,depth_duration_stimuli/003587_2014-05-23_16-48-02_094959634447_rgbf002384-resize_2/003587_2014-05-23_16-48-02_094959634447_rgbf002384-resize_2-target.png,83,1.357,2,3155,82,meters,jsons/VE83_randls_24_rotated.json,1230459,1589625,35,Man
3,258838,DepthScenes,duration_manipulation_targetAtFixation,jsons/VE83_randls_24_rotated.json,http://54.235.29.9/FacialAge/BNav_EC2/DepthDuration/v2_depth_duration_MTurk/v2_DepthDuration_HTML.html#14,14,1920,1080,1920,1080,8-29-2023,13-18-15,4,depth_duration_stimuli/001167_2014-06-17_15-38-07_260595134347_rgbf000108-resize_0/001167_2014-06-17_15-38-07_260595134347_rgbf000108-resize_0-target.png,83,1.8505,6,3420,83,meters,jsons/VE83_randls_24_rotated.json,1230459,1589625,35,Man
4,258838,DepthScenes,duration_manipulation_targetAtFixation,jsons/VE83_randls_24_rotated.json,http://54.235.29.9/FacialAge/BNav_EC2/DepthDuration/v2_depth_duration_MTurk/v2_DepthDuration_HTML.html#14,14,1920,1080,1920,1080,8-29-2023,13-18-15,5,depth_duration_stimuli/000137_2014-05-20_17-04-49_260595134347_rgbf000120-resize_1/000137_2014-05-20_17-04-49_260595134347_rgbf000120-resize_1-target.png,83,3.786,8,3067,83,meters,jsons/VE83_randls_24_rotated.json,1230459,1589625,35,Man
5,258838,DepthScenes,duration_manipulation_targetAtFixation,jsons/VE83_randls_24_rotated.json,http://54.235.29.9/FacialAge/BNav_EC2/DepthDuration/v2_depth_duration_MTurk/v2_DepthDuration_HTML.html#14,14,1920,1080,1920,1080,8-29-2023,13-18-15,6,depth_duration_stimuli/000736_2014-06-08_18-24-15_260595134347_rgbf000206-resize_3/000736_2014-06-08_18-24-15_260595134347_rgbf000206-resize_3-target.png,83,3.515,5,4951,83,meters,jsons/VE83_randls_24_rotated.json,1230459,1589625,35,Man
6,258838,DepthScenes,duration_manipulation_targetAtFixation,jsons/VE83_randls_24_rotated.json,http://54.235.29.9/FacialAge/BNav_EC2/DepthDuration/v2_depth_duration_MTurk/v2_DepthDuration_HTML.html#14,14,1920,1080,1920,1080,8-29-2023,13-18-15,7,depth_duration_stimuli/000927_2014-06-09_16-32-30_260595134347_rgbf000123-resize_3/000927_2014-06-09_16-32-30_260595134347_rgbf000123-resize_3-target.png,83,2.6785,4,4094,82,meters,jsons/VE83_randls_24_rotated.json,1230459,1589625,35,Man
7,258838,DepthScenes,duration_manipulation_targetAtFixation,jsons/VE83_randls_24_rotated.json,http://54.235.29.9/FacialAge/BNav_EC2/DepthDuration/v2_depth_duration_MTurk/v2_DepthDuration_HTML.html#14,14,1920,1080,1920,1080,8-29-2023,13-18-15,8,depth_duration_stimuli/001110_2014-06-15_17-25-28_260595134347_rgbf000150-resize_1/001110_2014-06-15_17-25-28_260595134347_rgbf000150-resize_1-target.png,83,1.7115,2,4699,83,meters,jsons/VE83_randls_24_rotated.json,1230459,1589625,35,Man
8,258838,DepthScenes,duration_manipulation_targetAtFixation,jsons/VE83_randls_24_rotated.json,http://54.235.29.9/FacialAge/BNav_EC2/DepthDuration/v2_depth_duration_MTurk/v2_DepthDuration_HTML.html#14,14,1920,1080,1920,1080,8-29-2023,13-18-15,9,depth_duration_stimuli/002657_2014-06-13_15-29-54_094959634447_rgbf000150-resize_1/002657_2014-06-13_15-29-54_094959634447_rgbf000150-resize_1-target.png,83,4.919,9,8156,82,meters,jsons/VE83_randls_24_rotated.json,1230459,1589625,35,Man
9,258838,DepthScenes,duration_manipulation_targetAtFixation,jsons/VE83_randls_24_rotated.json,http://54.235.29.9/FacialAge/BNav_EC2/DepthDuration/v2_depth_duration_MTurk/v2_DepthDuration_HTML.html#14,14,1920,1080,1920,1080,8-29-2023,13-18-15,10,depth_duration_stimuli/002375_2014-06-28_20-13-44_260595134347_rgbf000032-resize_1/002375_2014-06-28_20-13-44_260595134347_rgbf000032-resize_1-target.png,83,4.0175,4,5659,84,meters,jsons/VE83_randls_24_rotated.json,1230459,1589625,35,Man
10,258838,DepthScenes,duration_manipulation_targetAtFixation,jsons/VE83_randls_24_rotated.json,http://54.235.29.9/FacialAge/BNav_EC2/DepthDuration/v2_depth_duration_MTurk/v2_DepthDuration_HTML.html#14,14,1920,1080,1920,1080,8-29-2023,13-18-15,11,depth_duration_stimuli/000409_2014-06-04_19-23-33_260595134347_rgbf000067-resize_0/000409_2014-06-04_19-23-33_260595134347_rgbf000067-resize_0-target.png,83,3.7335,7,4417,82,meters,jsons/VE83_randls_24_rotated.json,1230459,1589625,35,Man
11,258838,DepthScenes,duration_manipulation_targetAtFixation,jsons/VE83_randls_24_rotated.json,http://54.235.29.9/FacialAge/BNav_EC2/DepthDuration/v2_depth_duration_MTurk/v2_DepthDuration_HTML.html#14,14,1920,1080,1920,1080,8-29-2023,13-18-15,12,depth_duration_stimuli/002663_2014-06-13_15-50-26_094959634447_rgbf000075-resize_1/002663_2014-06-13_15-50-26_094959634447_rgbf000075-resize_1-target.png,83,4.7495,5,3997,83,meters,jsons/VE83_randls_24_rotated.json,1230459,1589625,35,Man
12,258838,DepthScenes,duration_manipulation_targetAtFixation,jsons/VE83_randls_24_rotated.json,http://54.235.29.9/FacialAge/BNav_EC2/DepthDuration/v2_depth_duration_MTurk/v2_DepthDuration_HTML.html#14,14,1920,1080,1920,1080,8-29-2023,13-18-15,13,depth_duration_stimuli/000780_2014-06-08_22-28-29_260595134347_rgbf000126-resize_1/000780_2014-06-08_22-28-29_260595134347_rgbf000126-resize_1-target.png,83,3.3825,8,4777,82,meters,jsons/VE83_randls_24_rotated.json,1230459,1589625,35,Man
13,258838,DepthScenes,duration_manipulation_targetAtFixation,jsons/VE83_randls_24_rotated.json,http://54.235.29.9/FacialAge/BNav_EC2/DepthDuration/v2_depth_duration_MTurk/v2_DepthDuration_HTML.html#14,14,1920,1080,1920,1080,8-29-2023,13-18-15,14,depth_duration_stimuli/002445_2014-06-28_20-32-16_260595134347_rgbf000029-resize_4/002445_2014-06-28_20-32-16_260595134347_rgbf000029-resize_4-target.png,83,2.5315,4,5346,82,meters,jsons/VE83_randls_24_rotated.json,1230459,1589625,35,Man
14,258838,DepthScenes,duration_manipulation_targetAtFixation,jsons/VE83_randls_24_rotated.json,http://54.235.29.9/FacialAge/BNav_EC2/DepthDuration/v2_depth_duration_MTurk/v2_DepthDuration_HTML.html#14,14,1920,1080,1920,1080,8-29-2023,13-18-15,15,depth_duration_stimuli/001100_2014-06-15_17-46-26_260595134347_rgbf000225-resize_2/001100_2014-06-15_17-46-26_260595134347_rgbf000225-resize_2-target.png,83,2.24,7,3523,82,meters,jsons/VE83_randls_24_rotated.json,1230459,1589625,35,Man
15,258838,DepthScenes,duration_manipulation_targetAtFixation,jsons/VE83_randls_24_rotated.json,http://54.235.29.9/FacialAge/BNav_EC2/DepthDuration/v2_depth_duration_MTurk/v2_DepthDuration_HTML.html#14,14,1920,1080,1920,1080,8-29-2023,13-18-15,16,depth_duration_stimuli/002784_2014-06-22_19-26-30_094959634447_rgbf000083-resize_3/002784_2014-06-22_19-26-30_094959634447_rgbf000083-resize_3-target.png,83,1.8046666666667,10,3962,82,meters,jsons/VE83_randls_24_rotated.json,1230459,1589625,35,Man
16,258838,DepthScenes,duration_manipulation_targetAtFixation,jsons/VE83_randls_24_rotated.json,http://54.235.29.9/FacialAge/BNav_EC2/DepthDuration/v2_depth_duration_MTurk/v2_DepthDuration_HTML.html#14,14,1920,1080,1920,1080,8-29-2023,13-18-15,17,depth_duration_stimuli/000556_2014-06-09_22-42-56_260595134347_rgbf000214-resize_1/000556_2014-06-09_22-42-56_260595134347_rgbf000214-resize_1-target.png,83,4.8415,5,29010,83,meters,jsons/VE83_randls_24_rotated.json,1230459,1589625,35,Man
17,258838,DepthScenes,duration_manipulation_targetAtFixation,jsons/VE83_randls_24_rotated.json,http://54.235.29.9/FacialAge/BNav_EC2/DepthDuration/v2_depth_duration_MTurk/v2_DepthDuration_HTML.html#14,14,1920,1080,1920,1080,8-29-2023,13-18-15,18,depth_duration_stimuli/001158_2014-06-17_15-32-16_260595134347_rgbf000138-resize_2/001158_2014-06-17_15-32-16_260595134347_rgbf000138-resize_2-target.png,83,4.5315,13,3747,84,meters,jsons/VE83_randls_24_rotated.json,1230459,1589625,35,Man
18,258838,DepthScenes,duration_manipulation_targetAtFixation,jsons/VE83_randls_24_rotated.json,http://54.235.29.9/FacialAge/BNav_EC2/DepthDuration/v2_depth_duration_MTurk/v2_DepthDuration_HTML.html#14,14,1920,1080,1920,1080,8-29-2023,13-18-15,19,depth_duration_stimuli/001498_2014-06-19_17-45-14_260595134347_rgbf000129-resize_4/001498_2014-06-19_17-45-14_260595134347_rgbf000129-resize-original.jpg,83,1.4075,8,3611,84,meters,jsons/VE83_randls_24_rotated.json,1230459,1589625,35,Man
19,258838,DepthScenes,duration_manipulation_targetAtFixation,jsons/VE83_randls_24_rotated.json,http://54.235.29.9/FacialAge/BNav_EC2/DepthDuration/v2_depth_duration_MTurk/v2_DepthDuration_HTML.html#14,14,1920,1080,1920,1080,8-29-2023,13-18-15,20,depth_duration_stimuli/000709_2014-06-08_13-51-55_260595134347_rgbf000068-resize_3/000709_2014-06-08_13-51-55_260595134347_rgbf000068-resize_3-target.png,83,1.8030000000000002,14,4138,83,meters,jsons/VE83_randls_24_rotated.json,1230459,1589625,35,Man
20,258838,DepthScenes,duration_manipulation_targetAtFixation,jsons/VE83_randls_24_rotated.json,http://54.235.29.9/FacialAge/BNav_EC2/DepthDuration/v2_depth_duration_MTurk/v2_DepthDuration_HTML.html#14,14,1920,1080,1920,1080,8-29-2023,13-18-15,21,depth_duration_stimuli/002057_2014-06-24_21-00-13_260595134347_rgbf000120-resize_1/002057_2014-06-24_21-00-13_260595134347_rgbf000120-resize_1-target.png,83,2.967,22,7851,83,meters,jsons/VE83_randls_24_rotated.json,1230459,1589625,35,Man
21,258838,DepthScenes,duration_manipulation_targetAtFixation,jsons/VE83_randls_24_rotated.json,http://54.235.29.9/FacialAge/BNav_EC2/DepthDuration/v2_depth_duration_MTurk/v2_DepthDuration_HTML.html#14,14,1920,1080,1920,1080,8-29-2023,13-18-15,22,depth_duration_stimuli/002444_2014-06-28_20-32-08_260595134347_rgbf000027-resize_0/002444_2014-06-28_20-32-08_260595134347_rgbf000027-resize_0-target.png,83,4.388999999999999,24,8356,83,meters,jsons/VE83_randls_24_rotated.json,1230459,1589625,35,Man
22,258838,DepthScenes,duration_manipulation_targetAtFixation,jsons/VE83_randls_24_rotated.json,http://54.235.29.9/FacialAge/BNav_EC2/DepthDuration/v2_depth_duration_MTurk/v2_DepthDuration_HTML.html#14,14,1920,1080,1920,1080,8-29-2023,13-18-15,23,depth_duration_stimuli/000436_2014-06-09_22-25-11_260595134347_rgbf000137-resize_1/000436_2014-06-09_22-25-11_260595134347_rgbf000137-resize_1-target.png,83,4.0705,19,5792,83,meters,jsons/VE83_randls_24_rotated.json,1230459,1589625,35,Man
23,258838,DepthScenes,duration_manipulation_targetAtFixation,jsons/VE83_randls_24_rotated.json,http://54.235.29.9/FacialAge/BNav_EC2/DepthDuration/v2_depth_duration_MTurk/v2_DepthDuration_HTML.html#14,14,1920,1080,1920,1080,8-29-2023,13-18-15,24,depth_duration_stimuli/000854_2014-06-09_19-43-13_260595134347_rgbf000066-resize_0/000854_2014-06-09_19-43-13_260595134347_rgbf000066-resize_0-target.png,83,3.068,26,7850,82,meters,jsons/VE83_randls_24_rotated.json,1230459,1589625,35,Man
24,258838,DepthScenes,duration_manipulation_targetAtFixation,jsons/VE83_randls_24_rotated.json,http://54.235.29.9/FacialAge/BNav_EC2/DepthDuration/v2_depth_duration_MTurk/v2_DepthDuration_HTML.html#14,14,1920,1080,1920,1080,8-29-2023,13-18-15,25,depth_duration_stimuli/000758_2014-06-08_22-05-08_260595134347_rgbf000085-resize_0/000758_2014-06-08_22-05-08_260595134347_rgbf000085-resize_0-target.png,83,3.3810000000000002,15,4866,81,meters,jsons/VE83_randls_24_rotated.json,1230459,1589625,35,Man
25,258838,DepthScenes,duration_manipulation_targetAtFixation,jsons/VE83_randls_24_rotated.json,http://54.235.29.9/FacialAge/BNav_EC2/DepthDuration/v2_depth_duration_MTurk/v2_DepthDuration_HTML.html#14,14,1920,1080,1920,1080,8-29-2023,13-18-15,26,depth_duration_stimuli/001032_2014-06-08_13-23-17_260595134347_rgbf000021-resize_3/001032_2014-06-08_13-23-17_260595134347_rgbf000021-resize_3-target.png,83,3.2725,20,5011,84,meters,jsons/VE83_randls_24_rotated.json,1230459,1589625,35,Man
26,258838,DepthScenes,duration_manipulation_targetAtFixation,jsons/VE83_randls_24_rotated.json,http://54.235.29.9/FacialAge/BNav_EC2/DepthDuration/v2_depth_duration_MTurk/v2_DepthDuration_HTML.html#14,14,1920,1080,1920,1080,8-29-2023,13-18-15,27,depth_duration_stimuli/001059_2014-06-08_21-53-27_260595134347_rgbf000061-resize_4/001059_2014-06-08_21-53-27_260595134347_rgbf000061-resize_4-target.png,83,2.4185,3,8827,83,meters,jsons/VE83_randls_24_rotated.json,1230459,1589625,35,Man
27,258838,DepthScenes,duration_manipulation_targetAtFixation,jsons/VE83_randls_24_rotated.json,http://54.235.29.9/FacialAge/BNav_EC2/DepthDuration/v2_depth_duration_MTurk/v2_DepthDuration_HTML.html#14,14,1920,1080,1920,1080,8-29-2023,13-18-15,28,depth_duration_stimuli/003490_2014-05-21_15-50-11_094959634447_rgbf000101-resize_3/003490_2014-05-21_15-50-11_094959634447_rgbf000101-resize_3-target.png,83,3.6445,19,5170,84,meters,jsons/VE83_randls_24_rotated.json,1230459,1589625,35,Man
28,258838,DepthScenes,duration_manipulation_targetAtFixation,jsons/VE83_randls_24_rotated.json,http://54.235.29.9/FacialAge/BNav_EC2/DepthDuration/v2_depth_duration_MTurk/v2_DepthDuration_HTML.html#14,14,1920,1080,1920,1080,8-29-2023,13-18-15,29,depth_duration_stimuli/001175_2014-06-17_15-45-55_260595134347_rgbf000129-resize_4/001175_2014-06-17_15-45-55_260595134347_rgbf000129-resize_4-target.png,83,4.255,25,5611,83,meters,jsons/VE83_randls_24_rotated.json,1230459,1589625,35,Man
29,258838,DepthScenes,duration_manipulation_targetAtFixation,jsons/VE83_randls_24_rotated.json,http://54.235.29.9/FacialAge/BNav_EC2/DepthDuration/v2_depth_duration_MTurk/v2_DepthDuration_HTML.html#14,14,1920,1080,1920,1080,8-29-2023,13-18-15,30,depth_duration_stimuli/002072_2014-06-24_21-48-06_260595134347_rgbf000115-resize_0/002072_2014-06-24_21-48-06_260595134347_rgbf000115-resize-original.jpg,83,4.702,14,5202,83,meters,jsons/VE83_randls_24_rotated.json,1230459,1589625,35,Man
30,258838,DepthScenes,duration_manipulation_targetAtFixation,jsons/VE83_randls_24_rotated.json,http://54.235.29.9/FacialAge/BNav_EC2/DepthDuration/v2_depth_duration_MTurk/v2_DepthDuration_HTML.html#14,14,1920,1080,1920,1080,8-29-2023,13-18-15,31,depth_duration_stimuli/000103_2014-05-14_22-01-17_260595134347_rgbf000152-resize_5/000103_2014-05-14_22-01-17_260595134347_rgbf000152-resize_5-target.png,83,1.993,9,4165,84,meters,jsons/VE83_randls_24_rotated.json,1230459,1589625,35,Man
31,258838,DepthScenes,duration_manipulation_targetAtFixation,jsons/VE83_randls_24_rotated.json,http://54.235.29.9/FacialAge/BNav_EC2/DepthDuration/v2_depth_duration_MTurk/v2_DepthDuration_HTML.html#14,14,1920,1080,1920,1080,8-29-2023,13-18-15,32,depth_duration_stimuli/001555_2014-06-20_17-12-10_260595134347_rgbf000065-resize_4/001555_2014-06-20_17-12-10_260595134347_rgbf000065-resize_4-target.png,83,1.633,3,3810,84,meters,jsons/VE83_randls_24_rotated.json,1230459,1589625,35,Man
32,258838,DepthScenes,duration_manipulation_targetAtFixation,jsons/VE83_randls_24_rotated.json,http://54.235.29.9/FacialAge/BNav_EC2/DepthDuration/v2_depth_duration_MTurk/v2_DepthDuration_HTML.html#14,14,1920,1080,1920,1080,8-29-2023,13-18-15,33,depth_duration_stimuli/002875_2014-06-01_15-19-00_094959634447_rgbf000151-resize_1/002875_2014-06-01_15-19-00_094959634447_rgbf000151-resize_1-target.png,83,1.9675,5,4443,81,meters,jsons/VE83_randls_24_rotated.json,1230459,1589625,35,Man
33,258838,DepthScenes,duration_manipulation_targetAtFixation,jsons/VE83_randls_24_rotated.json,http://54.235.29.9/FacialAge/BNav_EC2/DepthDuration/v2_depth_duration_MTurk/v2_DepthDuration_HTML.html#14,14,1920,1080,1920,1080,8-29-2023,13-18-15,34,depth_duration_stimuli/001011_2014-06-08_23-18-54_260595134347_rgbf000044-resize_4/001011_2014-06-08_23-18-54_260595134347_rgbf000044-resize_4-target.png,83,2.4730000000000003,29,7788,84,meters,jsons/VE83_randls_24_rotated.json,1230459,1589625,35,Man
34,258838,DepthScenes,duration_manipulation_targetAtFixation,jsons/VE83_randls_24_rotated.json,http://54.235.29.9/FacialAge/BNav_EC2/DepthDuration/v2_depth_duration_MTurk/v2_DepthDuration_HTML.html#14,14,1920,1080,1920,1080,8-29-2023,13-18-15,35,depth_duration_stimuli/003129_2014-05-12_10-48-10_094959634447_rgbf000100-resize_0/003129_2014-05-12_10-48-10_094959634447_rgbf000100-resize_0-target.png,83,4.9305,36,4185,83,meters,jsons/VE83_randls_24_rotated.json,1230459,1589625,35,Man
35,258838,DepthScenes,duration_manipulation_targetAtFixation,jsons/VE83_randls_24_rotated.json,http://54.235.29.9/FacialAge/BNav_EC2/DepthDuration/v2_depth_duration_MTurk/v2_DepthDuration_HTML.html#14,14,1920,1080,1920,1080,8-29-2023,13-18-15,36,depth_duration_stimuli/000414_2014-06-04_19-49-13_260595134347_rgbf000044-resize_0/000414_2014-06-04_19-49-13_260595134347_rgbf000044-resize_0-target.png,83,4.329,12,4219,83,meters,jsons/VE83_randls_24_rotated.json,1230459,1589625,35,Man
36,258838,DepthScenes,duration_manipulation_targetAtFixation,jsons/VE83_randls_24_rotated.json,http://54.235.29.9/FacialAge/BNav_EC2/DepthDuration/v2_depth_duration_MTurk/v2_DepthDuration_HTML.html#14,14,1920,1080,1920,1080,8-29-2023,13-18-15,37,depth_duration_stimuli/000665_2014-06-09_20-42-35_260595134347_rgbf000110-resize_1/000665_2014-06-09_20-42-35_260595134347_rgbf000110-resize_1-target.png,83,3.057,25,3906,82,meters,jsons/VE83_randls_24_rotated.json,1230459,1589625,35,Man
37,258838,DepthScenes,duration_manipulation_targetAtFixation,jsons/VE83_randls_24_rotated.json,http://54.235.29.9/FacialAge/BNav_EC2/DepthDuration/v2_depth_duration_MTurk/v2_DepthDuration_HTML.html#14,14,1920,1080,1920,1080,8-29-2023,13-18-15,38,depth_duration_stimuli/001150_2014-06-17_15-27-34_260595134347_rgbf000108-resize_2/001150_2014-06-17_15-27-34_260595134347_rgbf000108-resize_2-target.png,83,4.0325,10,5027,83,meters,jsons/VE83_randls_24_rotated.json,1230459,1589625,35,Man
38,258838,DepthScenes,duration_manipulation_targetAtFixation,jsons/VE83_randls_24_rotated.json,http://54.235.29.9/FacialAge/BNav_EC2/DepthDuration/v2_depth_duration_MTurk/v2_DepthDuration_HTML.html#14,14,1920,1080,1920,1080,8-29-2023,13-18-15,39,depth_duration_stimuli/002639_2014-06-24_14-51-37_094959634447_rgbf000074-resize_4/002639_2014-06-24_14-51-37_094959634447_rgbf000074-resize_4-target.png,83,4.0375,17,6843,83,meters,jsons/VE83_randls_24_rotated.json,1230459,1589625,35,Man
39,258838,DepthScenes,duration_manipulation_targetAtFixation,jsons/VE83_randls_24_rotated.json,http://54.235.29.9/FacialAge/BNav_EC2/DepthDuration/v2_depth_duration_MTurk/v2_DepthDuration_HTML.html#14,14,1920,1080,1920,1080,8-29-2023,13-18-15,40,depth_duration_stimuli/003292_2014-05-14_21-53-49_094959634447_rgbf000100-resize_2/003292_2014-05-14_21-53-49_094959634447_rgbf000100-resize_2-target.png,83,3.4815,26,3937,83,meters,jsons/VE83_randls_24_rotated.json,1230459,1589625,35,Man
40,258838,DepthScenes,duration_manipulation_targetAtFixation,jsons/VE83_randls_24_rotated.json,http://54.235.29.9/FacialAge/BNav_EC2/DepthDuration/v2_depth_duration_MTurk/v2_DepthDuration_HTML.html#14,14,1920,1080,1920,1080,8-29-2023,13-18-15,41,depth_duration_stimuli/000749_2014-06-08_21-55-06_260595134347_rgbf000070-resize_2/000749_2014-06-08_21-55-06_260595134347_rgbf000070-resize_2-target.png,83,2.331,35,7089,82,meters,jsons/VE83_randls_24_rotated.json,1230459,1589625,35,Man
41,258838,DepthScenes,duration_manipulation_targetAtFixation,jsons/VE83_randls_24_rotated.json,http://54.235.29.9/FacialAge/BNav_EC2/DepthDuration/v2_depth_duration_MTurk/v2_DepthDuration_HTML.html#14,14,1920,1080,1920,1080,8-29-2023,13-18-15,42,depth_duration_stimuli/002788_2014-06-22_19-36-03_094959634447_rgbf000088-resize_2/002788_2014-06-22_19-36-03_094959634447_rgbf000088-resize_2-target.png,83,1.6465,25,4803,82,meters,jsons/VE83_randls_24_rotated.json,1230459,1589625,35,Man
42,258838,DepthScenes,duration_manipulation_targetAtFixation,jsons/VE83_randls_24_rotated.json,http://54.235.29.9/FacialAge/BNav_EC2/DepthDuration/v2_depth_duration_MTurk/v2_DepthDuration_HTML.html#14,14,1920,1080,1920,1080,8-29-2023,13-18-15,43,depth_duration_stimuli/000109_2014-05-14_23-41-52_260595134347_rgbf000035-resize_9/000109_2014-05-14_23-41-52_260595134347_rgbf000035-resize_9-target.png,83,1.3545,10,3626,82,meters,jsons/VE83_randls_24_rotated.json,1230459,1589625,35,Man
43,258838,DepthScenes,duration_manipulation_targetAtFixation,jsons/VE83_randls_24_rotated.json,http://54.235.29.9/FacialAge/BNav_EC2/DepthDuration/v2_depth_duration_MTurk/v2_DepthDuration_HTML.html#14,14,1920,1080,1920,1080,8-29-2023,13-18-15,44,depth_duration_stimuli/000470_2014-06-09_19-42-40_260595134347_rgbf000094-resize_1/000470_2014-06-09_19-42-40_260595134347_rgbf000094-resize_1-target.png,83,1.831,31,9002,83,meters,jsons/VE83_randls_24_rotated.json,1230459,1589625,35,Man
44,258838,DepthScenes,duration_manipulation_targetAtFixation,jsons/VE83_randls_24_rotated.json,http://54.235.29.9/FacialAge/BNav_EC2/DepthDuration/v2_depth_duration_MTurk/v2_DepthDuration_HTML.html#14,14,1920,1080,1920,1080,8-29-2023,13-18-15,45,depth_duration_stimuli/000691_2014-06-08_13-08-50_260595134347_rgbf000132-resize_3/000691_2014-06-08_13-08-50_260595134347_rgbf000132-resize_3-target.png,83,4.1530000000000005,10,6699,82,meters,jsons/VE83_randls_24_rotated.json,1230459,1589625,35,Man
45,258838,DepthScenes,duration_manipulation_targetAtFixation,jsons/VE83_randls_24_rotated.json,http://54.235.29.9/FacialAge/BNav_EC2/DepthDuration/v2_depth_duration_MTurk/v2_DepthDuration_HTML.html#14,14,1920,1080,1920,1080,8-29-2023,13-18-15,46,depth_duration_stimuli/002213_2014-06-28_18-37-58_260595134347_rgbf000055-resize_1/002213_2014-06-28_18-37-58_260595134347_rgbf000055-resize_1-target.png,83,3.62,21,7266,83,meters,jsons/VE83_randls_24_rotated.json,1230459,1589625,35,Man
46,258838,DepthScenes,duration_manipulation_targetAtFixation,jsons/VE83_randls_24_rotated.json,http://54.235.29.9/FacialAge/BNav_EC2/DepthDuration/v2_depth_duration_MTurk/v2_DepthDuration_HTML.html#14,14,1920,1080,1920,1080,8-29-2023,13-18-15,47,depth_duration_stimuli/002340_2014-06-28_20-05-46_260595134347_rgbf000113-resize_0/002340_2014-06-28_20-05-46_260595134347_rgbf000113-resize_0-target.png,83,2.4735,35,4579,82,meters,jsons/VE83_randls_24_rotated.json,1230459,1589625,35,Man
47,258838,DepthScenes,duration_manipulation_targetAtFixation,jsons/VE83_randls_24_rotated.json,http://54.235.29.9/FacialAge/BNav_EC2/DepthDuration/v2_depth_duration_MTurk/v2_DepthDuration_HTML.html#14,14,1920,1080,1920,1080,8-29-2023,13-18-15,48,depth_duration_stimuli/001016_2014-06-09_16-16-10_260595134347_rgbf000112-resize_5/001016_2014-06-09_16-16-10_260595134347_rgbf000112-resize_5-target.png,83,1.6565,19,7210,82,meters,jsons/VE83_randls_24_rotated.json,1230459,1589625,35,Man
48,258838,DepthScenes,duration_manipulation_targetAtFixation,jsons/VE83_randls_24_rotated.json,http://54.235.29.9/FacialAge/BNav_EC2/DepthDuration/v2_depth_duration_MTurk/v2_DepthDuration_HTML.html#14,14,1920,1080,1920,1080,8-29-2023,13-18-15,49,depth_duration_stimuli/001170_2014-06-17_15-43-44_260595134347_rgbf000096-resize_6/001170_2014-06-17_15-43-44_260595134347_rgbf000096-resize-original.jpg,83,1.1909999999999998,19,5515,83,meters,jsons/VE83_randls_24_rotated.json,1230459,1589625,35,Man
49,258838,DepthScenes,duration_manipulation_targetAtFixation,jsons/VE83_randls_24_rotated.json,http://54.235.29.9/FacialAge/BNav_EC2/DepthDuration/v2_depth_duration_MTurk/v2_DepthDuration_HTML.html#14,14,1920,1080,1920,1080,8-29-2023,13-18-15,50,depth_duration_stimuli/001815_2014-06-26_20-52-55_260595134347_rgbf000020-resize_0/001815_2014-06-26_20-52-55_260595134347_rgbf000020-resize_0-target.png,83,3.3865,20,3970,83,meters,jsons/VE83_randls_24_rotated.json,1230459,1589625,35,Man
50,258838,DepthScenes,duration_manipulation_targetAtFixation,jsons/VE83_randls_24_rotated.json,http://54.235.29.9/FacialAge/BNav_EC2/DepthDuration/v2_depth_duration_MTurk/v2_DepthDuration_HTML.html#14,14,1920,1080,1920,1080,8-29-2023,13-18-15,51,depth_duration_stimuli/001808_2014-06-26_20-50-58_260595134347_rgbf000029-resize_1/001808_2014-06-26_20-50-58_260595134347_rgbf000029-resize_1-target.png,83,4.249,9,3660,83,meters,jsons/VE83_randls_24_rotated.json,1230459,1589625,35,Man
51,258838,DepthScenes,duration_manipulation_targetAtFixation,jsons/VE83_randls_24_rotated.json,http://54.235.29.9/FacialAge/BNav_EC2/DepthDuration/v2_depth_duration_MTurk/v2_DepthDuration_HTML.html#14,14,1920,1080,1920,1080,8-29-2023,13-18-15,52,depth_duration_stimuli/003338_2014-05-20_11-01-23_094959634447_rgbf000051-resize_6/003338_2014-05-20_11-01-23_094959634447_rgbf000051-resize_6-target.png,83,1.693,8,3466,83,meters,jsons/VE83_randls_24_rotated.json,1230459,1589625,35,Man
52,258838,DepthScenes,duration_manipulation_targetAtFixation,jsons/VE83_randls_24_rotated.json,http://54.235.29.9/FacialAge/BNav_EC2/DepthDuration/v2_depth_duration_MTurk/v2_DepthDuration_HTML.html#14,14,1920,1080,1920,1080,8-29-2023,13-18-15,53,depth_duration_stimuli/002509_2014-06-24_13-19-22_094959634447_rgbf000077-resize_0/002509_2014-06-24_13-19-22_094959634447_rgbf000077-resize_0-target.png,83,1.3065,7,3904,83,meters,jsons/VE83_randls_24_rotated.json,1230459,1589625,35,Man
53,258838,DepthScenes,duration_manipulation_targetAtFixation,jsons/VE83_randls_24_rotated.json,http://54.235.29.9/FacialAge/BNav_EC2/DepthDuration/v2_depth_duration_MTurk/v2_DepthDuration_HTML.html#14,14,1920,1080,1920,1080,8-29-2023,13-18-15,54,depth_duration_stimuli/001828_2014-06-26_21-40-03_260595134347_rgbf000024-resize_0/001828_2014-06-26_21-40-03_260595134347_rgbf000024-resize_0-target.png,83,4.8260000000000005,3,3947,84,meters,jsons/VE83_randls_24_rotated.json,1230459,1589625,35,Man
54,258838,DepthScenes,duration_manipulation_targetAtFixation,jsons/VE83_randls_24_rotated.json,http://54.235.29.9/FacialAge/BNav_EC2/DepthDuration/v2_depth_duration_MTurk/v2_DepthDuration_HTML.html#14,14,1920,1080,1920,1080,8-29-2023,13-18-15,55,depth_duration_stimuli/000009_2014-05-26_14-32-05_260595134347_rgbf000034-resize_3/000009_2014-05-26_14-32-05_260595134347_rgbf000034-resize_3-target.png,83,3.8715,6,6106,82,meters,jsons/VE83_randls_24_rotated.json,1230459,1589625,35,Man
55,258838,DepthScenes,duration_manipulation_targetAtFixation,jsons/VE83_randls_24_rotated.json,http://54.235.29.9/FacialAge/BNav_EC2/DepthDuration/v2_depth_duration_MTurk/v2_DepthDuration_HTML.html#14,14,1920,1080,1920,1080,8-29-2023,13-18-15,56,depth_duration_stimuli/002545_2014-06-24_13-38-53_094959634447_rgbf000080-resize_4/002545_2014-06-24_13-38-53_094959634447_rgbf000080-resize_4-target.png,83,1.9205,5,3611,84,meters,jsons/VE83_randls_24_rotated.json,1230459,1589625,35,Man
56,258838,DepthScenes,duration_manipulation_targetAtFixation,jsons/VE83_randls_24_rotated.json,http://54.235.29.9/FacialAge/BNav_EC2/DepthDuration/v2_depth_duration_MTurk/v2_DepthDuration_HTML.html#14,14,1920,1080,1920,1080,8-29-2023,13-18-15,57,depth_duration_stimuli/001092_2014-06-15_17-34-58_260595134347_rgbf000171-resize_3/001092_2014-06-15_17-34-58_260595134347_rgbf000171-resize_3-target.png,83,2.6935,5,3787,81,meters,jsons/VE83_randls_24_rotated.json,1230459,1589625,35,Man
57,258838,DepthScenes,duration_manipulation_targetAtFixation,jsons/VE83_randls_24_rotated.json,http://54.235.29.9/FacialAge/BNav_EC2/DepthDuration/v2_depth_duration_MTurk/v2_DepthDuration_HTML.html#14,14,1920,1080,1920,1080,8-29-2023,13-18-15,58,depth_duration_stimuli/000191_2014-05-12_17-07-38_260595134347_rgbf000199-resize_0/000191_2014-05-12_17-07-38_260595134347_rgbf000199-resize_0-target.png,83,3.7995,2,3499,84,meters,jsons/VE83_randls_24_rotated.json,1230459,1589625,35,Man
58,258838,DepthScenes,duration_manipulation_targetAtFixation,jsons/VE83_randls_24_rotated.json,http://54.235.29.9/FacialAge/BNav_EC2/DepthDuration/v2_depth_duration_MTurk/v2_DepthDuration_HTML.html#14,14,1920,1080,1920,1080,8-29-2023,13-18-15,59,depth_duration_stimuli/000493_2014-06-09_21-01-18_260595134347_rgbf000196-resize_3/000493_2014-06-09_21-01-18_260595134347_rgbf000196-resize_3-target.png,83,3.44,15,3523,84,meters,jsons/VE83_randls_24_rotated.json,1230459,1589625,35,Man
59,258838,DepthScenes,duration_manipulation_targetAtFixation,jsons/VE83_randls_24_rotated.json,http://54.235.29.9/FacialAge/BNav_EC2/DepthDuration/v2_depth_duration_MTurk/v2_DepthDuration_HTML.html#14,14,1920,1080,1920,1080,8-29-2023,13-18-15,60,depth_duration_stimuli/002637_2014-06-24_14-51-13_094959634447_rgbf000066-resize_4/002637_2014-06-24_14-51-13_094959634447_rgbf000066-resize_4-target.png,83,1.9955,24,4419,83,meters,jsons/VE83_randls_24_rotated.json,1230459,1589625,35,Man
60,258838,DepthScenes,duration_manipulation_targetAtFixation,jsons/VE83_randls_24_rotated.json,http://54.235.29.9/FacialAge/BNav_EC2/DepthDuration/v2_depth_duration_MTurk/v2_DepthDuration_HTML.html#14,14,1920,1080,1920,1080,8-29-2023,13-18-15,61,depth_duration_stimuli/003534_2014-05-22_15-06-10_094959634447_rgbf000102-resize_4/003534_2014-05-22_15-06-10_094959634447_rgbf000102-resize_4-target.png,83,1.426,52,4347,83,meters,jsons/VE83_randls_24_rotated.json,1230459,1589625,35,Man
61,258838,DepthScenes,duration_manipulation_targetAtFixation,jsons/VE83_randls_24_rotated.json,http://54.235.29.9/FacialAge/BNav_EC2/DepthDuration/v2_depth_duration_MTurk/v2_DepthDuration_HTML.html#14,14,1920,1080,1920,1080,8-29-2023,13-18-15,62,depth_duration_stimuli/000742_2014-06-08_18-48-09_260595134347_rgbf000164-resize_4/000742_2014-06-08_18-48-09_260595134347_rgbf000164-resize_4-target.png,83,4.632,21,3947,83,meters,jsons/VE83_randls_24_rotated.json,1230459,1589625,35,Man
62,258838,DepthScenes,duration_manipulation_targetAtFixation,jsons/VE83_randls_24_rotated.json,http://54.235.29.9/FacialAge/BNav_EC2/DepthDuration/v2_depth_duration_MTurk/v2_DepthDuration_HTML.html#14,14,1920,1080,1920,1080,8-29-2023,13-18-15,63,depth_duration_stimuli/001066_2014-06-08_22-03-20_260595134347_rgbf000066-resize_4/001066_2014-06-08_22-03-20_260595134347_rgbf000066-resize_4-target.png,83,4.2330000000000005,16,4082,84,meters,jsons/VE83_randls_24_rotated.json,1230459,1589625,35,Man
63,258838,DepthScenes,duration_manipulation_targetAtFixation,jsons/VE83_randls_24_rotated.json,http://54.235.29.9/FacialAge/BNav_EC2/DepthDuration/v2_depth_duration_MTurk/v2_DepthDuration_HTML.html#14,14,1920,1080,1920,1080,8-29-2023,13-18-15,64,depth_duration_stimuli/003083_2014-06-15_15-21-03_094959634447_rgbf000063-resize_1/003083_2014-06-15_15-21-03_094959634447_rgbf000063-resize_1-target.png,83,4.1405,25,15211,83,meters,jsons/VE83_randls_24_rotated.json,1230459,1589625,35,Man
64,258838,DepthScenes,duration_manipulation_targetAtFixation,jsons/VE83_randls_24_rotated.json,http://54.235.29.9/FacialAge/BNav_EC2/DepthDuration/v2_depth_duration_MTurk/v2_DepthDuration_HTML.html#14,14,1920,1080,1920,1080,8-29-2023,13-18-15,65,depth_duration_stimuli/000486_2014-06-09_20-47-20_260595134347_rgbf000143-resize_2/000486_2014-06-09_20-47-20_260595134347_rgbf000143-resize_2-target.png,83,4.8325,26,10315,83,meters,jsons/VE83_randls_24_rotated.json,1230459,1589625,35,Man
65,258838,DepthScenes,duration_manipulation_targetAtFixation,jsons/VE83_randls_24_rotated.json,http://54.235.29.9/FacialAge/BNav_EC2/DepthDuration/v2_depth_duration_MTurk/v2_DepthDuration_HTML.html#14,14,1920,1080,1920,1080,8-29-2023,13-18-15,66,depth_duration_stimuli/001540_2014-06-20_17-01-05_260595134347_rgbf000086-resize_2/001540_2014-06-20_17-01-05_260595134347_rgbf000086-resize-original.jpg,83,1.459,42,4083,82,meters,jsons/VE83_randls_24_rotated.json,1230459,1589625,35,Man
66,258838,DepthScenes,duration_manipulation_targetAtFixation,jsons/VE83_randls_24_rotated.json,http://54.235.29.9/FacialAge/BNav_EC2/DepthDuration/v2_depth_duration_MTurk/v2_DepthDuration_HTML.html#14,14,1920,1080,1920,1080,8-29-2023,13-18-15,67,depth_duration_stimuli/002425_2014-06-28_20-27-29_260595134347_rgbf000031-resize_8/002425_2014-06-28_20-27-29_260595134347_rgbf000031-resize_8-target.png,83,3.8960000000000004,13,4251,83,meters,jsons/VE83_randls_24_rotated.json,1230459,1589625,35,Man
67,258838,DepthScenes,duration_manipulation_targetAtFixation,jsons/VE83_randls_24_rotated.json,http://54.235.29.9/FacialAge/BNav_EC2/DepthDuration/v2_depth_duration_MTurk/v2_DepthDuration_HTML.html#14,14,1920,1080,1920,1080,8-29-2023,13-18-15,68,depth_duration_stimuli/000642_2014-06-08_16-59-25_260595134347_rgbf000098-resize_2/000642_2014-06-08_16-59-25_260595134347_rgbf000098-resize_2-target.png,83,2.8815,14,4306,84,meters,jsons/VE83_randls_24_rotated.json,1230459,1589625,35,Man
68,258838,DepthScenes,duration_manipulation_targetAtFixation,jsons/VE83_randls_24_rotated.json,http://54.235.29.9/FacialAge/BNav_EC2/DepthDuration/v2_depth_duration_MTurk/v2_DepthDuration_HTML.html#14,14,1920,1080,1920,1080,8-29-2023,13-18-15,69,depth_duration_stimuli/001447_2014-06-19_17-00-32_260595134347_rgbf000082-resize_5/001447_2014-06-19_17-00-32_260595134347_rgbf000082-resize_5-target.png,83,4.13775,15,4386,82,meters,jsons/VE83_randls_24_rotated.json,1230459,1589625,35,Man
69,258838,DepthScenes,duration_manipulation_targetAtFixation,jsons/VE83_randls_24_rotated.json,http://54.235.29.9/FacialAge/BNav_EC2/DepthDuration/v2_depth_duration_MTurk/v2_DepthDuration_HTML.html#14,14,1920,1080,1920,1080,8-29-2023,13-18-15,70,depth_duration_stimuli/000447_2014-06-08_16-15-46_260595134347_rgbf000130-resize_1/000447_2014-06-08_16-15-46_260595134347_rgbf000130-resize_1-target.png,83,4.479,52,4618,82,meters,jsons/VE83_randls_24_rotated.json,1230459,1589625,35,Man
70,258838,DepthScenes,duration_manipulation_targetAtFixation,jsons/VE83_randls_24_rotated.json,http://54.235.29.9/FacialAge/BNav_EC2/DepthDuration/v2_depth_duration_MTurk/v2_DepthDuration_HTML.html#14,14,1920,1080,1920,1080,8-29-2023,13-18-15,71,depth_duration_stimuli/003010_2014-06-15_12-54-35_094959634447_rgbf000112-resize_0/003010_2014-06-15_12-54-35_094959634447_rgbf000112-resize_0-target.png,83,3.1185,23,4379,84,meters,jsons/VE83_randls_24_rotated.json,1230459,1589625,35,Man
71,258838,DepthScenes,duration_manipulation_targetAtFixation,jsons/VE83_randls_24_rotated.json,http://54.235.29.9/FacialAge/BNav_EC2/DepthDuration/v2_depth_duration_MTurk/v2_DepthDuration_HTML.html#14,14,1920,1080,1920,1080,8-29-2023,13-18-15,72,depth_duration_stimuli/001810_2014-06-26_20-51-35_260595134347_rgbf000040-resize_3/001810_2014-06-26_20-51-35_260595134347_rgbf000040-resize_3-target.png,83,2.2525,16,6107,83,meters,jsons/VE83_randls_24_rotated.json,1230459,1589625,35,Man
72,258838,DepthScenes,duration_manipulation_targetAtFixation,jsons/VE83_randls_24_rotated.json,http://54.235.29.9/FacialAge/BNav_EC2/DepthDuration/v2_depth_duration_MTurk/v2_DepthDuration_HTML.html#14,14,1920,1080,1920,1080,8-29-2023,13-18-15,73,depth_duration_stimuli/000734_2014-06-08_17-39-11_260595134347_rgbf000128-resize_2/000734_2014-06-08_17-39-11_260595134347_rgbf000128-resize_2-target.png,83,4.098,53,4781,84,meters,jsons/VE83_randls_24_rotated.json,1230459,1589625,35,Man
73,258838,DepthScenes,duration_manipulation_targetAtFixation,jsons/VE83_randls_24_rotated.json,http://54.235.29.9/FacialAge/BNav_EC2/DepthDuration/v2_depth_duration_MTurk/v2_DepthDuration_HTML.html#14,14,1920,1080,1920,1080,8-29-2023,13-18-15,74,depth_duration_stimuli/000739_2014-06-08_18-45-58_260595134347_rgbf000068-resize_1/000739_2014-06-08_18-45-58_260595134347_rgbf000068-resize_1-target.png,83,3.534,56,4307,83,meters,jsons/VE83_randls_24_rotated.json,1230459,1589625,35,Man
74,258838,DepthScenes,duration_manipulation_targetAtFixation,jsons/VE83_randls_24_rotated.json,http://54.235.29.9/FacialAge/BNav_EC2/DepthDuration/v2_depth_duration_MTurk/v2_DepthDuration_HTML.html#14,14,1920,1080,1920,1080,8-29-2023,13-18-15,75,depth_duration_stimuli/002949_2014-06-26_15-57-42_094959634447_rgbf000079-resize_1/002949_2014-06-26_15-57-42_094959634447_rgbf000079-resize_1-target.png,83,1.8915,23,18955,83,meters,jsons/VE83_randls_24_rotated.json,1230459,1589625,35,Man
75,258838,DepthScenes,duration_manipulation_targetAtFixation,jsons/VE83_randls_24_rotated.json,http://54.235.29.9/FacialAge/BNav_EC2/DepthDuration/v2_depth_duration_MTurk/v2_DepthDuration_HTML.html#14,14,1920,1080,1920,1080,8-29-2023,13-18-15,76,depth_duration_stimuli/000522_2014-06-08_13-35-06_260595134347_rgbf000244-resize_1/000522_2014-06-08_13-35-06_260595134347_rgbf000244-resize_1-target.png,83,2.3715,23,19331,83,meters,jsons/VE83_randls_24_rotated.json,1230459,1589625,35,Man
76,258838,DepthScenes,duration_manipulation_targetAtFixation,jsons/VE83_randls_24_rotated.json,http://54.235.29.9/FacialAge/BNav_EC2/DepthDuration/v2_depth_duration_MTurk/v2_DepthDuration_HTML.html#14,14,1920,1080,1920,1080,8-29-2023,13-18-15,77,depth_duration_stimuli/001392_2014-06-19_16-07-59_260595134347_rgbf000046-resize_1/001392_2014-06-19_16-07-59_260595134347_rgbf000046-resize_1-target.png,83,4.135,12,18844,83,meters,jsons/VE83_randls_24_rotated.json,1230459,1589625,35,Man
77,258838,DepthScenes,duration_manipulation_targetAtFixation,jsons/VE83_randls_24_rotated.json,http://54.235.29.9/FacialAge/BNav_EC2/DepthDuration/v2_depth_duration_MTurk/v2_DepthDuration_HTML.html#14,14,1920,1080,1920,1080,8-29-2023,13-18-15,78,depth_duration_stimuli/001570_2014-06-20_17-21-09_260595134347_rgbf000135-resize_4/001570_2014-06-20_17-21-09_260595134347_rgbf000135-resize_4-target.png,83,4.467,15,83509,83,meters,jsons/VE83_randls_24_rotated.json,1230459,1589625,35,Man
78,258838,DepthScenes,duration_manipulation_targetAtFixation,jsons/VE83_randls_24_rotated.json,http://54.235.29.9/FacialAge/BNav_EC2/DepthDuration/v2_depth_duration_MTurk/v2_DepthDuration_HTML.html#14,14,1920,1080,1920,1080,8-29-2023,13-18-15,79,depth_duration_stimuli/001516_2014-06-20_16-25-09_260595134347_rgbf000076-resize_2/001516_2014-06-20_16-25-09_260595134347_rgbf000076-resize_2-target.png,83,1.7445,15,50721,84,meters,jsons/VE83_randls_24_rotated.json,1230459,1589625,35,Man
79,258838,DepthScenes,duration_manipulation_targetAtFixation,jsons/VE83_randls_24_rotated.json,http://54.235.29.9/FacialAge/BNav_EC2/DepthDuration/v2_depth_duration_MTurk/v2_DepthDuration_HTML.html#14,14,1920,1080,1920,1080,8-29-2023,13-18-15,80,depth_duration_stimuli/002118_2014-06-25_20-32-08_260595134347_rgbf000078-resize_1/002118_2014-06-25_20-32-08_260595134347_rgbf000078-resize_1-target.png,83,2.6460000000000004,10,46195,83,meters,jsons/VE83_randls_24_rotated.json,1230459,1589625,35,Man
80,258838,DepthScenes,duration_manipulation_targetAtFixation,jsons/VE83_randls_24_rotated.json,http://54.235.29.9/FacialAge/BNav_EC2/DepthDuration/v2_depth_duration_MTurk/v2_DepthDuration_HTML.html#14,14,1920,1080,1920,1080,8-29-2023,13-18-15,81,depth_duration_stimuli/003423_2014-05-21_10-23-26_094959634447_rgbf002665-resize_2/003423_2014-05-21_10-23-26_094959634447_rgbf002665-resize_2-target.png,83,3.2575,14,4004,83,meters,jsons/VE83_randls_24_rotated.json,1230459,1589625,35,Man
81,258838,DepthScenes,duration_manipulation_targetAtFixation,jsons/VE83_randls_24_rotated.json,http://54.235.29.9/FacialAge/BNav_EC2/DepthDuration/v2_depth_duration_MTurk/v2_DepthDuration_HTML.html#14,14,1920,1080,1920,1080,8-29-2023,13-18-15,82,depth_duration_stimuli/002905_2014-06-03_18-04-43_094959634447_rgbf000151-resize_2/002905_2014-06-03_18-04-43_094959634447_rgbf000151-resize_2-target.png,83,2.0295,9,3315,82,meters,jsons/VE83_randls_24_rotated.json,1230459,1589625,35,Man
82,258838,DepthScenes,duration_manipulation_targetAtFixation,jsons/VE83_randls_24_rotated.json,http://54.235.29.9/FacialAge/BNav_EC2/DepthDuration/v2_depth_duration_MTurk/v2_DepthDuration_HTML.html#14,14,1920,1080,1920,1080,8-29-2023,13-18-15,83,depth_duration_stimuli/002678_2014-06-13_16-15-32_094959634447_rgbf000151-resize_6/002678_2014-06-13_16-15-32_094959634447_rgbf000151-resize_6-target.png,83,2.1830000000000003,10,3994,82,meters,jsons/VE83_randls_24_rotated.json,1230459,1589625,35,Man
83,258838,DepthScenes,duration_manipulation_targetAtFixation,jsons/VE83_randls_24_rotated.json,http://54.235.29.9/FacialAge/BNav_EC2/DepthDuration/v2_depth_duration_MTurk/v2_DepthDuration_HTML.html#14,14,1920,1080,1920,1080,8-29-2023,13-18-15,84,depth_duration_stimuli/000368_2014-06-09_15-53-01_260595134347_rgbf000155-resize_2/000368_2014-06-09_15-53-01_260595134347_rgbf000155-resize_2-target.png,83,2.4859999999999998,6,3842,84,meters,jsons/VE83_randls_24_rotated.json,1230459,1589625,35,Man
84,258838,DepthScenes,duration_manipulation_targetAtFixation,jsons/VE83_randls_24_rotated.json,http://54.235.29.9/FacialAge/BNav_EC2/DepthDuration/v2_depth_duration_MTurk/v2_DepthDuration_HTML.html#14,14,1920,1080,1920,1080,8-29-2023,13-18-15,85,depth_duration_stimuli/003048_2014-06-15_13-49-43_094959634447_rgbf000150-resize_1/003048_2014-06-15_13-49-43_094959634447_rgbf000150-resize_1-target.png,83,4.0035,5,3939,83,meters,jsons/VE83_randls_24_rotated.json,1230459,1589625,35,Man
85,258838,DepthScenes,duration_manipulation_targetAtFixation,jsons/VE83_randls_24_rotated.json,http://54.235.29.9/FacialAge/BNav_EC2/DepthDuration/v2_depth_duration_MTurk/v2_DepthDuration_HTML.html#14,14,1920,1080,1920,1080,8-29-2023,13-18-15,86,depth_duration_stimuli/002043_2014-06-24_20-29-38_260595134347_rgbf000039-resize_4/002043_2014-06-24_20-29-38_260595134347_rgbf000039-resize_4-target.png,83,2.8435,2,3484,83,meters,jsons/VE83_randls_24_rotated.json,1230459,1589625,35,Man
86,258838,DepthScenes,duration_manipulation_targetAtFixation,jsons/VE83_randls_24_rotated.json,http://54.235.29.9/FacialAge/BNav_EC2/DepthDuration/v2_depth_duration_MTurk/v2_DepthDuration_HTML.html#14,14,1920,1080,1920,1080,8-29-2023,13-18-15,87,depth_duration_stimuli/002568_2014-06-24_13-59-21_094959634447_rgbf000062-resize_4/002568_2014-06-24_13-59-21_094959634447_rgbf000062-resize_4-target.png,83,3.015,2,4611,83,meters,jsons/VE83_randls_24_rotated.json,1230459,1589625,35,Man
87,258838,DepthScenes,duration_manipulation_targetAtFixation,jsons/VE83_randls_24_rotated.json,http://54.235.29.9/FacialAge/BNav_EC2/DepthDuration/v2_depth_duration_MTurk/v2_DepthDuration_HTML.html#14,14,1920,1080,1920,1080,8-29-2023,13-18-15,88,depth_duration_stimuli/003492_2014-05-21_15-50-55_094959634447_rgbf000828-resize_1/003492_2014-05-21_15-50-55_094959634447_rgbf000828-resize_1-target.png,83,4.06875,24,14962,84,meters,jsons/VE83_randls_24_rotated.json,1230459,1589625,35,Man
88,258838,DepthScenes,duration_manipulation_targetAtFixation,jsons/VE83_randls_24_rotated.json,http://54.235.29.9/FacialAge/BNav_EC2/DepthDuration/v2_depth_duration_MTurk/v2_DepthDuration_HTML.html#14,14,1920,1080,1920,1080,8-29-2023,13-18-15,89,depth_duration_stimuli/001584_2014-06-20_11-07-43_260595134347_rgbf000002-resize_1/001584_2014-06-20_11-07-43_260595134347_rgbf000002-resize_1-target.png,83,3.53,10,3515,83,meters,jsons/VE83_randls_24_rotated.json,1230459,1589625,35,Man
89,258838,DepthScenes,duration_manipulation_targetAtFixation,jsons/VE83_randls_24_rotated.json,http://54.235.29.9/FacialAge/BNav_EC2/DepthDuration/v2_depth_duration_MTurk/v2_DepthDuration_HTML.html#14,14,1920,1080,1920,1080,8-29-2023,13-18-15,90,depth_duration_stimuli/003621_2014-05-23_18-06-08_094959634447_rgbf000101-resize_1/003621_2014-05-23_18-06-08_094959634447_rgbf000101-resize_1-target.png,83,3.9835,3,4323,82,meters,jsons/VE83_randls_24_rotated.json,1230459,1589625,35,Man
90,258838,DepthScenes,duration_manipulation_targetAtFixation,jsons/VE83_randls_24_rotated.json,http://54.235.29.9/FacialAge/BNav_EC2/DepthDuration/v2_depth_duration_MTurk/v2_DepthDuration_HTML.html#14,14,1920,1080,1920,1080,8-29-2023,13-18-15,91,depth_duration_stimuli/003081_2014-06-15_15-19-16_094959634447_rgbf000150-resize_1/003081_2014-06-15_15-19-16_094959634447_rgbf000150-resize_1-target.png,83,3.9125,6,3401,82,meters,jsons/VE83_randls_24_rotated.json,1230459,1589625,35,Man
91,258838,DepthScenes,duration_manipulation_targetAtFixation,jsons/VE83_randls_24_rotated.json,http://54.235.29.9/FacialAge/BNav_EC2/DepthDuration/v2_depth_duration_MTurk/v2_DepthDuration_HTML.html#14,14,1920,1080,1920,1080,8-29-2023,13-18-15,92,depth_duration_stimuli/001417_2014-06-19_16-25-36_260595134347_rgbf000115-resize_5/001417_2014-06-19_16-25-36_260595134347_rgbf000115-resize_5-target.png,83,4.6255,5,4099,83,meters,jsons/VE83_randls_24_rotated.json,1230459,1589625,35,Man
92,258838,DepthScenes,duration_manipulation_targetAtFixation,jsons/VE83_randls_24_rotated.json,http://54.235.29.9/FacialAge/BNav_EC2/DepthDuration/v2_depth_duration_MTurk/v2_DepthDuration_HTML.html#14,14,1920,1080,1920,1080,8-29-2023,13-18-15,93,depth_duration_stimuli/003228_2014-05-14_13-42-35_094959634447_rgbf000101-resize_1/003228_2014-05-14_13-42-35_094959634447_rgbf000101-resize_1-target.png,83,1.9680000000000002,6,3570,84,meters,jsons/VE83_randls_24_rotated.json,1230459,1589625,35,Man
93,258838,DepthScenes,duration_manipulation_targetAtFixation,jsons/VE83_randls_24_rotated.json,http://54.235.29.9/FacialAge/BNav_EC2/DepthDuration/v2_depth_duration_MTurk/v2_DepthDuration_HTML.html#14,14,1920,1080,1920,1080,8-29-2023,13-18-15,94,depth_duration_stimuli/002600_2014-06-24_14-27-04_094959634447_rgbf000074-resize_2/002600_2014-06-24_14-27-04_094959634447_rgbf000074-resize_2-target.png,83,2.7575,4,5610,82,meters,jsons/VE83_randls_24_rotated.json,1230459,1589625,35,Man
94,258838,DepthScenes,duration_manipulation_targetAtFixation,jsons/VE83_randls_24_rotated.json,http://54.235.29.9/FacialAge/BNav_EC2/DepthDuration/v2_depth_duration_MTurk/v2_DepthDuration_HTML.html#14,14,1920,1080,1920,1080,8-29-2023,13-18-15,95,depth_duration_stimuli/003079_2014-06-15_15-18-20_094959634447_rgbf000152-resize_8/003079_2014-06-15_15-18-20_094959634447_rgbf000152-resize_8-target.png,83,2.8775,4,14844,82,meters,jsons/VE83_randls_24_rotated.json,1230459,1589625,35,Man
95,258838,DepthScenes,duration_manipulation_targetAtFixation,jsons/VE83_randls_24_rotated.json,http://54.235.29.9/FacialAge/BNav_EC2/DepthDuration/v2_depth_duration_MTurk/v2_DepthDuration_HTML.html#14,14,1920,1080,1920,1080,8-29-2023,13-18-15,96,depth_duration_stimuli/000506_2014-06-08_23-21-00_260595134347_rgbf000070-resize_7/000506_2014-06-08_23-21-00_260595134347_rgbf000070-resize_7-target.png,83,4.0585,3,4065,83,meters,jsons/VE83_randls_24_rotated.json,1230459,1589625,35,Man
96,258838,DepthScenes,duration_manipulation_targetAtFixation,jsons/VE83_randls_24_rotated.json,http://54.235.29.9/FacialAge/BNav_EC2/DepthDuration/v2_depth_duration_MTurk/v2_DepthDuration_HTML.html#14,14,1920,1080,1920,1080,8-29-2023,13-18-15,97,depth_duration_stimuli/000677_2014-06-08_23-10-32_260595134347_rgbf000158-resize_6/000677_2014-06-08_23-10-32_260595134347_rgbf000158-resize_6-target.png,83,3.556,9,5530,82,meters,jsons/VE83_randls_24_rotated.json,1230459,1589625,35,Man
97,258838,DepthScenes,duration_manipulation_targetAtFixation,jsons/VE83_randls_24_rotated.json,http://54.235.29.9/FacialAge/BNav_EC2/DepthDuration/v2_depth_duration_MTurk/v2_DepthDuration_HTML.html#14,14,1920,1080,1920,1080,8-29-2023,13-18-15,98,depth_duration_stimuli/001029_2014-06-08_13-17-57_260595134347_rgbf000065-resize_1/001029_2014-06-08_13-17-57_260595134347_rgbf000065-resize_1-target.png,83,3.0835,3,3596,84,meters,jsons/VE83_randls_24_rotated.json,1230459,1589625,35,Man
98,258838,DepthScenes,duration_manipulation_targetAtFixation,jsons/VE83_randls_24_rotated.json,http://54.235.29.9/FacialAge/BNav_EC2/DepthDuration/v2_depth_duration_MTurk/v2_DepthDuration_HTML.html#14,14,1920,1080,1920,1080,8-29-2023,13-18-15,99,depth_duration_stimuli/001222_2014-06-17_16-24-06_260595134347_rgbf000073-resize_0/001222_2014-06-17_16-24-06_260595134347_rgbf000073-resize-original.jpg,83,1.4385,4,4051,83,meters,jsons/VE83_randls_24_rotated.json,1230459,1589625,35,Man
99,258838,DepthScenes,duration_manipulation_targetAtFixation,jsons/VE83_randls_24_rotated.json,http://54.235.29.9/FacialAge/BNav_EC2/DepthDuration/v2_depth_duration_MTurk/v2_DepthDuration_HTML.html#14,14,1920,1080,1920,1080,8-29-2023,13-18-15,100,depth_duration_stimuli/002199_2014-06-28_18-33-56_260595134347_rgbf000074-resize_0/002199_2014-06-28_18-33-56_260595134347_rgbf000074-resize_0-target.png,83,1.996,8,4634,84,meters,jsons/VE83_randls_24_rotated.json,1230459,1589625,35,Man
100,258838,DepthScenes,duration_manipulation_targetAtFixation,jsons/VE83_randls_24_rotated.json,http://54.235.29.9/FacialAge/BNav_EC2/DepthDuration/v2_depth_duration_MTurk/v2_DepthDuration_HTML.html#14,14,1920,1080,1920,1080,8-29-2023,13-18-15,101,depth_duration_stimuli/001056_2014-06-08_18-46-44_260595134347_rgbf000068-resize_0/001056_2014-06-08_18-46-44_260595134347_rgbf000068-resize_0-target.png,83,2.6625,9,3898,83,meters,jsons/VE83_randls_24_rotated.json,1230459,1589625,35,Man
101,258838,DepthScenes,duration_manipulation_targetAtFixation,jsons/VE83_randls_24_rotated.json,http://54.235.29.9/FacialAge/BNav_EC2/DepthDuration/v2_depth_duration_MTurk/v2_DepthDuration_HTML.html#14,14,1920,1080,1920,1080,8-29-2023,13-18-15,102,depth_duration_stimuli/002414_2014-06-28_20-24-58_260595134347_rgbf000067-resize_4/002414_2014-06-28_20-24-58_260595134347_rgbf000067-resize_4-target.png,83,4.363,6,4498,82,meters,jsons/VE83_randls_24_rotated.json,1230459,1589625,35,Man
102,258838,DepthScenes,duration_manipulation_targetAtFixation,jsons/VE83_randls_24_rotated.json,http://54.235.29.9/FacialAge/BNav_EC2/DepthDuration/v2_depth_duration_MTurk/v2_DepthDuration_HTML.html#14,14,1920,1080,1920,1080,8-29-2023,13-18-15,103,depth_duration_stimuli/000773_2014-06-08_22-24-54_260595134347_rgbf000093-resize_1/000773_2014-06-08_22-24-54_260595134347_rgbf000093-resize_1-target.png,83,4.973,3,18299,84,meters,jsons/VE83_randls_24_rotated.json,1230459,1589625,35,Man
103,258838,DepthScenes,duration_manipulation_targetAtFixation,jsons/VE83_randls_24_rotated.json,http://54.235.29.9/FacialAge/BNav_EC2/DepthDuration/v2_depth_duration_MTurk/v2_DepthDuration_HTML.html#14,14,1920,1080,1920,1080,8-29-2023,13-18-15,104,depth_duration_stimuli/001571_2014-06-20_17-21-32_260595134347_rgbf000089-resize_1/001571_2014-06-20_17-21-32_260595134347_rgbf000089-resize_1-target.png,83,1.86,5,3637,84,meters,jsons/VE83_randls_24_rotated.json,1230459,1589625,35,Man
104,258838,DepthScenes,duration_manipulation_targetAtFixation,jsons/VE83_randls_24_rotated.json,http://54.235.29.9/FacialAge/BNav_EC2/DepthDuration/v2_depth_duration_MTurk/v2_DepthDuration_HTML.html#14,14,1920,1080,1920,1080,8-29-2023,13-18-15,105,depth_duration_stimuli/002272_2014-06-28_18-53-56_260595134347_rgbf000067-resize_2/002272_2014-06-28_18-53-56_260595134347_rgbf000067-resize_2-target.png,83,1.138,4,3308,82,meters,jsons/VE83_randls_24_rotated.json,1230459,1589625,35,Man
105,258838,DepthScenes,duration_manipulation_targetAtFixation,jsons/VE83_randls_24_rotated.json,http://54.235.29.9/FacialAge/BNav_EC2/DepthDuration/v2_depth_duration_MTurk/v2_DepthDuration_HTML.html#14,14,1920,1080,1920,1080,8-29-2023,13-18-15,106,depth_duration_stimuli/001450_2014-06-19_17-02-03_260595134347_rgbf000203-resize_4/001450_2014-06-19_17-02-03_260595134347_rgbf000203-resize_4-target.png,83,4.0106666666667,8,4865,83,meters,jsons/VE83_randls_24_rotated.json,1230459,1589625,35,Man
106,258838,DepthScenes,duration_manipulation_targetAtFixation,jsons/VE83_randls_24_rotated.json,http://54.235.29.9/FacialAge/BNav_EC2/DepthDuration/v2_depth_duration_MTurk/v2_DepthDuration_HTML.html#14,14,1920,1080,1920,1080,8-29-2023,13-18-15,107,depth_duration_stimuli/001449_2014-06-19_17-01-27_260595134347_rgbf000116-resize_2/001449_2014-06-19_17-01-27_260595134347_rgbf000116-resize_2-target.png,83,3.452,7,4282,84,meters,jsons/VE83_randls_24_rotated.json,1230459,1589625,35,Man
107,258838,DepthScenes,duration_manipulation_targetAtFixation,jsons/VE83_randls_24_rotated.json,http://54.235.29.9/FacialAge/BNav_EC2/DepthDuration/v2_depth_duration_MTurk/v2_DepthDuration_HTML.html#14,14,1920,1080,1920,1080,8-29-2023,13-18-15,108,depth_duration_stimuli/001136_2014-06-17_15-19-41_260595134347_rgbf000076-resize_3/001136_2014-06-17_15-19-41_260595134347_rgbf000076-resize_3-target.png,83,1.8655,3,4275,83,meters,jsons/VE83_randls_24_rotated.json,1230459,1589625,35,Man
108,258838,DepthScenes,duration_manipulation_targetAtFixation,jsons/VE83_randls_24_rotated.json,http://54.235.29.9/FacialAge/BNav_EC2/DepthDuration/v2_depth_duration_MTurk/v2_DepthDuration_HTML.html#14,14,1920,1080,1920,1080,8-29-2023,13-18-15,109,depth_duration_stimuli/001164_2014-06-17_15-35-46_260595134347_rgbf000085-resize_3/001164_2014-06-17_15-35-46_260595134347_rgbf000085-resize_3-target.png,83,2.354,5,3971,83,meters,jsons/VE83_randls_24_rotated.json,1230459,1589625,35,Man
109,258838,DepthScenes,duration_manipulation_targetAtFixation,jsons/VE83_randls_24_rotated.json,http://54.235.29.9/FacialAge/BNav_EC2/DepthDuration/v2_depth_duration_MTurk/v2_DepthDuration_HTML.html#14,14,1920,1080,1920,1080,8-29-2023,13-18-15,110,depth_duration_stimuli/002103_2014-06-25_20-00-40_260595134347_rgbf000049-resize_0/002103_2014-06-25_20-00-40_260595134347_rgbf000049-resize_0-target.png,83,4.105,20,6379,83,meters,jsons/VE83_randls_24_rotated.json,1230459,1589625,35,Man
110,258838,DepthScenes,duration_manipulation_targetAtFixation,jsons/VE83_randls_24_rotated.json,http://54.235.29.9/FacialAge/BNav_EC2/DepthDuration/v2_depth_duration_MTurk/v2_DepthDuration_HTML.html#14,14,1920,1080,1920,1080,8-29-2023,13-18-15,111,depth_duration_stimuli/002039_2014-06-24_20-22-38_260595134347_rgbf000084-resize_1/002039_2014-06-24_20-22-38_260595134347_rgbf000084-resize_1-target.png,83,4.408,41,5012,83,meters,jsons/VE83_randls_24_rotated.json,1230459,1589625,35,Man
111,258838,DepthScenes,duration_manipulation_targetAtFixation,jsons/VE83_randls_24_rotated.json,http://54.235.29.9/FacialAge/BNav_EC2/DepthDuration/v2_depth_duration_MTurk/v2_DepthDuration_HTML.html#14,14,1920,1080,1920,1080,8-29-2023,13-18-15,112,depth_duration_stimuli/001052_2014-06-08_18-24-54_260595134347_rgbf000130-resize_1/001052_2014-06-08_18-24-54_260595134347_rgbf000130-resize_1-target.png,83,4.1045,30,5488,83,meters,jsons/VE83_randls_24_rotated.json,1230459,1589625,35,Man
112,258838,DepthScenes,duration_manipulation_targetAtFixation,jsons/VE83_randls_24_rotated.json,http://54.235.29.9/FacialAge/BNav_EC2/DepthDuration/v2_depth_duration_MTurk/v2_DepthDuration_HTML.html#14,14,1920,1080,1920,1080,8-29-2023,13-18-15,113,depth_duration_stimuli/002988_2014-06-15_12-24-20_094959634447_rgbf000150-resize_1/002988_2014-06-15_12-24-20_094959634447_rgbf000150-resize_1-target.png,83,4.7669999999999995,16,5787,84,meters,jsons/VE83_randls_24_rotated.json,1230459,1589625,35,Man
113,258838,DepthScenes,duration_manipulation_targetAtFixation,jsons/VE83_randls_24_rotated.json,http://54.235.29.9/FacialAge/BNav_EC2/DepthDuration/v2_depth_duration_MTurk/v2_DepthDuration_HTML.html#14,14,1920,1080,1920,1080,8-29-2023,13-18-15,114,depth_duration_stimuli/001650_2014-06-20_12-09-00_260595134347_rgbf000087-resize_3/001650_2014-06-20_12-09-00_260595134347_rgbf000087-resize_3-target.png,83,1.9505,22,3772,82,meters,jsons/VE83_randls_24_rotated.json,1230459,1589625,35,Man
114,258838,DepthScenes,duration_manipulation_targetAtFixation,jsons/VE83_randls_24_rotated.json,http://54.235.29.9/FacialAge/BNav_EC2/DepthDuration/v2_depth_duration_MTurk/v2_DepthDuration_HTML.html#14,14,1920,1080,1920,1080,8-29-2023,13-18-15,115,depth_duration_stimuli/000682_2014-06-08_23-14-58_260595134347_rgbf000041-resize_5/000682_2014-06-08_23-14-58_260595134347_rgbf000041-resize_5-target.png,83,2.7239999999999998,13,4536,82,meters,jsons/VE83_randls_24_rotated.json,1230459,1589625,35,Man
115,258838,DepthScenes,duration_manipulation_targetAtFixation,jsons/VE83_randls_24_rotated.json,http://54.235.29.9/FacialAge/BNav_EC2/DepthDuration/v2_depth_duration_MTurk/v2_DepthDuration_HTML.html#14,14,1920,1080,1920,1080,8-29-2023,13-18-15,116,depth_duration_stimuli/000549_2014-06-08_22-10-24_260595134347_rgbf000247-resize_3/000549_2014-06-08_22-10-24_260595134347_rgbf000247-resize_3-target.png,83,1.841,16,6227,82,meters,jsons/VE83_randls_24_rotated.json,1230459,1589625,35,Man
116,258838,DepthScenes,duration_manipulation_targetAtFixation,jsons/VE83_randls_24_rotated.json,http://54.235.29.9/FacialAge/BNav_EC2/DepthDuration/v2_depth_duration_MTurk/v2_DepthDuration_HTML.html#14,14,1920,1080,1920,1080,8-29-2023,13-18-15,117,depth_duration_stimuli/001055_2014-06-08_18-45-35_260595134347_rgbf000111-resize_4/001055_2014-06-08_18-45-35_260595134347_rgbf000111-resize_4-target.png,83,2.4290000000000003,45,4195,82,meters,jsons/VE83_randls_24_rotated.json,1230459,1589625,35,Man
117,258838,DepthScenes,duration_manipulation_targetAtFixation,jsons/VE83_randls_24_rotated.json,http://54.235.29.9/FacialAge/BNav_EC2/DepthDuration/v2_depth_duration_MTurk/v2_DepthDuration_HTML.html#14,14,1920,1080,1920,1080,8-29-2023,13-18-15,118,depth_duration_stimuli/002805_2014-06-22_19-54-03_094959634447_rgbf000079-resize_1/002805_2014-06-22_19-54-03_094959634447_rgbf000079-resize_1-target.png,83,3.1439999999999997,26,4554,81,meters,jsons/VE83_randls_24_rotated.json,1230459,1589625,35,Man
118,258838,DepthScenes,duration_manipulation_targetAtFixation,jsons/VE83_randls_24_rotated.json,http://54.235.29.9/FacialAge/BNav_EC2/DepthDuration/v2_depth_duration_MTurk/v2_DepthDuration_HTML.html#14,14,1920,1080,1920,1080,8-29-2023,13-18-15,119,depth_duration_stimuli/000906_2014-06-08_13-35-43_260595134347_rgbf000155-resize_1/000906_2014-06-08_13-35-43_260595134347_rgbf000155-resize_1-target.png,83,2.8489999999999998,6,3778,83,meters,jsons/VE83_randls_24_rotated.json,1230459,1589625,35,Man
119,258838,DepthScenes,duration_manipulation_targetAtFixation,jsons/VE83_randls_24_rotated.json,http://54.235.29.9/FacialAge/BNav_EC2/DepthDuration/v2_depth_duration_MTurk/v2_DepthDuration_HTML.html#14,14,1920,1080,1920,1080,8-29-2023,13-18-15,120,depth_duration_stimuli/000787_2014-06-08_22-33-53_260595134347_rgbf000175-resize_1/000787_2014-06-08_22-33-53_260595134347_rgbf000175-resize-original.jpg,83,4.784,26,4273,82,meters,jsons/VE83_randls_24_rotated.json,1230459,1589625,35,Man
120,258838,DepthScenes,duration_manipulation_targetAtFixation,jsons/VE83_randls_24_rotated.json,http://54.235.29.9/FacialAge/BNav_EC2/DepthDuration/v2_depth_duration_MTurk/v2_DepthDuration_HTML.html#14,14,1920,1080,1920,1080,8-29-2023,13-18-15,121,depth_duration_stimuli/001132_2014-06-17_14-48-54_260595134347_rgbf000100-resize_2/001132_2014-06-17_14-48-54_260595134347_rgbf000100-resize_2-target.png,83,3.753,31,4602,82,meters,jsons/VE83_randls_24_rotated.json,1230459,1589625,35,Man
121,258838,DepthScenes,duration_manipulation_targetAtFixation,jsons/VE83_randls_24_rotated.json,http://54.235.29.9/FacialAge/BNav_EC2/DepthDuration/v2_depth_duration_MTurk/v2_DepthDuration_HTML.html#14,14,1920,1080,1920,1080,8-29-2023,13-18-15,122,depth_duration_stimuli/001133_2014-06-17_14-49-16_260595134347_rgbf000100-resize_0/001133_2014-06-17_14-49-16_260595134347_rgbf000100-resize_0-target.png,83,4.2115,20,3731,82,meters,jsons/VE83_randls_24_rotated.json,1230459,1589625,35,Man
122,258838,DepthScenes,duration_manipulation_targetAtFixation,jsons/VE83_randls_24_rotated.json,http://54.235.29.9/FacialAge/BNav_EC2/DepthDuration/v2_depth_duration_MTurk/v2_DepthDuration_HTML.html#14,14,1920,1080,1920,1080,8-29-2023,13-18-15,123,depth_duration_stimuli/000502_2014-06-08_23-02-32_260595134347_rgbf000063-resize_4/000502_2014-06-08_23-02-32_260595134347_rgbf000063-resize_4-target.png,83,2.431,41,3963,81,meters,jsons/VE83_randls_24_rotated.json,1230459,1589625,35,Man
123,258838,DepthScenes,duration_manipulation_targetAtFixation,jsons/VE83_randls_24_rotated.json,http://54.235.29.9/FacialAge/BNav_EC2/DepthDuration/v2_depth_duration_MTurk/v2_DepthDuration_HTML.html#14,14,1920,1080,1920,1080,8-29-2023,13-18-15,124,depth_duration_stimuli/001199_2014-06-17_16-03-48_260595134347_rgbf000077-resize_0/001199_2014-06-17_16-03-48_260595134347_rgbf000077-resize_0-target.png,83,3.4375,29,9730,83,meters,jsons/VE83_randls_24_rotated.json,1230459,1589625,35,Man
124,258838,DepthScenes,duration_manipulation_targetAtFixation,jsons/VE83_randls_24_rotated.json,http://54.235.29.9/FacialAge/BNav_EC2/DepthDuration/v2_depth_duration_MTurk/v2_DepthDuration_HTML.html#14,14,1920,1080,1920,1080,8-29-2023,13-18-15,125,depth_duration_stimuli/003495_2014-05-21_16-01-51_094959634447_rgbf000100-resize_3/003495_2014-05-21_16-01-51_094959634447_rgbf000100-resize_3-target.png,83,1.6255,27,9546,83,meters,jsons/VE83_randls_24_rotated.json,1230459,1589625,35,Man
125,258838,DepthScenes,duration_manipulation_targetAtFixation,jsons/VE83_randls_24_rotated.json,http://54.235.29.9/FacialAge/BNav_EC2/DepthDuration/v2_depth_duration_MTurk/v2_DepthDuration_HTML.html#14,14,1920,1080,1920,1080,8-29-2023,13-18-15,126,depth_duration_stimuli/001244_2014-06-17_16-47-45_260595134347_rgbf000030-resize_4/001244_2014-06-17_16-47-45_260595134347_rgbf000030-resize_4-target.png,83,2.0425,23,5124,84,meters,jsons/VE83_randls_24_rotated.json,1230459,1589625,35,Man
126,258838,DepthScenes,duration_manipulation_targetAtFixation,jsons/VE83_randls_24_rotated.json,http://54.235.29.9/FacialAge/BNav_EC2/DepthDuration/v2_depth_duration_MTurk/v2_DepthDuration_HTML.html#14,14,1920,1080,1920,1080,8-29-2023,13-18-15,127,depth_duration_stimuli/000635_2014-06-08_16-38-42_260595134347_rgbf000106-resize_1/000635_2014-06-08_16-38-42_260595134347_rgbf000106-resize_1-target.png,83,2.074,24,4235,83,meters,jsons/VE83_randls_24_rotated.json,1230459,1589625,35,Man
127,258838,DepthScenes,duration_manipulation_targetAtFixation,jsons/VE83_randls_24_rotated.json,http://54.235.29.9/FacialAge/BNav_EC2/DepthDuration/v2_depth_duration_MTurk/v2_DepthDuration_HTML.html#14,14,1920,1080,1920,1080,8-29-2023,13-18-15,128,depth_duration_stimuli/002279_2014-06-28_18-55-32_260595134347_rgbf000040-resize_5/002279_2014-06-28_18-55-32_260595134347_rgbf000040-resize_5-target.png,83,1.5043333333333,26,4035,83,meters,jsons/VE83_randls_24_rotated.json,1230459,1589625,35,Man
128,258838,DepthScenes,duration_manipulation_targetAtFixation,jsons/VE83_randls_24_rotated.json,http://54.235.29.9/FacialAge/BNav_EC2/DepthDuration/v2_depth_duration_MTurk/v2_DepthDuration_HTML.html#14,14,1920,1080,1920,1080,8-29-2023,13-18-15,129,depth_duration_stimuli/001094_2014-06-15_17-36-00_260595134347_rgbf000205-resize_0/001094_2014-06-15_17-36-00_260595134347_rgbf000205-resize_0-target.png,83,4.2175,10,3986,82,meters,jsons/VE83_randls_24_rotated.json,1230459,1589625,35,Man
129,258838,DepthScenes,duration_manipulation_targetAtFixation,jsons/VE83_randls_24_rotated.json,http://54.235.29.9/FacialAge/BNav_EC2/DepthDuration/v2_depth_duration_MTurk/v2_DepthDuration_HTML.html#14,14,1920,1080,1920,1080,8-29-2023,13-18-15,130,depth_duration_stimuli/000692_2014-06-08_13-09-42_260595134347_rgbf000199-resize_2/000692_2014-06-08_13-09-42_260595134347_rgbf000199-resize_2-target.png,83,3.661,26,5690,83,meters,jsons/VE83_randls_24_rotated.json,1230459,1589625,35,Man
130,258838,DepthScenes,duration_manipulation_targetAtFixation,jsons/VE83_randls_24_rotated.json,http://54.235.29.9/FacialAge/BNav_EC2/DepthDuration/v2_depth_duration_MTurk/v2_DepthDuration_HTML.html#14,14,1920,1080,1920,1080,8-29-2023,13-18-15,131,depth_duration_stimuli/002758_2014-06-22_19-11-20_094959634447_rgbf000128-resize_1/002758_2014-06-22_19-11-20_094959634447_rgbf000128-resize_1-target.png,83,2.555,10,4066,82,meters,jsons/VE83_randls_24_rotated.json,1230459,1589625,35,Man
131,258838,DepthScenes,duration_manipulation_targetAtFixation,jsons/VE83_randls_24_rotated.json,http://54.235.29.9/FacialAge/BNav_EC2/DepthDuration/v2_depth_duration_MTurk/v2_DepthDuration_HTML.html#14,14,1920,1080,1920,1080,8-29-2023,13-18-15,132,depth_duration_stimuli/002630_2014-06-24_14-47-50_094959634447_rgbf000055-resize_1/002630_2014-06-24_14-47-50_094959634447_rgbf000055-resize_1-target.png,83,3.0095,9,3323,83,meters,jsons/VE83_randls_24_rotated.json,1230459,1589625,35,Man
132,258838,DepthScenes,duration_manipulation_targetAtFixation,jsons/VE83_randls_24_rotated.json,http://54.235.29.9/FacialAge/BNav_EC2/DepthDuration/v2_depth_duration_MTurk/v2_DepthDuration_HTML.html#14,14,1920,1080,1920,1080,8-29-2023,13-18-15,133,depth_duration_stimuli/002750_2014-06-22_19-08-03_094959634447_rgbf000094-resize_4/002750_2014-06-22_19-08-03_094959634447_rgbf000094-resize_4-target.png,83,2.354,23,6194,84,meters,jsons/VE83_randls_24_rotated.json,1230459,1589625,35,Man
133,258838,DepthScenes,duration_manipulation_targetAtFixation,jsons/VE83_randls_24_rotated.json,http://54.235.29.9/FacialAge/BNav_EC2/DepthDuration/v2_depth_duration_MTurk/v2_DepthDuration_HTML.html#14,14,1920,1080,1920,1080,8-29-2023,13-18-15,134,depth_duration_stimuli/002549_2014-06-24_13-41-39_094959634447_rgbf000022-resize_3/002549_2014-06-24_13-41-39_094959634447_rgbf000022-resize_3-target.png,83,1.476,24,3771,83,meters,jsons/VE83_randls_24_rotated.json,1230459,1589625,35,Man
134,258838,DepthScenes,duration_manipulation_targetAtFixation,jsons/VE83_randls_24_rotated.json,http://54.235.29.9/FacialAge/BNav_EC2/DepthDuration/v2_depth_duration_MTurk/v2_DepthDuration_HTML.html#14,14,1920,1080,1920,1080,8-29-2023,13-18-15,135,depth_duration_stimuli/000375_2014-06-08_11-17-29_260595134347_rgbf000133-resize_2/000375_2014-06-08_11-17-29_260595134347_rgbf000133-resize-original.jpg,83,4.718,21,4010,82,meters,jsons/VE83_randls_24_rotated.json,1230459,1589625,35,Man
135,258838,DepthScenes,duration_manipulation_targetAtFixation,jsons/VE83_randls_24_rotated.json,http://54.235.29.9/FacialAge/BNav_EC2/DepthDuration/v2_depth_duration_MTurk/v2_DepthDuration_HTML.html#14,14,1920,1080,1920,1080,8-29-2023,13-18-15,136,depth_duration_stimuli/002136_2014-06-25_21-18-03_260595134347_rgbf000109-resize_3/002136_2014-06-25_21-18-03_260595134347_rgbf000109-resize_3-target.png,83,1.9569999999999999,26,4554,83,meters,jsons/VE83_randls_24_rotated.json,1230459,1589625,35,Man
136,258838,DepthScenes,duration_manipulation_targetAtFixation,jsons/VE83_randls_24_rotated.json,http://54.235.29.9/FacialAge/BNav_EC2/DepthDuration/v2_depth_duration_MTurk/v2_DepthDuration_HTML.html#14,14,1920,1080,1920,1080,8-29-2023,13-18-15,137,depth_duration_stimuli/002964_2014-06-08_17-46-11_094959634447_rgbf000091-resize_4/002964_2014-06-08_17-46-11_094959634447_rgbf000091-resize_4-target.png,83,1.6909999999999998,28,3907,83,meters,jsons/VE83_randls_24_rotated.json,1230459,1589625,35,Man
137,258838,DepthScenes,duration_manipulation_targetAtFixation,jsons/VE83_randls_24_rotated.json,http://54.235.29.9/FacialAge/BNav_EC2/DepthDuration/v2_depth_duration_MTurk/v2_DepthDuration_HTML.html#14,14,1920,1080,1920,1080,8-29-2023,13-18-15,138,depth_duration_stimuli/002953_2014-06-08_17-32-18_094959634447_rgbf000059-resize_5/002953_2014-06-08_17-32-18_094959634447_rgbf000059-resize_5-target.png,83,1.551,16,6348,81,meters,jsons/VE83_randls_24_rotated.json,1230459,1589625,35,Man
138,258838,DepthScenes,duration_manipulation_targetAtFixation,jsons/VE83_randls_24_rotated.json,http://54.235.29.9/FacialAge/BNav_EC2/DepthDuration/v2_depth_duration_MTurk/v2_DepthDuration_HTML.html#14,14,1920,1080,1920,1080,8-29-2023,13-18-15,139,depth_duration_stimuli/000878_2014-06-08_22-52-45_260595134347_rgbf000045-resize_2/000878_2014-06-08_22-52-45_260595134347_rgbf000045-resize_2-target.png,83,2.092,25,34193,83,meters,jsons/VE83_randls_24_rotated.json,1230459,1589625,35,Man
139,258838,DepthScenes,duration_manipulation_targetAtFixation,jsons/VE83_randls_24_rotated.json,http://54.235.29.9/FacialAge/BNav_EC2/DepthDuration/v2_depth_duration_MTurk/v2_DepthDuration_HTML.html#14,14,1920,1080,1920,1080,8-29-2023,13-18-15,140,depth_duration_stimuli/002467_2014-06-28_20-38-07_260595134347_rgbf000026-resize_2/002467_2014-06-28_20-38-07_260595134347_rgbf000026-resize_2-target.png,83,4.742,24,27534,82,meters,jsons/VE83_randls_24_rotated.json,1230459,1589625,35,Man
140,258838,DepthScenes,duration_manipulation_targetAtFixation,jsons/VE83_randls_24_rotated.json,http://54.235.29.9/FacialAge/BNav_EC2/DepthDuration/v2_depth_duration_MTurk/v2_DepthDuration_HTML.html#14,14,1920,1080,1920,1080,8-29-2023,13-18-15,141,depth_duration_stimuli/002570_2014-06-24_13-59-54_094959634447_rgbf000059-resize_0/002570_2014-06-24_13-59-54_094959634447_rgbf000059-resize_0-target.png,83,4.037,16,3983,83,meters,jsons/VE83_randls_24_rotated.json,1230459,1589625,35,Man
141,258838,DepthScenes,duration_manipulation_targetAtFixation,jsons/VE83_randls_24_rotated.json,http://54.235.29.9/FacialAge/BNav_EC2/DepthDuration/v2_depth_duration_MTurk/v2_DepthDuration_HTML.html#14,14,1920,1080,1920,1080,8-29-2023,13-18-15,142,depth_duration_stimuli/002344_2014-06-28_20-06-29_260595134347_rgbf000030-resize_1/002344_2014-06-28_20-06-29_260595134347_rgbf000030-resize_1-target.png,83,1.5795,9,3422,83,meters,jsons/VE83_randls_24_rotated.json,1230459,1589625,35,Man
142,258838,DepthScenes,duration_manipulation_targetAtFixation,jsons/VE83_randls_24_rotated.json,http://54.235.29.9/FacialAge/BNav_EC2/DepthDuration/v2_depth_duration_MTurk/v2_DepthDuration_HTML.html#14,14,1920,1080,1920,1080,8-29-2023,13-18-15,143,depth_duration_stimuli/002725_2014-06-22_11-47-51_094959634447_rgbf000070-resize_1/002725_2014-06-22_11-47-51_094959634447_rgbf000070-resize_1-target.png,83,2.195,20,4610,84,meters,jsons/VE83_randls_24_rotated.json,1230459,1589625,35,Man
143,258838,DepthScenes,duration_manipulation_targetAtFixation,jsons/VE83_randls_24_rotated.json,http://54.235.29.9/FacialAge/BNav_EC2/DepthDuration/v2_depth_duration_MTurk/v2_DepthDuration_HTML.html#14,14,1920,1080,1920,1080,8-29-2023,13-18-15,144,depth_duration_stimuli/001617_2014-06-20_11-35-32_260595134347_rgbf000066-resize_1/001617_2014-06-20_11-35-32_260595134347_rgbf000066-resize_1-target.png,83,3.7910000000000004,25,4580,84,meters,jsons/VE83_randls_24_rotated.json,1230459,1589625,35,Man
144,258838,DepthScenes,duration_manipulation_targetAtFixation,jsons/VE83_randls_24_rotated.json,http://54.235.29.9/FacialAge/BNav_EC2/DepthDuration/v2_depth_duration_MTurk/v2_DepthDuration_HTML.html#14,14,1920,1080,1920,1080,8-29-2023,13-18-15,145,depth_duration_stimuli/001806_2014-06-26_20-50-20_260595134347_rgbf000091-resize_1/001806_2014-06-26_20-50-20_260595134347_rgbf000091-resize_1-target.png,83,2.7305,13,14372,83,meters,jsons/VE83_randls_24_rotated.json,1230459,1589625,35,Man
145,258838,DepthScenes,duration_manipulation_targetAtFixation,jsons/VE83_randls_24_rotated.json,http://54.235.29.9/FacialAge/BNav_EC2/DepthDuration/v2_depth_duration_MTurk/v2_DepthDuration_HTML.html#14,14,1920,1080,1920,1080,8-29-2023,13-18-15,146,depth_duration_stimuli/002323_2014-06-28_20-01-54_260595134347_rgbf000051-resize_4/002323_2014-06-28_20-01-54_260595134347_rgbf000051-resize_4-target.png,83,3.7310000000000003,10,4353,84,meters,jsons/VE83_randls_24_rotated.json,1230459,1589625,35,Man
146,258838,DepthScenes,duration_manipulation_targetAtFixation,jsons/VE83_randls_24_rotated.json,http://54.235.29.9/FacialAge/BNav_EC2/DepthDuration/v2_depth_duration_MTurk/v2_DepthDuration_HTML.html#14,14,1920,1080,1920,1080,8-29-2023,13-18-15,147,depth_duration_stimuli/000917_2014-06-09_22-45-29_260595134347_rgbf000149-resize_3/000917_2014-06-09_22-45-29_260595134347_rgbf000149-resize_3-target.png,83,4.1865,14,4180,83,meters,jsons/VE83_randls_24_rotated.json,1230459,1589625,35,Man
147,258838,DepthScenes,duration_manipulation_targetAtFixation,jsons/VE83_randls_24_rotated.json,http://54.235.29.9/FacialAge/BNav_EC2/DepthDuration/v2_depth_duration_MTurk/v2_DepthDuration_HTML.html#14,14,1920,1080,1920,1080,8-29-2023,13-18-15,148,depth_duration_stimuli/001214_2014-06-17_16-13-55_260595134347_rgbf000111-resize_0/001214_2014-06-17_16-13-55_260595134347_rgbf000111-resize_0-target.png,83,2.6505,18,3810,84,meters,jsons/VE83_randls_24_rotated.json,1230459,1589625,35,Man
148,258838,DepthScenes,duration_manipulation_targetAtFixation,jsons/VE83_randls_24_rotated.json,http://54.235.29.9/FacialAge/BNav_EC2/DepthDuration/v2_depth_duration_MTurk/v2_DepthDuration_HTML.html#14,14,1920,1080,1920,1080,8-29-2023,13-18-15,149,depth_duration_stimuli/000810_2014-06-08_17-20-01_260595134347_rgbf000105-resize_0/000810_2014-06-08_17-20-01_260595134347_rgbf000105-resize_0-target.png,83,1.4865,22,3889,83,meters,jsons/VE83_randls_24_rotated.json,1230459,1589625,35,Man
149,258838,DepthScenes,duration_manipulation_targetAtFixation,jsons/VE83_randls_24_rotated.json,http://54.235.29.9/FacialAge/BNav_EC2/DepthDuration/v2_depth_duration_MTurk/v2_DepthDuration_HTML.html#14,14,1920,1080,1920,1080,8-29-2023,13-18-15,150,depth_duration_stimuli/000483_2014-06-09_20-41-45_260595134347_rgbf000116-resize_4/000483_2014-06-09_20-41-45_260595134347_rgbf000116-resize_4-target.png,83,1.337,24,4460,83,meters,jsons/VE83_randls_24_rotated.json,1230459,1589625,35,Man
150,258838,DepthScenes,duration_manipulation_targetAtFixation,jsons/VE83_randls_24_rotated.json,http://54.235.29.9/FacialAge/BNav_EC2/DepthDuration/v2_depth_duration_MTurk/v2_DepthDuration_HTML.html#14,14,1920,1080,1920,1080,8-29-2023,13-18-15,151,depth_duration_stimuli/000469_2014-06-09_19-42-10_260595134347_rgbf000081-resize_1/000469_2014-06-09_19-42-10_260595134347_rgbf000081-resize_1-target.png,83,1.652,26,3803,82,meters,jsons/VE83_randls_24_rotated.json,1230459,1589625,35,Man
151,258838,DepthScenes,duration_manipulation_targetAtFixation,jsons/VE83_randls_24_rotated.json,http://54.235.29.9/FacialAge/BNav_EC2/DepthDuration/v2_depth_duration_MTurk/v2_DepthDuration_HTML.html#14,14,1920,1080,1920,1080,8-29-2023,13-18-15,152,depth_duration_stimuli/000569_2014-06-09_22-51-47_260595134347_rgbf000141-resize_3/000569_2014-06-09_22-51-47_260595134347_rgbf000141-resize-original.jpg,83,4.512,28,4242,84,meters,jsons/VE83_randls_24_rotated.json,1230459,1589625,35,Man
152,258838,DepthScenes,duration_manipulation_targetAtFixation,jsons/VE83_randls_24_rotated.json,http://54.235.29.9/FacialAge/BNav_EC2/DepthDuration/v2_depth_duration_MTurk/v2_DepthDuration_HTML.html#14,14,1920,1080,1920,1080,8-29-2023,13-18-15,153,depth_duration_stimuli/000943_2014-06-09_19-31-07_260595134347_rgbf000128-resize_1/000943_2014-06-09_19-31-07_260595134347_rgbf000128-resize_1-target.png,83,1.9765,20,3524,83,meters,jsons/VE83_randls_24_rotated.json,1230459,1589625,35,Man
153,258838,DepthScenes,duration_manipulation_targetAtFixation,jsons/VE83_randls_24_rotated.json,http://54.235.29.9/FacialAge/BNav_EC2/DepthDuration/v2_depth_duration_MTurk/v2_DepthDuration_HTML.html#14,14,1920,1080,1920,1080,8-29-2023,13-18-15,154,depth_duration_stimuli/003070_2014-06-15_14-58-27_094959634447_rgbf000150-resize_3/003070_2014-06-15_14-58-27_094959634447_rgbf000150-resize_3-target.png,83,2.9415,17,4210,82,meters,jsons/VE83_randls_24_rotated.json,1230459,1589625,35,Man
154,258838,DepthScenes,duration_manipulation_targetAtFixation,jsons/VE83_randls_24_rotated.json,http://54.235.29.9/FacialAge/BNav_EC2/DepthDuration/v2_depth_duration_MTurk/v2_DepthDuration_HTML.html#14,14,1920,1080,1920,1080,8-29-2023,13-18-15,155,depth_duration_stimuli/001235_2014-06-17_16-37-36_260595134347_rgbf000084-resize_4/001235_2014-06-17_16-37-36_260595134347_rgbf000084-resize_4-target.png,83,3.6605,29,5896,82,meters,jsons/VE83_randls_24_rotated.json,1230459,1589625,35,Man
155,258838,DepthScenes,duration_manipulation_targetAtFixation,jsons/VE83_randls_24_rotated.json,http://54.235.29.9/FacialAge/BNav_EC2/DepthDuration/v2_depth_duration_MTurk/v2_DepthDuration_HTML.html#14,14,1920,1080,1920,1080,8-29-2023,13-18-15,156,depth_duration_stimuli/000788_2014-06-08_22-34-36_260595134347_rgbf000131-resize_1/000788_2014-06-08_22-34-36_260595134347_rgbf000131-resize_1-target.png,83,3.359,36,11649,82,meters,jsons/VE83_randls_24_rotated.json,1230459,1589625,35,Man
156,258838,DepthScenes,duration_manipulation_targetAtFixation,jsons/VE83_randls_24_rotated.json,http://54.235.29.9/FacialAge/BNav_EC2/DepthDuration/v2_depth_duration_MTurk/v2_DepthDuration_HTML.html#14,14,1920,1080,1920,1080,8-29-2023,13-18-15,157,depth_duration_stimuli/000866_2014-06-09_20-45-42_260595134347_rgbf000139-resize_1/000866_2014-06-09_20-45-42_260595134347_rgbf000139-resize_1-target.png,83,3.2155,26,13049,83,meters,jsons/VE83_randls_24_rotated.json,1230459,1589625,35,Man
157,258838,DepthScenes,duration_manipulation_targetAtFixation,jsons/VE83_randls_24_rotated.json,http://54.235.29.9/FacialAge/BNav_EC2/DepthDuration/v2_depth_duration_MTurk/v2_DepthDuration_HTML.html#14,14,1920,1080,1920,1080,8-29-2023,13-18-15,158,depth_duration_stimuli/002989_2014-06-15_12-25-03_094959634447_rgbf000150-resize_3/002989_2014-06-15_12-25-03_094959634447_rgbf000150-resize_3-target.png,83,4.1975,16,3995,84,meters,jsons/VE83_randls_24_rotated.json,1230459,1589625,35,Man
158,258838,DepthScenes,duration_manipulation_targetAtFixation,jsons/VE83_randls_24_rotated.json,http://54.235.29.9/FacialAge/BNav_EC2/DepthDuration/v2_depth_duration_MTurk/v2_DepthDuration_HTML.html#14,14,1920,1080,1920,1080,8-29-2023,13-18-15,159,depth_duration_stimuli/002995_2014-06-15_12-31-26_094959634447_rgbf000150-resize_1/002995_2014-06-15_12-31-26_094959634447_rgbf000150-resize_1-target.png,83,3.8360000000000003,13,3834,83,meters,jsons/VE83_randls_24_rotated.json,1230459,1589625,35,Man
159,258838,DepthScenes,duration_manipulation_targetAtFixation,jsons/VE83_randls_24_rotated.json,http://54.235.29.9/FacialAge/BNav_EC2/DepthDuration/v2_depth_duration_MTurk/v2_DepthDuration_HTML.html#14,14,1920,1080,1920,1080,8-29-2023,13-18-15,160,depth_duration_stimuli/002748_2014-06-22_19-07-22_094959634447_rgbf000078-resize_1/002748_2014-06-22_19-07-22_094959634447_rgbf000078-resize_1-target.png,83,4.6705,9,4971,82,meters,jsons/VE83_randls_24_rotated.json,1230459,1589625,35,Man
160,258838,DepthScenes,duration_manipulation_targetAtFixation,jsons/VE83_randls_24_rotated.json,http://54.235.29.9/FacialAge/BNav_EC2/DepthDuration/v2_depth_duration_MTurk/v2_DepthDuration_HTML.html#14,14,1920,1080,1920,1080,8-29-2023,13-18-15,161,depth_duration_stimuli/002209_2014-06-28_18-36-10_260595134347_rgbf000051-resize_1/002209_2014-06-28_18-36-10_260595134347_rgbf000051-resize_1-target.png,83,2.057,5,16578,83,meters,jsons/VE83_randls_24_rotated.json,1230459,1589625,35,Man
161,258838,DepthScenes,duration_manipulation_targetAtFixation,jsons/VE83_randls_24_rotated.json,http://54.235.29.9/FacialAge/BNav_EC2/DepthDuration/v2_depth_duration_MTurk/v2_DepthDuration_HTML.html#14,14,1920,1080,1920,1080,8-29-2023,13-18-15,162,depth_duration_stimuli/002763_2014-06-22_19-13-10_094959634447_rgbf000075-resize_4/002763_2014-06-22_19-13-10_094959634447_rgbf000075-resize_4-target.png,83,1.68375,7,3700,84,meters,jsons/VE83_randls_24_rotated.json,1230459,1589625,35,Man
162,258838,DepthScenes,duration_manipulation_targetAtFixation,jsons/VE83_randls_24_rotated.json,http://54.235.29.9/FacialAge/BNav_EC2/DepthDuration/v2_depth_duration_MTurk/v2_DepthDuration_HTML.html#14,14,1920,1080,1920,1080,8-29-2023,13-18-15,163,depth_duration_stimuli/002660_2014-06-13_15-44-18_094959634447_rgbf001878-resize_2/002660_2014-06-13_15-44-18_094959634447_rgbf001878-resize_2-target.png,83,3.576,9,7762,84,meters,jsons/VE83_randls_24_rotated.json,1230459,1589625,35,Man
163,258838,DepthScenes,duration_manipulation_targetAtFixation,jsons/VE83_randls_24_rotated.json,http://54.235.29.9/FacialAge/BNav_EC2/DepthDuration/v2_depth_duration_MTurk/v2_DepthDuration_HTML.html#14,14,1920,1080,1920,1080,8-29-2023,13-18-15,164,depth_duration_stimuli/002153_2014-06-25_21-27-18_260595134347_rgbf000038-resize_5/002153_2014-06-25_21-27-18_260595134347_rgbf000038-resize_5-target.png,83,2.505,6,5235,82,meters,jsons/VE83_randls_24_rotated.json,1230459,1589625,35,Man
