,subjID,experimentName,versionName,sequenceName,url,selected_row,windowWidth,windowHeight,screenWidth,screenHeight,startDate,startTime,trial,stimulus,duration,actual_depth,depth_estimate,trial_RT,log_sceneDuration,unitSelection,seq_filepath,experimentTime,totalTime,age,gender
0,258888,DepthScenes,duration_manipulation_targetAtFixation,jsons/v1_VE250_randls_27.json,http://54.235.29.9/FacialAge/BNav_EC2/DepthDuration/v2_depth_duration_MTurk/v2_DepthDuration_HTML.html#104,104,1366,768,1366,768,8-20-2022,11-29-23,1,depth_duration_stimuli/000469_2014-06-09_19-42-10_260595134347_rgbf000081-resize_1/000469_2014-06-09_19-42-10_260595134347_rgbf000081-resize_1-target.png,250,1.652,1,4307,227,feet,jsons/v1_VE250_randls_27.json,885370,1767886,63,Man
1,258888,DepthScenes,duration_manipulation_targetAtFixation,jsons/v1_VE250_randls_27.json,http://54.235.29.9/FacialAge/BNav_EC2/DepthDuration/v2_depth_duration_MTurk/v2_DepthDuration_HTML.html#104,104,1366,768,1366,768,8-20-2022,11-29-23,2,depth_duration_stimuli/000483_2014-06-09_20-41-45_260595134347_rgbf000116-resize_4/000483_2014-06-09_20-41-45_260595134347_rgbf000116-resize_4-target.png,250,1.337,2,3379,249,feet,jsons/v1_VE250_randls_27.json,885370,1767886,63,Man
2,258888,DepthScenes,duration_manipulation_targetAtFixation,jsons/v1_VE250_randls_27.json,http://54.235.29.9/FacialAge/BNav_EC2/DepthDuration/v2_depth_duration_MTurk/v2_DepthDuration_HTML.html#104,104,1366,768,1366,768,8-20-2022,11-29-23,3,depth_duration_stimuli/002788_2014-06-22_19-36-03_094959634447_rgbf000088-resize_2/002788_2014-06-22_19-36-03_094959634447_rgbf000088-resize_2-target.png,250,1.6465,4,4567,255,feet,jsons/v1_VE250_randls_27.json,885370,1767886,63,Man
3,258888,DepthScenes,duration_manipulation_targetAtFixation,jsons/v1_VE250_randls_27.json,http://54.235.29.9/FacialAge/BNav_EC2/DepthDuration/v2_depth_duration_MTurk/v2_DepthDuration_HTML.html#104,104,1366,768,1366,768,8-20-2022,11-29-23,4,depth_duration_stimuli/000749_2014-06-08_21-55-06_260595134347_rgbf000070-resize_2/000749_2014-06-08_21-55-06_260595134347_rgbf000070-resize_2-target.png,250,2.331,0,8603,248,feet,jsons/v1_VE250_randls_27.json,885370,1767886,63,Man
4,258888,DepthScenes,duration_manipulation_targetAtFixation,jsons/v1_VE250_randls_27.json,http://54.235.29.9/FacialAge/BNav_EC2/DepthDuration/v2_depth_duration_MTurk/v2_DepthDuration_HTML.html#104,104,1366,768,1366,768,8-20-2022,11-29-23,5,depth_duration_stimuli/001175_2014-06-17_15-45-55_260595134347_rgbf000129-resize_4/001175_2014-06-17_15-45-55_260595134347_rgbf000129-resize_4-target.png,250,4.255,8,8830,239,feet,jsons/v1_VE250_randls_27.json,885370,1767886,63,Man
5,258888,DepthScenes,duration_manipulation_targetAtFixation,jsons/v1_VE250_randls_27.json,http://54.235.29.9/FacialAge/BNav_EC2/DepthDuration/v2_depth_duration_MTurk/v2_DepthDuration_HTML.html#104,104,1366,768,1366,768,8-20-2022,11-29-23,6,depth_duration_stimuli/003490_2014-05-21_15-50-11_094959634447_rgbf000101-resize_3/003490_2014-05-21_15-50-11_094959634447_rgbf000101-resize_3-target.png,250,3.6445,7,4095,242,feet,jsons/v1_VE250_randls_27.json,885370,1767886,63,Man
6,258888,DepthScenes,duration_manipulation_targetAtFixation,jsons/v1_VE250_randls_27.json,http://54.235.29.9/FacialAge/BNav_EC2/DepthDuration/v2_depth_duration_MTurk/v2_DepthDuration_HTML.html#104,104,1366,768,1366,768,8-20-2022,11-29-23,7,depth_duration_stimuli/001016_2014-06-09_16-16-10_260595134347_rgbf000112-resize_5/001016_2014-06-09_16-16-10_260595134347_rgbf000112-resize_5-target.png,250,1.6565,3,3553,248,feet,jsons/v1_VE250_randls_27.json,885370,1767886,63,Man
7,258888,DepthScenes,duration_manipulation_targetAtFixation,jsons/v1_VE250_randls_27.json,http://54.235.29.9/FacialAge/BNav_EC2/DepthDuration/v2_depth_duration_MTurk/v2_DepthDuration_HTML.html#104,104,1366,768,1366,768,8-20-2022,11-29-23,8,depth_duration_stimuli/002340_2014-06-28_20-05-46_260595134347_rgbf000113-resize_0/002340_2014-06-28_20-05-46_260595134347_rgbf000113-resize_0-target.png,250,2.4735,4,3456,263,feet,jsons/v1_VE250_randls_27.json,885370,1767886,63,Man
8,258888,DepthScenes,duration_manipulation_targetAtFixation,jsons/v1_VE250_randls_27.json,http://54.235.29.9/FacialAge/BNav_EC2/DepthDuration/v2_depth_duration_MTurk/v2_DepthDuration_HTML.html#104,104,1366,768,1366,768,8-20-2022,11-29-23,9,depth_duration_stimuli/000447_2014-06-08_16-15-46_260595134347_rgbf000130-resize_1/000447_2014-06-08_16-15-46_260595134347_rgbf000130-resize_1-target.png,250,4.479,7,3267,249,feet,jsons/v1_VE250_randls_27.json,885370,1767886,63,Man
9,258888,DepthScenes,duration_manipulation_targetAtFixation,jsons/v1_VE250_randls_27.json,http://54.235.29.9/FacialAge/BNav_EC2/DepthDuration/v2_depth_duration_MTurk/v2_DepthDuration_HTML.html#104,104,1366,768,1366,768,8-20-2022,11-29-23,10,depth_duration_stimuli/001447_2014-06-19_17-00-32_260595134347_rgbf000082-resize_5/001447_2014-06-19_17-00-32_260595134347_rgbf000082-resize_5-target.png,250,4.13775,3,3277,250,feet,jsons/v1_VE250_randls_27.json,885370,1767886,63,Man
10,258888,DepthScenes,duration_manipulation_targetAtFixation,jsons/v1_VE250_randls_27.json,http://54.235.29.9/FacialAge/BNav_EC2/DepthDuration/v2_depth_duration_MTurk/v2_DepthDuration_HTML.html#104,104,1366,768,1366,768,8-20-2022,11-29-23,11,depth_duration_stimuli/001570_2014-06-20_17-21-09_260595134347_rgbf000135-resize_4/001570_2014-06-20_17-21-09_260595134347_rgbf000135-resize_4-target.png,250,4.467,8,5542,253,feet,jsons/v1_VE250_randls_27.json,885370,1767886,63,Man
11,258888,DepthScenes,duration_manipulation_targetAtFixation,jsons/v1_VE250_randls_27.json,http://54.235.29.9/FacialAge/BNav_EC2/DepthDuration/v2_depth_duration_MTurk/v2_DepthDuration_HTML.html#104,104,1366,768,1366,768,8-20-2022,11-29-23,12,depth_duration_stimuli/001392_2014-06-19_16-07-59_260595134347_rgbf000046-resize_1/001392_2014-06-19_16-07-59_260595134347_rgbf000046-resize_1-target.png,250,4.135,6,3750,256,feet,jsons/v1_VE250_randls_27.json,885370,1767886,63,Man
12,258888,DepthScenes,duration_manipulation_targetAtFixation,jsons/v1_VE250_randls_27.json,http://54.235.29.9/FacialAge/BNav_EC2/DepthDuration/v2_depth_duration_MTurk/v2_DepthDuration_HTML.html#104,104,1366,768,1366,768,8-20-2022,11-29-23,13,depth_duration_stimuli/000569_2014-06-09_22-51-47_260595134347_rgbf000141-resize_3/000569_2014-06-09_22-51-47_260595134347_rgbf000141-resize-original.jpg,250,4.512,4,3400,252,feet,jsons/v1_VE250_randls_27.json,885370,1767886,63,Man
13,258888,DepthScenes,duration_manipulation_targetAtFixation,jsons/v1_VE250_randls_27.json,http://54.235.29.9/FacialAge/BNav_EC2/DepthDuration/v2_depth_duration_MTurk/v2_DepthDuration_HTML.html#104,104,1366,768,1366,768,8-20-2022,11-29-23,14,depth_duration_stimuli/002988_2014-06-15_12-24-20_094959634447_rgbf000150-resize_1/002988_2014-06-15_12-24-20_094959634447_rgbf000150-resize_1-target.png,250,4.7669999999999995,6,3370,253,feet,jsons/v1_VE250_randls_27.json,885370,1767886,63,Man
14,258888,DepthScenes,duration_manipulation_targetAtFixation,jsons/v1_VE250_randls_27.json,http://54.235.29.9/FacialAge/BNav_EC2/DepthDuration/v2_depth_duration_MTurk/v2_DepthDuration_HTML.html#104,104,1366,768,1366,768,8-20-2022,11-29-23,15,depth_duration_stimuli/001052_2014-06-08_18-24-54_260595134347_rgbf000130-resize_1/001052_2014-06-08_18-24-54_260595134347_rgbf000130-resize_1-target.png,250,4.1045,5,4128,299,feet,jsons/v1_VE250_randls_27.json,885370,1767886,63,Man
15,258888,DepthScenes,duration_manipulation_targetAtFixation,jsons/v1_VE250_randls_27.json,http://54.235.29.9/FacialAge/BNav_EC2/DepthDuration/v2_depth_duration_MTurk/v2_DepthDuration_HTML.html#104,104,1366,768,1366,768,8-20-2022,11-29-23,16,depth_duration_stimuli/001055_2014-06-08_18-45-35_260595134347_rgbf000111-resize_4/001055_2014-06-08_18-45-35_260595134347_rgbf000111-resize_4-target.png,250,2.4290000000000003,5,2771,201,feet,jsons/v1_VE250_randls_27.json,885370,1767886,63,Man
16,258888,DepthScenes,duration_manipulation_targetAtFixation,jsons/v1_VE250_randls_27.json,http://54.235.29.9/FacialAge/BNav_EC2/DepthDuration/v2_depth_duration_MTurk/v2_DepthDuration_HTML.html#104,104,1366,768,1366,768,8-20-2022,11-29-23,17,depth_duration_stimuli/000549_2014-06-08_22-10-24_260595134347_rgbf000247-resize_3/000549_2014-06-08_22-10-24_260595134347_rgbf000247-resize_3-target.png,250,1.841,1,3855,254,feet,jsons/v1_VE250_randls_27.json,885370,1767886,63,Man
17,258888,DepthScenes,duration_manipulation_targetAtFixation,jsons/v1_VE250_randls_27.json,http://54.235.29.9/FacialAge/BNav_EC2/DepthDuration/v2_depth_duration_MTurk/v2_DepthDuration_HTML.html#104,104,1366,768,1366,768,8-20-2022,11-29-23,18,depth_duration_stimuli/002509_2014-06-24_13-19-22_094959634447_rgbf000077-resize_0/002509_2014-06-24_13-19-22_094959634447_rgbf000077-resize_0-target.png,250,1.3065,2,2818,233,feet,jsons/v1_VE250_randls_27.json,885370,1767886,63,Man
18,258888,DepthScenes,duration_manipulation_targetAtFixation,jsons/v1_VE250_randls_27.json,http://54.235.29.9/FacialAge/BNav_EC2/DepthDuration/v2_depth_duration_MTurk/v2_DepthDuration_HTML.html#104,104,1366,768,1366,768,8-20-2022,11-29-23,19,depth_duration_stimuli/003338_2014-05-20_11-01-23_094959634447_rgbf000051-resize_6/003338_2014-05-20_11-01-23_094959634447_rgbf000051-resize_6-target.png,250,1.693,3,3137,240,feet,jsons/v1_VE250_randls_27.json,885370,1767886,63,Man
19,258888,DepthScenes,duration_manipulation_targetAtFixation,jsons/v1_VE250_randls_27.json,http://54.235.29.9/FacialAge/BNav_EC2/DepthDuration/v2_depth_duration_MTurk/v2_DepthDuration_HTML.html#104,104,1366,768,1366,768,8-20-2022,11-29-23,20,depth_duration_stimuli/003292_2014-05-14_21-53-49_094959634447_rgbf000100-resize_2/003292_2014-05-14_21-53-49_094959634447_rgbf000100-resize_2-target.png,250,3.4815,3,3711,257,feet,jsons/v1_VE250_randls_27.json,885370,1767886,63,Man
20,258888,DepthScenes,duration_manipulation_targetAtFixation,jsons/v1_VE250_randls_27.json,http://54.235.29.9/FacialAge/BNav_EC2/DepthDuration/v2_depth_duration_MTurk/v2_DepthDuration_HTML.html#104,104,1366,768,1366,768,8-20-2022,11-29-23,21,depth_duration_stimuli/002639_2014-06-24_14-51-37_094959634447_rgbf000074-resize_4/002639_2014-06-24_14-51-37_094959634447_rgbf000074-resize_4-target.png,250,4.0375,6,3318,233,feet,jsons/v1_VE250_randls_27.json,885370,1767886,63,Man
21,258888,DepthScenes,duration_manipulation_targetAtFixation,jsons/v1_VE250_randls_27.json,http://54.235.29.9/FacialAge/BNav_EC2/DepthDuration/v2_depth_duration_MTurk/v2_DepthDuration_HTML.html#104,104,1366,768,1366,768,8-20-2022,11-29-23,22,depth_duration_stimuli/002964_2014-06-08_17-46-11_094959634447_rgbf000091-resize_4/002964_2014-06-08_17-46-11_094959634447_rgbf000091-resize_4-target.png,250,1.6909999999999998,2,2795,251,feet,jsons/v1_VE250_randls_27.json,885370,1767886,63,Man
22,258888,DepthScenes,duration_manipulation_targetAtFixation,jsons/v1_VE250_randls_27.json,http://54.235.29.9/FacialAge/BNav_EC2/DepthDuration/v2_depth_duration_MTurk/v2_DepthDuration_HTML.html#104,104,1366,768,1366,768,8-20-2022,11-29-23,23,depth_duration_stimuli/002136_2014-06-25_21-18-03_260595134347_rgbf000109-resize_3/002136_2014-06-25_21-18-03_260595134347_rgbf000109-resize_3-target.png,250,1.9569999999999999,2,2818,245,feet,jsons/v1_VE250_randls_27.json,885370,1767886,63,Man
23,258888,DepthScenes,duration_manipulation_targetAtFixation,jsons/v1_VE250_randls_27.json,http://54.235.29.9/FacialAge/BNav_EC2/DepthDuration/v2_depth_duration_MTurk/v2_DepthDuration_HTML.html#104,104,1366,768,1366,768,8-20-2022,11-29-23,24,depth_duration_stimuli/001808_2014-06-26_20-50-58_260595134347_rgbf000029-resize_1/001808_2014-06-26_20-50-58_260595134347_rgbf000029-resize_1-target.png,250,4.249,6,3758,249,feet,jsons/v1_VE250_randls_27.json,885370,1767886,63,Man
24,258888,DepthScenes,duration_manipulation_targetAtFixation,jsons/v1_VE250_randls_27.json,http://54.235.29.9/FacialAge/BNav_EC2/DepthDuration/v2_depth_duration_MTurk/v2_DepthDuration_HTML.html#104,104,1366,768,1366,768,8-20-2022,11-29-23,25,depth_duration_stimuli/001815_2014-06-26_20-52-55_260595134347_rgbf000020-resize_0/001815_2014-06-26_20-52-55_260595134347_rgbf000020-resize_0-target.png,250,3.3865,7,3232,233,feet,jsons/v1_VE250_randls_27.json,885370,1767886,63,Man
25,258888,DepthScenes,duration_manipulation_targetAtFixation,jsons/v1_VE250_randls_27.json,http://54.235.29.9/FacialAge/BNav_EC2/DepthDuration/v2_depth_duration_MTurk/v2_DepthDuration_HTML.html#104,104,1366,768,1366,768,8-20-2022,11-29-23,26,depth_duration_stimuli/001059_2014-06-08_21-53-27_260595134347_rgbf000061-resize_4/001059_2014-06-08_21-53-27_260595134347_rgbf000061-resize_4-target.png,250,2.4185,4,3212,260,feet,jsons/v1_VE250_randls_27.json,885370,1767886,63,Man
26,258888,DepthScenes,duration_manipulation_targetAtFixation,jsons/v1_VE250_randls_27.json,http://54.235.29.9/FacialAge/BNav_EC2/DepthDuration/v2_depth_duration_MTurk/v2_DepthDuration_HTML.html#104,104,1366,768,1366,768,8-20-2022,11-29-23,27,depth_duration_stimuli/001032_2014-06-08_13-23-17_260595134347_rgbf000021-resize_3/001032_2014-06-08_13-23-17_260595134347_rgbf000021-resize_3-target.png,250,3.2725,3,3033,249,feet,jsons/v1_VE250_randls_27.json,885370,1767886,63,Man
27,258888,DepthScenes,duration_manipulation_targetAtFixation,jsons/v1_VE250_randls_27.json,http://54.235.29.9/FacialAge/BNav_EC2/DepthDuration/v2_depth_duration_MTurk/v2_DepthDuration_HTML.html#104,104,1366,768,1366,768,8-20-2022,11-29-23,28,depth_duration_stimuli/000906_2014-06-08_13-35-43_260595134347_rgbf000155-resize_1/000906_2014-06-08_13-35-43_260595134347_rgbf000155-resize_1-target.png,250,2.8489999999999998,4,2819,259,feet,jsons/v1_VE250_randls_27.json,885370,1767886,63,Man
28,258888,DepthScenes,duration_manipulation_targetAtFixation,jsons/v1_VE250_randls_27.json,http://54.235.29.9/FacialAge/BNav_EC2/DepthDuration/v2_depth_duration_MTurk/v2_DepthDuration_HTML.html#104,104,1366,768,1366,768,8-20-2022,11-29-23,29,depth_duration_stimuli/002805_2014-06-22_19-54-03_094959634447_rgbf000079-resize_1/002805_2014-06-22_19-54-03_094959634447_rgbf000079-resize_1-target.png,250,3.1439999999999997,5,3242,249,feet,jsons/v1_VE250_randls_27.json,885370,1767886,63,Man
29,258888,DepthScenes,duration_manipulation_targetAtFixation,jsons/v1_VE250_randls_27.json,http://54.235.29.9/FacialAge/BNav_EC2/DepthDuration/v2_depth_duration_MTurk/v2_DepthDuration_HTML.html#104,104,1366,768,1366,768,8-20-2022,11-29-23,30,depth_duration_stimuli/000375_2014-06-08_11-17-29_260595134347_rgbf000133-resize_2/000375_2014-06-08_11-17-29_260595134347_rgbf000133-resize-original.jpg,250,4.718,0,4305,248,feet,jsons/v1_VE250_randls_27.json,885370,1767886,63,Man
30,258888,DepthScenes,duration_manipulation_targetAtFixation,jsons/v1_VE250_randls_27.json,http://54.235.29.9/FacialAge/BNav_EC2/DepthDuration/v2_depth_duration_MTurk/v2_DepthDuration_HTML.html#104,104,1366,768,1366,768,8-20-2022,11-29-23,31,depth_duration_stimuli/002213_2014-06-28_18-37-58_260595134347_rgbf000055-resize_1/002213_2014-06-28_18-37-58_260595134347_rgbf000055-resize_1-target.png,250,3.62,5,3465,251,feet,jsons/v1_VE250_randls_27.json,885370,1767886,63,Man
31,258888,DepthScenes,duration_manipulation_targetAtFixation,jsons/v1_VE250_randls_27.json,http://54.235.29.9/FacialAge/BNav_EC2/DepthDuration/v2_depth_duration_MTurk/v2_DepthDuration_HTML.html#104,104,1366,768,1366,768,8-20-2022,11-29-23,32,depth_duration_stimuli/000691_2014-06-08_13-08-50_260595134347_rgbf000132-resize_3/000691_2014-06-08_13-08-50_260595134347_rgbf000132-resize_3-target.png,250,4.1530000000000005,2,2602,251,feet,jsons/v1_VE250_randls_27.json,885370,1767886,63,Man
32,258888,DepthScenes,duration_manipulation_targetAtFixation,jsons/v1_VE250_randls_27.json,http://54.235.29.9/FacialAge/BNav_EC2/DepthDuration/v2_depth_duration_MTurk/v2_DepthDuration_HTML.html#104,104,1366,768,1366,768,8-20-2022,11-29-23,33,depth_duration_stimuli/000682_2014-06-08_23-14-58_260595134347_rgbf000041-resize_5/000682_2014-06-08_23-14-58_260595134347_rgbf000041-resize_5-target.png,250,2.7239999999999998,3,2985,253,feet,jsons/v1_VE250_randls_27.json,885370,1767886,63,Man
33,258888,DepthScenes,duration_manipulation_targetAtFixation,jsons/v1_VE250_randls_27.json,http://54.235.29.9/FacialAge/BNav_EC2/DepthDuration/v2_depth_duration_MTurk/v2_DepthDuration_HTML.html#104,104,1366,768,1366,768,8-20-2022,11-29-23,34,depth_duration_stimuli/001650_2014-06-20_12-09-00_260595134347_rgbf000087-resize_3/001650_2014-06-20_12-09-00_260595134347_rgbf000087-resize_3-target.png,250,1.9505,2,3009,253,feet,jsons/v1_VE250_randls_27.json,885370,1767886,63,Man
34,258888,DepthScenes,duration_manipulation_targetAtFixation,jsons/v1_VE250_randls_27.json,http://54.235.29.9/FacialAge/BNav_EC2/DepthDuration/v2_depth_duration_MTurk/v2_DepthDuration_HTML.html#104,104,1366,768,1366,768,8-20-2022,11-29-23,35,depth_duration_stimuli/000773_2014-06-08_22-24-54_260595134347_rgbf000093-resize_1/000773_2014-06-08_22-24-54_260595134347_rgbf000093-resize_1-target.png,250,4.973,5,3095,274,feet,jsons/v1_VE250_randls_27.json,885370,1767886,63,Man
35,258888,DepthScenes,duration_manipulation_targetAtFixation,jsons/v1_VE250_randls_27.json,http://54.235.29.9/FacialAge/BNav_EC2/DepthDuration/v2_depth_duration_MTurk/v2_DepthDuration_HTML.html#104,104,1366,768,1366,768,8-20-2022,11-29-23,36,depth_duration_stimuli/002414_2014-06-28_20-24-58_260595134347_rgbf000067-resize_4/002414_2014-06-28_20-24-58_260595134347_rgbf000067-resize_4-target.png,250,4.363,5,3069,263,feet,jsons/v1_VE250_randls_27.json,885370,1767886,63,Man
36,258888,DepthScenes,duration_manipulation_targetAtFixation,jsons/v1_VE250_randls_27.json,http://54.235.29.9/FacialAge/BNav_EC2/DepthDuration/v2_depth_duration_MTurk/v2_DepthDuration_HTML.html#104,104,1366,768,1366,768,8-20-2022,11-29-23,37,depth_duration_stimuli/002375_2014-06-28_20-13-44_260595134347_rgbf000032-resize_1/002375_2014-06-28_20-13-44_260595134347_rgbf000032-resize_1-target.png,250,4.0175,5,2953,246,feet,jsons/v1_VE250_randls_27.json,885370,1767886,63,Man
37,258888,DepthScenes,duration_manipulation_targetAtFixation,jsons/v1_VE250_randls_27.json,http://54.235.29.9/FacialAge/BNav_EC2/DepthDuration/v2_depth_duration_MTurk/v2_DepthDuration_HTML.html#104,104,1366,768,1366,768,8-20-2022,11-29-23,38,depth_duration_stimuli/002657_2014-06-13_15-29-54_094959634447_rgbf000150-resize_1/002657_2014-06-13_15-29-54_094959634447_rgbf000150-resize_1-target.png,250,4.919,4,3249,259,feet,jsons/v1_VE250_randls_27.json,885370,1767886,63,Man
38,258888,DepthScenes,duration_manipulation_targetAtFixation,jsons/v1_VE250_randls_27.json,http://54.235.29.9/FacialAge/BNav_EC2/DepthDuration/v2_depth_duration_MTurk/v2_DepthDuration_HTML.html#104,104,1366,768,1366,768,8-20-2022,11-29-23,39,depth_duration_stimuli/002118_2014-06-25_20-32-08_260595134347_rgbf000078-resize_1/002118_2014-06-25_20-32-08_260595134347_rgbf000078-resize_1-target.png,250,2.6460000000000004,3,3114,256,feet,jsons/v1_VE250_randls_27.json,885370,1767886,63,Man
39,258888,DepthScenes,duration_manipulation_targetAtFixation,jsons/v1_VE250_randls_27.json,http://54.235.29.9/FacialAge/BNav_EC2/DepthDuration/v2_depth_duration_MTurk/v2_DepthDuration_HTML.html#104,104,1366,768,1366,768,8-20-2022,11-29-23,40,depth_duration_stimuli/001516_2014-06-20_16-25-09_260595134347_rgbf000076-resize_2/001516_2014-06-20_16-25-09_260595134347_rgbf000076-resize_2-target.png,250,1.7445,2,2976,247,feet,jsons/v1_VE250_randls_27.json,885370,1767886,63,Man
40,258888,DepthScenes,duration_manipulation_targetAtFixation,jsons/v1_VE250_randls_27.json,http://54.235.29.9/FacialAge/BNav_EC2/DepthDuration/v2_depth_duration_MTurk/v2_DepthDuration_HTML.html#104,104,1366,768,1366,768,8-20-2022,11-29-23,41,depth_duration_stimuli/000522_2014-06-08_13-35-06_260595134347_rgbf000244-resize_1/000522_2014-06-08_13-35-06_260595134347_rgbf000244-resize_1-target.png,250,2.3715,1,2996,262,feet,jsons/v1_VE250_randls_27.json,885370,1767886,63,Man
41,258888,DepthScenes,duration_manipulation_targetAtFixation,jsons/v1_VE250_randls_27.json,http://54.235.29.9/FacialAge/BNav_EC2/DepthDuration/v2_depth_duration_MTurk/v2_DepthDuration_HTML.html#104,104,1366,768,1366,768,8-20-2022,11-29-23,42,depth_duration_stimuli/002949_2014-06-26_15-57-42_094959634447_rgbf000079-resize_1/002949_2014-06-26_15-57-42_094959634447_rgbf000079-resize_1-target.png,250,1.8915,2,4227,263,feet,jsons/v1_VE250_randls_27.json,885370,1767886,63,Man
42,258888,DepthScenes,duration_manipulation_targetAtFixation,jsons/v1_VE250_randls_27.json,http://54.235.29.9/FacialAge/BNav_EC2/DepthDuration/v2_depth_duration_MTurk/v2_DepthDuration_HTML.html#104,104,1366,768,1366,768,8-20-2022,11-29-23,43,depth_duration_stimuli/002057_2014-06-24_21-00-13_260595134347_rgbf000120-resize_1/002057_2014-06-24_21-00-13_260595134347_rgbf000120-resize_1-target.png,250,2.967,6,3113,259,feet,jsons/v1_VE250_randls_27.json,885370,1767886,63,Man
43,258888,DepthScenes,duration_manipulation_targetAtFixation,jsons/v1_VE250_randls_27.json,http://54.235.29.9/FacialAge/BNav_EC2/DepthDuration/v2_depth_duration_MTurk/v2_DepthDuration_HTML.html#104,104,1366,768,1366,768,8-20-2022,11-29-23,44,depth_duration_stimuli/000709_2014-06-08_13-51-55_260595134347_rgbf000068-resize_3/000709_2014-06-08_13-51-55_260595134347_rgbf000068-resize_3-target.png,250,1.8030000000000002,4,2614,252,feet,jsons/v1_VE250_randls_27.json,885370,1767886,63,Man
44,258888,DepthScenes,duration_manipulation_targetAtFixation,jsons/v1_VE250_randls_27.json,http://54.235.29.9/FacialAge/BNav_EC2/DepthDuration/v2_depth_duration_MTurk/v2_DepthDuration_HTML.html#104,104,1366,768,1366,768,8-20-2022,11-29-23,45,depth_duration_stimuli/000787_2014-06-08_22-33-53_260595134347_rgbf000175-resize_1/000787_2014-06-08_22-33-53_260595134347_rgbf000175-resize-original.jpg,250,4.784,0,3782,260,feet,jsons/v1_VE250_randls_27.json,885370,1767886,63,Man
45,258888,DepthScenes,duration_manipulation_targetAtFixation,jsons/v1_VE250_randls_27.json,http://54.235.29.9/FacialAge/BNav_EC2/DepthDuration/v2_depth_duration_MTurk/v2_DepthDuration_HTML.html#104,104,1366,768,1366,768,8-20-2022,11-29-23,46,depth_duration_stimuli/002039_2014-06-24_20-22-38_260595134347_rgbf000084-resize_1/002039_2014-06-24_20-22-38_260595134347_rgbf000084-resize_1-target.png,250,4.408,4,2985,252,feet,jsons/v1_VE250_randls_27.json,885370,1767886,63,Man
46,258888,DepthScenes,duration_manipulation_targetAtFixation,jsons/v1_VE250_randls_27.json,http://54.235.29.9/FacialAge/BNav_EC2/DepthDuration/v2_depth_duration_MTurk/v2_DepthDuration_HTML.html#104,104,1366,768,1366,768,8-20-2022,11-29-23,47,depth_duration_stimuli/002103_2014-06-25_20-00-40_260595134347_rgbf000049-resize_0/002103_2014-06-25_20-00-40_260595134347_rgbf000049-resize_0-target.png,250,4.105,4,12785,287,feet,jsons/v1_VE250_randls_27.json,885370,1767886,63,Man
47,258888,DepthScenes,duration_manipulation_targetAtFixation,jsons/v1_VE250_randls_27.json,http://54.235.29.9/FacialAge/BNav_EC2/DepthDuration/v2_depth_duration_MTurk/v2_DepthDuration_HTML.html#104,104,1366,768,1366,768,8-20-2022,11-29-23,48,depth_duration_stimuli/002043_2014-06-24_20-29-38_260595134347_rgbf000039-resize_4/002043_2014-06-24_20-29-38_260595134347_rgbf000039-resize_4-target.png,250,2.8435,3,3006,236,feet,jsons/v1_VE250_randls_27.json,885370,1767886,63,Man
48,258888,DepthScenes,duration_manipulation_targetAtFixation,jsons/v1_VE250_randls_27.json,http://54.235.29.9/FacialAge/BNav_EC2/DepthDuration/v2_depth_duration_MTurk/v2_DepthDuration_HTML.html#104,104,1366,768,1366,768,8-20-2022,11-29-23,49,depth_duration_stimuli/003048_2014-06-15_13-49-43_094959634447_rgbf000150-resize_1/003048_2014-06-15_13-49-43_094959634447_rgbf000150-resize_1-target.png,250,4.0035,4,3799,249,feet,jsons/v1_VE250_randls_27.json,885370,1767886,63,Man
49,258888,DepthScenes,duration_manipulation_targetAtFixation,jsons/v1_VE250_randls_27.json,http://54.235.29.9/FacialAge/BNav_EC2/DepthDuration/v2_depth_duration_MTurk/v2_DepthDuration_HTML.html#104,104,1366,768,1366,768,8-20-2022,11-29-23,50,depth_duration_stimuli/002600_2014-06-24_14-27-04_094959634447_rgbf000074-resize_2/002600_2014-06-24_14-27-04_094959634447_rgbf000074-resize_2-target.png,250,2.7575,2,3132,233,feet,jsons/v1_VE250_randls_27.json,885370,1767886,63,Man
50,258888,DepthScenes,duration_manipulation_targetAtFixation,jsons/v1_VE250_randls_27.json,http://54.235.29.9/FacialAge/BNav_EC2/DepthDuration/v2_depth_duration_MTurk/v2_DepthDuration_HTML.html#104,104,1366,768,1366,768,8-20-2022,11-29-23,51,depth_duration_stimuli/003228_2014-05-14_13-42-35_094959634447_rgbf000101-resize_1/003228_2014-05-14_13-42-35_094959634447_rgbf000101-resize_1-target.png,250,1.9680000000000002,2,4102,249,feet,jsons/v1_VE250_randls_27.json,885370,1767886,63,Man
51,258888,DepthScenes,duration_manipulation_targetAtFixation,jsons/v1_VE250_randls_27.json,http://54.235.29.9/FacialAge/BNav_EC2/DepthDuration/v2_depth_duration_MTurk/v2_DepthDuration_HTML.html#104,104,1366,768,1366,768,8-20-2022,11-29-23,52,depth_duration_stimuli/002784_2014-06-22_19-26-30_094959634447_rgbf000083-resize_3/002784_2014-06-22_19-26-30_094959634447_rgbf000083-resize_3-target.png,250,1.8046666666667,2,5164,250,feet,jsons/v1_VE250_randls_27.json,885370,1767886,63,Man
52,258888,DepthScenes,duration_manipulation_targetAtFixation,jsons/v1_VE250_randls_27.json,http://54.235.29.9/FacialAge/BNav_EC2/DepthDuration/v2_depth_duration_MTurk/v2_DepthDuration_HTML.html#104,104,1366,768,1366,768,8-20-2022,11-29-23,53,depth_duration_stimuli/001100_2014-06-15_17-46-26_260595134347_rgbf000225-resize_2/001100_2014-06-15_17-46-26_260595134347_rgbf000225-resize_2-target.png,250,2.24,2,2669,243,feet,jsons/v1_VE250_randls_27.json,885370,1767886,63,Man
53,258888,DepthScenes,duration_manipulation_targetAtFixation,jsons/v1_VE250_randls_27.json,http://54.235.29.9/FacialAge/BNav_EC2/DepthDuration/v2_depth_duration_MTurk/v2_DepthDuration_HTML.html#104,104,1366,768,1366,768,8-20-2022,11-29-23,54,depth_duration_stimuli/001029_2014-06-08_13-17-57_260595134347_rgbf000065-resize_1/001029_2014-06-08_13-17-57_260595134347_rgbf000065-resize_1-target.png,250,3.0835,4,3108,261,feet,jsons/v1_VE250_randls_27.json,885370,1767886,63,Man
54,258888,DepthScenes,duration_manipulation_targetAtFixation,jsons/v1_VE250_randls_27.json,http://54.235.29.9/FacialAge/BNav_EC2/DepthDuration/v2_depth_duration_MTurk/v2_DepthDuration_HTML.html#104,104,1366,768,1366,768,8-20-2022,11-29-23,55,depth_duration_stimuli/000677_2014-06-08_23-10-32_260595134347_rgbf000158-resize_6/000677_2014-06-08_23-10-32_260595134347_rgbf000158-resize_6-target.png,250,3.556,3,3055,239,feet,jsons/v1_VE250_randls_27.json,885370,1767886,63,Man
55,258888,DepthScenes,duration_manipulation_targetAtFixation,jsons/v1_VE250_randls_27.json,http://54.235.29.9/FacialAge/BNav_EC2/DepthDuration/v2_depth_duration_MTurk/v2_DepthDuration_HTML.html#104,104,1366,768,1366,768,8-20-2022,11-29-23,56,depth_duration_stimuli/000878_2014-06-08_22-52-45_260595134347_rgbf000045-resize_2/000878_2014-06-08_22-52-45_260595134347_rgbf000045-resize_2-target.png,250,2.092,5,2951,249,feet,jsons/v1_VE250_randls_27.json,885370,1767886,63,Man
56,258888,DepthScenes,duration_manipulation_targetAtFixation,jsons/v1_VE250_randls_27.json,http://54.235.29.9/FacialAge/BNav_EC2/DepthDuration/v2_depth_duration_MTurk/v2_DepthDuration_HTML.html#104,104,1366,768,1366,768,8-20-2022,11-29-23,57,depth_duration_stimuli/002953_2014-06-08_17-32-18_094959634447_rgbf000059-resize_5/002953_2014-06-08_17-32-18_094959634447_rgbf000059-resize_5-target.png,250,1.551,5,3473,275,feet,jsons/v1_VE250_randls_27.json,885370,1767886,63,Man
57,258888,DepthScenes,duration_manipulation_targetAtFixation,jsons/v1_VE250_randls_27.json,http://54.235.29.9/FacialAge/BNav_EC2/DepthDuration/v2_depth_duration_MTurk/v2_DepthDuration_HTML.html#104,104,1366,768,1366,768,8-20-2022,11-29-23,58,depth_duration_stimuli/000470_2014-06-09_19-42-40_260595134347_rgbf000094-resize_1/000470_2014-06-09_19-42-40_260595134347_rgbf000094-resize_1-target.png,250,1.831,3,4376,269,feet,jsons/v1_VE250_randls_27.json,885370,1767886,63,Man
58,258888,DepthScenes,duration_manipulation_targetAtFixation,jsons/v1_VE250_randls_27.json,http://54.235.29.9/FacialAge/BNav_EC2/DepthDuration/v2_depth_duration_MTurk/v2_DepthDuration_HTML.html#104,104,1366,768,1366,768,8-20-2022,11-29-23,59,depth_duration_stimuli/000109_2014-05-14_23-41-52_260595134347_rgbf000035-resize_9/000109_2014-05-14_23-41-52_260595134347_rgbf000035-resize_9-target.png,250,1.3545,0,3633,257,feet,jsons/v1_VE250_randls_27.json,885370,1767886,63,Man
59,258888,DepthScenes,duration_manipulation_targetAtFixation,jsons/v1_VE250_randls_27.json,http://54.235.29.9/FacialAge/BNav_EC2/DepthDuration/v2_depth_duration_MTurk/v2_DepthDuration_HTML.html#104,104,1366,768,1366,768,8-20-2022,11-29-23,60,depth_duration_stimuli/001150_2014-06-17_15-27-34_260595134347_rgbf000108-resize_2/001150_2014-06-17_15-27-34_260595134347_rgbf000108-resize_2-target.png,250,4.0325,0,6202,269,feet,jsons/v1_VE250_randls_27.json,885370,1767886,63,Man
60,258888,DepthScenes,duration_manipulation_targetAtFixation,jsons/v1_VE250_randls_27.json,http://54.235.29.9/FacialAge/BNav_EC2/DepthDuration/v2_depth_duration_MTurk/v2_DepthDuration_HTML.html#104,104,1366,768,1366,768,8-20-2022,11-29-23,61,depth_duration_stimuli/000665_2014-06-09_20-42-35_260595134347_rgbf000110-resize_1/000665_2014-06-09_20-42-35_260595134347_rgbf000110-resize_1-target.png,250,3.057,3,4562,247,feet,jsons/v1_VE250_randls_27.json,885370,1767886,63,Man
61,258888,DepthScenes,duration_manipulation_targetAtFixation,jsons/v1_VE250_randls_27.json,http://54.235.29.9/FacialAge/BNav_EC2/DepthDuration/v2_depth_duration_MTurk/v2_DepthDuration_HTML.html#104,104,1366,768,1366,768,8-20-2022,11-29-23,62,depth_duration_stimuli/002272_2014-06-28_18-53-56_260595134347_rgbf000067-resize_2/002272_2014-06-28_18-53-56_260595134347_rgbf000067-resize_2-target.png,250,1.138,2,2873,256,feet,jsons/v1_VE250_randls_27.json,885370,1767886,63,Man
62,258888,DepthScenes,duration_manipulation_targetAtFixation,jsons/v1_VE250_randls_27.json,http://54.235.29.9/FacialAge/BNav_EC2/DepthDuration/v2_depth_duration_MTurk/v2_DepthDuration_HTML.html#104,104,1366,768,1366,768,8-20-2022,11-29-23,63,depth_duration_stimuli/001571_2014-06-20_17-21-32_260595134347_rgbf000089-resize_1/001571_2014-06-20_17-21-32_260595134347_rgbf000089-resize_1-target.png,250,1.86,3,2971,234,feet,jsons/v1_VE250_randls_27.json,885370,1767886,63,Man
63,258888,DepthScenes,duration_manipulation_targetAtFixation,jsons/v1_VE250_randls_27.json,http://54.235.29.9/FacialAge/BNav_EC2/DepthDuration/v2_depth_duration_MTurk/v2_DepthDuration_HTML.html#104,104,1366,768,1366,768,8-20-2022,11-29-23,64,depth_duration_stimuli/001167_2014-06-17_15-38-07_260595134347_rgbf000108-resize_0/001167_2014-06-17_15-38-07_260595134347_rgbf000108-resize_0-target.png,250,1.8505,2,3372,250,feet,jsons/v1_VE250_randls_27.json,885370,1767886,63,Man
64,258888,DepthScenes,duration_manipulation_targetAtFixation,jsons/v1_VE250_randls_27.json,http://54.235.29.9/FacialAge/BNav_EC2/DepthDuration/v2_depth_duration_MTurk/v2_DepthDuration_HTML.html#104,104,1366,768,1366,768,8-20-2022,11-29-23,65,depth_duration_stimuli/003587_2014-05-23_16-48-02_094959634447_rgbf002384-resize_2/003587_2014-05-23_16-48-02_094959634447_rgbf002384-resize_2-target.png,250,1.357,1,3435,245,feet,jsons/v1_VE250_randls_27.json,885370,1767886,63,Man
65,258888,DepthScenes,duration_manipulation_targetAtFixation,jsons/v1_VE250_randls_27.json,http://54.235.29.9/FacialAge/BNav_EC2/DepthDuration/v2_depth_duration_MTurk/v2_DepthDuration_HTML.html#104,104,1366,768,1366,768,8-20-2022,11-29-23,66,depth_duration_stimuli/001222_2014-06-17_16-24-06_260595134347_rgbf000073-resize_0/001222_2014-06-17_16-24-06_260595134347_rgbf000073-resize-original.jpg,250,1.4385,2,3482,281,feet,jsons/v1_VE250_randls_27.json,885370,1767886,63,Man
66,258888,DepthScenes,duration_manipulation_targetAtFixation,jsons/v1_VE250_randls_27.json,http://54.235.29.9/FacialAge/BNav_EC2/DepthDuration/v2_depth_duration_MTurk/v2_DepthDuration_HTML.html#104,104,1366,768,1366,768,8-20-2022,11-29-23,67,depth_duration_stimuli/001110_2014-06-15_17-25-28_260595134347_rgbf000150-resize_1/001110_2014-06-15_17-25-28_260595134347_rgbf000150-resize_1-target.png,250,1.7115,3,2882,282,feet,jsons/v1_VE250_randls_27.json,885370,1767886,63,Man
67,258888,DepthScenes,duration_manipulation_targetAtFixation,jsons/v1_VE250_randls_27.json,http://54.235.29.9/FacialAge/BNav_EC2/DepthDuration/v2_depth_duration_MTurk/v2_DepthDuration_HTML.html#104,104,1366,768,1366,768,8-20-2022,11-29-23,68,depth_duration_stimuli/000927_2014-06-09_16-32-30_260595134347_rgbf000123-resize_3/000927_2014-06-09_16-32-30_260595134347_rgbf000123-resize_3-target.png,250,2.6785,6,3313,263,feet,jsons/v1_VE250_randls_27.json,885370,1767886,63,Man
68,258888,DepthScenes,duration_manipulation_targetAtFixation,jsons/v1_VE250_randls_27.json,http://54.235.29.9/FacialAge/BNav_EC2/DepthDuration/v2_depth_duration_MTurk/v2_DepthDuration_HTML.html#104,104,1366,768,1366,768,8-20-2022,11-29-23,69,depth_duration_stimuli/000788_2014-06-08_22-34-36_260595134347_rgbf000131-resize_1/000788_2014-06-08_22-34-36_260595134347_rgbf000131-resize_1-target.png,250,3.359,2,16962,243,feet,jsons/v1_VE250_randls_27.json,885370,1767886,63,Man
69,258888,DepthScenes,duration_manipulation_targetAtFixation,jsons/v1_VE250_randls_27.json,http://54.235.29.9/FacialAge/BNav_EC2/DepthDuration/v2_depth_duration_MTurk/v2_DepthDuration_HTML.html#104,104,1366,768,1366,768,8-20-2022,11-29-23,70,depth_duration_stimuli/001235_2014-06-17_16-37-36_260595134347_rgbf000084-resize_4/001235_2014-06-17_16-37-36_260595134347_rgbf000084-resize_4-target.png,250,3.6605,4,2674,260,feet,jsons/v1_VE250_randls_27.json,885370,1767886,63,Man
70,258888,DepthScenes,duration_manipulation_targetAtFixation,jsons/v1_VE250_randls_27.json,http://54.235.29.9/FacialAge/BNav_EC2/DepthDuration/v2_depth_duration_MTurk/v2_DepthDuration_HTML.html#104,104,1366,768,1366,768,8-20-2022,11-29-23,71,depth_duration_stimuli/000929_2014-06-09_16-33-19_260595134347_rgbf000139-resize_0/000929_2014-06-09_16-33-19_260595134347_rgbf000139-resize_0-target.png,250,2.8680000000000003,2,2854,206,feet,jsons/v1_VE250_randls_27.json,885370,1767886,63,Man
71,258888,DepthScenes,duration_manipulation_targetAtFixation,jsons/v1_VE250_randls_27.json,http://54.235.29.9/FacialAge/BNav_EC2/DepthDuration/v2_depth_duration_MTurk/v2_DepthDuration_HTML.html#104,104,1366,768,1366,768,8-20-2022,11-29-23,72,depth_duration_stimuli/000457_2014-06-08_16-52-43_260595134347_rgbf000199-resize_1/000457_2014-06-08_16-52-43_260595134347_rgbf000199-resize_1-target.png,250,3.6489999999999996,2,2964,251,feet,jsons/v1_VE250_randls_27.json,885370,1767886,63,Man
72,258888,DepthScenes,duration_manipulation_targetAtFixation,jsons/v1_VE250_randls_27.json,http://54.235.29.9/FacialAge/BNav_EC2/DepthDuration/v2_depth_duration_MTurk/v2_DepthDuration_HTML.html#104,104,1366,768,1366,768,8-20-2022,11-29-23,73,depth_duration_stimuli/001449_2014-06-19_17-01-27_260595134347_rgbf000116-resize_2/001449_2014-06-19_17-01-27_260595134347_rgbf000116-resize_2-target.png,250,3.452,4,6517,235,feet,jsons/v1_VE250_randls_27.json,885370,1767886,63,Man
73,258888,DepthScenes,duration_manipulation_targetAtFixation,jsons/v1_VE250_randls_27.json,http://54.235.29.9/FacialAge/BNav_EC2/DepthDuration/v2_depth_duration_MTurk/v2_DepthDuration_HTML.html#104,104,1366,768,1366,768,8-20-2022,11-29-23,74,depth_duration_stimuli/001450_2014-06-19_17-02-03_260595134347_rgbf000203-resize_4/001450_2014-06-19_17-02-03_260595134347_rgbf000203-resize_4-target.png,250,4.0106666666667,2,2790,251,feet,jsons/v1_VE250_randls_27.json,885370,1767886,63,Man
74,258888,DepthScenes,duration_manipulation_targetAtFixation,jsons/v1_VE250_randls_27.json,http://54.235.29.9/FacialAge/BNav_EC2/DepthDuration/v2_depth_duration_MTurk/v2_DepthDuration_HTML.html#104,104,1366,768,1366,768,8-20-2022,11-29-23,75,depth_duration_stimuli/002725_2014-06-22_11-47-51_094959634447_rgbf000070-resize_1/002725_2014-06-22_11-47-51_094959634447_rgbf000070-resize_1-target.png,250,2.195,4,3177,263,feet,jsons/v1_VE250_randls_27.json,885370,1767886,63,Man
75,258888,DepthScenes,duration_manipulation_targetAtFixation,jsons/v1_VE250_randls_27.json,http://54.235.29.9/FacialAge/BNav_EC2/DepthDuration/v2_depth_duration_MTurk/v2_DepthDuration_HTML.html#104,104,1366,768,1366,768,8-20-2022,11-29-23,76,depth_duration_stimuli/002344_2014-06-28_20-06-29_260595134347_rgbf000030-resize_1/002344_2014-06-28_20-06-29_260595134347_rgbf000030-resize_1-target.png,250,1.5795,1,5514,253,feet,jsons/v1_VE250_randls_27.json,885370,1767886,63,Man
76,258888,DepthScenes,duration_manipulation_targetAtFixation,jsons/v1_VE250_randls_27.json,http://54.235.29.9/FacialAge/BNav_EC2/DepthDuration/v2_depth_duration_MTurk/v2_DepthDuration_HTML.html#104,104,1366,768,1366,768,8-20-2022,11-29-23,77,depth_duration_stimuli/001092_2014-06-15_17-34-58_260595134347_rgbf000171-resize_3/001092_2014-06-15_17-34-58_260595134347_rgbf000171-resize_3-target.png,250,2.6935,2,2576,248,feet,jsons/v1_VE250_randls_27.json,885370,1767886,63,Man
77,258888,DepthScenes,duration_manipulation_targetAtFixation,jsons/v1_VE250_randls_27.json,http://54.235.29.9/FacialAge/BNav_EC2/DepthDuration/v2_depth_duration_MTurk/v2_DepthDuration_HTML.html#104,104,1366,768,1366,768,8-20-2022,11-29-23,78,depth_duration_stimuli/002545_2014-06-24_13-38-53_094959634447_rgbf000080-resize_4/002545_2014-06-24_13-38-53_094959634447_rgbf000080-resize_4-target.png,250,1.9205,3,20138,258,feet,jsons/v1_VE250_randls_27.json,885370,1767886,63,Man
78,258888,DepthScenes,duration_manipulation_targetAtFixation,jsons/v1_VE250_randls_27.json,http://54.235.29.9/FacialAge/BNav_EC2/DepthDuration/v2_depth_duration_MTurk/v2_DepthDuration_HTML.html#104,104,1366,768,1366,768,8-20-2022,11-29-23,79,depth_duration_stimuli/000917_2014-06-09_22-45-29_260595134347_rgbf000149-resize_3/000917_2014-06-09_22-45-29_260595134347_rgbf000149-resize_3-target.png,250,4.1865,5,3802,235,feet,jsons/v1_VE250_randls_27.json,885370,1767886,63,Man
79,258888,DepthScenes,duration_manipulation_targetAtFixation,jsons/v1_VE250_randls_27.json,http://54.235.29.9/FacialAge/BNav_EC2/DepthDuration/v2_depth_duration_MTurk/v2_DepthDuration_HTML.html#104,104,1366,768,1366,768,8-20-2022,11-29-23,80,depth_duration_stimuli/002323_2014-06-28_20-01-54_260595134347_rgbf000051-resize_4/002323_2014-06-28_20-01-54_260595134347_rgbf000051-resize_4-target.png,250,3.7310000000000003,3,3350,253,feet,jsons/v1_VE250_randls_27.json,885370,1767886,63,Man
80,258888,DepthScenes,duration_manipulation_targetAtFixation,jsons/v1_VE250_randls_27.json,http://54.235.29.9/FacialAge/BNav_EC2/DepthDuration/v2_depth_duration_MTurk/v2_DepthDuration_HTML.html#104,104,1366,768,1366,768,8-20-2022,11-29-23,81,depth_duration_stimuli/001133_2014-06-17_14-49-16_260595134347_rgbf000100-resize_0/001133_2014-06-17_14-49-16_260595134347_rgbf000100-resize_0-target.png,250,4.2115,2,6426,250,feet,jsons/v1_VE250_randls_27.json,885370,1767886,63,Man
81,258888,DepthScenes,duration_manipulation_targetAtFixation,jsons/v1_VE250_randls_27.json,http://54.235.29.9/FacialAge/BNav_EC2/DepthDuration/v2_depth_duration_MTurk/v2_DepthDuration_HTML.html#104,104,1366,768,1366,768,8-20-2022,11-29-23,82,depth_duration_stimuli/001132_2014-06-17_14-48-54_260595134347_rgbf000100-resize_2/001132_2014-06-17_14-48-54_260595134347_rgbf000100-resize_2-target.png,250,3.753,4,3523,266,feet,jsons/v1_VE250_randls_27.json,885370,1767886,63,Man
82,258888,DepthScenes,duration_manipulation_targetAtFixation,jsons/v1_VE250_randls_27.json,http://54.235.29.9/FacialAge/BNav_EC2/DepthDuration/v2_depth_duration_MTurk/v2_DepthDuration_HTML.html#104,104,1366,768,1366,768,8-20-2022,11-29-23,83,depth_duration_stimuli/001555_2014-06-20_17-12-10_260595134347_rgbf000065-resize_4/001555_2014-06-20_17-12-10_260595134347_rgbf000065-resize_4-target.png,250,1.633,3,4417,252,feet,jsons/v1_VE250_randls_27.json,885370,1767886,63,Man
83,258888,DepthScenes,duration_manipulation_targetAtFixation,jsons/v1_VE250_randls_27.json,http://54.235.29.9/FacialAge/BNav_EC2/DepthDuration/v2_depth_duration_MTurk/v2_DepthDuration_HTML.html#104,104,1366,768,1366,768,8-20-2022,11-29-23,84,depth_duration_stimuli/000103_2014-05-14_22-01-17_260595134347_rgbf000152-resize_5/000103_2014-05-14_22-01-17_260595134347_rgbf000152-resize_5-target.png,250,1.993,2,4049,249,feet,jsons/v1_VE250_randls_27.json,885370,1767886,63,Man
84,258888,DepthScenes,duration_manipulation_targetAtFixation,jsons/v1_VE250_randls_27.json,http://54.235.29.9/FacialAge/BNav_EC2/DepthDuration/v2_depth_duration_MTurk/v2_DepthDuration_HTML.html#104,104,1366,768,1366,768,8-20-2022,11-29-23,85,depth_duration_stimuli/000810_2014-06-08_17-20-01_260595134347_rgbf000105-resize_0/000810_2014-06-08_17-20-01_260595134347_rgbf000105-resize_0-target.png,250,1.4865,1,4293,273,feet,jsons/v1_VE250_randls_27.json,885370,1767886,63,Man
85,258888,DepthScenes,duration_manipulation_targetAtFixation,jsons/v1_VE250_randls_27.json,http://54.235.29.9/FacialAge/BNav_EC2/DepthDuration/v2_depth_duration_MTurk/v2_DepthDuration_HTML.html#104,104,1366,768,1366,768,8-20-2022,11-29-23,86,depth_duration_stimuli/001214_2014-06-17_16-13-55_260595134347_rgbf000111-resize_0/001214_2014-06-17_16-13-55_260595134347_rgbf000111-resize_0-target.png,250,2.6505,3,2858,246,feet,jsons/v1_VE250_randls_27.json,885370,1767886,63,Man
86,258888,DepthScenes,duration_manipulation_targetAtFixation,jsons/v1_VE250_randls_27.json,http://54.235.29.9/FacialAge/BNav_EC2/DepthDuration/v2_depth_duration_MTurk/v2_DepthDuration_HTML.html#104,104,1366,768,1366,768,8-20-2022,11-29-23,87,depth_duration_stimuli/001810_2014-06-26_20-51-35_260595134347_rgbf000040-resize_3/001810_2014-06-26_20-51-35_260595134347_rgbf000040-resize_3-target.png,250,2.2525,2,2408,254,feet,jsons/v1_VE250_randls_27.json,885370,1767886,63,Man
87,258888,DepthScenes,duration_manipulation_targetAtFixation,jsons/v1_VE250_randls_27.json,http://54.235.29.9/FacialAge/BNav_EC2/DepthDuration/v2_depth_duration_MTurk/v2_DepthDuration_HTML.html#104,104,1366,768,1366,768,8-20-2022,11-29-23,88,depth_duration_stimuli/003010_2014-06-15_12-54-35_094959634447_rgbf000112-resize_0/003010_2014-06-15_12-54-35_094959634447_rgbf000112-resize_0-target.png,250,3.1185,6,3203,255,feet,jsons/v1_VE250_randls_27.json,885370,1767886,63,Man
88,258888,DepthScenes,duration_manipulation_targetAtFixation,jsons/v1_VE250_randls_27.json,http://54.235.29.9/FacialAge/BNav_EC2/DepthDuration/v2_depth_duration_MTurk/v2_DepthDuration_HTML.html#104,104,1366,768,1366,768,8-20-2022,11-29-23,89,depth_duration_stimuli/002663_2014-06-13_15-50-26_094959634447_rgbf000075-resize_1/002663_2014-06-13_15-50-26_094959634447_rgbf000075-resize_1-target.png,250,4.7495,4,2967,249,feet,jsons/v1_VE250_randls_27.json,885370,1767886,63,Man
89,258888,DepthScenes,duration_manipulation_targetAtFixation,jsons/v1_VE250_randls_27.json,http://54.235.29.9/FacialAge/BNav_EC2/DepthDuration/v2_depth_duration_MTurk/v2_DepthDuration_HTML.html#104,104,1366,768,1366,768,8-20-2022,11-29-23,90,depth_duration_stimuli/000409_2014-06-04_19-23-33_260595134347_rgbf000067-resize_0/000409_2014-06-04_19-23-33_260595134347_rgbf000067-resize_0-target.png,250,3.7335,0,3820,243,feet,jsons/v1_VE250_randls_27.json,885370,1767886,63,Man
90,258888,DepthScenes,duration_manipulation_targetAtFixation,jsons/v1_VE250_randls_27.json,http://54.235.29.9/FacialAge/BNav_EC2/DepthDuration/v2_depth_duration_MTurk/v2_DepthDuration_HTML.html#104,104,1366,768,1366,768,8-20-2022,11-29-23,91,depth_duration_stimuli/003534_2014-05-22_15-06-10_094959634447_rgbf000102-resize_4/003534_2014-05-22_15-06-10_094959634447_rgbf000102-resize_4-target.png,250,1.426,1,6166,247,feet,jsons/v1_VE250_randls_27.json,885370,1767886,63,Man
91,258888,DepthScenes,duration_manipulation_targetAtFixation,jsons/v1_VE250_randls_27.json,http://54.235.29.9/FacialAge/BNav_EC2/DepthDuration/v2_depth_duration_MTurk/v2_DepthDuration_HTML.html#104,104,1366,768,1366,768,8-20-2022,11-29-23,92,depth_duration_stimuli/002637_2014-06-24_14-51-13_094959634447_rgbf000066-resize_4/002637_2014-06-24_14-51-13_094959634447_rgbf000066-resize_4-target.png,250,1.9955,2,138203,251,feet,jsons/v1_VE250_randls_27.json,885370,1767886,63,Man
92,258888,DepthScenes,duration_manipulation_targetAtFixation,jsons/v1_VE250_randls_27.json,http://54.235.29.9/FacialAge/BNav_EC2/DepthDuration/v2_depth_duration_MTurk/v2_DepthDuration_HTML.html#104,104,1366,768,1366,768,8-20-2022,11-29-23,93,depth_duration_stimuli/002279_2014-06-28_18-55-32_260595134347_rgbf000040-resize_5/002279_2014-06-28_18-55-32_260595134347_rgbf000040-resize_5-target.png,250,1.5043333333333,2,2720,270,feet,jsons/v1_VE250_randls_27.json,885370,1767886,63,Man
93,258888,DepthScenes,duration_manipulation_targetAtFixation,jsons/v1_VE250_randls_27.json,http://54.235.29.9/FacialAge/BNav_EC2/DepthDuration/v2_depth_duration_MTurk/v2_DepthDuration_HTML.html#104,104,1366,768,1366,768,8-20-2022,11-29-23,94,depth_duration_stimuli/000635_2014-06-08_16-38-42_260595134347_rgbf000106-resize_1/000635_2014-06-08_16-38-42_260595134347_rgbf000106-resize_1-target.png,250,2.074,4,2592,248,feet,jsons/v1_VE250_randls_27.json,885370,1767886,63,Man
94,258888,DepthScenes,duration_manipulation_targetAtFixation,jsons/v1_VE250_randls_27.json,http://54.235.29.9/FacialAge/BNav_EC2/DepthDuration/v2_depth_duration_MTurk/v2_DepthDuration_HTML.html#104,104,1366,768,1366,768,8-20-2022,11-29-23,95,depth_duration_stimuli/001158_2014-06-17_15-32-16_260595134347_rgbf000138-resize_2/001158_2014-06-17_15-32-16_260595134347_rgbf000138-resize_2-target.png,250,4.5315,3,2447,254,feet,jsons/v1_VE250_randls_27.json,885370,1767886,63,Man
95,258888,DepthScenes,duration_manipulation_targetAtFixation,jsons/v1_VE250_randls_27.json,http://54.235.29.9/FacialAge/BNav_EC2/DepthDuration/v2_depth_duration_MTurk/v2_DepthDuration_HTML.html#104,104,1366,768,1366,768,8-20-2022,11-29-23,96,depth_duration_stimuli/000556_2014-06-09_22-42-56_260595134347_rgbf000214-resize_1/000556_2014-06-09_22-42-56_260595134347_rgbf000214-resize_1-target.png,250,4.8415,2,3187,243,feet,jsons/v1_VE250_randls_27.json,885370,1767886,63,Man
96,258888,DepthScenes,duration_manipulation_targetAtFixation,jsons/v1_VE250_randls_27.json,http://54.235.29.9/FacialAge/BNav_EC2/DepthDuration/v2_depth_duration_MTurk/v2_DepthDuration_HTML.html#104,104,1366,768,1366,768,8-20-2022,11-29-23,97,depth_duration_stimuli/001806_2014-06-26_20-50-20_260595134347_rgbf000091-resize_1/001806_2014-06-26_20-50-20_260595134347_rgbf000091-resize_1-target.png,250,2.7305,2,2570,250,feet,jsons/v1_VE250_randls_27.json,885370,1767886,63,Man
97,258888,DepthScenes,duration_manipulation_targetAtFixation,jsons/v1_VE250_randls_27.json,http://54.235.29.9/FacialAge/BNav_EC2/DepthDuration/v2_depth_duration_MTurk/v2_DepthDuration_HTML.html#104,104,1366,768,1366,768,8-20-2022,11-29-23,98,depth_duration_stimuli/001617_2014-06-20_11-35-32_260595134347_rgbf000066-resize_1/001617_2014-06-20_11-35-32_260595134347_rgbf000066-resize_1-target.png,250,3.7910000000000004,4,3197,283,feet,jsons/v1_VE250_randls_27.json,885370,1767886,63,Man
98,258888,DepthScenes,duration_manipulation_targetAtFixation,jsons/v1_VE250_randls_27.json,http://54.235.29.9/FacialAge/BNav_EC2/DepthDuration/v2_depth_duration_MTurk/v2_DepthDuration_HTML.html#104,104,1366,768,1366,768,8-20-2022,11-29-23,99,depth_duration_stimuli/001540_2014-06-20_17-01-05_260595134347_rgbf000086-resize_2/001540_2014-06-20_17-01-05_260595134347_rgbf000086-resize-original.jpg,250,1.459,0,3287,262,feet,jsons/v1_VE250_randls_27.json,885370,1767886,63,Man
99,258888,DepthScenes,duration_manipulation_targetAtFixation,jsons/v1_VE250_randls_27.json,http://54.235.29.9/FacialAge/BNav_EC2/DepthDuration/v2_depth_duration_MTurk/v2_DepthDuration_HTML.html#104,104,1366,768,1366,768,8-20-2022,11-29-23,100,depth_duration_stimuli/003621_2014-05-23_18-06-08_094959634447_rgbf000101-resize_1/003621_2014-05-23_18-06-08_094959634447_rgbf000101-resize_1-target.png,250,3.9835,5,4419,249,feet,jsons/v1_VE250_randls_27.json,885370,1767886,63,Man
100,258888,DepthScenes,duration_manipulation_targetAtFixation,jsons/v1_VE250_randls_27.json,http://54.235.29.9/FacialAge/BNav_EC2/DepthDuration/v2_depth_duration_MTurk/v2_DepthDuration_HTML.html#104,104,1366,768,1366,768,8-20-2022,11-29-23,101,depth_duration_stimuli/001584_2014-06-20_11-07-43_260595134347_rgbf000002-resize_1/001584_2014-06-20_11-07-43_260595134347_rgbf000002-resize_1-target.png,250,3.53,2,3486,274,feet,jsons/v1_VE250_randls_27.json,885370,1767886,63,Man
101,258888,DepthScenes,duration_manipulation_targetAtFixation,jsons/v1_VE250_randls_27.json,http://54.235.29.9/FacialAge/BNav_EC2/DepthDuration/v2_depth_duration_MTurk/v2_DepthDuration_HTML.html#104,104,1366,768,1366,768,8-20-2022,11-29-23,102,depth_duration_stimuli/000758_2014-06-08_22-05-08_260595134347_rgbf000085-resize_0/000758_2014-06-08_22-05-08_260595134347_rgbf000085-resize_0-target.png,250,3.3810000000000002,5,3305,241,feet,jsons/v1_VE250_randls_27.json,885370,1767886,63,Man
102,258888,DepthScenes,duration_manipulation_targetAtFixation,jsons/v1_VE250_randls_27.json,http://54.235.29.9/FacialAge/BNav_EC2/DepthDuration/v2_depth_duration_MTurk/v2_DepthDuration_HTML.html#104,104,1366,768,1366,768,8-20-2022,11-29-23,103,depth_duration_stimuli/000854_2014-06-09_19-43-13_260595134347_rgbf000066-resize_0/000854_2014-06-09_19-43-13_260595134347_rgbf000066-resize_0-target.png,250,3.068,2,2667,251,feet,jsons/v1_VE250_randls_27.json,885370,1767886,63,Man
103,258888,DepthScenes,duration_manipulation_targetAtFixation,jsons/v1_VE250_randls_27.json,http://54.235.29.9/FacialAge/BNav_EC2/DepthDuration/v2_depth_duration_MTurk/v2_DepthDuration_HTML.html#104,104,1366,768,1366,768,8-20-2022,11-29-23,104,depth_duration_stimuli/001244_2014-06-17_16-47-45_260595134347_rgbf000030-resize_4/001244_2014-06-17_16-47-45_260595134347_rgbf000030-resize_4-target.png,250,2.0425,3,2644,249,feet,jsons/v1_VE250_randls_27.json,885370,1767886,63,Man
104,258888,DepthScenes,duration_manipulation_targetAtFixation,jsons/v1_VE250_randls_27.json,http://54.235.29.9/FacialAge/BNav_EC2/DepthDuration/v2_depth_duration_MTurk/v2_DepthDuration_HTML.html#104,104,1366,768,1366,768,8-20-2022,11-29-23,105,depth_duration_stimuli/003495_2014-05-21_16-01-51_094959634447_rgbf000100-resize_3/003495_2014-05-21_16-01-51_094959634447_rgbf000100-resize_3-target.png,250,1.6255,2,2338,245,feet,jsons/v1_VE250_randls_27.json,885370,1767886,63,Man
105,258888,DepthScenes,duration_manipulation_targetAtFixation,jsons/v1_VE250_randls_27.json,http://54.235.29.9/FacialAge/BNav_EC2/DepthDuration/v2_depth_duration_MTurk/v2_DepthDuration_HTML.html#104,104,1366,768,1366,768,8-20-2022,11-29-23,106,depth_duration_stimuli/000368_2014-06-09_15-53-01_260595134347_rgbf000155-resize_2/000368_2014-06-09_15-53-01_260595134347_rgbf000155-resize_2-target.png,250,2.4859999999999998,2,2546,261,feet,jsons/v1_VE250_randls_27.json,885370,1767886,63,Man
106,258888,DepthScenes,duration_manipulation_targetAtFixation,jsons/v1_VE250_randls_27.json,http://54.235.29.9/FacialAge/BNav_EC2/DepthDuration/v2_depth_duration_MTurk/v2_DepthDuration_HTML.html#104,104,1366,768,1366,768,8-20-2022,11-29-23,107,depth_duration_stimuli/002678_2014-06-13_16-15-32_094959634447_rgbf000151-resize_6/002678_2014-06-13_16-15-32_094959634447_rgbf000151-resize_6-target.png,250,2.1830000000000003,4,4519,248,feet,jsons/v1_VE250_randls_27.json,885370,1767886,63,Man
107,258888,DepthScenes,duration_manipulation_targetAtFixation,jsons/v1_VE250_randls_27.json,http://54.235.29.9/FacialAge/BNav_EC2/DepthDuration/v2_depth_duration_MTurk/v2_DepthDuration_HTML.html#104,104,1366,768,1366,768,8-20-2022,11-29-23,108,depth_duration_stimuli/001066_2014-06-08_22-03-20_260595134347_rgbf000066-resize_4/001066_2014-06-08_22-03-20_260595134347_rgbf000066-resize_4-target.png,250,4.2330000000000005,6,4015,250,feet,jsons/v1_VE250_randls_27.json,885370,1767886,63,Man
108,258888,DepthScenes,duration_manipulation_targetAtFixation,jsons/v1_VE250_randls_27.json,http://54.235.29.9/FacialAge/BNav_EC2/DepthDuration/v2_depth_duration_MTurk/v2_DepthDuration_HTML.html#104,104,1366,768,1366,768,8-20-2022,11-29-23,109,depth_duration_stimuli/000742_2014-06-08_18-48-09_260595134347_rgbf000164-resize_4/000742_2014-06-08_18-48-09_260595134347_rgbf000164-resize_4-target.png,250,4.632,3,3060,254,feet,jsons/v1_VE250_randls_27.json,885370,1767886,63,Man
109,258888,DepthScenes,duration_manipulation_targetAtFixation,jsons/v1_VE250_randls_27.json,http://54.235.29.9/FacialAge/BNav_EC2/DepthDuration/v2_depth_duration_MTurk/v2_DepthDuration_HTML.html#104,104,1366,768,1366,768,8-20-2022,11-29-23,110,depth_duration_stimuli/002630_2014-06-24_14-47-50_094959634447_rgbf000055-resize_1/002630_2014-06-24_14-47-50_094959634447_rgbf000055-resize_1-target.png,250,3.0095,4,2752,249,feet,jsons/v1_VE250_randls_27.json,885370,1767886,63,Man
110,258888,DepthScenes,duration_manipulation_targetAtFixation,jsons/v1_VE250_randls_27.json,http://54.235.29.9/FacialAge/BNav_EC2/DepthDuration/v2_depth_duration_MTurk/v2_DepthDuration_HTML.html#104,104,1366,768,1366,768,8-20-2022,11-29-23,111,depth_duration_stimuli/002758_2014-06-22_19-11-20_094959634447_rgbf000128-resize_1/002758_2014-06-22_19-11-20_094959634447_rgbf000128-resize_1-target.png,250,2.555,1,5519,241,feet,jsons/v1_VE250_randls_27.json,885370,1767886,63,Man
111,258888,DepthScenes,duration_manipulation_targetAtFixation,jsons/v1_VE250_randls_27.json,http://54.235.29.9/FacialAge/BNav_EC2/DepthDuration/v2_depth_duration_MTurk/v2_DepthDuration_HTML.html#104,104,1366,768,1366,768,8-20-2022,11-29-23,112,depth_duration_stimuli/000736_2014-06-08_18-24-15_260595134347_rgbf000206-resize_3/000736_2014-06-08_18-24-15_260595134347_rgbf000206-resize_3-target.png,250,3.515,2,3267,244,feet,jsons/v1_VE250_randls_27.json,885370,1767886,63,Man
112,258888,DepthScenes,duration_manipulation_targetAtFixation,jsons/v1_VE250_randls_27.json,http://54.235.29.9/FacialAge/BNav_EC2/DepthDuration/v2_depth_duration_MTurk/v2_DepthDuration_HTML.html#104,104,1366,768,1366,768,8-20-2022,11-29-23,113,depth_duration_stimuli/000137_2014-05-20_17-04-49_260595134347_rgbf000120-resize_1/000137_2014-05-20_17-04-49_260595134347_rgbf000120-resize_1-target.png,250,3.786,3,2280,250,feet,jsons/v1_VE250_randls_27.json,885370,1767886,63,Man
113,258888,DepthScenes,duration_manipulation_targetAtFixation,jsons/v1_VE250_randls_27.json,http://54.235.29.9/FacialAge/BNav_EC2/DepthDuration/v2_depth_duration_MTurk/v2_DepthDuration_HTML.html#104,104,1366,768,1366,768,8-20-2022,11-29-23,114,depth_duration_stimuli/002905_2014-06-03_18-04-43_094959634447_rgbf000151-resize_2/002905_2014-06-03_18-04-43_094959634447_rgbf000151-resize_2-target.png,250,2.0295,2,2447,253,feet,jsons/v1_VE250_randls_27.json,885370,1767886,63,Man
114,258888,DepthScenes,duration_manipulation_targetAtFixation,jsons/v1_VE250_randls_27.json,http://54.235.29.9/FacialAge/BNav_EC2/DepthDuration/v2_depth_duration_MTurk/v2_DepthDuration_HTML.html#104,104,1366,768,1366,768,8-20-2022,11-29-23,115,depth_duration_stimuli/003423_2014-05-21_10-23-26_094959634447_rgbf002665-resize_2/003423_2014-05-21_10-23-26_094959634447_rgbf002665-resize_2-target.png,250,3.2575,1,2586,230,feet,jsons/v1_VE250_randls_27.json,885370,1767886,63,Man
115,258888,DepthScenes,duration_manipulation_targetAtFixation,jsons/v1_VE250_randls_27.json,http://54.235.29.9/FacialAge/BNav_EC2/DepthDuration/v2_depth_duration_MTurk/v2_DepthDuration_HTML.html#104,104,1366,768,1366,768,8-20-2022,11-29-23,116,depth_duration_stimuli/001170_2014-06-17_15-43-44_260595134347_rgbf000096-resize_6/001170_2014-06-17_15-43-44_260595134347_rgbf000096-resize-original.jpg,250,1.1909999999999998,0,3253,249,feet,jsons/v1_VE250_randls_27.json,885370,1767886,63,Man
116,258888,DepthScenes,duration_manipulation_targetAtFixation,jsons/v1_VE250_randls_27.json,http://54.235.29.9/FacialAge/BNav_EC2/DepthDuration/v2_depth_duration_MTurk/v2_DepthDuration_HTML.html#104,104,1366,768,1366,768,8-20-2022,11-29-23,117,depth_duration_stimuli/002445_2014-06-28_20-32-16_260595134347_rgbf000029-resize_4/002445_2014-06-28_20-32-16_260595134347_rgbf000029-resize_4-target.png,250,2.5315,2,2888,266,feet,jsons/v1_VE250_randls_27.json,885370,1767886,63,Man
117,258888,DepthScenes,duration_manipulation_targetAtFixation,jsons/v1_VE250_randls_27.json,http://54.235.29.9/FacialAge/BNav_EC2/DepthDuration/v2_depth_duration_MTurk/v2_DepthDuration_HTML.html#104,104,1366,768,1366,768,8-20-2022,11-29-23,118,depth_duration_stimuli/000780_2014-06-08_22-28-29_260595134347_rgbf000126-resize_1/000780_2014-06-08_22-28-29_260595134347_rgbf000126-resize_1-target.png,250,3.3825,3,2787,249,feet,jsons/v1_VE250_randls_27.json,885370,1767886,63,Man
118,258888,DepthScenes,duration_manipulation_targetAtFixation,jsons/v1_VE250_randls_27.json,http://54.235.29.9/FacialAge/BNav_EC2/DepthDuration/v2_depth_duration_MTurk/v2_DepthDuration_HTML.html#104,104,1366,768,1366,768,8-20-2022,11-29-23,119,depth_duration_stimuli/002748_2014-06-22_19-07-22_094959634447_rgbf000078-resize_1/002748_2014-06-22_19-07-22_094959634447_rgbf000078-resize_1-target.png,250,4.6705,4,2287,193,feet,jsons/v1_VE250_randls_27.json,885370,1767886,63,Man
119,258888,DepthScenes,duration_manipulation_targetAtFixation,jsons/v1_VE250_randls_27.json,http://54.235.29.9/FacialAge/BNav_EC2/DepthDuration/v2_depth_duration_MTurk/v2_DepthDuration_HTML.html#104,104,1366,768,1366,768,8-20-2022,11-29-23,120,depth_duration_stimuli/002995_2014-06-15_12-31-26_094959634447_rgbf000150-resize_1/002995_2014-06-15_12-31-26_094959634447_rgbf000150-resize_1-target.png,250,3.8360000000000003,7,2994,272,feet,jsons/v1_VE250_randls_27.json,885370,1767886,63,Man
120,258888,DepthScenes,duration_manipulation_targetAtFixation,jsons/v1_VE250_randls_27.json,http://54.235.29.9/FacialAge/BNav_EC2/DepthDuration/v2_depth_duration_MTurk/v2_DepthDuration_HTML.html#104,104,1366,768,1366,768,8-20-2022,11-29-23,121,depth_duration_stimuli/000009_2014-05-26_14-32-05_260595134347_rgbf000034-resize_3/000009_2014-05-26_14-32-05_260595134347_rgbf000034-resize_3-target.png,250,3.8715,6,2908,258,feet,jsons/v1_VE250_randls_27.json,885370,1767886,63,Man
121,258888,DepthScenes,duration_manipulation_targetAtFixation,jsons/v1_VE250_randls_27.json,http://54.235.29.9/FacialAge/BNav_EC2/DepthDuration/v2_depth_duration_MTurk/v2_DepthDuration_HTML.html#104,104,1366,768,1366,768,8-20-2022,11-29-23,122,depth_duration_stimuli/001828_2014-06-26_21-40-03_260595134347_rgbf000024-resize_0/001828_2014-06-26_21-40-03_260595134347_rgbf000024-resize_0-target.png,250,4.8260000000000005,4,2746,255,feet,jsons/v1_VE250_randls_27.json,885370,1767886,63,Man
122,258888,DepthScenes,duration_manipulation_targetAtFixation,jsons/v1_VE250_randls_27.json,http://54.235.29.9/FacialAge/BNav_EC2/DepthDuration/v2_depth_duration_MTurk/v2_DepthDuration_HTML.html#104,104,1366,768,1366,768,8-20-2022,11-29-23,123,depth_duration_stimuli/000493_2014-06-09_21-01-18_260595134347_rgbf000196-resize_3/000493_2014-06-09_21-01-18_260595134347_rgbf000196-resize_3-target.png,250,3.44,3,2474,249,feet,jsons/v1_VE250_randls_27.json,885370,1767886,63,Man
123,258888,DepthScenes,duration_manipulation_targetAtFixation,jsons/v1_VE250_randls_27.json,http://54.235.29.9/FacialAge/BNav_EC2/DepthDuration/v2_depth_duration_MTurk/v2_DepthDuration_HTML.html#104,104,1366,768,1366,768,8-20-2022,11-29-23,124,depth_duration_stimuli/000191_2014-05-12_17-07-38_260595134347_rgbf000199-resize_0/000191_2014-05-12_17-07-38_260595134347_rgbf000199-resize_0-target.png,250,3.7995,2,3457,251,feet,jsons/v1_VE250_randls_27.json,885370,1767886,63,Man
124,258888,DepthScenes,duration_manipulation_targetAtFixation,jsons/v1_VE250_randls_27.json,http://54.235.29.9/FacialAge/BNav_EC2/DepthDuration/v2_depth_duration_MTurk/v2_DepthDuration_HTML.html#104,104,1366,768,1366,768,8-20-2022,11-29-23,125,depth_duration_stimuli/000414_2014-06-04_19-49-13_260595134347_rgbf000044-resize_0/000414_2014-06-04_19-49-13_260595134347_rgbf000044-resize_0-target.png,250,4.329,5,2842,217,feet,jsons/v1_VE250_randls_27.json,885370,1767886,63,Man
125,258888,DepthScenes,duration_manipulation_targetAtFixation,jsons/v1_VE250_randls_27.json,http://54.235.29.9/FacialAge/BNav_EC2/DepthDuration/v2_depth_duration_MTurk/v2_DepthDuration_HTML.html#104,104,1366,768,1366,768,8-20-2022,11-29-23,126,depth_duration_stimuli/003129_2014-05-12_10-48-10_094959634447_rgbf000100-resize_0/003129_2014-05-12_10-48-10_094959634447_rgbf000100-resize_0-target.png,250,4.9305,1,2962,248,feet,jsons/v1_VE250_randls_27.json,885370,1767886,63,Man
126,258888,DepthScenes,duration_manipulation_targetAtFixation,jsons/v1_VE250_randls_27.json,http://54.235.29.9/FacialAge/BNav_EC2/DepthDuration/v2_depth_duration_MTurk/v2_DepthDuration_HTML.html#104,104,1366,768,1366,768,8-20-2022,11-29-23,127,depth_duration_stimuli/001164_2014-06-17_15-35-46_260595134347_rgbf000085-resize_3/001164_2014-06-17_15-35-46_260595134347_rgbf000085-resize_3-target.png,250,2.354,3,10204,246,feet,jsons/v1_VE250_randls_27.json,885370,1767886,63,Man
127,258888,DepthScenes,duration_manipulation_targetAtFixation,jsons/v1_VE250_randls_27.json,http://54.235.29.9/FacialAge/BNav_EC2/DepthDuration/v2_depth_duration_MTurk/v2_DepthDuration_HTML.html#104,104,1366,768,1366,768,8-20-2022,11-29-23,128,depth_duration_stimuli/001136_2014-06-17_15-19-41_260595134347_rgbf000076-resize_3/001136_2014-06-17_15-19-41_260595134347_rgbf000076-resize_3-target.png,250,1.8655,4,2401,249,feet,jsons/v1_VE250_randls_27.json,885370,1767886,63,Man
128,258888,DepthScenes,duration_manipulation_targetAtFixation,jsons/v1_VE250_randls_27.json,http://54.235.29.9/FacialAge/BNav_EC2/DepthDuration/v2_depth_duration_MTurk/v2_DepthDuration_HTML.html#104,104,1366,768,1366,768,8-20-2022,11-29-23,129,depth_duration_stimuli/001199_2014-06-17_16-03-48_260595134347_rgbf000077-resize_0/001199_2014-06-17_16-03-48_260595134347_rgbf000077-resize_0-target.png,250,3.4375,2,2471,263,feet,jsons/v1_VE250_randls_27.json,885370,1767886,63,Man
129,258888,DepthScenes,duration_manipulation_targetAtFixation,jsons/v1_VE250_randls_27.json,http://54.235.29.9/FacialAge/BNav_EC2/DepthDuration/v2_depth_duration_MTurk/v2_DepthDuration_HTML.html#104,104,1366,768,1366,768,8-20-2022,11-29-23,130,depth_duration_stimuli/000502_2014-06-08_23-02-32_260595134347_rgbf000063-resize_4/000502_2014-06-08_23-02-32_260595134347_rgbf000063-resize_4-target.png,250,2.431,2,3563,259,feet,jsons/v1_VE250_randls_27.json,885370,1767886,63,Man
130,258888,DepthScenes,duration_manipulation_targetAtFixation,jsons/v1_VE250_randls_27.json,http://54.235.29.9/FacialAge/BNav_EC2/DepthDuration/v2_depth_duration_MTurk/v2_DepthDuration_HTML.html#104,104,1366,768,1366,768,8-20-2022,11-29-23,131,depth_duration_stimuli/000436_2014-06-09_22-25-11_260595134347_rgbf000137-resize_1/000436_2014-06-09_22-25-11_260595134347_rgbf000137-resize_1-target.png,250,4.0705,5,3138,236,feet,jsons/v1_VE250_randls_27.json,885370,1767886,63,Man
131,258888,DepthScenes,duration_manipulation_targetAtFixation,jsons/v1_VE250_randls_27.json,http://54.235.29.9/FacialAge/BNav_EC2/DepthDuration/v2_depth_duration_MTurk/v2_DepthDuration_HTML.html#104,104,1366,768,1366,768,8-20-2022,11-29-23,132,depth_duration_stimuli/002444_2014-06-28_20-32-08_260595134347_rgbf000027-resize_0/002444_2014-06-28_20-32-08_260595134347_rgbf000027-resize_0-target.png,250,4.388999999999999,3,2359,251,feet,jsons/v1_VE250_randls_27.json,885370,1767886,63,Man
132,258888,DepthScenes,duration_manipulation_targetAtFixation,jsons/v1_VE250_randls_27.json,http://54.235.29.9/FacialAge/BNav_EC2/DepthDuration/v2_depth_duration_MTurk/v2_DepthDuration_HTML.html#104,104,1366,768,1366,768,8-20-2022,11-29-23,133,depth_duration_stimuli/000486_2014-06-09_20-47-20_260595134347_rgbf000143-resize_2/000486_2014-06-09_20-47-20_260595134347_rgbf000143-resize_2-target.png,250,4.8325,2,2619,250,feet,jsons/v1_VE250_randls_27.json,885370,1767886,63,Man
133,258888,DepthScenes,duration_manipulation_targetAtFixation,jsons/v1_VE250_randls_27.json,http://54.235.29.9/FacialAge/BNav_EC2/DepthDuration/v2_depth_duration_MTurk/v2_DepthDuration_HTML.html#104,104,1366,768,1366,768,8-20-2022,11-29-23,134,depth_duration_stimuli/003083_2014-06-15_15-21-03_094959634447_rgbf000063-resize_1/003083_2014-06-15_15-21-03_094959634447_rgbf000063-resize_1-target.png,250,4.1405,6,3140,244,feet,jsons/v1_VE250_randls_27.json,885370,1767886,63,Man
134,258888,DepthScenes,duration_manipulation_targetAtFixation,jsons/v1_VE250_randls_27.json,http://54.235.29.9/FacialAge/BNav_EC2/DepthDuration/v2_depth_duration_MTurk/v2_DepthDuration_HTML.html#104,104,1366,768,1366,768,8-20-2022,11-29-23,135,depth_duration_stimuli/002072_2014-06-24_21-48-06_260595134347_rgbf000115-resize_0/002072_2014-06-24_21-48-06_260595134347_rgbf000115-resize-original.jpg,250,4.702,0,3308,253,feet,jsons/v1_VE250_randls_27.json,885370,1767886,63,Man
135,258888,DepthScenes,duration_manipulation_targetAtFixation,jsons/v1_VE250_randls_27.json,http://54.235.29.9/FacialAge/BNav_EC2/DepthDuration/v2_depth_duration_MTurk/v2_DepthDuration_HTML.html#104,104,1366,768,1366,768,8-20-2022,11-29-23,136,depth_duration_stimuli/002549_2014-06-24_13-41-39_094959634447_rgbf000022-resize_3/002549_2014-06-24_13-41-39_094959634447_rgbf000022-resize_3-target.png,250,1.476,2,2219,285,feet,jsons/v1_VE250_randls_27.json,885370,1767886,63,Man
136,258888,DepthScenes,duration_manipulation_targetAtFixation,jsons/v1_VE250_randls_27.json,http://54.235.29.9/FacialAge/BNav_EC2/DepthDuration/v2_depth_duration_MTurk/v2_DepthDuration_HTML.html#104,104,1366,768,1366,768,8-20-2022,11-29-23,137,depth_duration_stimuli/002750_2014-06-22_19-08-03_094959634447_rgbf000094-resize_4/002750_2014-06-22_19-08-03_094959634447_rgbf000094-resize_4-target.png,250,2.354,4,17444,250,feet,jsons/v1_VE250_randls_27.json,885370,1767886,63,Man
137,258888,DepthScenes,duration_manipulation_targetAtFixation,jsons/v1_VE250_randls_27.json,http://54.235.29.9/FacialAge/BNav_EC2/DepthDuration/v2_depth_duration_MTurk/v2_DepthDuration_HTML.html#104,104,1366,768,1366,768,8-20-2022,11-29-23,138,depth_duration_stimuli/003070_2014-06-15_14-58-27_094959634447_rgbf000150-resize_3/003070_2014-06-15_14-58-27_094959634447_rgbf000150-resize_3-target.png,250,2.9415,5,7988,250,feet,jsons/v1_VE250_randls_27.json,885370,1767886,63,Man
138,258888,DepthScenes,duration_manipulation_targetAtFixation,jsons/v1_VE250_randls_27.json,http://54.235.29.9/FacialAge/BNav_EC2/DepthDuration/v2_depth_duration_MTurk/v2_DepthDuration_HTML.html#104,104,1366,768,1366,768,8-20-2022,11-29-23,139,depth_duration_stimuli/000943_2014-06-09_19-31-07_260595134347_rgbf000128-resize_1/000943_2014-06-09_19-31-07_260595134347_rgbf000128-resize_1-target.png,250,1.9765,2,3120,243,feet,jsons/v1_VE250_randls_27.json,885370,1767886,63,Man
139,258888,DepthScenes,duration_manipulation_targetAtFixation,jsons/v1_VE250_randls_27.json,http://54.235.29.9/FacialAge/BNav_EC2/DepthDuration/v2_depth_duration_MTurk/v2_DepthDuration_HTML.html#104,104,1366,768,1366,768,8-20-2022,11-29-23,140,depth_duration_stimuli/001056_2014-06-08_18-46-44_260595134347_rgbf000068-resize_0/001056_2014-06-08_18-46-44_260595134347_rgbf000068-resize_0-target.png,250,2.6625,3,2107,247,feet,jsons/v1_VE250_randls_27.json,885370,1767886,63,Man
140,258888,DepthScenes,duration_manipulation_targetAtFixation,jsons/v1_VE250_randls_27.json,http://54.235.29.9/FacialAge/BNav_EC2/DepthDuration/v2_depth_duration_MTurk/v2_DepthDuration_HTML.html#104,104,1366,768,1366,768,8-20-2022,11-29-23,141,depth_duration_stimuli/002199_2014-06-28_18-33-56_260595134347_rgbf000074-resize_0/002199_2014-06-28_18-33-56_260595134347_rgbf000074-resize_0-target.png,250,1.996,2,2035,248,feet,jsons/v1_VE250_randls_27.json,885370,1767886,63,Man
141,258888,DepthScenes,duration_manipulation_targetAtFixation,jsons/v1_VE250_randls_27.json,http://54.235.29.9/FacialAge/BNav_EC2/DepthDuration/v2_depth_duration_MTurk/v2_DepthDuration_HTML.html#104,104,1366,768,1366,768,8-20-2022,11-29-23,142,depth_duration_stimuli/000739_2014-06-08_18-45-58_260595134347_rgbf000068-resize_1/000739_2014-06-08_18-45-58_260595134347_rgbf000068-resize_1-target.png,250,3.534,5,3101,250,feet,jsons/v1_VE250_randls_27.json,885370,1767886,63,Man
142,258888,DepthScenes,duration_manipulation_targetAtFixation,jsons/v1_VE250_randls_27.json,http://54.235.29.9/FacialAge/BNav_EC2/DepthDuration/v2_depth_duration_MTurk/v2_DepthDuration_HTML.html#104,104,1366,768,1366,768,8-20-2022,11-29-23,143,depth_duration_stimuli/000734_2014-06-08_17-39-11_260595134347_rgbf000128-resize_2/000734_2014-06-08_17-39-11_260595134347_rgbf000128-resize_2-target.png,250,4.098,3,2934,285,feet,jsons/v1_VE250_randls_27.json,885370,1767886,63,Man
143,258888,DepthScenes,duration_manipulation_targetAtFixation,jsons/v1_VE250_randls_27.json,http://54.235.29.9/FacialAge/BNav_EC2/DepthDuration/v2_depth_duration_MTurk/v2_DepthDuration_HTML.html#104,104,1366,768,1366,768,8-20-2022,11-29-23,144,depth_duration_stimuli/002570_2014-06-24_13-59-54_094959634447_rgbf000059-resize_0/002570_2014-06-24_13-59-54_094959634447_rgbf000059-resize_0-target.png,250,4.037,4,2797,268,feet,jsons/v1_VE250_randls_27.json,885370,1767886,63,Man
144,258888,DepthScenes,duration_manipulation_targetAtFixation,jsons/v1_VE250_randls_27.json,http://54.235.29.9/FacialAge/BNav_EC2/DepthDuration/v2_depth_duration_MTurk/v2_DepthDuration_HTML.html#104,104,1366,768,1366,768,8-20-2022,11-29-23,145,depth_duration_stimuli/002467_2014-06-28_20-38-07_260595134347_rgbf000026-resize_2/002467_2014-06-28_20-38-07_260595134347_rgbf000026-resize_2-target.png,250,4.742,2,2309,255,feet,jsons/v1_VE250_randls_27.json,885370,1767886,63,Man
145,258888,DepthScenes,duration_manipulation_targetAtFixation,jsons/v1_VE250_randls_27.json,http://54.235.29.9/FacialAge/BNav_EC2/DepthDuration/v2_depth_duration_MTurk/v2_DepthDuration_HTML.html#104,104,1366,768,1366,768,8-20-2022,11-29-23,146,depth_duration_stimuli/001498_2014-06-19_17-45-14_260595134347_rgbf000129-resize_4/001498_2014-06-19_17-45-14_260595134347_rgbf000129-resize-original.jpg,250,1.4075,0,3467,247,feet,jsons/v1_VE250_randls_27.json,885370,1767886,63,Man
146,258888,DepthScenes,duration_manipulation_targetAtFixation,jsons/v1_VE250_randls_27.json,http://54.235.29.9/FacialAge/BNav_EC2/DepthDuration/v2_depth_duration_MTurk/v2_DepthDuration_HTML.html#104,104,1366,768,1366,768,8-20-2022,11-29-23,147,depth_duration_stimuli/003492_2014-05-21_15-50-55_094959634447_rgbf000828-resize_1/003492_2014-05-21_15-50-55_094959634447_rgbf000828-resize_1-target.png,250,4.06875,3,3640,259,feet,jsons/v1_VE250_randls_27.json,885370,1767886,63,Man
147,258888,DepthScenes,duration_manipulation_targetAtFixation,jsons/v1_VE250_randls_27.json,http://54.235.29.9/FacialAge/BNav_EC2/DepthDuration/v2_depth_duration_MTurk/v2_DepthDuration_HTML.html#104,104,1366,768,1366,768,8-20-2022,11-29-23,148,depth_duration_stimuli/002568_2014-06-24_13-59-21_094959634447_rgbf000062-resize_4/002568_2014-06-24_13-59-21_094959634447_rgbf000062-resize_4-target.png,250,3.015,2,20729,249,feet,jsons/v1_VE250_randls_27.json,885370,1767886,63,Man
148,258888,DepthScenes,duration_manipulation_targetAtFixation,jsons/v1_VE250_randls_27.json,http://54.235.29.9/FacialAge/BNav_EC2/DepthDuration/v2_depth_duration_MTurk/v2_DepthDuration_HTML.html#104,104,1366,768,1366,768,8-20-2022,11-29-23,149,depth_duration_stimuli/001011_2014-06-08_23-18-54_260595134347_rgbf000044-resize_4/001011_2014-06-08_23-18-54_260595134347_rgbf000044-resize_4-target.png,250,2.4730000000000003,4,3307,269,feet,jsons/v1_VE250_randls_27.json,885370,1767886,63,Man
149,258888,DepthScenes,duration_manipulation_targetAtFixation,jsons/v1_VE250_randls_27.json,http://54.235.29.9/FacialAge/BNav_EC2/DepthDuration/v2_depth_duration_MTurk/v2_DepthDuration_HTML.html#104,104,1366,768,1366,768,8-20-2022,11-29-23,150,depth_duration_stimuli/002875_2014-06-01_15-19-00_094959634447_rgbf000151-resize_1/002875_2014-06-01_15-19-00_094959634447_rgbf000151-resize_1-target.png,250,1.9675,3,2443,258,feet,jsons/v1_VE250_randls_27.json,885370,1767886,63,Man
150,258888,DepthScenes,duration_manipulation_targetAtFixation,jsons/v1_VE250_randls_27.json,http://54.235.29.9/FacialAge/BNav_EC2/DepthDuration/v2_depth_duration_MTurk/v2_DepthDuration_HTML.html#104,104,1366,768,1366,768,8-20-2022,11-29-23,151,depth_duration_stimuli/000642_2014-06-08_16-59-25_260595134347_rgbf000098-resize_2/000642_2014-06-08_16-59-25_260595134347_rgbf000098-resize_2-target.png,250,2.8815,2,4206,253,feet,jsons/v1_VE250_randls_27.json,885370,1767886,63,Man
151,258888,DepthScenes,duration_manipulation_targetAtFixation,jsons/v1_VE250_randls_27.json,http://54.235.29.9/FacialAge/BNav_EC2/DepthDuration/v2_depth_duration_MTurk/v2_DepthDuration_HTML.html#104,104,1366,768,1366,768,8-20-2022,11-29-23,152,depth_duration_stimuli/002425_2014-06-28_20-27-29_260595134347_rgbf000031-resize_8/002425_2014-06-28_20-27-29_260595134347_rgbf000031-resize_8-target.png,250,3.8960000000000004,4,2269,246,feet,jsons/v1_VE250_randls_27.json,885370,1767886,63,Man
152,258888,DepthScenes,duration_manipulation_targetAtFixation,jsons/v1_VE250_randls_27.json,http://54.235.29.9/FacialAge/BNav_EC2/DepthDuration/v2_depth_duration_MTurk/v2_DepthDuration_HTML.html#104,104,1366,768,1366,768,8-20-2022,11-29-23,153,depth_duration_stimuli/002153_2014-06-25_21-27-18_260595134347_rgbf000038-resize_5/002153_2014-06-25_21-27-18_260595134347_rgbf000038-resize_5-target.png,250,2.505,2,14531,250,feet,jsons/v1_VE250_randls_27.json,885370,1767886,63,Man
153,258888,DepthScenes,duration_manipulation_targetAtFixation,jsons/v1_VE250_randls_27.json,http://54.235.29.9/FacialAge/BNav_EC2/DepthDuration/v2_depth_duration_MTurk/v2_DepthDuration_HTML.html#104,104,1366,768,1366,768,8-20-2022,11-29-23,154,depth_duration_stimuli/002660_2014-06-13_15-44-18_094959634447_rgbf001878-resize_2/002660_2014-06-13_15-44-18_094959634447_rgbf001878-resize_2-target.png,250,3.576,3,3668,193,feet,jsons/v1_VE250_randls_27.json,885370,1767886,63,Man
154,258888,DepthScenes,duration_manipulation_targetAtFixation,jsons/v1_VE250_randls_27.json,http://54.235.29.9/FacialAge/BNav_EC2/DepthDuration/v2_depth_duration_MTurk/v2_DepthDuration_HTML.html#104,104,1366,768,1366,768,8-20-2022,11-29-23,155,depth_duration_stimuli/002989_2014-06-15_12-25-03_094959634447_rgbf000150-resize_3/002989_2014-06-15_12-25-03_094959634447_rgbf000150-resize_3-target.png,250,4.1975,5,3226,256,feet,jsons/v1_VE250_randls_27.json,885370,1767886,63,Man
155,258888,DepthScenes,duration_manipulation_targetAtFixation,jsons/v1_VE250_randls_27.json,http://54.235.29.9/FacialAge/BNav_EC2/DepthDuration/v2_depth_duration_MTurk/v2_DepthDuration_HTML.html#104,104,1366,768,1366,768,8-20-2022,11-29-23,156,depth_duration_stimuli/000866_2014-06-09_20-45-42_260595134347_rgbf000139-resize_1/000866_2014-06-09_20-45-42_260595134347_rgbf000139-resize_1-target.png,250,3.2155,4,2735,250,feet,jsons/v1_VE250_randls_27.json,885370,1767886,63,Man
156,258888,DepthScenes,duration_manipulation_targetAtFixation,jsons/v1_VE250_randls_27.json,http://54.235.29.9/FacialAge/BNav_EC2/DepthDuration/v2_depth_duration_MTurk/v2_DepthDuration_HTML.html#104,104,1366,768,1366,768,8-20-2022,11-29-23,157,depth_duration_stimuli/002763_2014-06-22_19-13-10_094959634447_rgbf000075-resize_4/002763_2014-06-22_19-13-10_094959634447_rgbf000075-resize_4-target.png,250,1.68375,3,2338,260,feet,jsons/v1_VE250_randls_27.json,885370,1767886,63,Man
157,258888,DepthScenes,duration_manipulation_targetAtFixation,jsons/v1_VE250_randls_27.json,http://54.235.29.9/FacialAge/BNav_EC2/DepthDuration/v2_depth_duration_MTurk/v2_DepthDuration_HTML.html#104,104,1366,768,1366,768,8-20-2022,11-29-23,158,depth_duration_stimuli/002209_2014-06-28_18-36-10_260595134347_rgbf000051-resize_1/002209_2014-06-28_18-36-10_260595134347_rgbf000051-resize_1-target.png,250,2.057,4,3498,241,feet,jsons/v1_VE250_randls_27.json,885370,1767886,63,Man
158,258888,DepthScenes,duration_manipulation_targetAtFixation,jsons/v1_VE250_randls_27.json,http://54.235.29.9/FacialAge/BNav_EC2/DepthDuration/v2_depth_duration_MTurk/v2_DepthDuration_HTML.html#104,104,1366,768,1366,768,8-20-2022,11-29-23,159,depth_duration_stimuli/000692_2014-06-08_13-09-42_260595134347_rgbf000199-resize_2/000692_2014-06-08_13-09-42_260595134347_rgbf000199-resize_2-target.png,250,3.661,5,3146,247,feet,jsons/v1_VE250_randls_27.json,885370,1767886,63,Man
159,258888,DepthScenes,duration_manipulation_targetAtFixation,jsons/v1_VE250_randls_27.json,http://54.235.29.9/FacialAge/BNav_EC2/DepthDuration/v2_depth_duration_MTurk/v2_DepthDuration_HTML.html#104,104,1366,768,1366,768,8-20-2022,11-29-23,160,depth_duration_stimuli/001094_2014-06-15_17-36-00_260595134347_rgbf000205-resize_0/001094_2014-06-15_17-36-00_260595134347_rgbf000205-resize_0-target.png,250,4.2175,2,2571,265,feet,jsons/v1_VE250_randls_27.json,885370,1767886,63,Man
160,258888,DepthScenes,duration_manipulation_targetAtFixation,jsons/v1_VE250_randls_27.json,http://54.235.29.9/FacialAge/BNav_EC2/DepthDuration/v2_depth_duration_MTurk/v2_DepthDuration_HTML.html#104,104,1366,768,1366,768,8-20-2022,11-29-23,161,depth_duration_stimuli/001417_2014-06-19_16-25-36_260595134347_rgbf000115-resize_5/001417_2014-06-19_16-25-36_260595134347_rgbf000115-resize_5-target.png,250,4.6255,3,2083,261,feet,jsons/v1_VE250_randls_27.json,885370,1767886,63,Man
161,258888,DepthScenes,duration_manipulation_targetAtFixation,jsons/v1_VE250_randls_27.json,http://54.235.29.9/FacialAge/BNav_EC2/DepthDuration/v2_depth_duration_MTurk/v2_DepthDuration_HTML.html#104,104,1366,768,1366,768,8-20-2022,11-29-23,162,depth_duration_stimuli/003081_2014-06-15_15-19-16_094959634447_rgbf000150-resize_1/003081_2014-06-15_15-19-16_094959634447_rgbf000150-resize_1-target.png,250,3.9125,3,2158,242,feet,jsons/v1_VE250_randls_27.json,885370,1767886,63,Man
162,258888,DepthScenes,duration_manipulation_targetAtFixation,jsons/v1_VE250_randls_27.json,http://54.235.29.9/FacialAge/BNav_EC2/DepthDuration/v2_depth_duration_MTurk/v2_DepthDuration_HTML.html#104,104,1366,768,1366,768,8-20-2022,11-29-23,163,depth_duration_stimuli/000506_2014-06-08_23-21-00_260595134347_rgbf000070-resize_7/000506_2014-06-08_23-21-00_260595134347_rgbf000070-resize_7-target.png,250,4.0585,4,24986,240,feet,jsons/v1_VE250_randls_27.json,885370,1767886,63,Man
163,258888,DepthScenes,duration_manipulation_targetAtFixation,jsons/v1_VE250_randls_27.json,http://54.235.29.9/FacialAge/BNav_EC2/DepthDuration/v2_depth_duration_MTurk/v2_DepthDuration_HTML.html#104,104,1366,768,1366,768,8-20-2022,11-29-23,164,depth_duration_stimuli/003079_2014-06-15_15-18-20_094959634447_rgbf000152-resize_8/003079_2014-06-15_15-18-20_094959634447_rgbf000152-resize_8-target.png,250,2.8775,7,3776,229,feet,jsons/v1_VE250_randls_27.json,885370,1767886,63,Man
