,subjID,experimentName,versionName,sequenceName,url,selected_row,windowWidth,windowHeight,screenWidth,screenHeight,startDate,startTime,trial,stimulus,duration,actual_depth,depth_estimate,trial_RT,log_sceneDuration,unitSelection,seq_filepath,experimentTime,totalTime,age,gender
0,261565,DepthScenes,duration_manipulation_targetAtFixation,jsons/v1_VE1000_randls_12_rotated.json,http://54.235.29.9/FacialAge/BNav_EC2/DepthDuration/v2_depth_duration_MTurk/v2_DepthDuration_HTML.html#228,228,1280,913,1280,1024,8-29-2022,12-34-56,1,depth_duration_stimuli/001235_2014-06-17_16-37-36_260595134347_rgbf000084-resize_4/001235_2014-06-17_16-37-36_260595134347_rgbf000084-resize_4-target.png,1000,3.6605,2,3593,999,meters,jsons/v1_VE1000_randls_12_rotated.json,851971,1128054,35,Man
1,261565,DepthScenes,duration_manipulation_targetAtFixation,jsons/v1_VE1000_randls_12_rotated.json,http://54.235.29.9/FacialAge/BNav_EC2/DepthDuration/v2_depth_duration_MTurk/v2_DepthDuration_HTML.html#228,228,1280,913,1280,1024,8-29-2022,12-34-56,2,depth_duration_stimuli/000788_2014-06-08_22-34-36_260595134347_rgbf000131-resize_1/000788_2014-06-08_22-34-36_260595134347_rgbf000131-resize_1-target.png,1000,3.359,2,2940,999,meters,jsons/v1_VE1000_randls_12_rotated.json,851971,1128054,35,Man
2,261565,DepthScenes,duration_manipulation_targetAtFixation,jsons/v1_VE1000_randls_12_rotated.json,http://54.235.29.9/FacialAge/BNav_EC2/DepthDuration/v2_depth_duration_MTurk/v2_DepthDuration_HTML.html#228,228,1280,913,1280,1024,8-29-2022,12-34-56,3,depth_duration_stimuli/000927_2014-06-09_16-32-30_260595134347_rgbf000123-resize_3/000927_2014-06-09_16-32-30_260595134347_rgbf000123-resize_3-target.png,1000,2.6785,0,4658,1001,meters,jsons/v1_VE1000_randls_12_rotated.json,851971,1128054,35,Man
3,261565,DepthScenes,duration_manipulation_targetAtFixation,jsons/v1_VE1000_randls_12_rotated.json,http://54.235.29.9/FacialAge/BNav_EC2/DepthDuration/v2_depth_duration_MTurk/v2_DepthDuration_HTML.html#228,228,1280,913,1280,1024,8-29-2022,12-34-56,4,depth_duration_stimuli/001110_2014-06-15_17-25-28_260595134347_rgbf000150-resize_1/001110_2014-06-15_17-25-28_260595134347_rgbf000150-resize_1-target.png,1000,1.7115,3,4388,999,meters,jsons/v1_VE1000_randls_12_rotated.json,851971,1128054,35,Man
4,261565,DepthScenes,duration_manipulation_targetAtFixation,jsons/v1_VE1000_randls_12_rotated.json,http://54.235.29.9/FacialAge/BNav_EC2/DepthDuration/v2_depth_duration_MTurk/v2_DepthDuration_HTML.html#228,228,1280,913,1280,1024,8-29-2022,12-34-56,5,depth_duration_stimuli/000483_2014-06-09_20-41-45_260595134347_rgbf000116-resize_4/000483_2014-06-09_20-41-45_260595134347_rgbf000116-resize_4-target.png,1000,1.337,2,4577,1000,meters,jsons/v1_VE1000_randls_12_rotated.json,851971,1128054,35,Man
5,261565,DepthScenes,duration_manipulation_targetAtFixation,jsons/v1_VE1000_randls_12_rotated.json,http://54.235.29.9/FacialAge/BNav_EC2/DepthDuration/v2_depth_duration_MTurk/v2_DepthDuration_HTML.html#228,228,1280,913,1280,1024,8-29-2022,12-34-56,6,depth_duration_stimuli/000469_2014-06-09_19-42-10_260595134347_rgbf000081-resize_1/000469_2014-06-09_19-42-10_260595134347_rgbf000081-resize_1-target.png,1000,1.652,2,3763,1000,meters,jsons/v1_VE1000_randls_12_rotated.json,851971,1128054,35,Man
6,261565,DepthScenes,duration_manipulation_targetAtFixation,jsons/v1_VE1000_randls_12_rotated.json,http://54.235.29.9/FacialAge/BNav_EC2/DepthDuration/v2_depth_duration_MTurk/v2_DepthDuration_HTML.html#228,228,1280,913,1280,1024,8-29-2022,12-34-56,7,depth_duration_stimuli/001815_2014-06-26_20-52-55_260595134347_rgbf000020-resize_0/001815_2014-06-26_20-52-55_260595134347_rgbf000020-resize_0-target.png,1000,3.3865,2,4731,1001,meters,jsons/v1_VE1000_randls_12_rotated.json,851971,1128054,35,Man
7,261565,DepthScenes,duration_manipulation_targetAtFixation,jsons/v1_VE1000_randls_12_rotated.json,http://54.235.29.9/FacialAge/BNav_EC2/DepthDuration/v2_depth_duration_MTurk/v2_DepthDuration_HTML.html#228,228,1280,913,1280,1024,8-29-2022,12-34-56,8,depth_duration_stimuli/001808_2014-06-26_20-50-58_260595134347_rgbf000029-resize_1/001808_2014-06-26_20-50-58_260595134347_rgbf000029-resize_1-target.png,1000,4.249,3,3875,997,meters,jsons/v1_VE1000_randls_12_rotated.json,851971,1128054,35,Man
8,261565,DepthScenes,duration_manipulation_targetAtFixation,jsons/v1_VE1000_randls_12_rotated.json,http://54.235.29.9/FacialAge/BNav_EC2/DepthDuration/v2_depth_duration_MTurk/v2_DepthDuration_HTML.html#228,228,1280,913,1280,1024,8-29-2022,12-34-56,9,depth_duration_stimuli/000734_2014-06-08_17-39-11_260595134347_rgbf000128-resize_2/000734_2014-06-08_17-39-11_260595134347_rgbf000128-resize_2-target.png,1000,4.098,2,3267,1001,meters,jsons/v1_VE1000_randls_12_rotated.json,851971,1128054,35,Man
9,261565,DepthScenes,duration_manipulation_targetAtFixation,jsons/v1_VE1000_randls_12_rotated.json,http://54.235.29.9/FacialAge/BNav_EC2/DepthDuration/v2_depth_duration_MTurk/v2_DepthDuration_HTML.html#228,228,1280,913,1280,1024,8-29-2022,12-34-56,10,depth_duration_stimuli/000739_2014-06-08_18-45-58_260595134347_rgbf000068-resize_1/000739_2014-06-08_18-45-58_260595134347_rgbf000068-resize_1-target.png,1000,3.534,2,2803,1000,meters,jsons/v1_VE1000_randls_12_rotated.json,851971,1128054,35,Man
10,261565,DepthScenes,duration_manipulation_targetAtFixation,jsons/v1_VE1000_randls_12_rotated.json,http://54.235.29.9/FacialAge/BNav_EC2/DepthDuration/v2_depth_duration_MTurk/v2_DepthDuration_HTML.html#228,228,1280,913,1280,1024,8-29-2022,12-34-56,11,depth_duration_stimuli/001032_2014-06-08_13-23-17_260595134347_rgbf000021-resize_3/001032_2014-06-08_13-23-17_260595134347_rgbf000021-resize_3-target.png,1000,3.2725,3,5771,1000,meters,jsons/v1_VE1000_randls_12_rotated.json,851971,1128054,35,Man
11,261565,DepthScenes,duration_manipulation_targetAtFixation,jsons/v1_VE1000_randls_12_rotated.json,http://54.235.29.9/FacialAge/BNav_EC2/DepthDuration/v2_depth_duration_MTurk/v2_DepthDuration_HTML.html#228,228,1280,913,1280,1024,8-29-2022,12-34-56,12,depth_duration_stimuli/001059_2014-06-08_21-53-27_260595134347_rgbf000061-resize_4/001059_2014-06-08_21-53-27_260595134347_rgbf000061-resize_4-target.png,1000,2.4185,2,6488,999,meters,jsons/v1_VE1000_randls_12_rotated.json,851971,1128054,35,Man
12,261565,DepthScenes,duration_manipulation_targetAtFixation,jsons/v1_VE1000_randls_12_rotated.json,http://54.235.29.9/FacialAge/BNav_EC2/DepthDuration/v2_depth_duration_MTurk/v2_DepthDuration_HTML.html#228,228,1280,913,1280,1024,8-29-2022,12-34-56,13,depth_duration_stimuli/001447_2014-06-19_17-00-32_260595134347_rgbf000082-resize_5/001447_2014-06-19_17-00-32_260595134347_rgbf000082-resize_5-target.png,1000,4.13775,0,13964,999,meters,jsons/v1_VE1000_randls_12_rotated.json,851971,1128054,35,Man
13,261565,DepthScenes,duration_manipulation_targetAtFixation,jsons/v1_VE1000_randls_12_rotated.json,http://54.235.29.9/FacialAge/BNav_EC2/DepthDuration/v2_depth_duration_MTurk/v2_DepthDuration_HTML.html#228,228,1280,913,1280,1024,8-29-2022,12-34-56,14,depth_duration_stimuli/000447_2014-06-08_16-15-46_260595134347_rgbf000130-resize_1/000447_2014-06-08_16-15-46_260595134347_rgbf000130-resize_1-target.png,1000,4.479,4,3667,999,meters,jsons/v1_VE1000_randls_12_rotated.json,851971,1128054,35,Man
14,261565,DepthScenes,duration_manipulation_targetAtFixation,jsons/v1_VE1000_randls_12_rotated.json,http://54.235.29.9/FacialAge/BNav_EC2/DepthDuration/v2_depth_duration_MTurk/v2_DepthDuration_HTML.html#228,228,1280,913,1280,1024,8-29-2022,12-34-56,15,depth_duration_stimuli/000556_2014-06-09_22-42-56_260595134347_rgbf000214-resize_1/000556_2014-06-09_22-42-56_260595134347_rgbf000214-resize_1-target.png,1000,4.8415,2,4062,1000,meters,jsons/v1_VE1000_randls_12_rotated.json,851971,1128054,35,Man
15,261565,DepthScenes,duration_manipulation_targetAtFixation,jsons/v1_VE1000_randls_12_rotated.json,http://54.235.29.9/FacialAge/BNav_EC2/DepthDuration/v2_depth_duration_MTurk/v2_DepthDuration_HTML.html#228,228,1280,913,1280,1024,8-29-2022,12-34-56,16,depth_duration_stimuli/001158_2014-06-17_15-32-16_260595134347_rgbf000138-resize_2/001158_2014-06-17_15-32-16_260595134347_rgbf000138-resize_2-target.png,1000,4.5315,0,37513,999,meters,jsons/v1_VE1000_randls_12_rotated.json,851971,1128054,35,Man
16,261565,DepthScenes,duration_manipulation_targetAtFixation,jsons/v1_VE1000_randls_12_rotated.json,http://54.235.29.9/FacialAge/BNav_EC2/DepthDuration/v2_depth_duration_MTurk/v2_DepthDuration_HTML.html#228,228,1280,913,1280,1024,8-29-2022,12-34-56,17,depth_duration_stimuli/000457_2014-06-08_16-52-43_260595134347_rgbf000199-resize_1/000457_2014-06-08_16-52-43_260595134347_rgbf000199-resize_1-target.png,1000,3.6489999999999996,3,4386,996,meters,jsons/v1_VE1000_randls_12_rotated.json,851971,1128054,35,Man
17,261565,DepthScenes,duration_manipulation_targetAtFixation,jsons/v1_VE1000_randls_12_rotated.json,http://54.235.29.9/FacialAge/BNav_EC2/DepthDuration/v2_depth_duration_MTurk/v2_DepthDuration_HTML.html#228,228,1280,913,1280,1024,8-29-2022,12-34-56,18,depth_duration_stimuli/000929_2014-06-09_16-33-19_260595134347_rgbf000139-resize_0/000929_2014-06-09_16-33-19_260595134347_rgbf000139-resize_0-target.png,1000,2.8680000000000003,2,4464,995,meters,jsons/v1_VE1000_randls_12_rotated.json,851971,1128054,35,Man
18,261565,DepthScenes,duration_manipulation_targetAtFixation,jsons/v1_VE1000_randls_12_rotated.json,http://54.235.29.9/FacialAge/BNav_EC2/DepthDuration/v2_depth_duration_MTurk/v2_DepthDuration_HTML.html#228,228,1280,913,1280,1024,8-29-2022,12-34-56,19,depth_duration_stimuli/001498_2014-06-19_17-45-14_260595134347_rgbf000129-resize_4/001498_2014-06-19_17-45-14_260595134347_rgbf000129-resize-original.jpg,1000,1.4075,0,4513,1000,meters,jsons/v1_VE1000_randls_12_rotated.json,851971,1128054,35,Man
19,261565,DepthScenes,duration_manipulation_targetAtFixation,jsons/v1_VE1000_randls_12_rotated.json,http://54.235.29.9/FacialAge/BNav_EC2/DepthDuration/v2_depth_duration_MTurk/v2_DepthDuration_HTML.html#228,228,1280,913,1280,1024,8-29-2022,12-34-56,20,depth_duration_stimuli/002425_2014-06-28_20-27-29_260595134347_rgbf000031-resize_8/002425_2014-06-28_20-27-29_260595134347_rgbf000031-resize_8-target.png,1000,3.8960000000000004,2,4358,995,meters,jsons/v1_VE1000_randls_12_rotated.json,851971,1128054,35,Man
20,261565,DepthScenes,duration_manipulation_targetAtFixation,jsons/v1_VE1000_randls_12_rotated.json,http://54.235.29.9/FacialAge/BNav_EC2/DepthDuration/v2_depth_duration_MTurk/v2_DepthDuration_HTML.html#228,228,1280,913,1280,1024,8-29-2022,12-34-56,21,depth_duration_stimuli/000642_2014-06-08_16-59-25_260595134347_rgbf000098-resize_2/000642_2014-06-08_16-59-25_260595134347_rgbf000098-resize_2-target.png,1000,2.8815,2,2721,1001,meters,jsons/v1_VE1000_randls_12_rotated.json,851971,1128054,35,Man
21,261565,DepthScenes,duration_manipulation_targetAtFixation,jsons/v1_VE1000_randls_12_rotated.json,http://54.235.29.9/FacialAge/BNav_EC2/DepthDuration/v2_depth_duration_MTurk/v2_DepthDuration_HTML.html#228,228,1280,913,1280,1024,8-29-2022,12-34-56,22,depth_duration_stimuli/000780_2014-06-08_22-28-29_260595134347_rgbf000126-resize_1/000780_2014-06-08_22-28-29_260595134347_rgbf000126-resize_1-target.png,1000,3.3825,3,4120,988,meters,jsons/v1_VE1000_randls_12_rotated.json,851971,1128054,35,Man
22,261565,DepthScenes,duration_manipulation_targetAtFixation,jsons/v1_VE1000_randls_12_rotated.json,http://54.235.29.9/FacialAge/BNav_EC2/DepthDuration/v2_depth_duration_MTurk/v2_DepthDuration_HTML.html#228,228,1280,913,1280,1024,8-29-2022,12-34-56,23,depth_duration_stimuli/002445_2014-06-28_20-32-16_260595134347_rgbf000029-resize_4/002445_2014-06-28_20-32-16_260595134347_rgbf000029-resize_4-target.png,1000,2.5315,1,3477,996,meters,jsons/v1_VE1000_randls_12_rotated.json,851971,1128054,35,Man
23,261565,DepthScenes,duration_manipulation_targetAtFixation,jsons/v1_VE1000_randls_12_rotated.json,http://54.235.29.9/FacialAge/BNav_EC2/DepthDuration/v2_depth_duration_MTurk/v2_DepthDuration_HTML.html#228,228,1280,913,1280,1024,8-29-2022,12-34-56,24,depth_duration_stimuli/001571_2014-06-20_17-21-32_260595134347_rgbf000089-resize_1/001571_2014-06-20_17-21-32_260595134347_rgbf000089-resize_1-target.png,1000,1.86,2,3148,1005,meters,jsons/v1_VE1000_randls_12_rotated.json,851971,1128054,35,Man
24,261565,DepthScenes,duration_manipulation_targetAtFixation,jsons/v1_VE1000_randls_12_rotated.json,http://54.235.29.9/FacialAge/BNav_EC2/DepthDuration/v2_depth_duration_MTurk/v2_DepthDuration_HTML.html#228,228,1280,913,1280,1024,8-29-2022,12-34-56,25,depth_duration_stimuli/002272_2014-06-28_18-53-56_260595134347_rgbf000067-resize_2/002272_2014-06-28_18-53-56_260595134347_rgbf000067-resize_2-target.png,1000,1.138,2,3096,1000,meters,jsons/v1_VE1000_randls_12_rotated.json,851971,1128054,35,Man
25,261565,DepthScenes,duration_manipulation_targetAtFixation,jsons/v1_VE1000_randls_12_rotated.json,http://54.235.29.9/FacialAge/BNav_EC2/DepthDuration/v2_depth_duration_MTurk/v2_DepthDuration_HTML.html#228,228,1280,913,1280,1024,8-29-2022,12-34-56,26,depth_duration_stimuli/000502_2014-06-08_23-02-32_260595134347_rgbf000063-resize_4/000502_2014-06-08_23-02-32_260595134347_rgbf000063-resize_4-target.png,1000,2.431,1,3413,1000,meters,jsons/v1_VE1000_randls_12_rotated.json,851971,1128054,35,Man
26,261565,DepthScenes,duration_manipulation_targetAtFixation,jsons/v1_VE1000_randls_12_rotated.json,http://54.235.29.9/FacialAge/BNav_EC2/DepthDuration/v2_depth_duration_MTurk/v2_DepthDuration_HTML.html#228,228,1280,913,1280,1024,8-29-2022,12-34-56,27,depth_duration_stimuli/001199_2014-06-17_16-03-48_260595134347_rgbf000077-resize_0/001199_2014-06-17_16-03-48_260595134347_rgbf000077-resize_0-target.png,1000,3.4375,2,2985,993,meters,jsons/v1_VE1000_randls_12_rotated.json,851971,1128054,35,Man
27,261565,DepthScenes,duration_manipulation_targetAtFixation,jsons/v1_VE1000_randls_12_rotated.json,http://54.235.29.9/FacialAge/BNav_EC2/DepthDuration/v2_depth_duration_MTurk/v2_DepthDuration_HTML.html#228,228,1280,913,1280,1024,8-29-2022,12-34-56,28,depth_duration_stimuli/000943_2014-06-09_19-31-07_260595134347_rgbf000128-resize_1/000943_2014-06-09_19-31-07_260595134347_rgbf000128-resize_1-target.png,1000,1.9765,0,4373,1014,meters,jsons/v1_VE1000_randls_12_rotated.json,851971,1128054,35,Man
28,261565,DepthScenes,duration_manipulation_targetAtFixation,jsons/v1_VE1000_randls_12_rotated.json,http://54.235.29.9/FacialAge/BNav_EC2/DepthDuration/v2_depth_duration_MTurk/v2_DepthDuration_HTML.html#228,228,1280,913,1280,1024,8-29-2022,12-34-56,29,depth_duration_stimuli/003070_2014-06-15_14-58-27_094959634447_rgbf000150-resize_3/003070_2014-06-15_14-58-27_094959634447_rgbf000150-resize_3-target.png,1000,2.9415,0,3156,1001,meters,jsons/v1_VE1000_randls_12_rotated.json,851971,1128054,35,Man
29,261565,DepthScenes,duration_manipulation_targetAtFixation,jsons/v1_VE1000_randls_12_rotated.json,http://54.235.29.9/FacialAge/BNav_EC2/DepthDuration/v2_depth_duration_MTurk/v2_DepthDuration_HTML.html#228,228,1280,913,1280,1024,8-29-2022,12-34-56,30,depth_duration_stimuli/002072_2014-06-24_21-48-06_260595134347_rgbf000115-resize_0/002072_2014-06-24_21-48-06_260595134347_rgbf000115-resize-original.jpg,1000,4.702,0,3719,999,meters,jsons/v1_VE1000_randls_12_rotated.json,851971,1128054,35,Man
30,261565,DepthScenes,duration_manipulation_targetAtFixation,jsons/v1_VE1000_randls_12_rotated.json,http://54.235.29.9/FacialAge/BNav_EC2/DepthDuration/v2_depth_duration_MTurk/v2_DepthDuration_HTML.html#228,228,1280,913,1280,1024,8-29-2022,12-34-56,31,depth_duration_stimuli/001828_2014-06-26_21-40-03_260595134347_rgbf000024-resize_0/001828_2014-06-26_21-40-03_260595134347_rgbf000024-resize_0-target.png,1000,4.8260000000000005,2,3906,986,meters,jsons/v1_VE1000_randls_12_rotated.json,851971,1128054,35,Man
31,261565,DepthScenes,duration_manipulation_targetAtFixation,jsons/v1_VE1000_randls_12_rotated.json,http://54.235.29.9/FacialAge/BNav_EC2/DepthDuration/v2_depth_duration_MTurk/v2_DepthDuration_HTML.html#228,228,1280,913,1280,1024,8-29-2022,12-34-56,32,depth_duration_stimuli/000009_2014-05-26_14-32-05_260595134347_rgbf000034-resize_3/000009_2014-05-26_14-32-05_260595134347_rgbf000034-resize_3-target.png,1000,3.8715,2,2913,999,meters,jsons/v1_VE1000_randls_12_rotated.json,851971,1128054,35,Man
32,261565,DepthScenes,duration_manipulation_targetAtFixation,jsons/v1_VE1000_randls_12_rotated.json,http://54.235.29.9/FacialAge/BNav_EC2/DepthDuration/v2_depth_duration_MTurk/v2_DepthDuration_HTML.html#228,228,1280,913,1280,1024,8-29-2022,12-34-56,33,depth_duration_stimuli/003228_2014-05-14_13-42-35_094959634447_rgbf000101-resize_1/003228_2014-05-14_13-42-35_094959634447_rgbf000101-resize_1-target.png,1000,1.9680000000000002,2,3429,1003,meters,jsons/v1_VE1000_randls_12_rotated.json,851971,1128054,35,Man
33,261565,DepthScenes,duration_manipulation_targetAtFixation,jsons/v1_VE1000_randls_12_rotated.json,http://54.235.29.9/FacialAge/BNav_EC2/DepthDuration/v2_depth_duration_MTurk/v2_DepthDuration_HTML.html#228,228,1280,913,1280,1024,8-29-2022,12-34-56,34,depth_duration_stimuli/002600_2014-06-24_14-27-04_094959634447_rgbf000074-resize_2/002600_2014-06-24_14-27-04_094959634447_rgbf000074-resize_2-target.png,1000,2.7575,2,3308,1000,meters,jsons/v1_VE1000_randls_12_rotated.json,851971,1128054,35,Man
34,261565,DepthScenes,duration_manipulation_targetAtFixation,jsons/v1_VE1000_randls_12_rotated.json,http://54.235.29.9/FacialAge/BNav_EC2/DepthDuration/v2_depth_duration_MTurk/v2_DepthDuration_HTML.html#228,228,1280,913,1280,1024,8-29-2022,12-34-56,35,depth_duration_stimuli/002949_2014-06-26_15-57-42_094959634447_rgbf000079-resize_1/002949_2014-06-26_15-57-42_094959634447_rgbf000079-resize_1-target.png,1000,1.8915,2,3065,1005,meters,jsons/v1_VE1000_randls_12_rotated.json,851971,1128054,35,Man
35,261565,DepthScenes,duration_manipulation_targetAtFixation,jsons/v1_VE1000_randls_12_rotated.json,http://54.235.29.9/FacialAge/BNav_EC2/DepthDuration/v2_depth_duration_MTurk/v2_DepthDuration_HTML.html#228,228,1280,913,1280,1024,8-29-2022,12-34-56,36,depth_duration_stimuli/000522_2014-06-08_13-35-06_260595134347_rgbf000244-resize_1/000522_2014-06-08_13-35-06_260595134347_rgbf000244-resize_1-target.png,1000,2.3715,1,4002,1005,meters,jsons/v1_VE1000_randls_12_rotated.json,851971,1128054,35,Man
36,261565,DepthScenes,duration_manipulation_targetAtFixation,jsons/v1_VE1000_randls_12_rotated.json,http://54.235.29.9/FacialAge/BNav_EC2/DepthDuration/v2_depth_duration_MTurk/v2_DepthDuration_HTML.html#228,228,1280,913,1280,1024,8-29-2022,12-34-56,37,depth_duration_stimuli/001584_2014-06-20_11-07-43_260595134347_rgbf000002-resize_1/001584_2014-06-20_11-07-43_260595134347_rgbf000002-resize_1-target.png,1000,3.53,2,3098,1000,meters,jsons/v1_VE1000_randls_12_rotated.json,851971,1128054,35,Man
37,261565,DepthScenes,duration_manipulation_targetAtFixation,jsons/v1_VE1000_randls_12_rotated.json,http://54.235.29.9/FacialAge/BNav_EC2/DepthDuration/v2_depth_duration_MTurk/v2_DepthDuration_HTML.html#228,228,1280,913,1280,1024,8-29-2022,12-34-56,38,depth_duration_stimuli/003621_2014-05-23_18-06-08_094959634447_rgbf000101-resize_1/003621_2014-05-23_18-06-08_094959634447_rgbf000101-resize_1-target.png,1000,3.9835,3,3121,1000,meters,jsons/v1_VE1000_randls_12_rotated.json,851971,1128054,35,Man
38,261565,DepthScenes,duration_manipulation_targetAtFixation,jsons/v1_VE1000_randls_12_rotated.json,http://54.235.29.9/FacialAge/BNav_EC2/DepthDuration/v2_depth_duration_MTurk/v2_DepthDuration_HTML.html#228,228,1280,913,1280,1024,8-29-2022,12-34-56,39,depth_duration_stimuli/001132_2014-06-17_14-48-54_260595134347_rgbf000100-resize_2/001132_2014-06-17_14-48-54_260595134347_rgbf000100-resize_2-target.png,1000,3.753,2,2873,997,meters,jsons/v1_VE1000_randls_12_rotated.json,851971,1128054,35,Man
39,261565,DepthScenes,duration_manipulation_targetAtFixation,jsons/v1_VE1000_randls_12_rotated.json,http://54.235.29.9/FacialAge/BNav_EC2/DepthDuration/v2_depth_duration_MTurk/v2_DepthDuration_HTML.html#228,228,1280,913,1280,1024,8-29-2022,12-34-56,40,depth_duration_stimuli/001133_2014-06-17_14-49-16_260595134347_rgbf000100-resize_0/001133_2014-06-17_14-49-16_260595134347_rgbf000100-resize_0-target.png,1000,4.2115,2,2514,1000,meters,jsons/v1_VE1000_randls_12_rotated.json,851971,1128054,35,Man
40,261565,DepthScenes,duration_manipulation_targetAtFixation,jsons/v1_VE1000_randls_12_rotated.json,http://54.235.29.9/FacialAge/BNav_EC2/DepthDuration/v2_depth_duration_MTurk/v2_DepthDuration_HTML.html#228,228,1280,913,1280,1024,8-29-2022,12-34-56,41,depth_duration_stimuli/003490_2014-05-21_15-50-11_094959634447_rgbf000101-resize_3/003490_2014-05-21_15-50-11_094959634447_rgbf000101-resize_3-target.png,1000,3.6445,1,4219,1001,meters,jsons/v1_VE1000_randls_12_rotated.json,851971,1128054,35,Man
41,261565,DepthScenes,duration_manipulation_targetAtFixation,jsons/v1_VE1000_randls_12_rotated.json,http://54.235.29.9/FacialAge/BNav_EC2/DepthDuration/v2_depth_duration_MTurk/v2_DepthDuration_HTML.html#228,228,1280,913,1280,1024,8-29-2022,12-34-56,42,depth_duration_stimuli/001175_2014-06-17_15-45-55_260595134347_rgbf000129-resize_4/001175_2014-06-17_15-45-55_260595134347_rgbf000129-resize_4-target.png,1000,4.255,3,4396,1000,meters,jsons/v1_VE1000_randls_12_rotated.json,851971,1128054,35,Man
42,261565,DepthScenes,duration_manipulation_targetAtFixation,jsons/v1_VE1000_randls_12_rotated.json,http://54.235.29.9/FacialAge/BNav_EC2/DepthDuration/v2_depth_duration_MTurk/v2_DepthDuration_HTML.html#228,228,1280,913,1280,1024,8-29-2022,12-34-56,43,depth_duration_stimuli/001516_2014-06-20_16-25-09_260595134347_rgbf000076-resize_2/001516_2014-06-20_16-25-09_260595134347_rgbf000076-resize_2-target.png,1000,1.7445,2,4779,1000,meters,jsons/v1_VE1000_randls_12_rotated.json,851971,1128054,35,Man
43,261565,DepthScenes,duration_manipulation_targetAtFixation,jsons/v1_VE1000_randls_12_rotated.json,http://54.235.29.9/FacialAge/BNav_EC2/DepthDuration/v2_depth_duration_MTurk/v2_DepthDuration_HTML.html#228,228,1280,913,1280,1024,8-29-2022,12-34-56,44,depth_duration_stimuli/002118_2014-06-25_20-32-08_260595134347_rgbf000078-resize_1/002118_2014-06-25_20-32-08_260595134347_rgbf000078-resize_1-target.png,1000,2.6460000000000004,2,4112,999,meters,jsons/v1_VE1000_randls_12_rotated.json,851971,1128054,35,Man
44,261565,DepthScenes,duration_manipulation_targetAtFixation,jsons/v1_VE1000_randls_12_rotated.json,http://54.235.29.9/FacialAge/BNav_EC2/DepthDuration/v2_depth_duration_MTurk/v2_DepthDuration_HTML.html#228,228,1280,913,1280,1024,8-29-2022,12-34-56,45,depth_duration_stimuli/002758_2014-06-22_19-11-20_094959634447_rgbf000128-resize_1/002758_2014-06-22_19-11-20_094959634447_rgbf000128-resize_1-target.png,1000,2.555,1,3113,988,meters,jsons/v1_VE1000_randls_12_rotated.json,851971,1128054,35,Man
45,261565,DepthScenes,duration_manipulation_targetAtFixation,jsons/v1_VE1000_randls_12_rotated.json,http://54.235.29.9/FacialAge/BNav_EC2/DepthDuration/v2_depth_duration_MTurk/v2_DepthDuration_HTML.html#228,228,1280,913,1280,1024,8-29-2022,12-34-56,46,depth_duration_stimuli/002630_2014-06-24_14-47-50_094959634447_rgbf000055-resize_1/002630_2014-06-24_14-47-50_094959634447_rgbf000055-resize_1-target.png,1000,3.0095,3,2606,988,meters,jsons/v1_VE1000_randls_12_rotated.json,851971,1128054,35,Man
46,261565,DepthScenes,duration_manipulation_targetAtFixation,jsons/v1_VE1000_randls_12_rotated.json,http://54.235.29.9/FacialAge/BNav_EC2/DepthDuration/v2_depth_duration_MTurk/v2_DepthDuration_HTML.html#228,228,1280,913,1280,1024,8-29-2022,12-34-56,47,depth_duration_stimuli/000137_2014-05-20_17-04-49_260595134347_rgbf000120-resize_1/000137_2014-05-20_17-04-49_260595134347_rgbf000120-resize_1-target.png,1000,3.786,2,2848,997,meters,jsons/v1_VE1000_randls_12_rotated.json,851971,1128054,35,Man
47,261565,DepthScenes,duration_manipulation_targetAtFixation,jsons/v1_VE1000_randls_12_rotated.json,http://54.235.29.9/FacialAge/BNav_EC2/DepthDuration/v2_depth_duration_MTurk/v2_DepthDuration_HTML.html#228,228,1280,913,1280,1024,8-29-2022,12-34-56,48,depth_duration_stimuli/000736_2014-06-08_18-24-15_260595134347_rgbf000206-resize_3/000736_2014-06-08_18-24-15_260595134347_rgbf000206-resize_3-target.png,1000,3.515,2,2452,995,meters,jsons/v1_VE1000_randls_12_rotated.json,851971,1128054,35,Man
48,261565,DepthScenes,duration_manipulation_targetAtFixation,jsons/v1_VE1000_randls_12_rotated.json,http://54.235.29.9/FacialAge/BNav_EC2/DepthDuration/v2_depth_duration_MTurk/v2_DepthDuration_HTML.html#228,228,1280,913,1280,1024,8-29-2022,12-34-56,49,depth_duration_stimuli/001170_2014-06-17_15-43-44_260595134347_rgbf000096-resize_6/001170_2014-06-17_15-43-44_260595134347_rgbf000096-resize-original.jpg,1000,1.1909999999999998,0,3226,1001,meters,jsons/v1_VE1000_randls_12_rotated.json,851971,1128054,35,Man
49,261565,DepthScenes,duration_manipulation_targetAtFixation,jsons/v1_VE1000_randls_12_rotated.json,http://54.235.29.9/FacialAge/BNav_EC2/DepthDuration/v2_depth_duration_MTurk/v2_DepthDuration_HTML.html#228,228,1280,913,1280,1024,8-29-2022,12-34-56,50,depth_duration_stimuli/003338_2014-05-20_11-01-23_094959634447_rgbf000051-resize_6/003338_2014-05-20_11-01-23_094959634447_rgbf000051-resize_6-target.png,1000,1.693,2,3165,1009,meters,jsons/v1_VE1000_randls_12_rotated.json,851971,1128054,35,Man
50,261565,DepthScenes,duration_manipulation_targetAtFixation,jsons/v1_VE1000_randls_12_rotated.json,http://54.235.29.9/FacialAge/BNav_EC2/DepthDuration/v2_depth_duration_MTurk/v2_DepthDuration_HTML.html#228,228,1280,913,1280,1024,8-29-2022,12-34-56,51,depth_duration_stimuli/002509_2014-06-24_13-19-22_094959634447_rgbf000077-resize_0/002509_2014-06-24_13-19-22_094959634447_rgbf000077-resize_0-target.png,1000,1.3065,2,2823,1000,meters,jsons/v1_VE1000_randls_12_rotated.json,851971,1128054,35,Man
51,261565,DepthScenes,duration_manipulation_targetAtFixation,jsons/v1_VE1000_randls_12_rotated.json,http://54.235.29.9/FacialAge/BNav_EC2/DepthDuration/v2_depth_duration_MTurk/v2_DepthDuration_HTML.html#228,228,1280,913,1280,1024,8-29-2022,12-34-56,52,depth_duration_stimuli/003423_2014-05-21_10-23-26_094959634447_rgbf002665-resize_2/003423_2014-05-21_10-23-26_094959634447_rgbf002665-resize_2-target.png,1000,3.2575,3,3404,1000,meters,jsons/v1_VE1000_randls_12_rotated.json,851971,1128054,35,Man
52,261565,DepthScenes,duration_manipulation_targetAtFixation,jsons/v1_VE1000_randls_12_rotated.json,http://54.235.29.9/FacialAge/BNav_EC2/DepthDuration/v2_depth_duration_MTurk/v2_DepthDuration_HTML.html#228,228,1280,913,1280,1024,8-29-2022,12-34-56,53,depth_duration_stimuli/002905_2014-06-03_18-04-43_094959634447_rgbf000151-resize_2/002905_2014-06-03_18-04-43_094959634447_rgbf000151-resize_2-target.png,1000,2.0295,1,2700,1000,meters,jsons/v1_VE1000_randls_12_rotated.json,851971,1128054,35,Man
53,261565,DepthScenes,duration_manipulation_targetAtFixation,jsons/v1_VE1000_randls_12_rotated.json,http://54.235.29.9/FacialAge/BNav_EC2/DepthDuration/v2_depth_duration_MTurk/v2_DepthDuration_HTML.html#228,228,1280,913,1280,1024,8-29-2022,12-34-56,54,depth_duration_stimuli/002657_2014-06-13_15-29-54_094959634447_rgbf000150-resize_1/002657_2014-06-13_15-29-54_094959634447_rgbf000150-resize_1-target.png,1000,4.919,1,3579,1000,meters,jsons/v1_VE1000_randls_12_rotated.json,851971,1128054,35,Man
54,261565,DepthScenes,duration_manipulation_targetAtFixation,jsons/v1_VE1000_randls_12_rotated.json,http://54.235.29.9/FacialAge/BNav_EC2/DepthDuration/v2_depth_duration_MTurk/v2_DepthDuration_HTML.html#228,228,1280,913,1280,1024,8-29-2022,12-34-56,55,depth_duration_stimuli/002375_2014-06-28_20-13-44_260595134347_rgbf000032-resize_1/002375_2014-06-28_20-13-44_260595134347_rgbf000032-resize_1-target.png,1000,4.0175,2,2563,1000,meters,jsons/v1_VE1000_randls_12_rotated.json,851971,1128054,35,Man
55,261565,DepthScenes,duration_manipulation_targetAtFixation,jsons/v1_VE1000_randls_12_rotated.json,http://54.235.29.9/FacialAge/BNav_EC2/DepthDuration/v2_depth_duration_MTurk/v2_DepthDuration_HTML.html#228,228,1280,913,1280,1024,8-29-2022,12-34-56,56,depth_duration_stimuli/002414_2014-06-28_20-24-58_260595134347_rgbf000067-resize_4/002414_2014-06-28_20-24-58_260595134347_rgbf000067-resize_4-target.png,1000,4.363,3,3314,1001,meters,jsons/v1_VE1000_randls_12_rotated.json,851971,1128054,35,Man
56,261565,DepthScenes,duration_manipulation_targetAtFixation,jsons/v1_VE1000_randls_12_rotated.json,http://54.235.29.9/FacialAge/BNav_EC2/DepthDuration/v2_depth_duration_MTurk/v2_DepthDuration_HTML.html#228,228,1280,913,1280,1024,8-29-2022,12-34-56,57,depth_duration_stimuli/000773_2014-06-08_22-24-54_260595134347_rgbf000093-resize_1/000773_2014-06-08_22-24-54_260595134347_rgbf000093-resize_1-target.png,1000,4.973,3,2853,1000,meters,jsons/v1_VE1000_randls_12_rotated.json,851971,1128054,35,Man
57,261565,DepthScenes,duration_manipulation_targetAtFixation,jsons/v1_VE1000_randls_12_rotated.json,http://54.235.29.9/FacialAge/BNav_EC2/DepthDuration/v2_depth_duration_MTurk/v2_DepthDuration_HTML.html#228,228,1280,913,1280,1024,8-29-2022,12-34-56,58,depth_duration_stimuli/001650_2014-06-20_12-09-00_260595134347_rgbf000087-resize_3/001650_2014-06-20_12-09-00_260595134347_rgbf000087-resize_3-target.png,1000,1.9505,2,3019,1001,meters,jsons/v1_VE1000_randls_12_rotated.json,851971,1128054,35,Man
58,261565,DepthScenes,duration_manipulation_targetAtFixation,jsons/v1_VE1000_randls_12_rotated.json,http://54.235.29.9/FacialAge/BNav_EC2/DepthDuration/v2_depth_duration_MTurk/v2_DepthDuration_HTML.html#228,228,1280,913,1280,1024,8-29-2022,12-34-56,59,depth_duration_stimuli/000682_2014-06-08_23-14-58_260595134347_rgbf000041-resize_5/000682_2014-06-08_23-14-58_260595134347_rgbf000041-resize_5-target.png,1000,2.7239999999999998,2,2769,1000,meters,jsons/v1_VE1000_randls_12_rotated.json,851971,1128054,35,Man
59,261565,DepthScenes,duration_manipulation_targetAtFixation,jsons/v1_VE1000_randls_12_rotated.json,http://54.235.29.9/FacialAge/BNav_EC2/DepthDuration/v2_depth_duration_MTurk/v2_DepthDuration_HTML.html#228,228,1280,913,1280,1024,8-29-2022,12-34-56,60,depth_duration_stimuli/000549_2014-06-08_22-10-24_260595134347_rgbf000247-resize_3/000549_2014-06-08_22-10-24_260595134347_rgbf000247-resize_3-target.png,1000,1.841,2,2877,1000,meters,jsons/v1_VE1000_randls_12_rotated.json,851971,1128054,35,Man
60,261565,DepthScenes,duration_manipulation_targetAtFixation,jsons/v1_VE1000_randls_12_rotated.json,http://54.235.29.9/FacialAge/BNav_EC2/DepthDuration/v2_depth_duration_MTurk/v2_DepthDuration_HTML.html#228,228,1280,913,1280,1024,8-29-2022,12-34-56,61,depth_duration_stimuli/001055_2014-06-08_18-45-35_260595134347_rgbf000111-resize_4/001055_2014-06-08_18-45-35_260595134347_rgbf000111-resize_4-target.png,1000,2.4290000000000003,3,2945,1000,meters,jsons/v1_VE1000_randls_12_rotated.json,851971,1128054,35,Man
61,261565,DepthScenes,duration_manipulation_targetAtFixation,jsons/v1_VE1000_randls_12_rotated.json,http://54.235.29.9/FacialAge/BNav_EC2/DepthDuration/v2_depth_duration_MTurk/v2_DepthDuration_HTML.html#228,228,1280,913,1280,1024,8-29-2022,12-34-56,62,depth_duration_stimuli/002467_2014-06-28_20-38-07_260595134347_rgbf000026-resize_2/002467_2014-06-28_20-38-07_260595134347_rgbf000026-resize_2-target.png,1000,4.742,2,3393,1000,meters,jsons/v1_VE1000_randls_12_rotated.json,851971,1128054,35,Man
62,261565,DepthScenes,duration_manipulation_targetAtFixation,jsons/v1_VE1000_randls_12_rotated.json,http://54.235.29.9/FacialAge/BNav_EC2/DepthDuration/v2_depth_duration_MTurk/v2_DepthDuration_HTML.html#228,228,1280,913,1280,1024,8-29-2022,12-34-56,63,depth_duration_stimuli/002570_2014-06-24_13-59-54_094959634447_rgbf000059-resize_0/002570_2014-06-24_13-59-54_094959634447_rgbf000059-resize_0-target.png,1000,4.037,3,3404,1000,meters,jsons/v1_VE1000_randls_12_rotated.json,851971,1128054,35,Man
63,261565,DepthScenes,duration_manipulation_targetAtFixation,jsons/v1_VE1000_randls_12_rotated.json,http://54.235.29.9/FacialAge/BNav_EC2/DepthDuration/v2_depth_duration_MTurk/v2_DepthDuration_HTML.html#228,228,1280,913,1280,1024,8-29-2022,12-34-56,64,depth_duration_stimuli/002995_2014-06-15_12-31-26_094959634447_rgbf000150-resize_1/002995_2014-06-15_12-31-26_094959634447_rgbf000150-resize_1-target.png,1000,3.8360000000000003,2,3056,1000,meters,jsons/v1_VE1000_randls_12_rotated.json,851971,1128054,35,Man
64,261565,DepthScenes,duration_manipulation_targetAtFixation,jsons/v1_VE1000_randls_12_rotated.json,http://54.235.29.9/FacialAge/BNav_EC2/DepthDuration/v2_depth_duration_MTurk/v2_DepthDuration_HTML.html#228,228,1280,913,1280,1024,8-29-2022,12-34-56,65,depth_duration_stimuli/002748_2014-06-22_19-07-22_094959634447_rgbf000078-resize_1/002748_2014-06-22_19-07-22_094959634447_rgbf000078-resize_1-target.png,1000,4.6705,3,2810,997,meters,jsons/v1_VE1000_randls_12_rotated.json,851971,1128054,35,Man
65,261565,DepthScenes,duration_manipulation_targetAtFixation,jsons/v1_VE1000_randls_12_rotated.json,http://54.235.29.9/FacialAge/BNav_EC2/DepthDuration/v2_depth_duration_MTurk/v2_DepthDuration_HTML.html#228,228,1280,913,1280,1024,8-29-2022,12-34-56,66,depth_duration_stimuli/001540_2014-06-20_17-01-05_260595134347_rgbf000086-resize_2/001540_2014-06-20_17-01-05_260595134347_rgbf000086-resize-original.jpg,1000,1.459,0,3428,1000,meters,jsons/v1_VE1000_randls_12_rotated.json,851971,1128054,35,Man
66,261565,DepthScenes,duration_manipulation_targetAtFixation,jsons/v1_VE1000_randls_12_rotated.json,http://54.235.29.9/FacialAge/BNav_EC2/DepthDuration/v2_depth_duration_MTurk/v2_DepthDuration_HTML.html#228,228,1280,913,1280,1024,8-29-2022,12-34-56,67,depth_duration_stimuli/002209_2014-06-28_18-36-10_260595134347_rgbf000051-resize_1/002209_2014-06-28_18-36-10_260595134347_rgbf000051-resize_1-target.png,1000,2.057,2,2844,1000,meters,jsons/v1_VE1000_randls_12_rotated.json,851971,1128054,35,Man
67,261565,DepthScenes,duration_manipulation_targetAtFixation,jsons/v1_VE1000_randls_12_rotated.json,http://54.235.29.9/FacialAge/BNav_EC2/DepthDuration/v2_depth_duration_MTurk/v2_DepthDuration_HTML.html#228,228,1280,913,1280,1024,8-29-2022,12-34-56,68,depth_duration_stimuli/002763_2014-06-22_19-13-10_094959634447_rgbf000075-resize_4/002763_2014-06-22_19-13-10_094959634447_rgbf000075-resize_4-target.png,1000,1.68375,2,2460,1000,meters,jsons/v1_VE1000_randls_12_rotated.json,851971,1128054,35,Man
68,261565,DepthScenes,duration_manipulation_targetAtFixation,jsons/v1_VE1000_randls_12_rotated.json,http://54.235.29.9/FacialAge/BNav_EC2/DepthDuration/v2_depth_duration_MTurk/v2_DepthDuration_HTML.html#228,228,1280,913,1280,1024,8-29-2022,12-34-56,69,depth_duration_stimuli/002545_2014-06-24_13-38-53_094959634447_rgbf000080-resize_4/002545_2014-06-24_13-38-53_094959634447_rgbf000080-resize_4-target.png,1000,1.9205,1,3372,1000,meters,jsons/v1_VE1000_randls_12_rotated.json,851971,1128054,35,Man
69,261565,DepthScenes,duration_manipulation_targetAtFixation,jsons/v1_VE1000_randls_12_rotated.json,http://54.235.29.9/FacialAge/BNav_EC2/DepthDuration/v2_depth_duration_MTurk/v2_DepthDuration_HTML.html#228,228,1280,913,1280,1024,8-29-2022,12-34-56,70,depth_duration_stimuli/001092_2014-06-15_17-34-58_260595134347_rgbf000171-resize_3/001092_2014-06-15_17-34-58_260595134347_rgbf000171-resize_3-target.png,1000,2.6935,2,7904,1001,meters,jsons/v1_VE1000_randls_12_rotated.json,851971,1128054,35,Man
70,261565,DepthScenes,duration_manipulation_targetAtFixation,jsons/v1_VE1000_randls_12_rotated.json,http://54.235.29.9/FacialAge/BNav_EC2/DepthDuration/v2_depth_duration_MTurk/v2_DepthDuration_HTML.html#228,228,1280,913,1280,1024,8-29-2022,12-34-56,71,depth_duration_stimuli/002568_2014-06-24_13-59-21_094959634447_rgbf000062-resize_4/002568_2014-06-24_13-59-21_094959634447_rgbf000062-resize_4-target.png,1000,3.015,2,6840,1001,meters,jsons/v1_VE1000_randls_12_rotated.json,851971,1128054,35,Man
71,261565,DepthScenes,duration_manipulation_targetAtFixation,jsons/v1_VE1000_randls_12_rotated.json,http://54.235.29.9/FacialAge/BNav_EC2/DepthDuration/v2_depth_duration_MTurk/v2_DepthDuration_HTML.html#228,228,1280,913,1280,1024,8-29-2022,12-34-56,72,depth_duration_stimuli/003492_2014-05-21_15-50-55_094959634447_rgbf000828-resize_1/003492_2014-05-21_15-50-55_094959634447_rgbf000828-resize_1-target.png,1000,4.06875,2,6955,1000,meters,jsons/v1_VE1000_randls_12_rotated.json,851971,1128054,35,Man
72,261565,DepthScenes,duration_manipulation_targetAtFixation,jsons/v1_VE1000_randls_12_rotated.json,http://54.235.29.9/FacialAge/BNav_EC2/DepthDuration/v2_depth_duration_MTurk/v2_DepthDuration_HTML.html#228,228,1280,913,1280,1024,8-29-2022,12-34-56,73,depth_duration_stimuli/001450_2014-06-19_17-02-03_260595134347_rgbf000203-resize_4/001450_2014-06-19_17-02-03_260595134347_rgbf000203-resize_4-target.png,1000,4.0106666666667,2,3703,999,meters,jsons/v1_VE1000_randls_12_rotated.json,851971,1128054,35,Man
73,261565,DepthScenes,duration_manipulation_targetAtFixation,jsons/v1_VE1000_randls_12_rotated.json,http://54.235.29.9/FacialAge/BNav_EC2/DepthDuration/v2_depth_duration_MTurk/v2_DepthDuration_HTML.html#228,228,1280,913,1280,1024,8-29-2022,12-34-56,74,depth_duration_stimuli/001449_2014-06-19_17-01-27_260595134347_rgbf000116-resize_2/001449_2014-06-19_17-01-27_260595134347_rgbf000116-resize_2-target.png,1000,3.452,1,4263,999,meters,jsons/v1_VE1000_randls_12_rotated.json,851971,1128054,35,Man
74,261565,DepthScenes,duration_manipulation_targetAtFixation,jsons/v1_VE1000_randls_12_rotated.json,http://54.235.29.9/FacialAge/BNav_EC2/DepthDuration/v2_depth_duration_MTurk/v2_DepthDuration_HTML.html#228,228,1280,913,1280,1024,8-29-2022,12-34-56,75,depth_duration_stimuli/001100_2014-06-15_17-46-26_260595134347_rgbf000225-resize_2/001100_2014-06-15_17-46-26_260595134347_rgbf000225-resize_2-target.png,1000,2.24,2,6899,999,meters,jsons/v1_VE1000_randls_12_rotated.json,851971,1128054,35,Man
75,261565,DepthScenes,duration_manipulation_targetAtFixation,jsons/v1_VE1000_randls_12_rotated.json,http://54.235.29.9/FacialAge/BNav_EC2/DepthDuration/v2_depth_duration_MTurk/v2_DepthDuration_HTML.html#228,228,1280,913,1280,1024,8-29-2022,12-34-56,76,depth_duration_stimuli/002784_2014-06-22_19-26-30_094959634447_rgbf000083-resize_3/002784_2014-06-22_19-26-30_094959634447_rgbf000083-resize_3-target.png,1000,1.8046666666667,1,4609,1001,meters,jsons/v1_VE1000_randls_12_rotated.json,851971,1128054,35,Man
76,261565,DepthScenes,duration_manipulation_targetAtFixation,jsons/v1_VE1000_randls_12_rotated.json,http://54.235.29.9/FacialAge/BNav_EC2/DepthDuration/v2_depth_duration_MTurk/v2_DepthDuration_HTML.html#228,228,1280,913,1280,1024,8-29-2022,12-34-56,77,depth_duration_stimuli/001052_2014-06-08_18-24-54_260595134347_rgbf000130-resize_1/001052_2014-06-08_18-24-54_260595134347_rgbf000130-resize_1-target.png,1000,4.1045,2,38357,999,meters,jsons/v1_VE1000_randls_12_rotated.json,851971,1128054,35,Man
77,261565,DepthScenes,duration_manipulation_targetAtFixation,jsons/v1_VE1000_randls_12_rotated.json,http://54.235.29.9/FacialAge/BNav_EC2/DepthDuration/v2_depth_duration_MTurk/v2_DepthDuration_HTML.html#228,228,1280,913,1280,1024,8-29-2022,12-34-56,78,depth_duration_stimuli/002988_2014-06-15_12-24-20_094959634447_rgbf000150-resize_1/002988_2014-06-15_12-24-20_094959634447_rgbf000150-resize_1-target.png,1000,4.7669999999999995,3,2922,1000,meters,jsons/v1_VE1000_randls_12_rotated.json,851971,1128054,35,Man
78,261565,DepthScenes,duration_manipulation_targetAtFixation,jsons/v1_VE1000_randls_12_rotated.json,http://54.235.29.9/FacialAge/BNav_EC2/DepthDuration/v2_depth_duration_MTurk/v2_DepthDuration_HTML.html#228,228,1280,913,1280,1024,8-29-2022,12-34-56,79,depth_duration_stimuli/002639_2014-06-24_14-51-37_094959634447_rgbf000074-resize_4/002639_2014-06-24_14-51-37_094959634447_rgbf000074-resize_4-target.png,1000,4.0375,1,5656,999,meters,jsons/v1_VE1000_randls_12_rotated.json,851971,1128054,35,Man
79,261565,DepthScenes,duration_manipulation_targetAtFixation,jsons/v1_VE1000_randls_12_rotated.json,http://54.235.29.9/FacialAge/BNav_EC2/DepthDuration/v2_depth_duration_MTurk/v2_DepthDuration_HTML.html#228,228,1280,913,1280,1024,8-29-2022,12-34-56,80,depth_duration_stimuli/003292_2014-05-14_21-53-49_094959634447_rgbf000100-resize_2/003292_2014-05-14_21-53-49_094959634447_rgbf000100-resize_2-target.png,1000,3.4815,1,2566,1000,meters,jsons/v1_VE1000_randls_12_rotated.json,851971,1128054,35,Man
80,261565,DepthScenes,duration_manipulation_targetAtFixation,jsons/v1_VE1000_randls_12_rotated.json,http://54.235.29.9/FacialAge/BNav_EC2/DepthDuration/v2_depth_duration_MTurk/v2_DepthDuration_HTML.html#228,228,1280,913,1280,1024,8-29-2022,12-34-56,81,depth_duration_stimuli/002199_2014-06-28_18-33-56_260595134347_rgbf000074-resize_0/002199_2014-06-28_18-33-56_260595134347_rgbf000074-resize_0-target.png,1000,1.996,1,3483,1001,meters,jsons/v1_VE1000_randls_12_rotated.json,851971,1128054,35,Man
81,261565,DepthScenes,duration_manipulation_targetAtFixation,jsons/v1_VE1000_randls_12_rotated.json,http://54.235.29.9/FacialAge/BNav_EC2/DepthDuration/v2_depth_duration_MTurk/v2_DepthDuration_HTML.html#228,228,1280,913,1280,1024,8-29-2022,12-34-56,82,depth_duration_stimuli/001056_2014-06-08_18-46-44_260595134347_rgbf000068-resize_0/001056_2014-06-08_18-46-44_260595134347_rgbf000068-resize_0-target.png,1000,2.6625,1,4182,996,meters,jsons/v1_VE1000_randls_12_rotated.json,851971,1128054,35,Man
82,261565,DepthScenes,duration_manipulation_targetAtFixation,jsons/v1_VE1000_randls_12_rotated.json,http://54.235.29.9/FacialAge/BNav_EC2/DepthDuration/v2_depth_duration_MTurk/v2_DepthDuration_HTML.html#228,228,1280,913,1280,1024,8-29-2022,12-34-56,83,depth_duration_stimuli/000409_2014-06-04_19-23-33_260595134347_rgbf000067-resize_0/000409_2014-06-04_19-23-33_260595134347_rgbf000067-resize_0-target.png,1000,3.7335,1,4357,1000,meters,jsons/v1_VE1000_randls_12_rotated.json,851971,1128054,35,Man
83,261565,DepthScenes,duration_manipulation_targetAtFixation,jsons/v1_VE1000_randls_12_rotated.json,http://54.235.29.9/FacialAge/BNav_EC2/DepthDuration/v2_depth_duration_MTurk/v2_DepthDuration_HTML.html#228,228,1280,913,1280,1024,8-29-2022,12-34-56,84,depth_duration_stimuli/002663_2014-06-13_15-50-26_094959634447_rgbf000075-resize_1/002663_2014-06-13_15-50-26_094959634447_rgbf000075-resize_1-target.png,1000,4.7495,2,3354,1000,meters,jsons/v1_VE1000_randls_12_rotated.json,851971,1128054,35,Man
84,261565,DepthScenes,duration_manipulation_targetAtFixation,jsons/v1_VE1000_randls_12_rotated.json,http://54.235.29.9/FacialAge/BNav_EC2/DepthDuration/v2_depth_duration_MTurk/v2_DepthDuration_HTML.html#228,228,1280,913,1280,1024,8-29-2022,12-34-56,85,depth_duration_stimuli/000677_2014-06-08_23-10-32_260595134347_rgbf000158-resize_6/000677_2014-06-08_23-10-32_260595134347_rgbf000158-resize_6-target.png,1000,3.556,2,3884,1000,meters,jsons/v1_VE1000_randls_12_rotated.json,851971,1128054,35,Man
85,261565,DepthScenes,duration_manipulation_targetAtFixation,jsons/v1_VE1000_randls_12_rotated.json,http://54.235.29.9/FacialAge/BNav_EC2/DepthDuration/v2_depth_duration_MTurk/v2_DepthDuration_HTML.html#228,228,1280,913,1280,1024,8-29-2022,12-34-56,86,depth_duration_stimuli/001029_2014-06-08_13-17-57_260595134347_rgbf000065-resize_1/001029_2014-06-08_13-17-57_260595134347_rgbf000065-resize_1-target.png,1000,3.0835,2,2691,1000,meters,jsons/v1_VE1000_randls_12_rotated.json,851971,1128054,35,Man
86,261565,DepthScenes,duration_manipulation_targetAtFixation,jsons/v1_VE1000_randls_12_rotated.json,http://54.235.29.9/FacialAge/BNav_EC2/DepthDuration/v2_depth_duration_MTurk/v2_DepthDuration_HTML.html#228,228,1280,913,1280,1024,8-29-2022,12-34-56,87,depth_duration_stimuli/002344_2014-06-28_20-06-29_260595134347_rgbf000030-resize_1/002344_2014-06-28_20-06-29_260595134347_rgbf000030-resize_1-target.png,1000,1.5795,1,3280,1000,meters,jsons/v1_VE1000_randls_12_rotated.json,851971,1128054,35,Man
87,261565,DepthScenes,duration_manipulation_targetAtFixation,jsons/v1_VE1000_randls_12_rotated.json,http://54.235.29.9/FacialAge/BNav_EC2/DepthDuration/v2_depth_duration_MTurk/v2_DepthDuration_HTML.html#228,228,1280,913,1280,1024,8-29-2022,12-34-56,88,depth_duration_stimuli/002725_2014-06-22_11-47-51_094959634447_rgbf000070-resize_1/002725_2014-06-22_11-47-51_094959634447_rgbf000070-resize_1-target.png,1000,2.195,2,2683,1000,meters,jsons/v1_VE1000_randls_12_rotated.json,851971,1128054,35,Man
88,261565,DepthScenes,duration_manipulation_targetAtFixation,jsons/v1_VE1000_randls_12_rotated.json,http://54.235.29.9/FacialAge/BNav_EC2/DepthDuration/v2_depth_duration_MTurk/v2_DepthDuration_HTML.html#228,228,1280,913,1280,1024,8-29-2022,12-34-56,89,depth_duration_stimuli/003587_2014-05-23_16-48-02_094959634447_rgbf002384-resize_2/003587_2014-05-23_16-48-02_094959634447_rgbf002384-resize_2-target.png,1000,1.357,2,3404,999,meters,jsons/v1_VE1000_randls_12_rotated.json,851971,1128054,35,Man
89,261565,DepthScenes,duration_manipulation_targetAtFixation,jsons/v1_VE1000_randls_12_rotated.json,http://54.235.29.9/FacialAge/BNav_EC2/DepthDuration/v2_depth_duration_MTurk/v2_DepthDuration_HTML.html#228,228,1280,913,1280,1024,8-29-2022,12-34-56,90,depth_duration_stimuli/001167_2014-06-17_15-38-07_260595134347_rgbf000108-resize_0/001167_2014-06-17_15-38-07_260595134347_rgbf000108-resize_0-target.png,1000,1.8505,1,2702,1001,meters,jsons/v1_VE1000_randls_12_rotated.json,851971,1128054,35,Man
90,261565,DepthScenes,duration_manipulation_targetAtFixation,jsons/v1_VE1000_randls_12_rotated.json,http://54.235.29.9/FacialAge/BNav_EC2/DepthDuration/v2_depth_duration_MTurk/v2_DepthDuration_HTML.html#228,228,1280,913,1280,1024,8-29-2022,12-34-56,91,depth_duration_stimuli/002750_2014-06-22_19-08-03_094959634447_rgbf000094-resize_4/002750_2014-06-22_19-08-03_094959634447_rgbf000094-resize_4-target.png,1000,2.354,2,3691,1000,meters,jsons/v1_VE1000_randls_12_rotated.json,851971,1128054,35,Man
91,261565,DepthScenes,duration_manipulation_targetAtFixation,jsons/v1_VE1000_randls_12_rotated.json,http://54.235.29.9/FacialAge/BNav_EC2/DepthDuration/v2_depth_duration_MTurk/v2_DepthDuration_HTML.html#228,228,1280,913,1280,1024,8-29-2022,12-34-56,92,depth_duration_stimuli/002549_2014-06-24_13-41-39_094959634447_rgbf000022-resize_3/002549_2014-06-24_13-41-39_094959634447_rgbf000022-resize_3-target.png,1000,1.476,2,3058,1001,meters,jsons/v1_VE1000_randls_12_rotated.json,851971,1128054,35,Man
92,261565,DepthScenes,duration_manipulation_targetAtFixation,jsons/v1_VE1000_randls_12_rotated.json,http://54.235.29.9/FacialAge/BNav_EC2/DepthDuration/v2_depth_duration_MTurk/v2_DepthDuration_HTML.html#228,228,1280,913,1280,1024,8-29-2022,12-34-56,93,depth_duration_stimuli/002678_2014-06-13_16-15-32_094959634447_rgbf000151-resize_6/002678_2014-06-13_16-15-32_094959634447_rgbf000151-resize_6-target.png,1000,2.1830000000000003,2,6778,1004,meters,jsons/v1_VE1000_randls_12_rotated.json,851971,1128054,35,Man
93,261565,DepthScenes,duration_manipulation_targetAtFixation,jsons/v1_VE1000_randls_12_rotated.json,http://54.235.29.9/FacialAge/BNav_EC2/DepthDuration/v2_depth_duration_MTurk/v2_DepthDuration_HTML.html#228,228,1280,913,1280,1024,8-29-2022,12-34-56,94,depth_duration_stimuli/000368_2014-06-09_15-53-01_260595134347_rgbf000155-resize_2/000368_2014-06-09_15-53-01_260595134347_rgbf000155-resize_2-target.png,1000,2.4859999999999998,2,3244,999,meters,jsons/v1_VE1000_randls_12_rotated.json,851971,1128054,35,Man
94,261565,DepthScenes,duration_manipulation_targetAtFixation,jsons/v1_VE1000_randls_12_rotated.json,http://54.235.29.9/FacialAge/BNav_EC2/DepthDuration/v2_depth_duration_MTurk/v2_DepthDuration_HTML.html#228,228,1280,913,1280,1024,8-29-2022,12-34-56,95,depth_duration_stimuli/002875_2014-06-01_15-19-00_094959634447_rgbf000151-resize_1/002875_2014-06-01_15-19-00_094959634447_rgbf000151-resize_1-target.png,1000,1.9675,1,35150,1001,meters,jsons/v1_VE1000_randls_12_rotated.json,851971,1128054,35,Man
95,261565,DepthScenes,duration_manipulation_targetAtFixation,jsons/v1_VE1000_randls_12_rotated.json,http://54.235.29.9/FacialAge/BNav_EC2/DepthDuration/v2_depth_duration_MTurk/v2_DepthDuration_HTML.html#228,228,1280,913,1280,1024,8-29-2022,12-34-56,96,depth_duration_stimuli/001011_2014-06-08_23-18-54_260595134347_rgbf000044-resize_4/001011_2014-06-08_23-18-54_260595134347_rgbf000044-resize_4-target.png,1000,2.4730000000000003,2,7410,1001,meters,jsons/v1_VE1000_randls_12_rotated.json,851971,1128054,35,Man
96,261565,DepthScenes,duration_manipulation_targetAtFixation,jsons/v1_VE1000_randls_12_rotated.json,http://54.235.29.9/FacialAge/BNav_EC2/DepthDuration/v2_depth_duration_MTurk/v2_DepthDuration_HTML.html#228,228,1280,913,1280,1024,8-29-2022,12-34-56,97,depth_duration_stimuli/001392_2014-06-19_16-07-59_260595134347_rgbf000046-resize_1/001392_2014-06-19_16-07-59_260595134347_rgbf000046-resize_1-target.png,1000,4.135,2,7063,1000,meters,jsons/v1_VE1000_randls_12_rotated.json,851971,1128054,35,Man
97,261565,DepthScenes,duration_manipulation_targetAtFixation,jsons/v1_VE1000_randls_12_rotated.json,http://54.235.29.9/FacialAge/BNav_EC2/DepthDuration/v2_depth_duration_MTurk/v2_DepthDuration_HTML.html#228,228,1280,913,1280,1024,8-29-2022,12-34-56,98,depth_duration_stimuli/001570_2014-06-20_17-21-09_260595134347_rgbf000135-resize_4/001570_2014-06-20_17-21-09_260595134347_rgbf000135-resize_4-target.png,1000,4.467,2,3218,999,meters,jsons/v1_VE1000_randls_12_rotated.json,851971,1128054,35,Man
98,261565,DepthScenes,duration_manipulation_targetAtFixation,jsons/v1_VE1000_randls_12_rotated.json,http://54.235.29.9/FacialAge/BNav_EC2/DepthDuration/v2_depth_duration_MTurk/v2_DepthDuration_HTML.html#228,228,1280,913,1280,1024,8-29-2022,12-34-56,99,depth_duration_stimuli/001222_2014-06-17_16-24-06_260595134347_rgbf000073-resize_0/001222_2014-06-17_16-24-06_260595134347_rgbf000073-resize-original.jpg,1000,1.4385,0,7438,1000,meters,jsons/v1_VE1000_randls_12_rotated.json,851971,1128054,35,Man
99,261565,DepthScenes,duration_manipulation_targetAtFixation,jsons/v1_VE1000_randls_12_rotated.json,http://54.235.29.9/FacialAge/BNav_EC2/DepthDuration/v2_depth_duration_MTurk/v2_DepthDuration_HTML.html#228,228,1280,913,1280,1024,8-29-2022,12-34-56,100,depth_duration_stimuli/002805_2014-06-22_19-54-03_094959634447_rgbf000079-resize_1/002805_2014-06-22_19-54-03_094959634447_rgbf000079-resize_1-target.png,1000,3.1439999999999997,2,56208,999,meters,jsons/v1_VE1000_randls_12_rotated.json,851971,1128054,35,Man
100,261565,DepthScenes,duration_manipulation_targetAtFixation,jsons/v1_VE1000_randls_12_rotated.json,http://54.235.29.9/FacialAge/BNav_EC2/DepthDuration/v2_depth_duration_MTurk/v2_DepthDuration_HTML.html#228,228,1280,913,1280,1024,8-29-2022,12-34-56,101,depth_duration_stimuli/000906_2014-06-08_13-35-43_260595134347_rgbf000155-resize_1/000906_2014-06-08_13-35-43_260595134347_rgbf000155-resize_1-target.png,1000,2.8489999999999998,2,3658,1001,meters,jsons/v1_VE1000_randls_12_rotated.json,851971,1128054,35,Man
101,261565,DepthScenes,duration_manipulation_targetAtFixation,jsons/v1_VE1000_randls_12_rotated.json,http://54.235.29.9/FacialAge/BNav_EC2/DepthDuration/v2_depth_duration_MTurk/v2_DepthDuration_HTML.html#228,228,1280,913,1280,1024,8-29-2022,12-34-56,102,depth_duration_stimuli/000742_2014-06-08_18-48-09_260595134347_rgbf000164-resize_4/000742_2014-06-08_18-48-09_260595134347_rgbf000164-resize_4-target.png,1000,4.632,2,3453,1001,meters,jsons/v1_VE1000_randls_12_rotated.json,851971,1128054,35,Man
102,261565,DepthScenes,duration_manipulation_targetAtFixation,jsons/v1_VE1000_randls_12_rotated.json,http://54.235.29.9/FacialAge/BNav_EC2/DepthDuration/v2_depth_duration_MTurk/v2_DepthDuration_HTML.html#228,228,1280,913,1280,1024,8-29-2022,12-34-56,103,depth_duration_stimuli/001066_2014-06-08_22-03-20_260595134347_rgbf000066-resize_4/001066_2014-06-08_22-03-20_260595134347_rgbf000066-resize_4-target.png,1000,4.2330000000000005,2,3362,1000,meters,jsons/v1_VE1000_randls_12_rotated.json,851971,1128054,35,Man
103,261565,DepthScenes,duration_manipulation_targetAtFixation,jsons/v1_VE1000_randls_12_rotated.json,http://54.235.29.9/FacialAge/BNav_EC2/DepthDuration/v2_depth_duration_MTurk/v2_DepthDuration_HTML.html#228,228,1280,913,1280,1024,8-29-2022,12-34-56,104,depth_duration_stimuli/003081_2014-06-15_15-19-16_094959634447_rgbf000150-resize_1/003081_2014-06-15_15-19-16_094959634447_rgbf000150-resize_1-target.png,1000,3.9125,2,3499,1000,meters,jsons/v1_VE1000_randls_12_rotated.json,851971,1128054,35,Man
104,261565,DepthScenes,duration_manipulation_targetAtFixation,jsons/v1_VE1000_randls_12_rotated.json,http://54.235.29.9/FacialAge/BNav_EC2/DepthDuration/v2_depth_duration_MTurk/v2_DepthDuration_HTML.html#228,228,1280,913,1280,1024,8-29-2022,12-34-56,105,depth_duration_stimuli/001417_2014-06-19_16-25-36_260595134347_rgbf000115-resize_5/001417_2014-06-19_16-25-36_260595134347_rgbf000115-resize_5-target.png,1000,4.6255,2,2955,999,meters,jsons/v1_VE1000_randls_12_rotated.json,851971,1128054,35,Man
105,261565,DepthScenes,duration_manipulation_targetAtFixation,jsons/v1_VE1000_randls_12_rotated.json,http://54.235.29.9/FacialAge/BNav_EC2/DepthDuration/v2_depth_duration_MTurk/v2_DepthDuration_HTML.html#228,228,1280,913,1280,1024,8-29-2022,12-34-56,106,depth_duration_stimuli/002637_2014-06-24_14-51-13_094959634447_rgbf000066-resize_4/002637_2014-06-24_14-51-13_094959634447_rgbf000066-resize_4-target.png,1000,1.9955,1,4033,999,meters,jsons/v1_VE1000_randls_12_rotated.json,851971,1128054,35,Man
106,261565,DepthScenes,duration_manipulation_targetAtFixation,jsons/v1_VE1000_randls_12_rotated.json,http://54.235.29.9/FacialAge/BNav_EC2/DepthDuration/v2_depth_duration_MTurk/v2_DepthDuration_HTML.html#228,228,1280,913,1280,1024,8-29-2022,12-34-56,107,depth_duration_stimuli/003534_2014-05-22_15-06-10_094959634447_rgbf000102-resize_4/003534_2014-05-22_15-06-10_094959634447_rgbf000102-resize_4-target.png,1000,1.426,2,4404,1001,meters,jsons/v1_VE1000_randls_12_rotated.json,851971,1128054,35,Man
107,261565,DepthScenes,duration_manipulation_targetAtFixation,jsons/v1_VE1000_randls_12_rotated.json,http://54.235.29.9/FacialAge/BNav_EC2/DepthDuration/v2_depth_duration_MTurk/v2_DepthDuration_HTML.html#228,228,1280,913,1280,1024,8-29-2022,12-34-56,108,depth_duration_stimuli/001617_2014-06-20_11-35-32_260595134347_rgbf000066-resize_1/001617_2014-06-20_11-35-32_260595134347_rgbf000066-resize_1-target.png,1000,3.7910000000000004,1,4932,1001,meters,jsons/v1_VE1000_randls_12_rotated.json,851971,1128054,35,Man
108,261565,DepthScenes,duration_manipulation_targetAtFixation,jsons/v1_VE1000_randls_12_rotated.json,http://54.235.29.9/FacialAge/BNav_EC2/DepthDuration/v2_depth_duration_MTurk/v2_DepthDuration_HTML.html#228,228,1280,913,1280,1024,8-29-2022,12-34-56,109,depth_duration_stimuli/001806_2014-06-26_20-50-20_260595134347_rgbf000091-resize_1/001806_2014-06-26_20-50-20_260595134347_rgbf000091-resize_1-target.png,1000,2.7305,2,2971,1000,meters,jsons/v1_VE1000_randls_12_rotated.json,851971,1128054,35,Man
109,261565,DepthScenes,duration_manipulation_targetAtFixation,jsons/v1_VE1000_randls_12_rotated.json,http://54.235.29.9/FacialAge/BNav_EC2/DepthDuration/v2_depth_duration_MTurk/v2_DepthDuration_HTML.html#228,228,1280,913,1280,1024,8-29-2022,12-34-56,110,depth_duration_stimuli/002444_2014-06-28_20-32-08_260595134347_rgbf000027-resize_0/002444_2014-06-28_20-32-08_260595134347_rgbf000027-resize_0-target.png,1000,4.388999999999999,3,3017,1000,meters,jsons/v1_VE1000_randls_12_rotated.json,851971,1128054,35,Man
110,261565,DepthScenes,duration_manipulation_targetAtFixation,jsons/v1_VE1000_randls_12_rotated.json,http://54.235.29.9/FacialAge/BNav_EC2/DepthDuration/v2_depth_duration_MTurk/v2_DepthDuration_HTML.html#228,228,1280,913,1280,1024,8-29-2022,12-34-56,111,depth_duration_stimuli/000436_2014-06-09_22-25-11_260595134347_rgbf000137-resize_1/000436_2014-06-09_22-25-11_260595134347_rgbf000137-resize_1-target.png,1000,4.0705,3,2916,999,meters,jsons/v1_VE1000_randls_12_rotated.json,851971,1128054,35,Man
111,261565,DepthScenes,duration_manipulation_targetAtFixation,jsons/v1_VE1000_randls_12_rotated.json,http://54.235.29.9/FacialAge/BNav_EC2/DepthDuration/v2_depth_duration_MTurk/v2_DepthDuration_HTML.html#228,228,1280,913,1280,1024,8-29-2022,12-34-56,112,depth_duration_stimuli/002136_2014-06-25_21-18-03_260595134347_rgbf000109-resize_3/002136_2014-06-25_21-18-03_260595134347_rgbf000109-resize_3-target.png,1000,1.9569999999999999,2,2961,1000,meters,jsons/v1_VE1000_randls_12_rotated.json,851971,1128054,35,Man
112,261565,DepthScenes,duration_manipulation_targetAtFixation,jsons/v1_VE1000_randls_12_rotated.json,http://54.235.29.9/FacialAge/BNav_EC2/DepthDuration/v2_depth_duration_MTurk/v2_DepthDuration_HTML.html#228,228,1280,913,1280,1024,8-29-2022,12-34-56,113,depth_duration_stimuli/002964_2014-06-08_17-46-11_094959634447_rgbf000091-resize_4/002964_2014-06-08_17-46-11_094959634447_rgbf000091-resize_4-target.png,1000,1.6909999999999998,1,2949,1000,meters,jsons/v1_VE1000_randls_12_rotated.json,851971,1128054,35,Man
113,261565,DepthScenes,duration_manipulation_targetAtFixation,jsons/v1_VE1000_randls_12_rotated.json,http://54.235.29.9/FacialAge/BNav_EC2/DepthDuration/v2_depth_duration_MTurk/v2_DepthDuration_HTML.html#228,228,1280,913,1280,1024,8-29-2022,12-34-56,114,depth_duration_stimuli/000866_2014-06-09_20-45-42_260595134347_rgbf000139-resize_1/000866_2014-06-09_20-45-42_260595134347_rgbf000139-resize_1-target.png,1000,3.2155,2,3376,1000,meters,jsons/v1_VE1000_randls_12_rotated.json,851971,1128054,35,Man
114,261565,DepthScenes,duration_manipulation_targetAtFixation,jsons/v1_VE1000_randls_12_rotated.json,http://54.235.29.9/FacialAge/BNav_EC2/DepthDuration/v2_depth_duration_MTurk/v2_DepthDuration_HTML.html#228,228,1280,913,1280,1024,8-29-2022,12-34-56,115,depth_duration_stimuli/002989_2014-06-15_12-25-03_094959634447_rgbf000150-resize_3/002989_2014-06-15_12-25-03_094959634447_rgbf000150-resize_3-target.png,1000,4.1975,3,2917,1000,meters,jsons/v1_VE1000_randls_12_rotated.json,851971,1128054,35,Man
115,261565,DepthScenes,duration_manipulation_targetAtFixation,jsons/v1_VE1000_randls_12_rotated.json,http://54.235.29.9/FacialAge/BNav_EC2/DepthDuration/v2_depth_duration_MTurk/v2_DepthDuration_HTML.html#228,228,1280,913,1280,1024,8-29-2022,12-34-56,116,depth_duration_stimuli/003129_2014-05-12_10-48-10_094959634447_rgbf000100-resize_0/003129_2014-05-12_10-48-10_094959634447_rgbf000100-resize_0-target.png,1000,4.9305,3,3569,1000,meters,jsons/v1_VE1000_randls_12_rotated.json,851971,1128054,35,Man
116,261565,DepthScenes,duration_manipulation_targetAtFixation,jsons/v1_VE1000_randls_12_rotated.json,http://54.235.29.9/FacialAge/BNav_EC2/DepthDuration/v2_depth_duration_MTurk/v2_DepthDuration_HTML.html#228,228,1280,913,1280,1024,8-29-2022,12-34-56,117,depth_duration_stimuli/000414_2014-06-04_19-49-13_260595134347_rgbf000044-resize_0/000414_2014-06-04_19-49-13_260595134347_rgbf000044-resize_0-target.png,1000,4.329,2,3010,1000,meters,jsons/v1_VE1000_randls_12_rotated.json,851971,1128054,35,Man
117,261565,DepthScenes,duration_manipulation_targetAtFixation,jsons/v1_VE1000_randls_12_rotated.json,http://54.235.29.9/FacialAge/BNav_EC2/DepthDuration/v2_depth_duration_MTurk/v2_DepthDuration_HTML.html#228,228,1280,913,1280,1024,8-29-2022,12-34-56,118,depth_duration_stimuli/000109_2014-05-14_23-41-52_260595134347_rgbf000035-resize_9/000109_2014-05-14_23-41-52_260595134347_rgbf000035-resize_9-target.png,1000,1.3545,1,4842,1000,meters,jsons/v1_VE1000_randls_12_rotated.json,851971,1128054,35,Man
118,261565,DepthScenes,duration_manipulation_targetAtFixation,jsons/v1_VE1000_randls_12_rotated.json,http://54.235.29.9/FacialAge/BNav_EC2/DepthDuration/v2_depth_duration_MTurk/v2_DepthDuration_HTML.html#228,228,1280,913,1280,1024,8-29-2022,12-34-56,119,depth_duration_stimuli/000470_2014-06-09_19-42-40_260595134347_rgbf000094-resize_1/000470_2014-06-09_19-42-40_260595134347_rgbf000094-resize_1-target.png,1000,1.831,1,3307,999,meters,jsons/v1_VE1000_randls_12_rotated.json,851971,1128054,35,Man
119,261565,DepthScenes,duration_manipulation_targetAtFixation,jsons/v1_VE1000_randls_12_rotated.json,http://54.235.29.9/FacialAge/BNav_EC2/DepthDuration/v2_depth_duration_MTurk/v2_DepthDuration_HTML.html#228,228,1280,913,1280,1024,8-29-2022,12-34-56,120,depth_duration_stimuli/000787_2014-06-08_22-33-53_260595134347_rgbf000175-resize_1/000787_2014-06-08_22-33-53_260595134347_rgbf000175-resize-original.jpg,1000,4.784,0,5443,1000,meters,jsons/v1_VE1000_randls_12_rotated.json,851971,1128054,35,Man
120,261565,DepthScenes,duration_manipulation_targetAtFixation,jsons/v1_VE1000_randls_12_rotated.json,http://54.235.29.9/FacialAge/BNav_EC2/DepthDuration/v2_depth_duration_MTurk/v2_DepthDuration_HTML.html#228,228,1280,913,1280,1024,8-29-2022,12-34-56,121,depth_duration_stimuli/000854_2014-06-09_19-43-13_260595134347_rgbf000066-resize_0/000854_2014-06-09_19-43-13_260595134347_rgbf000066-resize_0-target.png,1000,3.068,1,2571,999,meters,jsons/v1_VE1000_randls_12_rotated.json,851971,1128054,35,Man
121,261565,DepthScenes,duration_manipulation_targetAtFixation,jsons/v1_VE1000_randls_12_rotated.json,http://54.235.29.9/FacialAge/BNav_EC2/DepthDuration/v2_depth_duration_MTurk/v2_DepthDuration_HTML.html#228,228,1280,913,1280,1024,8-29-2022,12-34-56,122,depth_duration_stimuli/000758_2014-06-08_22-05-08_260595134347_rgbf000085-resize_0/000758_2014-06-08_22-05-08_260595134347_rgbf000085-resize_0-target.png,1000,3.3810000000000002,1,2913,999,meters,jsons/v1_VE1000_randls_12_rotated.json,851971,1128054,35,Man
122,261565,DepthScenes,duration_manipulation_targetAtFixation,jsons/v1_VE1000_randls_12_rotated.json,http://54.235.29.9/FacialAge/BNav_EC2/DepthDuration/v2_depth_duration_MTurk/v2_DepthDuration_HTML.html#228,228,1280,913,1280,1024,8-29-2022,12-34-56,123,depth_duration_stimuli/002660_2014-06-13_15-44-18_094959634447_rgbf001878-resize_2/002660_2014-06-13_15-44-18_094959634447_rgbf001878-resize_2-target.png,1000,3.576,1,4100,1000,meters,jsons/v1_VE1000_randls_12_rotated.json,851971,1128054,35,Man
123,261565,DepthScenes,duration_manipulation_targetAtFixation,jsons/v1_VE1000_randls_12_rotated.json,http://54.235.29.9/FacialAge/BNav_EC2/DepthDuration/v2_depth_duration_MTurk/v2_DepthDuration_HTML.html#228,228,1280,913,1280,1024,8-29-2022,12-34-56,124,depth_duration_stimuli/002153_2014-06-25_21-27-18_260595134347_rgbf000038-resize_5/002153_2014-06-25_21-27-18_260595134347_rgbf000038-resize_5-target.png,1000,2.505,2,2540,1001,meters,jsons/v1_VE1000_randls_12_rotated.json,851971,1128054,35,Man
124,261565,DepthScenes,duration_manipulation_targetAtFixation,jsons/v1_VE1000_randls_12_rotated.json,http://54.235.29.9/FacialAge/BNav_EC2/DepthDuration/v2_depth_duration_MTurk/v2_DepthDuration_HTML.html#228,228,1280,913,1280,1024,8-29-2022,12-34-56,125,depth_duration_stimuli/000709_2014-06-08_13-51-55_260595134347_rgbf000068-resize_3/000709_2014-06-08_13-51-55_260595134347_rgbf000068-resize_3-target.png,1000,1.8030000000000002,2,3831,1001,meters,jsons/v1_VE1000_randls_12_rotated.json,851971,1128054,35,Man
125,261565,DepthScenes,duration_manipulation_targetAtFixation,jsons/v1_VE1000_randls_12_rotated.json,http://54.235.29.9/FacialAge/BNav_EC2/DepthDuration/v2_depth_duration_MTurk/v2_DepthDuration_HTML.html#228,228,1280,913,1280,1024,8-29-2022,12-34-56,126,depth_duration_stimuli/002057_2014-06-24_21-00-13_260595134347_rgbf000120-resize_1/002057_2014-06-24_21-00-13_260595134347_rgbf000120-resize_1-target.png,1000,2.967,2,2920,1000,meters,jsons/v1_VE1000_randls_12_rotated.json,851971,1128054,35,Man
126,261565,DepthScenes,duration_manipulation_targetAtFixation,jsons/v1_VE1000_randls_12_rotated.json,http://54.235.29.9/FacialAge/BNav_EC2/DepthDuration/v2_depth_duration_MTurk/v2_DepthDuration_HTML.html#228,228,1280,913,1280,1024,8-29-2022,12-34-56,127,depth_duration_stimuli/000191_2014-05-12_17-07-38_260595134347_rgbf000199-resize_0/000191_2014-05-12_17-07-38_260595134347_rgbf000199-resize_0-target.png,1000,3.7995,2,3637,1001,meters,jsons/v1_VE1000_randls_12_rotated.json,851971,1128054,35,Man
127,261565,DepthScenes,duration_manipulation_targetAtFixation,jsons/v1_VE1000_randls_12_rotated.json,http://54.235.29.9/FacialAge/BNav_EC2/DepthDuration/v2_depth_duration_MTurk/v2_DepthDuration_HTML.html#228,228,1280,913,1280,1024,8-29-2022,12-34-56,128,depth_duration_stimuli/000493_2014-06-09_21-01-18_260595134347_rgbf000196-resize_3/000493_2014-06-09_21-01-18_260595134347_rgbf000196-resize_3-target.png,1000,3.44,2,3346,999,meters,jsons/v1_VE1000_randls_12_rotated.json,851971,1128054,35,Man
128,261565,DepthScenes,duration_manipulation_targetAtFixation,jsons/v1_VE1000_randls_12_rotated.json,http://54.235.29.9/FacialAge/BNav_EC2/DepthDuration/v2_depth_duration_MTurk/v2_DepthDuration_HTML.html#228,228,1280,913,1280,1024,8-29-2022,12-34-56,129,depth_duration_stimuli/002340_2014-06-28_20-05-46_260595134347_rgbf000113-resize_0/002340_2014-06-28_20-05-46_260595134347_rgbf000113-resize_0-target.png,1000,2.4735,2,5446,1000,meters,jsons/v1_VE1000_randls_12_rotated.json,851971,1128054,35,Man
129,261565,DepthScenes,duration_manipulation_targetAtFixation,jsons/v1_VE1000_randls_12_rotated.json,http://54.235.29.9/FacialAge/BNav_EC2/DepthDuration/v2_depth_duration_MTurk/v2_DepthDuration_HTML.html#228,228,1280,913,1280,1024,8-29-2022,12-34-56,130,depth_duration_stimuli/001016_2014-06-09_16-16-10_260595134347_rgbf000112-resize_5/001016_2014-06-09_16-16-10_260595134347_rgbf000112-resize_5-target.png,1000,1.6565,1,2721,1000,meters,jsons/v1_VE1000_randls_12_rotated.json,851971,1128054,35,Man
130,261565,DepthScenes,duration_manipulation_targetAtFixation,jsons/v1_VE1000_randls_12_rotated.json,http://54.235.29.9/FacialAge/BNav_EC2/DepthDuration/v2_depth_duration_MTurk/v2_DepthDuration_HTML.html#228,228,1280,913,1280,1024,8-29-2022,12-34-56,131,depth_duration_stimuli/000691_2014-06-08_13-08-50_260595134347_rgbf000132-resize_3/000691_2014-06-08_13-08-50_260595134347_rgbf000132-resize_3-target.png,1000,4.1530000000000005,2,4187,999,meters,jsons/v1_VE1000_randls_12_rotated.json,851971,1128054,35,Man
131,261565,DepthScenes,duration_manipulation_targetAtFixation,jsons/v1_VE1000_randls_12_rotated.json,http://54.235.29.9/FacialAge/BNav_EC2/DepthDuration/v2_depth_duration_MTurk/v2_DepthDuration_HTML.html#228,228,1280,913,1280,1024,8-29-2022,12-34-56,132,depth_duration_stimuli/002213_2014-06-28_18-37-58_260595134347_rgbf000055-resize_1/002213_2014-06-28_18-37-58_260595134347_rgbf000055-resize_1-target.png,1000,3.62,2,2931,1001,meters,jsons/v1_VE1000_randls_12_rotated.json,851971,1128054,35,Man
132,261565,DepthScenes,duration_manipulation_targetAtFixation,jsons/v1_VE1000_randls_12_rotated.json,http://54.235.29.9/FacialAge/BNav_EC2/DepthDuration/v2_depth_duration_MTurk/v2_DepthDuration_HTML.html#228,228,1280,913,1280,1024,8-29-2022,12-34-56,133,depth_duration_stimuli/000103_2014-05-14_22-01-17_260595134347_rgbf000152-resize_5/000103_2014-05-14_22-01-17_260595134347_rgbf000152-resize_5-target.png,1000,1.993,2,3733,1000,meters,jsons/v1_VE1000_randls_12_rotated.json,851971,1128054,35,Man
133,261565,DepthScenes,duration_manipulation_targetAtFixation,jsons/v1_VE1000_randls_12_rotated.json,http://54.235.29.9/FacialAge/BNav_EC2/DepthDuration/v2_depth_duration_MTurk/v2_DepthDuration_HTML.html#228,228,1280,913,1280,1024,8-29-2022,12-34-56,134,depth_duration_stimuli/001555_2014-06-20_17-12-10_260595134347_rgbf000065-resize_4/001555_2014-06-20_17-12-10_260595134347_rgbf000065-resize_4-target.png,1000,1.633,1,3434,1000,meters,jsons/v1_VE1000_randls_12_rotated.json,851971,1128054,35,Man
134,261565,DepthScenes,duration_manipulation_targetAtFixation,jsons/v1_VE1000_randls_12_rotated.json,http://54.235.29.9/FacialAge/BNav_EC2/DepthDuration/v2_depth_duration_MTurk/v2_DepthDuration_HTML.html#228,228,1280,913,1280,1024,8-29-2022,12-34-56,135,depth_duration_stimuli/000375_2014-06-08_11-17-29_260595134347_rgbf000133-resize_2/000375_2014-06-08_11-17-29_260595134347_rgbf000133-resize-original.jpg,1000,4.718,0,4954,1000,meters,jsons/v1_VE1000_randls_12_rotated.json,851971,1128054,35,Man
135,261565,DepthScenes,duration_manipulation_targetAtFixation,jsons/v1_VE1000_randls_12_rotated.json,http://54.235.29.9/FacialAge/BNav_EC2/DepthDuration/v2_depth_duration_MTurk/v2_DepthDuration_HTML.html#228,228,1280,913,1280,1024,8-29-2022,12-34-56,136,depth_duration_stimuli/002103_2014-06-25_20-00-40_260595134347_rgbf000049-resize_0/002103_2014-06-25_20-00-40_260595134347_rgbf000049-resize_0-target.png,1000,4.105,2,3806,1001,meters,jsons/v1_VE1000_randls_12_rotated.json,851971,1128054,35,Man
136,261565,DepthScenes,duration_manipulation_targetAtFixation,jsons/v1_VE1000_randls_12_rotated.json,http://54.235.29.9/FacialAge/BNav_EC2/DepthDuration/v2_depth_duration_MTurk/v2_DepthDuration_HTML.html#228,228,1280,913,1280,1024,8-29-2022,12-34-56,137,depth_duration_stimuli/002039_2014-06-24_20-22-38_260595134347_rgbf000084-resize_1/002039_2014-06-24_20-22-38_260595134347_rgbf000084-resize_1-target.png,1000,4.408,1,3169,1000,meters,jsons/v1_VE1000_randls_12_rotated.json,851971,1128054,35,Man
137,261565,DepthScenes,duration_manipulation_targetAtFixation,jsons/v1_VE1000_randls_12_rotated.json,http://54.235.29.9/FacialAge/BNav_EC2/DepthDuration/v2_depth_duration_MTurk/v2_DepthDuration_HTML.html#228,228,1280,913,1280,1024,8-29-2022,12-34-56,138,depth_duration_stimuli/003079_2014-06-15_15-18-20_094959634447_rgbf000152-resize_8/003079_2014-06-15_15-18-20_094959634447_rgbf000152-resize_8-target.png,1000,2.8775,2,3576,998,meters,jsons/v1_VE1000_randls_12_rotated.json,851971,1128054,35,Man
138,261565,DepthScenes,duration_manipulation_targetAtFixation,jsons/v1_VE1000_randls_12_rotated.json,http://54.235.29.9/FacialAge/BNav_EC2/DepthDuration/v2_depth_duration_MTurk/v2_DepthDuration_HTML.html#228,228,1280,913,1280,1024,8-29-2022,12-34-56,139,depth_duration_stimuli/000506_2014-06-08_23-21-00_260595134347_rgbf000070-resize_7/000506_2014-06-08_23-21-00_260595134347_rgbf000070-resize_7-target.png,1000,4.0585,2,3133,999,meters,jsons/v1_VE1000_randls_12_rotated.json,851971,1128054,35,Man
139,261565,DepthScenes,duration_manipulation_targetAtFixation,jsons/v1_VE1000_randls_12_rotated.json,http://54.235.29.9/FacialAge/BNav_EC2/DepthDuration/v2_depth_duration_MTurk/v2_DepthDuration_HTML.html#228,228,1280,913,1280,1024,8-29-2022,12-34-56,140,depth_duration_stimuli/001214_2014-06-17_16-13-55_260595134347_rgbf000111-resize_0/001214_2014-06-17_16-13-55_260595134347_rgbf000111-resize_0-target.png,1000,2.6505,2,5739,1000,meters,jsons/v1_VE1000_randls_12_rotated.json,851971,1128054,35,Man
140,261565,DepthScenes,duration_manipulation_targetAtFixation,jsons/v1_VE1000_randls_12_rotated.json,http://54.235.29.9/FacialAge/BNav_EC2/DepthDuration/v2_depth_duration_MTurk/v2_DepthDuration_HTML.html#228,228,1280,913,1280,1024,8-29-2022,12-34-56,141,depth_duration_stimuli/000810_2014-06-08_17-20-01_260595134347_rgbf000105-resize_0/000810_2014-06-08_17-20-01_260595134347_rgbf000105-resize_0-target.png,1000,1.4865,1,3467,999,meters,jsons/v1_VE1000_randls_12_rotated.json,851971,1128054,35,Man
141,261565,DepthScenes,duration_manipulation_targetAtFixation,jsons/v1_VE1000_randls_12_rotated.json,http://54.235.29.9/FacialAge/BNav_EC2/DepthDuration/v2_depth_duration_MTurk/v2_DepthDuration_HTML.html#228,228,1280,913,1280,1024,8-29-2022,12-34-56,142,depth_duration_stimuli/000635_2014-06-08_16-38-42_260595134347_rgbf000106-resize_1/000635_2014-06-08_16-38-42_260595134347_rgbf000106-resize_1-target.png,1000,2.074,1,3317,1001,meters,jsons/v1_VE1000_randls_12_rotated.json,851971,1128054,35,Man
142,261565,DepthScenes,duration_manipulation_targetAtFixation,jsons/v1_VE1000_randls_12_rotated.json,http://54.235.29.9/FacialAge/BNav_EC2/DepthDuration/v2_depth_duration_MTurk/v2_DepthDuration_HTML.html#228,228,1280,913,1280,1024,8-29-2022,12-34-56,143,depth_duration_stimuli/002279_2014-06-28_18-55-32_260595134347_rgbf000040-resize_5/002279_2014-06-28_18-55-32_260595134347_rgbf000040-resize_5-target.png,1000,1.5043333333333,1,3012,1000,meters,jsons/v1_VE1000_randls_12_rotated.json,851971,1128054,35,Man
143,261565,DepthScenes,duration_manipulation_targetAtFixation,jsons/v1_VE1000_randls_12_rotated.json,http://54.235.29.9/FacialAge/BNav_EC2/DepthDuration/v2_depth_duration_MTurk/v2_DepthDuration_HTML.html#228,228,1280,913,1280,1024,8-29-2022,12-34-56,144,depth_duration_stimuli/001094_2014-06-15_17-36-00_260595134347_rgbf000205-resize_0/001094_2014-06-15_17-36-00_260595134347_rgbf000205-resize_0-target.png,1000,4.2175,2,8243,999,meters,jsons/v1_VE1000_randls_12_rotated.json,851971,1128054,35,Man
144,261565,DepthScenes,duration_manipulation_targetAtFixation,jsons/v1_VE1000_randls_12_rotated.json,http://54.235.29.9/FacialAge/BNav_EC2/DepthDuration/v2_depth_duration_MTurk/v2_DepthDuration_HTML.html#228,228,1280,913,1280,1024,8-29-2022,12-34-56,145,depth_duration_stimuli/000692_2014-06-08_13-09-42_260595134347_rgbf000199-resize_2/000692_2014-06-08_13-09-42_260595134347_rgbf000199-resize_2-target.png,1000,3.661,2,2593,1000,meters,jsons/v1_VE1000_randls_12_rotated.json,851971,1128054,35,Man
145,261565,DepthScenes,duration_manipulation_targetAtFixation,jsons/v1_VE1000_randls_12_rotated.json,http://54.235.29.9/FacialAge/BNav_EC2/DepthDuration/v2_depth_duration_MTurk/v2_DepthDuration_HTML.html#228,228,1280,913,1280,1024,8-29-2022,12-34-56,146,depth_duration_stimuli/003495_2014-05-21_16-01-51_094959634447_rgbf000100-resize_3/003495_2014-05-21_16-01-51_094959634447_rgbf000100-resize_3-target.png,1000,1.6255,1,2932,1000,meters,jsons/v1_VE1000_randls_12_rotated.json,851971,1128054,35,Man
146,261565,DepthScenes,duration_manipulation_targetAtFixation,jsons/v1_VE1000_randls_12_rotated.json,http://54.235.29.9/FacialAge/BNav_EC2/DepthDuration/v2_depth_duration_MTurk/v2_DepthDuration_HTML.html#228,228,1280,913,1280,1024,8-29-2022,12-34-56,147,depth_duration_stimuli/001244_2014-06-17_16-47-45_260595134347_rgbf000030-resize_4/001244_2014-06-17_16-47-45_260595134347_rgbf000030-resize_4-target.png,1000,2.0425,1,2826,1001,meters,jsons/v1_VE1000_randls_12_rotated.json,851971,1128054,35,Man
147,261565,DepthScenes,duration_manipulation_targetAtFixation,jsons/v1_VE1000_randls_12_rotated.json,http://54.235.29.9/FacialAge/BNav_EC2/DepthDuration/v2_depth_duration_MTurk/v2_DepthDuration_HTML.html#228,228,1280,913,1280,1024,8-29-2022,12-34-56,148,depth_duration_stimuli/003083_2014-06-15_15-21-03_094959634447_rgbf000063-resize_1/003083_2014-06-15_15-21-03_094959634447_rgbf000063-resize_1-target.png,1000,4.1405,3,5287,1000,meters,jsons/v1_VE1000_randls_12_rotated.json,851971,1128054,35,Man
148,261565,DepthScenes,duration_manipulation_targetAtFixation,jsons/v1_VE1000_randls_12_rotated.json,http://54.235.29.9/FacialAge/BNav_EC2/DepthDuration/v2_depth_duration_MTurk/v2_DepthDuration_HTML.html#228,228,1280,913,1280,1024,8-29-2022,12-34-56,149,depth_duration_stimuli/000486_2014-06-09_20-47-20_260595134347_rgbf000143-resize_2/000486_2014-06-09_20-47-20_260595134347_rgbf000143-resize_2-target.png,1000,4.8325,2,2669,1000,meters,jsons/v1_VE1000_randls_12_rotated.json,851971,1128054,35,Man
149,261565,DepthScenes,duration_manipulation_targetAtFixation,jsons/v1_VE1000_randls_12_rotated.json,http://54.235.29.9/FacialAge/BNav_EC2/DepthDuration/v2_depth_duration_MTurk/v2_DepthDuration_HTML.html#228,228,1280,913,1280,1024,8-29-2022,12-34-56,150,depth_duration_stimuli/002953_2014-06-08_17-32-18_094959634447_rgbf000059-resize_5/002953_2014-06-08_17-32-18_094959634447_rgbf000059-resize_5-target.png,1000,1.551,2,3511,1000,meters,jsons/v1_VE1000_randls_12_rotated.json,851971,1128054,35,Man
150,261565,DepthScenes,duration_manipulation_targetAtFixation,jsons/v1_VE1000_randls_12_rotated.json,http://54.235.29.9/FacialAge/BNav_EC2/DepthDuration/v2_depth_duration_MTurk/v2_DepthDuration_HTML.html#228,228,1280,913,1280,1024,8-29-2022,12-34-56,151,depth_duration_stimuli/000878_2014-06-08_22-52-45_260595134347_rgbf000045-resize_2/000878_2014-06-08_22-52-45_260595134347_rgbf000045-resize_2-target.png,1000,2.092,2,3311,1000,meters,jsons/v1_VE1000_randls_12_rotated.json,851971,1128054,35,Man
151,261565,DepthScenes,duration_manipulation_targetAtFixation,jsons/v1_VE1000_randls_12_rotated.json,http://54.235.29.9/FacialAge/BNav_EC2/DepthDuration/v2_depth_duration_MTurk/v2_DepthDuration_HTML.html#228,228,1280,913,1280,1024,8-29-2022,12-34-56,152,depth_duration_stimuli/000569_2014-06-09_22-51-47_260595134347_rgbf000141-resize_3/000569_2014-06-09_22-51-47_260595134347_rgbf000141-resize-original.jpg,1000,4.512,0,3809,999,meters,jsons/v1_VE1000_randls_12_rotated.json,851971,1128054,35,Man
152,261565,DepthScenes,duration_manipulation_targetAtFixation,jsons/v1_VE1000_randls_12_rotated.json,http://54.235.29.9/FacialAge/BNav_EC2/DepthDuration/v2_depth_duration_MTurk/v2_DepthDuration_HTML.html#228,228,1280,913,1280,1024,8-29-2022,12-34-56,153,depth_duration_stimuli/002323_2014-06-28_20-01-54_260595134347_rgbf000051-resize_4/002323_2014-06-28_20-01-54_260595134347_rgbf000051-resize_4-target.png,1000,3.7310000000000003,2,3170,999,meters,jsons/v1_VE1000_randls_12_rotated.json,851971,1128054,35,Man
153,261565,DepthScenes,duration_manipulation_targetAtFixation,jsons/v1_VE1000_randls_12_rotated.json,http://54.235.29.9/FacialAge/BNav_EC2/DepthDuration/v2_depth_duration_MTurk/v2_DepthDuration_HTML.html#228,228,1280,913,1280,1024,8-29-2022,12-34-56,154,depth_duration_stimuli/000917_2014-06-09_22-45-29_260595134347_rgbf000149-resize_3/000917_2014-06-09_22-45-29_260595134347_rgbf000149-resize_3-target.png,1000,4.1865,2,2464,999,meters,jsons/v1_VE1000_randls_12_rotated.json,851971,1128054,35,Man
154,261565,DepthScenes,duration_manipulation_targetAtFixation,jsons/v1_VE1000_randls_12_rotated.json,http://54.235.29.9/FacialAge/BNav_EC2/DepthDuration/v2_depth_duration_MTurk/v2_DepthDuration_HTML.html#228,228,1280,913,1280,1024,8-29-2022,12-34-56,155,depth_duration_stimuli/003048_2014-06-15_13-49-43_094959634447_rgbf000150-resize_1/003048_2014-06-15_13-49-43_094959634447_rgbf000150-resize_1-target.png,1000,4.0035,2,3042,999,meters,jsons/v1_VE1000_randls_12_rotated.json,851971,1128054,35,Man
155,261565,DepthScenes,duration_manipulation_targetAtFixation,jsons/v1_VE1000_randls_12_rotated.json,http://54.235.29.9/FacialAge/BNav_EC2/DepthDuration/v2_depth_duration_MTurk/v2_DepthDuration_HTML.html#228,228,1280,913,1280,1024,8-29-2022,12-34-56,156,depth_duration_stimuli/002043_2014-06-24_20-29-38_260595134347_rgbf000039-resize_4/002043_2014-06-24_20-29-38_260595134347_rgbf000039-resize_4-target.png,1000,2.8435,2,3278,999,meters,jsons/v1_VE1000_randls_12_rotated.json,851971,1128054,35,Man
156,261565,DepthScenes,duration_manipulation_targetAtFixation,jsons/v1_VE1000_randls_12_rotated.json,http://54.235.29.9/FacialAge/BNav_EC2/DepthDuration/v2_depth_duration_MTurk/v2_DepthDuration_HTML.html#228,228,1280,913,1280,1024,8-29-2022,12-34-56,157,depth_duration_stimuli/000749_2014-06-08_21-55-06_260595134347_rgbf000070-resize_2/000749_2014-06-08_21-55-06_260595134347_rgbf000070-resize_2-target.png,1000,2.331,2,2730,1000,meters,jsons/v1_VE1000_randls_12_rotated.json,851971,1128054,35,Man
157,261565,DepthScenes,duration_manipulation_targetAtFixation,jsons/v1_VE1000_randls_12_rotated.json,http://54.235.29.9/FacialAge/BNav_EC2/DepthDuration/v2_depth_duration_MTurk/v2_DepthDuration_HTML.html#228,228,1280,913,1280,1024,8-29-2022,12-34-56,158,depth_duration_stimuli/002788_2014-06-22_19-36-03_094959634447_rgbf000088-resize_2/002788_2014-06-22_19-36-03_094959634447_rgbf000088-resize_2-target.png,1000,1.6465,1,2568,999,meters,jsons/v1_VE1000_randls_12_rotated.json,851971,1128054,35,Man
158,261565,DepthScenes,duration_manipulation_targetAtFixation,jsons/v1_VE1000_randls_12_rotated.json,http://54.235.29.9/FacialAge/BNav_EC2/DepthDuration/v2_depth_duration_MTurk/v2_DepthDuration_HTML.html#228,228,1280,913,1280,1024,8-29-2022,12-34-56,159,depth_duration_stimuli/001136_2014-06-17_15-19-41_260595134347_rgbf000076-resize_3/001136_2014-06-17_15-19-41_260595134347_rgbf000076-resize_3-target.png,1000,1.8655,2,3269,1000,meters,jsons/v1_VE1000_randls_12_rotated.json,851971,1128054,35,Man
159,261565,DepthScenes,duration_manipulation_targetAtFixation,jsons/v1_VE1000_randls_12_rotated.json,http://54.235.29.9/FacialAge/BNav_EC2/DepthDuration/v2_depth_duration_MTurk/v2_DepthDuration_HTML.html#228,228,1280,913,1280,1024,8-29-2022,12-34-56,160,depth_duration_stimuli/001164_2014-06-17_15-35-46_260595134347_rgbf000085-resize_3/001164_2014-06-17_15-35-46_260595134347_rgbf000085-resize_3-target.png,1000,2.354,2,2751,1000,meters,jsons/v1_VE1000_randls_12_rotated.json,851971,1128054,35,Man
160,261565,DepthScenes,duration_manipulation_targetAtFixation,jsons/v1_VE1000_randls_12_rotated.json,http://54.235.29.9/FacialAge/BNav_EC2/DepthDuration/v2_depth_duration_MTurk/v2_DepthDuration_HTML.html#228,228,1280,913,1280,1024,8-29-2022,12-34-56,161,depth_duration_stimuli/003010_2014-06-15_12-54-35_094959634447_rgbf000112-resize_0/003010_2014-06-15_12-54-35_094959634447_rgbf000112-resize_0-target.png,1000,3.1185,3,3397,999,meters,jsons/v1_VE1000_randls_12_rotated.json,851971,1128054,35,Man
161,261565,DepthScenes,duration_manipulation_targetAtFixation,jsons/v1_VE1000_randls_12_rotated.json,http://54.235.29.9/FacialAge/BNav_EC2/DepthDuration/v2_depth_duration_MTurk/v2_DepthDuration_HTML.html#228,228,1280,913,1280,1024,8-29-2022,12-34-56,162,depth_duration_stimuli/001810_2014-06-26_20-51-35_260595134347_rgbf000040-resize_3/001810_2014-06-26_20-51-35_260595134347_rgbf000040-resize_3-target.png,1000,2.2525,2,2473,998,meters,jsons/v1_VE1000_randls_12_rotated.json,851971,1128054,35,Man
162,261565,DepthScenes,duration_manipulation_targetAtFixation,jsons/v1_VE1000_randls_12_rotated.json,http://54.235.29.9/FacialAge/BNav_EC2/DepthDuration/v2_depth_duration_MTurk/v2_DepthDuration_HTML.html#228,228,1280,913,1280,1024,8-29-2022,12-34-56,163,depth_duration_stimuli/000665_2014-06-09_20-42-35_260595134347_rgbf000110-resize_1/000665_2014-06-09_20-42-35_260595134347_rgbf000110-resize_1-target.png,1000,3.057,2,2694,1000,meters,jsons/v1_VE1000_randls_12_rotated.json,851971,1128054,35,Man
163,261565,DepthScenes,duration_manipulation_targetAtFixation,jsons/v1_VE1000_randls_12_rotated.json,http://54.235.29.9/FacialAge/BNav_EC2/DepthDuration/v2_depth_duration_MTurk/v2_DepthDuration_HTML.html#228,228,1280,913,1280,1024,8-29-2022,12-34-56,164,depth_duration_stimuli/001150_2014-06-17_15-27-34_260595134347_rgbf000108-resize_2/001150_2014-06-17_15-27-34_260595134347_rgbf000108-resize_2-target.png,1000,4.0325,2,3837,1001,meters,jsons/v1_VE1000_randls_12_rotated.json,851971,1128054,35,Man
