,subjID,experimentName,versionName,sequenceName,url,selected_row,windowWidth,windowHeight,screenWidth,screenHeight,startDate,startTime,trial,stimulus,duration,actual_depth,depth_estimate,trial_RT,log_sceneDuration,unitSelection,seq_filepath,experimentTime,totalTime,age,gender
0,262424,DepthScenes,duration_manipulation_targetAtFixation,jsons/v1_VE250_randls_43.json,http://54.235.29.9/FacialAge/BNav_EC2/DepthDuration/v2_depth_duration_MTurk/v2_DepthDuration_HTML.html#47,47,1440,757,1440,900,9-3-2022,13-42-26,1,depth_duration_stimuli/001092_2014-06-15_17-34-58_260595134347_rgbf000171-resize_3/001092_2014-06-15_17-34-58_260595134347_rgbf000171-resize_3-target.png,250,2.6935,4,7835,250,feet,jsons/v1_VE250_randls_43.json,1057576,1173993,24,Woman
1,262424,DepthScenes,duration_manipulation_targetAtFixation,jsons/v1_VE250_randls_43.json,http://54.235.29.9/FacialAge/BNav_EC2/DepthDuration/v2_depth_duration_MTurk/v2_DepthDuration_HTML.html#47,47,1440,757,1440,900,9-3-2022,13-42-26,2,depth_duration_stimuli/002545_2014-06-24_13-38-53_094959634447_rgbf000080-resize_4/002545_2014-06-24_13-38-53_094959634447_rgbf000080-resize_4-target.png,250,1.9205,4,4447,249,feet,jsons/v1_VE250_randls_43.json,1057576,1173993,24,Woman
2,262424,DepthScenes,duration_manipulation_targetAtFixation,jsons/v1_VE250_randls_43.json,http://54.235.29.9/FacialAge/BNav_EC2/DepthDuration/v2_depth_duration_MTurk/v2_DepthDuration_HTML.html#47,47,1440,757,1440,900,9-3-2022,13-42-26,3,depth_duration_stimuli/000368_2014-06-09_15-53-01_260595134347_rgbf000155-resize_2/000368_2014-06-09_15-53-01_260595134347_rgbf000155-resize_2-target.png,250,2.4859999999999998,3,6751,249,feet,jsons/v1_VE250_randls_43.json,1057576,1173993,24,Woman
3,262424,DepthScenes,duration_manipulation_targetAtFixation,jsons/v1_VE250_randls_43.json,http://54.235.29.9/FacialAge/BNav_EC2/DepthDuration/v2_depth_duration_MTurk/v2_DepthDuration_HTML.html#47,47,1440,757,1440,900,9-3-2022,13-42-26,4,depth_duration_stimuli/002678_2014-06-13_16-15-32_094959634447_rgbf000151-resize_6/002678_2014-06-13_16-15-32_094959634447_rgbf000151-resize_6-target.png,250,2.1830000000000003,5,4304,256,feet,jsons/v1_VE250_randls_43.json,1057576,1173993,24,Woman
4,262424,DepthScenes,duration_manipulation_targetAtFixation,jsons/v1_VE250_randls_43.json,http://54.235.29.9/FacialAge/BNav_EC2/DepthDuration/v2_depth_duration_MTurk/v2_DepthDuration_HTML.html#47,47,1440,757,1440,900,9-3-2022,13-42-26,5,depth_duration_stimuli/001055_2014-06-08_18-45-35_260595134347_rgbf000111-resize_4/001055_2014-06-08_18-45-35_260595134347_rgbf000111-resize_4-target.png,250,2.4290000000000003,6,5522,227,feet,jsons/v1_VE250_randls_43.json,1057576,1173993,24,Woman
5,262424,DepthScenes,duration_manipulation_targetAtFixation,jsons/v1_VE250_randls_43.json,http://54.235.29.9/FacialAge/BNav_EC2/DepthDuration/v2_depth_duration_MTurk/v2_DepthDuration_HTML.html#47,47,1440,757,1440,900,9-3-2022,13-42-26,6,depth_duration_stimuli/000549_2014-06-08_22-10-24_260595134347_rgbf000247-resize_3/000549_2014-06-08_22-10-24_260595134347_rgbf000247-resize_3-target.png,250,1.841,3,3300,248,feet,jsons/v1_VE250_randls_43.json,1057576,1173993,24,Woman
6,262424,DepthScenes,duration_manipulation_targetAtFixation,jsons/v1_VE250_randls_43.json,http://54.235.29.9/FacialAge/BNav_EC2/DepthDuration/v2_depth_duration_MTurk/v2_DepthDuration_HTML.html#47,47,1440,757,1440,900,9-3-2022,13-42-26,7,depth_duration_stimuli/000773_2014-06-08_22-24-54_260595134347_rgbf000093-resize_1/000773_2014-06-08_22-24-54_260595134347_rgbf000093-resize_1-target.png,250,4.973,5,5027,259,feet,jsons/v1_VE250_randls_43.json,1057576,1173993,24,Woman
7,262424,DepthScenes,duration_manipulation_targetAtFixation,jsons/v1_VE250_randls_43.json,http://54.235.29.9/FacialAge/BNav_EC2/DepthDuration/v2_depth_duration_MTurk/v2_DepthDuration_HTML.html#47,47,1440,757,1440,900,9-3-2022,13-42-26,8,depth_duration_stimuli/002414_2014-06-28_20-24-58_260595134347_rgbf000067-resize_4/002414_2014-06-28_20-24-58_260595134347_rgbf000067-resize_4-target.png,250,4.363,4,14751,249,feet,jsons/v1_VE250_randls_43.json,1057576,1173993,24,Woman
8,262424,DepthScenes,duration_manipulation_targetAtFixation,jsons/v1_VE250_randls_43.json,http://54.235.29.9/FacialAge/BNav_EC2/DepthDuration/v2_depth_duration_MTurk/v2_DepthDuration_HTML.html#47,47,1440,757,1440,900,9-3-2022,13-42-26,9,depth_duration_stimuli/003292_2014-05-14_21-53-49_094959634447_rgbf000100-resize_2/003292_2014-05-14_21-53-49_094959634447_rgbf000100-resize_2-target.png,250,3.4815,4,4956,249,feet,jsons/v1_VE250_randls_43.json,1057576,1173993,24,Woman
9,262424,DepthScenes,duration_manipulation_targetAtFixation,jsons/v1_VE250_randls_43.json,http://54.235.29.9/FacialAge/BNav_EC2/DepthDuration/v2_depth_duration_MTurk/v2_DepthDuration_HTML.html#47,47,1440,757,1440,900,9-3-2022,13-42-26,10,depth_duration_stimuli/002639_2014-06-24_14-51-37_094959634447_rgbf000074-resize_4/002639_2014-06-24_14-51-37_094959634447_rgbf000074-resize_4-target.png,250,4.0375,5,3486,249,feet,jsons/v1_VE250_randls_43.json,1057576,1173993,24,Woman
10,262424,DepthScenes,duration_manipulation_targetAtFixation,jsons/v1_VE250_randls_43.json,http://54.235.29.9/FacialAge/BNav_EC2/DepthDuration/v2_depth_duration_MTurk/v2_DepthDuration_HTML.html#47,47,1440,757,1440,900,9-3-2022,13-42-26,11,depth_duration_stimuli/001167_2014-06-17_15-38-07_260595134347_rgbf000108-resize_0/001167_2014-06-17_15-38-07_260595134347_rgbf000108-resize_0-target.png,250,1.8505,3,4478,243,feet,jsons/v1_VE250_randls_43.json,1057576,1173993,24,Woman
11,262424,DepthScenes,duration_manipulation_targetAtFixation,jsons/v1_VE250_randls_43.json,http://54.235.29.9/FacialAge/BNav_EC2/DepthDuration/v2_depth_duration_MTurk/v2_DepthDuration_HTML.html#47,47,1440,757,1440,900,9-3-2022,13-42-26,12,depth_duration_stimuli/003587_2014-05-23_16-48-02_094959634447_rgbf002384-resize_2/003587_2014-05-23_16-48-02_094959634447_rgbf002384-resize_2-target.png,250,1.357,0,4156,250,feet,jsons/v1_VE250_randls_43.json,1057576,1173993,24,Woman
12,262424,DepthScenes,duration_manipulation_targetAtFixation,jsons/v1_VE250_randls_43.json,http://54.235.29.9/FacialAge/BNav_EC2/DepthDuration/v2_depth_duration_MTurk/v2_DepthDuration_HTML.html#47,47,1440,757,1440,900,9-3-2022,13-42-26,13,depth_duration_stimuli/000569_2014-06-09_22-51-47_260595134347_rgbf000141-resize_3/000569_2014-06-09_22-51-47_260595134347_rgbf000141-resize-original.jpg,250,4.512,0,4984,249,feet,jsons/v1_VE250_randls_43.json,1057576,1173993,24,Woman
13,262424,DepthScenes,duration_manipulation_targetAtFixation,jsons/v1_VE250_randls_43.json,http://54.235.29.9/FacialAge/BNav_EC2/DepthDuration/v2_depth_duration_MTurk/v2_DepthDuration_HTML.html#47,47,1440,757,1440,900,9-3-2022,13-42-26,14,depth_duration_stimuli/002748_2014-06-22_19-07-22_094959634447_rgbf000078-resize_1/002748_2014-06-22_19-07-22_094959634447_rgbf000078-resize_1-target.png,250,4.6705,7,8427,249,feet,jsons/v1_VE250_randls_43.json,1057576,1173993,24,Woman
14,262424,DepthScenes,duration_manipulation_targetAtFixation,jsons/v1_VE250_randls_43.json,http://54.235.29.9/FacialAge/BNav_EC2/DepthDuration/v2_depth_duration_MTurk/v2_DepthDuration_HTML.html#47,47,1440,757,1440,900,9-3-2022,13-42-26,15,depth_duration_stimuli/002995_2014-06-15_12-31-26_094959634447_rgbf000150-resize_1/002995_2014-06-15_12-31-26_094959634447_rgbf000150-resize_1-target.png,250,3.8360000000000003,5,3479,234,feet,jsons/v1_VE250_randls_43.json,1057576,1173993,24,Woman
15,262424,DepthScenes,duration_manipulation_targetAtFixation,jsons/v1_VE250_randls_43.json,http://54.235.29.9/FacialAge/BNav_EC2/DepthDuration/v2_depth_duration_MTurk/v2_DepthDuration_HTML.html#47,47,1440,757,1440,900,9-3-2022,13-42-26,16,depth_duration_stimuli/000470_2014-06-09_19-42-40_260595134347_rgbf000094-resize_1/000470_2014-06-09_19-42-40_260595134347_rgbf000094-resize_1-target.png,250,1.831,4,5155,249,feet,jsons/v1_VE250_randls_43.json,1057576,1173993,24,Woman
16,262424,DepthScenes,duration_manipulation_targetAtFixation,jsons/v1_VE250_randls_43.json,http://54.235.29.9/FacialAge/BNav_EC2/DepthDuration/v2_depth_duration_MTurk/v2_DepthDuration_HTML.html#47,47,1440,757,1440,900,9-3-2022,13-42-26,17,depth_duration_stimuli/000109_2014-05-14_23-41-52_260595134347_rgbf000035-resize_9/000109_2014-05-14_23-41-52_260595134347_rgbf000035-resize_9-target.png,250,1.3545,3,3034,251,feet,jsons/v1_VE250_randls_43.json,1057576,1173993,24,Woman
17,262424,DepthScenes,duration_manipulation_targetAtFixation,jsons/v1_VE250_randls_43.json,http://54.235.29.9/FacialAge/BNav_EC2/DepthDuration/v2_depth_duration_MTurk/v2_DepthDuration_HTML.html#47,47,1440,757,1440,900,9-3-2022,13-42-26,18,depth_duration_stimuli/001810_2014-06-26_20-51-35_260595134347_rgbf000040-resize_3/001810_2014-06-26_20-51-35_260595134347_rgbf000040-resize_3-target.png,250,2.2525,2,5096,251,feet,jsons/v1_VE250_randls_43.json,1057576,1173993,24,Woman
18,262424,DepthScenes,duration_manipulation_targetAtFixation,jsons/v1_VE250_randls_43.json,http://54.235.29.9/FacialAge/BNav_EC2/DepthDuration/v2_depth_duration_MTurk/v2_DepthDuration_HTML.html#47,47,1440,757,1440,900,9-3-2022,13-42-26,19,depth_duration_stimuli/003010_2014-06-15_12-54-35_094959634447_rgbf000112-resize_0/003010_2014-06-15_12-54-35_094959634447_rgbf000112-resize_0-target.png,250,3.1185,3,3641,233,feet,jsons/v1_VE250_randls_43.json,1057576,1173993,24,Woman
19,262424,DepthScenes,duration_manipulation_targetAtFixation,jsons/v1_VE250_randls_43.json,http://54.235.29.9/FacialAge/BNav_EC2/DepthDuration/v2_depth_duration_MTurk/v2_DepthDuration_HTML.html#47,47,1440,757,1440,900,9-3-2022,13-42-26,20,depth_duration_stimuli/001808_2014-06-26_20-50-58_260595134347_rgbf000029-resize_1/001808_2014-06-26_20-50-58_260595134347_rgbf000029-resize_1-target.png,250,4.249,5,4663,249,feet,jsons/v1_VE250_randls_43.json,1057576,1173993,24,Woman
20,262424,DepthScenes,duration_manipulation_targetAtFixation,jsons/v1_VE250_randls_43.json,http://54.235.29.9/FacialAge/BNav_EC2/DepthDuration/v2_depth_duration_MTurk/v2_DepthDuration_HTML.html#47,47,1440,757,1440,900,9-3-2022,13-42-26,21,depth_duration_stimuli/001815_2014-06-26_20-52-55_260595134347_rgbf000020-resize_0/001815_2014-06-26_20-52-55_260595134347_rgbf000020-resize_0-target.png,250,3.3865,4,2971,248,feet,jsons/v1_VE250_randls_43.json,1057576,1173993,24,Woman
21,262424,DepthScenes,duration_manipulation_targetAtFixation,jsons/v1_VE250_randls_43.json,http://54.235.29.9/FacialAge/BNav_EC2/DepthDuration/v2_depth_duration_MTurk/v2_DepthDuration_HTML.html#47,47,1440,757,1440,900,9-3-2022,13-42-26,22,depth_duration_stimuli/000739_2014-06-08_18-45-58_260595134347_rgbf000068-resize_1/000739_2014-06-08_18-45-58_260595134347_rgbf000068-resize_1-target.png,250,3.534,5,4099,247,feet,jsons/v1_VE250_randls_43.json,1057576,1173993,24,Woman
22,262424,DepthScenes,duration_manipulation_targetAtFixation,jsons/v1_VE250_randls_43.json,http://54.235.29.9/FacialAge/BNav_EC2/DepthDuration/v2_depth_duration_MTurk/v2_DepthDuration_HTML.html#47,47,1440,757,1440,900,9-3-2022,13-42-26,23,depth_duration_stimuli/000734_2014-06-08_17-39-11_260595134347_rgbf000128-resize_2/000734_2014-06-08_17-39-11_260595134347_rgbf000128-resize_2-target.png,250,4.098,3,3793,248,feet,jsons/v1_VE250_randls_43.json,1057576,1173993,24,Woman
23,262424,DepthScenes,duration_manipulation_targetAtFixation,jsons/v1_VE250_randls_43.json,http://54.235.29.9/FacialAge/BNav_EC2/DepthDuration/v2_depth_duration_MTurk/v2_DepthDuration_HTML.html#47,47,1440,757,1440,900,9-3-2022,13-42-26,24,depth_duration_stimuli/003621_2014-05-23_18-06-08_094959634447_rgbf000101-resize_1/003621_2014-05-23_18-06-08_094959634447_rgbf000101-resize_1-target.png,250,3.9835,5,4392,249,feet,jsons/v1_VE250_randls_43.json,1057576,1173993,24,Woman
24,262424,DepthScenes,duration_manipulation_targetAtFixation,jsons/v1_VE250_randls_43.json,http://54.235.29.9/FacialAge/BNav_EC2/DepthDuration/v2_depth_duration_MTurk/v2_DepthDuration_HTML.html#47,47,1440,757,1440,900,9-3-2022,13-42-26,25,depth_duration_stimuli/001584_2014-06-20_11-07-43_260595134347_rgbf000002-resize_1/001584_2014-06-20_11-07-43_260595134347_rgbf000002-resize_1-target.png,250,3.53,6,3258,248,feet,jsons/v1_VE250_randls_43.json,1057576,1173993,24,Woman
25,262424,DepthScenes,duration_manipulation_targetAtFixation,jsons/v1_VE250_randls_43.json,http://54.235.29.9/FacialAge/BNav_EC2/DepthDuration/v2_depth_duration_MTurk/v2_DepthDuration_HTML.html#47,47,1440,757,1440,900,9-3-2022,13-42-26,26,depth_duration_stimuli/003070_2014-06-15_14-58-27_094959634447_rgbf000150-resize_3/003070_2014-06-15_14-58-27_094959634447_rgbf000150-resize_3-target.png,250,2.9415,5,3761,249,feet,jsons/v1_VE250_randls_43.json,1057576,1173993,24,Woman
26,262424,DepthScenes,duration_manipulation_targetAtFixation,jsons/v1_VE250_randls_43.json,http://54.235.29.9/FacialAge/BNav_EC2/DepthDuration/v2_depth_duration_MTurk/v2_DepthDuration_HTML.html#47,47,1440,757,1440,900,9-3-2022,13-42-26,27,depth_duration_stimuli/000943_2014-06-09_19-31-07_260595134347_rgbf000128-resize_1/000943_2014-06-09_19-31-07_260595134347_rgbf000128-resize_1-target.png,250,1.9765,4,2728,246,feet,jsons/v1_VE250_randls_43.json,1057576,1173993,24,Woman
27,262424,DepthScenes,duration_manipulation_targetAtFixation,jsons/v1_VE250_randls_43.json,http://54.235.29.9/FacialAge/BNav_EC2/DepthDuration/v2_depth_duration_MTurk/v2_DepthDuration_HTML.html#47,47,1440,757,1440,900,9-3-2022,13-42-26,28,depth_duration_stimuli/001029_2014-06-08_13-17-57_260595134347_rgbf000065-resize_1/001029_2014-06-08_13-17-57_260595134347_rgbf000065-resize_1-target.png,250,3.0835,5,3541,254,feet,jsons/v1_VE250_randls_43.json,1057576,1173993,24,Woman
28,262424,DepthScenes,duration_manipulation_targetAtFixation,jsons/v1_VE250_randls_43.json,http://54.235.29.9/FacialAge/BNav_EC2/DepthDuration/v2_depth_duration_MTurk/v2_DepthDuration_HTML.html#47,47,1440,757,1440,900,9-3-2022,13-42-26,29,depth_duration_stimuli/000677_2014-06-08_23-10-32_260595134347_rgbf000158-resize_6/000677_2014-06-08_23-10-32_260595134347_rgbf000158-resize_6-target.png,250,3.556,0,3154,260,feet,jsons/v1_VE250_randls_43.json,1057576,1173993,24,Woman
29,262424,DepthScenes,duration_manipulation_targetAtFixation,jsons/v1_VE250_randls_43.json,http://54.235.29.9/FacialAge/BNav_EC2/DepthDuration/v2_depth_duration_MTurk/v2_DepthDuration_HTML.html#47,47,1440,757,1440,900,9-3-2022,13-42-26,30,depth_duration_stimuli/000375_2014-06-08_11-17-29_260595134347_rgbf000133-resize_2/000375_2014-06-08_11-17-29_260595134347_rgbf000133-resize-original.jpg,250,4.718,0,3858,250,feet,jsons/v1_VE250_randls_43.json,1057576,1173993,24,Woman
30,262424,DepthScenes,duration_manipulation_targetAtFixation,jsons/v1_VE250_randls_43.json,http://54.235.29.9/FacialAge/BNav_EC2/DepthDuration/v2_depth_duration_MTurk/v2_DepthDuration_HTML.html#47,47,1440,757,1440,900,9-3-2022,13-42-26,31,depth_duration_stimuli/000878_2014-06-08_22-52-45_260595134347_rgbf000045-resize_2/000878_2014-06-08_22-52-45_260595134347_rgbf000045-resize_2-target.png,250,2.092,1,3404,250,feet,jsons/v1_VE250_randls_43.json,1057576,1173993,24,Woman
31,262424,DepthScenes,duration_manipulation_targetAtFixation,jsons/v1_VE250_randls_43.json,http://54.235.29.9/FacialAge/BNav_EC2/DepthDuration/v2_depth_duration_MTurk/v2_DepthDuration_HTML.html#47,47,1440,757,1440,900,9-3-2022,13-42-26,32,depth_duration_stimuli/002953_2014-06-08_17-32-18_094959634447_rgbf000059-resize_5/002953_2014-06-08_17-32-18_094959634447_rgbf000059-resize_5-target.png,250,1.551,0,2581,247,feet,jsons/v1_VE250_randls_43.json,1057576,1173993,24,Woman
32,262424,DepthScenes,duration_manipulation_targetAtFixation,jsons/v1_VE250_randls_43.json,http://54.235.29.9/FacialAge/BNav_EC2/DepthDuration/v2_depth_duration_MTurk/v2_DepthDuration_HTML.html#47,47,1440,757,1440,900,9-3-2022,13-42-26,33,depth_duration_stimuli/002663_2014-06-13_15-50-26_094959634447_rgbf000075-resize_1/002663_2014-06-13_15-50-26_094959634447_rgbf000075-resize_1-target.png,250,4.7495,5,3284,250,feet,jsons/v1_VE250_randls_43.json,1057576,1173993,24,Woman
33,262424,DepthScenes,duration_manipulation_targetAtFixation,jsons/v1_VE250_randls_43.json,http://54.235.29.9/FacialAge/BNav_EC2/DepthDuration/v2_depth_duration_MTurk/v2_DepthDuration_HTML.html#47,47,1440,757,1440,900,9-3-2022,13-42-26,34,depth_duration_stimuli/000409_2014-06-04_19-23-33_260595134347_rgbf000067-resize_0/000409_2014-06-04_19-23-33_260595134347_rgbf000067-resize_0-target.png,250,3.7335,0,2626,251,feet,jsons/v1_VE250_randls_43.json,1057576,1173993,24,Woman
34,262424,DepthScenes,duration_manipulation_targetAtFixation,jsons/v1_VE250_randls_43.json,http://54.235.29.9/FacialAge/BNav_EC2/DepthDuration/v2_depth_duration_MTurk/v2_DepthDuration_HTML.html#47,47,1440,757,1440,900,9-3-2022,13-42-26,35,depth_duration_stimuli/000929_2014-06-09_16-33-19_260595134347_rgbf000139-resize_0/000929_2014-06-09_16-33-19_260595134347_rgbf000139-resize_0-target.png,250,2.8680000000000003,3,43729,263,feet,jsons/v1_VE250_randls_43.json,1057576,1173993,24,Woman
35,262424,DepthScenes,duration_manipulation_targetAtFixation,jsons/v1_VE250_randls_43.json,http://54.235.29.9/FacialAge/BNav_EC2/DepthDuration/v2_depth_duration_MTurk/v2_DepthDuration_HTML.html#47,47,1440,757,1440,900,9-3-2022,13-42-26,36,depth_duration_stimuli/000457_2014-06-08_16-52-43_260595134347_rgbf000199-resize_1/000457_2014-06-08_16-52-43_260595134347_rgbf000199-resize_1-target.png,250,3.6489999999999996,5,3973,249,feet,jsons/v1_VE250_randls_43.json,1057576,1173993,24,Woman
36,262424,DepthScenes,duration_manipulation_targetAtFixation,jsons/v1_VE250_randls_43.json,http://54.235.29.9/FacialAge/BNav_EC2/DepthDuration/v2_depth_duration_MTurk/v2_DepthDuration_HTML.html#47,47,1440,757,1440,900,9-3-2022,13-42-26,37,depth_duration_stimuli/002549_2014-06-24_13-41-39_094959634447_rgbf000022-resize_3/002549_2014-06-24_13-41-39_094959634447_rgbf000022-resize_3-target.png,250,1.476,3,5382,248,feet,jsons/v1_VE250_randls_43.json,1057576,1173993,24,Woman
37,262424,DepthScenes,duration_manipulation_targetAtFixation,jsons/v1_VE250_randls_43.json,http://54.235.29.9/FacialAge/BNav_EC2/DepthDuration/v2_depth_duration_MTurk/v2_DepthDuration_HTML.html#47,47,1440,757,1440,900,9-3-2022,13-42-26,38,depth_duration_stimuli/002750_2014-06-22_19-08-03_094959634447_rgbf000094-resize_4/002750_2014-06-22_19-08-03_094959634447_rgbf000094-resize_4-target.png,250,2.354,0,3838,226,feet,jsons/v1_VE250_randls_43.json,1057576,1173993,24,Woman
38,262424,DepthScenes,duration_manipulation_targetAtFixation,jsons/v1_VE250_randls_43.json,http://54.235.29.9/FacialAge/BNav_EC2/DepthDuration/v2_depth_duration_MTurk/v2_DepthDuration_HTML.html#47,47,1440,757,1440,900,9-3-2022,13-42-26,39,depth_duration_stimuli/000906_2014-06-08_13-35-43_260595134347_rgbf000155-resize_1/000906_2014-06-08_13-35-43_260595134347_rgbf000155-resize_1-target.png,250,2.8489999999999998,6,4375,248,feet,jsons/v1_VE250_randls_43.json,1057576,1173993,24,Woman
39,262424,DepthScenes,duration_manipulation_targetAtFixation,jsons/v1_VE250_randls_43.json,http://54.235.29.9/FacialAge/BNav_EC2/DepthDuration/v2_depth_duration_MTurk/v2_DepthDuration_HTML.html#47,47,1440,757,1440,900,9-3-2022,13-42-26,40,depth_duration_stimuli/002805_2014-06-22_19-54-03_094959634447_rgbf000079-resize_1/002805_2014-06-22_19-54-03_094959634447_rgbf000079-resize_1-target.png,250,3.1439999999999997,0,3625,219,feet,jsons/v1_VE250_randls_43.json,1057576,1173993,24,Woman
40,262424,DepthScenes,duration_manipulation_targetAtFixation,jsons/v1_VE250_randls_43.json,http://54.235.29.9/FacialAge/BNav_EC2/DepthDuration/v2_depth_duration_MTurk/v2_DepthDuration_HTML.html#47,47,1440,757,1440,900,9-3-2022,13-42-26,41,depth_duration_stimuli/000642_2014-06-08_16-59-25_260595134347_rgbf000098-resize_2/000642_2014-06-08_16-59-25_260595134347_rgbf000098-resize_2-target.png,250,2.8815,4,4296,260,feet,jsons/v1_VE250_randls_43.json,1057576,1173993,24,Woman
41,262424,DepthScenes,duration_manipulation_targetAtFixation,jsons/v1_VE250_randls_43.json,http://54.235.29.9/FacialAge/BNav_EC2/DepthDuration/v2_depth_duration_MTurk/v2_DepthDuration_HTML.html#47,47,1440,757,1440,900,9-3-2022,13-42-26,42,depth_duration_stimuli/002425_2014-06-28_20-27-29_260595134347_rgbf000031-resize_8/002425_2014-06-28_20-27-29_260595134347_rgbf000031-resize_8-target.png,250,3.8960000000000004,2,4244,259,feet,jsons/v1_VE250_randls_43.json,1057576,1173993,24,Woman
42,262424,DepthScenes,duration_manipulation_targetAtFixation,jsons/v1_VE250_randls_43.json,http://54.235.29.9/FacialAge/BNav_EC2/DepthDuration/v2_depth_duration_MTurk/v2_DepthDuration_HTML.html#47,47,1440,757,1440,900,9-3-2022,13-42-26,43,depth_duration_stimuli/002445_2014-06-28_20-32-16_260595134347_rgbf000029-resize_4/002445_2014-06-28_20-32-16_260595134347_rgbf000029-resize_4-target.png,250,2.5315,0,5529,246,feet,jsons/v1_VE250_randls_43.json,1057576,1173993,24,Woman
43,262424,DepthScenes,duration_manipulation_targetAtFixation,jsons/v1_VE250_randls_43.json,http://54.235.29.9/FacialAge/BNav_EC2/DepthDuration/v2_depth_duration_MTurk/v2_DepthDuration_HTML.html#47,47,1440,757,1440,900,9-3-2022,13-42-26,44,depth_duration_stimuli/000780_2014-06-08_22-28-29_260595134347_rgbf000126-resize_1/000780_2014-06-08_22-28-29_260595134347_rgbf000126-resize_1-target.png,250,3.3825,4,3535,260,feet,jsons/v1_VE250_randls_43.json,1057576,1173993,24,Woman
44,262424,DepthScenes,duration_manipulation_targetAtFixation,jsons/v1_VE250_randls_43.json,http://54.235.29.9/FacialAge/BNav_EC2/DepthDuration/v2_depth_duration_MTurk/v2_DepthDuration_HTML.html#47,47,1440,757,1440,900,9-3-2022,13-42-26,45,depth_duration_stimuli/000787_2014-06-08_22-33-53_260595134347_rgbf000175-resize_1/000787_2014-06-08_22-33-53_260595134347_rgbf000175-resize-original.jpg,250,4.784,0,3693,249,feet,jsons/v1_VE250_randls_43.json,1057576,1173993,24,Woman
45,262424,DepthScenes,duration_manipulation_targetAtFixation,jsons/v1_VE250_randls_43.json,http://54.235.29.9/FacialAge/BNav_EC2/DepthDuration/v2_depth_duration_MTurk/v2_DepthDuration_HTML.html#47,47,1440,757,1440,900,9-3-2022,13-42-26,46,depth_duration_stimuli/002057_2014-06-24_21-00-13_260595134347_rgbf000120-resize_1/002057_2014-06-24_21-00-13_260595134347_rgbf000120-resize_1-target.png,250,2.967,2,4821,250,feet,jsons/v1_VE250_randls_43.json,1057576,1173993,24,Woman
46,262424,DepthScenes,duration_manipulation_targetAtFixation,jsons/v1_VE250_randls_43.json,http://54.235.29.9/FacialAge/BNav_EC2/DepthDuration/v2_depth_duration_MTurk/v2_DepthDuration_HTML.html#47,47,1440,757,1440,900,9-3-2022,13-42-26,47,depth_duration_stimuli/000709_2014-06-08_13-51-55_260595134347_rgbf000068-resize_3/000709_2014-06-08_13-51-55_260595134347_rgbf000068-resize_3-target.png,250,1.8030000000000002,2,3553,250,feet,jsons/v1_VE250_randls_43.json,1057576,1173993,24,Woman
47,262424,DepthScenes,duration_manipulation_targetAtFixation,jsons/v1_VE250_randls_43.json,http://54.235.29.9/FacialAge/BNav_EC2/DepthDuration/v2_depth_duration_MTurk/v2_DepthDuration_HTML.html#47,47,1440,757,1440,900,9-3-2022,13-42-26,48,depth_duration_stimuli/000447_2014-06-08_16-15-46_260595134347_rgbf000130-resize_1/000447_2014-06-08_16-15-46_260595134347_rgbf000130-resize_1-target.png,250,4.479,4,3191,243,feet,jsons/v1_VE250_randls_43.json,1057576,1173993,24,Woman
48,262424,DepthScenes,duration_manipulation_targetAtFixation,jsons/v1_VE250_randls_43.json,http://54.235.29.9/FacialAge/BNav_EC2/DepthDuration/v2_depth_duration_MTurk/v2_DepthDuration_HTML.html#47,47,1440,757,1440,900,9-3-2022,13-42-26,49,depth_duration_stimuli/001447_2014-06-19_17-00-32_260595134347_rgbf000082-resize_5/001447_2014-06-19_17-00-32_260595134347_rgbf000082-resize_5-target.png,250,4.13775,0,2653,251,feet,jsons/v1_VE250_randls_43.json,1057576,1173993,24,Woman
49,262424,DepthScenes,duration_manipulation_targetAtFixation,jsons/v1_VE250_randls_43.json,http://54.235.29.9/FacialAge/BNav_EC2/DepthDuration/v2_depth_duration_MTurk/v2_DepthDuration_HTML.html#47,47,1440,757,1440,900,9-3-2022,13-42-26,50,depth_duration_stimuli/002988_2014-06-15_12-24-20_094959634447_rgbf000150-resize_1/002988_2014-06-15_12-24-20_094959634447_rgbf000150-resize_1-target.png,250,4.7669999999999995,6,4997,260,feet,jsons/v1_VE250_randls_43.json,1057576,1173993,24,Woman
50,262424,DepthScenes,duration_manipulation_targetAtFixation,jsons/v1_VE250_randls_43.json,http://54.235.29.9/FacialAge/BNav_EC2/DepthDuration/v2_depth_duration_MTurk/v2_DepthDuration_HTML.html#47,47,1440,757,1440,900,9-3-2022,13-42-26,51,depth_duration_stimuli/001052_2014-06-08_18-24-54_260595134347_rgbf000130-resize_1/001052_2014-06-08_18-24-54_260595134347_rgbf000130-resize_1-target.png,250,4.1045,0,3972,248,feet,jsons/v1_VE250_randls_43.json,1057576,1173993,24,Woman
51,262424,DepthScenes,duration_manipulation_targetAtFixation,jsons/v1_VE250_randls_43.json,http://54.235.29.9/FacialAge/BNav_EC2/DepthDuration/v2_depth_duration_MTurk/v2_DepthDuration_HTML.html#47,47,1440,757,1440,900,9-3-2022,13-42-26,52,depth_duration_stimuli/002153_2014-06-25_21-27-18_260595134347_rgbf000038-resize_5/002153_2014-06-25_21-27-18_260595134347_rgbf000038-resize_5-target.png,250,2.505,3,3719,249,feet,jsons/v1_VE250_randls_43.json,1057576,1173993,24,Woman
52,262424,DepthScenes,duration_manipulation_targetAtFixation,jsons/v1_VE250_randls_43.json,http://54.235.29.9/FacialAge/BNav_EC2/DepthDuration/v2_depth_duration_MTurk/v2_DepthDuration_HTML.html#47,47,1440,757,1440,900,9-3-2022,13-42-26,53,depth_duration_stimuli/002660_2014-06-13_15-44-18_094959634447_rgbf001878-resize_2/002660_2014-06-13_15-44-18_094959634447_rgbf001878-resize_2-target.png,250,3.576,0,2750,248,feet,jsons/v1_VE250_randls_43.json,1057576,1173993,24,Woman
53,262424,DepthScenes,duration_manipulation_targetAtFixation,jsons/v1_VE250_randls_43.json,http://54.235.29.9/FacialAge/BNav_EC2/DepthDuration/v2_depth_duration_MTurk/v2_DepthDuration_HTML.html#47,47,1440,757,1440,900,9-3-2022,13-42-26,54,depth_duration_stimuli/001150_2014-06-17_15-27-34_260595134347_rgbf000108-resize_2/001150_2014-06-17_15-27-34_260595134347_rgbf000108-resize_2-target.png,250,4.0325,5,3344,250,feet,jsons/v1_VE250_randls_43.json,1057576,1173993,24,Woman
54,262424,DepthScenes,duration_manipulation_targetAtFixation,jsons/v1_VE250_randls_43.json,http://54.235.29.9/FacialAge/BNav_EC2/DepthDuration/v2_depth_duration_MTurk/v2_DepthDuration_HTML.html#47,47,1440,757,1440,900,9-3-2022,13-42-26,55,depth_duration_stimuli/000665_2014-06-09_20-42-35_260595134347_rgbf000110-resize_1/000665_2014-06-09_20-42-35_260595134347_rgbf000110-resize_1-target.png,250,3.057,4,3875,248,feet,jsons/v1_VE250_randls_43.json,1057576,1173993,24,Woman
55,262424,DepthScenes,duration_manipulation_targetAtFixation,jsons/v1_VE250_randls_43.json,http://54.235.29.9/FacialAge/BNav_EC2/DepthDuration/v2_depth_duration_MTurk/v2_DepthDuration_HTML.html#47,47,1440,757,1440,900,9-3-2022,13-42-26,56,depth_duration_stimuli/001056_2014-06-08_18-46-44_260595134347_rgbf000068-resize_0/001056_2014-06-08_18-46-44_260595134347_rgbf000068-resize_0-target.png,250,2.6625,4,5532,249,feet,jsons/v1_VE250_randls_43.json,1057576,1173993,24,Woman
56,262424,DepthScenes,duration_manipulation_targetAtFixation,jsons/v1_VE250_randls_43.json,http://54.235.29.9/FacialAge/BNav_EC2/DepthDuration/v2_depth_duration_MTurk/v2_DepthDuration_HTML.html#47,47,1440,757,1440,900,9-3-2022,13-42-26,57,depth_duration_stimuli/002199_2014-06-28_18-33-56_260595134347_rgbf000074-resize_0/002199_2014-06-28_18-33-56_260595134347_rgbf000074-resize_0-target.png,250,1.996,3,2781,250,feet,jsons/v1_VE250_randls_43.json,1057576,1173993,24,Woman
57,262424,DepthScenes,duration_manipulation_targetAtFixation,jsons/v1_VE250_randls_43.json,http://54.235.29.9/FacialAge/BNav_EC2/DepthDuration/v2_depth_duration_MTurk/v2_DepthDuration_HTML.html#47,47,1440,757,1440,900,9-3-2022,13-42-26,58,depth_duration_stimuli/002784_2014-06-22_19-26-30_094959634447_rgbf000083-resize_3/002784_2014-06-22_19-26-30_094959634447_rgbf000083-resize_3-target.png,250,1.8046666666667,3,3016,235,feet,jsons/v1_VE250_randls_43.json,1057576,1173993,24,Woman
58,262424,DepthScenes,duration_manipulation_targetAtFixation,jsons/v1_VE250_randls_43.json,http://54.235.29.9/FacialAge/BNav_EC2/DepthDuration/v2_depth_duration_MTurk/v2_DepthDuration_HTML.html#47,47,1440,757,1440,900,9-3-2022,13-42-26,59,depth_duration_stimuli/001100_2014-06-15_17-46-26_260595134347_rgbf000225-resize_2/001100_2014-06-15_17-46-26_260595134347_rgbf000225-resize_2-target.png,250,2.24,0,2921,249,feet,jsons/v1_VE250_randls_43.json,1057576,1173993,24,Woman
59,262424,DepthScenes,duration_manipulation_targetAtFixation,jsons/v1_VE250_randls_43.json,http://54.235.29.9/FacialAge/BNav_EC2/DepthDuration/v2_depth_duration_MTurk/v2_DepthDuration_HTML.html#47,47,1440,757,1440,900,9-3-2022,13-42-26,60,depth_duration_stimuli/002213_2014-06-28_18-37-58_260595134347_rgbf000055-resize_1/002213_2014-06-28_18-37-58_260595134347_rgbf000055-resize_1-target.png,250,3.62,6,3704,249,feet,jsons/v1_VE250_randls_43.json,1057576,1173993,24,Woman
60,262424,DepthScenes,duration_manipulation_targetAtFixation,jsons/v1_VE250_randls_43.json,http://54.235.29.9/FacialAge/BNav_EC2/DepthDuration/v2_depth_duration_MTurk/v2_DepthDuration_HTML.html#47,47,1440,757,1440,900,9-3-2022,13-42-26,61,depth_duration_stimuli/000691_2014-06-08_13-08-50_260595134347_rgbf000132-resize_3/000691_2014-06-08_13-08-50_260595134347_rgbf000132-resize_3-target.png,250,4.1530000000000005,0,2969,249,feet,jsons/v1_VE250_randls_43.json,1057576,1173993,24,Woman
61,262424,DepthScenes,duration_manipulation_targetAtFixation,jsons/v1_VE250_randls_43.json,http://54.235.29.9/FacialAge/BNav_EC2/DepthDuration/v2_depth_duration_MTurk/v2_DepthDuration_HTML.html#47,47,1440,757,1440,900,9-3-2022,13-42-26,62,depth_duration_stimuli/000414_2014-06-04_19-49-13_260595134347_rgbf000044-resize_0/000414_2014-06-04_19-49-13_260595134347_rgbf000044-resize_0-target.png,250,4.329,6,3296,234,feet,jsons/v1_VE250_randls_43.json,1057576,1173993,24,Woman
62,262424,DepthScenes,duration_manipulation_targetAtFixation,jsons/v1_VE250_randls_43.json,http://54.235.29.9/FacialAge/BNav_EC2/DepthDuration/v2_depth_duration_MTurk/v2_DepthDuration_HTML.html#47,47,1440,757,1440,900,9-3-2022,13-42-26,63,depth_duration_stimuli/003129_2014-05-12_10-48-10_094959634447_rgbf000100-resize_0/003129_2014-05-12_10-48-10_094959634447_rgbf000100-resize_0-target.png,250,4.9305,0,2609,249,feet,jsons/v1_VE250_randls_43.json,1057576,1173993,24,Woman
63,262424,DepthScenes,duration_manipulation_targetAtFixation,jsons/v1_VE250_randls_43.json,http://54.235.29.9/FacialAge/BNav_EC2/DepthDuration/v2_depth_duration_MTurk/v2_DepthDuration_HTML.html#47,47,1440,757,1440,900,9-3-2022,13-42-26,64,depth_duration_stimuli/002905_2014-06-03_18-04-43_094959634447_rgbf000151-resize_2/002905_2014-06-03_18-04-43_094959634447_rgbf000151-resize_2-target.png,250,2.0295,4,3141,250,feet,jsons/v1_VE250_randls_43.json,1057576,1173993,24,Woman
64,262424,DepthScenes,duration_manipulation_targetAtFixation,jsons/v1_VE250_randls_43.json,http://54.235.29.9/FacialAge/BNav_EC2/DepthDuration/v2_depth_duration_MTurk/v2_DepthDuration_HTML.html#47,47,1440,757,1440,900,9-3-2022,13-42-26,65,depth_duration_stimuli/003423_2014-05-21_10-23-26_094959634447_rgbf002665-resize_2/003423_2014-05-21_10-23-26_094959634447_rgbf002665-resize_2-target.png,250,3.2575,0,2797,250,feet,jsons/v1_VE250_randls_43.json,1057576,1173993,24,Woman
65,262424,DepthScenes,duration_manipulation_targetAtFixation,jsons/v1_VE250_randls_43.json,http://54.235.29.9/FacialAge/BNav_EC2/DepthDuration/v2_depth_duration_MTurk/v2_DepthDuration_HTML.html#47,47,1440,757,1440,900,9-3-2022,13-42-26,66,depth_duration_stimuli/001222_2014-06-17_16-24-06_260595134347_rgbf000073-resize_0/001222_2014-06-17_16-24-06_260595134347_rgbf000073-resize-original.jpg,250,1.4385,7,3937,248,feet,jsons/v1_VE250_randls_43.json,1057576,1173993,24,Woman
66,262424,DepthScenes,duration_manipulation_targetAtFixation,jsons/v1_VE250_randls_43.json,http://54.235.29.9/FacialAge/BNav_EC2/DepthDuration/v2_depth_duration_MTurk/v2_DepthDuration_HTML.html#47,47,1440,757,1440,900,9-3-2022,13-42-26,67,depth_duration_stimuli/002272_2014-06-28_18-53-56_260595134347_rgbf000067-resize_2/002272_2014-06-28_18-53-56_260595134347_rgbf000067-resize_2-target.png,250,1.138,3,3125,250,feet,jsons/v1_VE250_randls_43.json,1057576,1173993,24,Woman
67,262424,DepthScenes,duration_manipulation_targetAtFixation,jsons/v1_VE250_randls_43.json,http://54.235.29.9/FacialAge/BNav_EC2/DepthDuration/v2_depth_duration_MTurk/v2_DepthDuration_HTML.html#47,47,1440,757,1440,900,9-3-2022,13-42-26,68,depth_duration_stimuli/001571_2014-06-20_17-21-32_260595134347_rgbf000089-resize_1/001571_2014-06-20_17-21-32_260595134347_rgbf000089-resize_1-target.png,250,1.86,0,2531,248,feet,jsons/v1_VE250_randls_43.json,1057576,1173993,24,Woman
68,262424,DepthScenes,duration_manipulation_targetAtFixation,jsons/v1_VE250_randls_43.json,http://54.235.29.9/FacialAge/BNav_EC2/DepthDuration/v2_depth_duration_MTurk/v2_DepthDuration_HTML.html#47,47,1440,757,1440,900,9-3-2022,13-42-26,69,depth_duration_stimuli/002118_2014-06-25_20-32-08_260595134347_rgbf000078-resize_1/002118_2014-06-25_20-32-08_260595134347_rgbf000078-resize_1-target.png,250,2.6460000000000004,4,3187,248,feet,jsons/v1_VE250_randls_43.json,1057576,1173993,24,Woman
69,262424,DepthScenes,duration_manipulation_targetAtFixation,jsons/v1_VE250_randls_43.json,http://54.235.29.9/FacialAge/BNav_EC2/DepthDuration/v2_depth_duration_MTurk/v2_DepthDuration_HTML.html#47,47,1440,757,1440,900,9-3-2022,13-42-26,70,depth_duration_stimuli/001516_2014-06-20_16-25-09_260595134347_rgbf000076-resize_2/001516_2014-06-20_16-25-09_260595134347_rgbf000076-resize_2-target.png,250,1.7445,0,2453,249,feet,jsons/v1_VE250_randls_43.json,1057576,1173993,24,Woman
70,262424,DepthScenes,duration_manipulation_targetAtFixation,jsons/v1_VE250_randls_43.json,http://54.235.29.9/FacialAge/BNav_EC2/DepthDuration/v2_depth_duration_MTurk/v2_DepthDuration_HTML.html#47,47,1440,757,1440,900,9-3-2022,13-42-26,71,depth_duration_stimuli/002763_2014-06-22_19-13-10_094959634447_rgbf000075-resize_4/002763_2014-06-22_19-13-10_094959634447_rgbf000075-resize_4-target.png,250,1.68375,5,3000,231,feet,jsons/v1_VE250_randls_43.json,1057576,1173993,24,Woman
71,262424,DepthScenes,duration_manipulation_targetAtFixation,jsons/v1_VE250_randls_43.json,http://54.235.29.9/FacialAge/BNav_EC2/DepthDuration/v2_depth_duration_MTurk/v2_DepthDuration_HTML.html#47,47,1440,757,1440,900,9-3-2022,13-42-26,72,depth_duration_stimuli/002209_2014-06-28_18-36-10_260595134347_rgbf000051-resize_1/002209_2014-06-28_18-36-10_260595134347_rgbf000051-resize_1-target.png,250,2.057,0,4593,248,feet,jsons/v1_VE250_randls_43.json,1057576,1173993,24,Woman
72,262424,DepthScenes,duration_manipulation_targetAtFixation,jsons/v1_VE250_randls_43.json,http://54.235.29.9/FacialAge/BNav_EC2/DepthDuration/v2_depth_duration_MTurk/v2_DepthDuration_HTML.html#47,47,1440,757,1440,900,9-3-2022,13-42-26,73,depth_duration_stimuli/001570_2014-06-20_17-21-09_260595134347_rgbf000135-resize_4/001570_2014-06-20_17-21-09_260595134347_rgbf000135-resize_4-target.png,250,4.467,6,3484,249,feet,jsons/v1_VE250_randls_43.json,1057576,1173993,24,Woman
73,262424,DepthScenes,duration_manipulation_targetAtFixation,jsons/v1_VE250_randls_43.json,http://54.235.29.9/FacialAge/BNav_EC2/DepthDuration/v2_depth_duration_MTurk/v2_DepthDuration_HTML.html#47,47,1440,757,1440,900,9-3-2022,13-42-26,74,depth_duration_stimuli/001392_2014-06-19_16-07-59_260595134347_rgbf000046-resize_1/001392_2014-06-19_16-07-59_260595134347_rgbf000046-resize_1-target.png,250,4.135,0,2812,248,feet,jsons/v1_VE250_randls_43.json,1057576,1173993,24,Woman
74,262424,DepthScenes,duration_manipulation_targetAtFixation,jsons/v1_VE250_randls_43.json,http://54.235.29.9/FacialAge/BNav_EC2/DepthDuration/v2_depth_duration_MTurk/v2_DepthDuration_HTML.html#47,47,1440,757,1440,900,9-3-2022,13-42-26,75,depth_duration_stimuli/002509_2014-06-24_13-19-22_094959634447_rgbf000077-resize_0/002509_2014-06-24_13-19-22_094959634447_rgbf000077-resize_0-target.png,250,1.3065,2,3218,248,feet,jsons/v1_VE250_randls_43.json,1057576,1173993,24,Woman
75,262424,DepthScenes,duration_manipulation_targetAtFixation,jsons/v1_VE250_randls_43.json,http://54.235.29.9/FacialAge/BNav_EC2/DepthDuration/v2_depth_duration_MTurk/v2_DepthDuration_HTML.html#47,47,1440,757,1440,900,9-3-2022,13-42-26,76,depth_duration_stimuli/003338_2014-05-20_11-01-23_094959634447_rgbf000051-resize_6/003338_2014-05-20_11-01-23_094959634447_rgbf000051-resize_6-target.png,250,1.693,0,5984,249,feet,jsons/v1_VE250_randls_43.json,1057576,1173993,24,Woman
76,262424,DepthScenes,duration_manipulation_targetAtFixation,jsons/v1_VE250_randls_43.json,http://54.235.29.9/FacialAge/BNav_EC2/DepthDuration/v2_depth_duration_MTurk/v2_DepthDuration_HTML.html#47,47,1440,757,1440,900,9-3-2022,13-42-26,77,depth_duration_stimuli/000682_2014-06-08_23-14-58_260595134347_rgbf000041-resize_5/000682_2014-06-08_23-14-58_260595134347_rgbf000041-resize_5-target.png,250,2.7239999999999998,5,7107,246,feet,jsons/v1_VE250_randls_43.json,1057576,1173993,24,Woman
77,262424,DepthScenes,duration_manipulation_targetAtFixation,jsons/v1_VE250_randls_43.json,http://54.235.29.9/FacialAge/BNav_EC2/DepthDuration/v2_depth_duration_MTurk/v2_DepthDuration_HTML.html#47,47,1440,757,1440,900,9-3-2022,13-42-26,78,depth_duration_stimuli/001650_2014-06-20_12-09-00_260595134347_rgbf000087-resize_3/001650_2014-06-20_12-09-00_260595134347_rgbf000087-resize_3-target.png,250,1.9505,0,4656,281,feet,jsons/v1_VE250_randls_43.json,1057576,1173993,24,Woman
78,262424,DepthScenes,duration_manipulation_targetAtFixation,jsons/v1_VE250_randls_43.json,http://54.235.29.9/FacialAge/BNav_EC2/DepthDuration/v2_depth_duration_MTurk/v2_DepthDuration_HTML.html#47,47,1440,757,1440,900,9-3-2022,13-42-26,79,depth_duration_stimuli/001066_2014-06-08_22-03-20_260595134347_rgbf000066-resize_4/001066_2014-06-08_22-03-20_260595134347_rgbf000066-resize_4-target.png,250,4.2330000000000005,7,5172,249,feet,jsons/v1_VE250_randls_43.json,1057576,1173993,24,Woman
79,262424,DepthScenes,duration_manipulation_targetAtFixation,jsons/v1_VE250_randls_43.json,http://54.235.29.9/FacialAge/BNav_EC2/DepthDuration/v2_depth_duration_MTurk/v2_DepthDuration_HTML.html#47,47,1440,757,1440,900,9-3-2022,13-42-26,80,depth_duration_stimuli/000742_2014-06-08_18-48-09_260595134347_rgbf000164-resize_4/000742_2014-06-08_18-48-09_260595134347_rgbf000164-resize_4-target.png,250,4.632,4,7016,241,feet,jsons/v1_VE250_randls_43.json,1057576,1173993,24,Woman
80,262424,DepthScenes,duration_manipulation_targetAtFixation,jsons/v1_VE250_randls_43.json,http://54.235.29.9/FacialAge/BNav_EC2/DepthDuration/v2_depth_duration_MTurk/v2_DepthDuration_HTML.html#47,47,1440,757,1440,900,9-3-2022,13-42-26,81,depth_duration_stimuli/002989_2014-06-15_12-25-03_094959634447_rgbf000150-resize_3/002989_2014-06-15_12-25-03_094959634447_rgbf000150-resize_3-target.png,250,4.1975,6,3000,249,feet,jsons/v1_VE250_randls_43.json,1057576,1173993,24,Woman
81,262424,DepthScenes,duration_manipulation_targetAtFixation,jsons/v1_VE250_randls_43.json,http://54.235.29.9/FacialAge/BNav_EC2/DepthDuration/v2_depth_duration_MTurk/v2_DepthDuration_HTML.html#47,47,1440,757,1440,900,9-3-2022,13-42-26,82,depth_duration_stimuli/000866_2014-06-09_20-45-42_260595134347_rgbf000139-resize_1/000866_2014-06-09_20-45-42_260595134347_rgbf000139-resize_1-target.png,250,3.2155,0,2453,248,feet,jsons/v1_VE250_randls_43.json,1057576,1173993,24,Woman
82,262424,DepthScenes,duration_manipulation_targetAtFixation,jsons/v1_VE250_randls_43.json,http://54.235.29.9/FacialAge/BNav_EC2/DepthDuration/v2_depth_duration_MTurk/v2_DepthDuration_HTML.html#47,47,1440,757,1440,900,9-3-2022,13-42-26,83,depth_duration_stimuli/001417_2014-06-19_16-25-36_260595134347_rgbf000115-resize_5/001417_2014-06-19_16-25-36_260595134347_rgbf000115-resize_5-target.png,250,4.6255,5,2813,248,feet,jsons/v1_VE250_randls_43.json,1057576,1173993,24,Woman
83,262424,DepthScenes,duration_manipulation_targetAtFixation,jsons/v1_VE250_randls_43.json,http://54.235.29.9/FacialAge/BNav_EC2/DepthDuration/v2_depth_duration_MTurk/v2_DepthDuration_HTML.html#47,47,1440,757,1440,900,9-3-2022,13-42-26,84,depth_duration_stimuli/003081_2014-06-15_15-19-16_094959634447_rgbf000150-resize_1/003081_2014-06-15_15-19-16_094959634447_rgbf000150-resize_1-target.png,250,3.9125,0,2751,263,feet,jsons/v1_VE250_randls_43.json,1057576,1173993,24,Woman
84,262424,DepthScenes,duration_manipulation_targetAtFixation,jsons/v1_VE250_randls_43.json,http://54.235.29.9/FacialAge/BNav_EC2/DepthDuration/v2_depth_duration_MTurk/v2_DepthDuration_HTML.html#47,47,1440,757,1440,900,9-3-2022,13-42-26,85,depth_duration_stimuli/001175_2014-06-17_15-45-55_260595134347_rgbf000129-resize_4/001175_2014-06-17_15-45-55_260595134347_rgbf000129-resize_4-target.png,250,4.255,6,4766,249,feet,jsons/v1_VE250_randls_43.json,1057576,1173993,24,Woman
85,262424,DepthScenes,duration_manipulation_targetAtFixation,jsons/v1_VE250_randls_43.json,http://54.235.29.9/FacialAge/BNav_EC2/DepthDuration/v2_depth_duration_MTurk/v2_DepthDuration_HTML.html#47,47,1440,757,1440,900,9-3-2022,13-42-26,86,depth_duration_stimuli/003490_2014-05-21_15-50-11_094959634447_rgbf000101-resize_3/003490_2014-05-21_15-50-11_094959634447_rgbf000101-resize_3-target.png,250,3.6445,4,2570,251,feet,jsons/v1_VE250_randls_43.json,1057576,1173993,24,Woman
86,262424,DepthScenes,duration_manipulation_targetAtFixation,jsons/v1_VE250_randls_43.json,http://54.235.29.9/FacialAge/BNav_EC2/DepthDuration/v2_depth_duration_MTurk/v2_DepthDuration_HTML.html#47,47,1440,757,1440,900,9-3-2022,13-42-26,87,depth_duration_stimuli/000788_2014-06-08_22-34-36_260595134347_rgbf000131-resize_1/000788_2014-06-08_22-34-36_260595134347_rgbf000131-resize_1-target.png,250,3.359,0,5610,249,feet,jsons/v1_VE250_randls_43.json,1057576,1173993,24,Woman
87,262424,DepthScenes,duration_manipulation_targetAtFixation,jsons/v1_VE250_randls_43.json,http://54.235.29.9/FacialAge/BNav_EC2/DepthDuration/v2_depth_duration_MTurk/v2_DepthDuration_HTML.html#47,47,1440,757,1440,900,9-3-2022,13-42-26,88,depth_duration_stimuli/001235_2014-06-17_16-37-36_260595134347_rgbf000084-resize_4/001235_2014-06-17_16-37-36_260595134347_rgbf000084-resize_4-target.png,250,3.6605,0,5406,249,feet,jsons/v1_VE250_randls_43.json,1057576,1173993,24,Woman
88,262424,DepthScenes,duration_manipulation_targetAtFixation,jsons/v1_VE250_randls_43.json,http://54.235.29.9/FacialAge/BNav_EC2/DepthDuration/v2_depth_duration_MTurk/v2_DepthDuration_HTML.html#47,47,1440,757,1440,900,9-3-2022,13-42-26,89,depth_duration_stimuli/000810_2014-06-08_17-20-01_260595134347_rgbf000105-resize_0/000810_2014-06-08_17-20-01_260595134347_rgbf000105-resize_0-target.png,250,1.4865,4,3249,250,feet,jsons/v1_VE250_randls_43.json,1057576,1173993,24,Woman
89,262424,DepthScenes,duration_manipulation_targetAtFixation,jsons/v1_VE250_randls_43.json,http://54.235.29.9/FacialAge/BNav_EC2/DepthDuration/v2_depth_duration_MTurk/v2_DepthDuration_HTML.html#47,47,1440,757,1440,900,9-3-2022,13-42-26,90,depth_duration_stimuli/001214_2014-06-17_16-13-55_260595134347_rgbf000111-resize_0/001214_2014-06-17_16-13-55_260595134347_rgbf000111-resize_0-target.png,250,2.6505,0,2562,233,feet,jsons/v1_VE250_randls_43.json,1057576,1173993,24,Woman
90,262424,DepthScenes,duration_manipulation_targetAtFixation,jsons/v1_VE250_randls_43.json,http://54.235.29.9/FacialAge/BNav_EC2/DepthDuration/v2_depth_duration_MTurk/v2_DepthDuration_HTML.html#47,47,1440,757,1440,900,9-3-2022,13-42-26,91,depth_duration_stimuli/002279_2014-06-28_18-55-32_260595134347_rgbf000040-resize_5/002279_2014-06-28_18-55-32_260595134347_rgbf000040-resize_5-target.png,250,1.5043333333333,0,3481,250,feet,jsons/v1_VE250_randls_43.json,1057576,1173993,24,Woman
91,262424,DepthScenes,duration_manipulation_targetAtFixation,jsons/v1_VE250_randls_43.json,http://54.235.29.9/FacialAge/BNav_EC2/DepthDuration/v2_depth_duration_MTurk/v2_DepthDuration_HTML.html#47,47,1440,757,1440,900,9-3-2022,13-42-26,92,depth_duration_stimuli/000635_2014-06-08_16-38-42_260595134347_rgbf000106-resize_1/000635_2014-06-08_16-38-42_260595134347_rgbf000106-resize_1-target.png,250,2.074,0,3109,249,feet,jsons/v1_VE250_randls_43.json,1057576,1173993,24,Woman
92,262424,DepthScenes,duration_manipulation_targetAtFixation,jsons/v1_VE250_randls_43.json,http://54.235.29.9/FacialAge/BNav_EC2/DepthDuration/v2_depth_duration_MTurk/v2_DepthDuration_HTML.html#47,47,1440,757,1440,900,9-3-2022,13-42-26,93,depth_duration_stimuli/001110_2014-06-15_17-25-28_260595134347_rgbf000150-resize_1/001110_2014-06-15_17-25-28_260595134347_rgbf000150-resize_1-target.png,250,1.7115,4,3000,249,feet,jsons/v1_VE250_randls_43.json,1057576,1173993,24,Woman
93,262424,DepthScenes,duration_manipulation_targetAtFixation,jsons/v1_VE250_randls_43.json,http://54.235.29.9/FacialAge/BNav_EC2/DepthDuration/v2_depth_duration_MTurk/v2_DepthDuration_HTML.html#47,47,1440,757,1440,900,9-3-2022,13-42-26,94,depth_duration_stimuli/000927_2014-06-09_16-32-30_260595134347_rgbf000123-resize_3/000927_2014-06-09_16-32-30_260595134347_rgbf000123-resize_3-target.png,250,2.6785,6,2875,233,feet,jsons/v1_VE250_randls_43.json,1057576,1173993,24,Woman
94,262424,DepthScenes,duration_manipulation_targetAtFixation,jsons/v1_VE250_randls_43.json,http://54.235.29.9/FacialAge/BNav_EC2/DepthDuration/v2_depth_duration_MTurk/v2_DepthDuration_HTML.html#47,47,1440,757,1440,900,9-3-2022,13-42-26,95,depth_duration_stimuli/002600_2014-06-24_14-27-04_094959634447_rgbf000074-resize_2/002600_2014-06-24_14-27-04_094959634447_rgbf000074-resize_2-target.png,250,2.7575,5,2626,248,feet,jsons/v1_VE250_randls_43.json,1057576,1173993,24,Woman
95,262424,DepthScenes,duration_manipulation_targetAtFixation,jsons/v1_VE250_randls_43.json,http://54.235.29.9/FacialAge/BNav_EC2/DepthDuration/v2_depth_duration_MTurk/v2_DepthDuration_HTML.html#47,47,1440,757,1440,900,9-3-2022,13-42-26,96,depth_duration_stimuli/003228_2014-05-14_13-42-35_094959634447_rgbf000101-resize_1/003228_2014-05-14_13-42-35_094959634447_rgbf000101-resize_1-target.png,250,1.9680000000000002,0,3054,249,feet,jsons/v1_VE250_randls_43.json,1057576,1173993,24,Woman
96,262424,DepthScenes,duration_manipulation_targetAtFixation,jsons/v1_VE250_randls_43.json,http://54.235.29.9/FacialAge/BNav_EC2/DepthDuration/v2_depth_duration_MTurk/v2_DepthDuration_HTML.html#47,47,1440,757,1440,900,9-3-2022,13-42-26,97,depth_duration_stimuli/000917_2014-06-09_22-45-29_260595134347_rgbf000149-resize_3/000917_2014-06-09_22-45-29_260595134347_rgbf000149-resize_3-target.png,250,4.1865,5,3409,248,feet,jsons/v1_VE250_randls_43.json,1057576,1173993,24,Woman
97,262424,DepthScenes,duration_manipulation_targetAtFixation,jsons/v1_VE250_randls_43.json,http://54.235.29.9/FacialAge/BNav_EC2/DepthDuration/v2_depth_duration_MTurk/v2_DepthDuration_HTML.html#47,47,1440,757,1440,900,9-3-2022,13-42-26,98,depth_duration_stimuli/002323_2014-06-28_20-01-54_260595134347_rgbf000051-resize_4/002323_2014-06-28_20-01-54_260595134347_rgbf000051-resize_4-target.png,250,3.7310000000000003,0,3938,249,feet,jsons/v1_VE250_randls_43.json,1057576,1173993,24,Woman
98,262424,DepthScenes,duration_manipulation_targetAtFixation,jsons/v1_VE250_randls_43.json,http://54.235.29.9/FacialAge/BNav_EC2/DepthDuration/v2_depth_duration_MTurk/v2_DepthDuration_HTML.html#47,47,1440,757,1440,900,9-3-2022,13-42-26,99,depth_duration_stimuli/001540_2014-06-20_17-01-05_260595134347_rgbf000086-resize_2/001540_2014-06-20_17-01-05_260595134347_rgbf000086-resize-original.jpg,250,1.459,0,16484,249,feet,jsons/v1_VE250_randls_43.json,1057576,1173993,24,Woman
99,262424,DepthScenes,duration_manipulation_targetAtFixation,jsons/v1_VE250_randls_43.json,http://54.235.29.9/FacialAge/BNav_EC2/DepthDuration/v2_depth_duration_MTurk/v2_DepthDuration_HTML.html#47,47,1440,757,1440,900,9-3-2022,13-42-26,100,depth_duration_stimuli/001158_2014-06-17_15-32-16_260595134347_rgbf000138-resize_2/001158_2014-06-17_15-32-16_260595134347_rgbf000138-resize_2-target.png,250,4.5315,6,7032,249,feet,jsons/v1_VE250_randls_43.json,1057576,1173993,24,Woman
100,262424,DepthScenes,duration_manipulation_targetAtFixation,jsons/v1_VE250_randls_43.json,http://54.235.29.9/FacialAge/BNav_EC2/DepthDuration/v2_depth_duration_MTurk/v2_DepthDuration_HTML.html#47,47,1440,757,1440,900,9-3-2022,13-42-26,101,depth_duration_stimuli/000556_2014-06-09_22-42-56_260595134347_rgbf000214-resize_1/000556_2014-06-09_22-42-56_260595134347_rgbf000214-resize_1-target.png,250,4.8415,0,19656,241,feet,jsons/v1_VE250_randls_43.json,1057576,1173993,24,Woman
101,262424,DepthScenes,duration_manipulation_targetAtFixation,jsons/v1_VE250_randls_43.json,http://54.235.29.9/FacialAge/BNav_EC2/DepthDuration/v2_depth_duration_MTurk/v2_DepthDuration_HTML.html#47,47,1440,757,1440,900,9-3-2022,13-42-26,102,depth_duration_stimuli/000436_2014-06-09_22-25-11_260595134347_rgbf000137-resize_1/000436_2014-06-09_22-25-11_260595134347_rgbf000137-resize_1-target.png,250,4.0705,5,3279,234,feet,jsons/v1_VE250_randls_43.json,1057576,1173993,24,Woman
102,262424,DepthScenes,duration_manipulation_targetAtFixation,jsons/v1_VE250_randls_43.json,http://54.235.29.9/FacialAge/BNav_EC2/DepthDuration/v2_depth_duration_MTurk/v2_DepthDuration_HTML.html#47,47,1440,757,1440,900,9-3-2022,13-42-26,103,depth_duration_stimuli/002444_2014-06-28_20-32-08_260595134347_rgbf000027-resize_0/002444_2014-06-28_20-32-08_260595134347_rgbf000027-resize_0-target.png,250,4.388999999999999,4,2867,249,feet,jsons/v1_VE250_randls_43.json,1057576,1173993,24,Woman
103,262424,DepthScenes,duration_manipulation_targetAtFixation,jsons/v1_VE250_randls_43.json,http://54.235.29.9/FacialAge/BNav_EC2/DepthDuration/v2_depth_duration_MTurk/v2_DepthDuration_HTML.html#47,47,1440,757,1440,900,9-3-2022,13-42-26,104,depth_duration_stimuli/001011_2014-06-08_23-18-54_260595134347_rgbf000044-resize_4/001011_2014-06-08_23-18-54_260595134347_rgbf000044-resize_4-target.png,250,2.4730000000000003,6,2664,248,feet,jsons/v1_VE250_randls_43.json,1057576,1173993,24,Woman
104,262424,DepthScenes,duration_manipulation_targetAtFixation,jsons/v1_VE250_randls_43.json,http://54.235.29.9/FacialAge/BNav_EC2/DepthDuration/v2_depth_duration_MTurk/v2_DepthDuration_HTML.html#47,47,1440,757,1440,900,9-3-2022,13-42-26,105,depth_duration_stimuli/002875_2014-06-01_15-19-00_094959634447_rgbf000151-resize_1/002875_2014-06-01_15-19-00_094959634447_rgbf000151-resize_1-target.png,250,1.9675,5,2578,249,feet,jsons/v1_VE250_randls_43.json,1057576,1173993,24,Woman
105,262424,DepthScenes,duration_manipulation_targetAtFixation,jsons/v1_VE250_randls_43.json,http://54.235.29.9/FacialAge/BNav_EC2/DepthDuration/v2_depth_duration_MTurk/v2_DepthDuration_HTML.html#47,47,1440,757,1440,900,9-3-2022,13-42-26,106,depth_duration_stimuli/003492_2014-05-21_15-50-55_094959634447_rgbf000828-resize_1/003492_2014-05-21_15-50-55_094959634447_rgbf000828-resize_1-target.png,250,4.06875,4,6328,249,feet,jsons/v1_VE250_randls_43.json,1057576,1173993,24,Woman
106,262424,DepthScenes,duration_manipulation_targetAtFixation,jsons/v1_VE250_randls_43.json,http://54.235.29.9/FacialAge/BNav_EC2/DepthDuration/v2_depth_duration_MTurk/v2_DepthDuration_HTML.html#47,47,1440,757,1440,900,9-3-2022,13-42-26,107,depth_duration_stimuli/002568_2014-06-24_13-59-21_094959634447_rgbf000062-resize_4/002568_2014-06-24_13-59-21_094959634447_rgbf000062-resize_4-target.png,250,3.015,0,2531,248,feet,jsons/v1_VE250_randls_43.json,1057576,1173993,24,Woman
107,262424,DepthScenes,duration_manipulation_targetAtFixation,jsons/v1_VE250_randls_43.json,http://54.235.29.9/FacialAge/BNav_EC2/DepthDuration/v2_depth_duration_MTurk/v2_DepthDuration_HTML.html#47,47,1440,757,1440,900,9-3-2022,13-42-26,108,depth_duration_stimuli/001164_2014-06-17_15-35-46_260595134347_rgbf000085-resize_3/001164_2014-06-17_15-35-46_260595134347_rgbf000085-resize_3-target.png,250,2.354,0,5110,248,feet,jsons/v1_VE250_randls_43.json,1057576,1173993,24,Woman
108,262424,DepthScenes,duration_manipulation_targetAtFixation,jsons/v1_VE250_randls_43.json,http://54.235.29.9/FacialAge/BNav_EC2/DepthDuration/v2_depth_duration_MTurk/v2_DepthDuration_HTML.html#47,47,1440,757,1440,900,9-3-2022,13-42-26,109,depth_duration_stimuli/001136_2014-06-17_15-19-41_260595134347_rgbf000076-resize_3/001136_2014-06-17_15-19-41_260595134347_rgbf000076-resize_3-target.png,250,1.8655,0,2719,248,feet,jsons/v1_VE250_randls_43.json,1057576,1173993,24,Woman
109,262424,DepthScenes,duration_manipulation_targetAtFixation,jsons/v1_VE250_randls_43.json,http://54.235.29.9/FacialAge/BNav_EC2/DepthDuration/v2_depth_duration_MTurk/v2_DepthDuration_HTML.html#47,47,1440,757,1440,900,9-3-2022,13-42-26,110,depth_duration_stimuli/000506_2014-06-08_23-21-00_260595134347_rgbf000070-resize_7/000506_2014-06-08_23-21-00_260595134347_rgbf000070-resize_7-target.png,250,4.0585,5,2750,249,feet,jsons/v1_VE250_randls_43.json,1057576,1173993,24,Woman
110,262424,DepthScenes,duration_manipulation_targetAtFixation,jsons/v1_VE250_randls_43.json,http://54.235.29.9/FacialAge/BNav_EC2/DepthDuration/v2_depth_duration_MTurk/v2_DepthDuration_HTML.html#47,47,1440,757,1440,900,9-3-2022,13-42-26,111,depth_duration_stimuli/003079_2014-06-15_15-18-20_094959634447_rgbf000152-resize_8/003079_2014-06-15_15-18-20_094959634447_rgbf000152-resize_8-target.png,250,2.8775,0,3047,249,feet,jsons/v1_VE250_randls_43.json,1057576,1173993,24,Woman
111,262424,DepthScenes,duration_manipulation_targetAtFixation,jsons/v1_VE250_randls_43.json,http://54.235.29.9/FacialAge/BNav_EC2/DepthDuration/v2_depth_duration_MTurk/v2_DepthDuration_HTML.html#47,47,1440,757,1440,900,9-3-2022,13-42-26,112,depth_duration_stimuli/000493_2014-06-09_21-01-18_260595134347_rgbf000196-resize_3/000493_2014-06-09_21-01-18_260595134347_rgbf000196-resize_3-target.png,250,3.44,5,2766,249,feet,jsons/v1_VE250_randls_43.json,1057576,1173993,24,Woman
112,262424,DepthScenes,duration_manipulation_targetAtFixation,jsons/v1_VE250_randls_43.json,http://54.235.29.9/FacialAge/BNav_EC2/DepthDuration/v2_depth_duration_MTurk/v2_DepthDuration_HTML.html#47,47,1440,757,1440,900,9-3-2022,13-42-26,113,depth_duration_stimuli/000191_2014-05-12_17-07-38_260595134347_rgbf000199-resize_0/000191_2014-05-12_17-07-38_260595134347_rgbf000199-resize_0-target.png,250,3.7995,5,2938,248,feet,jsons/v1_VE250_randls_43.json,1057576,1173993,24,Woman
113,262424,DepthScenes,duration_manipulation_targetAtFixation,jsons/v1_VE250_randls_43.json,http://54.235.29.9/FacialAge/BNav_EC2/DepthDuration/v2_depth_duration_MTurk/v2_DepthDuration_HTML.html#47,47,1440,757,1440,900,9-3-2022,13-42-26,114,depth_duration_stimuli/000486_2014-06-09_20-47-20_260595134347_rgbf000143-resize_2/000486_2014-06-09_20-47-20_260595134347_rgbf000143-resize_2-target.png,250,4.8325,5,297271,251,feet,jsons/v1_VE250_randls_43.json,1057576,1173993,24,Woman
114,262424,DepthScenes,duration_manipulation_targetAtFixation,jsons/v1_VE250_randls_43.json,http://54.235.29.9/FacialAge/BNav_EC2/DepthDuration/v2_depth_duration_MTurk/v2_DepthDuration_HTML.html#47,47,1440,757,1440,900,9-3-2022,13-42-26,115,depth_duration_stimuli/003083_2014-06-15_15-21-03_094959634447_rgbf000063-resize_1/003083_2014-06-15_15-21-03_094959634447_rgbf000063-resize_1-target.png,250,4.1405,5,3680,262,feet,jsons/v1_VE250_randls_43.json,1057576,1173993,24,Woman
115,262424,DepthScenes,duration_manipulation_targetAtFixation,jsons/v1_VE250_randls_43.json,http://54.235.29.9/FacialAge/BNav_EC2/DepthDuration/v2_depth_duration_MTurk/v2_DepthDuration_HTML.html#47,47,1440,757,1440,900,9-3-2022,13-42-26,116,depth_duration_stimuli/001170_2014-06-17_15-43-44_260595134347_rgbf000096-resize_6/001170_2014-06-17_15-43-44_260595134347_rgbf000096-resize-original.jpg,250,1.1909999999999998,0,2376,248,feet,jsons/v1_VE250_randls_43.json,1057576,1173993,24,Woman
116,262424,DepthScenes,duration_manipulation_targetAtFixation,jsons/v1_VE250_randls_43.json,http://54.235.29.9/FacialAge/BNav_EC2/DepthDuration/v2_depth_duration_MTurk/v2_DepthDuration_HTML.html#47,47,1440,757,1440,900,9-3-2022,13-42-26,117,depth_duration_stimuli/000469_2014-06-09_19-42-10_260595134347_rgbf000081-resize_1/000469_2014-06-09_19-42-10_260595134347_rgbf000081-resize_1-target.png,250,1.652,4,2721,262,feet,jsons/v1_VE250_randls_43.json,1057576,1173993,24,Woman
117,262424,DepthScenes,duration_manipulation_targetAtFixation,jsons/v1_VE250_randls_43.json,http://54.235.29.9/FacialAge/BNav_EC2/DepthDuration/v2_depth_duration_MTurk/v2_DepthDuration_HTML.html#47,47,1440,757,1440,900,9-3-2022,13-42-26,118,depth_duration_stimuli/000483_2014-06-09_20-41-45_260595134347_rgbf000116-resize_4/000483_2014-06-09_20-41-45_260595134347_rgbf000116-resize_4-target.png,250,1.337,0,2389,248,feet,jsons/v1_VE250_randls_43.json,1057576,1173993,24,Woman
118,262424,DepthScenes,duration_manipulation_targetAtFixation,jsons/v1_VE250_randls_43.json,http://54.235.29.9/FacialAge/BNav_EC2/DepthDuration/v2_depth_duration_MTurk/v2_DepthDuration_HTML.html#47,47,1440,757,1440,900,9-3-2022,13-42-26,119,depth_duration_stimuli/001449_2014-06-19_17-01-27_260595134347_rgbf000116-resize_2/001449_2014-06-19_17-01-27_260595134347_rgbf000116-resize_2-target.png,250,3.452,5,2828,248,feet,jsons/v1_VE250_randls_43.json,1057576,1173993,24,Woman
119,262424,DepthScenes,duration_manipulation_targetAtFixation,jsons/v1_VE250_randls_43.json,http://54.235.29.9/FacialAge/BNav_EC2/DepthDuration/v2_depth_duration_MTurk/v2_DepthDuration_HTML.html#47,47,1440,757,1440,900,9-3-2022,13-42-26,120,depth_duration_stimuli/001450_2014-06-19_17-02-03_260595134347_rgbf000203-resize_4/001450_2014-06-19_17-02-03_260595134347_rgbf000203-resize_4-target.png,250,4.0106666666667,6,3765,249,feet,jsons/v1_VE250_randls_43.json,1057576,1173993,24,Woman
120,262424,DepthScenes,duration_manipulation_targetAtFixation,jsons/v1_VE250_randls_43.json,http://54.235.29.9/FacialAge/BNav_EC2/DepthDuration/v2_depth_duration_MTurk/v2_DepthDuration_HTML.html#47,47,1440,757,1440,900,9-3-2022,13-42-26,121,depth_duration_stimuli/001244_2014-06-17_16-47-45_260595134347_rgbf000030-resize_4/001244_2014-06-17_16-47-45_260595134347_rgbf000030-resize_4-target.png,250,2.0425,4,2453,234,feet,jsons/v1_VE250_randls_43.json,1057576,1173993,24,Woman
121,262424,DepthScenes,duration_manipulation_targetAtFixation,jsons/v1_VE250_randls_43.json,http://54.235.29.9/FacialAge/BNav_EC2/DepthDuration/v2_depth_duration_MTurk/v2_DepthDuration_HTML.html#47,47,1440,757,1440,900,9-3-2022,13-42-26,122,depth_duration_stimuli/003495_2014-05-21_16-01-51_094959634447_rgbf000100-resize_3/003495_2014-05-21_16-01-51_094959634447_rgbf000100-resize_3-target.png,250,1.6255,0,2756,245,feet,jsons/v1_VE250_randls_43.json,1057576,1173993,24,Woman
122,262424,DepthScenes,duration_manipulation_targetAtFixation,jsons/v1_VE250_randls_43.json,http://54.235.29.9/FacialAge/BNav_EC2/DepthDuration/v2_depth_duration_MTurk/v2_DepthDuration_HTML.html#47,47,1440,757,1440,900,9-3-2022,13-42-26,123,depth_duration_stimuli/000009_2014-05-26_14-32-05_260595134347_rgbf000034-resize_3/000009_2014-05-26_14-32-05_260595134347_rgbf000034-resize_3-target.png,250,3.8715,6,4228,249,feet,jsons/v1_VE250_randls_43.json,1057576,1173993,24,Woman
123,262424,DepthScenes,duration_manipulation_targetAtFixation,jsons/v1_VE250_randls_43.json,http://54.235.29.9/FacialAge/BNav_EC2/DepthDuration/v2_depth_duration_MTurk/v2_DepthDuration_HTML.html#47,47,1440,757,1440,900,9-3-2022,13-42-26,124,depth_duration_stimuli/001828_2014-06-26_21-40-03_260595134347_rgbf000024-resize_0/001828_2014-06-26_21-40-03_260595134347_rgbf000024-resize_0-target.png,250,4.8260000000000005,0,4892,251,feet,jsons/v1_VE250_randls_43.json,1057576,1173993,24,Woman
124,262424,DepthScenes,duration_manipulation_targetAtFixation,jsons/v1_VE250_randls_43.json,http://54.235.29.9/FacialAge/BNav_EC2/DepthDuration/v2_depth_duration_MTurk/v2_DepthDuration_HTML.html#47,47,1440,757,1440,900,9-3-2022,13-42-26,125,depth_duration_stimuli/000522_2014-06-08_13-35-06_260595134347_rgbf000244-resize_1/000522_2014-06-08_13-35-06_260595134347_rgbf000244-resize_1-target.png,250,2.3715,3,2529,247,feet,jsons/v1_VE250_randls_43.json,1057576,1173993,24,Woman
125,262424,DepthScenes,duration_manipulation_targetAtFixation,jsons/v1_VE250_randls_43.json,http://54.235.29.9/FacialAge/BNav_EC2/DepthDuration/v2_depth_duration_MTurk/v2_DepthDuration_HTML.html#47,47,1440,757,1440,900,9-3-2022,13-42-26,126,depth_duration_stimuli/002949_2014-06-26_15-57-42_094959634447_rgbf000079-resize_1/002949_2014-06-26_15-57-42_094959634447_rgbf000079-resize_1-target.png,250,1.8915,0,2704,265,feet,jsons/v1_VE250_randls_43.json,1057576,1173993,24,Woman
126,262424,DepthScenes,duration_manipulation_targetAtFixation,jsons/v1_VE250_randls_43.json,http://54.235.29.9/FacialAge/BNav_EC2/DepthDuration/v2_depth_duration_MTurk/v2_DepthDuration_HTML.html#47,47,1440,757,1440,900,9-3-2022,13-42-26,127,depth_duration_stimuli/002043_2014-06-24_20-29-38_260595134347_rgbf000039-resize_4/002043_2014-06-24_20-29-38_260595134347_rgbf000039-resize_4-target.png,250,2.8435,4,3984,235,feet,jsons/v1_VE250_randls_43.json,1057576,1173993,24,Woman
127,262424,DepthScenes,duration_manipulation_targetAtFixation,jsons/v1_VE250_randls_43.json,http://54.235.29.9/FacialAge/BNav_EC2/DepthDuration/v2_depth_duration_MTurk/v2_DepthDuration_HTML.html#47,47,1440,757,1440,900,9-3-2022,13-42-26,128,depth_duration_stimuli/003048_2014-06-15_13-49-43_094959634447_rgbf000150-resize_1/003048_2014-06-15_13-49-43_094959634447_rgbf000150-resize_1-target.png,250,4.0035,0,2079,250,feet,jsons/v1_VE250_randls_43.json,1057576,1173993,24,Woman
128,262424,DepthScenes,duration_manipulation_targetAtFixation,jsons/v1_VE250_randls_43.json,http://54.235.29.9/FacialAge/BNav_EC2/DepthDuration/v2_depth_duration_MTurk/v2_DepthDuration_HTML.html#47,47,1440,757,1440,900,9-3-2022,13-42-26,129,depth_duration_stimuli/001133_2014-06-17_14-49-16_260595134347_rgbf000100-resize_0/001133_2014-06-17_14-49-16_260595134347_rgbf000100-resize_0-target.png,250,4.2115,5,2594,261,feet,jsons/v1_VE250_randls_43.json,1057576,1173993,24,Woman
129,262424,DepthScenes,duration_manipulation_targetAtFixation,jsons/v1_VE250_randls_43.json,http://54.235.29.9/FacialAge/BNav_EC2/DepthDuration/v2_depth_duration_MTurk/v2_DepthDuration_HTML.html#47,47,1440,757,1440,900,9-3-2022,13-42-26,130,depth_duration_stimuli/001132_2014-06-17_14-48-54_260595134347_rgbf000100-resize_2/001132_2014-06-17_14-48-54_260595134347_rgbf000100-resize_2-target.png,250,3.753,0,2266,248,feet,jsons/v1_VE250_randls_43.json,1057576,1173993,24,Woman
130,262424,DepthScenes,duration_manipulation_targetAtFixation,jsons/v1_VE250_randls_43.json,http://54.235.29.9/FacialAge/BNav_EC2/DepthDuration/v2_depth_duration_MTurk/v2_DepthDuration_HTML.html#47,47,1440,757,1440,900,9-3-2022,13-42-26,131,depth_duration_stimuli/002788_2014-06-22_19-36-03_094959634447_rgbf000088-resize_2/002788_2014-06-22_19-36-03_094959634447_rgbf000088-resize_2-target.png,250,1.6465,5,2485,233,feet,jsons/v1_VE250_randls_43.json,1057576,1173993,24,Woman
131,262424,DepthScenes,duration_manipulation_targetAtFixation,jsons/v1_VE250_randls_43.json,http://54.235.29.9/FacialAge/BNav_EC2/DepthDuration/v2_depth_duration_MTurk/v2_DepthDuration_HTML.html#47,47,1440,757,1440,900,9-3-2022,13-42-26,132,depth_duration_stimuli/000749_2014-06-08_21-55-06_260595134347_rgbf000070-resize_2/000749_2014-06-08_21-55-06_260595134347_rgbf000070-resize_2-target.png,250,2.331,6,3558,249,feet,jsons/v1_VE250_randls_43.json,1057576,1173993,24,Woman
132,262424,DepthScenes,duration_manipulation_targetAtFixation,jsons/v1_VE250_randls_43.json,http://54.235.29.9/FacialAge/BNav_EC2/DepthDuration/v2_depth_duration_MTurk/v2_DepthDuration_HTML.html#47,47,1440,757,1440,900,9-3-2022,13-42-26,133,depth_duration_stimuli/000758_2014-06-08_22-05-08_260595134347_rgbf000085-resize_0/000758_2014-06-08_22-05-08_260595134347_rgbf000085-resize_0-target.png,250,3.3810000000000002,6,3271,249,feet,jsons/v1_VE250_randls_43.json,1057576,1173993,24,Woman
133,262424,DepthScenes,duration_manipulation_targetAtFixation,jsons/v1_VE250_randls_43.json,http://54.235.29.9/FacialAge/BNav_EC2/DepthDuration/v2_depth_duration_MTurk/v2_DepthDuration_HTML.html#47,47,1440,757,1440,900,9-3-2022,13-42-26,134,depth_duration_stimuli/000854_2014-06-09_19-43-13_260595134347_rgbf000066-resize_0/000854_2014-06-09_19-43-13_260595134347_rgbf000066-resize_0-target.png,250,3.068,0,4766,248,feet,jsons/v1_VE250_randls_43.json,1057576,1173993,24,Woman
134,262424,DepthScenes,duration_manipulation_targetAtFixation,jsons/v1_VE250_randls_43.json,http://54.235.29.9/FacialAge/BNav_EC2/DepthDuration/v2_depth_duration_MTurk/v2_DepthDuration_HTML.html#47,47,1440,757,1440,900,9-3-2022,13-42-26,135,depth_duration_stimuli/002072_2014-06-24_21-48-06_260595134347_rgbf000115-resize_0/002072_2014-06-24_21-48-06_260595134347_rgbf000115-resize-original.jpg,250,4.702,0,3296,246,feet,jsons/v1_VE250_randls_43.json,1057576,1173993,24,Woman
135,262424,DepthScenes,duration_manipulation_targetAtFixation,jsons/v1_VE250_randls_43.json,http://54.235.29.9/FacialAge/BNav_EC2/DepthDuration/v2_depth_duration_MTurk/v2_DepthDuration_HTML.html#47,47,1440,757,1440,900,9-3-2022,13-42-26,136,depth_duration_stimuli/002725_2014-06-22_11-47-51_094959634447_rgbf000070-resize_1/002725_2014-06-22_11-47-51_094959634447_rgbf000070-resize_1-target.png,250,2.195,5,3453,233,feet,jsons/v1_VE250_randls_43.json,1057576,1173993,24,Woman
136,262424,DepthScenes,duration_manipulation_targetAtFixation,jsons/v1_VE250_randls_43.json,http://54.235.29.9/FacialAge/BNav_EC2/DepthDuration/v2_depth_duration_MTurk/v2_DepthDuration_HTML.html#47,47,1440,757,1440,900,9-3-2022,13-42-26,137,depth_duration_stimuli/002344_2014-06-28_20-06-29_260595134347_rgbf000030-resize_1/002344_2014-06-28_20-06-29_260595134347_rgbf000030-resize_1-target.png,250,1.5795,0,2391,229,feet,jsons/v1_VE250_randls_43.json,1057576,1173993,24,Woman
137,262424,DepthScenes,duration_manipulation_targetAtFixation,jsons/v1_VE250_randls_43.json,http://54.235.29.9/FacialAge/BNav_EC2/DepthDuration/v2_depth_duration_MTurk/v2_DepthDuration_HTML.html#47,47,1440,757,1440,900,9-3-2022,13-42-26,138,depth_duration_stimuli/001016_2014-06-09_16-16-10_260595134347_rgbf000112-resize_5/001016_2014-06-09_16-16-10_260595134347_rgbf000112-resize_5-target.png,250,1.6565,0,4469,248,feet,jsons/v1_VE250_randls_43.json,1057576,1173993,24,Woman
138,262424,DepthScenes,duration_manipulation_targetAtFixation,jsons/v1_VE250_randls_43.json,http://54.235.29.9/FacialAge/BNav_EC2/DepthDuration/v2_depth_duration_MTurk/v2_DepthDuration_HTML.html#47,47,1440,757,1440,900,9-3-2022,13-42-26,139,depth_duration_stimuli/002340_2014-06-28_20-05-46_260595134347_rgbf000113-resize_0/002340_2014-06-28_20-05-46_260595134347_rgbf000113-resize_0-target.png,250,2.4735,0,2234,243,feet,jsons/v1_VE250_randls_43.json,1057576,1173993,24,Woman
139,262424,DepthScenes,duration_manipulation_targetAtFixation,jsons/v1_VE250_randls_43.json,http://54.235.29.9/FacialAge/BNav_EC2/DepthDuration/v2_depth_duration_MTurk/v2_DepthDuration_HTML.html#47,47,1440,757,1440,900,9-3-2022,13-42-26,140,depth_duration_stimuli/002375_2014-06-28_20-13-44_260595134347_rgbf000032-resize_1/002375_2014-06-28_20-13-44_260595134347_rgbf000032-resize_1-target.png,250,4.0175,4,2375,249,feet,jsons/v1_VE250_randls_43.json,1057576,1173993,24,Woman
140,262424,DepthScenes,duration_manipulation_targetAtFixation,jsons/v1_VE250_randls_43.json,http://54.235.29.9/FacialAge/BNav_EC2/DepthDuration/v2_depth_duration_MTurk/v2_DepthDuration_HTML.html#47,47,1440,757,1440,900,9-3-2022,13-42-26,141,depth_duration_stimuli/002657_2014-06-13_15-29-54_094959634447_rgbf000150-resize_1/002657_2014-06-13_15-29-54_094959634447_rgbf000150-resize_1-target.png,250,4.919,0,1952,249,feet,jsons/v1_VE250_randls_43.json,1057576,1173993,24,Woman
141,262424,DepthScenes,duration_manipulation_targetAtFixation,jsons/v1_VE250_randls_43.json,http://54.235.29.9/FacialAge/BNav_EC2/DepthDuration/v2_depth_duration_MTurk/v2_DepthDuration_HTML.html#47,47,1440,757,1440,900,9-3-2022,13-42-26,142,depth_duration_stimuli/001199_2014-06-17_16-03-48_260595134347_rgbf000077-resize_0/001199_2014-06-17_16-03-48_260595134347_rgbf000077-resize_0-target.png,250,3.4375,5,3968,249,feet,jsons/v1_VE250_randls_43.json,1057576,1173993,24,Woman
142,262424,DepthScenes,duration_manipulation_targetAtFixation,jsons/v1_VE250_randls_43.json,http://54.235.29.9/FacialAge/BNav_EC2/DepthDuration/v2_depth_duration_MTurk/v2_DepthDuration_HTML.html#47,47,1440,757,1440,900,9-3-2022,13-42-26,143,depth_duration_stimuli/000502_2014-06-08_23-02-32_260595134347_rgbf000063-resize_4/000502_2014-06-08_23-02-32_260595134347_rgbf000063-resize_4-target.png,250,2.431,0,2625,248,feet,jsons/v1_VE250_randls_43.json,1057576,1173993,24,Woman
143,262424,DepthScenes,duration_manipulation_targetAtFixation,jsons/v1_VE250_randls_43.json,http://54.235.29.9/FacialAge/BNav_EC2/DepthDuration/v2_depth_duration_MTurk/v2_DepthDuration_HTML.html#47,47,1440,757,1440,900,9-3-2022,13-42-26,144,depth_duration_stimuli/000692_2014-06-08_13-09-42_260595134347_rgbf000199-resize_2/000692_2014-06-08_13-09-42_260595134347_rgbf000199-resize_2-target.png,250,3.661,4,2877,265,feet,jsons/v1_VE250_randls_43.json,1057576,1173993,24,Woman
144,262424,DepthScenes,duration_manipulation_targetAtFixation,jsons/v1_VE250_randls_43.json,http://54.235.29.9/FacialAge/BNav_EC2/DepthDuration/v2_depth_duration_MTurk/v2_DepthDuration_HTML.html#47,47,1440,757,1440,900,9-3-2022,13-42-26,145,depth_duration_stimuli/001094_2014-06-15_17-36-00_260595134347_rgbf000205-resize_0/001094_2014-06-15_17-36-00_260595134347_rgbf000205-resize_0-target.png,250,4.2175,0,2016,249,feet,jsons/v1_VE250_randls_43.json,1057576,1173993,24,Woman
145,262424,DepthScenes,duration_manipulation_targetAtFixation,jsons/v1_VE250_randls_43.json,http://54.235.29.9/FacialAge/BNav_EC2/DepthDuration/v2_depth_duration_MTurk/v2_DepthDuration_HTML.html#47,47,1440,757,1440,900,9-3-2022,13-42-26,146,depth_duration_stimuli/001498_2014-06-19_17-45-14_260595134347_rgbf000129-resize_4/001498_2014-06-19_17-45-14_260595134347_rgbf000129-resize-original.jpg,250,1.4075,0,2696,249,feet,jsons/v1_VE250_randls_43.json,1057576,1173993,24,Woman
146,262424,DepthScenes,duration_manipulation_targetAtFixation,jsons/v1_VE250_randls_43.json,http://54.235.29.9/FacialAge/BNav_EC2/DepthDuration/v2_depth_duration_MTurk/v2_DepthDuration_HTML.html#47,47,1440,757,1440,900,9-3-2022,13-42-26,147,depth_duration_stimuli/003534_2014-05-22_15-06-10_094959634447_rgbf000102-resize_4/003534_2014-05-22_15-06-10_094959634447_rgbf000102-resize_4-target.png,250,1.426,2,2339,249,feet,jsons/v1_VE250_randls_43.json,1057576,1173993,24,Woman
147,262424,DepthScenes,duration_manipulation_targetAtFixation,jsons/v1_VE250_randls_43.json,http://54.235.29.9/FacialAge/BNav_EC2/DepthDuration/v2_depth_duration_MTurk/v2_DepthDuration_HTML.html#47,47,1440,757,1440,900,9-3-2022,13-42-26,148,depth_duration_stimuli/002637_2014-06-24_14-51-13_094959634447_rgbf000066-resize_4/002637_2014-06-24_14-51-13_094959634447_rgbf000066-resize_4-target.png,250,1.9955,0,3478,250,feet,jsons/v1_VE250_randls_43.json,1057576,1173993,24,Woman
148,262424,DepthScenes,duration_manipulation_targetAtFixation,jsons/v1_VE250_randls_43.json,http://54.235.29.9/FacialAge/BNav_EC2/DepthDuration/v2_depth_duration_MTurk/v2_DepthDuration_HTML.html#47,47,1440,757,1440,900,9-3-2022,13-42-26,149,depth_duration_stimuli/001806_2014-06-26_20-50-20_260595134347_rgbf000091-resize_1/001806_2014-06-26_20-50-20_260595134347_rgbf000091-resize_1-target.png,250,2.7305,3,3665,243,feet,jsons/v1_VE250_randls_43.json,1057576,1173993,24,Woman
149,262424,DepthScenes,duration_manipulation_targetAtFixation,jsons/v1_VE250_randls_43.json,http://54.235.29.9/FacialAge/BNav_EC2/DepthDuration/v2_depth_duration_MTurk/v2_DepthDuration_HTML.html#47,47,1440,757,1440,900,9-3-2022,13-42-26,150,depth_duration_stimuli/001617_2014-06-20_11-35-32_260595134347_rgbf000066-resize_1/001617_2014-06-20_11-35-32_260595134347_rgbf000066-resize_1-target.png,250,3.7910000000000004,0,2443,235,feet,jsons/v1_VE250_randls_43.json,1057576,1173993,24,Woman
150,262424,DepthScenes,duration_manipulation_targetAtFixation,jsons/v1_VE250_randls_43.json,http://54.235.29.9/FacialAge/BNav_EC2/DepthDuration/v2_depth_duration_MTurk/v2_DepthDuration_HTML.html#47,47,1440,757,1440,900,9-3-2022,13-42-26,151,depth_duration_stimuli/001059_2014-06-08_21-53-27_260595134347_rgbf000061-resize_4/001059_2014-06-08_21-53-27_260595134347_rgbf000061-resize_4-target.png,250,2.4185,0,3172,243,feet,jsons/v1_VE250_randls_43.json,1057576,1173993,24,Woman
151,262424,DepthScenes,duration_manipulation_targetAtFixation,jsons/v1_VE250_randls_43.json,http://54.235.29.9/FacialAge/BNav_EC2/DepthDuration/v2_depth_duration_MTurk/v2_DepthDuration_HTML.html#47,47,1440,757,1440,900,9-3-2022,13-42-26,152,depth_duration_stimuli/001032_2014-06-08_13-23-17_260595134347_rgbf000021-resize_3/001032_2014-06-08_13-23-17_260595134347_rgbf000021-resize_3-target.png,250,3.2725,0,4685,249,feet,jsons/v1_VE250_randls_43.json,1057576,1173993,24,Woman
152,262424,DepthScenes,duration_manipulation_targetAtFixation,jsons/v1_VE250_randls_43.json,http://54.235.29.9/FacialAge/BNav_EC2/DepthDuration/v2_depth_duration_MTurk/v2_DepthDuration_HTML.html#47,47,1440,757,1440,900,9-3-2022,13-42-26,153,depth_duration_stimuli/001555_2014-06-20_17-12-10_260595134347_rgbf000065-resize_4/001555_2014-06-20_17-12-10_260595134347_rgbf000065-resize_4-target.png,250,1.633,3,3141,251,feet,jsons/v1_VE250_randls_43.json,1057576,1173993,24,Woman
153,262424,DepthScenes,duration_manipulation_targetAtFixation,jsons/v1_VE250_randls_43.json,http://54.235.29.9/FacialAge/BNav_EC2/DepthDuration/v2_depth_duration_MTurk/v2_DepthDuration_HTML.html#47,47,1440,757,1440,900,9-3-2022,13-42-26,154,depth_duration_stimuli/000103_2014-05-14_22-01-17_260595134347_rgbf000152-resize_5/000103_2014-05-14_22-01-17_260595134347_rgbf000152-resize_5-target.png,250,1.993,0,2203,249,feet,jsons/v1_VE250_randls_43.json,1057576,1173993,24,Woman
154,262424,DepthScenes,duration_manipulation_targetAtFixation,jsons/v1_VE250_randls_43.json,http://54.235.29.9/FacialAge/BNav_EC2/DepthDuration/v2_depth_duration_MTurk/v2_DepthDuration_HTML.html#47,47,1440,757,1440,900,9-3-2022,13-42-26,155,depth_duration_stimuli/002964_2014-06-08_17-46-11_094959634447_rgbf000091-resize_4/002964_2014-06-08_17-46-11_094959634447_rgbf000091-resize_4-target.png,250,1.6909999999999998,0,3266,249,feet,jsons/v1_VE250_randls_43.json,1057576,1173993,24,Woman
155,262424,DepthScenes,duration_manipulation_targetAtFixation,jsons/v1_VE250_randls_43.json,http://54.235.29.9/FacialAge/BNav_EC2/DepthDuration/v2_depth_duration_MTurk/v2_DepthDuration_HTML.html#47,47,1440,757,1440,900,9-3-2022,13-42-26,156,depth_duration_stimuli/002136_2014-06-25_21-18-03_260595134347_rgbf000109-resize_3/002136_2014-06-25_21-18-03_260595134347_rgbf000109-resize_3-target.png,250,1.9569999999999999,5,10004,248,feet,jsons/v1_VE250_randls_43.json,1057576,1173993,24,Woman
156,262424,DepthScenes,duration_manipulation_targetAtFixation,jsons/v1_VE250_randls_43.json,http://54.235.29.9/FacialAge/BNav_EC2/DepthDuration/v2_depth_duration_MTurk/v2_DepthDuration_HTML.html#47,47,1440,757,1440,900,9-3-2022,13-42-26,157,depth_duration_stimuli/002630_2014-06-24_14-47-50_094959634447_rgbf000055-resize_1/002630_2014-06-24_14-47-50_094959634447_rgbf000055-resize_1-target.png,250,3.0095,6,2937,248,feet,jsons/v1_VE250_randls_43.json,1057576,1173993,24,Woman
157,262424,DepthScenes,duration_manipulation_targetAtFixation,jsons/v1_VE250_randls_43.json,http://54.235.29.9/FacialAge/BNav_EC2/DepthDuration/v2_depth_duration_MTurk/v2_DepthDuration_HTML.html#47,47,1440,757,1440,900,9-3-2022,13-42-26,158,depth_duration_stimuli/002758_2014-06-22_19-11-20_094959634447_rgbf000128-resize_1/002758_2014-06-22_19-11-20_094959634447_rgbf000128-resize_1-target.png,250,2.555,6,3641,250,feet,jsons/v1_VE250_randls_43.json,1057576,1173993,24,Woman
158,262424,DepthScenes,duration_manipulation_targetAtFixation,jsons/v1_VE250_randls_43.json,http://54.235.29.9/FacialAge/BNav_EC2/DepthDuration/v2_depth_duration_MTurk/v2_DepthDuration_HTML.html#47,47,1440,757,1440,900,9-3-2022,13-42-26,159,depth_duration_stimuli/002039_2014-06-24_20-22-38_260595134347_rgbf000084-resize_1/002039_2014-06-24_20-22-38_260595134347_rgbf000084-resize_1-target.png,250,4.408,0,3777,249,feet,jsons/v1_VE250_randls_43.json,1057576,1173993,24,Woman
159,262424,DepthScenes,duration_manipulation_targetAtFixation,jsons/v1_VE250_randls_43.json,http://54.235.29.9/FacialAge/BNav_EC2/DepthDuration/v2_depth_duration_MTurk/v2_DepthDuration_HTML.html#47,47,1440,757,1440,900,9-3-2022,13-42-26,160,depth_duration_stimuli/002103_2014-06-25_20-00-40_260595134347_rgbf000049-resize_0/002103_2014-06-25_20-00-40_260595134347_rgbf000049-resize_0-target.png,250,4.105,0,4141,245,feet,jsons/v1_VE250_randls_43.json,1057576,1173993,24,Woman
160,262424,DepthScenes,duration_manipulation_targetAtFixation,jsons/v1_VE250_randls_43.json,http://54.235.29.9/FacialAge/BNav_EC2/DepthDuration/v2_depth_duration_MTurk/v2_DepthDuration_HTML.html#47,47,1440,757,1440,900,9-3-2022,13-42-26,161,depth_duration_stimuli/000736_2014-06-08_18-24-15_260595134347_rgbf000206-resize_3/000736_2014-06-08_18-24-15_260595134347_rgbf000206-resize_3-target.png,250,3.515,4,2610,249,feet,jsons/v1_VE250_randls_43.json,1057576,1173993,24,Woman
161,262424,DepthScenes,duration_manipulation_targetAtFixation,jsons/v1_VE250_randls_43.json,http://54.235.29.9/FacialAge/BNav_EC2/DepthDuration/v2_depth_duration_MTurk/v2_DepthDuration_HTML.html#47,47,1440,757,1440,900,9-3-2022,13-42-26,162,depth_duration_stimuli/000137_2014-05-20_17-04-49_260595134347_rgbf000120-resize_1/000137_2014-05-20_17-04-49_260595134347_rgbf000120-resize_1-target.png,250,3.786,0,2422,236,feet,jsons/v1_VE250_randls_43.json,1057576,1173993,24,Woman
162,262424,DepthScenes,duration_manipulation_targetAtFixation,jsons/v1_VE250_randls_43.json,http://54.235.29.9/FacialAge/BNav_EC2/DepthDuration/v2_depth_duration_MTurk/v2_DepthDuration_HTML.html#47,47,1440,757,1440,900,9-3-2022,13-42-26,163,depth_duration_stimuli/002570_2014-06-24_13-59-54_094959634447_rgbf000059-resize_0/002570_2014-06-24_13-59-54_094959634447_rgbf000059-resize_0-target.png,250,4.037,5,2641,248,feet,jsons/v1_VE250_randls_43.json,1057576,1173993,24,Woman
163,262424,DepthScenes,duration_manipulation_targetAtFixation,jsons/v1_VE250_randls_43.json,http://54.235.29.9/FacialAge/BNav_EC2/DepthDuration/v2_depth_duration_MTurk/v2_DepthDuration_HTML.html#47,47,1440,757,1440,900,9-3-2022,13-42-26,164,depth_duration_stimuli/002467_2014-06-28_20-38-07_260595134347_rgbf000026-resize_2/002467_2014-06-28_20-38-07_260595134347_rgbf000026-resize_2-target.png,250,4.742,0,2610,248,feet,jsons/v1_VE250_randls_43.json,1057576,1173993,24,Woman
