,subjID,experimentName,versionName,sequenceName,url,selected_row,windowWidth,windowHeight,screenWidth,screenHeight,startDate,startTime,trial,stimulus,duration,actual_depth,depth_estimate,trial_RT,log_sceneDuration,unitSelection,seq_filepath,experimentTime,totalTime,age,gender
0,263804,DepthScenes,duration_manipulation_targetAtFixation,jsons/VE125_randls_43_rotated.json,http://54.235.29.9/FacialAge/BNav_EC2/DepthDuration/v2_depth_duration_MTurk/v2_DepthDuration_HTML.html#365,365,1366,625,1366,768,9-3-2022,13-56-42,1,depth_duration_stimuli/002467_2014-06-28_20-38-07_260595134347_rgbf000026-resize_2/002467_2014-06-28_20-38-07_260595134347_rgbf000026-resize_2-target.png,125,4.742,3,3922,128,feet,jsons/VE125_randls_43_rotated.json,557541,761069,25,Woman
1,263804,DepthScenes,duration_manipulation_targetAtFixation,jsons/VE125_randls_43_rotated.json,http://54.235.29.9/FacialAge/BNav_EC2/DepthDuration/v2_depth_duration_MTurk/v2_DepthDuration_HTML.html#365,365,1366,625,1366,768,9-3-2022,13-56-42,2,depth_duration_stimuli/002570_2014-06-24_13-59-54_094959634447_rgbf000059-resize_0/002570_2014-06-24_13-59-54_094959634447_rgbf000059-resize_0-target.png,125,4.037,4,3350,123,feet,jsons/VE125_randls_43_rotated.json,557541,761069,25,Woman
2,263804,DepthScenes,duration_manipulation_targetAtFixation,jsons/VE125_randls_43_rotated.json,http://54.235.29.9/FacialAge/BNav_EC2/DepthDuration/v2_depth_duration_MTurk/v2_DepthDuration_HTML.html#365,365,1366,625,1366,768,9-3-2022,13-56-42,3,depth_duration_stimuli/000137_2014-05-20_17-04-49_260595134347_rgbf000120-resize_1/000137_2014-05-20_17-04-49_260595134347_rgbf000120-resize_1-target.png,125,3.786,2,3068,123,feet,jsons/VE125_randls_43_rotated.json,557541,761069,25,Woman
3,263804,DepthScenes,duration_manipulation_targetAtFixation,jsons/VE125_randls_43_rotated.json,http://54.235.29.9/FacialAge/BNav_EC2/DepthDuration/v2_depth_duration_MTurk/v2_DepthDuration_HTML.html#365,365,1366,625,1366,768,9-3-2022,13-56-42,4,depth_duration_stimuli/000736_2014-06-08_18-24-15_260595134347_rgbf000206-resize_3/000736_2014-06-08_18-24-15_260595134347_rgbf000206-resize_3-target.png,125,3.515,2,2973,123,feet,jsons/VE125_randls_43_rotated.json,557541,761069,25,Woman
4,263804,DepthScenes,duration_manipulation_targetAtFixation,jsons/VE125_randls_43_rotated.json,http://54.235.29.9/FacialAge/BNav_EC2/DepthDuration/v2_depth_duration_MTurk/v2_DepthDuration_HTML.html#365,365,1366,625,1366,768,9-3-2022,13-56-42,5,depth_duration_stimuli/002103_2014-06-25_20-00-40_260595134347_rgbf000049-resize_0/002103_2014-06-25_20-00-40_260595134347_rgbf000049-resize_0-target.png,125,4.105,1,2811,113,feet,jsons/VE125_randls_43_rotated.json,557541,761069,25,Woman
5,263804,DepthScenes,duration_manipulation_targetAtFixation,jsons/VE125_randls_43_rotated.json,http://54.235.29.9/FacialAge/BNav_EC2/DepthDuration/v2_depth_duration_MTurk/v2_DepthDuration_HTML.html#365,365,1366,625,1366,768,9-3-2022,13-56-42,6,depth_duration_stimuli/002039_2014-06-24_20-22-38_260595134347_rgbf000084-resize_1/002039_2014-06-24_20-22-38_260595134347_rgbf000084-resize_1-target.png,125,4.408,2,4075,112,feet,jsons/VE125_randls_43_rotated.json,557541,761069,25,Woman
6,263804,DepthScenes,duration_manipulation_targetAtFixation,jsons/VE125_randls_43_rotated.json,http://54.235.29.9/FacialAge/BNav_EC2/DepthDuration/v2_depth_duration_MTurk/v2_DepthDuration_HTML.html#365,365,1366,625,1366,768,9-3-2022,13-56-42,7,depth_duration_stimuli/002758_2014-06-22_19-11-20_094959634447_rgbf000128-resize_1/002758_2014-06-22_19-11-20_094959634447_rgbf000128-resize_1-target.png,125,2.555,1,3710,126,feet,jsons/VE125_randls_43_rotated.json,557541,761069,25,Woman
7,263804,DepthScenes,duration_manipulation_targetAtFixation,jsons/VE125_randls_43_rotated.json,http://54.235.29.9/FacialAge/BNav_EC2/DepthDuration/v2_depth_duration_MTurk/v2_DepthDuration_HTML.html#365,365,1366,625,1366,768,9-3-2022,13-56-42,8,depth_duration_stimuli/002630_2014-06-24_14-47-50_094959634447_rgbf000055-resize_1/002630_2014-06-24_14-47-50_094959634447_rgbf000055-resize_1-target.png,125,3.0095,3,3126,125,feet,jsons/VE125_randls_43_rotated.json,557541,761069,25,Woman
8,263804,DepthScenes,duration_manipulation_targetAtFixation,jsons/VE125_randls_43_rotated.json,http://54.235.29.9/FacialAge/BNav_EC2/DepthDuration/v2_depth_duration_MTurk/v2_DepthDuration_HTML.html#365,365,1366,625,1366,768,9-3-2022,13-56-42,9,depth_duration_stimuli/002136_2014-06-25_21-18-03_260595134347_rgbf000109-resize_3/002136_2014-06-25_21-18-03_260595134347_rgbf000109-resize_3-target.png,125,1.9569999999999999,1,2486,140,feet,jsons/VE125_randls_43_rotated.json,557541,761069,25,Woman
9,263804,DepthScenes,duration_manipulation_targetAtFixation,jsons/VE125_randls_43_rotated.json,http://54.235.29.9/FacialAge/BNav_EC2/DepthDuration/v2_depth_duration_MTurk/v2_DepthDuration_HTML.html#365,365,1366,625,1366,768,9-3-2022,13-56-42,10,depth_duration_stimuli/002964_2014-06-08_17-46-11_094959634447_rgbf000091-resize_4/002964_2014-06-08_17-46-11_094959634447_rgbf000091-resize_4-target.png,125,1.6909999999999998,1,2256,134,feet,jsons/VE125_randls_43_rotated.json,557541,761069,25,Woman
10,263804,DepthScenes,duration_manipulation_targetAtFixation,jsons/VE125_randls_43_rotated.json,http://54.235.29.9/FacialAge/BNav_EC2/DepthDuration/v2_depth_duration_MTurk/v2_DepthDuration_HTML.html#365,365,1366,625,1366,768,9-3-2022,13-56-42,11,depth_duration_stimuli/000103_2014-05-14_22-01-17_260595134347_rgbf000152-resize_5/000103_2014-05-14_22-01-17_260595134347_rgbf000152-resize_5-target.png,125,1.993,1,2242,123,feet,jsons/VE125_randls_43_rotated.json,557541,761069,25,Woman
11,263804,DepthScenes,duration_manipulation_targetAtFixation,jsons/VE125_randls_43_rotated.json,http://54.235.29.9/FacialAge/BNav_EC2/DepthDuration/v2_depth_duration_MTurk/v2_DepthDuration_HTML.html#365,365,1366,625,1366,768,9-3-2022,13-56-42,12,depth_duration_stimuli/001555_2014-06-20_17-12-10_260595134347_rgbf000065-resize_4/001555_2014-06-20_17-12-10_260595134347_rgbf000065-resize_4-target.png,125,1.633,1,2650,119,feet,jsons/VE125_randls_43_rotated.json,557541,761069,25,Woman
12,263804,DepthScenes,duration_manipulation_targetAtFixation,jsons/VE125_randls_43_rotated.json,http://54.235.29.9/FacialAge/BNav_EC2/DepthDuration/v2_depth_duration_MTurk/v2_DepthDuration_HTML.html#365,365,1366,625,1366,768,9-3-2022,13-56-42,13,depth_duration_stimuli/001032_2014-06-08_13-23-17_260595134347_rgbf000021-resize_3/001032_2014-06-08_13-23-17_260595134347_rgbf000021-resize_3-target.png,125,3.2725,1,2918,78,feet,jsons/VE125_randls_43_rotated.json,557541,761069,25,Woman
13,263804,DepthScenes,duration_manipulation_targetAtFixation,jsons/VE125_randls_43_rotated.json,http://54.235.29.9/FacialAge/BNav_EC2/DepthDuration/v2_depth_duration_MTurk/v2_DepthDuration_HTML.html#365,365,1366,625,1366,768,9-3-2022,13-56-42,14,depth_duration_stimuli/001059_2014-06-08_21-53-27_260595134347_rgbf000061-resize_4/001059_2014-06-08_21-53-27_260595134347_rgbf000061-resize_4-target.png,125,2.4185,2,2652,122,feet,jsons/VE125_randls_43_rotated.json,557541,761069,25,Woman
14,263804,DepthScenes,duration_manipulation_targetAtFixation,jsons/VE125_randls_43_rotated.json,http://54.235.29.9/FacialAge/BNav_EC2/DepthDuration/v2_depth_duration_MTurk/v2_DepthDuration_HTML.html#365,365,1366,625,1366,768,9-3-2022,13-56-42,15,depth_duration_stimuli/001617_2014-06-20_11-35-32_260595134347_rgbf000066-resize_1/001617_2014-06-20_11-35-32_260595134347_rgbf000066-resize_1-target.png,125,3.7910000000000004,2,2898,124,feet,jsons/VE125_randls_43_rotated.json,557541,761069,25,Woman
15,263804,DepthScenes,duration_manipulation_targetAtFixation,jsons/VE125_randls_43_rotated.json,http://54.235.29.9/FacialAge/BNav_EC2/DepthDuration/v2_depth_duration_MTurk/v2_DepthDuration_HTML.html#365,365,1366,625,1366,768,9-3-2022,13-56-42,16,depth_duration_stimuli/001806_2014-06-26_20-50-20_260595134347_rgbf000091-resize_1/001806_2014-06-26_20-50-20_260595134347_rgbf000091-resize_1-target.png,125,2.7305,2,3057,115,feet,jsons/VE125_randls_43_rotated.json,557541,761069,25,Woman
16,263804,DepthScenes,duration_manipulation_targetAtFixation,jsons/VE125_randls_43_rotated.json,http://54.235.29.9/FacialAge/BNav_EC2/DepthDuration/v2_depth_duration_MTurk/v2_DepthDuration_HTML.html#365,365,1366,625,1366,768,9-3-2022,13-56-42,17,depth_duration_stimuli/002637_2014-06-24_14-51-13_094959634447_rgbf000066-resize_4/002637_2014-06-24_14-51-13_094959634447_rgbf000066-resize_4-target.png,125,1.9955,2,2941,107,feet,jsons/VE125_randls_43_rotated.json,557541,761069,25,Woman
17,263804,DepthScenes,duration_manipulation_targetAtFixation,jsons/VE125_randls_43_rotated.json,http://54.235.29.9/FacialAge/BNav_EC2/DepthDuration/v2_depth_duration_MTurk/v2_DepthDuration_HTML.html#365,365,1366,625,1366,768,9-3-2022,13-56-42,18,depth_duration_stimuli/003534_2014-05-22_15-06-10_094959634447_rgbf000102-resize_4/003534_2014-05-22_15-06-10_094959634447_rgbf000102-resize_4-target.png,125,1.426,1,2624,125,feet,jsons/VE125_randls_43_rotated.json,557541,761069,25,Woman
18,263804,DepthScenes,duration_manipulation_targetAtFixation,jsons/VE125_randls_43_rotated.json,http://54.235.29.9/FacialAge/BNav_EC2/DepthDuration/v2_depth_duration_MTurk/v2_DepthDuration_HTML.html#365,365,1366,625,1366,768,9-3-2022,13-56-42,19,depth_duration_stimuli/001498_2014-06-19_17-45-14_260595134347_rgbf000129-resize_4/001498_2014-06-19_17-45-14_260595134347_rgbf000129-resize-original.jpg,125,1.4075,2,2646,28,feet,jsons/VE125_randls_43_rotated.json,557541,761069,25,Woman
19,263804,DepthScenes,duration_manipulation_targetAtFixation,jsons/VE125_randls_43_rotated.json,http://54.235.29.9/FacialAge/BNav_EC2/DepthDuration/v2_depth_duration_MTurk/v2_DepthDuration_HTML.html#365,365,1366,625,1366,768,9-3-2022,13-56-42,20,depth_duration_stimuli/001094_2014-06-15_17-36-00_260595134347_rgbf000205-resize_0/001094_2014-06-15_17-36-00_260595134347_rgbf000205-resize_0-target.png,125,4.2175,2,3179,157,feet,jsons/VE125_randls_43_rotated.json,557541,761069,25,Woman
20,263804,DepthScenes,duration_manipulation_targetAtFixation,jsons/VE125_randls_43_rotated.json,http://54.235.29.9/FacialAge/BNav_EC2/DepthDuration/v2_depth_duration_MTurk/v2_DepthDuration_HTML.html#365,365,1366,625,1366,768,9-3-2022,13-56-42,21,depth_duration_stimuli/000692_2014-06-08_13-09-42_260595134347_rgbf000199-resize_2/000692_2014-06-08_13-09-42_260595134347_rgbf000199-resize_2-target.png,125,3.661,2,2698,187,feet,jsons/VE125_randls_43_rotated.json,557541,761069,25,Woman
21,263804,DepthScenes,duration_manipulation_targetAtFixation,jsons/VE125_randls_43_rotated.json,http://54.235.29.9/FacialAge/BNav_EC2/DepthDuration/v2_depth_duration_MTurk/v2_DepthDuration_HTML.html#365,365,1366,625,1366,768,9-3-2022,13-56-42,22,depth_duration_stimuli/000502_2014-06-08_23-02-32_260595134347_rgbf000063-resize_4/000502_2014-06-08_23-02-32_260595134347_rgbf000063-resize_4-target.png,125,2.431,2,5492,128,feet,jsons/VE125_randls_43_rotated.json,557541,761069,25,Woman
22,263804,DepthScenes,duration_manipulation_targetAtFixation,jsons/VE125_randls_43_rotated.json,http://54.235.29.9/FacialAge/BNav_EC2/DepthDuration/v2_depth_duration_MTurk/v2_DepthDuration_HTML.html#365,365,1366,625,1366,768,9-3-2022,13-56-42,23,depth_duration_stimuli/001199_2014-06-17_16-03-48_260595134347_rgbf000077-resize_0/001199_2014-06-17_16-03-48_260595134347_rgbf000077-resize_0-target.png,125,3.4375,3,4491,124,feet,jsons/VE125_randls_43_rotated.json,557541,761069,25,Woman
23,263804,DepthScenes,duration_manipulation_targetAtFixation,jsons/VE125_randls_43_rotated.json,http://54.235.29.9/FacialAge/BNav_EC2/DepthDuration/v2_depth_duration_MTurk/v2_DepthDuration_HTML.html#365,365,1366,625,1366,768,9-3-2022,13-56-42,24,depth_duration_stimuli/002657_2014-06-13_15-29-54_094959634447_rgbf000150-resize_1/002657_2014-06-13_15-29-54_094959634447_rgbf000150-resize_1-target.png,125,4.919,2,3049,122,feet,jsons/VE125_randls_43_rotated.json,557541,761069,25,Woman
24,263804,DepthScenes,duration_manipulation_targetAtFixation,jsons/VE125_randls_43_rotated.json,http://54.235.29.9/FacialAge/BNav_EC2/DepthDuration/v2_depth_duration_MTurk/v2_DepthDuration_HTML.html#365,365,1366,625,1366,768,9-3-2022,13-56-42,25,depth_duration_stimuli/002375_2014-06-28_20-13-44_260595134347_rgbf000032-resize_1/002375_2014-06-28_20-13-44_260595134347_rgbf000032-resize_1-target.png,125,4.0175,1,4342,0,feet,jsons/VE125_randls_43_rotated.json,557541,761069,25,Woman
25,263804,DepthScenes,duration_manipulation_targetAtFixation,jsons/VE125_randls_43_rotated.json,http://54.235.29.9/FacialAge/BNav_EC2/DepthDuration/v2_depth_duration_MTurk/v2_DepthDuration_HTML.html#365,365,1366,625,1366,768,9-3-2022,13-56-42,26,depth_duration_stimuli/002340_2014-06-28_20-05-46_260595134347_rgbf000113-resize_0/002340_2014-06-28_20-05-46_260595134347_rgbf000113-resize_0-target.png,125,2.4735,1,2814,150,feet,jsons/VE125_randls_43_rotated.json,557541,761069,25,Woman
26,263804,DepthScenes,duration_manipulation_targetAtFixation,jsons/VE125_randls_43_rotated.json,http://54.235.29.9/FacialAge/BNav_EC2/DepthDuration/v2_depth_duration_MTurk/v2_DepthDuration_HTML.html#365,365,1366,625,1366,768,9-3-2022,13-56-42,27,depth_duration_stimuli/001016_2014-06-09_16-16-10_260595134347_rgbf000112-resize_5/001016_2014-06-09_16-16-10_260595134347_rgbf000112-resize_5-target.png,125,1.6565,2,2921,124,feet,jsons/VE125_randls_43_rotated.json,557541,761069,25,Woman
27,263804,DepthScenes,duration_manipulation_targetAtFixation,jsons/VE125_randls_43_rotated.json,http://54.235.29.9/FacialAge/BNav_EC2/DepthDuration/v2_depth_duration_MTurk/v2_DepthDuration_HTML.html#365,365,1366,625,1366,768,9-3-2022,13-56-42,28,depth_duration_stimuli/002344_2014-06-28_20-06-29_260595134347_rgbf000030-resize_1/002344_2014-06-28_20-06-29_260595134347_rgbf000030-resize_1-target.png,125,1.5795,1,3410,140,feet,jsons/VE125_randls_43_rotated.json,557541,761069,25,Woman
28,263804,DepthScenes,duration_manipulation_targetAtFixation,jsons/VE125_randls_43_rotated.json,http://54.235.29.9/FacialAge/BNav_EC2/DepthDuration/v2_depth_duration_MTurk/v2_DepthDuration_HTML.html#365,365,1366,625,1366,768,9-3-2022,13-56-42,29,depth_duration_stimuli/002725_2014-06-22_11-47-51_094959634447_rgbf000070-resize_1/002725_2014-06-22_11-47-51_094959634447_rgbf000070-resize_1-target.png,125,2.195,2,3776,124,feet,jsons/VE125_randls_43_rotated.json,557541,761069,25,Woman
29,263804,DepthScenes,duration_manipulation_targetAtFixation,jsons/VE125_randls_43_rotated.json,http://54.235.29.9/FacialAge/BNav_EC2/DepthDuration/v2_depth_duration_MTurk/v2_DepthDuration_HTML.html#365,365,1366,625,1366,768,9-3-2022,13-56-42,30,depth_duration_stimuli/002072_2014-06-24_21-48-06_260595134347_rgbf000115-resize_0/002072_2014-06-24_21-48-06_260595134347_rgbf000115-resize-original.jpg,125,4.702,2,3077,70,feet,jsons/VE125_randls_43_rotated.json,557541,761069,25,Woman
30,263804,DepthScenes,duration_manipulation_targetAtFixation,jsons/VE125_randls_43_rotated.json,http://54.235.29.9/FacialAge/BNav_EC2/DepthDuration/v2_depth_duration_MTurk/v2_DepthDuration_HTML.html#365,365,1366,625,1366,768,9-3-2022,13-56-42,31,depth_duration_stimuli/000854_2014-06-09_19-43-13_260595134347_rgbf000066-resize_0/000854_2014-06-09_19-43-13_260595134347_rgbf000066-resize_0-target.png,125,3.068,1,2430,124,feet,jsons/VE125_randls_43_rotated.json,557541,761069,25,Woman
31,263804,DepthScenes,duration_manipulation_targetAtFixation,jsons/VE125_randls_43_rotated.json,http://54.235.29.9/FacialAge/BNav_EC2/DepthDuration/v2_depth_duration_MTurk/v2_DepthDuration_HTML.html#365,365,1366,625,1366,768,9-3-2022,13-56-42,32,depth_duration_stimuli/000758_2014-06-08_22-05-08_260595134347_rgbf000085-resize_0/000758_2014-06-08_22-05-08_260595134347_rgbf000085-resize_0-target.png,125,3.3810000000000002,3,2709,118,feet,jsons/VE125_randls_43_rotated.json,557541,761069,25,Woman
32,263804,DepthScenes,duration_manipulation_targetAtFixation,jsons/VE125_randls_43_rotated.json,http://54.235.29.9/FacialAge/BNav_EC2/DepthDuration/v2_depth_duration_MTurk/v2_DepthDuration_HTML.html#365,365,1366,625,1366,768,9-3-2022,13-56-42,33,depth_duration_stimuli/000749_2014-06-08_21-55-06_260595134347_rgbf000070-resize_2/000749_2014-06-08_21-55-06_260595134347_rgbf000070-resize_2-target.png,125,2.331,2,2409,125,feet,jsons/VE125_randls_43_rotated.json,557541,761069,25,Woman
33,263804,DepthScenes,duration_manipulation_targetAtFixation,jsons/VE125_randls_43_rotated.json,http://54.235.29.9/FacialAge/BNav_EC2/DepthDuration/v2_depth_duration_MTurk/v2_DepthDuration_HTML.html#365,365,1366,625,1366,768,9-3-2022,13-56-42,34,depth_duration_stimuli/002788_2014-06-22_19-36-03_094959634447_rgbf000088-resize_2/002788_2014-06-22_19-36-03_094959634447_rgbf000088-resize_2-target.png,125,1.6465,1,2545,125,feet,jsons/VE125_randls_43_rotated.json,557541,761069,25,Woman
34,263804,DepthScenes,duration_manipulation_targetAtFixation,jsons/VE125_randls_43_rotated.json,http://54.235.29.9/FacialAge/BNav_EC2/DepthDuration/v2_depth_duration_MTurk/v2_DepthDuration_HTML.html#365,365,1366,625,1366,768,9-3-2022,13-56-42,35,depth_duration_stimuli/001132_2014-06-17_14-48-54_260595134347_rgbf000100-resize_2/001132_2014-06-17_14-48-54_260595134347_rgbf000100-resize_2-target.png,125,3.753,2,2334,125,feet,jsons/VE125_randls_43_rotated.json,557541,761069,25,Woman
35,263804,DepthScenes,duration_manipulation_targetAtFixation,jsons/VE125_randls_43_rotated.json,http://54.235.29.9/FacialAge/BNav_EC2/DepthDuration/v2_depth_duration_MTurk/v2_DepthDuration_HTML.html#365,365,1366,625,1366,768,9-3-2022,13-56-42,36,depth_duration_stimuli/001133_2014-06-17_14-49-16_260595134347_rgbf000100-resize_0/001133_2014-06-17_14-49-16_260595134347_rgbf000100-resize_0-target.png,125,4.2115,3,2340,61,feet,jsons/VE125_randls_43_rotated.json,557541,761069,25,Woman
36,263804,DepthScenes,duration_manipulation_targetAtFixation,jsons/VE125_randls_43_rotated.json,http://54.235.29.9/FacialAge/BNav_EC2/DepthDuration/v2_depth_duration_MTurk/v2_DepthDuration_HTML.html#365,365,1366,625,1366,768,9-3-2022,13-56-42,37,depth_duration_stimuli/003048_2014-06-15_13-49-43_094959634447_rgbf000150-resize_1/003048_2014-06-15_13-49-43_094959634447_rgbf000150-resize_1-target.png,125,4.0035,4,2885,124,feet,jsons/VE125_randls_43_rotated.json,557541,761069,25,Woman
37,263804,DepthScenes,duration_manipulation_targetAtFixation,jsons/VE125_randls_43_rotated.json,http://54.235.29.9/FacialAge/BNav_EC2/DepthDuration/v2_depth_duration_MTurk/v2_DepthDuration_HTML.html#365,365,1366,625,1366,768,9-3-2022,13-56-42,38,depth_duration_stimuli/002043_2014-06-24_20-29-38_260595134347_rgbf000039-resize_4/002043_2014-06-24_20-29-38_260595134347_rgbf000039-resize_4-target.png,125,2.8435,3,2480,210,feet,jsons/VE125_randls_43_rotated.json,557541,761069,25,Woman
38,263804,DepthScenes,duration_manipulation_targetAtFixation,jsons/VE125_randls_43_rotated.json,http://54.235.29.9/FacialAge/BNav_EC2/DepthDuration/v2_depth_duration_MTurk/v2_DepthDuration_HTML.html#365,365,1366,625,1366,768,9-3-2022,13-56-42,39,depth_duration_stimuli/002949_2014-06-26_15-57-42_094959634447_rgbf000079-resize_1/002949_2014-06-26_15-57-42_094959634447_rgbf000079-resize_1-target.png,125,1.8915,3,5437,128,feet,jsons/VE125_randls_43_rotated.json,557541,761069,25,Woman
39,263804,DepthScenes,duration_manipulation_targetAtFixation,jsons/VE125_randls_43_rotated.json,http://54.235.29.9/FacialAge/BNav_EC2/DepthDuration/v2_depth_duration_MTurk/v2_DepthDuration_HTML.html#365,365,1366,625,1366,768,9-3-2022,13-56-42,40,depth_duration_stimuli/000522_2014-06-08_13-35-06_260595134347_rgbf000244-resize_1/000522_2014-06-08_13-35-06_260595134347_rgbf000244-resize_1-target.png,125,2.3715,1,2943,125,feet,jsons/VE125_randls_43_rotated.json,557541,761069,25,Woman
40,263804,DepthScenes,duration_manipulation_targetAtFixation,jsons/VE125_randls_43_rotated.json,http://54.235.29.9/FacialAge/BNav_EC2/DepthDuration/v2_depth_duration_MTurk/v2_DepthDuration_HTML.html#365,365,1366,625,1366,768,9-3-2022,13-56-42,41,depth_duration_stimuli/001828_2014-06-26_21-40-03_260595134347_rgbf000024-resize_0/001828_2014-06-26_21-40-03_260595134347_rgbf000024-resize_0-target.png,125,4.8260000000000005,3,3038,125,feet,jsons/VE125_randls_43_rotated.json,557541,761069,25,Woman
41,263804,DepthScenes,duration_manipulation_targetAtFixation,jsons/VE125_randls_43_rotated.json,http://54.235.29.9/FacialAge/BNav_EC2/DepthDuration/v2_depth_duration_MTurk/v2_DepthDuration_HTML.html#365,365,1366,625,1366,768,9-3-2022,13-56-42,42,depth_duration_stimuli/000009_2014-05-26_14-32-05_260595134347_rgbf000034-resize_3/000009_2014-05-26_14-32-05_260595134347_rgbf000034-resize_3-target.png,125,3.8715,4,6179,123,feet,jsons/VE125_randls_43_rotated.json,557541,761069,25,Woman
42,263804,DepthScenes,duration_manipulation_targetAtFixation,jsons/VE125_randls_43_rotated.json,http://54.235.29.9/FacialAge/BNav_EC2/DepthDuration/v2_depth_duration_MTurk/v2_DepthDuration_HTML.html#365,365,1366,625,1366,768,9-3-2022,13-56-42,43,depth_duration_stimuli/003495_2014-05-21_16-01-51_094959634447_rgbf000100-resize_3/003495_2014-05-21_16-01-51_094959634447_rgbf000100-resize_3-target.png,125,1.6255,2,3932,111,feet,jsons/VE125_randls_43_rotated.json,557541,761069,25,Woman
43,263804,DepthScenes,duration_manipulation_targetAtFixation,jsons/VE125_randls_43_rotated.json,http://54.235.29.9/FacialAge/BNav_EC2/DepthDuration/v2_depth_duration_MTurk/v2_DepthDuration_HTML.html#365,365,1366,625,1366,768,9-3-2022,13-56-42,44,depth_duration_stimuli/001244_2014-06-17_16-47-45_260595134347_rgbf000030-resize_4/001244_2014-06-17_16-47-45_260595134347_rgbf000030-resize_4-target.png,125,2.0425,3,3108,125,feet,jsons/VE125_randls_43_rotated.json,557541,761069,25,Woman
44,263804,DepthScenes,duration_manipulation_targetAtFixation,jsons/VE125_randls_43_rotated.json,http://54.235.29.9/FacialAge/BNav_EC2/DepthDuration/v2_depth_duration_MTurk/v2_DepthDuration_HTML.html#365,365,1366,625,1366,768,9-3-2022,13-56-42,45,depth_duration_stimuli/001450_2014-06-19_17-02-03_260595134347_rgbf000203-resize_4/001450_2014-06-19_17-02-03_260595134347_rgbf000203-resize_4-target.png,125,4.0106666666667,3,5227,126,feet,jsons/VE125_randls_43_rotated.json,557541,761069,25,Woman
45,263804,DepthScenes,duration_manipulation_targetAtFixation,jsons/VE125_randls_43_rotated.json,http://54.235.29.9/FacialAge/BNav_EC2/DepthDuration/v2_depth_duration_MTurk/v2_DepthDuration_HTML.html#365,365,1366,625,1366,768,9-3-2022,13-56-42,46,depth_duration_stimuli/001449_2014-06-19_17-01-27_260595134347_rgbf000116-resize_2/001449_2014-06-19_17-01-27_260595134347_rgbf000116-resize_2-target.png,125,3.452,2,3032,140,feet,jsons/VE125_randls_43_rotated.json,557541,761069,25,Woman
46,263804,DepthScenes,duration_manipulation_targetAtFixation,jsons/VE125_randls_43_rotated.json,http://54.235.29.9/FacialAge/BNav_EC2/DepthDuration/v2_depth_duration_MTurk/v2_DepthDuration_HTML.html#365,365,1366,625,1366,768,9-3-2022,13-56-42,47,depth_duration_stimuli/000483_2014-06-09_20-41-45_260595134347_rgbf000116-resize_4/000483_2014-06-09_20-41-45_260595134347_rgbf000116-resize_4-target.png,125,1.337,2,2825,128,feet,jsons/VE125_randls_43_rotated.json,557541,761069,25,Woman
47,263804,DepthScenes,duration_manipulation_targetAtFixation,jsons/VE125_randls_43_rotated.json,http://54.235.29.9/FacialAge/BNav_EC2/DepthDuration/v2_depth_duration_MTurk/v2_DepthDuration_HTML.html#365,365,1366,625,1366,768,9-3-2022,13-56-42,48,depth_duration_stimuli/000469_2014-06-09_19-42-10_260595134347_rgbf000081-resize_1/000469_2014-06-09_19-42-10_260595134347_rgbf000081-resize_1-target.png,125,1.652,2,2417,139,feet,jsons/VE125_randls_43_rotated.json,557541,761069,25,Woman
48,263804,DepthScenes,duration_manipulation_targetAtFixation,jsons/VE125_randls_43_rotated.json,http://54.235.29.9/FacialAge/BNav_EC2/DepthDuration/v2_depth_duration_MTurk/v2_DepthDuration_HTML.html#365,365,1366,625,1366,768,9-3-2022,13-56-42,49,depth_duration_stimuli/001170_2014-06-17_15-43-44_260595134347_rgbf000096-resize_6/001170_2014-06-17_15-43-44_260595134347_rgbf000096-resize-original.jpg,125,1.1909999999999998,1,2632,123,feet,jsons/VE125_randls_43_rotated.json,557541,761069,25,Woman
49,263804,DepthScenes,duration_manipulation_targetAtFixation,jsons/VE125_randls_43_rotated.json,http://54.235.29.9/FacialAge/BNav_EC2/DepthDuration/v2_depth_duration_MTurk/v2_DepthDuration_HTML.html#365,365,1366,625,1366,768,9-3-2022,13-56-42,50,depth_duration_stimuli/003083_2014-06-15_15-21-03_094959634447_rgbf000063-resize_1/003083_2014-06-15_15-21-03_094959634447_rgbf000063-resize_1-target.png,125,4.1405,2,2541,124,feet,jsons/VE125_randls_43_rotated.json,557541,761069,25,Woman
50,263804,DepthScenes,duration_manipulation_targetAtFixation,jsons/VE125_randls_43_rotated.json,http://54.235.29.9/FacialAge/BNav_EC2/DepthDuration/v2_depth_duration_MTurk/v2_DepthDuration_HTML.html#365,365,1366,625,1366,768,9-3-2022,13-56-42,51,depth_duration_stimuli/000486_2014-06-09_20-47-20_260595134347_rgbf000143-resize_2/000486_2014-06-09_20-47-20_260595134347_rgbf000143-resize_2-target.png,125,4.8325,2,2224,119,feet,jsons/VE125_randls_43_rotated.json,557541,761069,25,Woman
51,263804,DepthScenes,duration_manipulation_targetAtFixation,jsons/VE125_randls_43_rotated.json,http://54.235.29.9/FacialAge/BNav_EC2/DepthDuration/v2_depth_duration_MTurk/v2_DepthDuration_HTML.html#365,365,1366,625,1366,768,9-3-2022,13-56-42,52,depth_duration_stimuli/000191_2014-05-12_17-07-38_260595134347_rgbf000199-resize_0/000191_2014-05-12_17-07-38_260595134347_rgbf000199-resize_0-target.png,125,3.7995,1,4153,67,feet,jsons/VE125_randls_43_rotated.json,557541,761069,25,Woman
52,263804,DepthScenes,duration_manipulation_targetAtFixation,jsons/VE125_randls_43_rotated.json,http://54.235.29.9/FacialAge/BNav_EC2/DepthDuration/v2_depth_duration_MTurk/v2_DepthDuration_HTML.html#365,365,1366,625,1366,768,9-3-2022,13-56-42,53,depth_duration_stimuli/000493_2014-06-09_21-01-18_260595134347_rgbf000196-resize_3/000493_2014-06-09_21-01-18_260595134347_rgbf000196-resize_3-target.png,125,3.44,2,3929,123,feet,jsons/VE125_randls_43_rotated.json,557541,761069,25,Woman
53,263804,DepthScenes,duration_manipulation_targetAtFixation,jsons/VE125_randls_43_rotated.json,http://54.235.29.9/FacialAge/BNav_EC2/DepthDuration/v2_depth_duration_MTurk/v2_DepthDuration_HTML.html#365,365,1366,625,1366,768,9-3-2022,13-56-42,54,depth_duration_stimuli/003079_2014-06-15_15-18-20_094959634447_rgbf000152-resize_8/003079_2014-06-15_15-18-20_094959634447_rgbf000152-resize_8-target.png,125,2.8775,2,3460,134,feet,jsons/VE125_randls_43_rotated.json,557541,761069,25,Woman
54,263804,DepthScenes,duration_manipulation_targetAtFixation,jsons/VE125_randls_43_rotated.json,http://54.235.29.9/FacialAge/BNav_EC2/DepthDuration/v2_depth_duration_MTurk/v2_DepthDuration_HTML.html#365,365,1366,625,1366,768,9-3-2022,13-56-42,55,depth_duration_stimuli/000506_2014-06-08_23-21-00_260595134347_rgbf000070-resize_7/000506_2014-06-08_23-21-00_260595134347_rgbf000070-resize_7-target.png,125,4.0585,1,3372,127,feet,jsons/VE125_randls_43_rotated.json,557541,761069,25,Woman
55,263804,DepthScenes,duration_manipulation_targetAtFixation,jsons/VE125_randls_43_rotated.json,http://54.235.29.9/FacialAge/BNav_EC2/DepthDuration/v2_depth_duration_MTurk/v2_DepthDuration_HTML.html#365,365,1366,625,1366,768,9-3-2022,13-56-42,56,depth_duration_stimuli/001136_2014-06-17_15-19-41_260595134347_rgbf000076-resize_3/001136_2014-06-17_15-19-41_260595134347_rgbf000076-resize_3-target.png,125,1.8655,2,3165,141,feet,jsons/VE125_randls_43_rotated.json,557541,761069,25,Woman
56,263804,DepthScenes,duration_manipulation_targetAtFixation,jsons/VE125_randls_43_rotated.json,http://54.235.29.9/FacialAge/BNav_EC2/DepthDuration/v2_depth_duration_MTurk/v2_DepthDuration_HTML.html#365,365,1366,625,1366,768,9-3-2022,13-56-42,57,depth_duration_stimuli/001164_2014-06-17_15-35-46_260595134347_rgbf000085-resize_3/001164_2014-06-17_15-35-46_260595134347_rgbf000085-resize_3-target.png,125,2.354,2,2386,115,feet,jsons/VE125_randls_43_rotated.json,557541,761069,25,Woman
57,263804,DepthScenes,duration_manipulation_targetAtFixation,jsons/VE125_randls_43_rotated.json,http://54.235.29.9/FacialAge/BNav_EC2/DepthDuration/v2_depth_duration_MTurk/v2_DepthDuration_HTML.html#365,365,1366,625,1366,768,9-3-2022,13-56-42,58,depth_duration_stimuli/002568_2014-06-24_13-59-21_094959634447_rgbf000062-resize_4/002568_2014-06-24_13-59-21_094959634447_rgbf000062-resize_4-target.png,125,3.015,2,2575,97,feet,jsons/VE125_randls_43_rotated.json,557541,761069,25,Woman
58,263804,DepthScenes,duration_manipulation_targetAtFixation,jsons/VE125_randls_43_rotated.json,http://54.235.29.9/FacialAge/BNav_EC2/DepthDuration/v2_depth_duration_MTurk/v2_DepthDuration_HTML.html#365,365,1366,625,1366,768,9-3-2022,13-56-42,59,depth_duration_stimuli/003492_2014-05-21_15-50-55_094959634447_rgbf000828-resize_1/003492_2014-05-21_15-50-55_094959634447_rgbf000828-resize_1-target.png,125,4.06875,4,5724,145,feet,jsons/VE125_randls_43_rotated.json,557541,761069,25,Woman
59,263804,DepthScenes,duration_manipulation_targetAtFixation,jsons/VE125_randls_43_rotated.json,http://54.235.29.9/FacialAge/BNav_EC2/DepthDuration/v2_depth_duration_MTurk/v2_DepthDuration_HTML.html#365,365,1366,625,1366,768,9-3-2022,13-56-42,60,depth_duration_stimuli/002875_2014-06-01_15-19-00_094959634447_rgbf000151-resize_1/002875_2014-06-01_15-19-00_094959634447_rgbf000151-resize_1-target.png,125,1.9675,3,3121,121,feet,jsons/VE125_randls_43_rotated.json,557541,761069,25,Woman
60,263804,DepthScenes,duration_manipulation_targetAtFixation,jsons/VE125_randls_43_rotated.json,http://54.235.29.9/FacialAge/BNav_EC2/DepthDuration/v2_depth_duration_MTurk/v2_DepthDuration_HTML.html#365,365,1366,625,1366,768,9-3-2022,13-56-42,61,depth_duration_stimuli/001011_2014-06-08_23-18-54_260595134347_rgbf000044-resize_4/001011_2014-06-08_23-18-54_260595134347_rgbf000044-resize_4-target.png,125,2.4730000000000003,3,3631,141,feet,jsons/VE125_randls_43_rotated.json,557541,761069,25,Woman
61,263804,DepthScenes,duration_manipulation_targetAtFixation,jsons/VE125_randls_43_rotated.json,http://54.235.29.9/FacialAge/BNav_EC2/DepthDuration/v2_depth_duration_MTurk/v2_DepthDuration_HTML.html#365,365,1366,625,1366,768,9-3-2022,13-56-42,62,depth_duration_stimuli/002444_2014-06-28_20-32-08_260595134347_rgbf000027-resize_0/002444_2014-06-28_20-32-08_260595134347_rgbf000027-resize_0-target.png,125,4.388999999999999,2,2560,150,feet,jsons/VE125_randls_43_rotated.json,557541,761069,25,Woman
62,263804,DepthScenes,duration_manipulation_targetAtFixation,jsons/VE125_randls_43_rotated.json,http://54.235.29.9/FacialAge/BNav_EC2/DepthDuration/v2_depth_duration_MTurk/v2_DepthDuration_HTML.html#365,365,1366,625,1366,768,9-3-2022,13-56-42,63,depth_duration_stimuli/000436_2014-06-09_22-25-11_260595134347_rgbf000137-resize_1/000436_2014-06-09_22-25-11_260595134347_rgbf000137-resize_1-target.png,125,4.0705,4,2770,135,feet,jsons/VE125_randls_43_rotated.json,557541,761069,25,Woman
63,263804,DepthScenes,duration_manipulation_targetAtFixation,jsons/VE125_randls_43_rotated.json,http://54.235.29.9/FacialAge/BNav_EC2/DepthDuration/v2_depth_duration_MTurk/v2_DepthDuration_HTML.html#365,365,1366,625,1366,768,9-3-2022,13-56-42,64,depth_duration_stimuli/000556_2014-06-09_22-42-56_260595134347_rgbf000214-resize_1/000556_2014-06-09_22-42-56_260595134347_rgbf000214-resize_1-target.png,125,4.8415,3,2609,124,feet,jsons/VE125_randls_43_rotated.json,557541,761069,25,Woman
64,263804,DepthScenes,duration_manipulation_targetAtFixation,jsons/VE125_randls_43_rotated.json,http://54.235.29.9/FacialAge/BNav_EC2/DepthDuration/v2_depth_duration_MTurk/v2_DepthDuration_HTML.html#365,365,1366,625,1366,768,9-3-2022,13-56-42,65,depth_duration_stimuli/001158_2014-06-17_15-32-16_260595134347_rgbf000138-resize_2/001158_2014-06-17_15-32-16_260595134347_rgbf000138-resize_2-target.png,125,4.5315,3,2664,191,feet,jsons/VE125_randls_43_rotated.json,557541,761069,25,Woman
65,263804,DepthScenes,duration_manipulation_targetAtFixation,jsons/VE125_randls_43_rotated.json,http://54.235.29.9/FacialAge/BNav_EC2/DepthDuration/v2_depth_duration_MTurk/v2_DepthDuration_HTML.html#365,365,1366,625,1366,768,9-3-2022,13-56-42,66,depth_duration_stimuli/001540_2014-06-20_17-01-05_260595134347_rgbf000086-resize_2/001540_2014-06-20_17-01-05_260595134347_rgbf000086-resize-original.jpg,125,1.459,4,2693,125,feet,jsons/VE125_randls_43_rotated.json,557541,761069,25,Woman
66,263804,DepthScenes,duration_manipulation_targetAtFixation,jsons/VE125_randls_43_rotated.json,http://54.235.29.9/FacialAge/BNav_EC2/DepthDuration/v2_depth_duration_MTurk/v2_DepthDuration_HTML.html#365,365,1366,625,1366,768,9-3-2022,13-56-42,67,depth_duration_stimuli/002323_2014-06-28_20-01-54_260595134347_rgbf000051-resize_4/002323_2014-06-28_20-01-54_260595134347_rgbf000051-resize_4-target.png,125,3.7310000000000003,3,2528,123,feet,jsons/VE125_randls_43_rotated.json,557541,761069,25,Woman
67,263804,DepthScenes,duration_manipulation_targetAtFixation,jsons/VE125_randls_43_rotated.json,http://54.235.29.9/FacialAge/BNav_EC2/DepthDuration/v2_depth_duration_MTurk/v2_DepthDuration_HTML.html#365,365,1366,625,1366,768,9-3-2022,13-56-42,68,depth_duration_stimuli/000917_2014-06-09_22-45-29_260595134347_rgbf000149-resize_3/000917_2014-06-09_22-45-29_260595134347_rgbf000149-resize_3-target.png,125,4.1865,3,2523,125,feet,jsons/VE125_randls_43_rotated.json,557541,761069,25,Woman
68,263804,DepthScenes,duration_manipulation_targetAtFixation,jsons/VE125_randls_43_rotated.json,http://54.235.29.9/FacialAge/BNav_EC2/DepthDuration/v2_depth_duration_MTurk/v2_DepthDuration_HTML.html#365,365,1366,625,1366,768,9-3-2022,13-56-42,69,depth_duration_stimuli/003228_2014-05-14_13-42-35_094959634447_rgbf000101-resize_1/003228_2014-05-14_13-42-35_094959634447_rgbf000101-resize_1-target.png,125,1.9680000000000002,4,2710,118,feet,jsons/VE125_randls_43_rotated.json,557541,761069,25,Woman
69,263804,DepthScenes,duration_manipulation_targetAtFixation,jsons/VE125_randls_43_rotated.json,http://54.235.29.9/FacialAge/BNav_EC2/DepthDuration/v2_depth_duration_MTurk/v2_DepthDuration_HTML.html#365,365,1366,625,1366,768,9-3-2022,13-56-42,70,depth_duration_stimuli/002600_2014-06-24_14-27-04_094959634447_rgbf000074-resize_2/002600_2014-06-24_14-27-04_094959634447_rgbf000074-resize_2-target.png,125,2.7575,2,2313,133,feet,jsons/VE125_randls_43_rotated.json,557541,761069,25,Woman
70,263804,DepthScenes,duration_manipulation_targetAtFixation,jsons/VE125_randls_43_rotated.json,http://54.235.29.9/FacialAge/BNav_EC2/DepthDuration/v2_depth_duration_MTurk/v2_DepthDuration_HTML.html#365,365,1366,625,1366,768,9-3-2022,13-56-42,71,depth_duration_stimuli/000927_2014-06-09_16-32-30_260595134347_rgbf000123-resize_3/000927_2014-06-09_16-32-30_260595134347_rgbf000123-resize_3-target.png,125,2.6785,3,2437,117,feet,jsons/VE125_randls_43_rotated.json,557541,761069,25,Woman
71,263804,DepthScenes,duration_manipulation_targetAtFixation,jsons/VE125_randls_43_rotated.json,http://54.235.29.9/FacialAge/BNav_EC2/DepthDuration/v2_depth_duration_MTurk/v2_DepthDuration_HTML.html#365,365,1366,625,1366,768,9-3-2022,13-56-42,72,depth_duration_stimuli/001110_2014-06-15_17-25-28_260595134347_rgbf000150-resize_1/001110_2014-06-15_17-25-28_260595134347_rgbf000150-resize_1-target.png,125,1.7115,2,2530,110,feet,jsons/VE125_randls_43_rotated.json,557541,761069,25,Woman
72,263804,DepthScenes,duration_manipulation_targetAtFixation,jsons/VE125_randls_43_rotated.json,http://54.235.29.9/FacialAge/BNav_EC2/DepthDuration/v2_depth_duration_MTurk/v2_DepthDuration_HTML.html#365,365,1366,625,1366,768,9-3-2022,13-56-42,73,depth_duration_stimuli/000635_2014-06-08_16-38-42_260595134347_rgbf000106-resize_1/000635_2014-06-08_16-38-42_260595134347_rgbf000106-resize_1-target.png,125,2.074,3,2871,0,feet,jsons/VE125_randls_43_rotated.json,557541,761069,25,Woman
73,263804,DepthScenes,duration_manipulation_targetAtFixation,jsons/VE125_randls_43_rotated.json,http://54.235.29.9/FacialAge/BNav_EC2/DepthDuration/v2_depth_duration_MTurk/v2_DepthDuration_HTML.html#365,365,1366,625,1366,768,9-3-2022,13-56-42,74,depth_duration_stimuli/002279_2014-06-28_18-55-32_260595134347_rgbf000040-resize_5/002279_2014-06-28_18-55-32_260595134347_rgbf000040-resize_5-target.png,125,1.5043333333333,2,2209,115,feet,jsons/VE125_randls_43_rotated.json,557541,761069,25,Woman
74,263804,DepthScenes,duration_manipulation_targetAtFixation,jsons/VE125_randls_43_rotated.json,http://54.235.29.9/FacialAge/BNav_EC2/DepthDuration/v2_depth_duration_MTurk/v2_DepthDuration_HTML.html#365,365,1366,625,1366,768,9-3-2022,13-56-42,75,depth_duration_stimuli/001214_2014-06-17_16-13-55_260595134347_rgbf000111-resize_0/001214_2014-06-17_16-13-55_260595134347_rgbf000111-resize_0-target.png,125,2.6505,2,2344,180,feet,jsons/VE125_randls_43_rotated.json,557541,761069,25,Woman
75,263804,DepthScenes,duration_manipulation_targetAtFixation,jsons/VE125_randls_43_rotated.json,http://54.235.29.9/FacialAge/BNav_EC2/DepthDuration/v2_depth_duration_MTurk/v2_DepthDuration_HTML.html#365,365,1366,625,1366,768,9-3-2022,13-56-42,76,depth_duration_stimuli/000810_2014-06-08_17-20-01_260595134347_rgbf000105-resize_0/000810_2014-06-08_17-20-01_260595134347_rgbf000105-resize_0-target.png,125,1.4865,2,2222,125,feet,jsons/VE125_randls_43_rotated.json,557541,761069,25,Woman
76,263804,DepthScenes,duration_manipulation_targetAtFixation,jsons/VE125_randls_43_rotated.json,http://54.235.29.9/FacialAge/BNav_EC2/DepthDuration/v2_depth_duration_MTurk/v2_DepthDuration_HTML.html#365,365,1366,625,1366,768,9-3-2022,13-56-42,77,depth_duration_stimuli/001235_2014-06-17_16-37-36_260595134347_rgbf000084-resize_4/001235_2014-06-17_16-37-36_260595134347_rgbf000084-resize_4-target.png,125,3.6605,2,2889,124,feet,jsons/VE125_randls_43_rotated.json,557541,761069,25,Woman
77,263804,DepthScenes,duration_manipulation_targetAtFixation,jsons/VE125_randls_43_rotated.json,http://54.235.29.9/FacialAge/BNav_EC2/DepthDuration/v2_depth_duration_MTurk/v2_DepthDuration_HTML.html#365,365,1366,625,1366,768,9-3-2022,13-56-42,78,depth_duration_stimuli/000788_2014-06-08_22-34-36_260595134347_rgbf000131-resize_1/000788_2014-06-08_22-34-36_260595134347_rgbf000131-resize_1-target.png,125,3.359,1,2797,125,feet,jsons/VE125_randls_43_rotated.json,557541,761069,25,Woman
78,263804,DepthScenes,duration_manipulation_targetAtFixation,jsons/VE125_randls_43_rotated.json,http://54.235.29.9/FacialAge/BNav_EC2/DepthDuration/v2_depth_duration_MTurk/v2_DepthDuration_HTML.html#365,365,1366,625,1366,768,9-3-2022,13-56-42,79,depth_duration_stimuli/003490_2014-05-21_15-50-11_094959634447_rgbf000101-resize_3/003490_2014-05-21_15-50-11_094959634447_rgbf000101-resize_3-target.png,125,3.6445,2,2217,125,feet,jsons/VE125_randls_43_rotated.json,557541,761069,25,Woman
79,263804,DepthScenes,duration_manipulation_targetAtFixation,jsons/VE125_randls_43_rotated.json,http://54.235.29.9/FacialAge/BNav_EC2/DepthDuration/v2_depth_duration_MTurk/v2_DepthDuration_HTML.html#365,365,1366,625,1366,768,9-3-2022,13-56-42,80,depth_duration_stimuli/001175_2014-06-17_15-45-55_260595134347_rgbf000129-resize_4/001175_2014-06-17_15-45-55_260595134347_rgbf000129-resize_4-target.png,125,4.255,1,4336,123,feet,jsons/VE125_randls_43_rotated.json,557541,761069,25,Woman
80,263804,DepthScenes,duration_manipulation_targetAtFixation,jsons/VE125_randls_43_rotated.json,http://54.235.29.9/FacialAge/BNav_EC2/DepthDuration/v2_depth_duration_MTurk/v2_DepthDuration_HTML.html#365,365,1366,625,1366,768,9-3-2022,13-56-42,81,depth_duration_stimuli/003081_2014-06-15_15-19-16_094959634447_rgbf000150-resize_1/003081_2014-06-15_15-19-16_094959634447_rgbf000150-resize_1-target.png,125,3.9125,2,2449,156,feet,jsons/VE125_randls_43_rotated.json,557541,761069,25,Woman
81,263804,DepthScenes,duration_manipulation_targetAtFixation,jsons/VE125_randls_43_rotated.json,http://54.235.29.9/FacialAge/BNav_EC2/DepthDuration/v2_depth_duration_MTurk/v2_DepthDuration_HTML.html#365,365,1366,625,1366,768,9-3-2022,13-56-42,82,depth_duration_stimuli/001417_2014-06-19_16-25-36_260595134347_rgbf000115-resize_5/001417_2014-06-19_16-25-36_260595134347_rgbf000115-resize_5-target.png,125,4.6255,2,2481,114,feet,jsons/VE125_randls_43_rotated.json,557541,761069,25,Woman
82,263804,DepthScenes,duration_manipulation_targetAtFixation,jsons/VE125_randls_43_rotated.json,http://54.235.29.9/FacialAge/BNav_EC2/DepthDuration/v2_depth_duration_MTurk/v2_DepthDuration_HTML.html#365,365,1366,625,1366,768,9-3-2022,13-56-42,83,depth_duration_stimuli/000866_2014-06-09_20-45-42_260595134347_rgbf000139-resize_1/000866_2014-06-09_20-45-42_260595134347_rgbf000139-resize_1-target.png,125,3.2155,3,2588,99,feet,jsons/VE125_randls_43_rotated.json,557541,761069,25,Woman
83,263804,DepthScenes,duration_manipulation_targetAtFixation,jsons/VE125_randls_43_rotated.json,http://54.235.29.9/FacialAge/BNav_EC2/DepthDuration/v2_depth_duration_MTurk/v2_DepthDuration_HTML.html#365,365,1366,625,1366,768,9-3-2022,13-56-42,84,depth_duration_stimuli/002989_2014-06-15_12-25-03_094959634447_rgbf000150-resize_3/002989_2014-06-15_12-25-03_094959634447_rgbf000150-resize_3-target.png,125,4.1975,3,3208,125,feet,jsons/VE125_randls_43_rotated.json,557541,761069,25,Woman
84,263804,DepthScenes,duration_manipulation_targetAtFixation,jsons/VE125_randls_43_rotated.json,http://54.235.29.9/FacialAge/BNav_EC2/DepthDuration/v2_depth_duration_MTurk/v2_DepthDuration_HTML.html#365,365,1366,625,1366,768,9-3-2022,13-56-42,85,depth_duration_stimuli/000742_2014-06-08_18-48-09_260595134347_rgbf000164-resize_4/000742_2014-06-08_18-48-09_260595134347_rgbf000164-resize_4-target.png,125,4.632,5,3224,124,feet,jsons/VE125_randls_43_rotated.json,557541,761069,25,Woman
85,263804,DepthScenes,duration_manipulation_targetAtFixation,jsons/VE125_randls_43_rotated.json,http://54.235.29.9/FacialAge/BNav_EC2/DepthDuration/v2_depth_duration_MTurk/v2_DepthDuration_HTML.html#365,365,1366,625,1366,768,9-3-2022,13-56-42,86,depth_duration_stimuli/001066_2014-06-08_22-03-20_260595134347_rgbf000066-resize_4/001066_2014-06-08_22-03-20_260595134347_rgbf000066-resize_4-target.png,125,4.2330000000000005,4,3326,123,feet,jsons/VE125_randls_43_rotated.json,557541,761069,25,Woman
86,263804,DepthScenes,duration_manipulation_targetAtFixation,jsons/VE125_randls_43_rotated.json,http://54.235.29.9/FacialAge/BNav_EC2/DepthDuration/v2_depth_duration_MTurk/v2_DepthDuration_HTML.html#365,365,1366,625,1366,768,9-3-2022,13-56-42,87,depth_duration_stimuli/001650_2014-06-20_12-09-00_260595134347_rgbf000087-resize_3/001650_2014-06-20_12-09-00_260595134347_rgbf000087-resize_3-target.png,125,1.9505,1,2152,125,feet,jsons/VE125_randls_43_rotated.json,557541,761069,25,Woman
87,263804,DepthScenes,duration_manipulation_targetAtFixation,jsons/VE125_randls_43_rotated.json,http://54.235.29.9/FacialAge/BNav_EC2/DepthDuration/v2_depth_duration_MTurk/v2_DepthDuration_HTML.html#365,365,1366,625,1366,768,9-3-2022,13-56-42,88,depth_duration_stimuli/000682_2014-06-08_23-14-58_260595134347_rgbf000041-resize_5/000682_2014-06-08_23-14-58_260595134347_rgbf000041-resize_5-target.png,125,2.7239999999999998,2,2129,121,feet,jsons/VE125_randls_43_rotated.json,557541,761069,25,Woman
88,263804,DepthScenes,duration_manipulation_targetAtFixation,jsons/VE125_randls_43_rotated.json,http://54.235.29.9/FacialAge/BNav_EC2/DepthDuration/v2_depth_duration_MTurk/v2_DepthDuration_HTML.html#365,365,1366,625,1366,768,9-3-2022,13-56-42,89,depth_duration_stimuli/003338_2014-05-20_11-01-23_094959634447_rgbf000051-resize_6/003338_2014-05-20_11-01-23_094959634447_rgbf000051-resize_6-target.png,125,1.693,2,2444,122,feet,jsons/VE125_randls_43_rotated.json,557541,761069,25,Woman
89,263804,DepthScenes,duration_manipulation_targetAtFixation,jsons/VE125_randls_43_rotated.json,http://54.235.29.9/FacialAge/BNav_EC2/DepthDuration/v2_depth_duration_MTurk/v2_DepthDuration_HTML.html#365,365,1366,625,1366,768,9-3-2022,13-56-42,90,depth_duration_stimuli/002509_2014-06-24_13-19-22_094959634447_rgbf000077-resize_0/002509_2014-06-24_13-19-22_094959634447_rgbf000077-resize_0-target.png,125,1.3065,2,2132,126,feet,jsons/VE125_randls_43_rotated.json,557541,761069,25,Woman
90,263804,DepthScenes,duration_manipulation_targetAtFixation,jsons/VE125_randls_43_rotated.json,http://54.235.29.9/FacialAge/BNav_EC2/DepthDuration/v2_depth_duration_MTurk/v2_DepthDuration_HTML.html#365,365,1366,625,1366,768,9-3-2022,13-56-42,91,depth_duration_stimuli/001392_2014-06-19_16-07-59_260595134347_rgbf000046-resize_1/001392_2014-06-19_16-07-59_260595134347_rgbf000046-resize_1-target.png,125,4.135,3,2220,126,feet,jsons/VE125_randls_43_rotated.json,557541,761069,25,Woman
91,263804,DepthScenes,duration_manipulation_targetAtFixation,jsons/VE125_randls_43_rotated.json,http://54.235.29.9/FacialAge/BNav_EC2/DepthDuration/v2_depth_duration_MTurk/v2_DepthDuration_HTML.html#365,365,1366,625,1366,768,9-3-2022,13-56-42,92,depth_duration_stimuli/001570_2014-06-20_17-21-09_260595134347_rgbf000135-resize_4/001570_2014-06-20_17-21-09_260595134347_rgbf000135-resize_4-target.png,125,4.467,3,2438,119,feet,jsons/VE125_randls_43_rotated.json,557541,761069,25,Woman
92,263804,DepthScenes,duration_manipulation_targetAtFixation,jsons/VE125_randls_43_rotated.json,http://54.235.29.9/FacialAge/BNav_EC2/DepthDuration/v2_depth_duration_MTurk/v2_DepthDuration_HTML.html#365,365,1366,625,1366,768,9-3-2022,13-56-42,93,depth_duration_stimuli/002209_2014-06-28_18-36-10_260595134347_rgbf000051-resize_1/002209_2014-06-28_18-36-10_260595134347_rgbf000051-resize_1-target.png,125,2.057,1,2249,111,feet,jsons/VE125_randls_43_rotated.json,557541,761069,25,Woman
93,263804,DepthScenes,duration_manipulation_targetAtFixation,jsons/VE125_randls_43_rotated.json,http://54.235.29.9/FacialAge/BNav_EC2/DepthDuration/v2_depth_duration_MTurk/v2_DepthDuration_HTML.html#365,365,1366,625,1366,768,9-3-2022,13-56-42,94,depth_duration_stimuli/002763_2014-06-22_19-13-10_094959634447_rgbf000075-resize_4/002763_2014-06-22_19-13-10_094959634447_rgbf000075-resize_4-target.png,125,1.68375,3,3509,117,feet,jsons/VE125_randls_43_rotated.json,557541,761069,25,Woman
94,263804,DepthScenes,duration_manipulation_targetAtFixation,jsons/VE125_randls_43_rotated.json,http://54.235.29.9/FacialAge/BNav_EC2/DepthDuration/v2_depth_duration_MTurk/v2_DepthDuration_HTML.html#365,365,1366,625,1366,768,9-3-2022,13-56-42,95,depth_duration_stimuli/001516_2014-06-20_16-25-09_260595134347_rgbf000076-resize_2/001516_2014-06-20_16-25-09_260595134347_rgbf000076-resize_2-target.png,125,1.7445,2,3074,144,feet,jsons/VE125_randls_43_rotated.json,557541,761069,25,Woman
95,263804,DepthScenes,duration_manipulation_targetAtFixation,jsons/VE125_randls_43_rotated.json,http://54.235.29.9/FacialAge/BNav_EC2/DepthDuration/v2_depth_duration_MTurk/v2_DepthDuration_HTML.html#365,365,1366,625,1366,768,9-3-2022,13-56-42,96,depth_duration_stimuli/002118_2014-06-25_20-32-08_260595134347_rgbf000078-resize_1/002118_2014-06-25_20-32-08_260595134347_rgbf000078-resize_1-target.png,125,2.6460000000000004,3,2871,125,feet,jsons/VE125_randls_43_rotated.json,557541,761069,25,Woman
96,263804,DepthScenes,duration_manipulation_targetAtFixation,jsons/VE125_randls_43_rotated.json,http://54.235.29.9/FacialAge/BNav_EC2/DepthDuration/v2_depth_duration_MTurk/v2_DepthDuration_HTML.html#365,365,1366,625,1366,768,9-3-2022,13-56-42,97,depth_duration_stimuli/001571_2014-06-20_17-21-32_260595134347_rgbf000089-resize_1/001571_2014-06-20_17-21-32_260595134347_rgbf000089-resize_1-target.png,125,1.86,2,2347,115,feet,jsons/VE125_randls_43_rotated.json,557541,761069,25,Woman
97,263804,DepthScenes,duration_manipulation_targetAtFixation,jsons/VE125_randls_43_rotated.json,http://54.235.29.9/FacialAge/BNav_EC2/DepthDuration/v2_depth_duration_MTurk/v2_DepthDuration_HTML.html#365,365,1366,625,1366,768,9-3-2022,13-56-42,98,depth_duration_stimuli/002272_2014-06-28_18-53-56_260595134347_rgbf000067-resize_2/002272_2014-06-28_18-53-56_260595134347_rgbf000067-resize_2-target.png,125,1.138,3,2233,135,feet,jsons/VE125_randls_43_rotated.json,557541,761069,25,Woman
98,263804,DepthScenes,duration_manipulation_targetAtFixation,jsons/VE125_randls_43_rotated.json,http://54.235.29.9/FacialAge/BNav_EC2/DepthDuration/v2_depth_duration_MTurk/v2_DepthDuration_HTML.html#365,365,1366,625,1366,768,9-3-2022,13-56-42,99,depth_duration_stimuli/001222_2014-06-17_16-24-06_260595134347_rgbf000073-resize_0/001222_2014-06-17_16-24-06_260595134347_rgbf000073-resize-original.jpg,125,1.4385,1,3056,124,feet,jsons/VE125_randls_43_rotated.json,557541,761069,25,Woman
99,263804,DepthScenes,duration_manipulation_targetAtFixation,jsons/VE125_randls_43_rotated.json,http://54.235.29.9/FacialAge/BNav_EC2/DepthDuration/v2_depth_duration_MTurk/v2_DepthDuration_HTML.html#365,365,1366,625,1366,768,9-3-2022,13-56-42,100,depth_duration_stimuli/003423_2014-05-21_10-23-26_094959634447_rgbf002665-resize_2/003423_2014-05-21_10-23-26_094959634447_rgbf002665-resize_2-target.png,125,3.2575,4,2949,124,feet,jsons/VE125_randls_43_rotated.json,557541,761069,25,Woman
100,263804,DepthScenes,duration_manipulation_targetAtFixation,jsons/VE125_randls_43_rotated.json,http://54.235.29.9/FacialAge/BNav_EC2/DepthDuration/v2_depth_duration_MTurk/v2_DepthDuration_HTML.html#365,365,1366,625,1366,768,9-3-2022,13-56-42,101,depth_duration_stimuli/002905_2014-06-03_18-04-43_094959634447_rgbf000151-resize_2/002905_2014-06-03_18-04-43_094959634447_rgbf000151-resize_2-target.png,125,2.0295,3,4245,124,feet,jsons/VE125_randls_43_rotated.json,557541,761069,25,Woman
101,263804,DepthScenes,duration_manipulation_targetAtFixation,jsons/VE125_randls_43_rotated.json,http://54.235.29.9/FacialAge/BNav_EC2/DepthDuration/v2_depth_duration_MTurk/v2_DepthDuration_HTML.html#365,365,1366,625,1366,768,9-3-2022,13-56-42,102,depth_duration_stimuli/003129_2014-05-12_10-48-10_094959634447_rgbf000100-resize_0/003129_2014-05-12_10-48-10_094959634447_rgbf000100-resize_0-target.png,125,4.9305,2,4177,115,feet,jsons/VE125_randls_43_rotated.json,557541,761069,25,Woman
102,263804,DepthScenes,duration_manipulation_targetAtFixation,jsons/VE125_randls_43_rotated.json,http://54.235.29.9/FacialAge/BNav_EC2/DepthDuration/v2_depth_duration_MTurk/v2_DepthDuration_HTML.html#365,365,1366,625,1366,768,9-3-2022,13-56-42,103,depth_duration_stimuli/000414_2014-06-04_19-49-13_260595134347_rgbf000044-resize_0/000414_2014-06-04_19-49-13_260595134347_rgbf000044-resize_0-target.png,125,4.329,3,3019,99,feet,jsons/VE125_randls_43_rotated.json,557541,761069,25,Woman
103,263804,DepthScenes,duration_manipulation_targetAtFixation,jsons/VE125_randls_43_rotated.json,http://54.235.29.9/FacialAge/BNav_EC2/DepthDuration/v2_depth_duration_MTurk/v2_DepthDuration_HTML.html#365,365,1366,625,1366,768,9-3-2022,13-56-42,104,depth_duration_stimuli/000691_2014-06-08_13-08-50_260595134347_rgbf000132-resize_3/000691_2014-06-08_13-08-50_260595134347_rgbf000132-resize_3-target.png,125,4.1530000000000005,3,2732,137,feet,jsons/VE125_randls_43_rotated.json,557541,761069,25,Woman
104,263804,DepthScenes,duration_manipulation_targetAtFixation,jsons/VE125_randls_43_rotated.json,http://54.235.29.9/FacialAge/BNav_EC2/DepthDuration/v2_depth_duration_MTurk/v2_DepthDuration_HTML.html#365,365,1366,625,1366,768,9-3-2022,13-56-42,105,depth_duration_stimuli/002213_2014-06-28_18-37-58_260595134347_rgbf000055-resize_1/002213_2014-06-28_18-37-58_260595134347_rgbf000055-resize_1-target.png,125,3.62,2,2705,125,feet,jsons/VE125_randls_43_rotated.json,557541,761069,25,Woman
105,263804,DepthScenes,duration_manipulation_targetAtFixation,jsons/VE125_randls_43_rotated.json,http://54.235.29.9/FacialAge/BNav_EC2/DepthDuration/v2_depth_duration_MTurk/v2_DepthDuration_HTML.html#365,365,1366,625,1366,768,9-3-2022,13-56-42,106,depth_duration_stimuli/001100_2014-06-15_17-46-26_260595134347_rgbf000225-resize_2/001100_2014-06-15_17-46-26_260595134347_rgbf000225-resize_2-target.png,125,2.24,2,2462,123,feet,jsons/VE125_randls_43_rotated.json,557541,761069,25,Woman
106,263804,DepthScenes,duration_manipulation_targetAtFixation,jsons/VE125_randls_43_rotated.json,http://54.235.29.9/FacialAge/BNav_EC2/DepthDuration/v2_depth_duration_MTurk/v2_DepthDuration_HTML.html#365,365,1366,625,1366,768,9-3-2022,13-56-42,107,depth_duration_stimuli/002784_2014-06-22_19-26-30_094959634447_rgbf000083-resize_3/002784_2014-06-22_19-26-30_094959634447_rgbf000083-resize_3-target.png,125,1.8046666666667,1,2089,124,feet,jsons/VE125_randls_43_rotated.json,557541,761069,25,Woman
107,263804,DepthScenes,duration_manipulation_targetAtFixation,jsons/VE125_randls_43_rotated.json,http://54.235.29.9/FacialAge/BNav_EC2/DepthDuration/v2_depth_duration_MTurk/v2_DepthDuration_HTML.html#365,365,1366,625,1366,768,9-3-2022,13-56-42,108,depth_duration_stimuli/002199_2014-06-28_18-33-56_260595134347_rgbf000074-resize_0/002199_2014-06-28_18-33-56_260595134347_rgbf000074-resize_0-target.png,125,1.996,3,3169,123,feet,jsons/VE125_randls_43_rotated.json,557541,761069,25,Woman
108,263804,DepthScenes,duration_manipulation_targetAtFixation,jsons/VE125_randls_43_rotated.json,http://54.235.29.9/FacialAge/BNav_EC2/DepthDuration/v2_depth_duration_MTurk/v2_DepthDuration_HTML.html#365,365,1366,625,1366,768,9-3-2022,13-56-42,109,depth_duration_stimuli/001056_2014-06-08_18-46-44_260595134347_rgbf000068-resize_0/001056_2014-06-08_18-46-44_260595134347_rgbf000068-resize_0-target.png,125,2.6625,2,2544,117,feet,jsons/VE125_randls_43_rotated.json,557541,761069,25,Woman
109,263804,DepthScenes,duration_manipulation_targetAtFixation,jsons/VE125_randls_43_rotated.json,http://54.235.29.9/FacialAge/BNav_EC2/DepthDuration/v2_depth_duration_MTurk/v2_DepthDuration_HTML.html#365,365,1366,625,1366,768,9-3-2022,13-56-42,110,depth_duration_stimuli/000665_2014-06-09_20-42-35_260595134347_rgbf000110-resize_1/000665_2014-06-09_20-42-35_260595134347_rgbf000110-resize_1-target.png,125,3.057,1,2651,92,feet,jsons/VE125_randls_43_rotated.json,557541,761069,25,Woman
110,263804,DepthScenes,duration_manipulation_targetAtFixation,jsons/VE125_randls_43_rotated.json,http://54.235.29.9/FacialAge/BNav_EC2/DepthDuration/v2_depth_duration_MTurk/v2_DepthDuration_HTML.html#365,365,1366,625,1366,768,9-3-2022,13-56-42,111,depth_duration_stimuli/001150_2014-06-17_15-27-34_260595134347_rgbf000108-resize_2/001150_2014-06-17_15-27-34_260595134347_rgbf000108-resize_2-target.png,125,4.0325,3,2607,131,feet,jsons/VE125_randls_43_rotated.json,557541,761069,25,Woman
111,263804,DepthScenes,duration_manipulation_targetAtFixation,jsons/VE125_randls_43_rotated.json,http://54.235.29.9/FacialAge/BNav_EC2/DepthDuration/v2_depth_duration_MTurk/v2_DepthDuration_HTML.html#365,365,1366,625,1366,768,9-3-2022,13-56-42,112,depth_duration_stimuli/002660_2014-06-13_15-44-18_094959634447_rgbf001878-resize_2/002660_2014-06-13_15-44-18_094959634447_rgbf001878-resize_2-target.png,125,3.576,3,3046,124,feet,jsons/VE125_randls_43_rotated.json,557541,761069,25,Woman
112,263804,DepthScenes,duration_manipulation_targetAtFixation,jsons/VE125_randls_43_rotated.json,http://54.235.29.9/FacialAge/BNav_EC2/DepthDuration/v2_depth_duration_MTurk/v2_DepthDuration_HTML.html#365,365,1366,625,1366,768,9-3-2022,13-56-42,113,depth_duration_stimuli/002153_2014-06-25_21-27-18_260595134347_rgbf000038-resize_5/002153_2014-06-25_21-27-18_260595134347_rgbf000038-resize_5-target.png,125,2.505,3,2601,125,feet,jsons/VE125_randls_43_rotated.json,557541,761069,25,Woman
113,263804,DepthScenes,duration_manipulation_targetAtFixation,jsons/VE125_randls_43_rotated.json,http://54.235.29.9/FacialAge/BNav_EC2/DepthDuration/v2_depth_duration_MTurk/v2_DepthDuration_HTML.html#365,365,1366,625,1366,768,9-3-2022,13-56-42,114,depth_duration_stimuli/001052_2014-06-08_18-24-54_260595134347_rgbf000130-resize_1/001052_2014-06-08_18-24-54_260595134347_rgbf000130-resize_1-target.png,125,4.1045,2,2538,117,feet,jsons/VE125_randls_43_rotated.json,557541,761069,25,Woman
114,263804,DepthScenes,duration_manipulation_targetAtFixation,jsons/VE125_randls_43_rotated.json,http://54.235.29.9/FacialAge/BNav_EC2/DepthDuration/v2_depth_duration_MTurk/v2_DepthDuration_HTML.html#365,365,1366,625,1366,768,9-3-2022,13-56-42,115,depth_duration_stimuli/002988_2014-06-15_12-24-20_094959634447_rgbf000150-resize_1/002988_2014-06-15_12-24-20_094959634447_rgbf000150-resize_1-target.png,125,4.7669999999999995,3,2644,104,feet,jsons/VE125_randls_43_rotated.json,557541,761069,25,Woman
115,263804,DepthScenes,duration_manipulation_targetAtFixation,jsons/VE125_randls_43_rotated.json,http://54.235.29.9/FacialAge/BNav_EC2/DepthDuration/v2_depth_duration_MTurk/v2_DepthDuration_HTML.html#365,365,1366,625,1366,768,9-3-2022,13-56-42,116,depth_duration_stimuli/001447_2014-06-19_17-00-32_260595134347_rgbf000082-resize_5/001447_2014-06-19_17-00-32_260595134347_rgbf000082-resize_5-target.png,125,4.13775,3,2522,125,feet,jsons/VE125_randls_43_rotated.json,557541,761069,25,Woman
116,263804,DepthScenes,duration_manipulation_targetAtFixation,jsons/VE125_randls_43_rotated.json,http://54.235.29.9/FacialAge/BNav_EC2/DepthDuration/v2_depth_duration_MTurk/v2_DepthDuration_HTML.html#365,365,1366,625,1366,768,9-3-2022,13-56-42,117,depth_duration_stimuli/000447_2014-06-08_16-15-46_260595134347_rgbf000130-resize_1/000447_2014-06-08_16-15-46_260595134347_rgbf000130-resize_1-target.png,125,4.479,4,2231,122,feet,jsons/VE125_randls_43_rotated.json,557541,761069,25,Woman
117,263804,DepthScenes,duration_manipulation_targetAtFixation,jsons/VE125_randls_43_rotated.json,http://54.235.29.9/FacialAge/BNav_EC2/DepthDuration/v2_depth_duration_MTurk/v2_DepthDuration_HTML.html#365,365,1366,625,1366,768,9-3-2022,13-56-42,118,depth_duration_stimuli/000709_2014-06-08_13-51-55_260595134347_rgbf000068-resize_3/000709_2014-06-08_13-51-55_260595134347_rgbf000068-resize_3-target.png,125,1.8030000000000002,3,4168,156,feet,jsons/VE125_randls_43_rotated.json,557541,761069,25,Woman
118,263804,DepthScenes,duration_manipulation_targetAtFixation,jsons/VE125_randls_43_rotated.json,http://54.235.29.9/FacialAge/BNav_EC2/DepthDuration/v2_depth_duration_MTurk/v2_DepthDuration_HTML.html#365,365,1366,625,1366,768,9-3-2022,13-56-42,119,depth_duration_stimuli/002057_2014-06-24_21-00-13_260595134347_rgbf000120-resize_1/002057_2014-06-24_21-00-13_260595134347_rgbf000120-resize_1-target.png,125,2.967,3,2353,130,feet,jsons/VE125_randls_43_rotated.json,557541,761069,25,Woman
119,263804,DepthScenes,duration_manipulation_targetAtFixation,jsons/VE125_randls_43_rotated.json,http://54.235.29.9/FacialAge/BNav_EC2/DepthDuration/v2_depth_duration_MTurk/v2_DepthDuration_HTML.html#365,365,1366,625,1366,768,9-3-2022,13-56-42,120,depth_duration_stimuli/000787_2014-06-08_22-33-53_260595134347_rgbf000175-resize_1/000787_2014-06-08_22-33-53_260595134347_rgbf000175-resize-original.jpg,125,4.784,3,2151,134,feet,jsons/VE125_randls_43_rotated.json,557541,761069,25,Woman
120,263804,DepthScenes,duration_manipulation_targetAtFixation,jsons/VE125_randls_43_rotated.json,http://54.235.29.9/FacialAge/BNav_EC2/DepthDuration/v2_depth_duration_MTurk/v2_DepthDuration_HTML.html#365,365,1366,625,1366,768,9-3-2022,13-56-42,121,depth_duration_stimuli/000780_2014-06-08_22-28-29_260595134347_rgbf000126-resize_1/000780_2014-06-08_22-28-29_260595134347_rgbf000126-resize_1-target.png,125,3.3825,2,2195,122,feet,jsons/VE125_randls_43_rotated.json,557541,761069,25,Woman
121,263804,DepthScenes,duration_manipulation_targetAtFixation,jsons/VE125_randls_43_rotated.json,http://54.235.29.9/FacialAge/BNav_EC2/DepthDuration/v2_depth_duration_MTurk/v2_DepthDuration_HTML.html#365,365,1366,625,1366,768,9-3-2022,13-56-42,122,depth_duration_stimuli/002445_2014-06-28_20-32-16_260595134347_rgbf000029-resize_4/002445_2014-06-28_20-32-16_260595134347_rgbf000029-resize_4-target.png,125,2.5315,2,2287,141,feet,jsons/VE125_randls_43_rotated.json,557541,761069,25,Woman
122,263804,DepthScenes,duration_manipulation_targetAtFixation,jsons/VE125_randls_43_rotated.json,http://54.235.29.9/FacialAge/BNav_EC2/DepthDuration/v2_depth_duration_MTurk/v2_DepthDuration_HTML.html#365,365,1366,625,1366,768,9-3-2022,13-56-42,123,depth_duration_stimuli/002425_2014-06-28_20-27-29_260595134347_rgbf000031-resize_8/002425_2014-06-28_20-27-29_260595134347_rgbf000031-resize_8-target.png,125,3.8960000000000004,3,2608,123,feet,jsons/VE125_randls_43_rotated.json,557541,761069,25,Woman
123,263804,DepthScenes,duration_manipulation_targetAtFixation,jsons/VE125_randls_43_rotated.json,http://54.235.29.9/FacialAge/BNav_EC2/DepthDuration/v2_depth_duration_MTurk/v2_DepthDuration_HTML.html#365,365,1366,625,1366,768,9-3-2022,13-56-42,124,depth_duration_stimuli/000642_2014-06-08_16-59-25_260595134347_rgbf000098-resize_2/000642_2014-06-08_16-59-25_260595134347_rgbf000098-resize_2-target.png,125,2.8815,2,2347,140,feet,jsons/VE125_randls_43_rotated.json,557541,761069,25,Woman
124,263804,DepthScenes,duration_manipulation_targetAtFixation,jsons/VE125_randls_43_rotated.json,http://54.235.29.9/FacialAge/BNav_EC2/DepthDuration/v2_depth_duration_MTurk/v2_DepthDuration_HTML.html#365,365,1366,625,1366,768,9-3-2022,13-56-42,125,depth_duration_stimuli/002805_2014-06-22_19-54-03_094959634447_rgbf000079-resize_1/002805_2014-06-22_19-54-03_094959634447_rgbf000079-resize_1-target.png,125,3.1439999999999997,2,3100,134,feet,jsons/VE125_randls_43_rotated.json,557541,761069,25,Woman
125,263804,DepthScenes,duration_manipulation_targetAtFixation,jsons/VE125_randls_43_rotated.json,http://54.235.29.9/FacialAge/BNav_EC2/DepthDuration/v2_depth_duration_MTurk/v2_DepthDuration_HTML.html#365,365,1366,625,1366,768,9-3-2022,13-56-42,126,depth_duration_stimuli/000906_2014-06-08_13-35-43_260595134347_rgbf000155-resize_1/000906_2014-06-08_13-35-43_260595134347_rgbf000155-resize_1-target.png,125,2.8489999999999998,3,2436,122,feet,jsons/VE125_randls_43_rotated.json,557541,761069,25,Woman
126,263804,DepthScenes,duration_manipulation_targetAtFixation,jsons/VE125_randls_43_rotated.json,http://54.235.29.9/FacialAge/BNav_EC2/DepthDuration/v2_depth_duration_MTurk/v2_DepthDuration_HTML.html#365,365,1366,625,1366,768,9-3-2022,13-56-42,127,depth_duration_stimuli/002750_2014-06-22_19-08-03_094959634447_rgbf000094-resize_4/002750_2014-06-22_19-08-03_094959634447_rgbf000094-resize_4-target.png,125,2.354,4,2385,117,feet,jsons/VE125_randls_43_rotated.json,557541,761069,25,Woman
127,263804,DepthScenes,duration_manipulation_targetAtFixation,jsons/VE125_randls_43_rotated.json,http://54.235.29.9/FacialAge/BNav_EC2/DepthDuration/v2_depth_duration_MTurk/v2_DepthDuration_HTML.html#365,365,1366,625,1366,768,9-3-2022,13-56-42,128,depth_duration_stimuli/002549_2014-06-24_13-41-39_094959634447_rgbf000022-resize_3/002549_2014-06-24_13-41-39_094959634447_rgbf000022-resize_3-target.png,125,1.476,2,2686,125,feet,jsons/VE125_randls_43_rotated.json,557541,761069,25,Woman
128,263804,DepthScenes,duration_manipulation_targetAtFixation,jsons/VE125_randls_43_rotated.json,http://54.235.29.9/FacialAge/BNav_EC2/DepthDuration/v2_depth_duration_MTurk/v2_DepthDuration_HTML.html#365,365,1366,625,1366,768,9-3-2022,13-56-42,129,depth_duration_stimuli/000457_2014-06-08_16-52-43_260595134347_rgbf000199-resize_1/000457_2014-06-08_16-52-43_260595134347_rgbf000199-resize_1-target.png,125,3.6489999999999996,4,3004,127,feet,jsons/VE125_randls_43_rotated.json,557541,761069,25,Woman
129,263804,DepthScenes,duration_manipulation_targetAtFixation,jsons/VE125_randls_43_rotated.json,http://54.235.29.9/FacialAge/BNav_EC2/DepthDuration/v2_depth_duration_MTurk/v2_DepthDuration_HTML.html#365,365,1366,625,1366,768,9-3-2022,13-56-42,130,depth_duration_stimuli/000929_2014-06-09_16-33-19_260595134347_rgbf000139-resize_0/000929_2014-06-09_16-33-19_260595134347_rgbf000139-resize_0-target.png,125,2.8680000000000003,1,3258,125,feet,jsons/VE125_randls_43_rotated.json,557541,761069,25,Woman
130,263804,DepthScenes,duration_manipulation_targetAtFixation,jsons/VE125_randls_43_rotated.json,http://54.235.29.9/FacialAge/BNav_EC2/DepthDuration/v2_depth_duration_MTurk/v2_DepthDuration_HTML.html#365,365,1366,625,1366,768,9-3-2022,13-56-42,131,depth_duration_stimuli/000409_2014-06-04_19-23-33_260595134347_rgbf000067-resize_0/000409_2014-06-04_19-23-33_260595134347_rgbf000067-resize_0-target.png,125,3.7335,1,2199,101,feet,jsons/VE125_randls_43_rotated.json,557541,761069,25,Woman
131,263804,DepthScenes,duration_manipulation_targetAtFixation,jsons/VE125_randls_43_rotated.json,http://54.235.29.9/FacialAge/BNav_EC2/DepthDuration/v2_depth_duration_MTurk/v2_DepthDuration_HTML.html#365,365,1366,625,1366,768,9-3-2022,13-56-42,132,depth_duration_stimuli/002663_2014-06-13_15-50-26_094959634447_rgbf000075-resize_1/002663_2014-06-13_15-50-26_094959634447_rgbf000075-resize_1-target.png,125,4.7495,3,2510,114,feet,jsons/VE125_randls_43_rotated.json,557541,761069,25,Woman
132,263804,DepthScenes,duration_manipulation_targetAtFixation,jsons/VE125_randls_43_rotated.json,http://54.235.29.9/FacialAge/BNav_EC2/DepthDuration/v2_depth_duration_MTurk/v2_DepthDuration_HTML.html#365,365,1366,625,1366,768,9-3-2022,13-56-42,133,depth_duration_stimuli/002953_2014-06-08_17-32-18_094959634447_rgbf000059-resize_5/002953_2014-06-08_17-32-18_094959634447_rgbf000059-resize_5-target.png,125,1.551,3,2599,118,feet,jsons/VE125_randls_43_rotated.json,557541,761069,25,Woman
133,263804,DepthScenes,duration_manipulation_targetAtFixation,jsons/VE125_randls_43_rotated.json,http://54.235.29.9/FacialAge/BNav_EC2/DepthDuration/v2_depth_duration_MTurk/v2_DepthDuration_HTML.html#365,365,1366,625,1366,768,9-3-2022,13-56-42,134,depth_duration_stimuli/000878_2014-06-08_22-52-45_260595134347_rgbf000045-resize_2/000878_2014-06-08_22-52-45_260595134347_rgbf000045-resize_2-target.png,125,2.092,3,2859,126,feet,jsons/VE125_randls_43_rotated.json,557541,761069,25,Woman
134,263804,DepthScenes,duration_manipulation_targetAtFixation,jsons/VE125_randls_43_rotated.json,http://54.235.29.9/FacialAge/BNav_EC2/DepthDuration/v2_depth_duration_MTurk/v2_DepthDuration_HTML.html#365,365,1366,625,1366,768,9-3-2022,13-56-42,135,depth_duration_stimuli/000375_2014-06-08_11-17-29_260595134347_rgbf000133-resize_2/000375_2014-06-08_11-17-29_260595134347_rgbf000133-resize-original.jpg,125,4.718,2,2225,110,feet,jsons/VE125_randls_43_rotated.json,557541,761069,25,Woman
135,263804,DepthScenes,duration_manipulation_targetAtFixation,jsons/VE125_randls_43_rotated.json,http://54.235.29.9/FacialAge/BNav_EC2/DepthDuration/v2_depth_duration_MTurk/v2_DepthDuration_HTML.html#365,365,1366,625,1366,768,9-3-2022,13-56-42,136,depth_duration_stimuli/000677_2014-06-08_23-10-32_260595134347_rgbf000158-resize_6/000677_2014-06-08_23-10-32_260595134347_rgbf000158-resize_6-target.png,125,3.556,3,2026,117,feet,jsons/VE125_randls_43_rotated.json,557541,761069,25,Woman
136,263804,DepthScenes,duration_manipulation_targetAtFixation,jsons/VE125_randls_43_rotated.json,http://54.235.29.9/FacialAge/BNav_EC2/DepthDuration/v2_depth_duration_MTurk/v2_DepthDuration_HTML.html#365,365,1366,625,1366,768,9-3-2022,13-56-42,137,depth_duration_stimuli/001029_2014-06-08_13-17-57_260595134347_rgbf000065-resize_1/001029_2014-06-08_13-17-57_260595134347_rgbf000065-resize_1-target.png,125,3.0835,3,2576,122,feet,jsons/VE125_randls_43_rotated.json,557541,761069,25,Woman
137,263804,DepthScenes,duration_manipulation_targetAtFixation,jsons/VE125_randls_43_rotated.json,http://54.235.29.9/FacialAge/BNav_EC2/DepthDuration/v2_depth_duration_MTurk/v2_DepthDuration_HTML.html#365,365,1366,625,1366,768,9-3-2022,13-56-42,138,depth_duration_stimuli/000943_2014-06-09_19-31-07_260595134347_rgbf000128-resize_1/000943_2014-06-09_19-31-07_260595134347_rgbf000128-resize_1-target.png,125,1.9765,2,3016,104,feet,jsons/VE125_randls_43_rotated.json,557541,761069,25,Woman
138,263804,DepthScenes,duration_manipulation_targetAtFixation,jsons/VE125_randls_43_rotated.json,http://54.235.29.9/FacialAge/BNav_EC2/DepthDuration/v2_depth_duration_MTurk/v2_DepthDuration_HTML.html#365,365,1366,625,1366,768,9-3-2022,13-56-42,139,depth_duration_stimuli/003070_2014-06-15_14-58-27_094959634447_rgbf000150-resize_3/003070_2014-06-15_14-58-27_094959634447_rgbf000150-resize_3-target.png,125,2.9415,3,2910,109,feet,jsons/VE125_randls_43_rotated.json,557541,761069,25,Woman
139,263804,DepthScenes,duration_manipulation_targetAtFixation,jsons/VE125_randls_43_rotated.json,http://54.235.29.9/FacialAge/BNav_EC2/DepthDuration/v2_depth_duration_MTurk/v2_DepthDuration_HTML.html#365,365,1366,625,1366,768,9-3-2022,13-56-42,140,depth_duration_stimuli/001584_2014-06-20_11-07-43_260595134347_rgbf000002-resize_1/001584_2014-06-20_11-07-43_260595134347_rgbf000002-resize_1-target.png,125,3.53,3,2495,140,feet,jsons/VE125_randls_43_rotated.json,557541,761069,25,Woman
140,263804,DepthScenes,duration_manipulation_targetAtFixation,jsons/VE125_randls_43_rotated.json,http://54.235.29.9/FacialAge/BNav_EC2/DepthDuration/v2_depth_duration_MTurk/v2_DepthDuration_HTML.html#365,365,1366,625,1366,768,9-3-2022,13-56-42,141,depth_duration_stimuli/003621_2014-05-23_18-06-08_094959634447_rgbf000101-resize_1/003621_2014-05-23_18-06-08_094959634447_rgbf000101-resize_1-target.png,125,3.9835,3,2265,123,feet,jsons/VE125_randls_43_rotated.json,557541,761069,25,Woman
141,263804,DepthScenes,duration_manipulation_targetAtFixation,jsons/VE125_randls_43_rotated.json,http://54.235.29.9/FacialAge/BNav_EC2/DepthDuration/v2_depth_duration_MTurk/v2_DepthDuration_HTML.html#365,365,1366,625,1366,768,9-3-2022,13-56-42,142,depth_duration_stimuli/000734_2014-06-08_17-39-11_260595134347_rgbf000128-resize_2/000734_2014-06-08_17-39-11_260595134347_rgbf000128-resize_2-target.png,125,4.098,2,2420,124,feet,jsons/VE125_randls_43_rotated.json,557541,761069,25,Woman
142,263804,DepthScenes,duration_manipulation_targetAtFixation,jsons/VE125_randls_43_rotated.json,http://54.235.29.9/FacialAge/BNav_EC2/DepthDuration/v2_depth_duration_MTurk/v2_DepthDuration_HTML.html#365,365,1366,625,1366,768,9-3-2022,13-56-42,143,depth_duration_stimuli/000739_2014-06-08_18-45-58_260595134347_rgbf000068-resize_1/000739_2014-06-08_18-45-58_260595134347_rgbf000068-resize_1-target.png,125,3.534,3,2250,109,feet,jsons/VE125_randls_43_rotated.json,557541,761069,25,Woman
143,263804,DepthScenes,duration_manipulation_targetAtFixation,jsons/VE125_randls_43_rotated.json,http://54.235.29.9/FacialAge/BNav_EC2/DepthDuration/v2_depth_duration_MTurk/v2_DepthDuration_HTML.html#365,365,1366,625,1366,768,9-3-2022,13-56-42,144,depth_duration_stimuli/001815_2014-06-26_20-52-55_260595134347_rgbf000020-resize_0/001815_2014-06-26_20-52-55_260595134347_rgbf000020-resize_0-target.png,125,3.3865,2,2724,143,feet,jsons/VE125_randls_43_rotated.json,557541,761069,25,Woman
144,263804,DepthScenes,duration_manipulation_targetAtFixation,jsons/VE125_randls_43_rotated.json,http://54.235.29.9/FacialAge/BNav_EC2/DepthDuration/v2_depth_duration_MTurk/v2_DepthDuration_HTML.html#365,365,1366,625,1366,768,9-3-2022,13-56-42,145,depth_duration_stimuli/001808_2014-06-26_20-50-58_260595134347_rgbf000029-resize_1/001808_2014-06-26_20-50-58_260595134347_rgbf000029-resize_1-target.png,125,4.249,3,4581,123,feet,jsons/VE125_randls_43_rotated.json,557541,761069,25,Woman
145,263804,DepthScenes,duration_manipulation_targetAtFixation,jsons/VE125_randls_43_rotated.json,http://54.235.29.9/FacialAge/BNav_EC2/DepthDuration/v2_depth_duration_MTurk/v2_DepthDuration_HTML.html#365,365,1366,625,1366,768,9-3-2022,13-56-42,146,depth_duration_stimuli/003010_2014-06-15_12-54-35_094959634447_rgbf000112-resize_0/003010_2014-06-15_12-54-35_094959634447_rgbf000112-resize_0-target.png,125,3.1185,4,2929,138,feet,jsons/VE125_randls_43_rotated.json,557541,761069,25,Woman
146,263804,DepthScenes,duration_manipulation_targetAtFixation,jsons/VE125_randls_43_rotated.json,http://54.235.29.9/FacialAge/BNav_EC2/DepthDuration/v2_depth_duration_MTurk/v2_DepthDuration_HTML.html#365,365,1366,625,1366,768,9-3-2022,13-56-42,147,depth_duration_stimuli/001810_2014-06-26_20-51-35_260595134347_rgbf000040-resize_3/001810_2014-06-26_20-51-35_260595134347_rgbf000040-resize_3-target.png,125,2.2525,2,3256,125,feet,jsons/VE125_randls_43_rotated.json,557541,761069,25,Woman
147,263804,DepthScenes,duration_manipulation_targetAtFixation,jsons/VE125_randls_43_rotated.json,http://54.235.29.9/FacialAge/BNav_EC2/DepthDuration/v2_depth_duration_MTurk/v2_DepthDuration_HTML.html#365,365,1366,625,1366,768,9-3-2022,13-56-42,148,depth_duration_stimuli/000109_2014-05-14_23-41-52_260595134347_rgbf000035-resize_9/000109_2014-05-14_23-41-52_260595134347_rgbf000035-resize_9-target.png,125,1.3545,2,2607,125,feet,jsons/VE125_randls_43_rotated.json,557541,761069,25,Woman
148,263804,DepthScenes,duration_manipulation_targetAtFixation,jsons/VE125_randls_43_rotated.json,http://54.235.29.9/FacialAge/BNav_EC2/DepthDuration/v2_depth_duration_MTurk/v2_DepthDuration_HTML.html#365,365,1366,625,1366,768,9-3-2022,13-56-42,149,depth_duration_stimuli/000470_2014-06-09_19-42-40_260595134347_rgbf000094-resize_1/000470_2014-06-09_19-42-40_260595134347_rgbf000094-resize_1-target.png,125,1.831,1,2343,125,feet,jsons/VE125_randls_43_rotated.json,557541,761069,25,Woman
149,263804,DepthScenes,duration_manipulation_targetAtFixation,jsons/VE125_randls_43_rotated.json,http://54.235.29.9/FacialAge/BNav_EC2/DepthDuration/v2_depth_duration_MTurk/v2_DepthDuration_HTML.html#365,365,1366,625,1366,768,9-3-2022,13-56-42,150,depth_duration_stimuli/002995_2014-06-15_12-31-26_094959634447_rgbf000150-resize_1/002995_2014-06-15_12-31-26_094959634447_rgbf000150-resize_1-target.png,125,3.8360000000000003,2,2623,114,feet,jsons/VE125_randls_43_rotated.json,557541,761069,25,Woman
150,263804,DepthScenes,duration_manipulation_targetAtFixation,jsons/VE125_randls_43_rotated.json,http://54.235.29.9/FacialAge/BNav_EC2/DepthDuration/v2_depth_duration_MTurk/v2_DepthDuration_HTML.html#365,365,1366,625,1366,768,9-3-2022,13-56-42,151,depth_duration_stimuli/002748_2014-06-22_19-07-22_094959634447_rgbf000078-resize_1/002748_2014-06-22_19-07-22_094959634447_rgbf000078-resize_1-target.png,125,4.6705,2,2954,137,feet,jsons/VE125_randls_43_rotated.json,557541,761069,25,Woman
151,263804,DepthScenes,duration_manipulation_targetAtFixation,jsons/VE125_randls_43_rotated.json,http://54.235.29.9/FacialAge/BNav_EC2/DepthDuration/v2_depth_duration_MTurk/v2_DepthDuration_HTML.html#365,365,1366,625,1366,768,9-3-2022,13-56-42,152,depth_duration_stimuli/000569_2014-06-09_22-51-47_260595134347_rgbf000141-resize_3/000569_2014-06-09_22-51-47_260595134347_rgbf000141-resize-original.jpg,125,4.512,1,2414,125,feet,jsons/VE125_randls_43_rotated.json,557541,761069,25,Woman
152,263804,DepthScenes,duration_manipulation_targetAtFixation,jsons/VE125_randls_43_rotated.json,http://54.235.29.9/FacialAge/BNav_EC2/DepthDuration/v2_depth_duration_MTurk/v2_DepthDuration_HTML.html#365,365,1366,625,1366,768,9-3-2022,13-56-42,153,depth_duration_stimuli/003587_2014-05-23_16-48-02_094959634447_rgbf002384-resize_2/003587_2014-05-23_16-48-02_094959634447_rgbf002384-resize_2-target.png,125,1.357,2,3092,132,feet,jsons/VE125_randls_43_rotated.json,557541,761069,25,Woman
153,263804,DepthScenes,duration_manipulation_targetAtFixation,jsons/VE125_randls_43_rotated.json,http://54.235.29.9/FacialAge/BNav_EC2/DepthDuration/v2_depth_duration_MTurk/v2_DepthDuration_HTML.html#365,365,1366,625,1366,768,9-3-2022,13-56-42,154,depth_duration_stimuli/001167_2014-06-17_15-38-07_260595134347_rgbf000108-resize_0/001167_2014-06-17_15-38-07_260595134347_rgbf000108-resize_0-target.png,125,1.8505,1,2343,147,feet,jsons/VE125_randls_43_rotated.json,557541,761069,25,Woman
154,263804,DepthScenes,duration_manipulation_targetAtFixation,jsons/VE125_randls_43_rotated.json,http://54.235.29.9/FacialAge/BNav_EC2/DepthDuration/v2_depth_duration_MTurk/v2_DepthDuration_HTML.html#365,365,1366,625,1366,768,9-3-2022,13-56-42,155,depth_duration_stimuli/002639_2014-06-24_14-51-37_094959634447_rgbf000074-resize_4/002639_2014-06-24_14-51-37_094959634447_rgbf000074-resize_4-target.png,125,4.0375,3,1960,141,feet,jsons/VE125_randls_43_rotated.json,557541,761069,25,Woman
155,263804,DepthScenes,duration_manipulation_targetAtFixation,jsons/VE125_randls_43_rotated.json,http://54.235.29.9/FacialAge/BNav_EC2/DepthDuration/v2_depth_duration_MTurk/v2_DepthDuration_HTML.html#365,365,1366,625,1366,768,9-3-2022,13-56-42,156,depth_duration_stimuli/003292_2014-05-14_21-53-49_094959634447_rgbf000100-resize_2/003292_2014-05-14_21-53-49_094959634447_rgbf000100-resize_2-target.png,125,3.4815,1,1920,115,feet,jsons/VE125_randls_43_rotated.json,557541,761069,25,Woman
156,263804,DepthScenes,duration_manipulation_targetAtFixation,jsons/VE125_randls_43_rotated.json,http://54.235.29.9/FacialAge/BNav_EC2/DepthDuration/v2_depth_duration_MTurk/v2_DepthDuration_HTML.html#365,365,1366,625,1366,768,9-3-2022,13-56-42,157,depth_duration_stimuli/002414_2014-06-28_20-24-58_260595134347_rgbf000067-resize_4/002414_2014-06-28_20-24-58_260595134347_rgbf000067-resize_4-target.png,125,4.363,32,2092,141,feet,jsons/VE125_randls_43_rotated.json,557541,761069,25,Woman
157,263804,DepthScenes,duration_manipulation_targetAtFixation,jsons/VE125_randls_43_rotated.json,http://54.235.29.9/FacialAge/BNav_EC2/DepthDuration/v2_depth_duration_MTurk/v2_DepthDuration_HTML.html#365,365,1366,625,1366,768,9-3-2022,13-56-42,158,depth_duration_stimuli/000773_2014-06-08_22-24-54_260595134347_rgbf000093-resize_1/000773_2014-06-08_22-24-54_260595134347_rgbf000093-resize_1-target.png,125,4.973,2,2894,125,feet,jsons/VE125_randls_43_rotated.json,557541,761069,25,Woman
158,263804,DepthScenes,duration_manipulation_targetAtFixation,jsons/VE125_randls_43_rotated.json,http://54.235.29.9/FacialAge/BNav_EC2/DepthDuration/v2_depth_duration_MTurk/v2_DepthDuration_HTML.html#365,365,1366,625,1366,768,9-3-2022,13-56-42,159,depth_duration_stimuli/000549_2014-06-08_22-10-24_260595134347_rgbf000247-resize_3/000549_2014-06-08_22-10-24_260595134347_rgbf000247-resize_3-target.png,125,1.841,1,2079,140,feet,jsons/VE125_randls_43_rotated.json,557541,761069,25,Woman
159,263804,DepthScenes,duration_manipulation_targetAtFixation,jsons/VE125_randls_43_rotated.json,http://54.235.29.9/FacialAge/BNav_EC2/DepthDuration/v2_depth_duration_MTurk/v2_DepthDuration_HTML.html#365,365,1366,625,1366,768,9-3-2022,13-56-42,160,depth_duration_stimuli/001055_2014-06-08_18-45-35_260595134347_rgbf000111-resize_4/001055_2014-06-08_18-45-35_260595134347_rgbf000111-resize_4-target.png,125,2.4290000000000003,1,3069,107,feet,jsons/VE125_randls_43_rotated.json,557541,761069,25,Woman
160,263804,DepthScenes,duration_manipulation_targetAtFixation,jsons/VE125_randls_43_rotated.json,http://54.235.29.9/FacialAge/BNav_EC2/DepthDuration/v2_depth_duration_MTurk/v2_DepthDuration_HTML.html#365,365,1366,625,1366,768,9-3-2022,13-56-42,161,depth_duration_stimuli/002678_2014-06-13_16-15-32_094959634447_rgbf000151-resize_6/002678_2014-06-13_16-15-32_094959634447_rgbf000151-resize_6-target.png,125,2.1830000000000003,2,2739,125,feet,jsons/VE125_randls_43_rotated.json,557541,761069,25,Woman
161,263804,DepthScenes,duration_manipulation_targetAtFixation,jsons/VE125_randls_43_rotated.json,http://54.235.29.9/FacialAge/BNav_EC2/DepthDuration/v2_depth_duration_MTurk/v2_DepthDuration_HTML.html#365,365,1366,625,1366,768,9-3-2022,13-56-42,162,depth_duration_stimuli/000368_2014-06-09_15-53-01_260595134347_rgbf000155-resize_2/000368_2014-06-09_15-53-01_260595134347_rgbf000155-resize_2-target.png,125,2.4859999999999998,3,4826,123,feet,jsons/VE125_randls_43_rotated.json,557541,761069,25,Woman
162,263804,DepthScenes,duration_manipulation_targetAtFixation,jsons/VE125_randls_43_rotated.json,http://54.235.29.9/FacialAge/BNav_EC2/DepthDuration/v2_depth_duration_MTurk/v2_DepthDuration_HTML.html#365,365,1366,625,1366,768,9-3-2022,13-56-42,163,depth_duration_stimuli/002545_2014-06-24_13-38-53_094959634447_rgbf000080-resize_4/002545_2014-06-24_13-38-53_094959634447_rgbf000080-resize_4-target.png,125,1.9205,2,2422,114,feet,jsons/VE125_randls_43_rotated.json,557541,761069,25,Woman
163,263804,DepthScenes,duration_manipulation_targetAtFixation,jsons/VE125_randls_43_rotated.json,http://54.235.29.9/FacialAge/BNav_EC2/DepthDuration/v2_depth_duration_MTurk/v2_DepthDuration_HTML.html#365,365,1366,625,1366,768,9-3-2022,13-56-42,164,depth_duration_stimuli/001092_2014-06-15_17-34-58_260595134347_rgbf000171-resize_3/001092_2014-06-15_17-34-58_260595134347_rgbf000171-resize_3-target.png,125,2.6935,2,2272,128,feet,jsons/VE125_randls_43_rotated.json,557541,761069,25,Woman
