,subjID,experimentName,versionName,sequenceName,url,selected_row,windowWidth,windowHeight,screenWidth,screenHeight,startDate,startTime,trial,stimulus,duration,actual_depth,depth_estimate,trial_RT,log_sceneDuration,unitSelection,seq_filepath,experimentTime,totalTime,age,gender
0,264704,DepthScenes,duration_manipulation_targetAtFixation,jsons/v1_VE250_randls_65.json,http://54.235.29.9/FacialAge/BNav_EC2/DepthDuration/v2_depth_duration_MTurk/v2_DepthDuration_HTML.html#168,168,1517,694,1366,768,9-4-2022,10-16-18,1,depth_duration_stimuli/001055_2014-06-08_18-45-35_260595134347_rgbf000111-resize_4/001055_2014-06-08_18-45-35_260595134347_rgbf000111-resize_4-target.png,250,2.4290000000000003,35,4940,249,meters,jsons/v1_VE250_randls_65.json,1763841,2332566,25,Man
1,264704,DepthScenes,duration_manipulation_targetAtFixation,jsons/v1_VE250_randls_65.json,http://54.235.29.9/FacialAge/BNav_EC2/DepthDuration/v2_depth_duration_MTurk/v2_DepthDuration_HTML.html#168,168,1517,694,1366,768,9-4-2022,10-16-18,2,depth_duration_stimuli/000549_2014-06-08_22-10-24_260595134347_rgbf000247-resize_3/000549_2014-06-08_22-10-24_260595134347_rgbf000247-resize_3-target.png,250,1.841,12,3526,248,meters,jsons/v1_VE250_randls_65.json,1763841,2332566,25,Man
2,264704,DepthScenes,duration_manipulation_targetAtFixation,jsons/v1_VE250_randls_65.json,http://54.235.29.9/FacialAge/BNav_EC2/DepthDuration/v2_depth_duration_MTurk/v2_DepthDuration_HTML.html#168,168,1517,694,1366,768,9-4-2022,10-16-18,3,depth_duration_stimuli/002057_2014-06-24_21-00-13_260595134347_rgbf000120-resize_1/002057_2014-06-24_21-00-13_260595134347_rgbf000120-resize_1-target.png,250,2.967,15,3859,250,meters,jsons/v1_VE250_randls_65.json,1763841,2332566,25,Man
3,264704,DepthScenes,duration_manipulation_targetAtFixation,jsons/v1_VE250_randls_65.json,http://54.235.29.9/FacialAge/BNav_EC2/DepthDuration/v2_depth_duration_MTurk/v2_DepthDuration_HTML.html#168,168,1517,694,1366,768,9-4-2022,10-16-18,4,depth_duration_stimuli/000709_2014-06-08_13-51-55_260595134347_rgbf000068-resize_3/000709_2014-06-08_13-51-55_260595134347_rgbf000068-resize_3-target.png,250,1.8030000000000002,38,5485,250,meters,jsons/v1_VE250_randls_65.json,1763841,2332566,25,Man
4,264704,DepthScenes,duration_manipulation_targetAtFixation,jsons/v1_VE250_randls_65.json,http://54.235.29.9/FacialAge/BNav_EC2/DepthDuration/v2_depth_duration_MTurk/v2_DepthDuration_HTML.html#168,168,1517,694,1366,768,9-4-2022,10-16-18,5,depth_duration_stimuli/002039_2014-06-24_20-22-38_260595134347_rgbf000084-resize_1/002039_2014-06-24_20-22-38_260595134347_rgbf000084-resize_1-target.png,250,4.408,45,4610,250,meters,jsons/v1_VE250_randls_65.json,1763841,2332566,25,Man
5,264704,DepthScenes,duration_manipulation_targetAtFixation,jsons/v1_VE250_randls_65.json,http://54.235.29.9/FacialAge/BNav_EC2/DepthDuration/v2_depth_duration_MTurk/v2_DepthDuration_HTML.html#168,168,1517,694,1366,768,9-4-2022,10-16-18,6,depth_duration_stimuli/002103_2014-06-25_20-00-40_260595134347_rgbf000049-resize_0/002103_2014-06-25_20-00-40_260595134347_rgbf000049-resize_0-target.png,250,4.105,45,4679,250,meters,jsons/v1_VE250_randls_65.json,1763841,2332566,25,Man
6,264704,DepthScenes,duration_manipulation_targetAtFixation,jsons/v1_VE250_randls_65.json,http://54.235.29.9/FacialAge/BNav_EC2/DepthDuration/v2_depth_duration_MTurk/v2_DepthDuration_HTML.html#168,168,1517,694,1366,768,9-4-2022,10-16-18,7,depth_duration_stimuli/001570_2014-06-20_17-21-09_260595134347_rgbf000135-resize_4/001570_2014-06-20_17-21-09_260595134347_rgbf000135-resize_4-target.png,250,4.467,50,3554,250,meters,jsons/v1_VE250_randls_65.json,1763841,2332566,25,Man
7,264704,DepthScenes,duration_manipulation_targetAtFixation,jsons/v1_VE250_randls_65.json,http://54.235.29.9/FacialAge/BNav_EC2/DepthDuration/v2_depth_duration_MTurk/v2_DepthDuration_HTML.html#168,168,1517,694,1366,768,9-4-2022,10-16-18,8,depth_duration_stimuli/001392_2014-06-19_16-07-59_260595134347_rgbf000046-resize_1/001392_2014-06-19_16-07-59_260595134347_rgbf000046-resize_1-target.png,250,4.135,35,4887,249,meters,jsons/v1_VE250_randls_65.json,1763841,2332566,25,Man
8,264704,DepthScenes,duration_manipulation_targetAtFixation,jsons/v1_VE250_randls_65.json,http://54.235.29.9/FacialAge/BNav_EC2/DepthDuration/v2_depth_duration_MTurk/v2_DepthDuration_HTML.html#168,168,1517,694,1366,768,9-4-2022,10-16-18,9,depth_duration_stimuli/000414_2014-06-04_19-49-13_260595134347_rgbf000044-resize_0/000414_2014-06-04_19-49-13_260595134347_rgbf000044-resize_0-target.png,250,4.329,25,8437,999,meters,jsons/v1_VE250_randls_65.json,1763841,2332566,25,Man
9,264704,DepthScenes,duration_manipulation_targetAtFixation,jsons/v1_VE250_randls_65.json,http://54.235.29.9/FacialAge/BNav_EC2/DepthDuration/v2_depth_duration_MTurk/v2_DepthDuration_HTML.html#168,168,1517,694,1366,768,9-4-2022,10-16-18,10,depth_duration_stimuli/003129_2014-05-12_10-48-10_094959634447_rgbf000100-resize_0/003129_2014-05-12_10-48-10_094959634447_rgbf000100-resize_0-target.png,250,4.9305,32,171140,249,meters,jsons/v1_VE250_randls_65.json,1763841,2332566,25,Man
10,264704,DepthScenes,duration_manipulation_targetAtFixation,jsons/v1_VE250_randls_65.json,http://54.235.29.9/FacialAge/BNav_EC2/DepthDuration/v2_depth_duration_MTurk/v2_DepthDuration_HTML.html#168,168,1517,694,1366,768,9-4-2022,10-16-18,11,depth_duration_stimuli/002272_2014-06-28_18-53-56_260595134347_rgbf000067-resize_2/002272_2014-06-28_18-53-56_260595134347_rgbf000067-resize_2-target.png,250,1.138,0,3393,250,meters,jsons/v1_VE250_randls_65.json,1763841,2332566,25,Man
11,264704,DepthScenes,duration_manipulation_targetAtFixation,jsons/v1_VE250_randls_65.json,http://54.235.29.9/FacialAge/BNav_EC2/DepthDuration/v2_depth_duration_MTurk/v2_DepthDuration_HTML.html#168,168,1517,694,1366,768,9-4-2022,10-16-18,12,depth_duration_stimuli/001571_2014-06-20_17-21-32_260595134347_rgbf000089-resize_1/001571_2014-06-20_17-21-32_260595134347_rgbf000089-resize_1-target.png,250,1.86,22,6055,249,meters,jsons/v1_VE250_randls_65.json,1763841,2332566,25,Man
12,264704,DepthScenes,duration_manipulation_targetAtFixation,jsons/v1_VE250_randls_65.json,http://54.235.29.9/FacialAge/BNav_EC2/DepthDuration/v2_depth_duration_MTurk/v2_DepthDuration_HTML.html#168,168,1517,694,1366,768,9-4-2022,10-16-18,13,depth_duration_stimuli/000569_2014-06-09_22-51-47_260595134347_rgbf000141-resize_3/000569_2014-06-09_22-51-47_260595134347_rgbf000141-resize-original.jpg,250,4.512,0,3111,251,meters,jsons/v1_VE250_randls_65.json,1763841,2332566,25,Man
13,264704,DepthScenes,duration_manipulation_targetAtFixation,jsons/v1_VE250_randls_65.json,http://54.235.29.9/FacialAge/BNav_EC2/DepthDuration/v2_depth_duration_MTurk/v2_DepthDuration_HTML.html#168,168,1517,694,1366,768,9-4-2022,10-16-18,14,depth_duration_stimuli/002153_2014-06-25_21-27-18_260595134347_rgbf000038-resize_5/002153_2014-06-25_21-27-18_260595134347_rgbf000038-resize_5-target.png,250,2.505,25,3426,251,meters,jsons/v1_VE250_randls_65.json,1763841,2332566,25,Man
14,264704,DepthScenes,duration_manipulation_targetAtFixation,jsons/v1_VE250_randls_65.json,http://54.235.29.9/FacialAge/BNav_EC2/DepthDuration/v2_depth_duration_MTurk/v2_DepthDuration_HTML.html#168,168,1517,694,1366,768,9-4-2022,10-16-18,15,depth_duration_stimuli/002660_2014-06-13_15-44-18_094959634447_rgbf001878-resize_2/002660_2014-06-13_15-44-18_094959634447_rgbf001878-resize_2-target.png,250,3.576,28,3717,251,meters,jsons/v1_VE250_randls_65.json,1763841,2332566,25,Man
15,264704,DepthScenes,duration_manipulation_targetAtFixation,jsons/v1_VE250_randls_65.json,http://54.235.29.9/FacialAge/BNav_EC2/DepthDuration/v2_depth_duration_MTurk/v2_DepthDuration_HTML.html#168,168,1517,694,1366,768,9-4-2022,10-16-18,16,depth_duration_stimuli/001056_2014-06-08_18-46-44_260595134347_rgbf000068-resize_0/001056_2014-06-08_18-46-44_260595134347_rgbf000068-resize_0-target.png,250,2.6625,32,3971,250,meters,jsons/v1_VE250_randls_65.json,1763841,2332566,25,Man
16,264704,DepthScenes,duration_manipulation_targetAtFixation,jsons/v1_VE250_randls_65.json,http://54.235.29.9/FacialAge/BNav_EC2/DepthDuration/v2_depth_duration_MTurk/v2_DepthDuration_HTML.html#168,168,1517,694,1366,768,9-4-2022,10-16-18,17,depth_duration_stimuli/002199_2014-06-28_18-33-56_260595134347_rgbf000074-resize_0/002199_2014-06-28_18-33-56_260595134347_rgbf000074-resize_0-target.png,250,1.996,10,3311,250,meters,jsons/v1_VE250_randls_65.json,1763841,2332566,25,Man
17,264704,DepthScenes,duration_manipulation_targetAtFixation,jsons/v1_VE250_randls_65.json,http://54.235.29.9/FacialAge/BNav_EC2/DepthDuration/v2_depth_duration_MTurk/v2_DepthDuration_HTML.html#168,168,1517,694,1366,768,9-4-2022,10-16-18,18,depth_duration_stimuli/000506_2014-06-08_23-21-00_260595134347_rgbf000070-resize_7/000506_2014-06-08_23-21-00_260595134347_rgbf000070-resize_7-target.png,250,4.0585,32,3451,251,meters,jsons/v1_VE250_randls_65.json,1763841,2332566,25,Man
18,264704,DepthScenes,duration_manipulation_targetAtFixation,jsons/v1_VE250_randls_65.json,http://54.235.29.9/FacialAge/BNav_EC2/DepthDuration/v2_depth_duration_MTurk/v2_DepthDuration_HTML.html#168,168,1517,694,1366,768,9-4-2022,10-16-18,19,depth_duration_stimuli/003079_2014-06-15_15-18-20_094959634447_rgbf000152-resize_8/003079_2014-06-15_15-18-20_094959634447_rgbf000152-resize_8-target.png,250,2.8775,42,3716,250,meters,jsons/v1_VE250_randls_65.json,1763841,2332566,25,Man
19,264704,DepthScenes,duration_manipulation_targetAtFixation,jsons/v1_VE250_randls_65.json,http://54.235.29.9/FacialAge/BNav_EC2/DepthDuration/v2_depth_duration_MTurk/v2_DepthDuration_HTML.html#168,168,1517,694,1366,768,9-4-2022,10-16-18,20,depth_duration_stimuli/001417_2014-06-19_16-25-36_260595134347_rgbf000115-resize_5/001417_2014-06-19_16-25-36_260595134347_rgbf000115-resize_5-target.png,250,4.6255,35,4418,251,meters,jsons/v1_VE250_randls_65.json,1763841,2332566,25,Man
20,264704,DepthScenes,duration_manipulation_targetAtFixation,jsons/v1_VE250_randls_65.json,http://54.235.29.9/FacialAge/BNav_EC2/DepthDuration/v2_depth_duration_MTurk/v2_DepthDuration_HTML.html#168,168,1517,694,1366,768,9-4-2022,10-16-18,21,depth_duration_stimuli/003081_2014-06-15_15-19-16_094959634447_rgbf000150-resize_1/003081_2014-06-15_15-19-16_094959634447_rgbf000150-resize_1-target.png,250,3.9125,32,3402,250,meters,jsons/v1_VE250_randls_65.json,1763841,2332566,25,Man
21,264704,DepthScenes,duration_manipulation_targetAtFixation,jsons/v1_VE250_randls_65.json,http://54.235.29.9/FacialAge/BNav_EC2/DepthDuration/v2_depth_duration_MTurk/v2_DepthDuration_HTML.html#168,168,1517,694,1366,768,9-4-2022,10-16-18,22,depth_duration_stimuli/001199_2014-06-17_16-03-48_260595134347_rgbf000077-resize_0/001199_2014-06-17_16-03-48_260595134347_rgbf000077-resize_0-target.png,250,3.4375,25,202870,251,meters,jsons/v1_VE250_randls_65.json,1763841,2332566,25,Man
22,264704,DepthScenes,duration_manipulation_targetAtFixation,jsons/v1_VE250_randls_65.json,http://54.235.29.9/FacialAge/BNav_EC2/DepthDuration/v2_depth_duration_MTurk/v2_DepthDuration_HTML.html#168,168,1517,694,1366,768,9-4-2022,10-16-18,23,depth_duration_stimuli/000502_2014-06-08_23-02-32_260595134347_rgbf000063-resize_4/000502_2014-06-08_23-02-32_260595134347_rgbf000063-resize_4-target.png,250,2.431,12,3555,249,meters,jsons/v1_VE250_randls_65.json,1763841,2332566,25,Man
23,264704,DepthScenes,duration_manipulation_targetAtFixation,jsons/v1_VE250_randls_65.json,http://54.235.29.9/FacialAge/BNav_EC2/DepthDuration/v2_depth_duration_MTurk/v2_DepthDuration_HTML.html#168,168,1517,694,1366,768,9-4-2022,10-16-18,24,depth_duration_stimuli/001175_2014-06-17_15-45-55_260595134347_rgbf000129-resize_4/001175_2014-06-17_15-45-55_260595134347_rgbf000129-resize_4-target.png,250,4.255,38,3314,251,meters,jsons/v1_VE250_randls_65.json,1763841,2332566,25,Man
24,264704,DepthScenes,duration_manipulation_targetAtFixation,jsons/v1_VE250_randls_65.json,http://54.235.29.9/FacialAge/BNav_EC2/DepthDuration/v2_depth_duration_MTurk/v2_DepthDuration_HTML.html#168,168,1517,694,1366,768,9-4-2022,10-16-18,25,depth_duration_stimuli/003490_2014-05-21_15-50-11_094959634447_rgbf000101-resize_3/003490_2014-05-21_15-50-11_094959634447_rgbf000101-resize_3-target.png,250,3.6445,42,3403,251,meters,jsons/v1_VE250_randls_65.json,1763841,2332566,25,Man
25,264704,DepthScenes,duration_manipulation_targetAtFixation,jsons/v1_VE250_randls_65.json,http://54.235.29.9/FacialAge/BNav_EC2/DepthDuration/v2_depth_duration_MTurk/v2_DepthDuration_HTML.html#168,168,1517,694,1366,768,9-4-2022,10-16-18,26,depth_duration_stimuli/002663_2014-06-13_15-50-26_094959634447_rgbf000075-resize_1/002663_2014-06-13_15-50-26_094959634447_rgbf000075-resize_1-target.png,250,4.7495,50,4043,251,meters,jsons/v1_VE250_randls_65.json,1763841,2332566,25,Man
26,264704,DepthScenes,duration_manipulation_targetAtFixation,jsons/v1_VE250_randls_65.json,http://54.235.29.9/FacialAge/BNav_EC2/DepthDuration/v2_depth_duration_MTurk/v2_DepthDuration_HTML.html#168,168,1517,694,1366,768,9-4-2022,10-16-18,27,depth_duration_stimuli/000409_2014-06-04_19-23-33_260595134347_rgbf000067-resize_0/000409_2014-06-04_19-23-33_260595134347_rgbf000067-resize_0-target.png,250,3.7335,25,7134,250,meters,jsons/v1_VE250_randls_65.json,1763841,2332566,25,Man
27,264704,DepthScenes,duration_manipulation_targetAtFixation,jsons/v1_VE250_randls_65.json,http://54.235.29.9/FacialAge/BNav_EC2/DepthDuration/v2_depth_duration_MTurk/v2_DepthDuration_HTML.html#168,168,1517,694,1366,768,9-4-2022,10-16-18,28,depth_duration_stimuli/000642_2014-06-08_16-59-25_260595134347_rgbf000098-resize_2/000642_2014-06-08_16-59-25_260595134347_rgbf000098-resize_2-target.png,250,2.8815,22,4528,251,meters,jsons/v1_VE250_randls_65.json,1763841,2332566,25,Man
28,264704,DepthScenes,duration_manipulation_targetAtFixation,jsons/v1_VE250_randls_65.json,http://54.235.29.9/FacialAge/BNav_EC2/DepthDuration/v2_depth_duration_MTurk/v2_DepthDuration_HTML.html#168,168,1517,694,1366,768,9-4-2022,10-16-18,29,depth_duration_stimuli/002425_2014-06-28_20-27-29_260595134347_rgbf000031-resize_8/002425_2014-06-28_20-27-29_260595134347_rgbf000031-resize_8-target.png,250,3.8960000000000004,12,4811,251,meters,jsons/v1_VE250_randls_65.json,1763841,2332566,25,Man
29,264704,DepthScenes,duration_manipulation_targetAtFixation,jsons/v1_VE250_randls_65.json,http://54.235.29.9/FacialAge/BNav_EC2/DepthDuration/v2_depth_duration_MTurk/v2_DepthDuration_HTML.html#168,168,1517,694,1366,768,9-4-2022,10-16-18,30,depth_duration_stimuli/000375_2014-06-08_11-17-29_260595134347_rgbf000133-resize_2/000375_2014-06-08_11-17-29_260595134347_rgbf000133-resize-original.jpg,250,4.718,0,3026,250,meters,jsons/v1_VE250_randls_65.json,1763841,2332566,25,Man
30,264704,DepthScenes,duration_manipulation_targetAtFixation,jsons/v1_VE250_randls_65.json,http://54.235.29.9/FacialAge/BNav_EC2/DepthDuration/v2_depth_duration_MTurk/v2_DepthDuration_HTML.html#168,168,1517,694,1366,768,9-4-2022,10-16-18,31,depth_duration_stimuli/001167_2014-06-17_15-38-07_260595134347_rgbf000108-resize_0/001167_2014-06-17_15-38-07_260595134347_rgbf000108-resize_0-target.png,250,1.8505,12,3819,250,meters,jsons/v1_VE250_randls_65.json,1763841,2332566,25,Man
31,264704,DepthScenes,duration_manipulation_targetAtFixation,jsons/v1_VE250_randls_65.json,http://54.235.29.9/FacialAge/BNav_EC2/DepthDuration/v2_depth_duration_MTurk/v2_DepthDuration_HTML.html#168,168,1517,694,1366,768,9-4-2022,10-16-18,32,depth_duration_stimuli/003587_2014-05-23_16-48-02_094959634447_rgbf002384-resize_2/003587_2014-05-23_16-48-02_094959634447_rgbf002384-resize_2-target.png,250,1.357,18,7064,250,meters,jsons/v1_VE250_randls_65.json,1763841,2332566,25,Man
32,264704,DepthScenes,duration_manipulation_targetAtFixation,jsons/v1_VE250_randls_65.json,http://54.235.29.9/FacialAge/BNav_EC2/DepthDuration/v2_depth_duration_MTurk/v2_DepthDuration_HTML.html#168,168,1517,694,1366,768,9-4-2022,10-16-18,33,depth_duration_stimuli/002279_2014-06-28_18-55-32_260595134347_rgbf000040-resize_5/002279_2014-06-28_18-55-32_260595134347_rgbf000040-resize_5-target.png,250,1.5043333333333,21,8069,250,meters,jsons/v1_VE250_randls_65.json,1763841,2332566,25,Man
33,264704,DepthScenes,duration_manipulation_targetAtFixation,jsons/v1_VE250_randls_65.json,http://54.235.29.9/FacialAge/BNav_EC2/DepthDuration/v2_depth_duration_MTurk/v2_DepthDuration_HTML.html#168,168,1517,694,1366,768,9-4-2022,10-16-18,34,depth_duration_stimuli/000635_2014-06-08_16-38-42_260595134347_rgbf000106-resize_1/000635_2014-06-08_16-38-42_260595134347_rgbf000106-resize_1-target.png,250,2.074,35,7587,251,meters,jsons/v1_VE250_randls_65.json,1763841,2332566,25,Man
34,264704,DepthScenes,duration_manipulation_targetAtFixation,jsons/v1_VE250_randls_65.json,http://54.235.29.9/FacialAge/BNav_EC2/DepthDuration/v2_depth_duration_MTurk/v2_DepthDuration_HTML.html#168,168,1517,694,1366,768,9-4-2022,10-16-18,35,depth_duration_stimuli/001164_2014-06-17_15-35-46_260595134347_rgbf000085-resize_3/001164_2014-06-17_15-35-46_260595134347_rgbf000085-resize_3-target.png,250,2.354,48,3626,250,meters,jsons/v1_VE250_randls_65.json,1763841,2332566,25,Man
35,264704,DepthScenes,duration_manipulation_targetAtFixation,jsons/v1_VE250_randls_65.json,http://54.235.29.9/FacialAge/BNav_EC2/DepthDuration/v2_depth_duration_MTurk/v2_DepthDuration_HTML.html#168,168,1517,694,1366,768,9-4-2022,10-16-18,36,depth_duration_stimuli/001136_2014-06-17_15-19-41_260595134347_rgbf000076-resize_3/001136_2014-06-17_15-19-41_260595134347_rgbf000076-resize_3-target.png,250,1.8655,38,3963,248,meters,jsons/v1_VE250_randls_65.json,1763841,2332566,25,Man
36,264704,DepthScenes,duration_manipulation_targetAtFixation,jsons/v1_VE250_randls_65.json,http://54.235.29.9/FacialAge/BNav_EC2/DepthDuration/v2_depth_duration_MTurk/v2_DepthDuration_HTML.html#168,168,1517,694,1366,768,9-4-2022,10-16-18,37,depth_duration_stimuli/002509_2014-06-24_13-19-22_094959634447_rgbf000077-resize_0/002509_2014-06-24_13-19-22_094959634447_rgbf000077-resize_0-target.png,250,1.3065,18,3795,249,meters,jsons/v1_VE250_randls_65.json,1763841,2332566,25,Man
37,264704,DepthScenes,duration_manipulation_targetAtFixation,jsons/v1_VE250_randls_65.json,http://54.235.29.9/FacialAge/BNav_EC2/DepthDuration/v2_depth_duration_MTurk/v2_DepthDuration_HTML.html#168,168,1517,694,1366,768,9-4-2022,10-16-18,38,depth_duration_stimuli/003338_2014-05-20_11-01-23_094959634447_rgbf000051-resize_6/003338_2014-05-20_11-01-23_094959634447_rgbf000051-resize_6-target.png,250,1.693,13,3374,249,meters,jsons/v1_VE250_randls_65.json,1763841,2332566,25,Man
38,264704,DepthScenes,duration_manipulation_targetAtFixation,jsons/v1_VE250_randls_65.json,http://54.235.29.9/FacialAge/BNav_EC2/DepthDuration/v2_depth_duration_MTurk/v2_DepthDuration_HTML.html#168,168,1517,694,1366,768,9-4-2022,10-16-18,39,depth_duration_stimuli/003070_2014-06-15_14-58-27_094959634447_rgbf000150-resize_3/003070_2014-06-15_14-58-27_094959634447_rgbf000150-resize_3-target.png,250,2.9415,25,3290,250,meters,jsons/v1_VE250_randls_65.json,1763841,2332566,25,Man
39,264704,DepthScenes,duration_manipulation_targetAtFixation,jsons/v1_VE250_randls_65.json,http://54.235.29.9/FacialAge/BNav_EC2/DepthDuration/v2_depth_duration_MTurk/v2_DepthDuration_HTML.html#168,168,1517,694,1366,768,9-4-2022,10-16-18,40,depth_duration_stimuli/000943_2014-06-09_19-31-07_260595134347_rgbf000128-resize_1/000943_2014-06-09_19-31-07_260595134347_rgbf000128-resize_1-target.png,250,1.9765,30,3089,248,meters,jsons/v1_VE250_randls_65.json,1763841,2332566,25,Man
40,264704,DepthScenes,duration_manipulation_targetAtFixation,jsons/v1_VE250_randls_65.json,http://54.235.29.9/FacialAge/BNav_EC2/DepthDuration/v2_depth_duration_MTurk/v2_DepthDuration_HTML.html#168,168,1517,694,1366,768,9-4-2022,10-16-18,41,depth_duration_stimuli/003292_2014-05-14_21-53-49_094959634447_rgbf000100-resize_2/003292_2014-05-14_21-53-49_094959634447_rgbf000100-resize_2-target.png,250,3.4815,40,5108,250,meters,jsons/v1_VE250_randls_65.json,1763841,2332566,25,Man
41,264704,DepthScenes,duration_manipulation_targetAtFixation,jsons/v1_VE250_randls_65.json,http://54.235.29.9/FacialAge/BNav_EC2/DepthDuration/v2_depth_duration_MTurk/v2_DepthDuration_HTML.html#168,168,1517,694,1366,768,9-4-2022,10-16-18,42,depth_duration_stimuli/002639_2014-06-24_14-51-37_094959634447_rgbf000074-resize_4/002639_2014-06-24_14-51-37_094959634447_rgbf000074-resize_4-target.png,250,4.0375,38,4332,250,meters,jsons/v1_VE250_randls_65.json,1763841,2332566,25,Man
42,264704,DepthScenes,duration_manipulation_targetAtFixation,jsons/v1_VE250_randls_65.json,http://54.235.29.9/FacialAge/BNav_EC2/DepthDuration/v2_depth_duration_MTurk/v2_DepthDuration_HTML.html#168,168,1517,694,1366,768,9-4-2022,10-16-18,43,depth_duration_stimuli/001449_2014-06-19_17-01-27_260595134347_rgbf000116-resize_2/001449_2014-06-19_17-01-27_260595134347_rgbf000116-resize_2-target.png,250,3.452,35,8956,250,meters,jsons/v1_VE250_randls_65.json,1763841,2332566,25,Man
43,264704,DepthScenes,duration_manipulation_targetAtFixation,jsons/v1_VE250_randls_65.json,http://54.235.29.9/FacialAge/BNav_EC2/DepthDuration/v2_depth_duration_MTurk/v2_DepthDuration_HTML.html#168,168,1517,694,1366,768,9-4-2022,10-16-18,44,depth_duration_stimuli/001450_2014-06-19_17-02-03_260595134347_rgbf000203-resize_4/001450_2014-06-19_17-02-03_260595134347_rgbf000203-resize_4-target.png,250,4.0106666666667,52,3793,251,meters,jsons/v1_VE250_randls_65.json,1763841,2332566,25,Man
44,264704,DepthScenes,duration_manipulation_targetAtFixation,jsons/v1_VE250_randls_65.json,http://54.235.29.9/FacialAge/BNav_EC2/DepthDuration/v2_depth_duration_MTurk/v2_DepthDuration_HTML.html#168,168,1517,694,1366,768,9-4-2022,10-16-18,45,depth_duration_stimuli/000787_2014-06-08_22-33-53_260595134347_rgbf000175-resize_1/000787_2014-06-08_22-33-53_260595134347_rgbf000175-resize-original.jpg,250,4.784,0,3138,248,meters,jsons/v1_VE250_randls_65.json,1763841,2332566,25,Man
45,264704,DepthScenes,duration_manipulation_targetAtFixation,jsons/v1_VE250_randls_65.json,http://54.235.29.9/FacialAge/BNav_EC2/DepthDuration/v2_depth_duration_MTurk/v2_DepthDuration_HTML.html#168,168,1517,694,1366,768,9-4-2022,10-16-18,46,depth_duration_stimuli/000368_2014-06-09_15-53-01_260595134347_rgbf000155-resize_2/000368_2014-06-09_15-53-01_260595134347_rgbf000155-resize_2-target.png,250,2.4859999999999998,18,3396,250,meters,jsons/v1_VE250_randls_65.json,1763841,2332566,25,Man
46,264704,DepthScenes,duration_manipulation_targetAtFixation,jsons/v1_VE250_randls_65.json,http://54.235.29.9/FacialAge/BNav_EC2/DepthDuration/v2_depth_duration_MTurk/v2_DepthDuration_HTML.html#168,168,1517,694,1366,768,9-4-2022,10-16-18,47,depth_duration_stimuli/002678_2014-06-13_16-15-32_094959634447_rgbf000151-resize_6/002678_2014-06-13_16-15-32_094959634447_rgbf000151-resize_6-target.png,250,2.1830000000000003,25,4206,250,meters,jsons/v1_VE250_randls_65.json,1763841,2332566,25,Man
47,264704,DepthScenes,duration_manipulation_targetAtFixation,jsons/v1_VE250_randls_65.json,http://54.235.29.9/FacialAge/BNav_EC2/DepthDuration/v2_depth_duration_MTurk/v2_DepthDuration_HTML.html#168,168,1517,694,1366,768,9-4-2022,10-16-18,48,depth_duration_stimuli/002213_2014-06-28_18-37-58_260595134347_rgbf000055-resize_1/002213_2014-06-28_18-37-58_260595134347_rgbf000055-resize_1-target.png,250,3.62,36,3895,250,meters,jsons/v1_VE250_randls_65.json,1763841,2332566,25,Man
48,264704,DepthScenes,duration_manipulation_targetAtFixation,jsons/v1_VE250_randls_65.json,http://54.235.29.9/FacialAge/BNav_EC2/DepthDuration/v2_depth_duration_MTurk/v2_DepthDuration_HTML.html#168,168,1517,694,1366,768,9-4-2022,10-16-18,49,depth_duration_stimuli/000691_2014-06-08_13-08-50_260595134347_rgbf000132-resize_3/000691_2014-06-08_13-08-50_260595134347_rgbf000132-resize_3-target.png,250,4.1530000000000005,32,3444,250,meters,jsons/v1_VE250_randls_65.json,1763841,2332566,25,Man
49,264704,DepthScenes,duration_manipulation_targetAtFixation,jsons/v1_VE250_randls_65.json,http://54.235.29.9/FacialAge/BNav_EC2/DepthDuration/v2_depth_duration_MTurk/v2_DepthDuration_HTML.html#168,168,1517,694,1366,768,9-4-2022,10-16-18,50,depth_duration_stimuli/002043_2014-06-24_20-29-38_260595134347_rgbf000039-resize_4/002043_2014-06-24_20-29-38_260595134347_rgbf000039-resize_4-target.png,250,2.8435,42,3378,250,meters,jsons/v1_VE250_randls_65.json,1763841,2332566,25,Man
50,264704,DepthScenes,duration_manipulation_targetAtFixation,jsons/v1_VE250_randls_65.json,http://54.235.29.9/FacialAge/BNav_EC2/DepthDuration/v2_depth_duration_MTurk/v2_DepthDuration_HTML.html#168,168,1517,694,1366,768,9-4-2022,10-16-18,51,depth_duration_stimuli/003048_2014-06-15_13-49-43_094959634447_rgbf000150-resize_1/003048_2014-06-15_13-49-43_094959634447_rgbf000150-resize_1-target.png,250,4.0035,58,3443,251,meters,jsons/v1_VE250_randls_65.json,1763841,2332566,25,Man
51,264704,DepthScenes,duration_manipulation_targetAtFixation,jsons/v1_VE250_randls_65.json,http://54.235.29.9/FacialAge/BNav_EC2/DepthDuration/v2_depth_duration_MTurk/v2_DepthDuration_HTML.html#168,168,1517,694,1366,768,9-4-2022,10-16-18,52,depth_duration_stimuli/001092_2014-06-15_17-34-58_260595134347_rgbf000171-resize_3/001092_2014-06-15_17-34-58_260595134347_rgbf000171-resize_3-target.png,250,2.6935,35,3435,251,meters,jsons/v1_VE250_randls_65.json,1763841,2332566,25,Man
52,264704,DepthScenes,duration_manipulation_targetAtFixation,jsons/v1_VE250_randls_65.json,http://54.235.29.9/FacialAge/BNav_EC2/DepthDuration/v2_depth_duration_MTurk/v2_DepthDuration_HTML.html#168,168,1517,694,1366,768,9-4-2022,10-16-18,53,depth_duration_stimuli/002545_2014-06-24_13-38-53_094959634447_rgbf000080-resize_4/002545_2014-06-24_13-38-53_094959634447_rgbf000080-resize_4-target.png,250,1.9205,25,3172,249,meters,jsons/v1_VE250_randls_65.json,1763841,2332566,25,Man
53,264704,DepthScenes,duration_manipulation_targetAtFixation,jsons/v1_VE250_randls_65.json,http://54.235.29.9/FacialAge/BNav_EC2/DepthDuration/v2_depth_duration_MTurk/v2_DepthDuration_HTML.html#168,168,1517,694,1366,768,9-4-2022,10-16-18,54,depth_duration_stimuli/002784_2014-06-22_19-26-30_094959634447_rgbf000083-resize_3/002784_2014-06-22_19-26-30_094959634447_rgbf000083-resize_3-target.png,250,1.8046666666667,18,4010,250,meters,jsons/v1_VE250_randls_65.json,1763841,2332566,25,Man
54,264704,DepthScenes,duration_manipulation_targetAtFixation,jsons/v1_VE250_randls_65.json,http://54.235.29.9/FacialAge/BNav_EC2/DepthDuration/v2_depth_duration_MTurk/v2_DepthDuration_HTML.html#168,168,1517,694,1366,768,9-4-2022,10-16-18,55,depth_duration_stimuli/001100_2014-06-15_17-46-26_260595134347_rgbf000225-resize_2/001100_2014-06-15_17-46-26_260595134347_rgbf000225-resize_2-target.png,250,2.24,32,13306,248,meters,jsons/v1_VE250_randls_65.json,1763841,2332566,25,Man
55,264704,DepthScenes,duration_manipulation_targetAtFixation,jsons/v1_VE250_randls_65.json,http://54.235.29.9/FacialAge/BNav_EC2/DepthDuration/v2_depth_duration_MTurk/v2_DepthDuration_HTML.html#168,168,1517,694,1366,768,9-4-2022,10-16-18,56,depth_duration_stimuli/000493_2014-06-09_21-01-18_260595134347_rgbf000196-resize_3/000493_2014-06-09_21-01-18_260595134347_rgbf000196-resize_3-target.png,250,3.44,42,3427,250,meters,jsons/v1_VE250_randls_65.json,1763841,2332566,25,Man
56,264704,DepthScenes,duration_manipulation_targetAtFixation,jsons/v1_VE250_randls_65.json,http://54.235.29.9/FacialAge/BNav_EC2/DepthDuration/v2_depth_duration_MTurk/v2_DepthDuration_HTML.html#168,168,1517,694,1366,768,9-4-2022,10-16-18,57,depth_duration_stimuli/000191_2014-05-12_17-07-38_260595134347_rgbf000199-resize_0/000191_2014-05-12_17-07-38_260595134347_rgbf000199-resize_0-target.png,250,3.7995,58,4148,250,meters,jsons/v1_VE250_randls_65.json,1763841,2332566,25,Man
57,264704,DepthScenes,duration_manipulation_targetAtFixation,jsons/v1_VE250_randls_65.json,http://54.235.29.9/FacialAge/BNav_EC2/DepthDuration/v2_depth_duration_MTurk/v2_DepthDuration_HTML.html#168,168,1517,694,1366,768,9-4-2022,10-16-18,58,depth_duration_stimuli/002964_2014-06-08_17-46-11_094959634447_rgbf000091-resize_4/002964_2014-06-08_17-46-11_094959634447_rgbf000091-resize_4-target.png,250,1.6909999999999998,8,3171,251,meters,jsons/v1_VE250_randls_65.json,1763841,2332566,25,Man
58,264704,DepthScenes,duration_manipulation_targetAtFixation,jsons/v1_VE250_randls_65.json,http://54.235.29.9/FacialAge/BNav_EC2/DepthDuration/v2_depth_duration_MTurk/v2_DepthDuration_HTML.html#168,168,1517,694,1366,768,9-4-2022,10-16-18,59,depth_duration_stimuli/002136_2014-06-25_21-18-03_260595134347_rgbf000109-resize_3/002136_2014-06-25_21-18-03_260595134347_rgbf000109-resize_3-target.png,250,1.9569999999999999,25,9844,250,meters,jsons/v1_VE250_randls_65.json,1763841,2332566,25,Man
59,264704,DepthScenes,duration_manipulation_targetAtFixation,jsons/v1_VE250_randls_65.json,http://54.235.29.9/FacialAge/BNav_EC2/DepthDuration/v2_depth_duration_MTurk/v2_DepthDuration_HTML.html#168,168,1517,694,1366,768,9-4-2022,10-16-18,60,depth_duration_stimuli/000009_2014-05-26_14-32-05_260595134347_rgbf000034-resize_3/000009_2014-05-26_14-32-05_260595134347_rgbf000034-resize_3-target.png,250,3.8715,30,9826,249,meters,jsons/v1_VE250_randls_65.json,1763841,2332566,25,Man
60,264704,DepthScenes,duration_manipulation_targetAtFixation,jsons/v1_VE250_randls_65.json,http://54.235.29.9/FacialAge/BNav_EC2/DepthDuration/v2_depth_duration_MTurk/v2_DepthDuration_HTML.html#168,168,1517,694,1366,768,9-4-2022,10-16-18,61,depth_duration_stimuli/001828_2014-06-26_21-40-03_260595134347_rgbf000024-resize_0/001828_2014-06-26_21-40-03_260595134347_rgbf000024-resize_0-target.png,250,4.8260000000000005,0,3483,251,meters,jsons/v1_VE250_randls_65.json,1763841,2332566,25,Man
61,264704,DepthScenes,duration_manipulation_targetAtFixation,jsons/v1_VE250_randls_65.json,http://54.235.29.9/FacialAge/BNav_EC2/DepthDuration/v2_depth_duration_MTurk/v2_DepthDuration_HTML.html#168,168,1517,694,1366,768,9-4-2022,10-16-18,62,depth_duration_stimuli/000736_2014-06-08_18-24-15_260595134347_rgbf000206-resize_3/000736_2014-06-08_18-24-15_260595134347_rgbf000206-resize_3-target.png,250,3.515,12,204358,250,meters,jsons/v1_VE250_randls_65.json,1763841,2332566,25,Man
62,264704,DepthScenes,duration_manipulation_targetAtFixation,jsons/v1_VE250_randls_65.json,http://54.235.29.9/FacialAge/BNav_EC2/DepthDuration/v2_depth_duration_MTurk/v2_DepthDuration_HTML.html#168,168,1517,694,1366,768,9-4-2022,10-16-18,63,depth_duration_stimuli/000137_2014-05-20_17-04-49_260595134347_rgbf000120-resize_1/000137_2014-05-20_17-04-49_260595134347_rgbf000120-resize_1-target.png,250,3.786,32,5758,249,meters,jsons/v1_VE250_randls_65.json,1763841,2332566,25,Man
63,264704,DepthScenes,duration_manipulation_targetAtFixation,jsons/v1_VE250_randls_65.json,http://54.235.29.9/FacialAge/BNav_EC2/DepthDuration/v2_depth_duration_MTurk/v2_DepthDuration_HTML.html#168,168,1517,694,1366,768,9-4-2022,10-16-18,64,depth_duration_stimuli/001244_2014-06-17_16-47-45_260595134347_rgbf000030-resize_4/001244_2014-06-17_16-47-45_260595134347_rgbf000030-resize_4-target.png,250,2.0425,25,3249,249,meters,jsons/v1_VE250_randls_65.json,1763841,2332566,25,Man
64,264704,DepthScenes,duration_manipulation_targetAtFixation,jsons/v1_VE250_randls_65.json,http://54.235.29.9/FacialAge/BNav_EC2/DepthDuration/v2_depth_duration_MTurk/v2_DepthDuration_HTML.html#168,168,1517,694,1366,768,9-4-2022,10-16-18,65,depth_duration_stimuli/003495_2014-05-21_16-01-51_094959634447_rgbf000100-resize_3/003495_2014-05-21_16-01-51_094959634447_rgbf000100-resize_3-target.png,250,1.6255,12,3851,251,meters,jsons/v1_VE250_randls_65.json,1763841,2332566,25,Man
65,264704,DepthScenes,duration_manipulation_targetAtFixation,jsons/v1_VE250_randls_65.json,http://54.235.29.9/FacialAge/BNav_EC2/DepthDuration/v2_depth_duration_MTurk/v2_DepthDuration_HTML.html#168,168,1517,694,1366,768,9-4-2022,10-16-18,66,depth_duration_stimuli/001222_2014-06-17_16-24-06_260595134347_rgbf000073-resize_0/001222_2014-06-17_16-24-06_260595134347_rgbf000073-resize-original.jpg,250,1.4385,0,2826,251,meters,jsons/v1_VE250_randls_65.json,1763841,2332566,25,Man
66,264704,DepthScenes,duration_manipulation_targetAtFixation,jsons/v1_VE250_randls_65.json,http://54.235.29.9/FacialAge/BNav_EC2/DepthDuration/v2_depth_duration_MTurk/v2_DepthDuration_HTML.html#168,168,1517,694,1366,768,9-4-2022,10-16-18,67,depth_duration_stimuli/002570_2014-06-24_13-59-54_094959634447_rgbf000059-resize_0/002570_2014-06-24_13-59-54_094959634447_rgbf000059-resize_0-target.png,250,4.037,14,5829,251,meters,jsons/v1_VE250_randls_65.json,1763841,2332566,25,Man
67,264704,DepthScenes,duration_manipulation_targetAtFixation,jsons/v1_VE250_randls_65.json,http://54.235.29.9/FacialAge/BNav_EC2/DepthDuration/v2_depth_duration_MTurk/v2_DepthDuration_HTML.html#168,168,1517,694,1366,768,9-4-2022,10-16-18,68,depth_duration_stimuli/002467_2014-06-28_20-38-07_260595134347_rgbf000026-resize_2/002467_2014-06-28_20-38-07_260595134347_rgbf000026-resize_2-target.png,250,4.742,20,3249,251,meters,jsons/v1_VE250_randls_65.json,1763841,2332566,25,Man
68,264704,DepthScenes,duration_manipulation_targetAtFixation,jsons/v1_VE250_randls_65.json,http://54.235.29.9/FacialAge/BNav_EC2/DepthDuration/v2_depth_duration_MTurk/v2_DepthDuration_HTML.html#168,168,1517,694,1366,768,9-4-2022,10-16-18,69,depth_duration_stimuli/002748_2014-06-22_19-07-22_094959634447_rgbf000078-resize_1/002748_2014-06-22_19-07-22_094959634447_rgbf000078-resize_1-target.png,250,4.6705,25,6541,249,meters,jsons/v1_VE250_randls_65.json,1763841,2332566,25,Man
69,264704,DepthScenes,duration_manipulation_targetAtFixation,jsons/v1_VE250_randls_65.json,http://54.235.29.9/FacialAge/BNav_EC2/DepthDuration/v2_depth_duration_MTurk/v2_DepthDuration_HTML.html#168,168,1517,694,1366,768,9-4-2022,10-16-18,70,depth_duration_stimuli/002995_2014-06-15_12-31-26_094959634447_rgbf000150-resize_1/002995_2014-06-15_12-31-26_094959634447_rgbf000150-resize_1-target.png,250,3.8360000000000003,32,3376,251,meters,jsons/v1_VE250_randls_65.json,1763841,2332566,25,Man
70,264704,DepthScenes,duration_manipulation_targetAtFixation,jsons/v1_VE250_randls_65.json,http://54.235.29.9/FacialAge/BNav_EC2/DepthDuration/v2_depth_duration_MTurk/v2_DepthDuration_HTML.html#168,168,1517,694,1366,768,9-4-2022,10-16-18,71,depth_duration_stimuli/001810_2014-06-26_20-51-35_260595134347_rgbf000040-resize_3/001810_2014-06-26_20-51-35_260595134347_rgbf000040-resize_3-target.png,250,2.2525,18,3771,251,meters,jsons/v1_VE250_randls_65.json,1763841,2332566,25,Man
71,264704,DepthScenes,duration_manipulation_targetAtFixation,jsons/v1_VE250_randls_65.json,http://54.235.29.9/FacialAge/BNav_EC2/DepthDuration/v2_depth_duration_MTurk/v2_DepthDuration_HTML.html#168,168,1517,694,1366,768,9-4-2022,10-16-18,72,depth_duration_stimuli/003010_2014-06-15_12-54-35_094959634447_rgbf000112-resize_0/003010_2014-06-15_12-54-35_094959634447_rgbf000112-resize_0-target.png,250,3.1185,38,3692,250,meters,jsons/v1_VE250_randls_65.json,1763841,2332566,25,Man
72,264704,DepthScenes,duration_manipulation_targetAtFixation,jsons/v1_VE250_randls_65.json,http://54.235.29.9/FacialAge/BNav_EC2/DepthDuration/v2_depth_duration_MTurk/v2_DepthDuration_HTML.html#168,168,1517,694,1366,768,9-4-2022,10-16-18,73,depth_duration_stimuli/002600_2014-06-24_14-27-04_094959634447_rgbf000074-resize_2/002600_2014-06-24_14-27-04_094959634447_rgbf000074-resize_2-target.png,250,2.7575,19,6129,249,meters,jsons/v1_VE250_randls_65.json,1763841,2332566,25,Man
73,264704,DepthScenes,duration_manipulation_targetAtFixation,jsons/v1_VE250_randls_65.json,http://54.235.29.9/FacialAge/BNav_EC2/DepthDuration/v2_depth_duration_MTurk/v2_DepthDuration_HTML.html#168,168,1517,694,1366,768,9-4-2022,10-16-18,74,depth_duration_stimuli/003228_2014-05-14_13-42-35_094959634447_rgbf000101-resize_1/003228_2014-05-14_13-42-35_094959634447_rgbf000101-resize_1-target.png,250,1.9680000000000002,24,6155,249,meters,jsons/v1_VE250_randls_65.json,1763841,2332566,25,Man
74,264704,DepthScenes,duration_manipulation_targetAtFixation,jsons/v1_VE250_randls_65.json,http://54.235.29.9/FacialAge/BNav_EC2/DepthDuration/v2_depth_duration_MTurk/v2_DepthDuration_HTML.html#168,168,1517,694,1366,768,9-4-2022,10-16-18,75,depth_duration_stimuli/001011_2014-06-08_23-18-54_260595134347_rgbf000044-resize_4/001011_2014-06-08_23-18-54_260595134347_rgbf000044-resize_4-target.png,250,2.4730000000000003,12,284363,249,meters,jsons/v1_VE250_randls_65.json,1763841,2332566,25,Man
75,264704,DepthScenes,duration_manipulation_targetAtFixation,jsons/v1_VE250_randls_65.json,http://54.235.29.9/FacialAge/BNav_EC2/DepthDuration/v2_depth_duration_MTurk/v2_DepthDuration_HTML.html#168,168,1517,694,1366,768,9-4-2022,10-16-18,76,depth_duration_stimuli/002875_2014-06-01_15-19-00_094959634447_rgbf000151-resize_1/002875_2014-06-01_15-19-00_094959634447_rgbf000151-resize_1-target.png,250,1.9675,28,3481,250,meters,jsons/v1_VE250_randls_65.json,1763841,2332566,25,Man
76,264704,DepthScenes,duration_manipulation_targetAtFixation,jsons/v1_VE250_randls_65.json,http://54.235.29.9/FacialAge/BNav_EC2/DepthDuration/v2_depth_duration_MTurk/v2_DepthDuration_HTML.html#168,168,1517,694,1366,768,9-4-2022,10-16-18,77,depth_duration_stimuli/000917_2014-06-09_22-45-29_260595134347_rgbf000149-resize_3/000917_2014-06-09_22-45-29_260595134347_rgbf000149-resize_3-target.png,250,4.1865,45,3538,249,meters,jsons/v1_VE250_randls_65.json,1763841,2332566,25,Man
77,264704,DepthScenes,duration_manipulation_targetAtFixation,jsons/v1_VE250_randls_65.json,http://54.235.29.9/FacialAge/BNav_EC2/DepthDuration/v2_depth_duration_MTurk/v2_DepthDuration_HTML.html#168,168,1517,694,1366,768,9-4-2022,10-16-18,78,depth_duration_stimuli/002323_2014-06-28_20-01-54_260595134347_rgbf000051-resize_4/002323_2014-06-28_20-01-54_260595134347_rgbf000051-resize_4-target.png,250,3.7310000000000003,40,9019,444,meters,jsons/v1_VE250_randls_65.json,1763841,2332566,25,Man
78,264704,DepthScenes,duration_manipulation_targetAtFixation,jsons/v1_VE250_randls_65.json,http://54.235.29.9/FacialAge/BNav_EC2/DepthDuration/v2_depth_duration_MTurk/v2_DepthDuration_HTML.html#168,168,1517,694,1366,768,9-4-2022,10-16-18,79,depth_duration_stimuli/001016_2014-06-09_16-16-10_260595134347_rgbf000112-resize_5/001016_2014-06-09_16-16-10_260595134347_rgbf000112-resize_5-target.png,250,1.6565,31,3621,251,meters,jsons/v1_VE250_randls_65.json,1763841,2332566,25,Man
79,264704,DepthScenes,duration_manipulation_targetAtFixation,jsons/v1_VE250_randls_65.json,http://54.235.29.9/FacialAge/BNav_EC2/DepthDuration/v2_depth_duration_MTurk/v2_DepthDuration_HTML.html#168,168,1517,694,1366,768,9-4-2022,10-16-18,80,depth_duration_stimuli/002340_2014-06-28_20-05-46_260595134347_rgbf000113-resize_0/002340_2014-06-28_20-05-46_260595134347_rgbf000113-resize_0-target.png,250,2.4735,32,3703,248,meters,jsons/v1_VE250_randls_65.json,1763841,2332566,25,Man
80,264704,DepthScenes,duration_manipulation_targetAtFixation,jsons/v1_VE250_randls_65.json,http://54.235.29.9/FacialAge/BNav_EC2/DepthDuration/v2_depth_duration_MTurk/v2_DepthDuration_HTML.html#168,168,1517,694,1366,768,9-4-2022,10-16-18,81,depth_duration_stimuli/000929_2014-06-09_16-33-19_260595134347_rgbf000139-resize_0/000929_2014-06-09_16-33-19_260595134347_rgbf000139-resize_0-target.png,250,2.8680000000000003,22,3139,249,meters,jsons/v1_VE250_randls_65.json,1763841,2332566,25,Man
81,264704,DepthScenes,duration_manipulation_targetAtFixation,jsons/v1_VE250_randls_65.json,http://54.235.29.9/FacialAge/BNav_EC2/DepthDuration/v2_depth_duration_MTurk/v2_DepthDuration_HTML.html#168,168,1517,694,1366,768,9-4-2022,10-16-18,82,depth_duration_stimuli/000457_2014-06-08_16-52-43_260595134347_rgbf000199-resize_1/000457_2014-06-08_16-52-43_260595134347_rgbf000199-resize_1-target.png,250,3.6489999999999996,35,5218,250,meters,jsons/v1_VE250_randls_65.json,1763841,2332566,25,Man
82,264704,DepthScenes,duration_manipulation_targetAtFixation,jsons/v1_VE250_randls_65.json,http://54.235.29.9/FacialAge/BNav_EC2/DepthDuration/v2_depth_duration_MTurk/v2_DepthDuration_HTML.html#168,168,1517,694,1366,768,9-4-2022,10-16-18,83,depth_duration_stimuli/001066_2014-06-08_22-03-20_260595134347_rgbf000066-resize_4/001066_2014-06-08_22-03-20_260595134347_rgbf000066-resize_4-target.png,250,4.2330000000000005,38,3043,250,meters,jsons/v1_VE250_randls_65.json,1763841,2332566,25,Man
83,264704,DepthScenes,duration_manipulation_targetAtFixation,jsons/v1_VE250_randls_65.json,http://54.235.29.9/FacialAge/BNav_EC2/DepthDuration/v2_depth_duration_MTurk/v2_DepthDuration_HTML.html#168,168,1517,694,1366,768,9-4-2022,10-16-18,84,depth_duration_stimuli/000742_2014-06-08_18-48-09_260595134347_rgbf000164-resize_4/000742_2014-06-08_18-48-09_260595134347_rgbf000164-resize_4-target.png,250,4.632,31,3642,251,meters,jsons/v1_VE250_randls_65.json,1763841,2332566,25,Man
84,264704,DepthScenes,duration_manipulation_targetAtFixation,jsons/v1_VE250_randls_65.json,http://54.235.29.9/FacialAge/BNav_EC2/DepthDuration/v2_depth_duration_MTurk/v2_DepthDuration_HTML.html#168,168,1517,694,1366,768,9-4-2022,10-16-18,85,depth_duration_stimuli/001555_2014-06-20_17-12-10_260595134347_rgbf000065-resize_4/001555_2014-06-20_17-12-10_260595134347_rgbf000065-resize_4-target.png,250,1.633,12,3131,249,meters,jsons/v1_VE250_randls_65.json,1763841,2332566,25,Man
85,264704,DepthScenes,duration_manipulation_targetAtFixation,jsons/v1_VE250_randls_65.json,http://54.235.29.9/FacialAge/BNav_EC2/DepthDuration/v2_depth_duration_MTurk/v2_DepthDuration_HTML.html#168,168,1517,694,1366,768,9-4-2022,10-16-18,86,depth_duration_stimuli/000103_2014-05-14_22-01-17_260595134347_rgbf000152-resize_5/000103_2014-05-14_22-01-17_260595134347_rgbf000152-resize_5-target.png,250,1.993,32,3458,248,meters,jsons/v1_VE250_randls_65.json,1763841,2332566,25,Man
86,264704,DepthScenes,duration_manipulation_targetAtFixation,jsons/v1_VE250_randls_65.json,http://54.235.29.9/FacialAge/BNav_EC2/DepthDuration/v2_depth_duration_MTurk/v2_DepthDuration_HTML.html#168,168,1517,694,1366,768,9-4-2022,10-16-18,87,depth_duration_stimuli/002788_2014-06-22_19-36-03_094959634447_rgbf000088-resize_2/002788_2014-06-22_19-36-03_094959634447_rgbf000088-resize_2-target.png,250,1.6465,28,3090,250,meters,jsons/v1_VE250_randls_65.json,1763841,2332566,25,Man
87,264704,DepthScenes,duration_manipulation_targetAtFixation,jsons/v1_VE250_randls_65.json,http://54.235.29.9/FacialAge/BNav_EC2/DepthDuration/v2_depth_duration_MTurk/v2_DepthDuration_HTML.html#168,168,1517,694,1366,768,9-4-2022,10-16-18,88,depth_duration_stimuli/000749_2014-06-08_21-55-06_260595134347_rgbf000070-resize_2/000749_2014-06-08_21-55-06_260595134347_rgbf000070-resize_2-target.png,250,2.331,12,3293,250,meters,jsons/v1_VE250_randls_65.json,1763841,2332566,25,Man
88,264704,DepthScenes,duration_manipulation_targetAtFixation,jsons/v1_VE250_randls_65.json,http://54.235.29.9/FacialAge/BNav_EC2/DepthDuration/v2_depth_duration_MTurk/v2_DepthDuration_HTML.html#168,168,1517,694,1366,768,9-4-2022,10-16-18,89,depth_duration_stimuli/001029_2014-06-08_13-17-57_260595134347_rgbf000065-resize_1/001029_2014-06-08_13-17-57_260595134347_rgbf000065-resize_1-target.png,250,3.0835,21,4402,250,meters,jsons/v1_VE250_randls_65.json,1763841,2332566,25,Man
89,264704,DepthScenes,duration_manipulation_targetAtFixation,jsons/v1_VE250_randls_65.json,http://54.235.29.9/FacialAge/BNav_EC2/DepthDuration/v2_depth_duration_MTurk/v2_DepthDuration_HTML.html#168,168,1517,694,1366,768,9-4-2022,10-16-18,90,depth_duration_stimuli/000677_2014-06-08_23-10-32_260595134347_rgbf000158-resize_6/000677_2014-06-08_23-10-32_260595134347_rgbf000158-resize_6-target.png,250,3.556,20,3154,249,meters,jsons/v1_VE250_randls_65.json,1763841,2332566,25,Man
90,264704,DepthScenes,duration_manipulation_targetAtFixation,jsons/v1_VE250_randls_65.json,http://54.235.29.9/FacialAge/BNav_EC2/DepthDuration/v2_depth_duration_MTurk/v2_DepthDuration_HTML.html#168,168,1517,694,1366,768,9-4-2022,10-16-18,91,depth_duration_stimuli/001150_2014-06-17_15-27-34_260595134347_rgbf000108-resize_2/001150_2014-06-17_15-27-34_260595134347_rgbf000108-resize_2-target.png,250,4.0325,34,5037,250,meters,jsons/v1_VE250_randls_65.json,1763841,2332566,25,Man
91,264704,DepthScenes,duration_manipulation_targetAtFixation,jsons/v1_VE250_randls_65.json,http://54.235.29.9/FacialAge/BNav_EC2/DepthDuration/v2_depth_duration_MTurk/v2_DepthDuration_HTML.html#168,168,1517,694,1366,768,9-4-2022,10-16-18,92,depth_duration_stimuli/000665_2014-06-09_20-42-35_260595134347_rgbf000110-resize_1/000665_2014-06-09_20-42-35_260595134347_rgbf000110-resize_1-target.png,250,3.057,23,4199,249,meters,jsons/v1_VE250_randls_65.json,1763841,2332566,25,Man
92,264704,DepthScenes,duration_manipulation_targetAtFixation,jsons/v1_VE250_randls_65.json,http://54.235.29.9/FacialAge/BNav_EC2/DepthDuration/v2_depth_duration_MTurk/v2_DepthDuration_HTML.html#168,168,1517,694,1366,768,9-4-2022,10-16-18,93,depth_duration_stimuli/000758_2014-06-08_22-05-08_260595134347_rgbf000085-resize_0/000758_2014-06-08_22-05-08_260595134347_rgbf000085-resize_0-target.png,250,3.3810000000000002,15,39480,773,meters,jsons/v1_VE250_randls_65.json,1763841,2332566,25,Man
93,264704,DepthScenes,duration_manipulation_targetAtFixation,jsons/v1_VE250_randls_65.json,http://54.235.29.9/FacialAge/BNav_EC2/DepthDuration/v2_depth_duration_MTurk/v2_DepthDuration_HTML.html#168,168,1517,694,1366,768,9-4-2022,10-16-18,94,depth_duration_stimuli/000854_2014-06-09_19-43-13_260595134347_rgbf000066-resize_0/000854_2014-06-09_19-43-13_260595134347_rgbf000066-resize_0-target.png,250,3.068,23,3486,251,meters,jsons/v1_VE250_randls_65.json,1763841,2332566,25,Man
94,264704,DepthScenes,duration_manipulation_targetAtFixation,jsons/v1_VE250_randls_65.json,http://54.235.29.9/FacialAge/BNav_EC2/DepthDuration/v2_depth_duration_MTurk/v2_DepthDuration_HTML.html#168,168,1517,694,1366,768,9-4-2022,10-16-18,95,depth_duration_stimuli/001133_2014-06-17_14-49-16_260595134347_rgbf000100-resize_0/001133_2014-06-17_14-49-16_260595134347_rgbf000100-resize_0-target.png,250,4.2115,15,4730,0,meters,jsons/v1_VE250_randls_65.json,1763841,2332566,25,Man
95,264704,DepthScenes,duration_manipulation_targetAtFixation,jsons/v1_VE250_randls_65.json,http://54.235.29.9/FacialAge/BNav_EC2/DepthDuration/v2_depth_duration_MTurk/v2_DepthDuration_HTML.html#168,168,1517,694,1366,768,9-4-2022,10-16-18,96,depth_duration_stimuli/001132_2014-06-17_14-48-54_260595134347_rgbf000100-resize_2/001132_2014-06-17_14-48-54_260595134347_rgbf000100-resize_2-target.png,250,3.753,28,3768,249,meters,jsons/v1_VE250_randls_65.json,1763841,2332566,25,Man
96,264704,DepthScenes,duration_manipulation_targetAtFixation,jsons/v1_VE250_randls_65.json,http://54.235.29.9/FacialAge/BNav_EC2/DepthDuration/v2_depth_duration_MTurk/v2_DepthDuration_HTML.html#168,168,1517,694,1366,768,9-4-2022,10-16-18,97,depth_duration_stimuli/000878_2014-06-08_22-52-45_260595134347_rgbf000045-resize_2/000878_2014-06-08_22-52-45_260595134347_rgbf000045-resize_2-target.png,250,2.092,29,4011,251,meters,jsons/v1_VE250_randls_65.json,1763841,2332566,25,Man
97,264704,DepthScenes,duration_manipulation_targetAtFixation,jsons/v1_VE250_randls_65.json,http://54.235.29.9/FacialAge/BNav_EC2/DepthDuration/v2_depth_duration_MTurk/v2_DepthDuration_HTML.html#168,168,1517,694,1366,768,9-4-2022,10-16-18,98,depth_duration_stimuli/002953_2014-06-08_17-32-18_094959634447_rgbf000059-resize_5/002953_2014-06-08_17-32-18_094959634447_rgbf000059-resize_5-target.png,250,1.551,12,3674,249,meters,jsons/v1_VE250_randls_65.json,1763841,2332566,25,Man
98,264704,DepthScenes,duration_manipulation_targetAtFixation,jsons/v1_VE250_randls_65.json,http://54.235.29.9/FacialAge/BNav_EC2/DepthDuration/v2_depth_duration_MTurk/v2_DepthDuration_HTML.html#168,168,1517,694,1366,768,9-4-2022,10-16-18,99,depth_duration_stimuli/001540_2014-06-20_17-01-05_260595134347_rgbf000086-resize_2/001540_2014-06-20_17-01-05_260595134347_rgbf000086-resize-original.jpg,250,1.459,0,3147,251,meters,jsons/v1_VE250_randls_65.json,1763841,2332566,25,Man
99,264704,DepthScenes,duration_manipulation_targetAtFixation,jsons/v1_VE250_randls_65.json,http://54.235.29.9/FacialAge/BNav_EC2/DepthDuration/v2_depth_duration_MTurk/v2_DepthDuration_HTML.html#168,168,1517,694,1366,768,9-4-2022,10-16-18,100,depth_duration_stimuli/000810_2014-06-08_17-20-01_260595134347_rgbf000105-resize_0/000810_2014-06-08_17-20-01_260595134347_rgbf000105-resize_0-target.png,250,1.4865,8,3803,251,meters,jsons/v1_VE250_randls_65.json,1763841,2332566,25,Man
100,264704,DepthScenes,duration_manipulation_targetAtFixation,jsons/v1_VE250_randls_65.json,http://54.235.29.9/FacialAge/BNav_EC2/DepthDuration/v2_depth_duration_MTurk/v2_DepthDuration_HTML.html#168,168,1517,694,1366,768,9-4-2022,10-16-18,101,depth_duration_stimuli/001214_2014-06-17_16-13-55_260595134347_rgbf000111-resize_0/001214_2014-06-17_16-13-55_260595134347_rgbf000111-resize_0-target.png,250,2.6505,5,3346,248,meters,jsons/v1_VE250_randls_65.json,1763841,2332566,25,Man
101,264704,DepthScenes,duration_manipulation_targetAtFixation,jsons/v1_VE250_randls_65.json,http://54.235.29.9/FacialAge/BNav_EC2/DepthDuration/v2_depth_duration_MTurk/v2_DepthDuration_HTML.html#168,168,1517,694,1366,768,9-4-2022,10-16-18,102,depth_duration_stimuli/001059_2014-06-08_21-53-27_260595134347_rgbf000061-resize_4/001059_2014-06-08_21-53-27_260595134347_rgbf000061-resize_4-target.png,250,2.4185,10,3330,249,meters,jsons/v1_VE250_randls_65.json,1763841,2332566,25,Man
102,264704,DepthScenes,duration_manipulation_targetAtFixation,jsons/v1_VE250_randls_65.json,http://54.235.29.9/FacialAge/BNav_EC2/DepthDuration/v2_depth_duration_MTurk/v2_DepthDuration_HTML.html#168,168,1517,694,1366,768,9-4-2022,10-16-18,103,depth_duration_stimuli/001032_2014-06-08_13-23-17_260595134347_rgbf000021-resize_3/001032_2014-06-08_13-23-17_260595134347_rgbf000021-resize_3-target.png,250,3.2725,12,3467,251,meters,jsons/v1_VE250_randls_65.json,1763841,2332566,25,Man
103,264704,DepthScenes,duration_manipulation_targetAtFixation,jsons/v1_VE250_randls_65.json,http://54.235.29.9/FacialAge/BNav_EC2/DepthDuration/v2_depth_duration_MTurk/v2_DepthDuration_HTML.html#168,168,1517,694,1366,768,9-4-2022,10-16-18,104,depth_duration_stimuli/000906_2014-06-08_13-35-43_260595134347_rgbf000155-resize_1/000906_2014-06-08_13-35-43_260595134347_rgbf000155-resize_1-target.png,250,2.8489999999999998,20,3251,251,meters,jsons/v1_VE250_randls_65.json,1763841,2332566,25,Man
104,264704,DepthScenes,duration_manipulation_targetAtFixation,jsons/v1_VE250_randls_65.json,http://54.235.29.9/FacialAge/BNav_EC2/DepthDuration/v2_depth_duration_MTurk/v2_DepthDuration_HTML.html#168,168,1517,694,1366,768,9-4-2022,10-16-18,105,depth_duration_stimuli/002805_2014-06-22_19-54-03_094959634447_rgbf000079-resize_1/002805_2014-06-22_19-54-03_094959634447_rgbf000079-resize_1-target.png,250,3.1439999999999997,30,3891,251,meters,jsons/v1_VE250_randls_65.json,1763841,2332566,25,Man
105,264704,DepthScenes,duration_manipulation_targetAtFixation,jsons/v1_VE250_randls_65.json,http://54.235.29.9/FacialAge/BNav_EC2/DepthDuration/v2_depth_duration_MTurk/v2_DepthDuration_HTML.html#168,168,1517,694,1366,768,9-4-2022,10-16-18,106,depth_duration_stimuli/001806_2014-06-26_20-50-20_260595134347_rgbf000091-resize_1/001806_2014-06-26_20-50-20_260595134347_rgbf000091-resize_1-target.png,250,2.7305,10,3251,250,meters,jsons/v1_VE250_randls_65.json,1763841,2332566,25,Man
106,264704,DepthScenes,duration_manipulation_targetAtFixation,jsons/v1_VE250_randls_65.json,http://54.235.29.9/FacialAge/BNav_EC2/DepthDuration/v2_depth_duration_MTurk/v2_DepthDuration_HTML.html#168,168,1517,694,1366,768,9-4-2022,10-16-18,107,depth_duration_stimuli/001617_2014-06-20_11-35-32_260595134347_rgbf000066-resize_1/001617_2014-06-20_11-35-32_260595134347_rgbf000066-resize_1-target.png,250,3.7910000000000004,30,5084,250,meters,jsons/v1_VE250_randls_65.json,1763841,2332566,25,Man
107,264704,DepthScenes,duration_manipulation_targetAtFixation,jsons/v1_VE250_randls_65.json,http://54.235.29.9/FacialAge/BNav_EC2/DepthDuration/v2_depth_duration_MTurk/v2_DepthDuration_HTML.html#168,168,1517,694,1366,768,9-4-2022,10-16-18,108,depth_duration_stimuli/003621_2014-05-23_18-06-08_094959634447_rgbf000101-resize_1/003621_2014-05-23_18-06-08_094959634447_rgbf000101-resize_1-target.png,250,3.9835,35,3730,251,meters,jsons/v1_VE250_randls_65.json,1763841,2332566,25,Man
108,264704,DepthScenes,duration_manipulation_targetAtFixation,jsons/v1_VE250_randls_65.json,http://54.235.29.9/FacialAge/BNav_EC2/DepthDuration/v2_depth_duration_MTurk/v2_DepthDuration_HTML.html#168,168,1517,694,1366,768,9-4-2022,10-16-18,109,depth_duration_stimuli/001584_2014-06-20_11-07-43_260595134347_rgbf000002-resize_1/001584_2014-06-20_11-07-43_260595134347_rgbf000002-resize_1-target.png,250,3.53,34,6932,249,meters,jsons/v1_VE250_randls_65.json,1763841,2332566,25,Man
109,264704,DepthScenes,duration_manipulation_targetAtFixation,jsons/v1_VE250_randls_65.json,http://54.235.29.9/FacialAge/BNav_EC2/DepthDuration/v2_depth_duration_MTurk/v2_DepthDuration_HTML.html#168,168,1517,694,1366,768,9-4-2022,10-16-18,110,depth_duration_stimuli/000447_2014-06-08_16-15-46_260595134347_rgbf000130-resize_1/000447_2014-06-08_16-15-46_260595134347_rgbf000130-resize_1-target.png,250,4.479,35,3311,250,meters,jsons/v1_VE250_randls_65.json,1763841,2332566,25,Man
110,264704,DepthScenes,duration_manipulation_targetAtFixation,jsons/v1_VE250_randls_65.json,http://54.235.29.9/FacialAge/BNav_EC2/DepthDuration/v2_depth_duration_MTurk/v2_DepthDuration_HTML.html#168,168,1517,694,1366,768,9-4-2022,10-16-18,111,depth_duration_stimuli/001447_2014-06-19_17-00-32_260595134347_rgbf000082-resize_5/001447_2014-06-19_17-00-32_260595134347_rgbf000082-resize_5-target.png,250,4.13775,25,4619,250,meters,jsons/v1_VE250_randls_65.json,1763841,2332566,25,Man
111,264704,DepthScenes,duration_manipulation_targetAtFixation,jsons/v1_VE250_randls_65.json,http://54.235.29.9/FacialAge/BNav_EC2/DepthDuration/v2_depth_duration_MTurk/v2_DepthDuration_HTML.html#168,168,1517,694,1366,768,9-4-2022,10-16-18,112,depth_duration_stimuli/002988_2014-06-15_12-24-20_094959634447_rgbf000150-resize_1/002988_2014-06-15_12-24-20_094959634447_rgbf000150-resize_1-target.png,250,4.7669999999999995,34,5009,249,meters,jsons/v1_VE250_randls_65.json,1763841,2332566,25,Man
112,264704,DepthScenes,duration_manipulation_targetAtFixation,jsons/v1_VE250_randls_65.json,http://54.235.29.9/FacialAge/BNav_EC2/DepthDuration/v2_depth_duration_MTurk/v2_DepthDuration_HTML.html#168,168,1517,694,1366,768,9-4-2022,10-16-18,113,depth_duration_stimuli/001052_2014-06-08_18-24-54_260595134347_rgbf000130-resize_1/001052_2014-06-08_18-24-54_260595134347_rgbf000130-resize_1-target.png,250,4.1045,28,6628,252,meters,jsons/v1_VE250_randls_65.json,1763841,2332566,25,Man
113,264704,DepthScenes,duration_manipulation_targetAtFixation,jsons/v1_VE250_randls_65.json,http://54.235.29.9/FacialAge/BNav_EC2/DepthDuration/v2_depth_duration_MTurk/v2_DepthDuration_HTML.html#168,168,1517,694,1366,768,9-4-2022,10-16-18,114,depth_duration_stimuli/001158_2014-06-17_15-32-16_260595134347_rgbf000138-resize_2/001158_2014-06-17_15-32-16_260595134347_rgbf000138-resize_2-target.png,250,4.5315,27,4721,250,meters,jsons/v1_VE250_randls_65.json,1763841,2332566,25,Man
114,264704,DepthScenes,duration_manipulation_targetAtFixation,jsons/v1_VE250_randls_65.json,http://54.235.29.9/FacialAge/BNav_EC2/DepthDuration/v2_depth_duration_MTurk/v2_DepthDuration_HTML.html#168,168,1517,694,1366,768,9-4-2022,10-16-18,115,depth_duration_stimuli/000556_2014-06-09_22-42-56_260595134347_rgbf000214-resize_1/000556_2014-06-09_22-42-56_260595134347_rgbf000214-resize_1-target.png,250,4.8415,38,3148,252,meters,jsons/v1_VE250_randls_65.json,1763841,2332566,25,Man
115,264704,DepthScenes,duration_manipulation_targetAtFixation,jsons/v1_VE250_randls_65.json,http://54.235.29.9/FacialAge/BNav_EC2/DepthDuration/v2_depth_duration_MTurk/v2_DepthDuration_HTML.html#168,168,1517,694,1366,768,9-4-2022,10-16-18,116,depth_duration_stimuli/001170_2014-06-17_15-43-44_260595134347_rgbf000096-resize_6/001170_2014-06-17_15-43-44_260595134347_rgbf000096-resize-original.jpg,250,1.1909999999999998,0,2826,251,meters,jsons/v1_VE250_randls_65.json,1763841,2332566,25,Man
116,264704,DepthScenes,duration_manipulation_targetAtFixation,jsons/v1_VE250_randls_65.json,http://54.235.29.9/FacialAge/BNav_EC2/DepthDuration/v2_depth_duration_MTurk/v2_DepthDuration_HTML.html#168,168,1517,694,1366,768,9-4-2022,10-16-18,117,depth_duration_stimuli/000773_2014-06-08_22-24-54_260595134347_rgbf000093-resize_1/000773_2014-06-08_22-24-54_260595134347_rgbf000093-resize_1-target.png,250,4.973,26,6401,249,meters,jsons/v1_VE250_randls_65.json,1763841,2332566,25,Man
117,264704,DepthScenes,duration_manipulation_targetAtFixation,jsons/v1_VE250_randls_65.json,http://54.235.29.9/FacialAge/BNav_EC2/DepthDuration/v2_depth_duration_MTurk/v2_DepthDuration_HTML.html#168,168,1517,694,1366,768,9-4-2022,10-16-18,118,depth_duration_stimuli/002414_2014-06-28_20-24-58_260595134347_rgbf000067-resize_4/002414_2014-06-28_20-24-58_260595134347_rgbf000067-resize_4-target.png,250,4.363,26,3084,251,meters,jsons/v1_VE250_randls_65.json,1763841,2332566,25,Man
118,264704,DepthScenes,duration_manipulation_targetAtFixation,jsons/v1_VE250_randls_65.json,http://54.235.29.9/FacialAge/BNav_EC2/DepthDuration/v2_depth_duration_MTurk/v2_DepthDuration_HTML.html#168,168,1517,694,1366,768,9-4-2022,10-16-18,119,depth_duration_stimuli/003534_2014-05-22_15-06-10_094959634447_rgbf000102-resize_4/003534_2014-05-22_15-06-10_094959634447_rgbf000102-resize_4-target.png,250,1.426,5,3335,251,meters,jsons/v1_VE250_randls_65.json,1763841,2332566,25,Man
119,264704,DepthScenes,duration_manipulation_targetAtFixation,jsons/v1_VE250_randls_65.json,http://54.235.29.9/FacialAge/BNav_EC2/DepthDuration/v2_depth_duration_MTurk/v2_DepthDuration_HTML.html#168,168,1517,694,1366,768,9-4-2022,10-16-18,120,depth_duration_stimuli/002637_2014-06-24_14-51-13_094959634447_rgbf000066-resize_4/002637_2014-06-24_14-51-13_094959634447_rgbf000066-resize_4-target.png,250,1.9955,18,4713,249,meters,jsons/v1_VE250_randls_65.json,1763841,2332566,25,Man
120,264704,DepthScenes,duration_manipulation_targetAtFixation,jsons/v1_VE250_randls_65.json,http://54.235.29.9/FacialAge/BNav_EC2/DepthDuration/v2_depth_duration_MTurk/v2_DepthDuration_HTML.html#168,168,1517,694,1366,768,9-4-2022,10-16-18,121,depth_duration_stimuli/002630_2014-06-24_14-47-50_094959634447_rgbf000055-resize_1/002630_2014-06-24_14-47-50_094959634447_rgbf000055-resize_1-target.png,250,3.0095,35,4703,249,meters,jsons/v1_VE250_randls_65.json,1763841,2332566,25,Man
121,264704,DepthScenes,duration_manipulation_targetAtFixation,jsons/v1_VE250_randls_65.json,http://54.235.29.9/FacialAge/BNav_EC2/DepthDuration/v2_depth_duration_MTurk/v2_DepthDuration_HTML.html#168,168,1517,694,1366,768,9-4-2022,10-16-18,122,depth_duration_stimuli/002758_2014-06-22_19-11-20_094959634447_rgbf000128-resize_1/002758_2014-06-22_19-11-20_094959634447_rgbf000128-resize_1-target.png,250,2.555,28,5271,249,meters,jsons/v1_VE250_randls_65.json,1763841,2332566,25,Man
122,264704,DepthScenes,duration_manipulation_targetAtFixation,jsons/v1_VE250_randls_65.json,http://54.235.29.9/FacialAge/BNav_EC2/DepthDuration/v2_depth_duration_MTurk/v2_DepthDuration_HTML.html#168,168,1517,694,1366,768,9-4-2022,10-16-18,123,depth_duration_stimuli/002118_2014-06-25_20-32-08_260595134347_rgbf000078-resize_1/002118_2014-06-25_20-32-08_260595134347_rgbf000078-resize_1-target.png,250,2.6460000000000004,0,96676,250,meters,jsons/v1_VE250_randls_65.json,1763841,2332566,25,Man
123,264704,DepthScenes,duration_manipulation_targetAtFixation,jsons/v1_VE250_randls_65.json,http://54.235.29.9/FacialAge/BNav_EC2/DepthDuration/v2_depth_duration_MTurk/v2_DepthDuration_HTML.html#168,168,1517,694,1366,768,9-4-2022,10-16-18,124,depth_duration_stimuli/001516_2014-06-20_16-25-09_260595134347_rgbf000076-resize_2/001516_2014-06-20_16-25-09_260595134347_rgbf000076-resize_2-target.png,250,1.7445,32,4749,248,meters,jsons/v1_VE250_randls_65.json,1763841,2332566,25,Man
124,264704,DepthScenes,duration_manipulation_targetAtFixation,jsons/v1_VE250_randls_65.json,http://54.235.29.9/FacialAge/BNav_EC2/DepthDuration/v2_depth_duration_MTurk/v2_DepthDuration_HTML.html#168,168,1517,694,1366,768,9-4-2022,10-16-18,125,depth_duration_stimuli/000739_2014-06-08_18-45-58_260595134347_rgbf000068-resize_1/000739_2014-06-08_18-45-58_260595134347_rgbf000068-resize_1-target.png,250,3.534,28,5152,249,meters,jsons/v1_VE250_randls_65.json,1763841,2332566,25,Man
125,264704,DepthScenes,duration_manipulation_targetAtFixation,jsons/v1_VE250_randls_65.json,http://54.235.29.9/FacialAge/BNav_EC2/DepthDuration/v2_depth_duration_MTurk/v2_DepthDuration_HTML.html#168,168,1517,694,1366,768,9-4-2022,10-16-18,126,depth_duration_stimuli/000734_2014-06-08_17-39-11_260595134347_rgbf000128-resize_2/000734_2014-06-08_17-39-11_260595134347_rgbf000128-resize_2-target.png,250,4.098,30,4160,250,meters,jsons/v1_VE250_randls_65.json,1763841,2332566,25,Man
126,264704,DepthScenes,duration_manipulation_targetAtFixation,jsons/v1_VE250_randls_65.json,http://54.235.29.9/FacialAge/BNav_EC2/DepthDuration/v2_depth_duration_MTurk/v2_DepthDuration_HTML.html#168,168,1517,694,1366,768,9-4-2022,10-16-18,127,depth_duration_stimuli/000692_2014-06-08_13-09-42_260595134347_rgbf000199-resize_2/000692_2014-06-08_13-09-42_260595134347_rgbf000199-resize_2-target.png,250,3.661,28,3472,250,meters,jsons/v1_VE250_randls_65.json,1763841,2332566,25,Man
127,264704,DepthScenes,duration_manipulation_targetAtFixation,jsons/v1_VE250_randls_65.json,http://54.235.29.9/FacialAge/BNav_EC2/DepthDuration/v2_depth_duration_MTurk/v2_DepthDuration_HTML.html#168,168,1517,694,1366,768,9-4-2022,10-16-18,128,depth_duration_stimuli/001094_2014-06-15_17-36-00_260595134347_rgbf000205-resize_0/001094_2014-06-15_17-36-00_260595134347_rgbf000205-resize_0-target.png,250,4.2175,25,5493,250,meters,jsons/v1_VE250_randls_65.json,1763841,2332566,25,Man
128,264704,DepthScenes,duration_manipulation_targetAtFixation,jsons/v1_VE250_randls_65.json,http://54.235.29.9/FacialAge/BNav_EC2/DepthDuration/v2_depth_duration_MTurk/v2_DepthDuration_HTML.html#168,168,1517,694,1366,768,9-4-2022,10-16-18,129,depth_duration_stimuli/000436_2014-06-09_22-25-11_260595134347_rgbf000137-resize_1/000436_2014-06-09_22-25-11_260595134347_rgbf000137-resize_1-target.png,250,4.0705,20,3643,251,meters,jsons/v1_VE250_randls_65.json,1763841,2332566,25,Man
129,264704,DepthScenes,duration_manipulation_targetAtFixation,jsons/v1_VE250_randls_65.json,http://54.235.29.9/FacialAge/BNav_EC2/DepthDuration/v2_depth_duration_MTurk/v2_DepthDuration_HTML.html#168,168,1517,694,1366,768,9-4-2022,10-16-18,130,depth_duration_stimuli/002444_2014-06-28_20-32-08_260595134347_rgbf000027-resize_0/002444_2014-06-28_20-32-08_260595134347_rgbf000027-resize_0-target.png,250,4.388999999999999,15,3237,251,meters,jsons/v1_VE250_randls_65.json,1763841,2332566,25,Man
130,264704,DepthScenes,duration_manipulation_targetAtFixation,jsons/v1_VE250_randls_65.json,http://54.235.29.9/FacialAge/BNav_EC2/DepthDuration/v2_depth_duration_MTurk/v2_DepthDuration_HTML.html#168,168,1517,694,1366,768,9-4-2022,10-16-18,131,depth_duration_stimuli/000486_2014-06-09_20-47-20_260595134347_rgbf000143-resize_2/000486_2014-06-09_20-47-20_260595134347_rgbf000143-resize_2-target.png,250,4.8325,16,3386,250,meters,jsons/v1_VE250_randls_65.json,1763841,2332566,25,Man
131,264704,DepthScenes,duration_manipulation_targetAtFixation,jsons/v1_VE250_randls_65.json,http://54.235.29.9/FacialAge/BNav_EC2/DepthDuration/v2_depth_duration_MTurk/v2_DepthDuration_HTML.html#168,168,1517,694,1366,768,9-4-2022,10-16-18,132,depth_duration_stimuli/003083_2014-06-15_15-21-03_094959634447_rgbf000063-resize_1/003083_2014-06-15_15-21-03_094959634447_rgbf000063-resize_1-target.png,250,4.1405,18,2995,251,meters,jsons/v1_VE250_randls_65.json,1763841,2332566,25,Man
132,264704,DepthScenes,duration_manipulation_targetAtFixation,jsons/v1_VE250_randls_65.json,http://54.235.29.9/FacialAge/BNav_EC2/DepthDuration/v2_depth_duration_MTurk/v2_DepthDuration_HTML.html#168,168,1517,694,1366,768,9-4-2022,10-16-18,133,depth_duration_stimuli/002549_2014-06-24_13-41-39_094959634447_rgbf000022-resize_3/002549_2014-06-24_13-41-39_094959634447_rgbf000022-resize_3-target.png,250,1.476,12,4550,251,meters,jsons/v1_VE250_randls_65.json,1763841,2332566,25,Man
133,264704,DepthScenes,duration_manipulation_targetAtFixation,jsons/v1_VE250_randls_65.json,http://54.235.29.9/FacialAge/BNav_EC2/DepthDuration/v2_depth_duration_MTurk/v2_DepthDuration_HTML.html#168,168,1517,694,1366,768,9-4-2022,10-16-18,134,depth_duration_stimuli/002750_2014-06-22_19-08-03_094959634447_rgbf000094-resize_4/002750_2014-06-22_19-08-03_094959634447_rgbf000094-resize_4-target.png,250,2.354,35,3913,250,meters,jsons/v1_VE250_randls_65.json,1763841,2332566,25,Man
134,264704,DepthScenes,duration_manipulation_targetAtFixation,jsons/v1_VE250_randls_65.json,http://54.235.29.9/FacialAge/BNav_EC2/DepthDuration/v2_depth_duration_MTurk/v2_DepthDuration_HTML.html#168,168,1517,694,1366,768,9-4-2022,10-16-18,135,depth_duration_stimuli/002072_2014-06-24_21-48-06_260595134347_rgbf000115-resize_0/002072_2014-06-24_21-48-06_260595134347_rgbf000115-resize-original.jpg,250,4.702,0,3117,250,meters,jsons/v1_VE250_randls_65.json,1763841,2332566,25,Man
135,264704,DepthScenes,duration_manipulation_targetAtFixation,jsons/v1_VE250_randls_65.json,http://54.235.29.9/FacialAge/BNav_EC2/DepthDuration/v2_depth_duration_MTurk/v2_DepthDuration_HTML.html#168,168,1517,694,1366,768,9-4-2022,10-16-18,136,depth_duration_stimuli/002989_2014-06-15_12-25-03_094959634447_rgbf000150-resize_3/002989_2014-06-15_12-25-03_094959634447_rgbf000150-resize_3-target.png,250,4.1975,28,3297,251,meters,jsons/v1_VE250_randls_65.json,1763841,2332566,25,Man
136,264704,DepthScenes,duration_manipulation_targetAtFixation,jsons/v1_VE250_randls_65.json,http://54.235.29.9/FacialAge/BNav_EC2/DepthDuration/v2_depth_duration_MTurk/v2_DepthDuration_HTML.html#168,168,1517,694,1366,768,9-4-2022,10-16-18,137,depth_duration_stimuli/000866_2014-06-09_20-45-42_260595134347_rgbf000139-resize_1/000866_2014-06-09_20-45-42_260595134347_rgbf000139-resize_1-target.png,250,3.2155,22,3469,251,meters,jsons/v1_VE250_randls_65.json,1763841,2332566,25,Man
137,264704,DepthScenes,duration_manipulation_targetAtFixation,jsons/v1_VE250_randls_65.json,http://54.235.29.9/FacialAge/BNav_EC2/DepthDuration/v2_depth_duration_MTurk/v2_DepthDuration_HTML.html#168,168,1517,694,1366,768,9-4-2022,10-16-18,138,depth_duration_stimuli/000788_2014-06-08_22-34-36_260595134347_rgbf000131-resize_1/000788_2014-06-08_22-34-36_260595134347_rgbf000131-resize_1-target.png,250,3.359,16,4115,250,meters,jsons/v1_VE250_randls_65.json,1763841,2332566,25,Man
138,264704,DepthScenes,duration_manipulation_targetAtFixation,jsons/v1_VE250_randls_65.json,http://54.235.29.9/FacialAge/BNav_EC2/DepthDuration/v2_depth_duration_MTurk/v2_DepthDuration_HTML.html#168,168,1517,694,1366,768,9-4-2022,10-16-18,139,depth_duration_stimuli/001235_2014-06-17_16-37-36_260595134347_rgbf000084-resize_4/001235_2014-06-17_16-37-36_260595134347_rgbf000084-resize_4-target.png,250,3.6605,18,3722,251,meters,jsons/v1_VE250_randls_65.json,1763841,2332566,25,Man
139,264704,DepthScenes,duration_manipulation_targetAtFixation,jsons/v1_VE250_randls_65.json,http://54.235.29.9/FacialAge/BNav_EC2/DepthDuration/v2_depth_duration_MTurk/v2_DepthDuration_HTML.html#168,168,1517,694,1366,768,9-4-2022,10-16-18,140,depth_duration_stimuli/002445_2014-06-28_20-32-16_260595134347_rgbf000029-resize_4/002445_2014-06-28_20-32-16_260595134347_rgbf000029-resize_4-target.png,250,2.5315,18,4425,250,meters,jsons/v1_VE250_randls_65.json,1763841,2332566,25,Man
140,264704,DepthScenes,duration_manipulation_targetAtFixation,jsons/v1_VE250_randls_65.json,http://54.235.29.9/FacialAge/BNav_EC2/DepthDuration/v2_depth_duration_MTurk/v2_DepthDuration_HTML.html#168,168,1517,694,1366,768,9-4-2022,10-16-18,141,depth_duration_stimuli/000780_2014-06-08_22-28-29_260595134347_rgbf000126-resize_1/000780_2014-06-08_22-28-29_260595134347_rgbf000126-resize_1-target.png,250,3.3825,25,3211,251,meters,jsons/v1_VE250_randls_65.json,1763841,2332566,25,Man
141,264704,DepthScenes,duration_manipulation_targetAtFixation,jsons/v1_VE250_randls_65.json,http://54.235.29.9/FacialAge/BNav_EC2/DepthDuration/v2_depth_duration_MTurk/v2_DepthDuration_HTML.html#168,168,1517,694,1366,768,9-4-2022,10-16-18,142,depth_duration_stimuli/002905_2014-06-03_18-04-43_094959634447_rgbf000151-resize_2/002905_2014-06-03_18-04-43_094959634447_rgbf000151-resize_2-target.png,250,2.0295,18,3415,251,meters,jsons/v1_VE250_randls_65.json,1763841,2332566,25,Man
142,264704,DepthScenes,duration_manipulation_targetAtFixation,jsons/v1_VE250_randls_65.json,http://54.235.29.9/FacialAge/BNav_EC2/DepthDuration/v2_depth_duration_MTurk/v2_DepthDuration_HTML.html#168,168,1517,694,1366,768,9-4-2022,10-16-18,143,depth_duration_stimuli/003423_2014-05-21_10-23-26_094959634447_rgbf002665-resize_2/003423_2014-05-21_10-23-26_094959634447_rgbf002665-resize_2-target.png,250,3.2575,20,2990,250,meters,jsons/v1_VE250_randls_65.json,1763841,2332566,25,Man
143,264704,DepthScenes,duration_manipulation_targetAtFixation,jsons/v1_VE250_randls_65.json,http://54.235.29.9/FacialAge/BNav_EC2/DepthDuration/v2_depth_duration_MTurk/v2_DepthDuration_HTML.html#168,168,1517,694,1366,768,9-4-2022,10-16-18,144,depth_duration_stimuli/000469_2014-06-09_19-42-10_260595134347_rgbf000081-resize_1/000469_2014-06-09_19-42-10_260595134347_rgbf000081-resize_1-target.png,250,1.652,15,4436,251,meters,jsons/v1_VE250_randls_65.json,1763841,2332566,25,Man
144,264704,DepthScenes,duration_manipulation_targetAtFixation,jsons/v1_VE250_randls_65.json,http://54.235.29.9/FacialAge/BNav_EC2/DepthDuration/v2_depth_duration_MTurk/v2_DepthDuration_HTML.html#168,168,1517,694,1366,768,9-4-2022,10-16-18,145,depth_duration_stimuli/000483_2014-06-09_20-41-45_260595134347_rgbf000116-resize_4/000483_2014-06-09_20-41-45_260595134347_rgbf000116-resize_4-target.png,250,1.337,8,3218,251,meters,jsons/v1_VE250_randls_65.json,1763841,2332566,25,Man
145,264704,DepthScenes,duration_manipulation_targetAtFixation,jsons/v1_VE250_randls_65.json,http://54.235.29.9/FacialAge/BNav_EC2/DepthDuration/v2_depth_duration_MTurk/v2_DepthDuration_HTML.html#168,168,1517,694,1366,768,9-4-2022,10-16-18,146,depth_duration_stimuli/001498_2014-06-19_17-45-14_260595134347_rgbf000129-resize_4/001498_2014-06-19_17-45-14_260595134347_rgbf000129-resize-original.jpg,250,1.4075,0,2734,251,meters,jsons/v1_VE250_randls_65.json,1763841,2332566,25,Man
146,264704,DepthScenes,duration_manipulation_targetAtFixation,jsons/v1_VE250_randls_65.json,http://54.235.29.9/FacialAge/BNav_EC2/DepthDuration/v2_depth_duration_MTurk/v2_DepthDuration_HTML.html#168,168,1517,694,1366,768,9-4-2022,10-16-18,147,depth_duration_stimuli/001110_2014-06-15_17-25-28_260595134347_rgbf000150-resize_1/001110_2014-06-15_17-25-28_260595134347_rgbf000150-resize_1-target.png,250,1.7115,12,3896,251,meters,jsons/v1_VE250_randls_65.json,1763841,2332566,25,Man
147,264704,DepthScenes,duration_manipulation_targetAtFixation,jsons/v1_VE250_randls_65.json,http://54.235.29.9/FacialAge/BNav_EC2/DepthDuration/v2_depth_duration_MTurk/v2_DepthDuration_HTML.html#168,168,1517,694,1366,768,9-4-2022,10-16-18,148,depth_duration_stimuli/000927_2014-06-09_16-32-30_260595134347_rgbf000123-resize_3/000927_2014-06-09_16-32-30_260595134347_rgbf000123-resize_3-target.png,250,2.6785,22,3697,250,meters,jsons/v1_VE250_randls_65.json,1763841,2332566,25,Man
148,264704,DepthScenes,duration_manipulation_targetAtFixation,jsons/v1_VE250_randls_65.json,http://54.235.29.9/FacialAge/BNav_EC2/DepthDuration/v2_depth_duration_MTurk/v2_DepthDuration_HTML.html#168,168,1517,694,1366,768,9-4-2022,10-16-18,149,depth_duration_stimuli/000470_2014-06-09_19-42-40_260595134347_rgbf000094-resize_1/000470_2014-06-09_19-42-40_260595134347_rgbf000094-resize_1-target.png,250,1.831,15,3701,250,meters,jsons/v1_VE250_randls_65.json,1763841,2332566,25,Man
149,264704,DepthScenes,duration_manipulation_targetAtFixation,jsons/v1_VE250_randls_65.json,http://54.235.29.9/FacialAge/BNav_EC2/DepthDuration/v2_depth_duration_MTurk/v2_DepthDuration_HTML.html#168,168,1517,694,1366,768,9-4-2022,10-16-18,150,depth_duration_stimuli/000109_2014-05-14_23-41-52_260595134347_rgbf000035-resize_9/000109_2014-05-14_23-41-52_260595134347_rgbf000035-resize_9-target.png,250,1.3545,7,5270,251,meters,jsons/v1_VE250_randls_65.json,1763841,2332566,25,Man
150,264704,DepthScenes,duration_manipulation_targetAtFixation,jsons/v1_VE250_randls_65.json,http://54.235.29.9/FacialAge/BNav_EC2/DepthDuration/v2_depth_duration_MTurk/v2_DepthDuration_HTML.html#168,168,1517,694,1366,768,9-4-2022,10-16-18,151,depth_duration_stimuli/001808_2014-06-26_20-50-58_260595134347_rgbf000029-resize_1/001808_2014-06-26_20-50-58_260595134347_rgbf000029-resize_1-target.png,250,4.249,16,7075,250,meters,jsons/v1_VE250_randls_65.json,1763841,2332566,25,Man
151,264704,DepthScenes,duration_manipulation_targetAtFixation,jsons/v1_VE250_randls_65.json,http://54.235.29.9/FacialAge/BNav_EC2/DepthDuration/v2_depth_duration_MTurk/v2_DepthDuration_HTML.html#168,168,1517,694,1366,768,9-4-2022,10-16-18,152,depth_duration_stimuli/001815_2014-06-26_20-52-55_260595134347_rgbf000020-resize_0/001815_2014-06-26_20-52-55_260595134347_rgbf000020-resize_0-target.png,250,3.3865,28,3293,249,meters,jsons/v1_VE250_randls_65.json,1763841,2332566,25,Man
152,264704,DepthScenes,duration_manipulation_targetAtFixation,jsons/v1_VE250_randls_65.json,http://54.235.29.9/FacialAge/BNav_EC2/DepthDuration/v2_depth_duration_MTurk/v2_DepthDuration_HTML.html#168,168,1517,694,1366,768,9-4-2022,10-16-18,153,depth_duration_stimuli/002763_2014-06-22_19-13-10_094959634447_rgbf000075-resize_4/002763_2014-06-22_19-13-10_094959634447_rgbf000075-resize_4-target.png,250,1.68375,18,3489,250,meters,jsons/v1_VE250_randls_65.json,1763841,2332566,25,Man
153,264704,DepthScenes,duration_manipulation_targetAtFixation,jsons/v1_VE250_randls_65.json,http://54.235.29.9/FacialAge/BNav_EC2/DepthDuration/v2_depth_duration_MTurk/v2_DepthDuration_HTML.html#168,168,1517,694,1366,768,9-4-2022,10-16-18,154,depth_duration_stimuli/002209_2014-06-28_18-36-10_260595134347_rgbf000051-resize_1/002209_2014-06-28_18-36-10_260595134347_rgbf000051-resize_1-target.png,250,2.057,25,4333,250,meters,jsons/v1_VE250_randls_65.json,1763841,2332566,25,Man
154,264704,DepthScenes,duration_manipulation_targetAtFixation,jsons/v1_VE250_randls_65.json,http://54.235.29.9/FacialAge/BNav_EC2/DepthDuration/v2_depth_duration_MTurk/v2_DepthDuration_HTML.html#168,168,1517,694,1366,768,9-4-2022,10-16-18,155,depth_duration_stimuli/002725_2014-06-22_11-47-51_094959634447_rgbf000070-resize_1/002725_2014-06-22_11-47-51_094959634447_rgbf000070-resize_1-target.png,250,2.195,20,3433,250,meters,jsons/v1_VE250_randls_65.json,1763841,2332566,25,Man
155,264704,DepthScenes,duration_manipulation_targetAtFixation,jsons/v1_VE250_randls_65.json,http://54.235.29.9/FacialAge/BNav_EC2/DepthDuration/v2_depth_duration_MTurk/v2_DepthDuration_HTML.html#168,168,1517,694,1366,768,9-4-2022,10-16-18,156,depth_duration_stimuli/002344_2014-06-28_20-06-29_260595134347_rgbf000030-resize_1/002344_2014-06-28_20-06-29_260595134347_rgbf000030-resize_1-target.png,250,1.5795,5,3180,251,meters,jsons/v1_VE250_randls_65.json,1763841,2332566,25,Man
156,264704,DepthScenes,duration_manipulation_targetAtFixation,jsons/v1_VE250_randls_65.json,http://54.235.29.9/FacialAge/BNav_EC2/DepthDuration/v2_depth_duration_MTurk/v2_DepthDuration_HTML.html#168,168,1517,694,1366,768,9-4-2022,10-16-18,157,depth_duration_stimuli/000682_2014-06-08_23-14-58_260595134347_rgbf000041-resize_5/000682_2014-06-08_23-14-58_260595134347_rgbf000041-resize_5-target.png,250,2.7239999999999998,12,3197,250,meters,jsons/v1_VE250_randls_65.json,1763841,2332566,25,Man
157,264704,DepthScenes,duration_manipulation_targetAtFixation,jsons/v1_VE250_randls_65.json,http://54.235.29.9/FacialAge/BNav_EC2/DepthDuration/v2_depth_duration_MTurk/v2_DepthDuration_HTML.html#168,168,1517,694,1366,768,9-4-2022,10-16-18,158,depth_duration_stimuli/001650_2014-06-20_12-09-00_260595134347_rgbf000087-resize_3/001650_2014-06-20_12-09-00_260595134347_rgbf000087-resize_3-target.png,250,1.9505,18,6360,250,meters,jsons/v1_VE250_randls_65.json,1763841,2332566,25,Man
158,264704,DepthScenes,duration_manipulation_targetAtFixation,jsons/v1_VE250_randls_65.json,http://54.235.29.9/FacialAge/BNav_EC2/DepthDuration/v2_depth_duration_MTurk/v2_DepthDuration_HTML.html#168,168,1517,694,1366,768,9-4-2022,10-16-18,159,depth_duration_stimuli/000522_2014-06-08_13-35-06_260595134347_rgbf000244-resize_1/000522_2014-06-08_13-35-06_260595134347_rgbf000244-resize_1-target.png,250,2.3715,8,3100,251,meters,jsons/v1_VE250_randls_65.json,1763841,2332566,25,Man
159,264704,DepthScenes,duration_manipulation_targetAtFixation,jsons/v1_VE250_randls_65.json,http://54.235.29.9/FacialAge/BNav_EC2/DepthDuration/v2_depth_duration_MTurk/v2_DepthDuration_HTML.html#168,168,1517,694,1366,768,9-4-2022,10-16-18,160,depth_duration_stimuli/002949_2014-06-26_15-57-42_094959634447_rgbf000079-resize_1/002949_2014-06-26_15-57-42_094959634447_rgbf000079-resize_1-target.png,250,1.8915,12,10914,250,meters,jsons/v1_VE250_randls_65.json,1763841,2332566,25,Man
160,264704,DepthScenes,duration_manipulation_targetAtFixation,jsons/v1_VE250_randls_65.json,http://54.235.29.9/FacialAge/BNav_EC2/DepthDuration/v2_depth_duration_MTurk/v2_DepthDuration_HTML.html#168,168,1517,694,1366,768,9-4-2022,10-16-18,161,depth_duration_stimuli/002375_2014-06-28_20-13-44_260595134347_rgbf000032-resize_1/002375_2014-06-28_20-13-44_260595134347_rgbf000032-resize_1-target.png,250,4.0175,15,3355,250,meters,jsons/v1_VE250_randls_65.json,1763841,2332566,25,Man
161,264704,DepthScenes,duration_manipulation_targetAtFixation,jsons/v1_VE250_randls_65.json,http://54.235.29.9/FacialAge/BNav_EC2/DepthDuration/v2_depth_duration_MTurk/v2_DepthDuration_HTML.html#168,168,1517,694,1366,768,9-4-2022,10-16-18,162,depth_duration_stimuli/002657_2014-06-13_15-29-54_094959634447_rgbf000150-resize_1/002657_2014-06-13_15-29-54_094959634447_rgbf000150-resize_1-target.png,250,4.919,15,4630,251,meters,jsons/v1_VE250_randls_65.json,1763841,2332566,25,Man
162,264704,DepthScenes,duration_manipulation_targetAtFixation,jsons/v1_VE250_randls_65.json,http://54.235.29.9/FacialAge/BNav_EC2/DepthDuration/v2_depth_duration_MTurk/v2_DepthDuration_HTML.html#168,168,1517,694,1366,768,9-4-2022,10-16-18,163,depth_duration_stimuli/003492_2014-05-21_15-50-55_094959634447_rgbf000828-resize_1/003492_2014-05-21_15-50-55_094959634447_rgbf000828-resize_1-target.png,250,4.06875,25,3209,250,meters,jsons/v1_VE250_randls_65.json,1763841,2332566,25,Man
163,264704,DepthScenes,duration_manipulation_targetAtFixation,jsons/v1_VE250_randls_65.json,http://54.235.29.9/FacialAge/BNav_EC2/DepthDuration/v2_depth_duration_MTurk/v2_DepthDuration_HTML.html#168,168,1517,694,1366,768,9-4-2022,10-16-18,164,depth_duration_stimuli/002568_2014-06-24_13-59-21_094959634447_rgbf000062-resize_4/002568_2014-06-24_13-59-21_094959634447_rgbf000062-resize_4-target.png,250,3.015,18,3107,250,meters,jsons/v1_VE250_randls_65.json,1763841,2332566,25,Man
