,subjID,experimentName,versionName,sequenceName,url,selected_row,windowWidth,windowHeight,screenWidth,screenHeight,startDate,startTime,trial,stimulus,duration,actual_depth,depth_estimate,trial_RT,log_sceneDuration,unitSelection,seq_filepath,experimentTime,totalTime,age,gender
0,266410,DepthScenes,duration_manipulation_targetAtFixation,jsons/v1_VE1000_randls_23_rotated.json,http://54.235.29.9/FacialAge/BNav_EC2/DepthDuration/v2_depth_duration_MTurk/v2_DepthDuration_HTML.html#216,216,1366,625,1366,768,9-18-2022,12-14-19,1,depth_duration_stimuli/002637_2014-06-24_14-51-13_094959634447_rgbf000066-resize_4/002637_2014-06-24_14-51-13_094959634447_rgbf000066-resize_4-target.png,1000,1.9955,3,4944,997,feet,jsons/v1_VE1000_randls_23_rotated.json,765019,931105,38,Woman
1,266410,DepthScenes,duration_manipulation_targetAtFixation,jsons/v1_VE1000_randls_23_rotated.json,http://54.235.29.9/FacialAge/BNav_EC2/DepthDuration/v2_depth_duration_MTurk/v2_DepthDuration_HTML.html#216,216,1366,625,1366,768,9-18-2022,12-14-19,2,depth_duration_stimuli/003534_2014-05-22_15-06-10_094959634447_rgbf000102-resize_4/003534_2014-05-22_15-06-10_094959634447_rgbf000102-resize_4-target.png,1000,1.426,1,4325,1005,feet,jsons/v1_VE1000_randls_23_rotated.json,765019,931105,38,Woman
2,266410,DepthScenes,duration_manipulation_targetAtFixation,jsons/v1_VE1000_randls_23_rotated.json,http://54.235.29.9/FacialAge/BNav_EC2/DepthDuration/v2_depth_duration_MTurk/v2_DepthDuration_HTML.html#216,216,1366,625,1366,768,9-18-2022,12-14-19,3,depth_duration_stimuli/000502_2014-06-08_23-02-32_260595134347_rgbf000063-resize_4/000502_2014-06-08_23-02-32_260595134347_rgbf000063-resize_4-target.png,1000,2.431,3,3919,997,feet,jsons/v1_VE1000_randls_23_rotated.json,765019,931105,38,Woman
3,266410,DepthScenes,duration_manipulation_targetAtFixation,jsons/v1_VE1000_randls_23_rotated.json,http://54.235.29.9/FacialAge/BNav_EC2/DepthDuration/v2_depth_duration_MTurk/v2_DepthDuration_HTML.html#216,216,1366,625,1366,768,9-18-2022,12-14-19,4,depth_duration_stimuli/001199_2014-06-17_16-03-48_260595134347_rgbf000077-resize_0/001199_2014-06-17_16-03-48_260595134347_rgbf000077-resize_0-target.png,1000,3.4375,7,4071,1000,feet,jsons/v1_VE1000_randls_23_rotated.json,765019,931105,38,Woman
4,266410,DepthScenes,duration_manipulation_targetAtFixation,jsons/v1_VE1000_randls_23_rotated.json,http://54.235.29.9/FacialAge/BNav_EC2/DepthDuration/v2_depth_duration_MTurk/v2_DepthDuration_HTML.html#216,216,1366,625,1366,768,9-18-2022,12-14-19,5,depth_duration_stimuli/001584_2014-06-20_11-07-43_260595134347_rgbf000002-resize_1/001584_2014-06-20_11-07-43_260595134347_rgbf000002-resize_1-target.png,1000,3.53,5,4590,992,feet,jsons/v1_VE1000_randls_23_rotated.json,765019,931105,38,Woman
5,266410,DepthScenes,duration_manipulation_targetAtFixation,jsons/v1_VE1000_randls_23_rotated.json,http://54.235.29.9/FacialAge/BNav_EC2/DepthDuration/v2_depth_duration_MTurk/v2_DepthDuration_HTML.html#216,216,1366,625,1366,768,9-18-2022,12-14-19,6,depth_duration_stimuli/003621_2014-05-23_18-06-08_094959634447_rgbf000101-resize_1/003621_2014-05-23_18-06-08_094959634447_rgbf000101-resize_1-target.png,1000,3.9835,8,4403,998,feet,jsons/v1_VE1000_randls_23_rotated.json,765019,931105,38,Woman
6,266410,DepthScenes,duration_manipulation_targetAtFixation,jsons/v1_VE1000_randls_23_rotated.json,http://54.235.29.9/FacialAge/BNav_EC2/DepthDuration/v2_depth_duration_MTurk/v2_DepthDuration_HTML.html#216,216,1366,625,1366,768,9-18-2022,12-14-19,7,depth_duration_stimuli/001392_2014-06-19_16-07-59_260595134347_rgbf000046-resize_1/001392_2014-06-19_16-07-59_260595134347_rgbf000046-resize_1-target.png,1000,4.135,7,5042,987,feet,jsons/v1_VE1000_randls_23_rotated.json,765019,931105,38,Woman
7,266410,DepthScenes,duration_manipulation_targetAtFixation,jsons/v1_VE1000_randls_23_rotated.json,http://54.235.29.9/FacialAge/BNav_EC2/DepthDuration/v2_depth_duration_MTurk/v2_DepthDuration_HTML.html#216,216,1366,625,1366,768,9-18-2022,12-14-19,8,depth_duration_stimuli/001570_2014-06-20_17-21-09_260595134347_rgbf000135-resize_4/001570_2014-06-20_17-21-09_260595134347_rgbf000135-resize_4-target.png,1000,4.467,7,3981,1000,feet,jsons/v1_VE1000_randls_23_rotated.json,765019,931105,38,Woman
8,266410,DepthScenes,duration_manipulation_targetAtFixation,jsons/v1_VE1000_randls_23_rotated.json,http://54.235.29.9/FacialAge/BNav_EC2/DepthDuration/v2_depth_duration_MTurk/v2_DepthDuration_HTML.html#216,216,1366,625,1366,768,9-18-2022,12-14-19,9,depth_duration_stimuli/001815_2014-06-26_20-52-55_260595134347_rgbf000020-resize_0/001815_2014-06-26_20-52-55_260595134347_rgbf000020-resize_0-target.png,1000,3.3865,8,4109,999,feet,jsons/v1_VE1000_randls_23_rotated.json,765019,931105,38,Woman
9,266410,DepthScenes,duration_manipulation_targetAtFixation,jsons/v1_VE1000_randls_23_rotated.json,http://54.235.29.9/FacialAge/BNav_EC2/DepthDuration/v2_depth_duration_MTurk/v2_DepthDuration_HTML.html#216,216,1366,625,1366,768,9-18-2022,12-14-19,10,depth_duration_stimuli/001808_2014-06-26_20-50-58_260595134347_rgbf000029-resize_1/001808_2014-06-26_20-50-58_260595134347_rgbf000029-resize_1-target.png,1000,4.249,7,4064,989,feet,jsons/v1_VE1000_randls_23_rotated.json,765019,931105,38,Woman
10,266410,DepthScenes,duration_manipulation_targetAtFixation,jsons/v1_VE1000_randls_23_rotated.json,http://54.235.29.9/FacialAge/BNav_EC2/DepthDuration/v2_depth_duration_MTurk/v2_DepthDuration_HTML.html#216,216,1366,625,1366,768,9-18-2022,12-14-19,11,depth_duration_stimuli/002995_2014-06-15_12-31-26_094959634447_rgbf000150-resize_1/002995_2014-06-15_12-31-26_094959634447_rgbf000150-resize_1-target.png,1000,3.8360000000000003,7,3615,997,feet,jsons/v1_VE1000_randls_23_rotated.json,765019,931105,38,Woman
11,266410,DepthScenes,duration_manipulation_targetAtFixation,jsons/v1_VE1000_randls_23_rotated.json,http://54.235.29.9/FacialAge/BNav_EC2/DepthDuration/v2_depth_duration_MTurk/v2_DepthDuration_HTML.html#216,216,1366,625,1366,768,9-18-2022,12-14-19,12,depth_duration_stimuli/002748_2014-06-22_19-07-22_094959634447_rgbf000078-resize_1/002748_2014-06-22_19-07-22_094959634447_rgbf000078-resize_1-target.png,1000,4.6705,9,3498,997,feet,jsons/v1_VE1000_randls_23_rotated.json,765019,931105,38,Woman
12,266410,DepthScenes,duration_manipulation_targetAtFixation,jsons/v1_VE1000_randls_23_rotated.json,http://54.235.29.9/FacialAge/BNav_EC2/DepthDuration/v2_depth_duration_MTurk/v2_DepthDuration_HTML.html#216,216,1366,625,1366,768,9-18-2022,12-14-19,13,depth_duration_stimuli/000549_2014-06-08_22-10-24_260595134347_rgbf000247-resize_3/000549_2014-06-08_22-10-24_260595134347_rgbf000247-resize_3-target.png,1000,1.841,2,4055,1000,feet,jsons/v1_VE1000_randls_23_rotated.json,765019,931105,38,Woman
13,266410,DepthScenes,duration_manipulation_targetAtFixation,jsons/v1_VE1000_randls_23_rotated.json,http://54.235.29.9/FacialAge/BNav_EC2/DepthDuration/v2_depth_duration_MTurk/v2_DepthDuration_HTML.html#216,216,1366,625,1366,768,9-18-2022,12-14-19,14,depth_duration_stimuli/001055_2014-06-08_18-45-35_260595134347_rgbf000111-resize_4/001055_2014-06-08_18-45-35_260595134347_rgbf000111-resize_4-target.png,1000,2.4290000000000003,3,3753,1007,feet,jsons/v1_VE1000_randls_23_rotated.json,765019,931105,38,Woman
14,266410,DepthScenes,duration_manipulation_targetAtFixation,jsons/v1_VE1000_randls_23_rotated.json,http://54.235.29.9/FacialAge/BNav_EC2/DepthDuration/v2_depth_duration_MTurk/v2_DepthDuration_HTML.html#216,216,1366,625,1366,768,9-18-2022,12-14-19,15,depth_duration_stimuli/001571_2014-06-20_17-21-32_260595134347_rgbf000089-resize_1/001571_2014-06-20_17-21-32_260595134347_rgbf000089-resize_1-target.png,1000,1.86,2,3928,1004,feet,jsons/v1_VE1000_randls_23_rotated.json,765019,931105,38,Woman
15,266410,DepthScenes,duration_manipulation_targetAtFixation,jsons/v1_VE1000_randls_23_rotated.json,http://54.235.29.9/FacialAge/BNav_EC2/DepthDuration/v2_depth_duration_MTurk/v2_DepthDuration_HTML.html#216,216,1366,625,1366,768,9-18-2022,12-14-19,16,depth_duration_stimuli/002272_2014-06-28_18-53-56_260595134347_rgbf000067-resize_2/002272_2014-06-28_18-53-56_260595134347_rgbf000067-resize_2-target.png,1000,1.138,1,3682,988,feet,jsons/v1_VE1000_randls_23_rotated.json,765019,931105,38,Woman
16,266410,DepthScenes,duration_manipulation_targetAtFixation,jsons/v1_VE1000_randls_23_rotated.json,http://54.235.29.9/FacialAge/BNav_EC2/DepthDuration/v2_depth_duration_MTurk/v2_DepthDuration_HTML.html#216,216,1366,625,1366,768,9-18-2022,12-14-19,17,depth_duration_stimuli/001516_2014-06-20_16-25-09_260595134347_rgbf000076-resize_2/001516_2014-06-20_16-25-09_260595134347_rgbf000076-resize_2-target.png,1000,1.7445,2,4146,999,feet,jsons/v1_VE1000_randls_23_rotated.json,765019,931105,38,Woman
17,266410,DepthScenes,duration_manipulation_targetAtFixation,jsons/v1_VE1000_randls_23_rotated.json,http://54.235.29.9/FacialAge/BNav_EC2/DepthDuration/v2_depth_duration_MTurk/v2_DepthDuration_HTML.html#216,216,1366,625,1366,768,9-18-2022,12-14-19,18,depth_duration_stimuli/002118_2014-06-25_20-32-08_260595134347_rgbf000078-resize_1/002118_2014-06-25_20-32-08_260595134347_rgbf000078-resize_1-target.png,1000,2.6460000000000004,4,3787,1011,feet,jsons/v1_VE1000_randls_23_rotated.json,765019,931105,38,Woman
18,266410,DepthScenes,duration_manipulation_targetAtFixation,jsons/v1_VE1000_randls_23_rotated.json,http://54.235.29.9/FacialAge/BNav_EC2/DepthDuration/v2_depth_duration_MTurk/v2_DepthDuration_HTML.html#216,216,1366,625,1366,768,9-18-2022,12-14-19,19,depth_duration_stimuli/001498_2014-06-19_17-45-14_260595134347_rgbf000129-resize_4/001498_2014-06-19_17-45-14_260595134347_rgbf000129-resize-original.jpg,1000,1.4075,0,5128,1011,feet,jsons/v1_VE1000_randls_23_rotated.json,765019,931105,38,Woman
19,266410,DepthScenes,duration_manipulation_targetAtFixation,jsons/v1_VE1000_randls_23_rotated.json,http://54.235.29.9/FacialAge/BNav_EC2/DepthDuration/v2_depth_duration_MTurk/v2_DepthDuration_HTML.html#216,216,1366,625,1366,768,9-18-2022,12-14-19,20,depth_duration_stimuli/000866_2014-06-09_20-45-42_260595134347_rgbf000139-resize_1/000866_2014-06-09_20-45-42_260595134347_rgbf000139-resize_1-target.png,1000,3.2155,3,3891,995,feet,jsons/v1_VE1000_randls_23_rotated.json,765019,931105,38,Woman
20,266410,DepthScenes,duration_manipulation_targetAtFixation,jsons/v1_VE1000_randls_23_rotated.json,http://54.235.29.9/FacialAge/BNav_EC2/DepthDuration/v2_depth_duration_MTurk/v2_DepthDuration_HTML.html#216,216,1366,625,1366,768,9-18-2022,12-14-19,21,depth_duration_stimuli/002989_2014-06-15_12-25-03_094959634447_rgbf000150-resize_3/002989_2014-06-15_12-25-03_094959634447_rgbf000150-resize_3-target.png,1000,4.1975,6,3887,995,feet,jsons/v1_VE1000_randls_23_rotated.json,765019,931105,38,Woman
21,266410,DepthScenes,duration_manipulation_targetAtFixation,jsons/v1_VE1000_randls_23_rotated.json,http://54.235.29.9/FacialAge/BNav_EC2/DepthDuration/v2_depth_duration_MTurk/v2_DepthDuration_HTML.html#216,216,1366,625,1366,768,9-18-2022,12-14-19,22,depth_duration_stimuli/000691_2014-06-08_13-08-50_260595134347_rgbf000132-resize_3/000691_2014-06-08_13-08-50_260595134347_rgbf000132-resize_3-target.png,1000,4.1530000000000005,5,3994,988,feet,jsons/v1_VE1000_randls_23_rotated.json,765019,931105,38,Woman
22,266410,DepthScenes,duration_manipulation_targetAtFixation,jsons/v1_VE1000_randls_23_rotated.json,http://54.235.29.9/FacialAge/BNav_EC2/DepthDuration/v2_depth_duration_MTurk/v2_DepthDuration_HTML.html#216,216,1366,625,1366,768,9-18-2022,12-14-19,23,depth_duration_stimuli/002213_2014-06-28_18-37-58_260595134347_rgbf000055-resize_1/002213_2014-06-28_18-37-58_260595134347_rgbf000055-resize_1-target.png,1000,3.62,7,3535,996,feet,jsons/v1_VE1000_randls_23_rotated.json,765019,931105,38,Woman
23,266410,DepthScenes,duration_manipulation_targetAtFixation,jsons/v1_VE1000_randls_23_rotated.json,http://54.235.29.9/FacialAge/BNav_EC2/DepthDuration/v2_depth_duration_MTurk/v2_DepthDuration_HTML.html#216,216,1366,625,1366,768,9-18-2022,12-14-19,24,depth_duration_stimuli/001136_2014-06-17_15-19-41_260595134347_rgbf000076-resize_3/001136_2014-06-17_15-19-41_260595134347_rgbf000076-resize_3-target.png,1000,1.8655,5,3878,991,feet,jsons/v1_VE1000_randls_23_rotated.json,765019,931105,38,Woman
24,266410,DepthScenes,duration_manipulation_targetAtFixation,jsons/v1_VE1000_randls_23_rotated.json,http://54.235.29.9/FacialAge/BNav_EC2/DepthDuration/v2_depth_duration_MTurk/v2_DepthDuration_HTML.html#216,216,1366,625,1366,768,9-18-2022,12-14-19,25,depth_duration_stimuli/001164_2014-06-17_15-35-46_260595134347_rgbf000085-resize_3/001164_2014-06-17_15-35-46_260595134347_rgbf000085-resize_3-target.png,1000,2.354,4,3790,994,feet,jsons/v1_VE1000_randls_23_rotated.json,765019,931105,38,Woman
25,266410,DepthScenes,duration_manipulation_targetAtFixation,jsons/v1_VE1000_randls_23_rotated.json,http://54.235.29.9/FacialAge/BNav_EC2/DepthDuration/v2_depth_duration_MTurk/v2_DepthDuration_HTML.html#216,216,1366,625,1366,768,9-18-2022,12-14-19,26,depth_duration_stimuli/000103_2014-05-14_22-01-17_260595134347_rgbf000152-resize_5/000103_2014-05-14_22-01-17_260595134347_rgbf000152-resize_5-target.png,1000,1.993,4,3736,1010,feet,jsons/v1_VE1000_randls_23_rotated.json,765019,931105,38,Woman
26,266410,DepthScenes,duration_manipulation_targetAtFixation,jsons/v1_VE1000_randls_23_rotated.json,http://54.235.29.9/FacialAge/BNav_EC2/DepthDuration/v2_depth_duration_MTurk/v2_DepthDuration_HTML.html#216,216,1366,625,1366,768,9-18-2022,12-14-19,27,depth_duration_stimuli/001555_2014-06-20_17-12-10_260595134347_rgbf000065-resize_4/001555_2014-06-20_17-12-10_260595134347_rgbf000065-resize_4-target.png,1000,1.633,1,4023,1008,feet,jsons/v1_VE1000_randls_23_rotated.json,765019,931105,38,Woman
27,266410,DepthScenes,duration_manipulation_targetAtFixation,jsons/v1_VE1000_randls_23_rotated.json,http://54.235.29.9/FacialAge/BNav_EC2/DepthDuration/v2_depth_duration_MTurk/v2_DepthDuration_HTML.html#216,216,1366,625,1366,768,9-18-2022,12-14-19,28,depth_duration_stimuli/002467_2014-06-28_20-38-07_260595134347_rgbf000026-resize_2/002467_2014-06-28_20-38-07_260595134347_rgbf000026-resize_2-target.png,1000,4.742,3,4591,1012,feet,jsons/v1_VE1000_randls_23_rotated.json,765019,931105,38,Woman
28,266410,DepthScenes,duration_manipulation_targetAtFixation,jsons/v1_VE1000_randls_23_rotated.json,http://54.235.29.9/FacialAge/BNav_EC2/DepthDuration/v2_depth_duration_MTurk/v2_DepthDuration_HTML.html#216,216,1366,625,1366,768,9-18-2022,12-14-19,29,depth_duration_stimuli/002570_2014-06-24_13-59-54_094959634447_rgbf000059-resize_0/002570_2014-06-24_13-59-54_094959634447_rgbf000059-resize_0-target.png,1000,4.037,3,3678,991,feet,jsons/v1_VE1000_randls_23_rotated.json,765019,931105,38,Woman
29,266410,DepthScenes,duration_manipulation_targetAtFixation,jsons/v1_VE1000_randls_23_rotated.json,http://54.235.29.9/FacialAge/BNav_EC2/DepthDuration/v2_depth_duration_MTurk/v2_DepthDuration_HTML.html#216,216,1366,625,1366,768,9-18-2022,12-14-19,30,depth_duration_stimuli/002072_2014-06-24_21-48-06_260595134347_rgbf000115-resize_0/002072_2014-06-24_21-48-06_260595134347_rgbf000115-resize-original.jpg,1000,4.702,0,3701,993,feet,jsons/v1_VE1000_randls_23_rotated.json,765019,931105,38,Woman
30,266410,DepthScenes,duration_manipulation_targetAtFixation,jsons/v1_VE1000_randls_23_rotated.json,http://54.235.29.9/FacialAge/BNav_EC2/DepthDuration/v2_depth_duration_MTurk/v2_DepthDuration_HTML.html#216,216,1366,625,1366,768,9-18-2022,12-14-19,31,depth_duration_stimuli/000749_2014-06-08_21-55-06_260595134347_rgbf000070-resize_2/000749_2014-06-08_21-55-06_260595134347_rgbf000070-resize_2-target.png,1000,2.331,4,4102,993,feet,jsons/v1_VE1000_randls_23_rotated.json,765019,931105,38,Woman
31,266410,DepthScenes,duration_manipulation_targetAtFixation,jsons/v1_VE1000_randls_23_rotated.json,http://54.235.29.9/FacialAge/BNav_EC2/DepthDuration/v2_depth_duration_MTurk/v2_DepthDuration_HTML.html#216,216,1366,625,1366,768,9-18-2022,12-14-19,32,depth_duration_stimuli/002788_2014-06-22_19-36-03_094959634447_rgbf000088-resize_2/002788_2014-06-22_19-36-03_094959634447_rgbf000088-resize_2-target.png,1000,1.6465,5,3921,1006,feet,jsons/v1_VE1000_randls_23_rotated.json,765019,931105,38,Woman
32,266410,DepthScenes,duration_manipulation_targetAtFixation,jsons/v1_VE1000_randls_23_rotated.json,http://54.235.29.9/FacialAge/BNav_EC2/DepthDuration/v2_depth_duration_MTurk/v2_DepthDuration_HTML.html#216,216,1366,625,1366,768,9-18-2022,12-14-19,33,depth_duration_stimuli/002568_2014-06-24_13-59-21_094959634447_rgbf000062-resize_4/002568_2014-06-24_13-59-21_094959634447_rgbf000062-resize_4-target.png,1000,3.015,5,3876,1008,feet,jsons/v1_VE1000_randls_23_rotated.json,765019,931105,38,Woman
33,266410,DepthScenes,duration_manipulation_targetAtFixation,jsons/v1_VE1000_randls_23_rotated.json,http://54.235.29.9/FacialAge/BNav_EC2/DepthDuration/v2_depth_duration_MTurk/v2_DepthDuration_HTML.html#216,216,1366,625,1366,768,9-18-2022,12-14-19,34,depth_duration_stimuli/003492_2014-05-21_15-50-55_094959634447_rgbf000828-resize_1/003492_2014-05-21_15-50-55_094959634447_rgbf000828-resize_1-target.png,1000,4.06875,6,4377,996,feet,jsons/v1_VE1000_randls_23_rotated.json,765019,931105,38,Woman
34,266410,DepthScenes,duration_manipulation_targetAtFixation,jsons/v1_VE1000_randls_23_rotated.json,http://54.235.29.9/FacialAge/BNav_EC2/DepthDuration/v2_depth_duration_MTurk/v2_DepthDuration_HTML.html#216,216,1366,625,1366,768,9-18-2022,12-14-19,35,depth_duration_stimuli/000854_2014-06-09_19-43-13_260595134347_rgbf000066-resize_0/000854_2014-06-09_19-43-13_260595134347_rgbf000066-resize_0-target.png,1000,3.068,2,3678,992,feet,jsons/v1_VE1000_randls_23_rotated.json,765019,931105,38,Woman
35,266410,DepthScenes,duration_manipulation_targetAtFixation,jsons/v1_VE1000_randls_23_rotated.json,http://54.235.29.9/FacialAge/BNav_EC2/DepthDuration/v2_depth_duration_MTurk/v2_DepthDuration_HTML.html#216,216,1366,625,1366,768,9-18-2022,12-14-19,36,depth_duration_stimuli/000758_2014-06-08_22-05-08_260595134347_rgbf000085-resize_0/000758_2014-06-08_22-05-08_260595134347_rgbf000085-resize_0-target.png,1000,3.3810000000000002,4,4068,1008,feet,jsons/v1_VE1000_randls_23_rotated.json,765019,931105,38,Woman
36,266410,DepthScenes,duration_manipulation_targetAtFixation,jsons/v1_VE1000_randls_23_rotated.json,http://54.235.29.9/FacialAge/BNav_EC2/DepthDuration/v2_depth_duration_MTurk/v2_DepthDuration_HTML.html#216,216,1366,625,1366,768,9-18-2022,12-14-19,37,depth_duration_stimuli/002678_2014-06-13_16-15-32_094959634447_rgbf000151-resize_6/002678_2014-06-13_16-15-32_094959634447_rgbf000151-resize_6-target.png,1000,2.1830000000000003,5,4394,1006,feet,jsons/v1_VE1000_randls_23_rotated.json,765019,931105,38,Woman
37,266410,DepthScenes,duration_manipulation_targetAtFixation,jsons/v1_VE1000_randls_23_rotated.json,http://54.235.29.9/FacialAge/BNav_EC2/DepthDuration/v2_depth_duration_MTurk/v2_DepthDuration_HTML.html#216,216,1366,625,1366,768,9-18-2022,12-14-19,38,depth_duration_stimuli/000368_2014-06-09_15-53-01_260595134347_rgbf000155-resize_2/000368_2014-06-09_15-53-01_260595134347_rgbf000155-resize_2-target.png,1000,2.4859999999999998,2,4144,996,feet,jsons/v1_VE1000_randls_23_rotated.json,765019,931105,38,Woman
38,266410,DepthScenes,duration_manipulation_targetAtFixation,jsons/v1_VE1000_randls_23_rotated.json,http://54.235.29.9/FacialAge/BNav_EC2/DepthDuration/v2_depth_duration_MTurk/v2_DepthDuration_HTML.html#216,216,1366,625,1366,768,9-18-2022,12-14-19,39,depth_duration_stimuli/000742_2014-06-08_18-48-09_260595134347_rgbf000164-resize_4/000742_2014-06-08_18-48-09_260595134347_rgbf000164-resize_4-target.png,1000,4.632,4,3743,996,feet,jsons/v1_VE1000_randls_23_rotated.json,765019,931105,38,Woman
39,266410,DepthScenes,duration_manipulation_targetAtFixation,jsons/v1_VE1000_randls_23_rotated.json,http://54.235.29.9/FacialAge/BNav_EC2/DepthDuration/v2_depth_duration_MTurk/v2_DepthDuration_HTML.html#216,216,1366,625,1366,768,9-18-2022,12-14-19,40,depth_duration_stimuli/001066_2014-06-08_22-03-20_260595134347_rgbf000066-resize_4/001066_2014-06-08_22-03-20_260595134347_rgbf000066-resize_4-target.png,1000,4.2330000000000005,6,4169,1008,feet,jsons/v1_VE1000_randls_23_rotated.json,765019,931105,38,Woman
40,266410,DepthScenes,duration_manipulation_targetAtFixation,jsons/v1_VE1000_randls_23_rotated.json,http://54.235.29.9/FacialAge/BNav_EC2/DepthDuration/v2_depth_duration_MTurk/v2_DepthDuration_HTML.html#216,216,1366,625,1366,768,9-18-2022,12-14-19,41,depth_duration_stimuli/001032_2014-06-08_13-23-17_260595134347_rgbf000021-resize_3/001032_2014-06-08_13-23-17_260595134347_rgbf000021-resize_3-target.png,1000,3.2725,3,3837,992,feet,jsons/v1_VE1000_randls_23_rotated.json,765019,931105,38,Woman
41,266410,DepthScenes,duration_manipulation_targetAtFixation,jsons/v1_VE1000_randls_23_rotated.json,http://54.235.29.9/FacialAge/BNav_EC2/DepthDuration/v2_depth_duration_MTurk/v2_DepthDuration_HTML.html#216,216,1366,625,1366,768,9-18-2022,12-14-19,42,depth_duration_stimuli/001059_2014-06-08_21-53-27_260595134347_rgbf000061-resize_4/001059_2014-06-08_21-53-27_260595134347_rgbf000061-resize_4-target.png,1000,2.4185,3,3889,999,feet,jsons/v1_VE1000_randls_23_rotated.json,765019,931105,38,Woman
42,266410,DepthScenes,duration_manipulation_targetAtFixation,jsons/v1_VE1000_randls_23_rotated.json,http://54.235.29.9/FacialAge/BNav_EC2/DepthDuration/v2_depth_duration_MTurk/v2_DepthDuration_HTML.html#216,216,1366,625,1366,768,9-18-2022,12-14-19,43,depth_duration_stimuli/000635_2014-06-08_16-38-42_260595134347_rgbf000106-resize_1/000635_2014-06-08_16-38-42_260595134347_rgbf000106-resize_1-target.png,1000,2.074,4,3875,993,feet,jsons/v1_VE1000_randls_23_rotated.json,765019,931105,38,Woman
43,266410,DepthScenes,duration_manipulation_targetAtFixation,jsons/v1_VE1000_randls_23_rotated.json,http://54.235.29.9/FacialAge/BNav_EC2/DepthDuration/v2_depth_duration_MTurk/v2_DepthDuration_HTML.html#216,216,1366,625,1366,768,9-18-2022,12-14-19,44,depth_duration_stimuli/002279_2014-06-28_18-55-32_260595134347_rgbf000040-resize_5/002279_2014-06-28_18-55-32_260595134347_rgbf000040-resize_5-target.png,1000,1.5043333333333,2,3705,992,feet,jsons/v1_VE1000_randls_23_rotated.json,765019,931105,38,Woman
44,266410,DepthScenes,duration_manipulation_targetAtFixation,jsons/v1_VE1000_randls_23_rotated.json,http://54.235.29.9/FacialAge/BNav_EC2/DepthDuration/v2_depth_duration_MTurk/v2_DepthDuration_HTML.html#216,216,1366,625,1366,768,9-18-2022,12-14-19,45,depth_duration_stimuli/002340_2014-06-28_20-05-46_260595134347_rgbf000113-resize_0/002340_2014-06-28_20-05-46_260595134347_rgbf000113-resize_0-target.png,1000,2.4735,5,3797,1003,feet,jsons/v1_VE1000_randls_23_rotated.json,765019,931105,38,Woman
45,266410,DepthScenes,duration_manipulation_targetAtFixation,jsons/v1_VE1000_randls_23_rotated.json,http://54.235.29.9/FacialAge/BNav_EC2/DepthDuration/v2_depth_duration_MTurk/v2_DepthDuration_HTML.html#216,216,1366,625,1366,768,9-18-2022,12-14-19,46,depth_duration_stimuli/001016_2014-06-09_16-16-10_260595134347_rgbf000112-resize_5/001016_2014-06-09_16-16-10_260595134347_rgbf000112-resize_5-target.png,1000,1.6565,3,3824,995,feet,jsons/v1_VE1000_randls_23_rotated.json,765019,931105,38,Woman
46,266410,DepthScenes,duration_manipulation_targetAtFixation,jsons/v1_VE1000_randls_23_rotated.json,http://54.235.29.9/FacialAge/BNav_EC2/DepthDuration/v2_depth_duration_MTurk/v2_DepthDuration_HTML.html#216,216,1366,625,1366,768,9-18-2022,12-14-19,47,depth_duration_stimuli/001132_2014-06-17_14-48-54_260595134347_rgbf000100-resize_2/001132_2014-06-17_14-48-54_260595134347_rgbf000100-resize_2-target.png,1000,3.753,6,4142,995,feet,jsons/v1_VE1000_randls_23_rotated.json,765019,931105,38,Woman
47,266410,DepthScenes,duration_manipulation_targetAtFixation,jsons/v1_VE1000_randls_23_rotated.json,http://54.235.29.9/FacialAge/BNav_EC2/DepthDuration/v2_depth_duration_MTurk/v2_DepthDuration_HTML.html#216,216,1366,625,1366,768,9-18-2022,12-14-19,48,depth_duration_stimuli/001133_2014-06-17_14-49-16_260595134347_rgbf000100-resize_0/001133_2014-06-17_14-49-16_260595134347_rgbf000100-resize_0-target.png,1000,4.2115,7,4472,999,feet,jsons/v1_VE1000_randls_23_rotated.json,765019,931105,38,Woman
48,266410,DepthScenes,duration_manipulation_targetAtFixation,jsons/v1_VE1000_randls_23_rotated.json,http://54.235.29.9/FacialAge/BNav_EC2/DepthDuration/v2_depth_duration_MTurk/v2_DepthDuration_HTML.html#216,216,1366,625,1366,768,9-18-2022,12-14-19,49,depth_duration_stimuli/001170_2014-06-17_15-43-44_260595134347_rgbf000096-resize_6/001170_2014-06-17_15-43-44_260595134347_rgbf000096-resize-original.jpg,1000,1.1909999999999998,0,4222,992,feet,jsons/v1_VE1000_randls_23_rotated.json,765019,931105,38,Woman
49,266410,DepthScenes,duration_manipulation_targetAtFixation,jsons/v1_VE1000_randls_23_rotated.json,http://54.235.29.9/FacialAge/BNav_EC2/DepthDuration/v2_depth_duration_MTurk/v2_DepthDuration_HTML.html#216,216,1366,625,1366,768,9-18-2022,12-14-19,50,depth_duration_stimuli/001094_2014-06-15_17-36-00_260595134347_rgbf000205-resize_0/001094_2014-06-15_17-36-00_260595134347_rgbf000205-resize_0-target.png,1000,4.2175,8,3755,995,feet,jsons/v1_VE1000_randls_23_rotated.json,765019,931105,38,Woman
50,266410,DepthScenes,duration_manipulation_targetAtFixation,jsons/v1_VE1000_randls_23_rotated.json,http://54.235.29.9/FacialAge/BNav_EC2/DepthDuration/v2_depth_duration_MTurk/v2_DepthDuration_HTML.html#216,216,1366,625,1366,768,9-18-2022,12-14-19,51,depth_duration_stimuli/000692_2014-06-08_13-09-42_260595134347_rgbf000199-resize_2/000692_2014-06-08_13-09-42_260595134347_rgbf000199-resize_2-target.png,1000,3.661,9,3569,1006,feet,jsons/v1_VE1000_randls_23_rotated.json,765019,931105,38,Woman
51,266410,DepthScenes,duration_manipulation_targetAtFixation,jsons/v1_VE1000_randls_23_rotated.json,http://54.235.29.9/FacialAge/BNav_EC2/DepthDuration/v2_depth_duration_MTurk/v2_DepthDuration_HTML.html#216,216,1366,625,1366,768,9-18-2022,12-14-19,52,depth_duration_stimuli/001214_2014-06-17_16-13-55_260595134347_rgbf000111-resize_0/001214_2014-06-17_16-13-55_260595134347_rgbf000111-resize_0-target.png,1000,2.6505,3,3804,992,feet,jsons/v1_VE1000_randls_23_rotated.json,765019,931105,38,Woman
52,266410,DepthScenes,duration_manipulation_targetAtFixation,jsons/v1_VE1000_randls_23_rotated.json,http://54.235.29.9/FacialAge/BNav_EC2/DepthDuration/v2_depth_duration_MTurk/v2_DepthDuration_HTML.html#216,216,1366,625,1366,768,9-18-2022,12-14-19,53,depth_duration_stimuli/000810_2014-06-08_17-20-01_260595134347_rgbf000105-resize_0/000810_2014-06-08_17-20-01_260595134347_rgbf000105-resize_0-target.png,1000,1.4865,3,4714,1007,feet,jsons/v1_VE1000_randls_23_rotated.json,765019,931105,38,Woman
53,266410,DepthScenes,duration_manipulation_targetAtFixation,jsons/v1_VE1000_randls_23_rotated.json,http://54.235.29.9/FacialAge/BNav_EC2/DepthDuration/v2_depth_duration_MTurk/v2_DepthDuration_HTML.html#216,216,1366,625,1366,768,9-18-2022,12-14-19,54,depth_duration_stimuli/001100_2014-06-15_17-46-26_260595134347_rgbf000225-resize_2/001100_2014-06-15_17-46-26_260595134347_rgbf000225-resize_2-target.png,1000,2.24,2,4056,1004,feet,jsons/v1_VE1000_randls_23_rotated.json,765019,931105,38,Woman
54,266410,DepthScenes,duration_manipulation_targetAtFixation,jsons/v1_VE1000_randls_23_rotated.json,http://54.235.29.9/FacialAge/BNav_EC2/DepthDuration/v2_depth_duration_MTurk/v2_DepthDuration_HTML.html#216,216,1366,625,1366,768,9-18-2022,12-14-19,55,depth_duration_stimuli/002784_2014-06-22_19-26-30_094959634447_rgbf000083-resize_3/002784_2014-06-22_19-26-30_094959634447_rgbf000083-resize_3-target.png,1000,1.8046666666667,2,3941,993,feet,jsons/v1_VE1000_randls_23_rotated.json,765019,931105,38,Woman
55,266410,DepthScenes,duration_manipulation_targetAtFixation,jsons/v1_VE1000_randls_23_rotated.json,http://54.235.29.9/FacialAge/BNav_EC2/DepthDuration/v2_depth_duration_MTurk/v2_DepthDuration_HTML.html#216,216,1366,625,1366,768,9-18-2022,12-14-19,56,depth_duration_stimuli/003010_2014-06-15_12-54-35_094959634447_rgbf000112-resize_0/003010_2014-06-15_12-54-35_094959634447_rgbf000112-resize_0-target.png,1000,3.1185,7,4370,1007,feet,jsons/v1_VE1000_randls_23_rotated.json,765019,931105,38,Woman
56,266410,DepthScenes,duration_manipulation_targetAtFixation,jsons/v1_VE1000_randls_23_rotated.json,http://54.235.29.9/FacialAge/BNav_EC2/DepthDuration/v2_depth_duration_MTurk/v2_DepthDuration_HTML.html#216,216,1366,625,1366,768,9-18-2022,12-14-19,57,depth_duration_stimuli/001810_2014-06-26_20-51-35_260595134347_rgbf000040-resize_3/001810_2014-06-26_20-51-35_260595134347_rgbf000040-resize_3-target.png,1000,2.2525,3,4546,994,feet,jsons/v1_VE1000_randls_23_rotated.json,765019,931105,38,Woman
57,266410,DepthScenes,duration_manipulation_targetAtFixation,jsons/v1_VE1000_randls_23_rotated.json,http://54.235.29.9/FacialAge/BNav_EC2/DepthDuration/v2_depth_duration_MTurk/v2_DepthDuration_HTML.html#216,216,1366,625,1366,768,9-18-2022,12-14-19,58,depth_duration_stimuli/000457_2014-06-08_16-52-43_260595134347_rgbf000199-resize_1/000457_2014-06-08_16-52-43_260595134347_rgbf000199-resize_1-target.png,1000,3.6489999999999996,5,4170,1010,feet,jsons/v1_VE1000_randls_23_rotated.json,765019,931105,38,Woman
58,266410,DepthScenes,duration_manipulation_targetAtFixation,jsons/v1_VE1000_randls_23_rotated.json,http://54.235.29.9/FacialAge/BNav_EC2/DepthDuration/v2_depth_duration_MTurk/v2_DepthDuration_HTML.html#216,216,1366,625,1366,768,9-18-2022,12-14-19,59,depth_duration_stimuli/000929_2014-06-09_16-33-19_260595134347_rgbf000139-resize_0/000929_2014-06-09_16-33-19_260595134347_rgbf000139-resize_0-target.png,1000,2.8680000000000003,4,3884,993,feet,jsons/v1_VE1000_randls_23_rotated.json,765019,931105,38,Woman
59,266410,DepthScenes,duration_manipulation_targetAtFixation,jsons/v1_VE1000_randls_23_rotated.json,http://54.235.29.9/FacialAge/BNav_EC2/DepthDuration/v2_depth_duration_MTurk/v2_DepthDuration_HTML.html#216,216,1366,625,1366,768,9-18-2022,12-14-19,60,depth_duration_stimuli/001447_2014-06-19_17-00-32_260595134347_rgbf000082-resize_5/001447_2014-06-19_17-00-32_260595134347_rgbf000082-resize_5-target.png,1000,4.13775,4,4265,995,feet,jsons/v1_VE1000_randls_23_rotated.json,765019,931105,38,Woman
60,266410,DepthScenes,duration_manipulation_targetAtFixation,jsons/v1_VE1000_randls_23_rotated.json,http://54.235.29.9/FacialAge/BNav_EC2/DepthDuration/v2_depth_duration_MTurk/v2_DepthDuration_HTML.html#216,216,1366,625,1366,768,9-18-2022,12-14-19,61,depth_duration_stimuli/000447_2014-06-08_16-15-46_260595134347_rgbf000130-resize_1/000447_2014-06-08_16-15-46_260595134347_rgbf000130-resize_1-target.png,1000,4.479,6,10372,996,feet,jsons/v1_VE1000_randls_23_rotated.json,765019,931105,38,Woman
61,266410,DepthScenes,duration_manipulation_targetAtFixation,jsons/v1_VE1000_randls_23_rotated.json,http://54.235.29.9/FacialAge/BNav_EC2/DepthDuration/v2_depth_duration_MTurk/v2_DepthDuration_HTML.html#216,216,1366,625,1366,768,9-18-2022,12-14-19,62,depth_duration_stimuli/000483_2014-06-09_20-41-45_260595134347_rgbf000116-resize_4/000483_2014-06-09_20-41-45_260595134347_rgbf000116-resize_4-target.png,1000,1.337,2,3928,993,feet,jsons/v1_VE1000_randls_23_rotated.json,765019,931105,38,Woman
62,266410,DepthScenes,duration_manipulation_targetAtFixation,jsons/v1_VE1000_randls_23_rotated.json,http://54.235.29.9/FacialAge/BNav_EC2/DepthDuration/v2_depth_duration_MTurk/v2_DepthDuration_HTML.html#216,216,1366,625,1366,768,9-18-2022,12-14-19,63,depth_duration_stimuli/000469_2014-06-09_19-42-10_260595134347_rgbf000081-resize_1/000469_2014-06-09_19-42-10_260595134347_rgbf000081-resize_1-target.png,1000,1.652,2,4516,994,feet,jsons/v1_VE1000_randls_23_rotated.json,765019,931105,38,Woman
63,266410,DepthScenes,duration_manipulation_targetAtFixation,jsons/v1_VE1000_randls_23_rotated.json,http://54.235.29.9/FacialAge/BNav_EC2/DepthDuration/v2_depth_duration_MTurk/v2_DepthDuration_HTML.html#216,216,1366,625,1366,768,9-18-2022,12-14-19,64,depth_duration_stimuli/003490_2014-05-21_15-50-11_094959634447_rgbf000101-resize_3/003490_2014-05-21_15-50-11_094959634447_rgbf000101-resize_3-target.png,1000,3.6445,5,3882,984,feet,jsons/v1_VE1000_randls_23_rotated.json,765019,931105,38,Woman
64,266410,DepthScenes,duration_manipulation_targetAtFixation,jsons/v1_VE1000_randls_23_rotated.json,http://54.235.29.9/FacialAge/BNav_EC2/DepthDuration/v2_depth_duration_MTurk/v2_DepthDuration_HTML.html#216,216,1366,625,1366,768,9-18-2022,12-14-19,65,depth_duration_stimuli/001175_2014-06-17_15-45-55_260595134347_rgbf000129-resize_4/001175_2014-06-17_15-45-55_260595134347_rgbf000129-resize_4-target.png,1000,4.255,8,4426,1006,feet,jsons/v1_VE1000_randls_23_rotated.json,765019,931105,38,Woman
65,266410,DepthScenes,duration_manipulation_targetAtFixation,jsons/v1_VE1000_randls_23_rotated.json,http://54.235.29.9/FacialAge/BNav_EC2/DepthDuration/v2_depth_duration_MTurk/v2_DepthDuration_HTML.html#216,216,1366,625,1366,768,9-18-2022,12-14-19,66,depth_duration_stimuli/001540_2014-06-20_17-01-05_260595134347_rgbf000086-resize_2/001540_2014-06-20_17-01-05_260595134347_rgbf000086-resize-original.jpg,1000,1.459,0,4053,1007,feet,jsons/v1_VE1000_randls_23_rotated.json,765019,931105,38,Woman
66,266410,DepthScenes,duration_manipulation_targetAtFixation,jsons/v1_VE1000_randls_23_rotated.json,http://54.235.29.9/FacialAge/BNav_EC2/DepthDuration/v2_depth_duration_MTurk/v2_DepthDuration_HTML.html#216,216,1366,625,1366,768,9-18-2022,12-14-19,67,depth_duration_stimuli/000191_2014-05-12_17-07-38_260595134347_rgbf000199-resize_0/000191_2014-05-12_17-07-38_260595134347_rgbf000199-resize_0-target.png,1000,3.7995,8,3711,999,feet,jsons/v1_VE1000_randls_23_rotated.json,765019,931105,38,Woman
67,266410,DepthScenes,duration_manipulation_targetAtFixation,jsons/v1_VE1000_randls_23_rotated.json,http://54.235.29.9/FacialAge/BNav_EC2/DepthDuration/v2_depth_duration_MTurk/v2_DepthDuration_HTML.html#216,216,1366,625,1366,768,9-18-2022,12-14-19,68,depth_duration_stimuli/000493_2014-06-09_21-01-18_260595134347_rgbf000196-resize_3/000493_2014-06-09_21-01-18_260595134347_rgbf000196-resize_3-target.png,1000,3.44,7,4320,1000,feet,jsons/v1_VE1000_randls_23_rotated.json,765019,931105,38,Woman
68,266410,DepthScenes,duration_manipulation_targetAtFixation,jsons/v1_VE1000_randls_23_rotated.json,http://54.235.29.9/FacialAge/BNav_EC2/DepthDuration/v2_depth_duration_MTurk/v2_DepthDuration_HTML.html#216,216,1366,625,1366,768,9-18-2022,12-14-19,69,depth_duration_stimuli/002657_2014-06-13_15-29-54_094959634447_rgbf000150-resize_1/002657_2014-06-13_15-29-54_094959634447_rgbf000150-resize_1-target.png,1000,4.919,7,4311,1008,feet,jsons/v1_VE1000_randls_23_rotated.json,765019,931105,38,Woman
69,266410,DepthScenes,duration_manipulation_targetAtFixation,jsons/v1_VE1000_randls_23_rotated.json,http://54.235.29.9/FacialAge/BNav_EC2/DepthDuration/v2_depth_duration_MTurk/v2_DepthDuration_HTML.html#216,216,1366,625,1366,768,9-18-2022,12-14-19,70,depth_duration_stimuli/002375_2014-06-28_20-13-44_260595134347_rgbf000032-resize_1/002375_2014-06-28_20-13-44_260595134347_rgbf000032-resize_1-target.png,1000,4.0175,5,3866,985,feet,jsons/v1_VE1000_randls_23_rotated.json,765019,931105,38,Woman
70,266410,DepthScenes,duration_manipulation_targetAtFixation,jsons/v1_VE1000_randls_23_rotated.json,http://54.235.29.9/FacialAge/BNav_EC2/DepthDuration/v2_depth_duration_MTurk/v2_DepthDuration_HTML.html#216,216,1366,625,1366,768,9-18-2022,12-14-19,71,depth_duration_stimuli/000556_2014-06-09_22-42-56_260595134347_rgbf000214-resize_1/000556_2014-06-09_22-42-56_260595134347_rgbf000214-resize_1-target.png,1000,4.8415,9,3912,995,feet,jsons/v1_VE1000_randls_23_rotated.json,765019,931105,38,Woman
71,266410,DepthScenes,duration_manipulation_targetAtFixation,jsons/v1_VE1000_randls_23_rotated.json,http://54.235.29.9/FacialAge/BNav_EC2/DepthDuration/v2_depth_duration_MTurk/v2_DepthDuration_HTML.html#216,216,1366,625,1366,768,9-18-2022,12-14-19,72,depth_duration_stimuli/001158_2014-06-17_15-32-16_260595134347_rgbf000138-resize_2/001158_2014-06-17_15-32-16_260595134347_rgbf000138-resize_2-target.png,1000,4.5315,9,4344,1002,feet,jsons/v1_VE1000_randls_23_rotated.json,765019,931105,38,Woman
72,266410,DepthScenes,duration_manipulation_targetAtFixation,jsons/v1_VE1000_randls_23_rotated.json,http://54.235.29.9/FacialAge/BNav_EC2/DepthDuration/v2_depth_duration_MTurk/v2_DepthDuration_HTML.html#216,216,1366,625,1366,768,9-18-2022,12-14-19,73,depth_duration_stimuli/000780_2014-06-08_22-28-29_260595134347_rgbf000126-resize_1/000780_2014-06-08_22-28-29_260595134347_rgbf000126-resize_1-target.png,1000,3.3825,8,4393,1000,feet,jsons/v1_VE1000_randls_23_rotated.json,765019,931105,38,Woman
73,266410,DepthScenes,duration_manipulation_targetAtFixation,jsons/v1_VE1000_randls_23_rotated.json,http://54.235.29.9/FacialAge/BNav_EC2/DepthDuration/v2_depth_duration_MTurk/v2_DepthDuration_HTML.html#216,216,1366,625,1366,768,9-18-2022,12-14-19,74,depth_duration_stimuli/002445_2014-06-28_20-32-16_260595134347_rgbf000029-resize_4/002445_2014-06-28_20-32-16_260595134347_rgbf000029-resize_4-target.png,1000,2.5315,3,4165,1005,feet,jsons/v1_VE1000_randls_23_rotated.json,765019,931105,38,Woman
74,266410,DepthScenes,duration_manipulation_targetAtFixation,jsons/v1_VE1000_randls_23_rotated.json,http://54.235.29.9/FacialAge/BNav_EC2/DepthDuration/v2_depth_duration_MTurk/v2_DepthDuration_HTML.html#216,216,1366,625,1366,768,9-18-2022,12-14-19,75,depth_duration_stimuli/002344_2014-06-28_20-06-29_260595134347_rgbf000030-resize_1/002344_2014-06-28_20-06-29_260595134347_rgbf000030-resize_1-target.png,1000,1.5795,1,3863,1001,feet,jsons/v1_VE1000_randls_23_rotated.json,765019,931105,38,Woman
75,266410,DepthScenes,duration_manipulation_targetAtFixation,jsons/v1_VE1000_randls_23_rotated.json,http://54.235.29.9/FacialAge/BNav_EC2/DepthDuration/v2_depth_duration_MTurk/v2_DepthDuration_HTML.html#216,216,1366,625,1366,768,9-18-2022,12-14-19,76,depth_duration_stimuli/002725_2014-06-22_11-47-51_094959634447_rgbf000070-resize_1/002725_2014-06-22_11-47-51_094959634447_rgbf000070-resize_1-target.png,1000,2.195,3,5095,1000,feet,jsons/v1_VE1000_randls_23_rotated.json,765019,931105,38,Woman
76,266410,DepthScenes,duration_manipulation_targetAtFixation,jsons/v1_VE1000_randls_23_rotated.json,http://54.235.29.9/FacialAge/BNav_EC2/DepthDuration/v2_depth_duration_MTurk/v2_DepthDuration_HTML.html#216,216,1366,625,1366,768,9-18-2022,12-14-19,77,depth_duration_stimuli/003338_2014-05-20_11-01-23_094959634447_rgbf000051-resize_6/003338_2014-05-20_11-01-23_094959634447_rgbf000051-resize_6-target.png,1000,1.693,2,4049,1000,feet,jsons/v1_VE1000_randls_23_rotated.json,765019,931105,38,Woman
77,266410,DepthScenes,duration_manipulation_targetAtFixation,jsons/v1_VE1000_randls_23_rotated.json,http://54.235.29.9/FacialAge/BNav_EC2/DepthDuration/v2_depth_duration_MTurk/v2_DepthDuration_HTML.html#216,216,1366,625,1366,768,9-18-2022,12-14-19,78,depth_duration_stimuli/002509_2014-06-24_13-19-22_094959634447_rgbf000077-resize_0/002509_2014-06-24_13-19-22_094959634447_rgbf000077-resize_0-target.png,1000,1.3065,2,4312,1002,feet,jsons/v1_VE1000_randls_23_rotated.json,765019,931105,38,Woman
78,266410,DepthScenes,duration_manipulation_targetAtFixation,jsons/v1_VE1000_randls_23_rotated.json,http://54.235.29.9/FacialAge/BNav_EC2/DepthDuration/v2_depth_duration_MTurk/v2_DepthDuration_HTML.html#216,216,1366,625,1366,768,9-18-2022,12-14-19,79,depth_duration_stimuli/002103_2014-06-25_20-00-40_260595134347_rgbf000049-resize_0/002103_2014-06-25_20-00-40_260595134347_rgbf000049-resize_0-target.png,1000,4.105,6,4218,998,feet,jsons/v1_VE1000_randls_23_rotated.json,765019,931105,38,Woman
79,266410,DepthScenes,duration_manipulation_targetAtFixation,jsons/v1_VE1000_randls_23_rotated.json,http://54.235.29.9/FacialAge/BNav_EC2/DepthDuration/v2_depth_duration_MTurk/v2_DepthDuration_HTML.html#216,216,1366,625,1366,768,9-18-2022,12-14-19,80,depth_duration_stimuli/002039_2014-06-24_20-22-38_260595134347_rgbf000084-resize_1/002039_2014-06-24_20-22-38_260595134347_rgbf000084-resize_1-target.png,1000,4.408,7,3734,987,feet,jsons/v1_VE1000_randls_23_rotated.json,765019,931105,38,Woman
80,266410,DepthScenes,duration_manipulation_targetAtFixation,jsons/v1_VE1000_randls_23_rotated.json,http://54.235.29.9/FacialAge/BNav_EC2/DepthDuration/v2_depth_duration_MTurk/v2_DepthDuration_HTML.html#216,216,1366,625,1366,768,9-18-2022,12-14-19,81,depth_duration_stimuli/002414_2014-06-28_20-24-58_260595134347_rgbf000067-resize_4/002414_2014-06-28_20-24-58_260595134347_rgbf000067-resize_4-target.png,1000,4.363,8,4069,1014,feet,jsons/v1_VE1000_randls_23_rotated.json,765019,931105,38,Woman
81,266410,DepthScenes,duration_manipulation_targetAtFixation,jsons/v1_VE1000_randls_23_rotated.json,http://54.235.29.9/FacialAge/BNav_EC2/DepthDuration/v2_depth_duration_MTurk/v2_DepthDuration_HTML.html#216,216,1366,625,1366,768,9-18-2022,12-14-19,82,depth_duration_stimuli/000773_2014-06-08_22-24-54_260595134347_rgbf000093-resize_1/000773_2014-06-08_22-24-54_260595134347_rgbf000093-resize_1-target.png,1000,4.973,9,4013,1008,feet,jsons/v1_VE1000_randls_23_rotated.json,765019,931105,38,Woman
82,266410,DepthScenes,duration_manipulation_targetAtFixation,jsons/v1_VE1000_randls_23_rotated.json,http://54.235.29.9/FacialAge/BNav_EC2/DepthDuration/v2_depth_duration_MTurk/v2_DepthDuration_HTML.html#216,216,1366,625,1366,768,9-18-2022,12-14-19,83,depth_duration_stimuli/002953_2014-06-08_17-32-18_094959634447_rgbf000059-resize_5/002953_2014-06-08_17-32-18_094959634447_rgbf000059-resize_5-target.png,1000,1.551,2,4029,1011,feet,jsons/v1_VE1000_randls_23_rotated.json,765019,931105,38,Woman
83,266410,DepthScenes,duration_manipulation_targetAtFixation,jsons/v1_VE1000_randls_23_rotated.json,http://54.235.29.9/FacialAge/BNav_EC2/DepthDuration/v2_depth_duration_MTurk/v2_DepthDuration_HTML.html#216,216,1366,625,1366,768,9-18-2022,12-14-19,84,depth_duration_stimuli/000878_2014-06-08_22-52-45_260595134347_rgbf000045-resize_2/000878_2014-06-08_22-52-45_260595134347_rgbf000045-resize_2-target.png,1000,2.092,3,4700,1003,feet,jsons/v1_VE1000_randls_23_rotated.json,765019,931105,38,Woman
84,266410,DepthScenes,duration_manipulation_targetAtFixation,jsons/v1_VE1000_randls_23_rotated.json,http://54.235.29.9/FacialAge/BNav_EC2/DepthDuration/v2_depth_duration_MTurk/v2_DepthDuration_HTML.html#216,216,1366,625,1366,768,9-18-2022,12-14-19,85,depth_duration_stimuli/001617_2014-06-20_11-35-32_260595134347_rgbf000066-resize_1/001617_2014-06-20_11-35-32_260595134347_rgbf000066-resize_1-target.png,1000,3.7910000000000004,6,4262,1000,feet,jsons/v1_VE1000_randls_23_rotated.json,765019,931105,38,Woman
85,266410,DepthScenes,duration_manipulation_targetAtFixation,jsons/v1_VE1000_randls_23_rotated.json,http://54.235.29.9/FacialAge/BNav_EC2/DepthDuration/v2_depth_duration_MTurk/v2_DepthDuration_HTML.html#216,216,1366,625,1366,768,9-18-2022,12-14-19,86,depth_duration_stimuli/001806_2014-06-26_20-50-20_260595134347_rgbf000091-resize_1/001806_2014-06-26_20-50-20_260595134347_rgbf000091-resize_1-target.png,1000,2.7305,4,4359,1000,feet,jsons/v1_VE1000_randls_23_rotated.json,765019,931105,38,Woman
86,266410,DepthScenes,duration_manipulation_targetAtFixation,jsons/v1_VE1000_randls_23_rotated.json,http://54.235.29.9/FacialAge/BNav_EC2/DepthDuration/v2_depth_duration_MTurk/v2_DepthDuration_HTML.html#216,216,1366,625,1366,768,9-18-2022,12-14-19,87,depth_duration_stimuli/003495_2014-05-21_16-01-51_094959634447_rgbf000100-resize_3/003495_2014-05-21_16-01-51_094959634447_rgbf000100-resize_3-target.png,1000,1.6255,2,3951,998,feet,jsons/v1_VE1000_randls_23_rotated.json,765019,931105,38,Woman
87,266410,DepthScenes,duration_manipulation_targetAtFixation,jsons/v1_VE1000_randls_23_rotated.json,http://54.235.29.9/FacialAge/BNav_EC2/DepthDuration/v2_depth_duration_MTurk/v2_DepthDuration_HTML.html#216,216,1366,625,1366,768,9-18-2022,12-14-19,88,depth_duration_stimuli/001244_2014-06-17_16-47-45_260595134347_rgbf000030-resize_4/001244_2014-06-17_16-47-45_260595134347_rgbf000030-resize_4-target.png,1000,2.0425,3,4184,998,feet,jsons/v1_VE1000_randls_23_rotated.json,765019,931105,38,Woman
88,266410,DepthScenes,duration_manipulation_targetAtFixation,jsons/v1_VE1000_randls_23_rotated.json,http://54.235.29.9/FacialAge/BNav_EC2/DepthDuration/v2_depth_duration_MTurk/v2_DepthDuration_HTML.html#216,216,1366,625,1366,768,9-18-2022,12-14-19,89,depth_duration_stimuli/002805_2014-06-22_19-54-03_094959634447_rgbf000079-resize_1/002805_2014-06-22_19-54-03_094959634447_rgbf000079-resize_1-target.png,1000,3.1439999999999997,8,4256,1000,feet,jsons/v1_VE1000_randls_23_rotated.json,765019,931105,38,Woman
89,266410,DepthScenes,duration_manipulation_targetAtFixation,jsons/v1_VE1000_randls_23_rotated.json,http://54.235.29.9/FacialAge/BNav_EC2/DepthDuration/v2_depth_duration_MTurk/v2_DepthDuration_HTML.html#216,216,1366,625,1366,768,9-18-2022,12-14-19,90,depth_duration_stimuli/000906_2014-06-08_13-35-43_260595134347_rgbf000155-resize_1/000906_2014-06-08_13-35-43_260595134347_rgbf000155-resize_1-target.png,1000,2.8489999999999998,7,4822,1002,feet,jsons/v1_VE1000_randls_23_rotated.json,765019,931105,38,Woman
90,266410,DepthScenes,duration_manipulation_targetAtFixation,jsons/v1_VE1000_randls_23_rotated.json,http://54.235.29.9/FacialAge/BNav_EC2/DepthDuration/v2_depth_duration_MTurk/v2_DepthDuration_HTML.html#216,216,1366,625,1366,768,9-18-2022,12-14-19,91,depth_duration_stimuli/000734_2014-06-08_17-39-11_260595134347_rgbf000128-resize_2/000734_2014-06-08_17-39-11_260595134347_rgbf000128-resize_2-target.png,1000,4.098,7,4159,993,feet,jsons/v1_VE1000_randls_23_rotated.json,765019,931105,38,Woman
91,266410,DepthScenes,duration_manipulation_targetAtFixation,jsons/v1_VE1000_randls_23_rotated.json,http://54.235.29.9/FacialAge/BNav_EC2/DepthDuration/v2_depth_duration_MTurk/v2_DepthDuration_HTML.html#216,216,1366,625,1366,768,9-18-2022,12-14-19,92,depth_duration_stimuli/000739_2014-06-08_18-45-58_260595134347_rgbf000068-resize_1/000739_2014-06-08_18-45-58_260595134347_rgbf000068-resize_1-target.png,1000,3.534,6,4162,1000,feet,jsons/v1_VE1000_randls_23_rotated.json,765019,931105,38,Woman
92,266410,DepthScenes,duration_manipulation_targetAtFixation,jsons/v1_VE1000_randls_23_rotated.json,http://54.235.29.9/FacialAge/BNav_EC2/DepthDuration/v2_depth_duration_MTurk/v2_DepthDuration_HTML.html#216,216,1366,625,1366,768,9-18-2022,12-14-19,93,depth_duration_stimuli/002136_2014-06-25_21-18-03_260595134347_rgbf000109-resize_3/002136_2014-06-25_21-18-03_260595134347_rgbf000109-resize_3-target.png,1000,1.9569999999999999,4,3885,1000,feet,jsons/v1_VE1000_randls_23_rotated.json,765019,931105,38,Woman
93,266410,DepthScenes,duration_manipulation_targetAtFixation,jsons/v1_VE1000_randls_23_rotated.json,http://54.235.29.9/FacialAge/BNav_EC2/DepthDuration/v2_depth_duration_MTurk/v2_DepthDuration_HTML.html#216,216,1366,625,1366,768,9-18-2022,12-14-19,94,depth_duration_stimuli/002964_2014-06-08_17-46-11_094959634447_rgbf000091-resize_4/002964_2014-06-08_17-46-11_094959634447_rgbf000091-resize_4-target.png,1000,1.6909999999999998,2,3775,1003,feet,jsons/v1_VE1000_randls_23_rotated.json,765019,931105,38,Woman
94,266410,DepthScenes,duration_manipulation_targetAtFixation,jsons/v1_VE1000_randls_23_rotated.json,http://54.235.29.9/FacialAge/BNav_EC2/DepthDuration/v2_depth_duration_MTurk/v2_DepthDuration_HTML.html#216,216,1366,625,1366,768,9-18-2022,12-14-19,95,depth_duration_stimuli/000109_2014-05-14_23-41-52_260595134347_rgbf000035-resize_9/000109_2014-05-14_23-41-52_260595134347_rgbf000035-resize_9-target.png,1000,1.3545,2,3959,1008,feet,jsons/v1_VE1000_randls_23_rotated.json,765019,931105,38,Woman
95,266410,DepthScenes,duration_manipulation_targetAtFixation,jsons/v1_VE1000_randls_23_rotated.json,http://54.235.29.9/FacialAge/BNav_EC2/DepthDuration/v2_depth_duration_MTurk/v2_DepthDuration_HTML.html#216,216,1366,625,1366,768,9-18-2022,12-14-19,96,depth_duration_stimuli/000470_2014-06-09_19-42-40_260595134347_rgbf000094-resize_1/000470_2014-06-09_19-42-40_260595134347_rgbf000094-resize_1-target.png,1000,1.831,3,3917,998,feet,jsons/v1_VE1000_randls_23_rotated.json,765019,931105,38,Woman
96,266410,DepthScenes,duration_manipulation_targetAtFixation,jsons/v1_VE1000_randls_23_rotated.json,http://54.235.29.9/FacialAge/BNav_EC2/DepthDuration/v2_depth_duration_MTurk/v2_DepthDuration_HTML.html#216,216,1366,625,1366,768,9-18-2022,12-14-19,97,depth_duration_stimuli/002639_2014-06-24_14-51-37_094959634447_rgbf000074-resize_4/002639_2014-06-24_14-51-37_094959634447_rgbf000074-resize_4-target.png,1000,4.0375,5,4470,1001,feet,jsons/v1_VE1000_randls_23_rotated.json,765019,931105,38,Woman
97,266410,DepthScenes,duration_manipulation_targetAtFixation,jsons/v1_VE1000_randls_23_rotated.json,http://54.235.29.9/FacialAge/BNav_EC2/DepthDuration/v2_depth_duration_MTurk/v2_DepthDuration_HTML.html#216,216,1366,625,1366,768,9-18-2022,12-14-19,98,depth_duration_stimuli/003292_2014-05-14_21-53-49_094959634447_rgbf000100-resize_2/003292_2014-05-14_21-53-49_094959634447_rgbf000100-resize_2-target.png,1000,3.4815,5,4048,1001,feet,jsons/v1_VE1000_randls_23_rotated.json,765019,931105,38,Woman
98,266410,DepthScenes,duration_manipulation_targetAtFixation,jsons/v1_VE1000_randls_23_rotated.json,http://54.235.29.9/FacialAge/BNav_EC2/DepthDuration/v2_depth_duration_MTurk/v2_DepthDuration_HTML.html#216,216,1366,625,1366,768,9-18-2022,12-14-19,99,depth_duration_stimuli/001222_2014-06-17_16-24-06_260595134347_rgbf000073-resize_0/001222_2014-06-17_16-24-06_260595134347_rgbf000073-resize-original.jpg,1000,1.4385,0,4346,1014,feet,jsons/v1_VE1000_randls_23_rotated.json,765019,931105,38,Woman
99,266410,DepthScenes,duration_manipulation_targetAtFixation,jsons/v1_VE1000_randls_23_rotated.json,http://54.235.29.9/FacialAge/BNav_EC2/DepthDuration/v2_depth_duration_MTurk/v2_DepthDuration_HTML.html#216,216,1366,625,1366,768,9-18-2022,12-14-19,100,depth_duration_stimuli/003079_2014-06-15_15-18-20_094959634447_rgbf000152-resize_8/003079_2014-06-15_15-18-20_094959634447_rgbf000152-resize_8-target.png,1000,2.8775,8,4112,998,feet,jsons/v1_VE1000_randls_23_rotated.json,765019,931105,38,Woman
100,266410,DepthScenes,duration_manipulation_targetAtFixation,jsons/v1_VE1000_randls_23_rotated.json,http://54.235.29.9/FacialAge/BNav_EC2/DepthDuration/v2_depth_duration_MTurk/v2_DepthDuration_HTML.html#216,216,1366,625,1366,768,9-18-2022,12-14-19,101,depth_duration_stimuli/000506_2014-06-08_23-21-00_260595134347_rgbf000070-resize_7/000506_2014-06-08_23-21-00_260595134347_rgbf000070-resize_7-target.png,1000,4.0585,6,4868,1006,feet,jsons/v1_VE1000_randls_23_rotated.json,765019,931105,38,Woman
101,266410,DepthScenes,duration_manipulation_targetAtFixation,jsons/v1_VE1000_randls_23_rotated.json,http://54.235.29.9/FacialAge/BNav_EC2/DepthDuration/v2_depth_duration_MTurk/v2_DepthDuration_HTML.html#216,216,1366,625,1366,768,9-18-2022,12-14-19,102,depth_duration_stimuli/003587_2014-05-23_16-48-02_094959634447_rgbf002384-resize_2/003587_2014-05-23_16-48-02_094959634447_rgbf002384-resize_2-target.png,1000,1.357,2,4180,1002,feet,jsons/v1_VE1000_randls_23_rotated.json,765019,931105,38,Woman
102,266410,DepthScenes,duration_manipulation_targetAtFixation,jsons/v1_VE1000_randls_23_rotated.json,http://54.235.29.9/FacialAge/BNav_EC2/DepthDuration/v2_depth_duration_MTurk/v2_DepthDuration_HTML.html#216,216,1366,625,1366,768,9-18-2022,12-14-19,103,depth_duration_stimuli/001167_2014-06-17_15-38-07_260595134347_rgbf000108-resize_0/001167_2014-06-17_15-38-07_260595134347_rgbf000108-resize_0-target.png,1000,1.8505,2,4064,996,feet,jsons/v1_VE1000_randls_23_rotated.json,765019,931105,38,Woman
103,266410,DepthScenes,duration_manipulation_targetAtFixation,jsons/v1_VE1000_randls_23_rotated.json,http://54.235.29.9/FacialAge/BNav_EC2/DepthDuration/v2_depth_duration_MTurk/v2_DepthDuration_HTML.html#216,216,1366,625,1366,768,9-18-2022,12-14-19,104,depth_duration_stimuli/002758_2014-06-22_19-11-20_094959634447_rgbf000128-resize_1/002758_2014-06-22_19-11-20_094959634447_rgbf000128-resize_1-target.png,1000,2.555,3,4104,1000,feet,jsons/v1_VE1000_randls_23_rotated.json,765019,931105,38,Woman
104,266410,DepthScenes,duration_manipulation_targetAtFixation,jsons/v1_VE1000_randls_23_rotated.json,http://54.235.29.9/FacialAge/BNav_EC2/DepthDuration/v2_depth_duration_MTurk/v2_DepthDuration_HTML.html#216,216,1366,625,1366,768,9-18-2022,12-14-19,105,depth_duration_stimuli/002630_2014-06-24_14-47-50_094959634447_rgbf000055-resize_1/002630_2014-06-24_14-47-50_094959634447_rgbf000055-resize_1-target.png,1000,3.0095,5,4104,1000,feet,jsons/v1_VE1000_randls_23_rotated.json,765019,931105,38,Woman
105,266410,DepthScenes,duration_manipulation_targetAtFixation,jsons/v1_VE1000_randls_23_rotated.json,http://54.235.29.9/FacialAge/BNav_EC2/DepthDuration/v2_depth_duration_MTurk/v2_DepthDuration_HTML.html#216,216,1366,625,1366,768,9-18-2022,12-14-19,106,depth_duration_stimuli/001828_2014-06-26_21-40-03_260595134347_rgbf000024-resize_0/001828_2014-06-26_21-40-03_260595134347_rgbf000024-resize_0-target.png,1000,4.8260000000000005,8,4291,1008,feet,jsons/v1_VE1000_randls_23_rotated.json,765019,931105,38,Woman
106,266410,DepthScenes,duration_manipulation_targetAtFixation,jsons/v1_VE1000_randls_23_rotated.json,http://54.235.29.9/FacialAge/BNav_EC2/DepthDuration/v2_depth_duration_MTurk/v2_DepthDuration_HTML.html#216,216,1366,625,1366,768,9-18-2022,12-14-19,107,depth_duration_stimuli/000009_2014-05-26_14-32-05_260595134347_rgbf000034-resize_3/000009_2014-05-26_14-32-05_260595134347_rgbf000034-resize_3-target.png,1000,3.8715,9,3991,986,feet,jsons/v1_VE1000_randls_23_rotated.json,765019,931105,38,Woman
107,266410,DepthScenes,duration_manipulation_targetAtFixation,jsons/v1_VE1000_randls_23_rotated.json,http://54.235.29.9/FacialAge/BNav_EC2/DepthDuration/v2_depth_duration_MTurk/v2_DepthDuration_HTML.html#216,216,1366,625,1366,768,9-18-2022,12-14-19,108,depth_duration_stimuli/000137_2014-05-20_17-04-49_260595134347_rgbf000120-resize_1/000137_2014-05-20_17-04-49_260595134347_rgbf000120-resize_1-target.png,1000,3.786,6,3913,994,feet,jsons/v1_VE1000_randls_23_rotated.json,765019,931105,38,Woman
108,266410,DepthScenes,duration_manipulation_targetAtFixation,jsons/v1_VE1000_randls_23_rotated.json,http://54.235.29.9/FacialAge/BNav_EC2/DepthDuration/v2_depth_duration_MTurk/v2_DepthDuration_HTML.html#216,216,1366,625,1366,768,9-18-2022,12-14-19,109,depth_duration_stimuli/000736_2014-06-08_18-24-15_260595134347_rgbf000206-resize_3/000736_2014-06-08_18-24-15_260595134347_rgbf000206-resize_3-target.png,1000,3.515,4,3922,994,feet,jsons/v1_VE1000_randls_23_rotated.json,765019,931105,38,Woman
109,266410,DepthScenes,duration_manipulation_targetAtFixation,jsons/v1_VE1000_randls_23_rotated.json,http://54.235.29.9/FacialAge/BNav_EC2/DepthDuration/v2_depth_duration_MTurk/v2_DepthDuration_HTML.html#216,216,1366,625,1366,768,9-18-2022,12-14-19,110,depth_duration_stimuli/001235_2014-06-17_16-37-36_260595134347_rgbf000084-resize_4/001235_2014-06-17_16-37-36_260595134347_rgbf000084-resize_4-target.png,1000,3.6605,5,3852,1006,feet,jsons/v1_VE1000_randls_23_rotated.json,765019,931105,38,Woman
110,266410,DepthScenes,duration_manipulation_targetAtFixation,jsons/v1_VE1000_randls_23_rotated.json,http://54.235.29.9/FacialAge/BNav_EC2/DepthDuration/v2_depth_duration_MTurk/v2_DepthDuration_HTML.html#216,216,1366,625,1366,768,9-18-2022,12-14-19,111,depth_duration_stimuli/000788_2014-06-08_22-34-36_260595134347_rgbf000131-resize_1/000788_2014-06-08_22-34-36_260595134347_rgbf000131-resize_1-target.png,1000,3.359,6,4101,1001,feet,jsons/v1_VE1000_randls_23_rotated.json,765019,931105,38,Woman
111,266410,DepthScenes,duration_manipulation_targetAtFixation,jsons/v1_VE1000_randls_23_rotated.json,http://54.235.29.9/FacialAge/BNav_EC2/DepthDuration/v2_depth_duration_MTurk/v2_DepthDuration_HTML.html#216,216,1366,625,1366,768,9-18-2022,12-14-19,112,depth_duration_stimuli/000709_2014-06-08_13-51-55_260595134347_rgbf000068-resize_3/000709_2014-06-08_13-51-55_260595134347_rgbf000068-resize_3-target.png,1000,1.8030000000000002,3,3664,1001,feet,jsons/v1_VE1000_randls_23_rotated.json,765019,931105,38,Woman
112,266410,DepthScenes,duration_manipulation_targetAtFixation,jsons/v1_VE1000_randls_23_rotated.json,http://54.235.29.9/FacialAge/BNav_EC2/DepthDuration/v2_depth_duration_MTurk/v2_DepthDuration_HTML.html#216,216,1366,625,1366,768,9-18-2022,12-14-19,113,depth_duration_stimuli/002057_2014-06-24_21-00-13_260595134347_rgbf000120-resize_1/002057_2014-06-24_21-00-13_260595134347_rgbf000120-resize_1-target.png,1000,2.967,7,4510,1000,feet,jsons/v1_VE1000_randls_23_rotated.json,765019,931105,38,Woman
113,266410,DepthScenes,duration_manipulation_targetAtFixation,jsons/v1_VE1000_randls_23_rotated.json,http://54.235.29.9/FacialAge/BNav_EC2/DepthDuration/v2_depth_duration_MTurk/v2_DepthDuration_HTML.html#216,216,1366,625,1366,768,9-18-2022,12-14-19,114,depth_duration_stimuli/003081_2014-06-15_15-19-16_094959634447_rgbf000150-resize_1/003081_2014-06-15_15-19-16_094959634447_rgbf000150-resize_1-target.png,1000,3.9125,6,4374,995,feet,jsons/v1_VE1000_randls_23_rotated.json,765019,931105,38,Woman
114,266410,DepthScenes,duration_manipulation_targetAtFixation,jsons/v1_VE1000_randls_23_rotated.json,http://54.235.29.9/FacialAge/BNav_EC2/DepthDuration/v2_depth_duration_MTurk/v2_DepthDuration_HTML.html#216,216,1366,625,1366,768,9-18-2022,12-14-19,115,depth_duration_stimuli/001417_2014-06-19_16-25-36_260595134347_rgbf000115-resize_5/001417_2014-06-19_16-25-36_260595134347_rgbf000115-resize_5-target.png,1000,4.6255,4,4136,993,feet,jsons/v1_VE1000_randls_23_rotated.json,765019,931105,38,Woman
115,266410,DepthScenes,duration_manipulation_targetAtFixation,jsons/v1_VE1000_randls_23_rotated.json,http://54.235.29.9/FacialAge/BNav_EC2/DepthDuration/v2_depth_duration_MTurk/v2_DepthDuration_HTML.html#216,216,1366,625,1366,768,9-18-2022,12-14-19,116,depth_duration_stimuli/000409_2014-06-04_19-23-33_260595134347_rgbf000067-resize_0/000409_2014-06-04_19-23-33_260595134347_rgbf000067-resize_0-target.png,1000,3.7335,5,3876,1009,feet,jsons/v1_VE1000_randls_23_rotated.json,765019,931105,38,Woman
116,266410,DepthScenes,duration_manipulation_targetAtFixation,jsons/v1_VE1000_randls_23_rotated.json,http://54.235.29.9/FacialAge/BNav_EC2/DepthDuration/v2_depth_duration_MTurk/v2_DepthDuration_HTML.html#216,216,1366,625,1366,768,9-18-2022,12-14-19,117,depth_duration_stimuli/002663_2014-06-13_15-50-26_094959634447_rgbf000075-resize_1/002663_2014-06-13_15-50-26_094959634447_rgbf000075-resize_1-target.png,1000,4.7495,5,3695,986,feet,jsons/v1_VE1000_randls_23_rotated.json,765019,931105,38,Woman
117,266410,DepthScenes,duration_manipulation_targetAtFixation,jsons/v1_VE1000_randls_23_rotated.json,http://54.235.29.9/FacialAge/BNav_EC2/DepthDuration/v2_depth_duration_MTurk/v2_DepthDuration_HTML.html#216,216,1366,625,1366,768,9-18-2022,12-14-19,118,depth_duration_stimuli/000927_2014-06-09_16-32-30_260595134347_rgbf000123-resize_3/000927_2014-06-09_16-32-30_260595134347_rgbf000123-resize_3-target.png,1000,2.6785,5,3883,1001,feet,jsons/v1_VE1000_randls_23_rotated.json,765019,931105,38,Woman
118,266410,DepthScenes,duration_manipulation_targetAtFixation,jsons/v1_VE1000_randls_23_rotated.json,http://54.235.29.9/FacialAge/BNav_EC2/DepthDuration/v2_depth_duration_MTurk/v2_DepthDuration_HTML.html#216,216,1366,625,1366,768,9-18-2022,12-14-19,119,depth_duration_stimuli/001110_2014-06-15_17-25-28_260595134347_rgbf000150-resize_1/001110_2014-06-15_17-25-28_260595134347_rgbf000150-resize_1-target.png,1000,1.7115,4,3761,1000,feet,jsons/v1_VE1000_randls_23_rotated.json,765019,931105,38,Woman
119,266410,DepthScenes,duration_manipulation_targetAtFixation,jsons/v1_VE1000_randls_23_rotated.json,http://54.235.29.9/FacialAge/BNav_EC2/DepthDuration/v2_depth_duration_MTurk/v2_DepthDuration_HTML.html#216,216,1366,625,1366,768,9-18-2022,12-14-19,120,depth_duration_stimuli/000787_2014-06-08_22-33-53_260595134347_rgbf000175-resize_1/000787_2014-06-08_22-33-53_260595134347_rgbf000175-resize-original.jpg,1000,4.784,0,4569,993,feet,jsons/v1_VE1000_randls_23_rotated.json,765019,931105,38,Woman
120,266410,DepthScenes,duration_manipulation_targetAtFixation,jsons/v1_VE1000_randls_23_rotated.json,http://54.235.29.9/FacialAge/BNav_EC2/DepthDuration/v2_depth_duration_MTurk/v2_DepthDuration_HTML.html#216,216,1366,625,1366,768,9-18-2022,12-14-19,121,depth_duration_stimuli/000677_2014-06-08_23-10-32_260595134347_rgbf000158-resize_6/000677_2014-06-08_23-10-32_260595134347_rgbf000158-resize_6-target.png,1000,3.556,6,4420,996,feet,jsons/v1_VE1000_randls_23_rotated.json,765019,931105,38,Woman
121,266410,DepthScenes,duration_manipulation_targetAtFixation,jsons/v1_VE1000_randls_23_rotated.json,http://54.235.29.9/FacialAge/BNav_EC2/DepthDuration/v2_depth_duration_MTurk/v2_DepthDuration_HTML.html#216,216,1366,625,1366,768,9-18-2022,12-14-19,122,depth_duration_stimuli/001029_2014-06-08_13-17-57_260595134347_rgbf000065-resize_1/001029_2014-06-08_13-17-57_260595134347_rgbf000065-resize_1-target.png,1000,3.0835,5,4055,1000,feet,jsons/v1_VE1000_randls_23_rotated.json,765019,931105,38,Woman
122,266410,DepthScenes,duration_manipulation_targetAtFixation,jsons/v1_VE1000_randls_23_rotated.json,http://54.235.29.9/FacialAge/BNav_EC2/DepthDuration/v2_depth_duration_MTurk/v2_DepthDuration_HTML.html#216,216,1366,625,1366,768,9-18-2022,12-14-19,123,depth_duration_stimuli/003228_2014-05-14_13-42-35_094959634447_rgbf000101-resize_1/003228_2014-05-14_13-42-35_094959634447_rgbf000101-resize_1-target.png,1000,1.9680000000000002,3,3697,1001,feet,jsons/v1_VE1000_randls_23_rotated.json,765019,931105,38,Woman
123,266410,DepthScenes,duration_manipulation_targetAtFixation,jsons/v1_VE1000_randls_23_rotated.json,http://54.235.29.9/FacialAge/BNav_EC2/DepthDuration/v2_depth_duration_MTurk/v2_DepthDuration_HTML.html#216,216,1366,625,1366,768,9-18-2022,12-14-19,124,depth_duration_stimuli/002600_2014-06-24_14-27-04_094959634447_rgbf000074-resize_2/002600_2014-06-24_14-27-04_094959634447_rgbf000074-resize_2-target.png,1000,2.7575,5,4159,1001,feet,jsons/v1_VE1000_randls_23_rotated.json,765019,931105,38,Woman
124,266410,DepthScenes,duration_manipulation_targetAtFixation,jsons/v1_VE1000_randls_23_rotated.json,http://54.235.29.9/FacialAge/BNav_EC2/DepthDuration/v2_depth_duration_MTurk/v2_DepthDuration_HTML.html#216,216,1366,625,1366,768,9-18-2022,12-14-19,125,depth_duration_stimuli/002750_2014-06-22_19-08-03_094959634447_rgbf000094-resize_4/002750_2014-06-22_19-08-03_094959634447_rgbf000094-resize_4-target.png,1000,2.354,5,4107,1001,feet,jsons/v1_VE1000_randls_23_rotated.json,765019,931105,38,Woman
125,266410,DepthScenes,duration_manipulation_targetAtFixation,jsons/v1_VE1000_randls_23_rotated.json,http://54.235.29.9/FacialAge/BNav_EC2/DepthDuration/v2_depth_duration_MTurk/v2_DepthDuration_HTML.html#216,216,1366,625,1366,768,9-18-2022,12-14-19,126,depth_duration_stimuli/002549_2014-06-24_13-41-39_094959634447_rgbf000022-resize_3/002549_2014-06-24_13-41-39_094959634447_rgbf000022-resize_3-target.png,1000,1.476,3,4387,1002,feet,jsons/v1_VE1000_randls_23_rotated.json,765019,931105,38,Woman
126,266410,DepthScenes,duration_manipulation_targetAtFixation,jsons/v1_VE1000_randls_23_rotated.json,http://54.235.29.9/FacialAge/BNav_EC2/DepthDuration/v2_depth_duration_MTurk/v2_DepthDuration_HTML.html#216,216,1366,625,1366,768,9-18-2022,12-14-19,127,depth_duration_stimuli/002323_2014-06-28_20-01-54_260595134347_rgbf000051-resize_4/002323_2014-06-28_20-01-54_260595134347_rgbf000051-resize_4-target.png,1000,3.7310000000000003,7,4093,1001,feet,jsons/v1_VE1000_randls_23_rotated.json,765019,931105,38,Woman
127,266410,DepthScenes,duration_manipulation_targetAtFixation,jsons/v1_VE1000_randls_23_rotated.json,http://54.235.29.9/FacialAge/BNav_EC2/DepthDuration/v2_depth_duration_MTurk/v2_DepthDuration_HTML.html#216,216,1366,625,1366,768,9-18-2022,12-14-19,128,depth_duration_stimuli/000917_2014-06-09_22-45-29_260595134347_rgbf000149-resize_3/000917_2014-06-09_22-45-29_260595134347_rgbf000149-resize_3-target.png,1000,4.1865,9,4082,1006,feet,jsons/v1_VE1000_randls_23_rotated.json,765019,931105,38,Woman
128,266410,DepthScenes,duration_manipulation_targetAtFixation,jsons/v1_VE1000_randls_23_rotated.json,http://54.235.29.9/FacialAge/BNav_EC2/DepthDuration/v2_depth_duration_MTurk/v2_DepthDuration_HTML.html#216,216,1366,625,1366,768,9-18-2022,12-14-19,129,depth_duration_stimuli/002949_2014-06-26_15-57-42_094959634447_rgbf000079-resize_1/002949_2014-06-26_15-57-42_094959634447_rgbf000079-resize_1-target.png,1000,1.8915,3,3758,1000,feet,jsons/v1_VE1000_randls_23_rotated.json,765019,931105,38,Woman
129,266410,DepthScenes,duration_manipulation_targetAtFixation,jsons/v1_VE1000_randls_23_rotated.json,http://54.235.29.9/FacialAge/BNav_EC2/DepthDuration/v2_depth_duration_MTurk/v2_DepthDuration_HTML.html#216,216,1366,625,1366,768,9-18-2022,12-14-19,130,depth_duration_stimuli/000522_2014-06-08_13-35-06_260595134347_rgbf000244-resize_1/000522_2014-06-08_13-35-06_260595134347_rgbf000244-resize_1-target.png,1000,2.3715,1,3763,991,feet,jsons/v1_VE1000_randls_23_rotated.json,765019,931105,38,Woman
130,266410,DepthScenes,duration_manipulation_targetAtFixation,jsons/v1_VE1000_randls_23_rotated.json,http://54.235.29.9/FacialAge/BNav_EC2/DepthDuration/v2_depth_duration_MTurk/v2_DepthDuration_HTML.html#216,216,1366,625,1366,768,9-18-2022,12-14-19,131,depth_duration_stimuli/002209_2014-06-28_18-36-10_260595134347_rgbf000051-resize_1/002209_2014-06-28_18-36-10_260595134347_rgbf000051-resize_1-target.png,1000,2.057,2,3821,1000,feet,jsons/v1_VE1000_randls_23_rotated.json,765019,931105,38,Woman
131,266410,DepthScenes,duration_manipulation_targetAtFixation,jsons/v1_VE1000_randls_23_rotated.json,http://54.235.29.9/FacialAge/BNav_EC2/DepthDuration/v2_depth_duration_MTurk/v2_DepthDuration_HTML.html#216,216,1366,625,1366,768,9-18-2022,12-14-19,132,depth_duration_stimuli/002763_2014-06-22_19-13-10_094959634447_rgbf000075-resize_4/002763_2014-06-22_19-13-10_094959634447_rgbf000075-resize_4-target.png,1000,1.68375,3,4080,1001,feet,jsons/v1_VE1000_randls_23_rotated.json,765019,931105,38,Woman
132,266410,DepthScenes,duration_manipulation_targetAtFixation,jsons/v1_VE1000_randls_23_rotated.json,http://54.235.29.9/FacialAge/BNav_EC2/DepthDuration/v2_depth_duration_MTurk/v2_DepthDuration_HTML.html#216,216,1366,625,1366,768,9-18-2022,12-14-19,133,depth_duration_stimuli/003048_2014-06-15_13-49-43_094959634447_rgbf000150-resize_1/003048_2014-06-15_13-49-43_094959634447_rgbf000150-resize_1-target.png,1000,4.0035,6,3681,1001,feet,jsons/v1_VE1000_randls_23_rotated.json,765019,931105,38,Woman
133,266410,DepthScenes,duration_manipulation_targetAtFixation,jsons/v1_VE1000_randls_23_rotated.json,http://54.235.29.9/FacialAge/BNav_EC2/DepthDuration/v2_depth_duration_MTurk/v2_DepthDuration_HTML.html#216,216,1366,625,1366,768,9-18-2022,12-14-19,134,depth_duration_stimuli/002043_2014-06-24_20-29-38_260595134347_rgbf000039-resize_4/002043_2014-06-24_20-29-38_260595134347_rgbf000039-resize_4-target.png,1000,2.8435,6,4167,999,feet,jsons/v1_VE1000_randls_23_rotated.json,765019,931105,38,Woman
134,266410,DepthScenes,duration_manipulation_targetAtFixation,jsons/v1_VE1000_randls_23_rotated.json,http://54.235.29.9/FacialAge/BNav_EC2/DepthDuration/v2_depth_duration_MTurk/v2_DepthDuration_HTML.html#216,216,1366,625,1366,768,9-18-2022,12-14-19,135,depth_duration_stimuli/000375_2014-06-08_11-17-29_260595134347_rgbf000133-resize_2/000375_2014-06-08_11-17-29_260595134347_rgbf000133-resize-original.jpg,1000,4.718,0,3950,982,feet,jsons/v1_VE1000_randls_23_rotated.json,765019,931105,38,Woman
135,266410,DepthScenes,duration_manipulation_targetAtFixation,jsons/v1_VE1000_randls_23_rotated.json,http://54.235.29.9/FacialAge/BNav_EC2/DepthDuration/v2_depth_duration_MTurk/v2_DepthDuration_HTML.html#216,216,1366,625,1366,768,9-18-2022,12-14-19,136,depth_duration_stimuli/001052_2014-06-08_18-24-54_260595134347_rgbf000130-resize_1/001052_2014-06-08_18-24-54_260595134347_rgbf000130-resize_1-target.png,1000,4.1045,6,3703,1001,feet,jsons/v1_VE1000_randls_23_rotated.json,765019,931105,38,Woman
136,266410,DepthScenes,duration_manipulation_targetAtFixation,jsons/v1_VE1000_randls_23_rotated.json,http://54.235.29.9/FacialAge/BNav_EC2/DepthDuration/v2_depth_duration_MTurk/v2_DepthDuration_HTML.html#216,216,1366,625,1366,768,9-18-2022,12-14-19,137,depth_duration_stimuli/002988_2014-06-15_12-24-20_094959634447_rgbf000150-resize_1/002988_2014-06-15_12-24-20_094959634447_rgbf000150-resize_1-target.png,1000,4.7669999999999995,8,3725,1000,feet,jsons/v1_VE1000_randls_23_rotated.json,765019,931105,38,Woman
137,266410,DepthScenes,duration_manipulation_targetAtFixation,jsons/v1_VE1000_randls_23_rotated.json,http://54.235.29.9/FacialAge/BNav_EC2/DepthDuration/v2_depth_duration_MTurk/v2_DepthDuration_HTML.html#216,216,1366,625,1366,768,9-18-2022,12-14-19,138,depth_duration_stimuli/002875_2014-06-01_15-19-00_094959634447_rgbf000151-resize_1/002875_2014-06-01_15-19-00_094959634447_rgbf000151-resize_1-target.png,1000,1.9675,3,3945,1005,feet,jsons/v1_VE1000_randls_23_rotated.json,765019,931105,38,Woman
138,266410,DepthScenes,duration_manipulation_targetAtFixation,jsons/v1_VE1000_randls_23_rotated.json,http://54.235.29.9/FacialAge/BNav_EC2/DepthDuration/v2_depth_duration_MTurk/v2_DepthDuration_HTML.html#216,216,1366,625,1366,768,9-18-2022,12-14-19,139,depth_duration_stimuli/001011_2014-06-08_23-18-54_260595134347_rgbf000044-resize_4/001011_2014-06-08_23-18-54_260595134347_rgbf000044-resize_4-target.png,1000,2.4730000000000003,5,3909,998,feet,jsons/v1_VE1000_randls_23_rotated.json,765019,931105,38,Woman
139,266410,DepthScenes,duration_manipulation_targetAtFixation,jsons/v1_VE1000_randls_23_rotated.json,http://54.235.29.9/FacialAge/BNav_EC2/DepthDuration/v2_depth_duration_MTurk/v2_DepthDuration_HTML.html#216,216,1366,625,1366,768,9-18-2022,12-14-19,140,depth_duration_stimuli/002660_2014-06-13_15-44-18_094959634447_rgbf001878-resize_2/002660_2014-06-13_15-44-18_094959634447_rgbf001878-resize_2-target.png,1000,3.576,6,3667,1001,feet,jsons/v1_VE1000_randls_23_rotated.json,765019,931105,38,Woman
140,266410,DepthScenes,duration_manipulation_targetAtFixation,jsons/v1_VE1000_randls_23_rotated.json,http://54.235.29.9/FacialAge/BNav_EC2/DepthDuration/v2_depth_duration_MTurk/v2_DepthDuration_HTML.html#216,216,1366,625,1366,768,9-18-2022,12-14-19,141,depth_duration_stimuli/002153_2014-06-25_21-27-18_260595134347_rgbf000038-resize_5/002153_2014-06-25_21-27-18_260595134347_rgbf000038-resize_5-target.png,1000,2.505,5,3599,987,feet,jsons/v1_VE1000_randls_23_rotated.json,765019,931105,38,Woman
141,266410,DepthScenes,duration_manipulation_targetAtFixation,jsons/v1_VE1000_randls_23_rotated.json,http://54.235.29.9/FacialAge/BNav_EC2/DepthDuration/v2_depth_duration_MTurk/v2_DepthDuration_HTML.html#216,216,1366,625,1366,768,9-18-2022,12-14-19,142,depth_duration_stimuli/003083_2014-06-15_15-21-03_094959634447_rgbf000063-resize_1/003083_2014-06-15_15-21-03_094959634447_rgbf000063-resize_1-target.png,1000,4.1405,8,3724,997,feet,jsons/v1_VE1000_randls_23_rotated.json,765019,931105,38,Woman
142,266410,DepthScenes,duration_manipulation_targetAtFixation,jsons/v1_VE1000_randls_23_rotated.json,http://54.235.29.9/FacialAge/BNav_EC2/DepthDuration/v2_depth_duration_MTurk/v2_DepthDuration_HTML.html#216,216,1366,625,1366,768,9-18-2022,12-14-19,143,depth_duration_stimuli/000486_2014-06-09_20-47-20_260595134347_rgbf000143-resize_2/000486_2014-06-09_20-47-20_260595134347_rgbf000143-resize_2-target.png,1000,4.8325,4,4054,986,feet,jsons/v1_VE1000_randls_23_rotated.json,765019,931105,38,Woman
143,266410,DepthScenes,duration_manipulation_targetAtFixation,jsons/v1_VE1000_randls_23_rotated.json,http://54.235.29.9/FacialAge/BNav_EC2/DepthDuration/v2_depth_duration_MTurk/v2_DepthDuration_HTML.html#216,216,1366,625,1366,768,9-18-2022,12-14-19,144,depth_duration_stimuli/003423_2014-05-21_10-23-26_094959634447_rgbf002665-resize_2/003423_2014-05-21_10-23-26_094959634447_rgbf002665-resize_2-target.png,1000,3.2575,7,3827,1000,feet,jsons/v1_VE1000_randls_23_rotated.json,765019,931105,38,Woman
144,266410,DepthScenes,duration_manipulation_targetAtFixation,jsons/v1_VE1000_randls_23_rotated.json,http://54.235.29.9/FacialAge/BNav_EC2/DepthDuration/v2_depth_duration_MTurk/v2_DepthDuration_HTML.html#216,216,1366,625,1366,768,9-18-2022,12-14-19,145,depth_duration_stimuli/002905_2014-06-03_18-04-43_094959634447_rgbf000151-resize_2/002905_2014-06-03_18-04-43_094959634447_rgbf000151-resize_2-target.png,1000,2.0295,3,3947,994,feet,jsons/v1_VE1000_randls_23_rotated.json,765019,931105,38,Woman
145,266410,DepthScenes,duration_manipulation_targetAtFixation,jsons/v1_VE1000_randls_23_rotated.json,http://54.235.29.9/FacialAge/BNav_EC2/DepthDuration/v2_depth_duration_MTurk/v2_DepthDuration_HTML.html#216,216,1366,625,1366,768,9-18-2022,12-14-19,146,depth_duration_stimuli/000943_2014-06-09_19-31-07_260595134347_rgbf000128-resize_1/000943_2014-06-09_19-31-07_260595134347_rgbf000128-resize_1-target.png,1000,1.9765,3,3798,999,feet,jsons/v1_VE1000_randls_23_rotated.json,765019,931105,38,Woman
146,266410,DepthScenes,duration_manipulation_targetAtFixation,jsons/v1_VE1000_randls_23_rotated.json,http://54.235.29.9/FacialAge/BNav_EC2/DepthDuration/v2_depth_duration_MTurk/v2_DepthDuration_HTML.html#216,216,1366,625,1366,768,9-18-2022,12-14-19,147,depth_duration_stimuli/003070_2014-06-15_14-58-27_094959634447_rgbf000150-resize_3/003070_2014-06-15_14-58-27_094959634447_rgbf000150-resize_3-target.png,1000,2.9415,2,8072,1003,feet,jsons/v1_VE1000_randls_23_rotated.json,765019,931105,38,Woman
147,266410,DepthScenes,duration_manipulation_targetAtFixation,jsons/v1_VE1000_randls_23_rotated.json,http://54.235.29.9/FacialAge/BNav_EC2/DepthDuration/v2_depth_duration_MTurk/v2_DepthDuration_HTML.html#216,216,1366,625,1366,768,9-18-2022,12-14-19,148,depth_duration_stimuli/003129_2014-05-12_10-48-10_094959634447_rgbf000100-resize_0/003129_2014-05-12_10-48-10_094959634447_rgbf000100-resize_0-target.png,1000,4.9305,7,5131,998,feet,jsons/v1_VE1000_randls_23_rotated.json,765019,931105,38,Woman
148,266410,DepthScenes,duration_manipulation_targetAtFixation,jsons/v1_VE1000_randls_23_rotated.json,http://54.235.29.9/FacialAge/BNav_EC2/DepthDuration/v2_depth_duration_MTurk/v2_DepthDuration_HTML.html#216,216,1366,625,1366,768,9-18-2022,12-14-19,149,depth_duration_stimuli/000414_2014-06-04_19-49-13_260595134347_rgbf000044-resize_0/000414_2014-06-04_19-49-13_260595134347_rgbf000044-resize_0-target.png,1000,4.329,7,4245,1001,feet,jsons/v1_VE1000_randls_23_rotated.json,765019,931105,38,Woman
149,266410,DepthScenes,duration_manipulation_targetAtFixation,jsons/v1_VE1000_randls_23_rotated.json,http://54.235.29.9/FacialAge/BNav_EC2/DepthDuration/v2_depth_duration_MTurk/v2_DepthDuration_HTML.html#216,216,1366,625,1366,768,9-18-2022,12-14-19,150,depth_duration_stimuli/002545_2014-06-24_13-38-53_094959634447_rgbf000080-resize_4/002545_2014-06-24_13-38-53_094959634447_rgbf000080-resize_4-target.png,1000,1.9205,6,3744,999,feet,jsons/v1_VE1000_randls_23_rotated.json,765019,931105,38,Woman
150,266410,DepthScenes,duration_manipulation_targetAtFixation,jsons/v1_VE1000_randls_23_rotated.json,http://54.235.29.9/FacialAge/BNav_EC2/DepthDuration/v2_depth_duration_MTurk/v2_DepthDuration_HTML.html#216,216,1366,625,1366,768,9-18-2022,12-14-19,151,depth_duration_stimuli/001092_2014-06-15_17-34-58_260595134347_rgbf000171-resize_3/001092_2014-06-15_17-34-58_260595134347_rgbf000171-resize_3-target.png,1000,2.6935,5,4310,1001,feet,jsons/v1_VE1000_randls_23_rotated.json,765019,931105,38,Woman
151,266410,DepthScenes,duration_manipulation_targetAtFixation,jsons/v1_VE1000_randls_23_rotated.json,http://54.235.29.9/FacialAge/BNav_EC2/DepthDuration/v2_depth_duration_MTurk/v2_DepthDuration_HTML.html#216,216,1366,625,1366,768,9-18-2022,12-14-19,152,depth_duration_stimuli/000569_2014-06-09_22-51-47_260595134347_rgbf000141-resize_3/000569_2014-06-09_22-51-47_260595134347_rgbf000141-resize-original.jpg,1000,4.512,0,3896,1006,feet,jsons/v1_VE1000_randls_23_rotated.json,765019,931105,38,Woman
152,266410,DepthScenes,duration_manipulation_targetAtFixation,jsons/v1_VE1000_randls_23_rotated.json,http://54.235.29.9/FacialAge/BNav_EC2/DepthDuration/v2_depth_duration_MTurk/v2_DepthDuration_HTML.html#216,216,1366,625,1366,768,9-18-2022,12-14-19,153,depth_duration_stimuli/002199_2014-06-28_18-33-56_260595134347_rgbf000074-resize_0/002199_2014-06-28_18-33-56_260595134347_rgbf000074-resize_0-target.png,1000,1.996,2,3966,992,feet,jsons/v1_VE1000_randls_23_rotated.json,765019,931105,38,Woman
153,266410,DepthScenes,duration_manipulation_targetAtFixation,jsons/v1_VE1000_randls_23_rotated.json,http://54.235.29.9/FacialAge/BNav_EC2/DepthDuration/v2_depth_duration_MTurk/v2_DepthDuration_HTML.html#216,216,1366,625,1366,768,9-18-2022,12-14-19,154,depth_duration_stimuli/001056_2014-06-08_18-46-44_260595134347_rgbf000068-resize_0/001056_2014-06-08_18-46-44_260595134347_rgbf000068-resize_0-target.png,1000,2.6625,4,4146,1005,feet,jsons/v1_VE1000_randls_23_rotated.json,765019,931105,38,Woman
154,266410,DepthScenes,duration_manipulation_targetAtFixation,jsons/v1_VE1000_randls_23_rotated.json,http://54.235.29.9/FacialAge/BNav_EC2/DepthDuration/v2_depth_duration_MTurk/v2_DepthDuration_HTML.html#216,216,1366,625,1366,768,9-18-2022,12-14-19,155,depth_duration_stimuli/002425_2014-06-28_20-27-29_260595134347_rgbf000031-resize_8/002425_2014-06-28_20-27-29_260595134347_rgbf000031-resize_8-target.png,1000,3.8960000000000004,5,7407,1001,feet,jsons/v1_VE1000_randls_23_rotated.json,765019,931105,38,Woman
155,266410,DepthScenes,duration_manipulation_targetAtFixation,jsons/v1_VE1000_randls_23_rotated.json,http://54.235.29.9/FacialAge/BNav_EC2/DepthDuration/v2_depth_duration_MTurk/v2_DepthDuration_HTML.html#216,216,1366,625,1366,768,9-18-2022,12-14-19,156,depth_duration_stimuli/000642_2014-06-08_16-59-25_260595134347_rgbf000098-resize_2/000642_2014-06-08_16-59-25_260595134347_rgbf000098-resize_2-target.png,1000,2.8815,4,3526,1003,feet,jsons/v1_VE1000_randls_23_rotated.json,765019,931105,38,Woman
156,266410,DepthScenes,duration_manipulation_targetAtFixation,jsons/v1_VE1000_randls_23_rotated.json,http://54.235.29.9/FacialAge/BNav_EC2/DepthDuration/v2_depth_duration_MTurk/v2_DepthDuration_HTML.html#216,216,1366,625,1366,768,9-18-2022,12-14-19,157,depth_duration_stimuli/000665_2014-06-09_20-42-35_260595134347_rgbf000110-resize_1/000665_2014-06-09_20-42-35_260595134347_rgbf000110-resize_1-target.png,1000,3.057,5,3930,1001,feet,jsons/v1_VE1000_randls_23_rotated.json,765019,931105,38,Woman
157,266410,DepthScenes,duration_manipulation_targetAtFixation,jsons/v1_VE1000_randls_23_rotated.json,http://54.235.29.9/FacialAge/BNav_EC2/DepthDuration/v2_depth_duration_MTurk/v2_DepthDuration_HTML.html#216,216,1366,625,1366,768,9-18-2022,12-14-19,158,depth_duration_stimuli/001150_2014-06-17_15-27-34_260595134347_rgbf000108-resize_2/001150_2014-06-17_15-27-34_260595134347_rgbf000108-resize_2-target.png,1000,4.0325,6,5436,1001,feet,jsons/v1_VE1000_randls_23_rotated.json,765019,931105,38,Woman
158,266410,DepthScenes,duration_manipulation_targetAtFixation,jsons/v1_VE1000_randls_23_rotated.json,http://54.235.29.9/FacialAge/BNav_EC2/DepthDuration/v2_depth_duration_MTurk/v2_DepthDuration_HTML.html#216,216,1366,625,1366,768,9-18-2022,12-14-19,159,depth_duration_stimuli/001450_2014-06-19_17-02-03_260595134347_rgbf000203-resize_4/001450_2014-06-19_17-02-03_260595134347_rgbf000203-resize_4-target.png,1000,4.0106666666667,7,4150,1015,feet,jsons/v1_VE1000_randls_23_rotated.json,765019,931105,38,Woman
159,266410,DepthScenes,duration_manipulation_targetAtFixation,jsons/v1_VE1000_randls_23_rotated.json,http://54.235.29.9/FacialAge/BNav_EC2/DepthDuration/v2_depth_duration_MTurk/v2_DepthDuration_HTML.html#216,216,1366,625,1366,768,9-18-2022,12-14-19,160,depth_duration_stimuli/001449_2014-06-19_17-01-27_260595134347_rgbf000116-resize_2/001449_2014-06-19_17-01-27_260595134347_rgbf000116-resize_2-target.png,1000,3.452,5,4536,1013,feet,jsons/v1_VE1000_randls_23_rotated.json,765019,931105,38,Woman
160,266410,DepthScenes,duration_manipulation_targetAtFixation,jsons/v1_VE1000_randls_23_rotated.json,http://54.235.29.9/FacialAge/BNav_EC2/DepthDuration/v2_depth_duration_MTurk/v2_DepthDuration_HTML.html#216,216,1366,625,1366,768,9-18-2022,12-14-19,161,depth_duration_stimuli/002444_2014-06-28_20-32-08_260595134347_rgbf000027-resize_0/002444_2014-06-28_20-32-08_260595134347_rgbf000027-resize_0-target.png,1000,4.388999999999999,6,3906,999,feet,jsons/v1_VE1000_randls_23_rotated.json,765019,931105,38,Woman
161,266410,DepthScenes,duration_manipulation_targetAtFixation,jsons/v1_VE1000_randls_23_rotated.json,http://54.235.29.9/FacialAge/BNav_EC2/DepthDuration/v2_depth_duration_MTurk/v2_DepthDuration_HTML.html#216,216,1366,625,1366,768,9-18-2022,12-14-19,162,depth_duration_stimuli/000436_2014-06-09_22-25-11_260595134347_rgbf000137-resize_1/000436_2014-06-09_22-25-11_260595134347_rgbf000137-resize_1-target.png,1000,4.0705,9,3612,1003,feet,jsons/v1_VE1000_randls_23_rotated.json,765019,931105,38,Woman
162,266410,DepthScenes,duration_manipulation_targetAtFixation,jsons/v1_VE1000_randls_23_rotated.json,http://54.235.29.9/FacialAge/BNav_EC2/DepthDuration/v2_depth_duration_MTurk/v2_DepthDuration_HTML.html#216,216,1366,625,1366,768,9-18-2022,12-14-19,163,depth_duration_stimuli/001650_2014-06-20_12-09-00_260595134347_rgbf000087-resize_3/001650_2014-06-20_12-09-00_260595134347_rgbf000087-resize_3-target.png,1000,1.9505,1,3870,1001,feet,jsons/v1_VE1000_randls_23_rotated.json,765019,931105,38,Woman
163,266410,DepthScenes,duration_manipulation_targetAtFixation,jsons/v1_VE1000_randls_23_rotated.json,http://54.235.29.9/FacialAge/BNav_EC2/DepthDuration/v2_depth_duration_MTurk/v2_DepthDuration_HTML.html#216,216,1366,625,1366,768,9-18-2022,12-14-19,164,depth_duration_stimuli/000682_2014-06-08_23-14-58_260595134347_rgbf000041-resize_5/000682_2014-06-08_23-14-58_260595134347_rgbf000041-resize_5-target.png,1000,2.7239999999999998,2,3954,1010,feet,jsons/v1_VE1000_randls_23_rotated.json,765019,931105,38,Woman
