,subjID,experimentName,versionName,sequenceName,url,selected_row,windowWidth,windowHeight,screenWidth,screenHeight,startDate,startTime,trial,stimulus,duration,actual_depth,depth_estimate,trial_RT,log_sceneDuration,unitSelection,seq_filepath,experimentTime,totalTime,age,gender
0,268002,DepthScenes,duration_manipulation_targetAtFixation,jsons/VE125_randls_43.json,http://54.235.29.9/FacialAge/BNav_EC2/DepthDuration/v2_depth_duration_MTurk/v2_DepthDuration_HTML.html#87,87,1366,768,1366,768,8-29-2022,16-37-59,1,depth_duration_stimuli/001092_2014-06-15_17-34-58_260595134347_rgbf000171-resize_3/001092_2014-06-15_17-34-58_260595134347_rgbf000171-resize_3-target.png,125,2.6935,3,14061,120,meters,jsons/VE125_randls_43.json,1052463,1329620,57,Woman
1,268002,DepthScenes,duration_manipulation_targetAtFixation,jsons/VE125_randls_43.json,http://54.235.29.9/FacialAge/BNav_EC2/DepthDuration/v2_depth_duration_MTurk/v2_DepthDuration_HTML.html#87,87,1366,768,1366,768,8-29-2022,16-37-59,2,depth_duration_stimuli/002545_2014-06-24_13-38-53_094959634447_rgbf000080-resize_4/002545_2014-06-24_13-38-53_094959634447_rgbf000080-resize_4-target.png,125,1.9205,3,3106,130,meters,jsons/VE125_randls_43.json,1052463,1329620,57,Woman
2,268002,DepthScenes,duration_manipulation_targetAtFixation,jsons/VE125_randls_43.json,http://54.235.29.9/FacialAge/BNav_EC2/DepthDuration/v2_depth_duration_MTurk/v2_DepthDuration_HTML.html#87,87,1366,768,1366,768,8-29-2022,16-37-59,3,depth_duration_stimuli/000368_2014-06-09_15-53-01_260595134347_rgbf000155-resize_2/000368_2014-06-09_15-53-01_260595134347_rgbf000155-resize_2-target.png,125,2.4859999999999998,2,3829,128,meters,jsons/VE125_randls_43.json,1052463,1329620,57,Woman
3,268002,DepthScenes,duration_manipulation_targetAtFixation,jsons/VE125_randls_43.json,http://54.235.29.9/FacialAge/BNav_EC2/DepthDuration/v2_depth_duration_MTurk/v2_DepthDuration_HTML.html#87,87,1366,768,1366,768,8-29-2022,16-37-59,4,depth_duration_stimuli/002678_2014-06-13_16-15-32_094959634447_rgbf000151-resize_6/002678_2014-06-13_16-15-32_094959634447_rgbf000151-resize_6-target.png,125,2.1830000000000003,5,3340,130,meters,jsons/VE125_randls_43.json,1052463,1329620,57,Woman
4,268002,DepthScenes,duration_manipulation_targetAtFixation,jsons/VE125_randls_43.json,http://54.235.29.9/FacialAge/BNav_EC2/DepthDuration/v2_depth_duration_MTurk/v2_DepthDuration_HTML.html#87,87,1366,768,1366,768,8-29-2022,16-37-59,5,depth_duration_stimuli/001055_2014-06-08_18-45-35_260595134347_rgbf000111-resize_4/001055_2014-06-08_18-45-35_260595134347_rgbf000111-resize_4-target.png,125,2.4290000000000003,0,3590,135,meters,jsons/VE125_randls_43.json,1052463,1329620,57,Woman
5,268002,DepthScenes,duration_manipulation_targetAtFixation,jsons/VE125_randls_43.json,http://54.235.29.9/FacialAge/BNav_EC2/DepthDuration/v2_depth_duration_MTurk/v2_DepthDuration_HTML.html#87,87,1366,768,1366,768,8-29-2022,16-37-59,6,depth_duration_stimuli/000549_2014-06-08_22-10-24_260595134347_rgbf000247-resize_3/000549_2014-06-08_22-10-24_260595134347_rgbf000247-resize_3-target.png,125,1.841,4,4759,114,meters,jsons/VE125_randls_43.json,1052463,1329620,57,Woman
6,268002,DepthScenes,duration_manipulation_targetAtFixation,jsons/VE125_randls_43.json,http://54.235.29.9/FacialAge/BNav_EC2/DepthDuration/v2_depth_duration_MTurk/v2_DepthDuration_HTML.html#87,87,1366,768,1366,768,8-29-2022,16-37-59,7,depth_duration_stimuli/000773_2014-06-08_22-24-54_260595134347_rgbf000093-resize_1/000773_2014-06-08_22-24-54_260595134347_rgbf000093-resize_1-target.png,125,4.973,5,3697,125,meters,jsons/VE125_randls_43.json,1052463,1329620,57,Woman
7,268002,DepthScenes,duration_manipulation_targetAtFixation,jsons/VE125_randls_43.json,http://54.235.29.9/FacialAge/BNav_EC2/DepthDuration/v2_depth_duration_MTurk/v2_DepthDuration_HTML.html#87,87,1366,768,1366,768,8-29-2022,16-37-59,8,depth_duration_stimuli/002414_2014-06-28_20-24-58_260595134347_rgbf000067-resize_4/002414_2014-06-28_20-24-58_260595134347_rgbf000067-resize_4-target.png,125,4.363,2,3543,123,meters,jsons/VE125_randls_43.json,1052463,1329620,57,Woman
8,268002,DepthScenes,duration_manipulation_targetAtFixation,jsons/VE125_randls_43.json,http://54.235.29.9/FacialAge/BNav_EC2/DepthDuration/v2_depth_duration_MTurk/v2_DepthDuration_HTML.html#87,87,1366,768,1366,768,8-29-2022,16-37-59,9,depth_duration_stimuli/003292_2014-05-14_21-53-49_094959634447_rgbf000100-resize_2/003292_2014-05-14_21-53-49_094959634447_rgbf000100-resize_2-target.png,125,3.4815,3,3542,123,meters,jsons/VE125_randls_43.json,1052463,1329620,57,Woman
9,268002,DepthScenes,duration_manipulation_targetAtFixation,jsons/VE125_randls_43.json,http://54.235.29.9/FacialAge/BNav_EC2/DepthDuration/v2_depth_duration_MTurk/v2_DepthDuration_HTML.html#87,87,1366,768,1366,768,8-29-2022,16-37-59,10,depth_duration_stimuli/002639_2014-06-24_14-51-37_094959634447_rgbf000074-resize_4/002639_2014-06-24_14-51-37_094959634447_rgbf000074-resize_4-target.png,125,4.0375,4,9032,125,meters,jsons/VE125_randls_43.json,1052463,1329620,57,Woman
10,268002,DepthScenes,duration_manipulation_targetAtFixation,jsons/VE125_randls_43.json,http://54.235.29.9/FacialAge/BNav_EC2/DepthDuration/v2_depth_duration_MTurk/v2_DepthDuration_HTML.html#87,87,1366,768,1366,768,8-29-2022,16-37-59,11,depth_duration_stimuli/001167_2014-06-17_15-38-07_260595134347_rgbf000108-resize_0/001167_2014-06-17_15-38-07_260595134347_rgbf000108-resize_0-target.png,125,1.8505,0,3421,139,meters,jsons/VE125_randls_43.json,1052463,1329620,57,Woman
11,268002,DepthScenes,duration_manipulation_targetAtFixation,jsons/VE125_randls_43.json,http://54.235.29.9/FacialAge/BNav_EC2/DepthDuration/v2_depth_duration_MTurk/v2_DepthDuration_HTML.html#87,87,1366,768,1366,768,8-29-2022,16-37-59,12,depth_duration_stimuli/003587_2014-05-23_16-48-02_094959634447_rgbf002384-resize_2/003587_2014-05-23_16-48-02_094959634447_rgbf002384-resize_2-target.png,125,1.357,2,4033,78,meters,jsons/VE125_randls_43.json,1052463,1329620,57,Woman
12,268002,DepthScenes,duration_manipulation_targetAtFixation,jsons/VE125_randls_43.json,http://54.235.29.9/FacialAge/BNav_EC2/DepthDuration/v2_depth_duration_MTurk/v2_DepthDuration_HTML.html#87,87,1366,768,1366,768,8-29-2022,16-37-59,13,depth_duration_stimuli/000569_2014-06-09_22-51-47_260595134347_rgbf000141-resize_3/000569_2014-06-09_22-51-47_260595134347_rgbf000141-resize-original.jpg,125,4.512,0,3683,125,meters,jsons/VE125_randls_43.json,1052463,1329620,57,Woman
13,268002,DepthScenes,duration_manipulation_targetAtFixation,jsons/VE125_randls_43.json,http://54.235.29.9/FacialAge/BNav_EC2/DepthDuration/v2_depth_duration_MTurk/v2_DepthDuration_HTML.html#87,87,1366,768,1366,768,8-29-2022,16-37-59,14,depth_duration_stimuli/002748_2014-06-22_19-07-22_094959634447_rgbf000078-resize_1/002748_2014-06-22_19-07-22_094959634447_rgbf000078-resize_1-target.png,125,4.6705,1,5513,150,meters,jsons/VE125_randls_43.json,1052463,1329620,57,Woman
14,268002,DepthScenes,duration_manipulation_targetAtFixation,jsons/VE125_randls_43.json,http://54.235.29.9/FacialAge/BNav_EC2/DepthDuration/v2_depth_duration_MTurk/v2_DepthDuration_HTML.html#87,87,1366,768,1366,768,8-29-2022,16-37-59,15,depth_duration_stimuli/002995_2014-06-15_12-31-26_094959634447_rgbf000150-resize_1/002995_2014-06-15_12-31-26_094959634447_rgbf000150-resize_1-target.png,125,3.8360000000000003,3,3073,123,meters,jsons/VE125_randls_43.json,1052463,1329620,57,Woman
15,268002,DepthScenes,duration_manipulation_targetAtFixation,jsons/VE125_randls_43.json,http://54.235.29.9/FacialAge/BNav_EC2/DepthDuration/v2_depth_duration_MTurk/v2_DepthDuration_HTML.html#87,87,1366,768,1366,768,8-29-2022,16-37-59,16,depth_duration_stimuli/000470_2014-06-09_19-42-40_260595134347_rgbf000094-resize_1/000470_2014-06-09_19-42-40_260595134347_rgbf000094-resize_1-target.png,125,1.831,5,2692,125,meters,jsons/VE125_randls_43.json,1052463,1329620,57,Woman
16,268002,DepthScenes,duration_manipulation_targetAtFixation,jsons/VE125_randls_43.json,http://54.235.29.9/FacialAge/BNav_EC2/DepthDuration/v2_depth_duration_MTurk/v2_DepthDuration_HTML.html#87,87,1366,768,1366,768,8-29-2022,16-37-59,17,depth_duration_stimuli/000109_2014-05-14_23-41-52_260595134347_rgbf000035-resize_9/000109_2014-05-14_23-41-52_260595134347_rgbf000035-resize_9-target.png,125,1.3545,4,2916,125,meters,jsons/VE125_randls_43.json,1052463,1329620,57,Woman
17,268002,DepthScenes,duration_manipulation_targetAtFixation,jsons/VE125_randls_43.json,http://54.235.29.9/FacialAge/BNav_EC2/DepthDuration/v2_depth_duration_MTurk/v2_DepthDuration_HTML.html#87,87,1366,768,1366,768,8-29-2022,16-37-59,18,depth_duration_stimuli/001810_2014-06-26_20-51-35_260595134347_rgbf000040-resize_3/001810_2014-06-26_20-51-35_260595134347_rgbf000040-resize_3-target.png,125,2.2525,2,3067,123,meters,jsons/VE125_randls_43.json,1052463,1329620,57,Woman
18,268002,DepthScenes,duration_manipulation_targetAtFixation,jsons/VE125_randls_43.json,http://54.235.29.9/FacialAge/BNav_EC2/DepthDuration/v2_depth_duration_MTurk/v2_DepthDuration_HTML.html#87,87,1366,768,1366,768,8-29-2022,16-37-59,19,depth_duration_stimuli/003010_2014-06-15_12-54-35_094959634447_rgbf000112-resize_0/003010_2014-06-15_12-54-35_094959634447_rgbf000112-resize_0-target.png,125,3.1185,3,2787,125,meters,jsons/VE125_randls_43.json,1052463,1329620,57,Woman
19,268002,DepthScenes,duration_manipulation_targetAtFixation,jsons/VE125_randls_43.json,http://54.235.29.9/FacialAge/BNav_EC2/DepthDuration/v2_depth_duration_MTurk/v2_DepthDuration_HTML.html#87,87,1366,768,1366,768,8-29-2022,16-37-59,20,depth_duration_stimuli/001808_2014-06-26_20-50-58_260595134347_rgbf000029-resize_1/001808_2014-06-26_20-50-58_260595134347_rgbf000029-resize_1-target.png,125,4.249,5,3141,247,meters,jsons/VE125_randls_43.json,1052463,1329620,57,Woman
20,268002,DepthScenes,duration_manipulation_targetAtFixation,jsons/VE125_randls_43.json,http://54.235.29.9/FacialAge/BNav_EC2/DepthDuration/v2_depth_duration_MTurk/v2_DepthDuration_HTML.html#87,87,1366,768,1366,768,8-29-2022,16-37-59,21,depth_duration_stimuli/001815_2014-06-26_20-52-55_260595134347_rgbf000020-resize_0/001815_2014-06-26_20-52-55_260595134347_rgbf000020-resize_0-target.png,125,3.3865,2,3253,117,meters,jsons/VE125_randls_43.json,1052463,1329620,57,Woman
21,268002,DepthScenes,duration_manipulation_targetAtFixation,jsons/VE125_randls_43.json,http://54.235.29.9/FacialAge/BNav_EC2/DepthDuration/v2_depth_duration_MTurk/v2_DepthDuration_HTML.html#87,87,1366,768,1366,768,8-29-2022,16-37-59,22,depth_duration_stimuli/000739_2014-06-08_18-45-58_260595134347_rgbf000068-resize_1/000739_2014-06-08_18-45-58_260595134347_rgbf000068-resize_1-target.png,125,3.534,1,4717,124,meters,jsons/VE125_randls_43.json,1052463,1329620,57,Woman
22,268002,DepthScenes,duration_manipulation_targetAtFixation,jsons/VE125_randls_43.json,http://54.235.29.9/FacialAge/BNav_EC2/DepthDuration/v2_depth_duration_MTurk/v2_DepthDuration_HTML.html#87,87,1366,768,1366,768,8-29-2022,16-37-59,23,depth_duration_stimuli/000734_2014-06-08_17-39-11_260595134347_rgbf000128-resize_2/000734_2014-06-08_17-39-11_260595134347_rgbf000128-resize_2-target.png,125,4.098,5,2595,123,meters,jsons/VE125_randls_43.json,1052463,1329620,57,Woman
23,268002,DepthScenes,duration_manipulation_targetAtFixation,jsons/VE125_randls_43.json,http://54.235.29.9/FacialAge/BNav_EC2/DepthDuration/v2_depth_duration_MTurk/v2_DepthDuration_HTML.html#87,87,1366,768,1366,768,8-29-2022,16-37-59,24,depth_duration_stimuli/003621_2014-05-23_18-06-08_094959634447_rgbf000101-resize_1/003621_2014-05-23_18-06-08_094959634447_rgbf000101-resize_1-target.png,125,3.9835,3,3558,358,meters,jsons/VE125_randls_43.json,1052463,1329620,57,Woman
24,268002,DepthScenes,duration_manipulation_targetAtFixation,jsons/VE125_randls_43.json,http://54.235.29.9/FacialAge/BNav_EC2/DepthDuration/v2_depth_duration_MTurk/v2_DepthDuration_HTML.html#87,87,1366,768,1366,768,8-29-2022,16-37-59,25,depth_duration_stimuli/001584_2014-06-20_11-07-43_260595134347_rgbf000002-resize_1/001584_2014-06-20_11-07-43_260595134347_rgbf000002-resize_1-target.png,125,3.53,3,2477,138,meters,jsons/VE125_randls_43.json,1052463,1329620,57,Woman
25,268002,DepthScenes,duration_manipulation_targetAtFixation,jsons/VE125_randls_43.json,http://54.235.29.9/FacialAge/BNav_EC2/DepthDuration/v2_depth_duration_MTurk/v2_DepthDuration_HTML.html#87,87,1366,768,1366,768,8-29-2022,16-37-59,26,depth_duration_stimuli/003070_2014-06-15_14-58-27_094959634447_rgbf000150-resize_3/003070_2014-06-15_14-58-27_094959634447_rgbf000150-resize_3-target.png,125,2.9415,4,2855,124,meters,jsons/VE125_randls_43.json,1052463,1329620,57,Woman
26,268002,DepthScenes,duration_manipulation_targetAtFixation,jsons/VE125_randls_43.json,http://54.235.29.9/FacialAge/BNav_EC2/DepthDuration/v2_depth_duration_MTurk/v2_DepthDuration_HTML.html#87,87,1366,768,1366,768,8-29-2022,16-37-59,27,depth_duration_stimuli/000943_2014-06-09_19-31-07_260595134347_rgbf000128-resize_1/000943_2014-06-09_19-31-07_260595134347_rgbf000128-resize_1-target.png,125,1.9765,5,2626,125,meters,jsons/VE125_randls_43.json,1052463,1329620,57,Woman
27,268002,DepthScenes,duration_manipulation_targetAtFixation,jsons/VE125_randls_43.json,http://54.235.29.9/FacialAge/BNav_EC2/DepthDuration/v2_depth_duration_MTurk/v2_DepthDuration_HTML.html#87,87,1366,768,1366,768,8-29-2022,16-37-59,28,depth_duration_stimuli/001029_2014-06-08_13-17-57_260595134347_rgbf000065-resize_1/001029_2014-06-08_13-17-57_260595134347_rgbf000065-resize_1-target.png,125,3.0835,1,3604,124,meters,jsons/VE125_randls_43.json,1052463,1329620,57,Woman
28,268002,DepthScenes,duration_manipulation_targetAtFixation,jsons/VE125_randls_43.json,http://54.235.29.9/FacialAge/BNav_EC2/DepthDuration/v2_depth_duration_MTurk/v2_DepthDuration_HTML.html#87,87,1366,768,1366,768,8-29-2022,16-37-59,29,depth_duration_stimuli/000677_2014-06-08_23-10-32_260595134347_rgbf000158-resize_6/000677_2014-06-08_23-10-32_260595134347_rgbf000158-resize_6-target.png,125,3.556,2,4863,123,meters,jsons/VE125_randls_43.json,1052463,1329620,57,Woman
29,268002,DepthScenes,duration_manipulation_targetAtFixation,jsons/VE125_randls_43.json,http://54.235.29.9/FacialAge/BNav_EC2/DepthDuration/v2_depth_duration_MTurk/v2_DepthDuration_HTML.html#87,87,1366,768,1366,768,8-29-2022,16-37-59,30,depth_duration_stimuli/000375_2014-06-08_11-17-29_260595134347_rgbf000133-resize_2/000375_2014-06-08_11-17-29_260595134347_rgbf000133-resize-original.jpg,125,4.718,0,2593,124,meters,jsons/VE125_randls_43.json,1052463,1329620,57,Woman
30,268002,DepthScenes,duration_manipulation_targetAtFixation,jsons/VE125_randls_43.json,http://54.235.29.9/FacialAge/BNav_EC2/DepthDuration/v2_depth_duration_MTurk/v2_DepthDuration_HTML.html#87,87,1366,768,1366,768,8-29-2022,16-37-59,31,depth_duration_stimuli/000878_2014-06-08_22-52-45_260595134347_rgbf000045-resize_2/000878_2014-06-08_22-52-45_260595134347_rgbf000045-resize_2-target.png,125,2.092,0,2184,124,meters,jsons/VE125_randls_43.json,1052463,1329620,57,Woman
31,268002,DepthScenes,duration_manipulation_targetAtFixation,jsons/VE125_randls_43.json,http://54.235.29.9/FacialAge/BNav_EC2/DepthDuration/v2_depth_duration_MTurk/v2_DepthDuration_HTML.html#87,87,1366,768,1366,768,8-29-2022,16-37-59,32,depth_duration_stimuli/002953_2014-06-08_17-32-18_094959634447_rgbf000059-resize_5/002953_2014-06-08_17-32-18_094959634447_rgbf000059-resize_5-target.png,125,1.551,2,4422,124,meters,jsons/VE125_randls_43.json,1052463,1329620,57,Woman
32,268002,DepthScenes,duration_manipulation_targetAtFixation,jsons/VE125_randls_43.json,http://54.235.29.9/FacialAge/BNav_EC2/DepthDuration/v2_depth_duration_MTurk/v2_DepthDuration_HTML.html#87,87,1366,768,1366,768,8-29-2022,16-37-59,33,depth_duration_stimuli/002663_2014-06-13_15-50-26_094959634447_rgbf000075-resize_1/002663_2014-06-13_15-50-26_094959634447_rgbf000075-resize_1-target.png,125,4.7495,3,2811,122,meters,jsons/VE125_randls_43.json,1052463,1329620,57,Woman
33,268002,DepthScenes,duration_manipulation_targetAtFixation,jsons/VE125_randls_43.json,http://54.235.29.9/FacialAge/BNav_EC2/DepthDuration/v2_depth_duration_MTurk/v2_DepthDuration_HTML.html#87,87,1366,768,1366,768,8-29-2022,16-37-59,34,depth_duration_stimuli/000409_2014-06-04_19-23-33_260595134347_rgbf000067-resize_0/000409_2014-06-04_19-23-33_260595134347_rgbf000067-resize_0-target.png,125,3.7335,5,3820,123,meters,jsons/VE125_randls_43.json,1052463,1329620,57,Woman
34,268002,DepthScenes,duration_manipulation_targetAtFixation,jsons/VE125_randls_43.json,http://54.235.29.9/FacialAge/BNav_EC2/DepthDuration/v2_depth_duration_MTurk/v2_DepthDuration_HTML.html#87,87,1366,768,1366,768,8-29-2022,16-37-59,35,depth_duration_stimuli/000929_2014-06-09_16-33-19_260595134347_rgbf000139-resize_0/000929_2014-06-09_16-33-19_260595134347_rgbf000139-resize_0-target.png,125,2.8680000000000003,5,3239,124,meters,jsons/VE125_randls_43.json,1052463,1329620,57,Woman
35,268002,DepthScenes,duration_manipulation_targetAtFixation,jsons/VE125_randls_43.json,http://54.235.29.9/FacialAge/BNav_EC2/DepthDuration/v2_depth_duration_MTurk/v2_DepthDuration_HTML.html#87,87,1366,768,1366,768,8-29-2022,16-37-59,36,depth_duration_stimuli/000457_2014-06-08_16-52-43_260595134347_rgbf000199-resize_1/000457_2014-06-08_16-52-43_260595134347_rgbf000199-resize_1-target.png,125,3.6489999999999996,2,3213,124,meters,jsons/VE125_randls_43.json,1052463,1329620,57,Woman
36,268002,DepthScenes,duration_manipulation_targetAtFixation,jsons/VE125_randls_43.json,http://54.235.29.9/FacialAge/BNav_EC2/DepthDuration/v2_depth_duration_MTurk/v2_DepthDuration_HTML.html#87,87,1366,768,1366,768,8-29-2022,16-37-59,37,depth_duration_stimuli/002549_2014-06-24_13-41-39_094959634447_rgbf000022-resize_3/002549_2014-06-24_13-41-39_094959634447_rgbf000022-resize_3-target.png,125,1.476,3,2743,132,meters,jsons/VE125_randls_43.json,1052463,1329620,57,Woman
37,268002,DepthScenes,duration_manipulation_targetAtFixation,jsons/VE125_randls_43.json,http://54.235.29.9/FacialAge/BNav_EC2/DepthDuration/v2_depth_duration_MTurk/v2_DepthDuration_HTML.html#87,87,1366,768,1366,768,8-29-2022,16-37-59,38,depth_duration_stimuli/002750_2014-06-22_19-08-03_094959634447_rgbf000094-resize_4/002750_2014-06-22_19-08-03_094959634447_rgbf000094-resize_4-target.png,125,2.354,3,21514,120,meters,jsons/VE125_randls_43.json,1052463,1329620,57,Woman
38,268002,DepthScenes,duration_manipulation_targetAtFixation,jsons/VE125_randls_43.json,http://54.235.29.9/FacialAge/BNav_EC2/DepthDuration/v2_depth_duration_MTurk/v2_DepthDuration_HTML.html#87,87,1366,768,1366,768,8-29-2022,16-37-59,39,depth_duration_stimuli/000906_2014-06-08_13-35-43_260595134347_rgbf000155-resize_1/000906_2014-06-08_13-35-43_260595134347_rgbf000155-resize_1-target.png,125,2.8489999999999998,3,3072,116,meters,jsons/VE125_randls_43.json,1052463,1329620,57,Woman
39,268002,DepthScenes,duration_manipulation_targetAtFixation,jsons/VE125_randls_43.json,http://54.235.29.9/FacialAge/BNav_EC2/DepthDuration/v2_depth_duration_MTurk/v2_DepthDuration_HTML.html#87,87,1366,768,1366,768,8-29-2022,16-37-59,40,depth_duration_stimuli/002805_2014-06-22_19-54-03_094959634447_rgbf000079-resize_1/002805_2014-06-22_19-54-03_094959634447_rgbf000079-resize_1-target.png,125,3.1439999999999997,5,2526,123,meters,jsons/VE125_randls_43.json,1052463,1329620,57,Woman
40,268002,DepthScenes,duration_manipulation_targetAtFixation,jsons/VE125_randls_43.json,http://54.235.29.9/FacialAge/BNav_EC2/DepthDuration/v2_depth_duration_MTurk/v2_DepthDuration_HTML.html#87,87,1366,768,1366,768,8-29-2022,16-37-59,41,depth_duration_stimuli/000642_2014-06-08_16-59-25_260595134347_rgbf000098-resize_2/000642_2014-06-08_16-59-25_260595134347_rgbf000098-resize_2-target.png,125,2.8815,6,2455,111,meters,jsons/VE125_randls_43.json,1052463,1329620,57,Woman
41,268002,DepthScenes,duration_manipulation_targetAtFixation,jsons/VE125_randls_43.json,http://54.235.29.9/FacialAge/BNav_EC2/DepthDuration/v2_depth_duration_MTurk/v2_DepthDuration_HTML.html#87,87,1366,768,1366,768,8-29-2022,16-37-59,42,depth_duration_stimuli/002425_2014-06-28_20-27-29_260595134347_rgbf000031-resize_8/002425_2014-06-28_20-27-29_260595134347_rgbf000031-resize_8-target.png,125,3.8960000000000004,8,2581,131,meters,jsons/VE125_randls_43.json,1052463,1329620,57,Woman
42,268002,DepthScenes,duration_manipulation_targetAtFixation,jsons/VE125_randls_43.json,http://54.235.29.9/FacialAge/BNav_EC2/DepthDuration/v2_depth_duration_MTurk/v2_DepthDuration_HTML.html#87,87,1366,768,1366,768,8-29-2022,16-37-59,43,depth_duration_stimuli/002445_2014-06-28_20-32-16_260595134347_rgbf000029-resize_4/002445_2014-06-28_20-32-16_260595134347_rgbf000029-resize_4-target.png,125,2.5315,7,2881,124,meters,jsons/VE125_randls_43.json,1052463,1329620,57,Woman
43,268002,DepthScenes,duration_manipulation_targetAtFixation,jsons/VE125_randls_43.json,http://54.235.29.9/FacialAge/BNav_EC2/DepthDuration/v2_depth_duration_MTurk/v2_DepthDuration_HTML.html#87,87,1366,768,1366,768,8-29-2022,16-37-59,44,depth_duration_stimuli/000780_2014-06-08_22-28-29_260595134347_rgbf000126-resize_1/000780_2014-06-08_22-28-29_260595134347_rgbf000126-resize_1-target.png,125,3.3825,4,2637,126,meters,jsons/VE125_randls_43.json,1052463,1329620,57,Woman
44,268002,DepthScenes,duration_manipulation_targetAtFixation,jsons/VE125_randls_43.json,http://54.235.29.9/FacialAge/BNav_EC2/DepthDuration/v2_depth_duration_MTurk/v2_DepthDuration_HTML.html#87,87,1366,768,1366,768,8-29-2022,16-37-59,45,depth_duration_stimuli/000787_2014-06-08_22-33-53_260595134347_rgbf000175-resize_1/000787_2014-06-08_22-33-53_260595134347_rgbf000175-resize-original.jpg,125,4.784,0,2823,129,meters,jsons/VE125_randls_43.json,1052463,1329620,57,Woman
45,268002,DepthScenes,duration_manipulation_targetAtFixation,jsons/VE125_randls_43.json,http://54.235.29.9/FacialAge/BNav_EC2/DepthDuration/v2_depth_duration_MTurk/v2_DepthDuration_HTML.html#87,87,1366,768,1366,768,8-29-2022,16-37-59,46,depth_duration_stimuli/002057_2014-06-24_21-00-13_260595134347_rgbf000120-resize_1/002057_2014-06-24_21-00-13_260595134347_rgbf000120-resize_1-target.png,125,2.967,1,2428,110,meters,jsons/VE125_randls_43.json,1052463,1329620,57,Woman
46,268002,DepthScenes,duration_manipulation_targetAtFixation,jsons/VE125_randls_43.json,http://54.235.29.9/FacialAge/BNav_EC2/DepthDuration/v2_depth_duration_MTurk/v2_DepthDuration_HTML.html#87,87,1366,768,1366,768,8-29-2022,16-37-59,47,depth_duration_stimuli/000709_2014-06-08_13-51-55_260595134347_rgbf000068-resize_3/000709_2014-06-08_13-51-55_260595134347_rgbf000068-resize_3-target.png,125,1.8030000000000002,2,2387,134,meters,jsons/VE125_randls_43.json,1052463,1329620,57,Woman
47,268002,DepthScenes,duration_manipulation_targetAtFixation,jsons/VE125_randls_43.json,http://54.235.29.9/FacialAge/BNav_EC2/DepthDuration/v2_depth_duration_MTurk/v2_DepthDuration_HTML.html#87,87,1366,768,1366,768,8-29-2022,16-37-59,48,depth_duration_stimuli/000447_2014-06-08_16-15-46_260595134347_rgbf000130-resize_1/000447_2014-06-08_16-15-46_260595134347_rgbf000130-resize_1-target.png,125,4.479,5,2737,122,meters,jsons/VE125_randls_43.json,1052463,1329620,57,Woman
48,268002,DepthScenes,duration_manipulation_targetAtFixation,jsons/VE125_randls_43.json,http://54.235.29.9/FacialAge/BNav_EC2/DepthDuration/v2_depth_duration_MTurk/v2_DepthDuration_HTML.html#87,87,1366,768,1366,768,8-29-2022,16-37-59,49,depth_duration_stimuli/001447_2014-06-19_17-00-32_260595134347_rgbf000082-resize_5/001447_2014-06-19_17-00-32_260595134347_rgbf000082-resize_5-target.png,125,4.13775,4,2351,123,meters,jsons/VE125_randls_43.json,1052463,1329620,57,Woman
49,268002,DepthScenes,duration_manipulation_targetAtFixation,jsons/VE125_randls_43.json,http://54.235.29.9/FacialAge/BNav_EC2/DepthDuration/v2_depth_duration_MTurk/v2_DepthDuration_HTML.html#87,87,1366,768,1366,768,8-29-2022,16-37-59,50,depth_duration_stimuli/002988_2014-06-15_12-24-20_094959634447_rgbf000150-resize_1/002988_2014-06-15_12-24-20_094959634447_rgbf000150-resize_1-target.png,125,4.7669999999999995,2,2874,142,meters,jsons/VE125_randls_43.json,1052463,1329620,57,Woman
50,268002,DepthScenes,duration_manipulation_targetAtFixation,jsons/VE125_randls_43.json,http://54.235.29.9/FacialAge/BNav_EC2/DepthDuration/v2_depth_duration_MTurk/v2_DepthDuration_HTML.html#87,87,1366,768,1366,768,8-29-2022,16-37-59,51,depth_duration_stimuli/001052_2014-06-08_18-24-54_260595134347_rgbf000130-resize_1/001052_2014-06-08_18-24-54_260595134347_rgbf000130-resize_1-target.png,125,4.1045,2,3419,125,meters,jsons/VE125_randls_43.json,1052463,1329620,57,Woman
51,268002,DepthScenes,duration_manipulation_targetAtFixation,jsons/VE125_randls_43.json,http://54.235.29.9/FacialAge/BNav_EC2/DepthDuration/v2_depth_duration_MTurk/v2_DepthDuration_HTML.html#87,87,1366,768,1366,768,8-29-2022,16-37-59,52,depth_duration_stimuli/002153_2014-06-25_21-27-18_260595134347_rgbf000038-resize_5/002153_2014-06-25_21-27-18_260595134347_rgbf000038-resize_5-target.png,125,2.505,3,3306,125,meters,jsons/VE125_randls_43.json,1052463,1329620,57,Woman
52,268002,DepthScenes,duration_manipulation_targetAtFixation,jsons/VE125_randls_43.json,http://54.235.29.9/FacialAge/BNav_EC2/DepthDuration/v2_depth_duration_MTurk/v2_DepthDuration_HTML.html#87,87,1366,768,1366,768,8-29-2022,16-37-59,53,depth_duration_stimuli/002660_2014-06-13_15-44-18_094959634447_rgbf001878-resize_2/002660_2014-06-13_15-44-18_094959634447_rgbf001878-resize_2-target.png,125,3.576,3,2945,129,meters,jsons/VE125_randls_43.json,1052463,1329620,57,Woman
53,268002,DepthScenes,duration_manipulation_targetAtFixation,jsons/VE125_randls_43.json,http://54.235.29.9/FacialAge/BNav_EC2/DepthDuration/v2_depth_duration_MTurk/v2_DepthDuration_HTML.html#87,87,1366,768,1366,768,8-29-2022,16-37-59,54,depth_duration_stimuli/001150_2014-06-17_15-27-34_260595134347_rgbf000108-resize_2/001150_2014-06-17_15-27-34_260595134347_rgbf000108-resize_2-target.png,125,4.0325,5,151350,126,meters,jsons/VE125_randls_43.json,1052463,1329620,57,Woman
54,268002,DepthScenes,duration_manipulation_targetAtFixation,jsons/VE125_randls_43.json,http://54.235.29.9/FacialAge/BNav_EC2/DepthDuration/v2_depth_duration_MTurk/v2_DepthDuration_HTML.html#87,87,1366,768,1366,768,8-29-2022,16-37-59,55,depth_duration_stimuli/000665_2014-06-09_20-42-35_260595134347_rgbf000110-resize_1/000665_2014-06-09_20-42-35_260595134347_rgbf000110-resize_1-target.png,125,3.057,3,56548,123,meters,jsons/VE125_randls_43.json,1052463,1329620,57,Woman
55,268002,DepthScenes,duration_manipulation_targetAtFixation,jsons/VE125_randls_43.json,http://54.235.29.9/FacialAge/BNav_EC2/DepthDuration/v2_depth_duration_MTurk/v2_DepthDuration_HTML.html#87,87,1366,768,1366,768,8-29-2022,16-37-59,56,depth_duration_stimuli/001056_2014-06-08_18-46-44_260595134347_rgbf000068-resize_0/001056_2014-06-08_18-46-44_260595134347_rgbf000068-resize_0-target.png,125,2.6625,4,2502,126,meters,jsons/VE125_randls_43.json,1052463,1329620,57,Woman
56,268002,DepthScenes,duration_manipulation_targetAtFixation,jsons/VE125_randls_43.json,http://54.235.29.9/FacialAge/BNav_EC2/DepthDuration/v2_depth_duration_MTurk/v2_DepthDuration_HTML.html#87,87,1366,768,1366,768,8-29-2022,16-37-59,57,depth_duration_stimuli/002199_2014-06-28_18-33-56_260595134347_rgbf000074-resize_0/002199_2014-06-28_18-33-56_260595134347_rgbf000074-resize_0-target.png,125,1.996,4,2468,133,meters,jsons/VE125_randls_43.json,1052463,1329620,57,Woman
57,268002,DepthScenes,duration_manipulation_targetAtFixation,jsons/VE125_randls_43.json,http://54.235.29.9/FacialAge/BNav_EC2/DepthDuration/v2_depth_duration_MTurk/v2_DepthDuration_HTML.html#87,87,1366,768,1366,768,8-29-2022,16-37-59,58,depth_duration_stimuli/002784_2014-06-22_19-26-30_094959634447_rgbf000083-resize_3/002784_2014-06-22_19-26-30_094959634447_rgbf000083-resize_3-target.png,125,1.8046666666667,2,3006,122,meters,jsons/VE125_randls_43.json,1052463,1329620,57,Woman
58,268002,DepthScenes,duration_manipulation_targetAtFixation,jsons/VE125_randls_43.json,http://54.235.29.9/FacialAge/BNav_EC2/DepthDuration/v2_depth_duration_MTurk/v2_DepthDuration_HTML.html#87,87,1366,768,1366,768,8-29-2022,16-37-59,59,depth_duration_stimuli/001100_2014-06-15_17-46-26_260595134347_rgbf000225-resize_2/001100_2014-06-15_17-46-26_260595134347_rgbf000225-resize_2-target.png,125,2.24,3,2468,118,meters,jsons/VE125_randls_43.json,1052463,1329620,57,Woman
59,268002,DepthScenes,duration_manipulation_targetAtFixation,jsons/VE125_randls_43.json,http://54.235.29.9/FacialAge/BNav_EC2/DepthDuration/v2_depth_duration_MTurk/v2_DepthDuration_HTML.html#87,87,1366,768,1366,768,8-29-2022,16-37-59,60,depth_duration_stimuli/002213_2014-06-28_18-37-58_260595134347_rgbf000055-resize_1/002213_2014-06-28_18-37-58_260595134347_rgbf000055-resize_1-target.png,125,3.62,4,5582,131,meters,jsons/VE125_randls_43.json,1052463,1329620,57,Woman
60,268002,DepthScenes,duration_manipulation_targetAtFixation,jsons/VE125_randls_43.json,http://54.235.29.9/FacialAge/BNav_EC2/DepthDuration/v2_depth_duration_MTurk/v2_DepthDuration_HTML.html#87,87,1366,768,1366,768,8-29-2022,16-37-59,61,depth_duration_stimuli/000691_2014-06-08_13-08-50_260595134347_rgbf000132-resize_3/000691_2014-06-08_13-08-50_260595134347_rgbf000132-resize_3-target.png,125,4.1530000000000005,2,2663,128,meters,jsons/VE125_randls_43.json,1052463,1329620,57,Woman
61,268002,DepthScenes,duration_manipulation_targetAtFixation,jsons/VE125_randls_43.json,http://54.235.29.9/FacialAge/BNav_EC2/DepthDuration/v2_depth_duration_MTurk/v2_DepthDuration_HTML.html#87,87,1366,768,1366,768,8-29-2022,16-37-59,62,depth_duration_stimuli/000414_2014-06-04_19-49-13_260595134347_rgbf000044-resize_0/000414_2014-06-04_19-49-13_260595134347_rgbf000044-resize_0-target.png,125,4.329,2,4962,126,meters,jsons/VE125_randls_43.json,1052463,1329620,57,Woman
62,268002,DepthScenes,duration_manipulation_targetAtFixation,jsons/VE125_randls_43.json,http://54.235.29.9/FacialAge/BNav_EC2/DepthDuration/v2_depth_duration_MTurk/v2_DepthDuration_HTML.html#87,87,1366,768,1366,768,8-29-2022,16-37-59,63,depth_duration_stimuli/003129_2014-05-12_10-48-10_094959634447_rgbf000100-resize_0/003129_2014-05-12_10-48-10_094959634447_rgbf000100-resize_0-target.png,125,4.9305,2,2226,130,meters,jsons/VE125_randls_43.json,1052463,1329620,57,Woman
63,268002,DepthScenes,duration_manipulation_targetAtFixation,jsons/VE125_randls_43.json,http://54.235.29.9/FacialAge/BNav_EC2/DepthDuration/v2_depth_duration_MTurk/v2_DepthDuration_HTML.html#87,87,1366,768,1366,768,8-29-2022,16-37-59,64,depth_duration_stimuli/002905_2014-06-03_18-04-43_094959634447_rgbf000151-resize_2/002905_2014-06-03_18-04-43_094959634447_rgbf000151-resize_2-target.png,125,2.0295,5,2226,126,meters,jsons/VE125_randls_43.json,1052463,1329620,57,Woman
64,268002,DepthScenes,duration_manipulation_targetAtFixation,jsons/VE125_randls_43.json,http://54.235.29.9/FacialAge/BNav_EC2/DepthDuration/v2_depth_duration_MTurk/v2_DepthDuration_HTML.html#87,87,1366,768,1366,768,8-29-2022,16-37-59,65,depth_duration_stimuli/003423_2014-05-21_10-23-26_094959634447_rgbf002665-resize_2/003423_2014-05-21_10-23-26_094959634447_rgbf002665-resize_2-target.png,125,3.2575,1,2283,125,meters,jsons/VE125_randls_43.json,1052463,1329620,57,Woman
65,268002,DepthScenes,duration_manipulation_targetAtFixation,jsons/VE125_randls_43.json,http://54.235.29.9/FacialAge/BNav_EC2/DepthDuration/v2_depth_duration_MTurk/v2_DepthDuration_HTML.html#87,87,1366,768,1366,768,8-29-2022,16-37-59,66,depth_duration_stimuli/001222_2014-06-17_16-24-06_260595134347_rgbf000073-resize_0/001222_2014-06-17_16-24-06_260595134347_rgbf000073-resize-original.jpg,125,1.4385,4,2392,123,meters,jsons/VE125_randls_43.json,1052463,1329620,57,Woman
66,268002,DepthScenes,duration_manipulation_targetAtFixation,jsons/VE125_randls_43.json,http://54.235.29.9/FacialAge/BNav_EC2/DepthDuration/v2_depth_duration_MTurk/v2_DepthDuration_HTML.html#87,87,1366,768,1366,768,8-29-2022,16-37-59,67,depth_duration_stimuli/002272_2014-06-28_18-53-56_260595134347_rgbf000067-resize_2/002272_2014-06-28_18-53-56_260595134347_rgbf000067-resize_2-target.png,125,1.138,0,2778,125,meters,jsons/VE125_randls_43.json,1052463,1329620,57,Woman
67,268002,DepthScenes,duration_manipulation_targetAtFixation,jsons/VE125_randls_43.json,http://54.235.29.9/FacialAge/BNav_EC2/DepthDuration/v2_depth_duration_MTurk/v2_DepthDuration_HTML.html#87,87,1366,768,1366,768,8-29-2022,16-37-59,68,depth_duration_stimuli/001571_2014-06-20_17-21-32_260595134347_rgbf000089-resize_1/001571_2014-06-20_17-21-32_260595134347_rgbf000089-resize_1-target.png,125,1.86,1,2352,116,meters,jsons/VE125_randls_43.json,1052463,1329620,57,Woman
68,268002,DepthScenes,duration_manipulation_targetAtFixation,jsons/VE125_randls_43.json,http://54.235.29.9/FacialAge/BNav_EC2/DepthDuration/v2_depth_duration_MTurk/v2_DepthDuration_HTML.html#87,87,1366,768,1366,768,8-29-2022,16-37-59,69,depth_duration_stimuli/002118_2014-06-25_20-32-08_260595134347_rgbf000078-resize_1/002118_2014-06-25_20-32-08_260595134347_rgbf000078-resize_1-target.png,125,2.6460000000000004,4,2104,121,meters,jsons/VE125_randls_43.json,1052463,1329620,57,Woman
69,268002,DepthScenes,duration_manipulation_targetAtFixation,jsons/VE125_randls_43.json,http://54.235.29.9/FacialAge/BNav_EC2/DepthDuration/v2_depth_duration_MTurk/v2_DepthDuration_HTML.html#87,87,1366,768,1366,768,8-29-2022,16-37-59,70,depth_duration_stimuli/001516_2014-06-20_16-25-09_260595134347_rgbf000076-resize_2/001516_2014-06-20_16-25-09_260595134347_rgbf000076-resize_2-target.png,125,1.7445,5,2718,120,meters,jsons/VE125_randls_43.json,1052463,1329620,57,Woman
70,268002,DepthScenes,duration_manipulation_targetAtFixation,jsons/VE125_randls_43.json,http://54.235.29.9/FacialAge/BNav_EC2/DepthDuration/v2_depth_duration_MTurk/v2_DepthDuration_HTML.html#87,87,1366,768,1366,768,8-29-2022,16-37-59,71,depth_duration_stimuli/002763_2014-06-22_19-13-10_094959634447_rgbf000075-resize_4/002763_2014-06-22_19-13-10_094959634447_rgbf000075-resize_4-target.png,125,1.68375,4,2662,121,meters,jsons/VE125_randls_43.json,1052463,1329620,57,Woman
71,268002,DepthScenes,duration_manipulation_targetAtFixation,jsons/VE125_randls_43.json,http://54.235.29.9/FacialAge/BNav_EC2/DepthDuration/v2_depth_duration_MTurk/v2_DepthDuration_HTML.html#87,87,1366,768,1366,768,8-29-2022,16-37-59,72,depth_duration_stimuli/002209_2014-06-28_18-36-10_260595134347_rgbf000051-resize_1/002209_2014-06-28_18-36-10_260595134347_rgbf000051-resize_1-target.png,125,2.057,7,3728,128,meters,jsons/VE125_randls_43.json,1052463,1329620,57,Woman
72,268002,DepthScenes,duration_manipulation_targetAtFixation,jsons/VE125_randls_43.json,http://54.235.29.9/FacialAge/BNav_EC2/DepthDuration/v2_depth_duration_MTurk/v2_DepthDuration_HTML.html#87,87,1366,768,1366,768,8-29-2022,16-37-59,73,depth_duration_stimuli/001570_2014-06-20_17-21-09_260595134347_rgbf000135-resize_4/001570_2014-06-20_17-21-09_260595134347_rgbf000135-resize_4-target.png,125,4.467,5,3112,126,meters,jsons/VE125_randls_43.json,1052463,1329620,57,Woman
73,268002,DepthScenes,duration_manipulation_targetAtFixation,jsons/VE125_randls_43.json,http://54.235.29.9/FacialAge/BNav_EC2/DepthDuration/v2_depth_duration_MTurk/v2_DepthDuration_HTML.html#87,87,1366,768,1366,768,8-29-2022,16-37-59,74,depth_duration_stimuli/001392_2014-06-19_16-07-59_260595134347_rgbf000046-resize_1/001392_2014-06-19_16-07-59_260595134347_rgbf000046-resize_1-target.png,125,4.135,6,3526,124,meters,jsons/VE125_randls_43.json,1052463,1329620,57,Woman
74,268002,DepthScenes,duration_manipulation_targetAtFixation,jsons/VE125_randls_43.json,http://54.235.29.9/FacialAge/BNav_EC2/DepthDuration/v2_depth_duration_MTurk/v2_DepthDuration_HTML.html#87,87,1366,768,1366,768,8-29-2022,16-37-59,75,depth_duration_stimuli/002509_2014-06-24_13-19-22_094959634447_rgbf000077-resize_0/002509_2014-06-24_13-19-22_094959634447_rgbf000077-resize_0-target.png,125,1.3065,5,2508,122,meters,jsons/VE125_randls_43.json,1052463,1329620,57,Woman
75,268002,DepthScenes,duration_manipulation_targetAtFixation,jsons/VE125_randls_43.json,http://54.235.29.9/FacialAge/BNav_EC2/DepthDuration/v2_depth_duration_MTurk/v2_DepthDuration_HTML.html#87,87,1366,768,1366,768,8-29-2022,16-37-59,76,depth_duration_stimuli/003338_2014-05-20_11-01-23_094959634447_rgbf000051-resize_6/003338_2014-05-20_11-01-23_094959634447_rgbf000051-resize_6-target.png,125,1.693,5,2567,123,meters,jsons/VE125_randls_43.json,1052463,1329620,57,Woman
76,268002,DepthScenes,duration_manipulation_targetAtFixation,jsons/VE125_randls_43.json,http://54.235.29.9/FacialAge/BNav_EC2/DepthDuration/v2_depth_duration_MTurk/v2_DepthDuration_HTML.html#87,87,1366,768,1366,768,8-29-2022,16-37-59,77,depth_duration_stimuli/000682_2014-06-08_23-14-58_260595134347_rgbf000041-resize_5/000682_2014-06-08_23-14-58_260595134347_rgbf000041-resize_5-target.png,125,2.7239999999999998,3,16616,129,meters,jsons/VE125_randls_43.json,1052463,1329620,57,Woman
77,268002,DepthScenes,duration_manipulation_targetAtFixation,jsons/VE125_randls_43.json,http://54.235.29.9/FacialAge/BNav_EC2/DepthDuration/v2_depth_duration_MTurk/v2_DepthDuration_HTML.html#87,87,1366,768,1366,768,8-29-2022,16-37-59,78,depth_duration_stimuli/001650_2014-06-20_12-09-00_260595134347_rgbf000087-resize_3/001650_2014-06-20_12-09-00_260595134347_rgbf000087-resize_3-target.png,125,1.9505,5,2352,124,meters,jsons/VE125_randls_43.json,1052463,1329620,57,Woman
78,268002,DepthScenes,duration_manipulation_targetAtFixation,jsons/VE125_randls_43.json,http://54.235.29.9/FacialAge/BNav_EC2/DepthDuration/v2_depth_duration_MTurk/v2_DepthDuration_HTML.html#87,87,1366,768,1366,768,8-29-2022,16-37-59,79,depth_duration_stimuli/001066_2014-06-08_22-03-20_260595134347_rgbf000066-resize_4/001066_2014-06-08_22-03-20_260595134347_rgbf000066-resize_4-target.png,125,4.2330000000000005,5,2479,136,meters,jsons/VE125_randls_43.json,1052463,1329620,57,Woman
79,268002,DepthScenes,duration_manipulation_targetAtFixation,jsons/VE125_randls_43.json,http://54.235.29.9/FacialAge/BNav_EC2/DepthDuration/v2_depth_duration_MTurk/v2_DepthDuration_HTML.html#87,87,1366,768,1366,768,8-29-2022,16-37-59,80,depth_duration_stimuli/000742_2014-06-08_18-48-09_260595134347_rgbf000164-resize_4/000742_2014-06-08_18-48-09_260595134347_rgbf000164-resize_4-target.png,125,4.632,5,4597,36,meters,jsons/VE125_randls_43.json,1052463,1329620,57,Woman
80,268002,DepthScenes,duration_manipulation_targetAtFixation,jsons/VE125_randls_43.json,http://54.235.29.9/FacialAge/BNav_EC2/DepthDuration/v2_depth_duration_MTurk/v2_DepthDuration_HTML.html#87,87,1366,768,1366,768,8-29-2022,16-37-59,81,depth_duration_stimuli/002989_2014-06-15_12-25-03_094959634447_rgbf000150-resize_3/002989_2014-06-15_12-25-03_094959634447_rgbf000150-resize_3-target.png,125,4.1975,4,3855,124,meters,jsons/VE125_randls_43.json,1052463,1329620,57,Woman
81,268002,DepthScenes,duration_manipulation_targetAtFixation,jsons/VE125_randls_43.json,http://54.235.29.9/FacialAge/BNav_EC2/DepthDuration/v2_depth_duration_MTurk/v2_DepthDuration_HTML.html#87,87,1366,768,1366,768,8-29-2022,16-37-59,82,depth_duration_stimuli/000866_2014-06-09_20-45-42_260595134347_rgbf000139-resize_1/000866_2014-06-09_20-45-42_260595134347_rgbf000139-resize_1-target.png,125,3.2155,7,2350,114,meters,jsons/VE125_randls_43.json,1052463,1329620,57,Woman
82,268002,DepthScenes,duration_manipulation_targetAtFixation,jsons/VE125_randls_43.json,http://54.235.29.9/FacialAge/BNav_EC2/DepthDuration/v2_depth_duration_MTurk/v2_DepthDuration_HTML.html#87,87,1366,768,1366,768,8-29-2022,16-37-59,83,depth_duration_stimuli/001417_2014-06-19_16-25-36_260595134347_rgbf000115-resize_5/001417_2014-06-19_16-25-36_260595134347_rgbf000115-resize_5-target.png,125,4.6255,4,2664,133,meters,jsons/VE125_randls_43.json,1052463,1329620,57,Woman
83,268002,DepthScenes,duration_manipulation_targetAtFixation,jsons/VE125_randls_43.json,http://54.235.29.9/FacialAge/BNav_EC2/DepthDuration/v2_depth_duration_MTurk/v2_DepthDuration_HTML.html#87,87,1366,768,1366,768,8-29-2022,16-37-59,84,depth_duration_stimuli/003081_2014-06-15_15-19-16_094959634447_rgbf000150-resize_1/003081_2014-06-15_15-19-16_094959634447_rgbf000150-resize_1-target.png,125,3.9125,0,11377,101,meters,jsons/VE125_randls_43.json,1052463,1329620,57,Woman
84,268002,DepthScenes,duration_manipulation_targetAtFixation,jsons/VE125_randls_43.json,http://54.235.29.9/FacialAge/BNav_EC2/DepthDuration/v2_depth_duration_MTurk/v2_DepthDuration_HTML.html#87,87,1366,768,1366,768,8-29-2022,16-37-59,85,depth_duration_stimuli/001175_2014-06-17_15-45-55_260595134347_rgbf000129-resize_4/001175_2014-06-17_15-45-55_260595134347_rgbf000129-resize_4-target.png,125,4.255,2,6086,121,meters,jsons/VE125_randls_43.json,1052463,1329620,57,Woman
85,268002,DepthScenes,duration_manipulation_targetAtFixation,jsons/VE125_randls_43.json,http://54.235.29.9/FacialAge/BNav_EC2/DepthDuration/v2_depth_duration_MTurk/v2_DepthDuration_HTML.html#87,87,1366,768,1366,768,8-29-2022,16-37-59,86,depth_duration_stimuli/003490_2014-05-21_15-50-11_094959634447_rgbf000101-resize_3/003490_2014-05-21_15-50-11_094959634447_rgbf000101-resize_3-target.png,125,3.6445,3,2734,135,meters,jsons/VE125_randls_43.json,1052463,1329620,57,Woman
86,268002,DepthScenes,duration_manipulation_targetAtFixation,jsons/VE125_randls_43.json,http://54.235.29.9/FacialAge/BNav_EC2/DepthDuration/v2_depth_duration_MTurk/v2_DepthDuration_HTML.html#87,87,1366,768,1366,768,8-29-2022,16-37-59,87,depth_duration_stimuli/000788_2014-06-08_22-34-36_260595134347_rgbf000131-resize_1/000788_2014-06-08_22-34-36_260595134347_rgbf000131-resize_1-target.png,125,3.359,0,2790,124,meters,jsons/VE125_randls_43.json,1052463,1329620,57,Woman
87,268002,DepthScenes,duration_manipulation_targetAtFixation,jsons/VE125_randls_43.json,http://54.235.29.9/FacialAge/BNav_EC2/DepthDuration/v2_depth_duration_MTurk/v2_DepthDuration_HTML.html#87,87,1366,768,1366,768,8-29-2022,16-37-59,88,depth_duration_stimuli/001235_2014-06-17_16-37-36_260595134347_rgbf000084-resize_4/001235_2014-06-17_16-37-36_260595134347_rgbf000084-resize_4-target.png,125,3.6605,3,2780,111,meters,jsons/VE125_randls_43.json,1052463,1329620,57,Woman
88,268002,DepthScenes,duration_manipulation_targetAtFixation,jsons/VE125_randls_43.json,http://54.235.29.9/FacialAge/BNav_EC2/DepthDuration/v2_depth_duration_MTurk/v2_DepthDuration_HTML.html#87,87,1366,768,1366,768,8-29-2022,16-37-59,89,depth_duration_stimuli/000810_2014-06-08_17-20-01_260595134347_rgbf000105-resize_0/000810_2014-06-08_17-20-01_260595134347_rgbf000105-resize_0-target.png,125,1.4865,2,2592,126,meters,jsons/VE125_randls_43.json,1052463,1329620,57,Woman
89,268002,DepthScenes,duration_manipulation_targetAtFixation,jsons/VE125_randls_43.json,http://54.235.29.9/FacialAge/BNav_EC2/DepthDuration/v2_depth_duration_MTurk/v2_DepthDuration_HTML.html#87,87,1366,768,1366,768,8-29-2022,16-37-59,90,depth_duration_stimuli/001214_2014-06-17_16-13-55_260595134347_rgbf000111-resize_0/001214_2014-06-17_16-13-55_260595134347_rgbf000111-resize_0-target.png,125,2.6505,2,2310,120,meters,jsons/VE125_randls_43.json,1052463,1329620,57,Woman
90,268002,DepthScenes,duration_manipulation_targetAtFixation,jsons/VE125_randls_43.json,http://54.235.29.9/FacialAge/BNav_EC2/DepthDuration/v2_depth_duration_MTurk/v2_DepthDuration_HTML.html#87,87,1366,768,1366,768,8-29-2022,16-37-59,91,depth_duration_stimuli/002279_2014-06-28_18-55-32_260595134347_rgbf000040-resize_5/002279_2014-06-28_18-55-32_260595134347_rgbf000040-resize_5-target.png,125,1.5043333333333,1,2563,140,meters,jsons/VE125_randls_43.json,1052463,1329620,57,Woman
91,268002,DepthScenes,duration_manipulation_targetAtFixation,jsons/VE125_randls_43.json,http://54.235.29.9/FacialAge/BNav_EC2/DepthDuration/v2_depth_duration_MTurk/v2_DepthDuration_HTML.html#87,87,1366,768,1366,768,8-29-2022,16-37-59,92,depth_duration_stimuli/000635_2014-06-08_16-38-42_260595134347_rgbf000106-resize_1/000635_2014-06-08_16-38-42_260595134347_rgbf000106-resize_1-target.png,125,2.074,2,2253,114,meters,jsons/VE125_randls_43.json,1052463,1329620,57,Woman
92,268002,DepthScenes,duration_manipulation_targetAtFixation,jsons/VE125_randls_43.json,http://54.235.29.9/FacialAge/BNav_EC2/DepthDuration/v2_depth_duration_MTurk/v2_DepthDuration_HTML.html#87,87,1366,768,1366,768,8-29-2022,16-37-59,93,depth_duration_stimuli/001110_2014-06-15_17-25-28_260595134347_rgbf000150-resize_1/001110_2014-06-15_17-25-28_260595134347_rgbf000150-resize_1-target.png,125,1.7115,2,3778,128,meters,jsons/VE125_randls_43.json,1052463,1329620,57,Woman
93,268002,DepthScenes,duration_manipulation_targetAtFixation,jsons/VE125_randls_43.json,http://54.235.29.9/FacialAge/BNav_EC2/DepthDuration/v2_depth_duration_MTurk/v2_DepthDuration_HTML.html#87,87,1366,768,1366,768,8-29-2022,16-37-59,94,depth_duration_stimuli/000927_2014-06-09_16-32-30_260595134347_rgbf000123-resize_3/000927_2014-06-09_16-32-30_260595134347_rgbf000123-resize_3-target.png,125,2.6785,2,3130,133,meters,jsons/VE125_randls_43.json,1052463,1329620,57,Woman
94,268002,DepthScenes,duration_manipulation_targetAtFixation,jsons/VE125_randls_43.json,http://54.235.29.9/FacialAge/BNav_EC2/DepthDuration/v2_depth_duration_MTurk/v2_DepthDuration_HTML.html#87,87,1366,768,1366,768,8-29-2022,16-37-59,95,depth_duration_stimuli/002600_2014-06-24_14-27-04_094959634447_rgbf000074-resize_2/002600_2014-06-24_14-27-04_094959634447_rgbf000074-resize_2-target.png,125,2.7575,0,4432,124,meters,jsons/VE125_randls_43.json,1052463,1329620,57,Woman
95,268002,DepthScenes,duration_manipulation_targetAtFixation,jsons/VE125_randls_43.json,http://54.235.29.9/FacialAge/BNav_EC2/DepthDuration/v2_depth_duration_MTurk/v2_DepthDuration_HTML.html#87,87,1366,768,1366,768,8-29-2022,16-37-59,96,depth_duration_stimuli/003228_2014-05-14_13-42-35_094959634447_rgbf000101-resize_1/003228_2014-05-14_13-42-35_094959634447_rgbf000101-resize_1-target.png,125,1.9680000000000002,2,3850,121,meters,jsons/VE125_randls_43.json,1052463,1329620,57,Woman
96,268002,DepthScenes,duration_manipulation_targetAtFixation,jsons/VE125_randls_43.json,http://54.235.29.9/FacialAge/BNav_EC2/DepthDuration/v2_depth_duration_MTurk/v2_DepthDuration_HTML.html#87,87,1366,768,1366,768,8-29-2022,16-37-59,97,depth_duration_stimuli/000917_2014-06-09_22-45-29_260595134347_rgbf000149-resize_3/000917_2014-06-09_22-45-29_260595134347_rgbf000149-resize_3-target.png,125,4.1865,3,2429,136,meters,jsons/VE125_randls_43.json,1052463,1329620,57,Woman
97,268002,DepthScenes,duration_manipulation_targetAtFixation,jsons/VE125_randls_43.json,http://54.235.29.9/FacialAge/BNav_EC2/DepthDuration/v2_depth_duration_MTurk/v2_DepthDuration_HTML.html#87,87,1366,768,1366,768,8-29-2022,16-37-59,98,depth_duration_stimuli/002323_2014-06-28_20-01-54_260595134347_rgbf000051-resize_4/002323_2014-06-28_20-01-54_260595134347_rgbf000051-resize_4-target.png,125,3.7310000000000003,2,2163,131,meters,jsons/VE125_randls_43.json,1052463,1329620,57,Woman
98,268002,DepthScenes,duration_manipulation_targetAtFixation,jsons/VE125_randls_43.json,http://54.235.29.9/FacialAge/BNav_EC2/DepthDuration/v2_depth_duration_MTurk/v2_DepthDuration_HTML.html#87,87,1366,768,1366,768,8-29-2022,16-37-59,99,depth_duration_stimuli/001540_2014-06-20_17-01-05_260595134347_rgbf000086-resize_2/001540_2014-06-20_17-01-05_260595134347_rgbf000086-resize-original.jpg,125,1.459,2,3146,131,meters,jsons/VE125_randls_43.json,1052463,1329620,57,Woman
99,268002,DepthScenes,duration_manipulation_targetAtFixation,jsons/VE125_randls_43.json,http://54.235.29.9/FacialAge/BNav_EC2/DepthDuration/v2_depth_duration_MTurk/v2_DepthDuration_HTML.html#87,87,1366,768,1366,768,8-29-2022,16-37-59,100,depth_duration_stimuli/001158_2014-06-17_15-32-16_260595134347_rgbf000138-resize_2/001158_2014-06-17_15-32-16_260595134347_rgbf000138-resize_2-target.png,125,4.5315,2,35945,124,meters,jsons/VE125_randls_43.json,1052463,1329620,57,Woman
100,268002,DepthScenes,duration_manipulation_targetAtFixation,jsons/VE125_randls_43.json,http://54.235.29.9/FacialAge/BNav_EC2/DepthDuration/v2_depth_duration_MTurk/v2_DepthDuration_HTML.html#87,87,1366,625,1366,768,8-29-2022,16-37-59,101,depth_duration_stimuli/000556_2014-06-09_22-42-56_260595134347_rgbf000214-resize_1/000556_2014-06-09_22-42-56_260595134347_rgbf000214-resize_1-target.png,125,4.8415,3,9130,124,meters,jsons/VE125_randls_43.json,1052463,1329620,57,Woman
101,268002,DepthScenes,duration_manipulation_targetAtFixation,jsons/VE125_randls_43.json,http://54.235.29.9/FacialAge/BNav_EC2/DepthDuration/v2_depth_duration_MTurk/v2_DepthDuration_HTML.html#87,87,1366,625,1366,768,8-29-2022,16-37-59,102,depth_duration_stimuli/000436_2014-06-09_22-25-11_260595134347_rgbf000137-resize_1/000436_2014-06-09_22-25-11_260595134347_rgbf000137-resize_1-target.png,125,4.0705,5,2102,119,meters,jsons/VE125_randls_43.json,1052463,1329620,57,Woman
102,268002,DepthScenes,duration_manipulation_targetAtFixation,jsons/VE125_randls_43.json,http://54.235.29.9/FacialAge/BNav_EC2/DepthDuration/v2_depth_duration_MTurk/v2_DepthDuration_HTML.html#87,87,1366,625,1366,768,8-29-2022,16-37-59,103,depth_duration_stimuli/002444_2014-06-28_20-32-08_260595134347_rgbf000027-resize_0/002444_2014-06-28_20-32-08_260595134347_rgbf000027-resize_0-target.png,125,4.388999999999999,4,2737,124,meters,jsons/VE125_randls_43.json,1052463,1329620,57,Woman
103,268002,DepthScenes,duration_manipulation_targetAtFixation,jsons/VE125_randls_43.json,http://54.235.29.9/FacialAge/BNav_EC2/DepthDuration/v2_depth_duration_MTurk/v2_DepthDuration_HTML.html#87,87,1366,625,1366,768,8-29-2022,16-37-59,104,depth_duration_stimuli/001011_2014-06-08_23-18-54_260595134347_rgbf000044-resize_4/001011_2014-06-08_23-18-54_260595134347_rgbf000044-resize_4-target.png,125,2.4730000000000003,2,2982,135,meters,jsons/VE125_randls_43.json,1052463,1329620,57,Woman
104,268002,DepthScenes,duration_manipulation_targetAtFixation,jsons/VE125_randls_43.json,http://54.235.29.9/FacialAge/BNav_EC2/DepthDuration/v2_depth_duration_MTurk/v2_DepthDuration_HTML.html#87,87,1366,625,1366,768,8-29-2022,16-37-59,105,depth_duration_stimuli/002875_2014-06-01_15-19-00_094959634447_rgbf000151-resize_1/002875_2014-06-01_15-19-00_094959634447_rgbf000151-resize_1-target.png,125,1.9675,5,3215,125,meters,jsons/VE125_randls_43.json,1052463,1329620,57,Woman
105,268002,DepthScenes,duration_manipulation_targetAtFixation,jsons/VE125_randls_43.json,http://54.235.29.9/FacialAge/BNav_EC2/DepthDuration/v2_depth_duration_MTurk/v2_DepthDuration_HTML.html#87,87,1366,625,1366,768,8-29-2022,16-37-59,106,depth_duration_stimuli/003492_2014-05-21_15-50-55_094959634447_rgbf000828-resize_1/003492_2014-05-21_15-50-55_094959634447_rgbf000828-resize_1-target.png,125,4.06875,5,3731,241,meters,jsons/VE125_randls_43.json,1052463,1329620,57,Woman
106,268002,DepthScenes,duration_manipulation_targetAtFixation,jsons/VE125_randls_43.json,http://54.235.29.9/FacialAge/BNav_EC2/DepthDuration/v2_depth_duration_MTurk/v2_DepthDuration_HTML.html#87,87,1366,625,1366,768,8-29-2022,16-37-59,107,depth_duration_stimuli/002568_2014-06-24_13-59-21_094959634447_rgbf000062-resize_4/002568_2014-06-24_13-59-21_094959634447_rgbf000062-resize_4-target.png,125,3.015,5,2859,127,meters,jsons/VE125_randls_43.json,1052463,1329620,57,Woman
107,268002,DepthScenes,duration_manipulation_targetAtFixation,jsons/VE125_randls_43.json,http://54.235.29.9/FacialAge/BNav_EC2/DepthDuration/v2_depth_duration_MTurk/v2_DepthDuration_HTML.html#87,87,1366,625,1366,768,8-29-2022,16-37-59,108,depth_duration_stimuli/001164_2014-06-17_15-35-46_260595134347_rgbf000085-resize_3/001164_2014-06-17_15-35-46_260595134347_rgbf000085-resize_3-target.png,125,2.354,1,2672,138,meters,jsons/VE125_randls_43.json,1052463,1329620,57,Woman
108,268002,DepthScenes,duration_manipulation_targetAtFixation,jsons/VE125_randls_43.json,http://54.235.29.9/FacialAge/BNav_EC2/DepthDuration/v2_depth_duration_MTurk/v2_DepthDuration_HTML.html#87,87,1366,625,1366,768,8-29-2022,16-37-59,109,depth_duration_stimuli/001136_2014-06-17_15-19-41_260595134347_rgbf000076-resize_3/001136_2014-06-17_15-19-41_260595134347_rgbf000076-resize_3-target.png,125,1.8655,4,2678,126,meters,jsons/VE125_randls_43.json,1052463,1329620,57,Woman
109,268002,DepthScenes,duration_manipulation_targetAtFixation,jsons/VE125_randls_43.json,http://54.235.29.9/FacialAge/BNav_EC2/DepthDuration/v2_depth_duration_MTurk/v2_DepthDuration_HTML.html#87,87,1366,625,1366,768,8-29-2022,16-37-59,110,depth_duration_stimuli/000506_2014-06-08_23-21-00_260595134347_rgbf000070-resize_7/000506_2014-06-08_23-21-00_260595134347_rgbf000070-resize_7-target.png,125,4.0585,5,3039,132,meters,jsons/VE125_randls_43.json,1052463,1329620,57,Woman
110,268002,DepthScenes,duration_manipulation_targetAtFixation,jsons/VE125_randls_43.json,http://54.235.29.9/FacialAge/BNav_EC2/DepthDuration/v2_depth_duration_MTurk/v2_DepthDuration_HTML.html#87,87,1366,625,1366,768,8-29-2022,16-37-59,111,depth_duration_stimuli/003079_2014-06-15_15-18-20_094959634447_rgbf000152-resize_8/003079_2014-06-15_15-18-20_094959634447_rgbf000152-resize_8-target.png,125,2.8775,2,2945,139,meters,jsons/VE125_randls_43.json,1052463,1329620,57,Woman
111,268002,DepthScenes,duration_manipulation_targetAtFixation,jsons/VE125_randls_43.json,http://54.235.29.9/FacialAge/BNav_EC2/DepthDuration/v2_depth_duration_MTurk/v2_DepthDuration_HTML.html#87,87,1366,625,1366,768,8-29-2022,16-37-59,112,depth_duration_stimuli/000493_2014-06-09_21-01-18_260595134347_rgbf000196-resize_3/000493_2014-06-09_21-01-18_260595134347_rgbf000196-resize_3-target.png,125,3.44,6,2540,134,meters,jsons/VE125_randls_43.json,1052463,1329620,57,Woman
112,268002,DepthScenes,duration_manipulation_targetAtFixation,jsons/VE125_randls_43.json,http://54.235.29.9/FacialAge/BNav_EC2/DepthDuration/v2_depth_duration_MTurk/v2_DepthDuration_HTML.html#87,87,1366,625,1366,768,8-29-2022,16-37-59,113,depth_duration_stimuli/000191_2014-05-12_17-07-38_260595134347_rgbf000199-resize_0/000191_2014-05-12_17-07-38_260595134347_rgbf000199-resize_0-target.png,125,3.7995,3,2738,124,meters,jsons/VE125_randls_43.json,1052463,1329620,57,Woman
113,268002,DepthScenes,duration_manipulation_targetAtFixation,jsons/VE125_randls_43.json,http://54.235.29.9/FacialAge/BNav_EC2/DepthDuration/v2_depth_duration_MTurk/v2_DepthDuration_HTML.html#87,87,1366,625,1366,768,8-29-2022,16-37-59,114,depth_duration_stimuli/000486_2014-06-09_20-47-20_260595134347_rgbf000143-resize_2/000486_2014-06-09_20-47-20_260595134347_rgbf000143-resize_2-target.png,125,4.8325,3,15510,130,meters,jsons/VE125_randls_43.json,1052463,1329620,57,Woman
114,268002,DepthScenes,duration_manipulation_targetAtFixation,jsons/VE125_randls_43.json,http://54.235.29.9/FacialAge/BNav_EC2/DepthDuration/v2_depth_duration_MTurk/v2_DepthDuration_HTML.html#87,87,1366,625,1366,768,8-29-2022,16-37-59,115,depth_duration_stimuli/003083_2014-06-15_15-21-03_094959634447_rgbf000063-resize_1/003083_2014-06-15_15-21-03_094959634447_rgbf000063-resize_1-target.png,125,4.1405,5,2310,128,meters,jsons/VE125_randls_43.json,1052463,1329620,57,Woman
115,268002,DepthScenes,duration_manipulation_targetAtFixation,jsons/VE125_randls_43.json,http://54.235.29.9/FacialAge/BNav_EC2/DepthDuration/v2_depth_duration_MTurk/v2_DepthDuration_HTML.html#87,87,1366,625,1366,768,8-29-2022,16-37-59,116,depth_duration_stimuli/001170_2014-06-17_15-43-44_260595134347_rgbf000096-resize_6/001170_2014-06-17_15-43-44_260595134347_rgbf000096-resize-original.jpg,125,1.1909999999999998,0,2801,124,meters,jsons/VE125_randls_43.json,1052463,1329620,57,Woman
116,268002,DepthScenes,duration_manipulation_targetAtFixation,jsons/VE125_randls_43.json,http://54.235.29.9/FacialAge/BNav_EC2/DepthDuration/v2_depth_duration_MTurk/v2_DepthDuration_HTML.html#87,87,1366,625,1366,768,8-29-2022,16-37-59,117,depth_duration_stimuli/000469_2014-06-09_19-42-10_260595134347_rgbf000081-resize_1/000469_2014-06-09_19-42-10_260595134347_rgbf000081-resize_1-target.png,125,1.652,1,3458,112,meters,jsons/VE125_randls_43.json,1052463,1329620,57,Woman
117,268002,DepthScenes,duration_manipulation_targetAtFixation,jsons/VE125_randls_43.json,http://54.235.29.9/FacialAge/BNav_EC2/DepthDuration/v2_depth_duration_MTurk/v2_DepthDuration_HTML.html#87,87,1366,625,1366,768,8-29-2022,16-37-59,118,depth_duration_stimuli/000483_2014-06-09_20-41-45_260595134347_rgbf000116-resize_4/000483_2014-06-09_20-41-45_260595134347_rgbf000116-resize_4-target.png,125,1.337,4,2707,135,meters,jsons/VE125_randls_43.json,1052463,1329620,57,Woman
118,268002,DepthScenes,duration_manipulation_targetAtFixation,jsons/VE125_randls_43.json,http://54.235.29.9/FacialAge/BNav_EC2/DepthDuration/v2_depth_duration_MTurk/v2_DepthDuration_HTML.html#87,87,1366,625,1366,768,8-29-2022,16-37-59,119,depth_duration_stimuli/001449_2014-06-19_17-01-27_260595134347_rgbf000116-resize_2/001449_2014-06-19_17-01-27_260595134347_rgbf000116-resize_2-target.png,125,3.452,5,2923,125,meters,jsons/VE125_randls_43.json,1052463,1329620,57,Woman
119,268002,DepthScenes,duration_manipulation_targetAtFixation,jsons/VE125_randls_43.json,http://54.235.29.9/FacialAge/BNav_EC2/DepthDuration/v2_depth_duration_MTurk/v2_DepthDuration_HTML.html#87,87,1366,625,1366,768,8-29-2022,16-37-59,120,depth_duration_stimuli/001450_2014-06-19_17-02-03_260595134347_rgbf000203-resize_4/001450_2014-06-19_17-02-03_260595134347_rgbf000203-resize_4-target.png,125,4.0106666666667,0,4189,110,meters,jsons/VE125_randls_43.json,1052463,1329620,57,Woman
120,268002,DepthScenes,duration_manipulation_targetAtFixation,jsons/VE125_randls_43.json,http://54.235.29.9/FacialAge/BNav_EC2/DepthDuration/v2_depth_duration_MTurk/v2_DepthDuration_HTML.html#87,87,1366,625,1366,768,8-29-2022,16-37-59,121,depth_duration_stimuli/001244_2014-06-17_16-47-45_260595134347_rgbf000030-resize_4/001244_2014-06-17_16-47-45_260595134347_rgbf000030-resize_4-target.png,125,2.0425,3,4515,121,meters,jsons/VE125_randls_43.json,1052463,1329620,57,Woman
121,268002,DepthScenes,duration_manipulation_targetAtFixation,jsons/VE125_randls_43.json,http://54.235.29.9/FacialAge/BNav_EC2/DepthDuration/v2_depth_duration_MTurk/v2_DepthDuration_HTML.html#87,87,1366,625,1366,768,8-29-2022,16-37-59,122,depth_duration_stimuli/003495_2014-05-21_16-01-51_094959634447_rgbf000100-resize_3/003495_2014-05-21_16-01-51_094959634447_rgbf000100-resize_3-target.png,125,1.6255,5,3209,138,meters,jsons/VE125_randls_43.json,1052463,1329620,57,Woman
122,268002,DepthScenes,duration_manipulation_targetAtFixation,jsons/VE125_randls_43.json,http://54.235.29.9/FacialAge/BNav_EC2/DepthDuration/v2_depth_duration_MTurk/v2_DepthDuration_HTML.html#87,87,1366,625,1366,768,8-29-2022,16-37-59,123,depth_duration_stimuli/000009_2014-05-26_14-32-05_260595134347_rgbf000034-resize_3/000009_2014-05-26_14-32-05_260595134347_rgbf000034-resize_3-target.png,125,3.8715,4,5464,124,meters,jsons/VE125_randls_43.json,1052463,1329620,57,Woman
123,268002,DepthScenes,duration_manipulation_targetAtFixation,jsons/VE125_randls_43.json,http://54.235.29.9/FacialAge/BNav_EC2/DepthDuration/v2_depth_duration_MTurk/v2_DepthDuration_HTML.html#87,87,1366,625,1366,768,8-29-2022,16-37-59,124,depth_duration_stimuli/001828_2014-06-26_21-40-03_260595134347_rgbf000024-resize_0/001828_2014-06-26_21-40-03_260595134347_rgbf000024-resize_0-target.png,125,4.8260000000000005,5,2620,129,meters,jsons/VE125_randls_43.json,1052463,1329620,57,Woman
124,268002,DepthScenes,duration_manipulation_targetAtFixation,jsons/VE125_randls_43.json,http://54.235.29.9/FacialAge/BNav_EC2/DepthDuration/v2_depth_duration_MTurk/v2_DepthDuration_HTML.html#87,87,1366,625,1366,768,8-29-2022,16-37-59,125,depth_duration_stimuli/000522_2014-06-08_13-35-06_260595134347_rgbf000244-resize_1/000522_2014-06-08_13-35-06_260595134347_rgbf000244-resize_1-target.png,125,2.3715,2,2697,134,meters,jsons/VE125_randls_43.json,1052463,1329620,57,Woman
125,268002,DepthScenes,duration_manipulation_targetAtFixation,jsons/VE125_randls_43.json,http://54.235.29.9/FacialAge/BNav_EC2/DepthDuration/v2_depth_duration_MTurk/v2_DepthDuration_HTML.html#87,87,1366,625,1366,768,8-29-2022,16-37-59,126,depth_duration_stimuli/002949_2014-06-26_15-57-42_094959634447_rgbf000079-resize_1/002949_2014-06-26_15-57-42_094959634447_rgbf000079-resize_1-target.png,125,1.8915,3,2873,126,meters,jsons/VE125_randls_43.json,1052463,1329620,57,Woman
126,268002,DepthScenes,duration_manipulation_targetAtFixation,jsons/VE125_randls_43.json,http://54.235.29.9/FacialAge/BNav_EC2/DepthDuration/v2_depth_duration_MTurk/v2_DepthDuration_HTML.html#87,87,1366,625,1366,768,8-29-2022,16-37-59,127,depth_duration_stimuli/002043_2014-06-24_20-29-38_260595134347_rgbf000039-resize_4/002043_2014-06-24_20-29-38_260595134347_rgbf000039-resize_4-target.png,125,2.8435,4,4691,129,meters,jsons/VE125_randls_43.json,1052463,1329620,57,Woman
127,268002,DepthScenes,duration_manipulation_targetAtFixation,jsons/VE125_randls_43.json,http://54.235.29.9/FacialAge/BNav_EC2/DepthDuration/v2_depth_duration_MTurk/v2_DepthDuration_HTML.html#87,87,1366,625,1366,768,8-29-2022,16-37-59,128,depth_duration_stimuli/003048_2014-06-15_13-49-43_094959634447_rgbf000150-resize_1/003048_2014-06-15_13-49-43_094959634447_rgbf000150-resize_1-target.png,125,4.0035,3,7463,127,meters,jsons/VE125_randls_43.json,1052463,1329620,57,Woman
128,268002,DepthScenes,duration_manipulation_targetAtFixation,jsons/VE125_randls_43.json,http://54.235.29.9/FacialAge/BNav_EC2/DepthDuration/v2_depth_duration_MTurk/v2_DepthDuration_HTML.html#87,87,1366,625,1366,768,8-29-2022,16-37-59,129,depth_duration_stimuli/001133_2014-06-17_14-49-16_260595134347_rgbf000100-resize_0/001133_2014-06-17_14-49-16_260595134347_rgbf000100-resize_0-target.png,125,4.2115,2,2180,116,meters,jsons/VE125_randls_43.json,1052463,1329620,57,Woman
129,268002,DepthScenes,duration_manipulation_targetAtFixation,jsons/VE125_randls_43.json,http://54.235.29.9/FacialAge/BNav_EC2/DepthDuration/v2_depth_duration_MTurk/v2_DepthDuration_HTML.html#87,87,1366,625,1366,768,8-29-2022,16-37-59,130,depth_duration_stimuli/001132_2014-06-17_14-48-54_260595134347_rgbf000100-resize_2/001132_2014-06-17_14-48-54_260595134347_rgbf000100-resize_2-target.png,125,3.753,4,5618,141,meters,jsons/VE125_randls_43.json,1052463,1329620,57,Woman
130,268002,DepthScenes,duration_manipulation_targetAtFixation,jsons/VE125_randls_43.json,http://54.235.29.9/FacialAge/BNav_EC2/DepthDuration/v2_depth_duration_MTurk/v2_DepthDuration_HTML.html#87,87,1366,625,1366,768,8-29-2022,16-37-59,131,depth_duration_stimuli/002788_2014-06-22_19-36-03_094959634447_rgbf000088-resize_2/002788_2014-06-22_19-36-03_094959634447_rgbf000088-resize_2-target.png,125,1.6465,2,4166,126,meters,jsons/VE125_randls_43.json,1052463,1329620,57,Woman
131,268002,DepthScenes,duration_manipulation_targetAtFixation,jsons/VE125_randls_43.json,http://54.235.29.9/FacialAge/BNav_EC2/DepthDuration/v2_depth_duration_MTurk/v2_DepthDuration_HTML.html#87,87,1366,625,1366,768,8-29-2022,16-37-59,132,depth_duration_stimuli/000749_2014-06-08_21-55-06_260595134347_rgbf000070-resize_2/000749_2014-06-08_21-55-06_260595134347_rgbf000070-resize_2-target.png,125,2.331,3,3329,123,meters,jsons/VE125_randls_43.json,1052463,1329620,57,Woman
132,268002,DepthScenes,duration_manipulation_targetAtFixation,jsons/VE125_randls_43.json,http://54.235.29.9/FacialAge/BNav_EC2/DepthDuration/v2_depth_duration_MTurk/v2_DepthDuration_HTML.html#87,87,1366,625,1366,768,8-29-2022,16-37-59,133,depth_duration_stimuli/000758_2014-06-08_22-05-08_260595134347_rgbf000085-resize_0/000758_2014-06-08_22-05-08_260595134347_rgbf000085-resize_0-target.png,125,3.3810000000000002,2,3906,125,meters,jsons/VE125_randls_43.json,1052463,1329620,57,Woman
133,268002,DepthScenes,duration_manipulation_targetAtFixation,jsons/VE125_randls_43.json,http://54.235.29.9/FacialAge/BNav_EC2/DepthDuration/v2_depth_duration_MTurk/v2_DepthDuration_HTML.html#87,87,1366,625,1366,768,8-29-2022,16-37-59,134,depth_duration_stimuli/000854_2014-06-09_19-43-13_260595134347_rgbf000066-resize_0/000854_2014-06-09_19-43-13_260595134347_rgbf000066-resize_0-target.png,125,3.068,3,2658,121,meters,jsons/VE125_randls_43.json,1052463,1329620,57,Woman
134,268002,DepthScenes,duration_manipulation_targetAtFixation,jsons/VE125_randls_43.json,http://54.235.29.9/FacialAge/BNav_EC2/DepthDuration/v2_depth_duration_MTurk/v2_DepthDuration_HTML.html#87,87,1366,625,1366,768,8-29-2022,16-37-59,135,depth_duration_stimuli/002072_2014-06-24_21-48-06_260595134347_rgbf000115-resize_0/002072_2014-06-24_21-48-06_260595134347_rgbf000115-resize-original.jpg,125,4.702,0,3112,133,meters,jsons/VE125_randls_43.json,1052463,1329620,57,Woman
135,268002,DepthScenes,duration_manipulation_targetAtFixation,jsons/VE125_randls_43.json,http://54.235.29.9/FacialAge/BNav_EC2/DepthDuration/v2_depth_duration_MTurk/v2_DepthDuration_HTML.html#87,87,1366,625,1366,768,8-29-2022,16-37-59,136,depth_duration_stimuli/002725_2014-06-22_11-47-51_094959634447_rgbf000070-resize_1/002725_2014-06-22_11-47-51_094959634447_rgbf000070-resize_1-target.png,125,2.195,4,101934,113,meters,jsons/VE125_randls_43.json,1052463,1329620,57,Woman
136,268002,DepthScenes,duration_manipulation_targetAtFixation,jsons/VE125_randls_43.json,http://54.235.29.9/FacialAge/BNav_EC2/DepthDuration/v2_depth_duration_MTurk/v2_DepthDuration_HTML.html#87,87,1366,625,1366,768,8-29-2022,16-37-59,137,depth_duration_stimuli/002344_2014-06-28_20-06-29_260595134347_rgbf000030-resize_1/002344_2014-06-28_20-06-29_260595134347_rgbf000030-resize_1-target.png,125,1.5795,5,2324,124,meters,jsons/VE125_randls_43.json,1052463,1329620,57,Woman
137,268002,DepthScenes,duration_manipulation_targetAtFixation,jsons/VE125_randls_43.json,http://54.235.29.9/FacialAge/BNav_EC2/DepthDuration/v2_depth_duration_MTurk/v2_DepthDuration_HTML.html#87,87,1366,625,1366,768,8-29-2022,16-37-59,138,depth_duration_stimuli/001016_2014-06-09_16-16-10_260595134347_rgbf000112-resize_5/001016_2014-06-09_16-16-10_260595134347_rgbf000112-resize_5-target.png,125,1.6565,3,3650,123,meters,jsons/VE125_randls_43.json,1052463,1329620,57,Woman
138,268002,DepthScenes,duration_manipulation_targetAtFixation,jsons/VE125_randls_43.json,http://54.235.29.9/FacialAge/BNav_EC2/DepthDuration/v2_depth_duration_MTurk/v2_DepthDuration_HTML.html#87,87,1366,625,1366,768,8-29-2022,16-37-59,139,depth_duration_stimuli/002340_2014-06-28_20-05-46_260595134347_rgbf000113-resize_0/002340_2014-06-28_20-05-46_260595134347_rgbf000113-resize_0-target.png,125,2.4735,6,2741,123,meters,jsons/VE125_randls_43.json,1052463,1329620,57,Woman
139,268002,DepthScenes,duration_manipulation_targetAtFixation,jsons/VE125_randls_43.json,http://54.235.29.9/FacialAge/BNav_EC2/DepthDuration/v2_depth_duration_MTurk/v2_DepthDuration_HTML.html#87,87,1366,625,1366,768,8-29-2022,16-37-59,140,depth_duration_stimuli/002375_2014-06-28_20-13-44_260595134347_rgbf000032-resize_1/002375_2014-06-28_20-13-44_260595134347_rgbf000032-resize_1-target.png,125,4.0175,3,4277,115,meters,jsons/VE125_randls_43.json,1052463,1329620,57,Woman
140,268002,DepthScenes,duration_manipulation_targetAtFixation,jsons/VE125_randls_43.json,http://54.235.29.9/FacialAge/BNav_EC2/DepthDuration/v2_depth_duration_MTurk/v2_DepthDuration_HTML.html#87,87,1366,625,1366,768,8-29-2022,16-37-59,141,depth_duration_stimuli/002657_2014-06-13_15-29-54_094959634447_rgbf000150-resize_1/002657_2014-06-13_15-29-54_094959634447_rgbf000150-resize_1-target.png,125,4.919,2,6024,123,meters,jsons/VE125_randls_43.json,1052463,1329620,57,Woman
141,268002,DepthScenes,duration_manipulation_targetAtFixation,jsons/VE125_randls_43.json,http://54.235.29.9/FacialAge/BNav_EC2/DepthDuration/v2_depth_duration_MTurk/v2_DepthDuration_HTML.html#87,87,1366,625,1366,768,8-29-2022,16-37-59,142,depth_duration_stimuli/001199_2014-06-17_16-03-48_260595134347_rgbf000077-resize_0/001199_2014-06-17_16-03-48_260595134347_rgbf000077-resize_0-target.png,125,3.4375,3,5402,125,meters,jsons/VE125_randls_43.json,1052463,1329620,57,Woman
142,268002,DepthScenes,duration_manipulation_targetAtFixation,jsons/VE125_randls_43.json,http://54.235.29.9/FacialAge/BNav_EC2/DepthDuration/v2_depth_duration_MTurk/v2_DepthDuration_HTML.html#87,87,1366,625,1366,768,8-29-2022,16-37-59,143,depth_duration_stimuli/000502_2014-06-08_23-02-32_260595134347_rgbf000063-resize_4/000502_2014-06-08_23-02-32_260595134347_rgbf000063-resize_4-target.png,125,2.431,3,3886,117,meters,jsons/VE125_randls_43.json,1052463,1329620,57,Woman
143,268002,DepthScenes,duration_manipulation_targetAtFixation,jsons/VE125_randls_43.json,http://54.235.29.9/FacialAge/BNav_EC2/DepthDuration/v2_depth_duration_MTurk/v2_DepthDuration_HTML.html#87,87,1366,625,1366,768,8-29-2022,16-37-59,144,depth_duration_stimuli/000692_2014-06-08_13-09-42_260595134347_rgbf000199-resize_2/000692_2014-06-08_13-09-42_260595134347_rgbf000199-resize_2-target.png,125,3.661,6,6101,127,meters,jsons/VE125_randls_43.json,1052463,1329620,57,Woman
144,268002,DepthScenes,duration_manipulation_targetAtFixation,jsons/VE125_randls_43.json,http://54.235.29.9/FacialAge/BNav_EC2/DepthDuration/v2_depth_duration_MTurk/v2_DepthDuration_HTML.html#87,87,1366,625,1366,768,8-29-2022,16-37-59,145,depth_duration_stimuli/001094_2014-06-15_17-36-00_260595134347_rgbf000205-resize_0/001094_2014-06-15_17-36-00_260595134347_rgbf000205-resize_0-target.png,125,4.2175,6,4188,118,meters,jsons/VE125_randls_43.json,1052463,1329620,57,Woman
145,268002,DepthScenes,duration_manipulation_targetAtFixation,jsons/VE125_randls_43.json,http://54.235.29.9/FacialAge/BNav_EC2/DepthDuration/v2_depth_duration_MTurk/v2_DepthDuration_HTML.html#87,87,1366,625,1366,768,8-29-2022,16-37-59,146,depth_duration_stimuli/001498_2014-06-19_17-45-14_260595134347_rgbf000129-resize_4/001498_2014-06-19_17-45-14_260595134347_rgbf000129-resize-original.jpg,125,1.4075,0,16560,170,meters,jsons/VE125_randls_43.json,1052463,1329620,57,Woman
146,268002,DepthScenes,duration_manipulation_targetAtFixation,jsons/VE125_randls_43.json,http://54.235.29.9/FacialAge/BNav_EC2/DepthDuration/v2_depth_duration_MTurk/v2_DepthDuration_HTML.html#87,87,1366,625,1366,768,8-29-2022,16-37-59,147,depth_duration_stimuli/003534_2014-05-22_15-06-10_094959634447_rgbf000102-resize_4/003534_2014-05-22_15-06-10_094959634447_rgbf000102-resize_4-target.png,125,1.426,6,3644,123,meters,jsons/VE125_randls_43.json,1052463,1329620,57,Woman
147,268002,DepthScenes,duration_manipulation_targetAtFixation,jsons/VE125_randls_43.json,http://54.235.29.9/FacialAge/BNav_EC2/DepthDuration/v2_depth_duration_MTurk/v2_DepthDuration_HTML.html#87,87,1366,625,1366,768,8-29-2022,16-37-59,148,depth_duration_stimuli/002637_2014-06-24_14-51-13_094959634447_rgbf000066-resize_4/002637_2014-06-24_14-51-13_094959634447_rgbf000066-resize_4-target.png,125,1.9955,6,2318,135,meters,jsons/VE125_randls_43.json,1052463,1329620,57,Woman
148,268002,DepthScenes,duration_manipulation_targetAtFixation,jsons/VE125_randls_43.json,http://54.235.29.9/FacialAge/BNav_EC2/DepthDuration/v2_depth_duration_MTurk/v2_DepthDuration_HTML.html#87,87,1366,625,1366,768,8-29-2022,16-37-59,149,depth_duration_stimuli/001806_2014-06-26_20-50-20_260595134347_rgbf000091-resize_1/001806_2014-06-26_20-50-20_260595134347_rgbf000091-resize_1-target.png,125,2.7305,2,2457,115,meters,jsons/VE125_randls_43.json,1052463,1329620,57,Woman
149,268002,DepthScenes,duration_manipulation_targetAtFixation,jsons/VE125_randls_43.json,http://54.235.29.9/FacialAge/BNav_EC2/DepthDuration/v2_depth_duration_MTurk/v2_DepthDuration_HTML.html#87,87,1366,625,1366,768,8-29-2022,16-37-59,150,depth_duration_stimuli/001617_2014-06-20_11-35-32_260595134347_rgbf000066-resize_1/001617_2014-06-20_11-35-32_260595134347_rgbf000066-resize_1-target.png,125,3.7910000000000004,4,7672,125,meters,jsons/VE125_randls_43.json,1052463,1329620,57,Woman
150,268002,DepthScenes,duration_manipulation_targetAtFixation,jsons/VE125_randls_43.json,http://54.235.29.9/FacialAge/BNav_EC2/DepthDuration/v2_depth_duration_MTurk/v2_DepthDuration_HTML.html#87,87,1366,625,1366,768,8-29-2022,16-37-59,151,depth_duration_stimuli/001059_2014-06-08_21-53-27_260595134347_rgbf000061-resize_4/001059_2014-06-08_21-53-27_260595134347_rgbf000061-resize_4-target.png,125,2.4185,3,4012,120,meters,jsons/VE125_randls_43.json,1052463,1329620,57,Woman
151,268002,DepthScenes,duration_manipulation_targetAtFixation,jsons/VE125_randls_43.json,http://54.235.29.9/FacialAge/BNav_EC2/DepthDuration/v2_depth_duration_MTurk/v2_DepthDuration_HTML.html#87,87,1366,625,1366,768,8-29-2022,16-37-59,152,depth_duration_stimuli/001032_2014-06-08_13-23-17_260595134347_rgbf000021-resize_3/001032_2014-06-08_13-23-17_260595134347_rgbf000021-resize_3-target.png,125,3.2725,3,4016,94,meters,jsons/VE125_randls_43.json,1052463,1329620,57,Woman
152,268002,DepthScenes,duration_manipulation_targetAtFixation,jsons/VE125_randls_43.json,http://54.235.29.9/FacialAge/BNav_EC2/DepthDuration/v2_depth_duration_MTurk/v2_DepthDuration_HTML.html#87,87,1366,625,1366,768,8-29-2022,16-37-59,153,depth_duration_stimuli/001555_2014-06-20_17-12-10_260595134347_rgbf000065-resize_4/001555_2014-06-20_17-12-10_260595134347_rgbf000065-resize_4-target.png,125,1.633,4,6087,118,meters,jsons/VE125_randls_43.json,1052463,1329620,57,Woman
153,268002,DepthScenes,duration_manipulation_targetAtFixation,jsons/VE125_randls_43.json,http://54.235.29.9/FacialAge/BNav_EC2/DepthDuration/v2_depth_duration_MTurk/v2_DepthDuration_HTML.html#87,87,1366,625,1366,768,8-29-2022,16-37-59,154,depth_duration_stimuli/000103_2014-05-14_22-01-17_260595134347_rgbf000152-resize_5/000103_2014-05-14_22-01-17_260595134347_rgbf000152-resize_5-target.png,125,1.993,2,4544,123,meters,jsons/VE125_randls_43.json,1052463,1329620,57,Woman
154,268002,DepthScenes,duration_manipulation_targetAtFixation,jsons/VE125_randls_43.json,http://54.235.29.9/FacialAge/BNav_EC2/DepthDuration/v2_depth_duration_MTurk/v2_DepthDuration_HTML.html#87,87,1366,625,1366,768,8-29-2022,16-37-59,155,depth_duration_stimuli/002964_2014-06-08_17-46-11_094959634447_rgbf000091-resize_4/002964_2014-06-08_17-46-11_094959634447_rgbf000091-resize_4-target.png,125,1.6909999999999998,3,2862,122,meters,jsons/VE125_randls_43.json,1052463,1329620,57,Woman
155,268002,DepthScenes,duration_manipulation_targetAtFixation,jsons/VE125_randls_43.json,http://54.235.29.9/FacialAge/BNav_EC2/DepthDuration/v2_depth_duration_MTurk/v2_DepthDuration_HTML.html#87,87,1366,625,1366,768,8-29-2022,16-37-59,156,depth_duration_stimuli/002136_2014-06-25_21-18-03_260595134347_rgbf000109-resize_3/002136_2014-06-25_21-18-03_260595134347_rgbf000109-resize_3-target.png,125,1.9569999999999999,3,4427,131,meters,jsons/VE125_randls_43.json,1052463,1329620,57,Woman
156,268002,DepthScenes,duration_manipulation_targetAtFixation,jsons/VE125_randls_43.json,http://54.235.29.9/FacialAge/BNav_EC2/DepthDuration/v2_depth_duration_MTurk/v2_DepthDuration_HTML.html#87,87,1366,625,1366,768,8-29-2022,16-37-59,157,depth_duration_stimuli/002630_2014-06-24_14-47-50_094959634447_rgbf000055-resize_1/002630_2014-06-24_14-47-50_094959634447_rgbf000055-resize_1-target.png,125,3.0095,4,4893,129,meters,jsons/VE125_randls_43.json,1052463,1329620,57,Woman
157,268002,DepthScenes,duration_manipulation_targetAtFixation,jsons/VE125_randls_43.json,http://54.235.29.9/FacialAge/BNav_EC2/DepthDuration/v2_depth_duration_MTurk/v2_DepthDuration_HTML.html#87,87,1366,625,1366,768,8-29-2022,16-37-59,158,depth_duration_stimuli/002758_2014-06-22_19-11-20_094959634447_rgbf000128-resize_1/002758_2014-06-22_19-11-20_094959634447_rgbf000128-resize_1-target.png,125,2.555,2,4194,112,meters,jsons/VE125_randls_43.json,1052463,1329620,57,Woman
158,268002,DepthScenes,duration_manipulation_targetAtFixation,jsons/VE125_randls_43.json,http://54.235.29.9/FacialAge/BNav_EC2/DepthDuration/v2_depth_duration_MTurk/v2_DepthDuration_HTML.html#87,87,1366,625,1366,768,8-29-2022,16-37-59,159,depth_duration_stimuli/002039_2014-06-24_20-22-38_260595134347_rgbf000084-resize_1/002039_2014-06-24_20-22-38_260595134347_rgbf000084-resize_1-target.png,125,4.408,3,4701,124,meters,jsons/VE125_randls_43.json,1052463,1329620,57,Woman
159,268002,DepthScenes,duration_manipulation_targetAtFixation,jsons/VE125_randls_43.json,http://54.235.29.9/FacialAge/BNav_EC2/DepthDuration/v2_depth_duration_MTurk/v2_DepthDuration_HTML.html#87,87,1366,625,1366,768,8-29-2022,16-37-59,160,depth_duration_stimuli/002103_2014-06-25_20-00-40_260595134347_rgbf000049-resize_0/002103_2014-06-25_20-00-40_260595134347_rgbf000049-resize_0-target.png,125,4.105,5,4025,134,meters,jsons/VE125_randls_43.json,1052463,1329620,57,Woman
160,268002,DepthScenes,duration_manipulation_targetAtFixation,jsons/VE125_randls_43.json,http://54.235.29.9/FacialAge/BNav_EC2/DepthDuration/v2_depth_duration_MTurk/v2_DepthDuration_HTML.html#87,87,1366,625,1366,768,8-29-2022,16-37-59,161,depth_duration_stimuli/000736_2014-06-08_18-24-15_260595134347_rgbf000206-resize_3/000736_2014-06-08_18-24-15_260595134347_rgbf000206-resize_3-target.png,125,3.515,5,4594,132,meters,jsons/VE125_randls_43.json,1052463,1329620,57,Woman
161,268002,DepthScenes,duration_manipulation_targetAtFixation,jsons/VE125_randls_43.json,http://54.235.29.9/FacialAge/BNav_EC2/DepthDuration/v2_depth_duration_MTurk/v2_DepthDuration_HTML.html#87,87,1366,625,1366,768,8-29-2022,16-37-59,162,depth_duration_stimuli/000137_2014-05-20_17-04-49_260595134347_rgbf000120-resize_1/000137_2014-05-20_17-04-49_260595134347_rgbf000120-resize_1-target.png,125,3.786,2,4316,134,meters,jsons/VE125_randls_43.json,1052463,1329620,57,Woman
162,268002,DepthScenes,duration_manipulation_targetAtFixation,jsons/VE125_randls_43.json,http://54.235.29.9/FacialAge/BNav_EC2/DepthDuration/v2_depth_duration_MTurk/v2_DepthDuration_HTML.html#87,87,1366,625,1366,768,8-29-2022,16-37-59,163,depth_duration_stimuli/002570_2014-06-24_13-59-54_094959634447_rgbf000059-resize_0/002570_2014-06-24_13-59-54_094959634447_rgbf000059-resize_0-target.png,125,4.037,3,2117,88,meters,jsons/VE125_randls_43.json,1052463,1329620,57,Woman
163,268002,DepthScenes,duration_manipulation_targetAtFixation,jsons/VE125_randls_43.json,http://54.235.29.9/FacialAge/BNav_EC2/DepthDuration/v2_depth_duration_MTurk/v2_DepthDuration_HTML.html#87,87,1366,625,1366,768,8-29-2022,16-37-59,164,depth_duration_stimuli/002467_2014-06-28_20-38-07_260595134347_rgbf000026-resize_2/002467_2014-06-28_20-38-07_260595134347_rgbf000026-resize_2-target.png,125,4.742,3,2125,128,meters,jsons/VE125_randls_43.json,1052463,1329620,57,Woman
