,subjID,experimentName,versionName,sequenceName,url,selected_row,windowWidth,windowHeight,screenWidth,screenHeight,startDate,startTime,trial,stimulus,duration,actual_depth,depth_estimate,trial_RT,log_sceneDuration,unitSelection,seq_filepath,experimentTime,totalTime,age,gender
0,268772,DepthScenes,duration_manipulation_targetAtFixation,jsons/v1_VE250_randls_42.json,http://54.235.29.9/FacialAge/BNav_EC2/DepthDuration/v2_depth_duration_MTurk/v2_DepthDuration_HTML.html#35,35,709,399,1241,698,8-20-2022,9-3-48,1,depth_duration_stimuli/000758_2014-06-08_22-05-08_260595134347_rgbf000085-resize_0/000758_2014-06-08_22-05-08_260595134347_rgbf000085-resize_0-target.png,250,3.3810000000000002,4,3066,249,feet,jsons/v1_VE250_randls_42.json,1648558,1857237,40,Woman
1,268772,DepthScenes,duration_manipulation_targetAtFixation,jsons/v1_VE250_randls_42.json,http://54.235.29.9/FacialAge/BNav_EC2/DepthDuration/v2_depth_duration_MTurk/v2_DepthDuration_HTML.html#35,35,709,399,1241,698,8-20-2022,9-3-48,2,depth_duration_stimuli/000854_2014-06-09_19-43-13_260595134347_rgbf000066-resize_0/000854_2014-06-09_19-43-13_260595134347_rgbf000066-resize_0-target.png,250,3.068,2,3003,248,feet,jsons/v1_VE250_randls_42.json,1648558,1857237,40,Woman
2,268772,DepthScenes,duration_manipulation_targetAtFixation,jsons/v1_VE250_randls_42.json,http://54.235.29.9/FacialAge/BNav_EC2/DepthDuration/v2_depth_duration_MTurk/v2_DepthDuration_HTML.html#35,35,709,399,1241,698,8-20-2022,9-3-48,3,depth_duration_stimuli/002600_2014-06-24_14-27-04_094959634447_rgbf000074-resize_2/002600_2014-06-24_14-27-04_094959634447_rgbf000074-resize_2-target.png,250,2.7575,4,3108,248,feet,jsons/v1_VE250_randls_42.json,1648558,1857237,40,Woman
3,268772,DepthScenes,duration_manipulation_targetAtFixation,jsons/v1_VE250_randls_42.json,http://54.235.29.9/FacialAge/BNav_EC2/DepthDuration/v2_depth_duration_MTurk/v2_DepthDuration_HTML.html#35,35,709,399,1241,698,8-20-2022,9-3-48,4,depth_duration_stimuli/003228_2014-05-14_13-42-35_094959634447_rgbf000101-resize_1/003228_2014-05-14_13-42-35_094959634447_rgbf000101-resize_1-target.png,250,1.9680000000000002,4,4496,248,feet,jsons/v1_VE250_randls_42.json,1648558,1857237,40,Woman
4,268772,DepthScenes,duration_manipulation_targetAtFixation,jsons/v1_VE250_randls_42.json,http://54.235.29.9/FacialAge/BNav_EC2/DepthDuration/v2_depth_duration_MTurk/v2_DepthDuration_HTML.html#35,35,709,399,1241,698,8-20-2022,9-3-48,5,depth_duration_stimuli/000682_2014-06-08_23-14-58_260595134347_rgbf000041-resize_5/000682_2014-06-08_23-14-58_260595134347_rgbf000041-resize_5-target.png,250,2.7239999999999998,5,3443,249,feet,jsons/v1_VE250_randls_42.json,1648558,1857237,40,Woman
5,268772,DepthScenes,duration_manipulation_targetAtFixation,jsons/v1_VE250_randls_42.json,http://54.235.29.9/FacialAge/BNav_EC2/DepthDuration/v2_depth_duration_MTurk/v2_DepthDuration_HTML.html#35,35,709,399,1241,698,8-20-2022,9-3-48,6,depth_duration_stimuli/001650_2014-06-20_12-09-00_260595134347_rgbf000087-resize_3/001650_2014-06-20_12-09-00_260595134347_rgbf000087-resize_3-target.png,250,1.9505,2,5140,248,feet,jsons/v1_VE250_randls_42.json,1648558,1857237,40,Woman
6,268772,DepthScenes,duration_manipulation_targetAtFixation,jsons/v1_VE250_randls_42.json,http://54.235.29.9/FacialAge/BNav_EC2/DepthDuration/v2_depth_duration_MTurk/v2_DepthDuration_HTML.html#35,35,709,399,1241,698,8-20-2022,9-3-48,7,depth_duration_stimuli/002272_2014-06-28_18-53-56_260595134347_rgbf000067-resize_2/002272_2014-06-28_18-53-56_260595134347_rgbf000067-resize_2-target.png,250,1.138,0,3324,248,feet,jsons/v1_VE250_randls_42.json,1648558,1857237,40,Woman
7,268772,DepthScenes,duration_manipulation_targetAtFixation,jsons/v1_VE250_randls_42.json,http://54.235.29.9/FacialAge/BNav_EC2/DepthDuration/v2_depth_duration_MTurk/v2_DepthDuration_HTML.html#35,35,709,399,1241,698,8-20-2022,9-3-48,8,depth_duration_stimuli/001571_2014-06-20_17-21-32_260595134347_rgbf000089-resize_1/001571_2014-06-20_17-21-32_260595134347_rgbf000089-resize_1-target.png,250,1.86,3,3677,250,feet,jsons/v1_VE250_randls_42.json,1648558,1857237,40,Woman
8,268772,DepthScenes,duration_manipulation_targetAtFixation,jsons/v1_VE250_randls_42.json,http://54.235.29.9/FacialAge/BNav_EC2/DepthDuration/v2_depth_duration_MTurk/v2_DepthDuration_HTML.html#35,35,709,399,1241,698,8-20-2022,9-3-48,9,depth_duration_stimuli/002375_2014-06-28_20-13-44_260595134347_rgbf000032-resize_1/002375_2014-06-28_20-13-44_260595134347_rgbf000032-resize_1-target.png,250,4.0175,5,3982,249,feet,jsons/v1_VE250_randls_42.json,1648558,1857237,40,Woman
9,268772,DepthScenes,duration_manipulation_targetAtFixation,jsons/v1_VE250_randls_42.json,http://54.235.29.9/FacialAge/BNav_EC2/DepthDuration/v2_depth_duration_MTurk/v2_DepthDuration_HTML.html#35,35,709,399,1241,698,8-20-2022,9-3-48,10,depth_duration_stimuli/002657_2014-06-13_15-29-54_094959634447_rgbf000150-resize_1/002657_2014-06-13_15-29-54_094959634447_rgbf000150-resize_1-target.png,250,4.919,4,4094,248,feet,jsons/v1_VE250_randls_42.json,1648558,1857237,40,Woman
10,268772,DepthScenes,duration_manipulation_targetAtFixation,jsons/v1_VE250_randls_42.json,http://54.235.29.9/FacialAge/BNav_EC2/DepthDuration/v2_depth_duration_MTurk/v2_DepthDuration_HTML.html#35,35,709,399,1241,698,8-20-2022,9-3-48,11,depth_duration_stimuli/002989_2014-06-15_12-25-03_094959634447_rgbf000150-resize_3/002989_2014-06-15_12-25-03_094959634447_rgbf000150-resize_3-target.png,250,4.1975,3,4051,248,feet,jsons/v1_VE250_randls_42.json,1648558,1857237,40,Woman
11,268772,DepthScenes,duration_manipulation_targetAtFixation,jsons/v1_VE250_randls_42.json,http://54.235.29.9/FacialAge/BNav_EC2/DepthDuration/v2_depth_duration_MTurk/v2_DepthDuration_HTML.html#35,35,709,399,1241,698,8-20-2022,9-3-48,12,depth_duration_stimuli/000866_2014-06-09_20-45-42_260595134347_rgbf000139-resize_1/000866_2014-06-09_20-45-42_260595134347_rgbf000139-resize_1-target.png,250,3.2155,4,3348,249,feet,jsons/v1_VE250_randls_42.json,1648558,1857237,40,Woman
12,268772,DepthScenes,duration_manipulation_targetAtFixation,jsons/v1_VE250_randls_42.json,http://54.235.29.9/FacialAge/BNav_EC2/DepthDuration/v2_depth_duration_MTurk/v2_DepthDuration_HTML.html#35,35,709,399,1241,698,8-20-2022,9-3-48,13,depth_duration_stimuli/000569_2014-06-09_22-51-47_260595134347_rgbf000141-resize_3/000569_2014-06-09_22-51-47_260595134347_rgbf000141-resize-original.jpg,250,4.512,0,3479,249,feet,jsons/v1_VE250_randls_42.json,1648558,1857237,40,Woman
13,268772,DepthScenes,duration_manipulation_targetAtFixation,jsons/v1_VE250_randls_42.json,http://54.235.29.9/FacialAge/BNav_EC2/DepthDuration/v2_depth_duration_MTurk/v2_DepthDuration_HTML.html#35,35,709,399,1241,698,8-20-2022,9-3-48,14,depth_duration_stimuli/002057_2014-06-24_21-00-13_260595134347_rgbf000120-resize_1/002057_2014-06-24_21-00-13_260595134347_rgbf000120-resize_1-target.png,250,2.967,3,2971,248,feet,jsons/v1_VE250_randls_42.json,1648558,1857237,40,Woman
14,268772,DepthScenes,duration_manipulation_targetAtFixation,jsons/v1_VE250_randls_42.json,http://54.235.29.9/FacialAge/BNav_EC2/DepthDuration/v2_depth_duration_MTurk/v2_DepthDuration_HTML.html#35,35,1129,635,1241,698,8-20-2022,9-3-48,15,depth_duration_stimuli/000709_2014-06-08_13-51-55_260595134347_rgbf000068-resize_3/000709_2014-06-08_13-51-55_260595134347_rgbf000068-resize_3-target.png,250,1.8030000000000002,5,9975,248,feet,jsons/v1_VE250_randls_42.json,1648558,1857237,40,Woman
15,268772,DepthScenes,duration_manipulation_targetAtFixation,jsons/v1_VE250_randls_42.json,http://54.235.29.9/FacialAge/BNav_EC2/DepthDuration/v2_depth_duration_MTurk/v2_DepthDuration_HTML.html#35,35,1129,635,1241,698,8-20-2022,9-3-48,16,depth_duration_stimuli/001555_2014-06-20_17-12-10_260595134347_rgbf000065-resize_4/001555_2014-06-20_17-12-10_260595134347_rgbf000065-resize_4-target.png,250,1.633,2,2955,249,feet,jsons/v1_VE250_randls_42.json,1648558,1857237,40,Woman
16,268772,DepthScenes,duration_manipulation_targetAtFixation,jsons/v1_VE250_randls_42.json,http://54.235.29.9/FacialAge/BNav_EC2/DepthDuration/v2_depth_duration_MTurk/v2_DepthDuration_HTML.html#35,35,1129,635,1241,698,8-20-2022,9-3-48,17,depth_duration_stimuli/000103_2014-05-14_22-01-17_260595134347_rgbf000152-resize_5/000103_2014-05-14_22-01-17_260595134347_rgbf000152-resize_5-target.png,250,1.993,7,9975,249,feet,jsons/v1_VE250_randls_42.json,1648558,1857237,40,Woman
17,268772,DepthScenes,duration_manipulation_targetAtFixation,jsons/v1_VE250_randls_42.json,http://54.235.29.9/FacialAge/BNav_EC2/DepthDuration/v2_depth_duration_MTurk/v2_DepthDuration_HTML.html#35,35,1129,635,1241,698,8-20-2022,9-3-48,18,depth_duration_stimuli/001164_2014-06-17_15-35-46_260595134347_rgbf000085-resize_3/001164_2014-06-17_15-35-46_260595134347_rgbf000085-resize_3-target.png,250,2.354,5,3925,248,feet,jsons/v1_VE250_randls_42.json,1648558,1857237,40,Woman
18,268772,DepthScenes,duration_manipulation_targetAtFixation,jsons/v1_VE250_randls_42.json,http://54.235.29.9/FacialAge/BNav_EC2/DepthDuration/v2_depth_duration_MTurk/v2_DepthDuration_HTML.html#35,35,1129,635,1241,698,8-20-2022,9-3-48,19,depth_duration_stimuli/001136_2014-06-17_15-19-41_260595134347_rgbf000076-resize_3/001136_2014-06-17_15-19-41_260595134347_rgbf000076-resize_3-target.png,250,1.8655,6,3891,249,feet,jsons/v1_VE250_randls_42.json,1648558,1857237,40,Woman
19,268772,DepthScenes,duration_manipulation_targetAtFixation,jsons/v1_VE250_randls_42.json,http://54.235.29.9/FacialAge/BNav_EC2/DepthDuration/v2_depth_duration_MTurk/v2_DepthDuration_HTML.html#35,35,1129,635,1241,698,8-20-2022,9-3-48,20,depth_duration_stimuli/001158_2014-06-17_15-32-16_260595134347_rgbf000138-resize_2/001158_2014-06-17_15-32-16_260595134347_rgbf000138-resize_2-target.png,250,4.5315,7,3518,240,feet,jsons/v1_VE250_randls_42.json,1648558,1857237,40,Woman
20,268772,DepthScenes,duration_manipulation_targetAtFixation,jsons/v1_VE250_randls_42.json,http://54.235.29.9/FacialAge/BNav_EC2/DepthDuration/v2_depth_duration_MTurk/v2_DepthDuration_HTML.html#35,35,1129,635,1241,698,8-20-2022,9-3-48,21,depth_duration_stimuli/000556_2014-06-09_22-42-56_260595134347_rgbf000214-resize_1/000556_2014-06-09_22-42-56_260595134347_rgbf000214-resize_1-target.png,250,4.8415,10,5801,248,feet,jsons/v1_VE250_randls_42.json,1648558,1857237,40,Woman
21,268772,DepthScenes,duration_manipulation_targetAtFixation,jsons/v1_VE250_randls_42.json,http://54.235.29.9/FacialAge/BNav_EC2/DepthDuration/v2_depth_duration_MTurk/v2_DepthDuration_HTML.html#35,35,1129,635,1241,698,8-20-2022,9-3-48,22,depth_duration_stimuli/002509_2014-06-24_13-19-22_094959634447_rgbf000077-resize_0/002509_2014-06-24_13-19-22_094959634447_rgbf000077-resize_0-target.png,250,1.3065,3,3860,249,feet,jsons/v1_VE250_randls_42.json,1648558,1857237,40,Woman
22,268772,DepthScenes,duration_manipulation_targetAtFixation,jsons/v1_VE250_randls_42.json,http://54.235.29.9/FacialAge/BNav_EC2/DepthDuration/v2_depth_duration_MTurk/v2_DepthDuration_HTML.html#35,35,1129,635,1241,698,8-20-2022,9-3-48,23,depth_duration_stimuli/003338_2014-05-20_11-01-23_094959634447_rgbf000051-resize_6/003338_2014-05-20_11-01-23_094959634447_rgbf000051-resize_6-target.png,250,1.693,4,3059,248,feet,jsons/v1_VE250_randls_42.json,1648558,1857237,40,Woman
23,268772,DepthScenes,duration_manipulation_targetAtFixation,jsons/v1_VE250_randls_42.json,http://54.235.29.9/FacialAge/BNav_EC2/DepthDuration/v2_depth_duration_MTurk/v2_DepthDuration_HTML.html#35,35,1129,635,1241,698,8-20-2022,9-3-48,24,depth_duration_stimuli/001244_2014-06-17_16-47-45_260595134347_rgbf000030-resize_4/001244_2014-06-17_16-47-45_260595134347_rgbf000030-resize_4-target.png,250,2.0425,6,3206,248,feet,jsons/v1_VE250_randls_42.json,1648558,1857237,40,Woman
24,268772,DepthScenes,duration_manipulation_targetAtFixation,jsons/v1_VE250_randls_42.json,http://54.235.29.9/FacialAge/BNav_EC2/DepthDuration/v2_depth_duration_MTurk/v2_DepthDuration_HTML.html#35,35,1129,635,1241,698,8-20-2022,9-3-48,25,depth_duration_stimuli/003495_2014-05-21_16-01-51_094959634447_rgbf000100-resize_3/003495_2014-05-21_16-01-51_094959634447_rgbf000100-resize_3-target.png,250,1.6255,3,3082,248,feet,jsons/v1_VE250_randls_42.json,1648558,1857237,40,Woman
25,268772,DepthScenes,duration_manipulation_targetAtFixation,jsons/v1_VE250_randls_42.json,http://54.235.29.9/FacialAge/BNav_EC2/DepthDuration/v2_depth_duration_MTurk/v2_DepthDuration_HTML.html#35,35,1129,635,1241,698,8-20-2022,9-3-48,26,depth_duration_stimuli/001066_2014-06-08_22-03-20_260595134347_rgbf000066-resize_4/001066_2014-06-08_22-03-20_260595134347_rgbf000066-resize_4-target.png,250,4.2330000000000005,5,3643,249,feet,jsons/v1_VE250_randls_42.json,1648558,1857237,40,Woman
26,268772,DepthScenes,duration_manipulation_targetAtFixation,jsons/v1_VE250_randls_42.json,http://54.235.29.9/FacialAge/BNav_EC2/DepthDuration/v2_depth_duration_MTurk/v2_DepthDuration_HTML.html#35,35,1129,635,1241,698,8-20-2022,9-3-48,27,depth_duration_stimuli/000742_2014-06-08_18-48-09_260595134347_rgbf000164-resize_4/000742_2014-06-08_18-48-09_260595134347_rgbf000164-resize_4-target.png,250,4.632,6,3639,249,feet,jsons/v1_VE250_randls_42.json,1648558,1857237,40,Woman
27,268772,DepthScenes,duration_manipulation_targetAtFixation,jsons/v1_VE250_randls_42.json,http://54.235.29.9/FacialAge/BNav_EC2/DepthDuration/v2_depth_duration_MTurk/v2_DepthDuration_HTML.html#35,35,1129,635,1241,698,8-20-2022,9-3-48,28,depth_duration_stimuli/002725_2014-06-22_11-47-51_094959634447_rgbf000070-resize_1/002725_2014-06-22_11-47-51_094959634447_rgbf000070-resize_1-target.png,250,2.195,7,6676,249,feet,jsons/v1_VE250_randls_42.json,1648558,1857237,40,Woman
28,268772,DepthScenes,duration_manipulation_targetAtFixation,jsons/v1_VE250_randls_42.json,http://54.235.29.9/FacialAge/BNav_EC2/DepthDuration/v2_depth_duration_MTurk/v2_DepthDuration_HTML.html#35,35,1129,635,1241,698,8-20-2022,9-3-48,29,depth_duration_stimuli/002344_2014-06-28_20-06-29_260595134347_rgbf000030-resize_1/002344_2014-06-28_20-06-29_260595134347_rgbf000030-resize_1-target.png,250,1.5795,3,2603,249,feet,jsons/v1_VE250_randls_42.json,1648558,1857237,40,Woman
29,268772,DepthScenes,duration_manipulation_targetAtFixation,jsons/v1_VE250_randls_42.json,http://54.235.29.9/FacialAge/BNav_EC2/DepthDuration/v2_depth_duration_MTurk/v2_DepthDuration_HTML.html#35,35,1129,635,1241,698,8-20-2022,9-3-48,30,depth_duration_stimuli/000375_2014-06-08_11-17-29_260595134347_rgbf000133-resize_2/000375_2014-06-08_11-17-29_260595134347_rgbf000133-resize-original.jpg,250,4.718,0,2705,248,feet,jsons/v1_VE250_randls_42.json,1648558,1857237,40,Woman
30,268772,DepthScenes,duration_manipulation_targetAtFixation,jsons/v1_VE250_randls_42.json,http://54.235.29.9/FacialAge/BNav_EC2/DepthDuration/v2_depth_duration_MTurk/v2_DepthDuration_HTML.html#35,35,1129,635,1241,698,8-20-2022,9-3-48,31,depth_duration_stimuli/000486_2014-06-09_20-47-20_260595134347_rgbf000143-resize_2/000486_2014-06-09_20-47-20_260595134347_rgbf000143-resize_2-target.png,250,4.8325,4,2651,246,feet,jsons/v1_VE250_randls_42.json,1648558,1857237,40,Woman
31,268772,DepthScenes,duration_manipulation_targetAtFixation,jsons/v1_VE250_randls_42.json,http://54.235.29.9/FacialAge/BNav_EC2/DepthDuration/v2_depth_duration_MTurk/v2_DepthDuration_HTML.html#35,35,1129,635,1241,698,8-20-2022,9-3-48,32,depth_duration_stimuli/003083_2014-06-15_15-21-03_094959634447_rgbf000063-resize_1/003083_2014-06-15_15-21-03_094959634447_rgbf000063-resize_1-target.png,250,4.1405,9,3549,249,feet,jsons/v1_VE250_randls_42.json,1648558,1857237,40,Woman
32,268772,DepthScenes,duration_manipulation_targetAtFixation,jsons/v1_VE250_randls_42.json,http://54.235.29.9/FacialAge/BNav_EC2/DepthDuration/v2_depth_duration_MTurk/v2_DepthDuration_HTML.html#35,35,1129,635,1241,698,8-20-2022,9-3-48,33,depth_duration_stimuli/001417_2014-06-19_16-25-36_260595134347_rgbf000115-resize_5/001417_2014-06-19_16-25-36_260595134347_rgbf000115-resize_5-target.png,250,4.6255,11,4656,248,feet,jsons/v1_VE250_randls_42.json,1648558,1857237,40,Woman
33,268772,DepthScenes,duration_manipulation_targetAtFixation,jsons/v1_VE250_randls_42.json,http://54.235.29.9/FacialAge/BNav_EC2/DepthDuration/v2_depth_duration_MTurk/v2_DepthDuration_HTML.html#35,35,1129,635,1241,698,8-20-2022,9-3-48,34,depth_duration_stimuli/003081_2014-06-15_15-19-16_094959634447_rgbf000150-resize_1/003081_2014-06-15_15-19-16_094959634447_rgbf000150-resize_1-target.png,250,3.9125,8,7532,248,feet,jsons/v1_VE250_randls_42.json,1648558,1857237,40,Woman
34,268772,DepthScenes,duration_manipulation_targetAtFixation,jsons/v1_VE250_randls_42.json,http://54.235.29.9/FacialAge/BNav_EC2/DepthDuration/v2_depth_duration_MTurk/v2_DepthDuration_HTML.html#35,35,1129,635,1241,698,8-20-2022,9-3-48,35,depth_duration_stimuli/000368_2014-06-09_15-53-01_260595134347_rgbf000155-resize_2/000368_2014-06-09_15-53-01_260595134347_rgbf000155-resize_2-target.png,250,2.4859999999999998,5,4878,248,feet,jsons/v1_VE250_randls_42.json,1648558,1857237,40,Woman
35,268772,DepthScenes,duration_manipulation_targetAtFixation,jsons/v1_VE250_randls_42.json,http://54.235.29.9/FacialAge/BNav_EC2/DepthDuration/v2_depth_duration_MTurk/v2_DepthDuration_HTML.html#35,35,1129,635,1241,698,8-20-2022,9-3-48,36,depth_duration_stimuli/002678_2014-06-13_16-15-32_094959634447_rgbf000151-resize_6/002678_2014-06-13_16-15-32_094959634447_rgbf000151-resize_6-target.png,250,2.1830000000000003,10,4029,248,feet,jsons/v1_VE250_randls_42.json,1648558,1857237,40,Woman
36,268772,DepthScenes,duration_manipulation_targetAtFixation,jsons/v1_VE250_randls_42.json,http://54.235.29.9/FacialAge/BNav_EC2/DepthDuration/v2_depth_duration_MTurk/v2_DepthDuration_HTML.html#35,35,1129,635,1241,698,8-20-2022,9-3-48,37,depth_duration_stimuli/002763_2014-06-22_19-13-10_094959634447_rgbf000075-resize_4/002763_2014-06-22_19-13-10_094959634447_rgbf000075-resize_4-target.png,250,1.68375,3,2837,249,feet,jsons/v1_VE250_randls_42.json,1648558,1857237,40,Woman
37,268772,DepthScenes,duration_manipulation_targetAtFixation,jsons/v1_VE250_randls_42.json,http://54.235.29.9/FacialAge/BNav_EC2/DepthDuration/v2_depth_duration_MTurk/v2_DepthDuration_HTML.html#35,35,1129,635,1241,698,8-20-2022,9-3-48,38,depth_duration_stimuli/002209_2014-06-28_18-36-10_260595134347_rgbf000051-resize_1/002209_2014-06-28_18-36-10_260595134347_rgbf000051-resize_1-target.png,250,2.057,4,2993,249,feet,jsons/v1_VE250_randls_42.json,1648558,1857237,40,Woman
38,268772,DepthScenes,duration_manipulation_targetAtFixation,jsons/v1_VE250_randls_42.json,http://54.235.29.9/FacialAge/BNav_EC2/DepthDuration/v2_depth_duration_MTurk/v2_DepthDuration_HTML.html#35,35,1129,635,1241,698,8-20-2022,9-3-48,39,depth_duration_stimuli/001055_2014-06-08_18-45-35_260595134347_rgbf000111-resize_4/001055_2014-06-08_18-45-35_260595134347_rgbf000111-resize_4-target.png,250,2.4290000000000003,8,3749,248,feet,jsons/v1_VE250_randls_42.json,1648558,1857237,40,Woman
39,268772,DepthScenes,duration_manipulation_targetAtFixation,jsons/v1_VE250_randls_42.json,http://54.235.29.9/FacialAge/BNav_EC2/DepthDuration/v2_depth_duration_MTurk/v2_DepthDuration_HTML.html#35,35,1129,635,1241,698,8-20-2022,9-3-48,40,depth_duration_stimuli/000549_2014-06-08_22-10-24_260595134347_rgbf000247-resize_3/000549_2014-06-08_22-10-24_260595134347_rgbf000247-resize_3-target.png,250,1.841,4,5898,249,feet,jsons/v1_VE250_randls_42.json,1648558,1857237,40,Woman
40,268772,DepthScenes,duration_manipulation_targetAtFixation,jsons/v1_VE250_randls_42.json,http://54.235.29.9/FacialAge/BNav_EC2/DepthDuration/v2_depth_duration_MTurk/v2_DepthDuration_HTML.html#35,35,1129,635,1241,698,8-20-2022,9-3-48,41,depth_duration_stimuli/002748_2014-06-22_19-07-22_094959634447_rgbf000078-resize_1/002748_2014-06-22_19-07-22_094959634447_rgbf000078-resize_1-target.png,250,4.6705,11,4674,248,feet,jsons/v1_VE250_randls_42.json,1648558,1857237,40,Woman
41,268772,DepthScenes,duration_manipulation_targetAtFixation,jsons/v1_VE250_randls_42.json,http://54.235.29.9/FacialAge/BNav_EC2/DepthDuration/v2_depth_duration_MTurk/v2_DepthDuration_HTML.html#35,35,1129,635,1241,698,8-20-2022,9-3-48,42,depth_duration_stimuli/002995_2014-06-15_12-31-26_094959634447_rgbf000150-resize_1/002995_2014-06-15_12-31-26_094959634447_rgbf000150-resize_1-target.png,250,3.8360000000000003,6,4794,248,feet,jsons/v1_VE250_randls_42.json,1648558,1857237,40,Woman
42,268772,DepthScenes,duration_manipulation_targetAtFixation,jsons/v1_VE250_randls_42.json,http://54.235.29.9/FacialAge/BNav_EC2/DepthDuration/v2_depth_duration_MTurk/v2_DepthDuration_HTML.html#35,35,1129,635,1241,698,8-20-2022,9-3-48,43,depth_duration_stimuli/003534_2014-05-22_15-06-10_094959634447_rgbf000102-resize_4/003534_2014-05-22_15-06-10_094959634447_rgbf000102-resize_4-target.png,250,1.426,4,4052,249,feet,jsons/v1_VE250_randls_42.json,1648558,1857237,40,Woman
43,268772,DepthScenes,duration_manipulation_targetAtFixation,jsons/v1_VE250_randls_42.json,http://54.235.29.9/FacialAge/BNav_EC2/DepthDuration/v2_depth_duration_MTurk/v2_DepthDuration_HTML.html#35,35,1129,635,1241,698,8-20-2022,9-3-48,44,depth_duration_stimuli/002637_2014-06-24_14-51-13_094959634447_rgbf000066-resize_4/002637_2014-06-24_14-51-13_094959634447_rgbf000066-resize_4-target.png,250,1.9955,10,3655,248,feet,jsons/v1_VE250_randls_42.json,1648558,1857237,40,Woman
44,268772,DepthScenes,duration_manipulation_targetAtFixation,jsons/v1_VE250_randls_42.json,http://54.235.29.9/FacialAge/BNav_EC2/DepthDuration/v2_depth_duration_MTurk/v2_DepthDuration_HTML.html#35,35,1129,635,1241,698,8-20-2022,9-3-48,45,depth_duration_stimuli/000787_2014-06-08_22-33-53_260595134347_rgbf000175-resize_1/000787_2014-06-08_22-33-53_260595134347_rgbf000175-resize-original.jpg,250,4.784,0,2596,249,feet,jsons/v1_VE250_randls_42.json,1648558,1857237,40,Woman
45,268772,DepthScenes,duration_manipulation_targetAtFixation,jsons/v1_VE250_randls_42.json,http://54.235.29.9/FacialAge/BNav_EC2/DepthDuration/v2_depth_duration_MTurk/v2_DepthDuration_HTML.html#35,35,1129,635,1241,698,8-20-2022,9-3-48,46,depth_duration_stimuli/000506_2014-06-08_23-21-00_260595134347_rgbf000070-resize_7/000506_2014-06-08_23-21-00_260595134347_rgbf000070-resize_7-target.png,250,4.0585,7,10823,248,feet,jsons/v1_VE250_randls_42.json,1648558,1857237,40,Woman
46,268772,DepthScenes,duration_manipulation_targetAtFixation,jsons/v1_VE250_randls_42.json,http://54.235.29.9/FacialAge/BNav_EC2/DepthDuration/v2_depth_duration_MTurk/v2_DepthDuration_HTML.html#35,35,1129,635,1241,698,8-20-2022,9-3-48,47,depth_duration_stimuli/003079_2014-06-15_15-18-20_094959634447_rgbf000152-resize_8/003079_2014-06-15_15-18-20_094959634447_rgbf000152-resize_8-target.png,250,2.8775,9,3079,249,feet,jsons/v1_VE250_randls_42.json,1648558,1857237,40,Woman
47,268772,DepthScenes,duration_manipulation_targetAtFixation,jsons/v1_VE250_randls_42.json,http://54.235.29.9/FacialAge/BNav_EC2/DepthDuration/v2_depth_duration_MTurk/v2_DepthDuration_HTML.html#35,35,1129,635,1241,698,8-20-2022,9-3-48,48,depth_duration_stimuli/001110_2014-06-15_17-25-28_260595134347_rgbf000150-resize_1/001110_2014-06-15_17-25-28_260595134347_rgbf000150-resize_1-target.png,250,1.7115,5,4196,249,feet,jsons/v1_VE250_randls_42.json,1648558,1857237,40,Woman
48,268772,DepthScenes,duration_manipulation_targetAtFixation,jsons/v1_VE250_randls_42.json,http://54.235.29.9/FacialAge/BNav_EC2/DepthDuration/v2_depth_duration_MTurk/v2_DepthDuration_HTML.html#35,35,1129,635,1241,698,8-20-2022,9-3-48,49,depth_duration_stimuli/000927_2014-06-09_16-32-30_260595134347_rgbf000123-resize_3/000927_2014-06-09_16-32-30_260595134347_rgbf000123-resize_3-target.png,250,2.6785,6,7201,248,feet,jsons/v1_VE250_randls_42.json,1648558,1857237,40,Woman
49,268772,DepthScenes,duration_manipulation_targetAtFixation,jsons/v1_VE250_randls_42.json,http://54.235.29.9/FacialAge/BNav_EC2/DepthDuration/v2_depth_duration_MTurk/v2_DepthDuration_HTML.html#35,35,1129,635,1241,698,8-20-2022,9-3-48,50,depth_duration_stimuli/000739_2014-06-08_18-45-58_260595134347_rgbf000068-resize_1/000739_2014-06-08_18-45-58_260595134347_rgbf000068-resize_1-target.png,250,3.534,9,2916,248,feet,jsons/v1_VE250_randls_42.json,1648558,1857237,40,Woman
50,268772,DepthScenes,duration_manipulation_targetAtFixation,jsons/v1_VE250_randls_42.json,http://54.235.29.9/FacialAge/BNav_EC2/DepthDuration/v2_depth_duration_MTurk/v2_DepthDuration_HTML.html#35,35,1129,635,1241,698,8-20-2022,9-3-48,51,depth_duration_stimuli/000734_2014-06-08_17-39-11_260595134347_rgbf000128-resize_2/000734_2014-06-08_17-39-11_260595134347_rgbf000128-resize_2-target.png,250,4.098,10,3059,248,feet,jsons/v1_VE250_randls_42.json,1648558,1857237,40,Woman
51,268772,DepthScenes,duration_manipulation_targetAtFixation,jsons/v1_VE250_randls_42.json,http://54.235.29.9/FacialAge/BNav_EC2/DepthDuration/v2_depth_duration_MTurk/v2_DepthDuration_HTML.html#35,35,1129,635,1241,698,8-20-2022,9-3-48,52,depth_duration_stimuli/000642_2014-06-08_16-59-25_260595134347_rgbf000098-resize_2/000642_2014-06-08_16-59-25_260595134347_rgbf000098-resize_2-target.png,250,2.8815,8,3860,247,feet,jsons/v1_VE250_randls_42.json,1648558,1857237,40,Woman
52,268772,DepthScenes,duration_manipulation_targetAtFixation,jsons/v1_VE250_randls_42.json,http://54.235.29.9/FacialAge/BNav_EC2/DepthDuration/v2_depth_duration_MTurk/v2_DepthDuration_HTML.html#35,35,1129,635,1241,698,8-20-2022,9-3-48,53,depth_duration_stimuli/002425_2014-06-28_20-27-29_260595134347_rgbf000031-resize_8/002425_2014-06-28_20-27-29_260595134347_rgbf000031-resize_8-target.png,250,3.8960000000000004,9,9112,248,feet,jsons/v1_VE250_randls_42.json,1648558,1857237,40,Woman
53,268772,DepthScenes,duration_manipulation_targetAtFixation,jsons/v1_VE250_randls_42.json,http://54.235.29.9/FacialAge/BNav_EC2/DepthDuration/v2_depth_duration_MTurk/v2_DepthDuration_HTML.html#35,35,1129,635,1241,698,8-20-2022,9-3-48,54,depth_duration_stimuli/000878_2014-06-08_22-52-45_260595134347_rgbf000045-resize_2/000878_2014-06-08_22-52-45_260595134347_rgbf000045-resize_2-target.png,250,2.092,6,3770,248,feet,jsons/v1_VE250_randls_42.json,1648558,1857237,40,Woman
54,268772,DepthScenes,duration_manipulation_targetAtFixation,jsons/v1_VE250_randls_42.json,http://54.235.29.9/FacialAge/BNav_EC2/DepthDuration/v2_depth_duration_MTurk/v2_DepthDuration_HTML.html#35,35,1129,635,1241,698,8-20-2022,9-3-48,55,depth_duration_stimuli/002953_2014-06-08_17-32-18_094959634447_rgbf000059-resize_5/002953_2014-06-08_17-32-18_094959634447_rgbf000059-resize_5-target.png,250,1.551,4,3699,247,feet,jsons/v1_VE250_randls_42.json,1648558,1857237,40,Woman
55,268772,DepthScenes,duration_manipulation_targetAtFixation,jsons/v1_VE250_randls_42.json,http://54.235.29.9/FacialAge/BNav_EC2/DepthDuration/v2_depth_duration_MTurk/v2_DepthDuration_HTML.html#35,35,1129,635,1241,698,8-20-2022,9-3-48,56,depth_duration_stimuli/000692_2014-06-08_13-09-42_260595134347_rgbf000199-resize_2/000692_2014-06-08_13-09-42_260595134347_rgbf000199-resize_2-target.png,250,3.661,12,3812,248,feet,jsons/v1_VE250_randls_42.json,1648558,1857237,40,Woman
56,268772,DepthScenes,duration_manipulation_targetAtFixation,jsons/v1_VE250_randls_42.json,http://54.235.29.9/FacialAge/BNav_EC2/DepthDuration/v2_depth_duration_MTurk/v2_DepthDuration_HTML.html#35,35,1129,635,1241,698,8-20-2022,9-3-48,57,depth_duration_stimuli/001094_2014-06-15_17-36-00_260595134347_rgbf000205-resize_0/001094_2014-06-15_17-36-00_260595134347_rgbf000205-resize_0-target.png,250,4.2175,10,4788,249,feet,jsons/v1_VE250_randls_42.json,1648558,1857237,40,Woman
57,268772,DepthScenes,duration_manipulation_targetAtFixation,jsons/v1_VE250_randls_42.json,http://54.235.29.9/FacialAge/BNav_EC2/DepthDuration/v2_depth_duration_MTurk/v2_DepthDuration_HTML.html#35,35,1129,635,1241,698,8-20-2022,9-3-48,58,depth_duration_stimuli/002788_2014-06-22_19-36-03_094959634447_rgbf000088-resize_2/002788_2014-06-22_19-36-03_094959634447_rgbf000088-resize_2-target.png,250,1.6465,11,5693,249,feet,jsons/v1_VE250_randls_42.json,1648558,1857237,40,Woman
58,268772,DepthScenes,duration_manipulation_targetAtFixation,jsons/v1_VE250_randls_42.json,http://54.235.29.9/FacialAge/BNav_EC2/DepthDuration/v2_depth_duration_MTurk/v2_DepthDuration_HTML.html#35,35,1129,635,1241,698,8-20-2022,9-3-48,59,depth_duration_stimuli/000749_2014-06-08_21-55-06_260595134347_rgbf000070-resize_2/000749_2014-06-08_21-55-06_260595134347_rgbf000070-resize_2-target.png,250,2.331,7,3027,248,feet,jsons/v1_VE250_randls_42.json,1648558,1857237,40,Woman
59,268772,DepthScenes,duration_manipulation_targetAtFixation,jsons/v1_VE250_randls_42.json,http://54.235.29.9/FacialAge/BNav_EC2/DepthDuration/v2_depth_duration_MTurk/v2_DepthDuration_HTML.html#35,35,1129,635,1241,698,8-20-2022,9-3-48,60,depth_duration_stimuli/001167_2014-06-17_15-38-07_260595134347_rgbf000108-resize_0/001167_2014-06-17_15-38-07_260595134347_rgbf000108-resize_0-target.png,250,1.8505,5,3396,249,feet,jsons/v1_VE250_randls_42.json,1648558,1857237,40,Woman
60,268772,DepthScenes,duration_manipulation_targetAtFixation,jsons/v1_VE250_randls_42.json,http://54.235.29.9/FacialAge/BNav_EC2/DepthDuration/v2_depth_duration_MTurk/v2_DepthDuration_HTML.html#35,35,1129,635,1241,698,8-20-2022,9-3-48,61,depth_duration_stimuli/003587_2014-05-23_16-48-02_094959634447_rgbf002384-resize_2/003587_2014-05-23_16-48-02_094959634447_rgbf002384-resize_2-target.png,250,1.357,5,6200,246,feet,jsons/v1_VE250_randls_42.json,1648558,1857237,40,Woman
61,268772,DepthScenes,duration_manipulation_targetAtFixation,jsons/v1_VE250_randls_42.json,http://54.235.29.9/FacialAge/BNav_EC2/DepthDuration/v2_depth_duration_MTurk/v2_DepthDuration_HTML.html#35,35,1129,635,1241,698,8-20-2022,9-3-48,62,depth_duration_stimuli/001016_2014-06-09_16-16-10_260595134347_rgbf000112-resize_5/001016_2014-06-09_16-16-10_260595134347_rgbf000112-resize_5-target.png,250,1.6565,6,4630,249,feet,jsons/v1_VE250_randls_42.json,1648558,1857237,40,Woman
62,268772,DepthScenes,duration_manipulation_targetAtFixation,jsons/v1_VE250_randls_42.json,http://54.235.29.9/FacialAge/BNav_EC2/DepthDuration/v2_depth_duration_MTurk/v2_DepthDuration_HTML.html#35,35,1129,635,1241,698,8-20-2022,9-3-48,63,depth_duration_stimuli/002340_2014-06-28_20-05-46_260595134347_rgbf000113-resize_0/002340_2014-06-28_20-05-46_260595134347_rgbf000113-resize_0-target.png,250,2.4735,7,3704,249,feet,jsons/v1_VE250_randls_42.json,1648558,1857237,40,Woman
63,268772,DepthScenes,duration_manipulation_targetAtFixation,jsons/v1_VE250_randls_42.json,http://54.235.29.9/FacialAge/BNav_EC2/DepthDuration/v2_depth_duration_MTurk/v2_DepthDuration_HTML.html#35,35,1129,635,1241,698,8-20-2022,9-3-48,64,depth_duration_stimuli/001059_2014-06-08_21-53-27_260595134347_rgbf000061-resize_4/001059_2014-06-08_21-53-27_260595134347_rgbf000061-resize_4-target.png,250,2.4185,8,2957,248,feet,jsons/v1_VE250_randls_42.json,1648558,1857237,40,Woman
64,268772,DepthScenes,duration_manipulation_targetAtFixation,jsons/v1_VE250_randls_42.json,http://54.235.29.9/FacialAge/BNav_EC2/DepthDuration/v2_depth_duration_MTurk/v2_DepthDuration_HTML.html#35,35,1129,635,1241,698,8-20-2022,9-3-48,65,depth_duration_stimuli/001032_2014-06-08_13-23-17_260595134347_rgbf000021-resize_3/001032_2014-06-08_13-23-17_260595134347_rgbf000021-resize_3-target.png,250,3.2725,9,3796,249,feet,jsons/v1_VE250_randls_42.json,1648558,1857237,40,Woman
65,268772,DepthScenes,duration_manipulation_targetAtFixation,jsons/v1_VE250_randls_42.json,http://54.235.29.9/FacialAge/BNav_EC2/DepthDuration/v2_depth_duration_MTurk/v2_DepthDuration_HTML.html#35,35,1129,635,1241,698,8-20-2022,9-3-48,66,depth_duration_stimuli/001222_2014-06-17_16-24-06_260595134347_rgbf000073-resize_0/001222_2014-06-17_16-24-06_260595134347_rgbf000073-resize-original.jpg,250,1.4385,0,758519,249,feet,jsons/v1_VE250_randls_42.json,1648558,1857237,40,Woman
66,268772,DepthScenes,duration_manipulation_targetAtFixation,jsons/v1_VE250_randls_42.json,http://54.235.29.9/FacialAge/BNav_EC2/DepthDuration/v2_depth_duration_MTurk/v2_DepthDuration_HTML.html#35,35,1129,635,1241,698,8-20-2022,9-3-48,67,depth_duration_stimuli/002043_2014-06-24_20-29-38_260595134347_rgbf000039-resize_4/002043_2014-06-24_20-29-38_260595134347_rgbf000039-resize_4-target.png,250,2.8435,7,3506,248,feet,jsons/v1_VE250_randls_42.json,1648558,1857237,40,Woman
67,268772,DepthScenes,duration_manipulation_targetAtFixation,jsons/v1_VE250_randls_42.json,http://54.235.29.9/FacialAge/BNav_EC2/DepthDuration/v2_depth_duration_MTurk/v2_DepthDuration_HTML.html#35,35,1129,635,1241,698,8-20-2022,9-3-48,68,depth_duration_stimuli/003048_2014-06-15_13-49-43_094959634447_rgbf000150-resize_1/003048_2014-06-15_13-49-43_094959634447_rgbf000150-resize_1-target.png,250,4.0035,12,3663,248,feet,jsons/v1_VE250_randls_42.json,1648558,1857237,40,Woman
68,268772,DepthScenes,duration_manipulation_targetAtFixation,jsons/v1_VE250_randls_42.json,http://54.235.29.9/FacialAge/BNav_EC2/DepthDuration/v2_depth_duration_MTurk/v2_DepthDuration_HTML.html#35,35,1129,635,1241,698,8-20-2022,9-3-48,69,depth_duration_stimuli/002570_2014-06-24_13-59-54_094959634447_rgbf000059-resize_0/002570_2014-06-24_13-59-54_094959634447_rgbf000059-resize_0-target.png,250,4.037,6,5037,249,feet,jsons/v1_VE250_randls_42.json,1648558,1857237,40,Woman
69,268772,DepthScenes,duration_manipulation_targetAtFixation,jsons/v1_VE250_randls_42.json,http://54.235.29.9/FacialAge/BNav_EC2/DepthDuration/v2_depth_duration_MTurk/v2_DepthDuration_HTML.html#35,35,1129,635,1241,698,8-20-2022,9-3-48,70,depth_duration_stimuli/002467_2014-06-28_20-38-07_260595134347_rgbf000026-resize_2/002467_2014-06-28_20-38-07_260595134347_rgbf000026-resize_2-target.png,250,4.742,10,3859,249,feet,jsons/v1_VE250_randls_42.json,1648558,1857237,40,Woman
70,268772,DepthScenes,duration_manipulation_targetAtFixation,jsons/v1_VE250_randls_42.json,http://54.235.29.9/FacialAge/BNav_EC2/DepthDuration/v2_depth_duration_MTurk/v2_DepthDuration_HTML.html#35,35,1129,635,1241,698,8-20-2022,9-3-48,71,depth_duration_stimuli/002213_2014-06-28_18-37-58_260595134347_rgbf000055-resize_1/002213_2014-06-28_18-37-58_260595134347_rgbf000055-resize_1-target.png,250,3.62,11,3311,249,feet,jsons/v1_VE250_randls_42.json,1648558,1857237,40,Woman
71,268772,DepthScenes,duration_manipulation_targetAtFixation,jsons/v1_VE250_randls_42.json,http://54.235.29.9/FacialAge/BNav_EC2/DepthDuration/v2_depth_duration_MTurk/v2_DepthDuration_HTML.html#35,35,1129,635,1241,698,8-20-2022,9-3-48,72,depth_duration_stimuli/000691_2014-06-08_13-08-50_260595134347_rgbf000132-resize_3/000691_2014-06-08_13-08-50_260595134347_rgbf000132-resize_3-target.png,250,4.1530000000000005,12,4042,248,feet,jsons/v1_VE250_randls_42.json,1648558,1857237,40,Woman
72,268772,DepthScenes,duration_manipulation_targetAtFixation,jsons/v1_VE250_randls_42.json,http://54.235.29.9/FacialAge/BNav_EC2/DepthDuration/v2_depth_duration_MTurk/v2_DepthDuration_HTML.html#35,35,1129,635,1241,698,8-20-2022,9-3-48,73,depth_duration_stimuli/000522_2014-06-08_13-35-06_260595134347_rgbf000244-resize_1/000522_2014-06-08_13-35-06_260595134347_rgbf000244-resize_1-target.png,250,2.3715,6,4324,248,feet,jsons/v1_VE250_randls_42.json,1648558,1857237,40,Woman
73,268772,DepthScenes,duration_manipulation_targetAtFixation,jsons/v1_VE250_randls_42.json,http://54.235.29.9/FacialAge/BNav_EC2/DepthDuration/v2_depth_duration_MTurk/v2_DepthDuration_HTML.html#35,35,1129,635,1241,698,8-20-2022,9-3-48,74,depth_duration_stimuli/002949_2014-06-26_15-57-42_094959634447_rgbf000079-resize_1/002949_2014-06-26_15-57-42_094959634447_rgbf000079-resize_1-target.png,250,1.8915,5,2844,248,feet,jsons/v1_VE250_randls_42.json,1648558,1857237,40,Woman
74,268772,DepthScenes,duration_manipulation_targetAtFixation,jsons/v1_VE250_randls_42.json,http://54.235.29.9/FacialAge/BNav_EC2/DepthDuration/v2_depth_duration_MTurk/v2_DepthDuration_HTML.html#35,35,1129,635,1241,698,8-20-2022,9-3-48,75,depth_duration_stimuli/002663_2014-06-13_15-50-26_094959634447_rgbf000075-resize_1/002663_2014-06-13_15-50-26_094959634447_rgbf000075-resize_1-target.png,250,4.7495,13,3185,248,feet,jsons/v1_VE250_randls_42.json,1648558,1857237,40,Woman
75,268772,DepthScenes,duration_manipulation_targetAtFixation,jsons/v1_VE250_randls_42.json,http://54.235.29.9/FacialAge/BNav_EC2/DepthDuration/v2_depth_duration_MTurk/v2_DepthDuration_HTML.html#35,35,1129,635,1241,698,8-20-2022,9-3-48,76,depth_duration_stimuli/000409_2014-06-04_19-23-33_260595134347_rgbf000067-resize_0/000409_2014-06-04_19-23-33_260595134347_rgbf000067-resize_0-target.png,250,3.7335,8,6854,248,feet,jsons/v1_VE250_randls_42.json,1648558,1857237,40,Woman
76,268772,DepthScenes,duration_manipulation_targetAtFixation,jsons/v1_VE250_randls_42.json,http://54.235.29.9/FacialAge/BNav_EC2/DepthDuration/v2_depth_duration_MTurk/v2_DepthDuration_HTML.html#35,35,1129,635,1241,698,8-20-2022,9-3-48,77,depth_duration_stimuli/000469_2014-06-09_19-42-10_260595134347_rgbf000081-resize_1/000469_2014-06-09_19-42-10_260595134347_rgbf000081-resize_1-target.png,250,1.652,6,9405,248,feet,jsons/v1_VE250_randls_42.json,1648558,1857237,40,Woman
77,268772,DepthScenes,duration_manipulation_targetAtFixation,jsons/v1_VE250_randls_42.json,http://54.235.29.9/FacialAge/BNav_EC2/DepthDuration/v2_depth_duration_MTurk/v2_DepthDuration_HTML.html#35,35,1129,635,1241,698,8-20-2022,9-3-48,78,depth_duration_stimuli/000483_2014-06-09_20-41-45_260595134347_rgbf000116-resize_4/000483_2014-06-09_20-41-45_260595134347_rgbf000116-resize_4-target.png,250,1.337,5,2932,249,feet,jsons/v1_VE250_randls_42.json,1648558,1857237,40,Woman
78,268772,DepthScenes,duration_manipulation_targetAtFixation,jsons/v1_VE250_randls_42.json,http://54.235.29.9/FacialAge/BNav_EC2/DepthDuration/v2_depth_duration_MTurk/v2_DepthDuration_HTML.html#35,35,1129,635,1241,698,8-20-2022,9-3-48,79,depth_duration_stimuli/001449_2014-06-19_17-01-27_260595134347_rgbf000116-resize_2/001449_2014-06-19_17-01-27_260595134347_rgbf000116-resize_2-target.png,250,3.452,9,3699,250,feet,jsons/v1_VE250_randls_42.json,1648558,1857237,40,Woman
79,268772,DepthScenes,duration_manipulation_targetAtFixation,jsons/v1_VE250_randls_42.json,http://54.235.29.9/FacialAge/BNav_EC2/DepthDuration/v2_depth_duration_MTurk/v2_DepthDuration_HTML.html#35,35,1129,635,1241,698,8-20-2022,9-3-48,80,depth_duration_stimuli/001450_2014-06-19_17-02-03_260595134347_rgbf000203-resize_4/001450_2014-06-19_17-02-03_260595134347_rgbf000203-resize_4-target.png,250,4.0106666666667,11,3259,248,feet,jsons/v1_VE250_randls_42.json,1648558,1857237,40,Woman
80,268772,DepthScenes,duration_manipulation_targetAtFixation,jsons/v1_VE250_randls_42.json,http://54.235.29.9/FacialAge/BNav_EC2/DepthDuration/v2_depth_duration_MTurk/v2_DepthDuration_HTML.html#35,35,1129,635,1241,698,8-20-2022,9-3-48,81,depth_duration_stimuli/002039_2014-06-24_20-22-38_260595134347_rgbf000084-resize_1/002039_2014-06-24_20-22-38_260595134347_rgbf000084-resize_1-target.png,250,4.408,9,5160,249,feet,jsons/v1_VE250_randls_42.json,1648558,1857237,40,Woman
81,268772,DepthScenes,duration_manipulation_targetAtFixation,jsons/v1_VE250_randls_42.json,http://54.235.29.9/FacialAge/BNav_EC2/DepthDuration/v2_depth_duration_MTurk/v2_DepthDuration_HTML.html#35,35,1129,635,1241,698,8-20-2022,9-3-48,82,depth_duration_stimuli/002103_2014-06-25_20-00-40_260595134347_rgbf000049-resize_0/002103_2014-06-25_20-00-40_260595134347_rgbf000049-resize_0-target.png,250,4.105,5,4553,248,feet,jsons/v1_VE250_randls_42.json,1648558,1857237,40,Woman
82,268772,DepthScenes,duration_manipulation_targetAtFixation,jsons/v1_VE250_randls_42.json,http://54.235.29.9/FacialAge/BNav_EC2/DepthDuration/v2_depth_duration_MTurk/v2_DepthDuration_HTML.html#35,35,1129,635,1241,698,8-20-2022,9-3-48,83,depth_duration_stimuli/001570_2014-06-20_17-21-09_260595134347_rgbf000135-resize_4/001570_2014-06-20_17-21-09_260595134347_rgbf000135-resize_4-target.png,250,4.467,13,3084,248,feet,jsons/v1_VE250_randls_42.json,1648558,1857237,40,Woman
83,268772,DepthScenes,duration_manipulation_targetAtFixation,jsons/v1_VE250_randls_42.json,http://54.235.29.9/FacialAge/BNav_EC2/DepthDuration/v2_depth_duration_MTurk/v2_DepthDuration_HTML.html#35,35,1129,635,1241,698,8-20-2022,9-3-48,84,depth_duration_stimuli/001392_2014-06-19_16-07-59_260595134347_rgbf000046-resize_1/001392_2014-06-19_16-07-59_260595134347_rgbf000046-resize_1-target.png,250,4.135,16,3582,248,feet,jsons/v1_VE250_randls_42.json,1648558,1857237,40,Woman
84,268772,DepthScenes,duration_manipulation_targetAtFixation,jsons/v1_VE250_randls_42.json,http://54.235.29.9/FacialAge/BNav_EC2/DepthDuration/v2_depth_duration_MTurk/v2_DepthDuration_HTML.html#35,35,1129,635,1241,698,8-20-2022,9-3-48,85,depth_duration_stimuli/003621_2014-05-23_18-06-08_094959634447_rgbf000101-resize_1/003621_2014-05-23_18-06-08_094959634447_rgbf000101-resize_1-target.png,250,3.9835,11,7047,242,feet,jsons/v1_VE250_randls_42.json,1648558,1857237,40,Woman
85,268772,DepthScenes,duration_manipulation_targetAtFixation,jsons/v1_VE250_randls_42.json,http://54.235.29.9/FacialAge/BNav_EC2/DepthDuration/v2_depth_duration_MTurk/v2_DepthDuration_HTML.html#35,35,1129,635,1241,698,8-20-2022,9-3-48,86,depth_duration_stimuli/001584_2014-06-20_11-07-43_260595134347_rgbf000002-resize_1/001584_2014-06-20_11-07-43_260595134347_rgbf000002-resize_1-target.png,250,3.53,9,4183,249,feet,jsons/v1_VE250_randls_42.json,1648558,1857237,40,Woman
86,268772,DepthScenes,duration_manipulation_targetAtFixation,jsons/v1_VE250_randls_42.json,http://54.235.29.9/FacialAge/BNav_EC2/DepthDuration/v2_depth_duration_MTurk/v2_DepthDuration_HTML.html#35,35,1129,635,1241,698,8-20-2022,9-3-48,87,depth_duration_stimuli/000436_2014-06-09_22-25-11_260595134347_rgbf000137-resize_1/000436_2014-06-09_22-25-11_260595134347_rgbf000137-resize_1-target.png,250,4.0705,14,6613,248,feet,jsons/v1_VE250_randls_42.json,1648558,1857237,40,Woman
87,268772,DepthScenes,duration_manipulation_targetAtFixation,jsons/v1_VE250_randls_42.json,http://54.235.29.9/FacialAge/BNav_EC2/DepthDuration/v2_depth_duration_MTurk/v2_DepthDuration_HTML.html#35,35,1129,635,1241,698,8-20-2022,9-3-48,88,depth_duration_stimuli/002444_2014-06-28_20-32-08_260595134347_rgbf000027-resize_0/002444_2014-06-28_20-32-08_260595134347_rgbf000027-resize_0-target.png,250,4.388999999999999,7,3139,251,feet,jsons/v1_VE250_randls_42.json,1648558,1857237,40,Woman
88,268772,DepthScenes,duration_manipulation_targetAtFixation,jsons/v1_VE250_randls_42.json,http://54.235.29.9/FacialAge/BNav_EC2/DepthDuration/v2_depth_duration_MTurk/v2_DepthDuration_HTML.html#35,35,1129,635,1241,698,8-20-2022,9-3-48,89,depth_duration_stimuli/003070_2014-06-15_14-58-27_094959634447_rgbf000150-resize_3/003070_2014-06-15_14-58-27_094959634447_rgbf000150-resize_3-target.png,250,2.9415,9,4267,249,feet,jsons/v1_VE250_randls_42.json,1648558,1857237,40,Woman
89,268772,DepthScenes,duration_manipulation_targetAtFixation,jsons/v1_VE250_randls_42.json,http://54.235.29.9/FacialAge/BNav_EC2/DepthDuration/v2_depth_duration_MTurk/v2_DepthDuration_HTML.html#35,35,1129,635,1241,698,8-20-2022,9-3-48,90,depth_duration_stimuli/000943_2014-06-09_19-31-07_260595134347_rgbf000128-resize_1/000943_2014-06-09_19-31-07_260595134347_rgbf000128-resize_1-target.png,250,1.9765,6,3340,249,feet,jsons/v1_VE250_randls_42.json,1648558,1857237,40,Woman
90,268772,DepthScenes,duration_manipulation_targetAtFixation,jsons/v1_VE250_randls_42.json,http://54.235.29.9/FacialAge/BNav_EC2/DepthDuration/v2_depth_duration_MTurk/v2_DepthDuration_HTML.html#35,35,1129,635,1241,698,8-20-2022,9-3-48,91,depth_duration_stimuli/000470_2014-06-09_19-42-40_260595134347_rgbf000094-resize_1/000470_2014-06-09_19-42-40_260595134347_rgbf000094-resize_1-target.png,250,1.831,5,2926,248,feet,jsons/v1_VE250_randls_42.json,1648558,1857237,40,Woman
91,268772,DepthScenes,duration_manipulation_targetAtFixation,jsons/v1_VE250_randls_42.json,http://54.235.29.9/FacialAge/BNav_EC2/DepthDuration/v2_depth_duration_MTurk/v2_DepthDuration_HTML.html#35,35,1129,635,1241,698,8-20-2022,9-3-48,92,depth_duration_stimuli/000109_2014-05-14_23-41-52_260595134347_rgbf000035-resize_9/000109_2014-05-14_23-41-52_260595134347_rgbf000035-resize_9-target.png,250,1.3545,4,5781,249,feet,jsons/v1_VE250_randls_42.json,1648558,1857237,40,Woman
92,268772,DepthScenes,duration_manipulation_targetAtFixation,jsons/v1_VE250_randls_42.json,http://54.235.29.9/FacialAge/BNav_EC2/DepthDuration/v2_depth_duration_MTurk/v2_DepthDuration_HTML.html#35,35,1129,635,1241,698,8-20-2022,9-3-48,93,depth_duration_stimuli/002549_2014-06-24_13-41-39_094959634447_rgbf000022-resize_3/002549_2014-06-24_13-41-39_094959634447_rgbf000022-resize_3-target.png,250,1.476,4,3105,248,feet,jsons/v1_VE250_randls_42.json,1648558,1857237,40,Woman
93,268772,DepthScenes,duration_manipulation_targetAtFixation,jsons/v1_VE250_randls_42.json,http://54.235.29.9/FacialAge/BNav_EC2/DepthDuration/v2_depth_duration_MTurk/v2_DepthDuration_HTML.html#35,35,1129,635,1241,698,8-20-2022,9-3-48,94,depth_duration_stimuli/002750_2014-06-22_19-08-03_094959634447_rgbf000094-resize_4/002750_2014-06-22_19-08-03_094959634447_rgbf000094-resize_4-target.png,250,2.354,10,5459,248,feet,jsons/v1_VE250_randls_42.json,1648558,1857237,40,Woman
94,268772,DepthScenes,duration_manipulation_targetAtFixation,jsons/v1_VE250_randls_42.json,http://54.235.29.9/FacialAge/BNav_EC2/DepthDuration/v2_depth_duration_MTurk/v2_DepthDuration_HTML.html#35,35,1129,635,1241,698,8-20-2022,9-3-48,95,depth_duration_stimuli/002905_2014-06-03_18-04-43_094959634447_rgbf000151-resize_2/002905_2014-06-03_18-04-43_094959634447_rgbf000151-resize_2-target.png,250,2.0295,6,2802,248,feet,jsons/v1_VE250_randls_42.json,1648558,1857237,40,Woman
95,268772,DepthScenes,duration_manipulation_targetAtFixation,jsons/v1_VE250_randls_42.json,http://54.235.29.9/FacialAge/BNav_EC2/DepthDuration/v2_depth_duration_MTurk/v2_DepthDuration_HTML.html#35,35,1129,635,1241,698,8-20-2022,9-3-48,96,depth_duration_stimuli/003423_2014-05-21_10-23-26_094959634447_rgbf002665-resize_2/003423_2014-05-21_10-23-26_094959634447_rgbf002665-resize_2-target.png,250,3.2575,12,3219,248,feet,jsons/v1_VE250_randls_42.json,1648558,1857237,40,Woman
96,268772,DepthScenes,duration_manipulation_targetAtFixation,jsons/v1_VE250_randls_42.json,http://54.235.29.9/FacialAge/BNav_EC2/DepthDuration/v2_depth_duration_MTurk/v2_DepthDuration_HTML.html#35,35,1129,635,1241,698,8-20-2022,9-3-48,97,depth_duration_stimuli/000773_2014-06-08_22-24-54_260595134347_rgbf000093-resize_1/000773_2014-06-08_22-24-54_260595134347_rgbf000093-resize_1-target.png,250,4.973,14,3971,248,feet,jsons/v1_VE250_randls_42.json,1648558,1857237,40,Woman
97,268772,DepthScenes,duration_manipulation_targetAtFixation,jsons/v1_VE250_randls_42.json,http://54.235.29.9/FacialAge/BNav_EC2/DepthDuration/v2_depth_duration_MTurk/v2_DepthDuration_HTML.html#35,35,1129,635,1241,698,8-20-2022,9-3-48,98,depth_duration_stimuli/002414_2014-06-28_20-24-58_260595134347_rgbf000067-resize_4/002414_2014-06-28_20-24-58_260595134347_rgbf000067-resize_4-target.png,250,4.363,12,2876,249,feet,jsons/v1_VE250_randls_42.json,1648558,1857237,40,Woman
98,268772,DepthScenes,duration_manipulation_targetAtFixation,jsons/v1_VE250_randls_42.json,http://54.235.29.9/FacialAge/BNav_EC2/DepthDuration/v2_depth_duration_MTurk/v2_DepthDuration_HTML.html#35,35,1129,635,1241,698,8-20-2022,9-3-48,99,depth_duration_stimuli/001540_2014-06-20_17-01-05_260595134347_rgbf000086-resize_2/001540_2014-06-20_17-01-05_260595134347_rgbf000086-resize-original.jpg,250,1.459,9,3877,248,feet,jsons/v1_VE250_randls_42.json,1648558,1857237,40,Woman
99,268772,DepthScenes,duration_manipulation_targetAtFixation,jsons/v1_VE250_randls_42.json,http://54.235.29.9/FacialAge/BNav_EC2/DepthDuration/v2_depth_duration_MTurk/v2_DepthDuration_HTML.html#35,35,1129,635,1241,698,8-20-2022,9-3-48,100,depth_duration_stimuli/002153_2014-06-25_21-27-18_260595134347_rgbf000038-resize_5/002153_2014-06-25_21-27-18_260595134347_rgbf000038-resize_5-target.png,250,2.505,8,3123,248,feet,jsons/v1_VE250_randls_42.json,1648558,1857237,40,Woman
100,268772,DepthScenes,duration_manipulation_targetAtFixation,jsons/v1_VE250_randls_42.json,http://54.235.29.9/FacialAge/BNav_EC2/DepthDuration/v2_depth_duration_MTurk/v2_DepthDuration_HTML.html#35,35,1129,635,1241,698,8-20-2022,9-3-48,101,depth_duration_stimuli/002660_2014-06-13_15-44-18_094959634447_rgbf001878-resize_2/002660_2014-06-13_15-44-18_094959634447_rgbf001878-resize_2-target.png,250,3.576,9,3485,249,feet,jsons/v1_VE250_randls_42.json,1648558,1857237,40,Woman
101,268772,DepthScenes,duration_manipulation_targetAtFixation,jsons/v1_VE250_randls_42.json,http://54.235.29.9/FacialAge/BNav_EC2/DepthDuration/v2_depth_duration_MTurk/v2_DepthDuration_HTML.html#35,35,1129,635,1241,698,8-20-2022,9-3-48,102,depth_duration_stimuli/001029_2014-06-08_13-17-57_260595134347_rgbf000065-resize_1/001029_2014-06-08_13-17-57_260595134347_rgbf000065-resize_1-target.png,250,3.0835,12,4177,248,feet,jsons/v1_VE250_randls_42.json,1648558,1857237,40,Woman
102,268772,DepthScenes,duration_manipulation_targetAtFixation,jsons/v1_VE250_randls_42.json,http://54.235.29.9/FacialAge/BNav_EC2/DepthDuration/v2_depth_duration_MTurk/v2_DepthDuration_HTML.html#35,35,1129,635,1241,698,8-20-2022,9-3-48,103,depth_duration_stimuli/000677_2014-06-08_23-10-32_260595134347_rgbf000158-resize_6/000677_2014-06-08_23-10-32_260595134347_rgbf000158-resize_6-target.png,250,3.556,11,3235,249,feet,jsons/v1_VE250_randls_42.json,1648558,1857237,40,Woman
103,268772,DepthScenes,duration_manipulation_targetAtFixation,jsons/v1_VE250_randls_42.json,http://54.235.29.9/FacialAge/BNav_EC2/DepthDuration/v2_depth_duration_MTurk/v2_DepthDuration_HTML.html#35,35,1129,635,1241,698,8-20-2022,9-3-48,104,depth_duration_stimuli/001133_2014-06-17_14-49-16_260595134347_rgbf000100-resize_0/001133_2014-06-17_14-49-16_260595134347_rgbf000100-resize_0-target.png,250,4.2115,15,3092,249,feet,jsons/v1_VE250_randls_42.json,1648558,1857237,40,Woman
104,268772,DepthScenes,duration_manipulation_targetAtFixation,jsons/v1_VE250_randls_42.json,http://54.235.29.9/FacialAge/BNav_EC2/DepthDuration/v2_depth_duration_MTurk/v2_DepthDuration_HTML.html#35,35,1129,635,1241,698,8-20-2022,9-3-48,105,depth_duration_stimuli/001132_2014-06-17_14-48-54_260595134347_rgbf000100-resize_2/001132_2014-06-17_14-48-54_260595134347_rgbf000100-resize_2-target.png,250,3.753,10,19462,249,feet,jsons/v1_VE250_randls_42.json,1648558,1857237,40,Woman
105,268772,DepthScenes,duration_manipulation_targetAtFixation,jsons/v1_VE250_randls_42.json,http://54.235.29.9/FacialAge/BNav_EC2/DepthDuration/v2_depth_duration_MTurk/v2_DepthDuration_HTML.html#35,35,1129,635,1241,698,8-20-2022,9-3-48,106,depth_duration_stimuli/002964_2014-06-08_17-46-11_094959634447_rgbf000091-resize_4/002964_2014-06-08_17-46-11_094959634447_rgbf000091-resize_4-target.png,250,1.6909999999999998,5,8197,251,feet,jsons/v1_VE250_randls_42.json,1648558,1857237,40,Woman
106,268772,DepthScenes,duration_manipulation_targetAtFixation,jsons/v1_VE250_randls_42.json,http://54.235.29.9/FacialAge/BNav_EC2/DepthDuration/v2_depth_duration_MTurk/v2_DepthDuration_HTML.html#35,35,1129,635,1241,698,8-20-2022,9-3-48,107,depth_duration_stimuli/002136_2014-06-25_21-18-03_260595134347_rgbf000109-resize_3/002136_2014-06-25_21-18-03_260595134347_rgbf000109-resize_3-target.png,250,1.9569999999999999,6,2818,248,feet,jsons/v1_VE250_randls_42.json,1648558,1857237,40,Woman
107,268772,DepthScenes,duration_manipulation_targetAtFixation,jsons/v1_VE250_randls_42.json,http://54.235.29.9/FacialAge/BNav_EC2/DepthDuration/v2_depth_duration_MTurk/v2_DepthDuration_HTML.html#35,35,1129,635,1241,698,8-20-2022,9-3-48,108,depth_duration_stimuli/001808_2014-06-26_20-50-58_260595134347_rgbf000029-resize_1/001808_2014-06-26_20-50-58_260595134347_rgbf000029-resize_1-target.png,250,4.249,11,3063,248,feet,jsons/v1_VE250_randls_42.json,1648558,1857237,40,Woman
108,268772,DepthScenes,duration_manipulation_targetAtFixation,jsons/v1_VE250_randls_42.json,http://54.235.29.9/FacialAge/BNav_EC2/DepthDuration/v2_depth_duration_MTurk/v2_DepthDuration_HTML.html#35,35,1129,635,1241,698,8-20-2022,9-3-48,109,depth_duration_stimuli/001815_2014-06-26_20-52-55_260595134347_rgbf000020-resize_0/001815_2014-06-26_20-52-55_260595134347_rgbf000020-resize_0-target.png,250,3.3865,13,3928,248,feet,jsons/v1_VE250_randls_42.json,1648558,1857237,40,Woman
109,268772,DepthScenes,duration_manipulation_targetAtFixation,jsons/v1_VE250_randls_42.json,http://54.235.29.9/FacialAge/BNav_EC2/DepthDuration/v2_depth_duration_MTurk/v2_DepthDuration_HTML.html#35,35,1129,635,1241,698,8-20-2022,9-3-48,110,depth_duration_stimuli/000929_2014-06-09_16-33-19_260595134347_rgbf000139-resize_0/000929_2014-06-09_16-33-19_260595134347_rgbf000139-resize_0-target.png,250,2.8680000000000003,9,4372,249,feet,jsons/v1_VE250_randls_42.json,1648558,1857237,40,Woman
110,268772,DepthScenes,duration_manipulation_targetAtFixation,jsons/v1_VE250_randls_42.json,http://54.235.29.9/FacialAge/BNav_EC2/DepthDuration/v2_depth_duration_MTurk/v2_DepthDuration_HTML.html#35,35,1129,635,1241,698,8-20-2022,9-3-48,111,depth_duration_stimuli/000457_2014-06-08_16-52-43_260595134347_rgbf000199-resize_1/000457_2014-06-08_16-52-43_260595134347_rgbf000199-resize_1-target.png,250,3.6489999999999996,11,2964,253,feet,jsons/v1_VE250_randls_42.json,1648558,1857237,40,Woman
111,268772,DepthScenes,duration_manipulation_targetAtFixation,jsons/v1_VE250_randls_42.json,http://54.235.29.9/FacialAge/BNav_EC2/DepthDuration/v2_depth_duration_MTurk/v2_DepthDuration_HTML.html#35,35,1129,635,1241,698,8-20-2022,9-3-48,112,depth_duration_stimuli/000447_2014-06-08_16-15-46_260595134347_rgbf000130-resize_1/000447_2014-06-08_16-15-46_260595134347_rgbf000130-resize_1-target.png,250,4.479,16,3305,248,feet,jsons/v1_VE250_randls_42.json,1648558,1857237,40,Woman
112,268772,DepthScenes,duration_manipulation_targetAtFixation,jsons/v1_VE250_randls_42.json,http://54.235.29.9/FacialAge/BNav_EC2/DepthDuration/v2_depth_duration_MTurk/v2_DepthDuration_HTML.html#35,35,1129,635,1241,698,8-20-2022,9-3-48,113,depth_duration_stimuli/001447_2014-06-19_17-00-32_260595134347_rgbf000082-resize_5/001447_2014-06-19_17-00-32_260595134347_rgbf000082-resize_5-target.png,250,4.13775,10,10763,249,feet,jsons/v1_VE250_randls_42.json,1648558,1857237,40,Woman
113,268772,DepthScenes,duration_manipulation_targetAtFixation,jsons/v1_VE250_randls_42.json,http://54.235.29.9/FacialAge/BNav_EC2/DepthDuration/v2_depth_duration_MTurk/v2_DepthDuration_HTML.html#35,35,1129,635,1241,698,8-20-2022,9-3-48,114,depth_duration_stimuli/000493_2014-06-09_21-01-18_260595134347_rgbf000196-resize_3/000493_2014-06-09_21-01-18_260595134347_rgbf000196-resize_3-target.png,250,3.44,11,94719,249,feet,jsons/v1_VE250_randls_42.json,1648558,1857237,40,Woman
114,268772,DepthScenes,duration_manipulation_targetAtFixation,jsons/v1_VE250_randls_42.json,http://54.235.29.9/FacialAge/BNav_EC2/DepthDuration/v2_depth_duration_MTurk/v2_DepthDuration_HTML.html#35,35,1129,635,1241,698,8-20-2022,9-3-48,115,depth_duration_stimuli/000191_2014-05-12_17-07-38_260595134347_rgbf000199-resize_0/000191_2014-05-12_17-07-38_260595134347_rgbf000199-resize_0-target.png,250,3.7995,14,5848,249,feet,jsons/v1_VE250_randls_42.json,1648558,1857237,40,Woman
115,268772,DepthScenes,duration_manipulation_targetAtFixation,jsons/v1_VE250_randls_42.json,http://54.235.29.9/FacialAge/BNav_EC2/DepthDuration/v2_depth_duration_MTurk/v2_DepthDuration_HTML.html#35,35,1129,635,1241,698,8-20-2022,9-3-48,116,depth_duration_stimuli/001170_2014-06-17_15-43-44_260595134347_rgbf000096-resize_6/001170_2014-06-17_15-43-44_260595134347_rgbf000096-resize-original.jpg,250,1.1909999999999998,0,4100,248,feet,jsons/v1_VE250_randls_42.json,1648558,1857237,40,Woman
116,268772,DepthScenes,duration_manipulation_targetAtFixation,jsons/v1_VE250_randls_42.json,http://54.235.29.9/FacialAge/BNav_EC2/DepthDuration/v2_depth_duration_MTurk/v2_DepthDuration_HTML.html#35,35,1129,635,1241,698,8-20-2022,9-3-48,117,depth_duration_stimuli/002279_2014-06-28_18-55-32_260595134347_rgbf000040-resize_5/002279_2014-06-28_18-55-32_260595134347_rgbf000040-resize_5-target.png,250,1.5043333333333,4,3960,249,feet,jsons/v1_VE250_randls_42.json,1648558,1857237,40,Woman
117,268772,DepthScenes,duration_manipulation_targetAtFixation,jsons/v1_VE250_randls_42.json,http://54.235.29.9/FacialAge/BNav_EC2/DepthDuration/v2_depth_duration_MTurk/v2_DepthDuration_HTML.html#35,35,1129,635,1241,698,8-20-2022,9-3-48,118,depth_duration_stimuli/000635_2014-06-08_16-38-42_260595134347_rgbf000106-resize_1/000635_2014-06-08_16-38-42_260595134347_rgbf000106-resize_1-target.png,250,2.074,7,3905,249,feet,jsons/v1_VE250_randls_42.json,1648558,1857237,40,Woman
118,268772,DepthScenes,duration_manipulation_targetAtFixation,jsons/v1_VE250_randls_42.json,http://54.235.29.9/FacialAge/BNav_EC2/DepthDuration/v2_depth_duration_MTurk/v2_DepthDuration_HTML.html#35,35,1129,635,1241,698,8-20-2022,9-3-48,119,depth_duration_stimuli/001175_2014-06-17_15-45-55_260595134347_rgbf000129-resize_4/001175_2014-06-17_15-45-55_260595134347_rgbf000129-resize_4-target.png,250,4.255,13,4722,248,feet,jsons/v1_VE250_randls_42.json,1648558,1857237,40,Woman
119,268772,DepthScenes,duration_manipulation_targetAtFixation,jsons/v1_VE250_randls_42.json,http://54.235.29.9/FacialAge/BNav_EC2/DepthDuration/v2_depth_duration_MTurk/v2_DepthDuration_HTML.html#35,35,1129,635,1241,698,8-20-2022,9-3-48,120,depth_duration_stimuli/003490_2014-05-21_15-50-11_094959634447_rgbf000101-resize_3/003490_2014-05-21_15-50-11_094959634447_rgbf000101-resize_3-target.png,250,3.6445,12,3784,248,feet,jsons/v1_VE250_randls_42.json,1648558,1857237,40,Woman
120,268772,DepthScenes,duration_manipulation_targetAtFixation,jsons/v1_VE250_randls_42.json,http://54.235.29.9/FacialAge/BNav_EC2/DepthDuration/v2_depth_duration_MTurk/v2_DepthDuration_HTML.html#35,35,1129,635,1241,698,8-20-2022,9-3-48,121,depth_duration_stimuli/001150_2014-06-17_15-27-34_260595134347_rgbf000108-resize_2/001150_2014-06-17_15-27-34_260595134347_rgbf000108-resize_2-target.png,250,4.0325,12,2930,248,feet,jsons/v1_VE250_randls_42.json,1648558,1857237,40,Woman
121,268772,DepthScenes,duration_manipulation_targetAtFixation,jsons/v1_VE250_randls_42.json,http://54.235.29.9/FacialAge/BNav_EC2/DepthDuration/v2_depth_duration_MTurk/v2_DepthDuration_HTML.html#35,35,1129,635,1241,698,8-20-2022,9-3-48,122,depth_duration_stimuli/000665_2014-06-09_20-42-35_260595134347_rgbf000110-resize_1/000665_2014-06-09_20-42-35_260595134347_rgbf000110-resize_1-target.png,250,3.057,11,3810,249,feet,jsons/v1_VE250_randls_42.json,1648558,1857237,40,Woman
122,268772,DepthScenes,duration_manipulation_targetAtFixation,jsons/v1_VE250_randls_42.json,http://54.235.29.9/FacialAge/BNav_EC2/DepthDuration/v2_depth_duration_MTurk/v2_DepthDuration_HTML.html#35,35,1129,635,1241,698,8-20-2022,9-3-48,123,depth_duration_stimuli/000810_2014-06-08_17-20-01_260595134347_rgbf000105-resize_0/000810_2014-06-08_17-20-01_260595134347_rgbf000105-resize_0-target.png,250,1.4865,7,3429,249,feet,jsons/v1_VE250_randls_42.json,1648558,1857237,40,Woman
123,268772,DepthScenes,duration_manipulation_targetAtFixation,jsons/v1_VE250_randls_42.json,http://54.235.29.9/FacialAge/BNav_EC2/DepthDuration/v2_depth_duration_MTurk/v2_DepthDuration_HTML.html#35,35,1129,635,1241,698,8-20-2022,9-3-48,124,depth_duration_stimuli/001214_2014-06-17_16-13-55_260595134347_rgbf000111-resize_0/001214_2014-06-17_16-13-55_260595134347_rgbf000111-resize_0-target.png,250,2.6505,9,2862,249,feet,jsons/v1_VE250_randls_42.json,1648558,1857237,40,Woman
124,268772,DepthScenes,duration_manipulation_targetAtFixation,jsons/v1_VE250_randls_42.json,http://54.235.29.9/FacialAge/BNav_EC2/DepthDuration/v2_depth_duration_MTurk/v2_DepthDuration_HTML.html#35,35,1129,635,1241,698,8-20-2022,9-3-48,125,depth_duration_stimuli/001092_2014-06-15_17-34-58_260595134347_rgbf000171-resize_3/001092_2014-06-15_17-34-58_260595134347_rgbf000171-resize_3-target.png,250,2.6935,6,3254,248,feet,jsons/v1_VE250_randls_42.json,1648558,1857237,40,Woman
125,268772,DepthScenes,duration_manipulation_targetAtFixation,jsons/v1_VE250_randls_42.json,http://54.235.29.9/FacialAge/BNav_EC2/DepthDuration/v2_depth_duration_MTurk/v2_DepthDuration_HTML.html#35,35,1129,635,1241,698,8-20-2022,9-3-48,126,depth_duration_stimuli/002545_2014-06-24_13-38-53_094959634447_rgbf000080-resize_4/002545_2014-06-24_13-38-53_094959634447_rgbf000080-resize_4-target.png,250,1.9205,7,4246,249,feet,jsons/v1_VE250_randls_42.json,1648558,1857237,40,Woman
126,268772,DepthScenes,duration_manipulation_targetAtFixation,jsons/v1_VE250_randls_42.json,http://54.235.29.9/FacialAge/BNav_EC2/DepthDuration/v2_depth_duration_MTurk/v2_DepthDuration_HTML.html#35,35,1129,635,1241,698,8-20-2022,9-3-48,127,depth_duration_stimuli/000414_2014-06-04_19-49-13_260595134347_rgbf000044-resize_0/000414_2014-06-04_19-49-13_260595134347_rgbf000044-resize_0-target.png,250,4.329,13,4679,248,feet,jsons/v1_VE250_randls_42.json,1648558,1857237,40,Woman
127,268772,DepthScenes,duration_manipulation_targetAtFixation,jsons/v1_VE250_randls_42.json,http://54.235.29.9/FacialAge/BNav_EC2/DepthDuration/v2_depth_duration_MTurk/v2_DepthDuration_HTML.html#35,35,1129,635,1241,698,8-20-2022,9-3-48,128,depth_duration_stimuli/003129_2014-05-12_10-48-10_094959634447_rgbf000100-resize_0/003129_2014-05-12_10-48-10_094959634447_rgbf000100-resize_0-target.png,250,4.9305,9,6092,248,feet,jsons/v1_VE250_randls_42.json,1648558,1857237,40,Woman
128,268772,DepthScenes,duration_manipulation_targetAtFixation,jsons/v1_VE250_randls_42.json,http://54.235.29.9/FacialAge/BNav_EC2/DepthDuration/v2_depth_duration_MTurk/v2_DepthDuration_HTML.html#35,35,1129,635,1241,698,8-20-2022,9-3-48,129,depth_duration_stimuli/002630_2014-06-24_14-47-50_094959634447_rgbf000055-resize_1/002630_2014-06-24_14-47-50_094959634447_rgbf000055-resize_1-target.png,250,3.0095,14,4411,249,feet,jsons/v1_VE250_randls_42.json,1648558,1857237,40,Woman
129,268772,DepthScenes,duration_manipulation_targetAtFixation,jsons/v1_VE250_randls_42.json,http://54.235.29.9/FacialAge/BNav_EC2/DepthDuration/v2_depth_duration_MTurk/v2_DepthDuration_HTML.html#35,35,1129,635,1241,698,8-20-2022,9-3-48,130,depth_duration_stimuli/002758_2014-06-22_19-11-20_094959634447_rgbf000128-resize_1/002758_2014-06-22_19-11-20_094959634447_rgbf000128-resize_1-target.png,250,2.555,6,4056,248,feet,jsons/v1_VE250_randls_42.json,1648558,1857237,40,Woman
130,268772,DepthScenes,duration_manipulation_targetAtFixation,jsons/v1_VE250_randls_42.json,http://54.235.29.9/FacialAge/BNav_EC2/DepthDuration/v2_depth_duration_MTurk/v2_DepthDuration_HTML.html#35,35,1129,635,1241,698,8-20-2022,9-3-48,131,depth_duration_stimuli/000917_2014-06-09_22-45-29_260595134347_rgbf000149-resize_3/000917_2014-06-09_22-45-29_260595134347_rgbf000149-resize_3-target.png,250,4.1865,9,4555,248,feet,jsons/v1_VE250_randls_42.json,1648558,1857237,40,Woman
131,268772,DepthScenes,duration_manipulation_targetAtFixation,jsons/v1_VE250_randls_42.json,http://54.235.29.9/FacialAge/BNav_EC2/DepthDuration/v2_depth_duration_MTurk/v2_DepthDuration_HTML.html#35,35,1129,635,1241,698,8-20-2022,9-3-48,132,depth_duration_stimuli/002323_2014-06-28_20-01-54_260595134347_rgbf000051-resize_4/002323_2014-06-28_20-01-54_260595134347_rgbf000051-resize_4-target.png,250,3.7310000000000003,11,8718,249,feet,jsons/v1_VE250_randls_42.json,1648558,1857237,40,Woman
132,268772,DepthScenes,duration_manipulation_targetAtFixation,jsons/v1_VE250_randls_42.json,http://54.235.29.9/FacialAge/BNav_EC2/DepthDuration/v2_depth_duration_MTurk/v2_DepthDuration_HTML.html#35,35,1129,635,1241,698,8-20-2022,9-3-48,133,depth_duration_stimuli/001806_2014-06-26_20-50-20_260595134347_rgbf000091-resize_1/001806_2014-06-26_20-50-20_260595134347_rgbf000091-resize_1-target.png,250,2.7305,5,5528,245,feet,jsons/v1_VE250_randls_42.json,1648558,1857237,40,Woman
133,268772,DepthScenes,duration_manipulation_targetAtFixation,jsons/v1_VE250_randls_42.json,http://54.235.29.9/FacialAge/BNav_EC2/DepthDuration/v2_depth_duration_MTurk/v2_DepthDuration_HTML.html#35,35,1129,635,1241,698,8-20-2022,9-3-48,134,depth_duration_stimuli/001617_2014-06-20_11-35-32_260595134347_rgbf000066-resize_1/001617_2014-06-20_11-35-32_260595134347_rgbf000066-resize_1-target.png,250,3.7910000000000004,11,2585,248,feet,jsons/v1_VE250_randls_42.json,1648558,1857237,40,Woman
134,268772,DepthScenes,duration_manipulation_targetAtFixation,jsons/v1_VE250_randls_42.json,http://54.235.29.9/FacialAge/BNav_EC2/DepthDuration/v2_depth_duration_MTurk/v2_DepthDuration_HTML.html#35,35,1129,635,1241,698,8-20-2022,9-3-48,135,depth_duration_stimuli/002072_2014-06-24_21-48-06_260595134347_rgbf000115-resize_0/002072_2014-06-24_21-48-06_260595134347_rgbf000115-resize-original.jpg,250,4.702,0,2796,248,feet,jsons/v1_VE250_randls_42.json,1648558,1857237,40,Woman
135,268772,DepthScenes,duration_manipulation_targetAtFixation,jsons/v1_VE250_randls_42.json,http://54.235.29.9/FacialAge/BNav_EC2/DepthDuration/v2_depth_duration_MTurk/v2_DepthDuration_HTML.html#35,35,1129,635,1241,698,8-20-2022,9-3-48,136,depth_duration_stimuli/001199_2014-06-17_16-03-48_260595134347_rgbf000077-resize_0/001199_2014-06-17_16-03-48_260595134347_rgbf000077-resize_0-target.png,250,3.4375,10,5137,248,feet,jsons/v1_VE250_randls_42.json,1648558,1857237,40,Woman
136,268772,DepthScenes,duration_manipulation_targetAtFixation,jsons/v1_VE250_randls_42.json,http://54.235.29.9/FacialAge/BNav_EC2/DepthDuration/v2_depth_duration_MTurk/v2_DepthDuration_HTML.html#35,35,1129,635,1241,698,8-20-2022,9-3-48,137,depth_duration_stimuli/000502_2014-06-08_23-02-32_260595134347_rgbf000063-resize_4/000502_2014-06-08_23-02-32_260595134347_rgbf000063-resize_4-target.png,250,2.431,5,6508,248,feet,jsons/v1_VE250_randls_42.json,1648558,1857237,40,Woman
137,268772,DepthScenes,duration_manipulation_targetAtFixation,jsons/v1_VE250_randls_42.json,http://54.235.29.9/FacialAge/BNav_EC2/DepthDuration/v2_depth_duration_MTurk/v2_DepthDuration_HTML.html#35,35,1129,635,1241,698,8-20-2022,9-3-48,138,depth_duration_stimuli/003492_2014-05-21_15-50-55_094959634447_rgbf000828-resize_1/003492_2014-05-21_15-50-55_094959634447_rgbf000828-resize_1-target.png,250,4.06875,10,3419,248,feet,jsons/v1_VE250_randls_42.json,1648558,1857237,40,Woman
138,268772,DepthScenes,duration_manipulation_targetAtFixation,jsons/v1_VE250_randls_42.json,http://54.235.29.9/FacialAge/BNav_EC2/DepthDuration/v2_depth_duration_MTurk/v2_DepthDuration_HTML.html#35,35,1129,635,1241,698,8-20-2022,9-3-48,139,depth_duration_stimuli/002568_2014-06-24_13-59-21_094959634447_rgbf000062-resize_4/002568_2014-06-24_13-59-21_094959634447_rgbf000062-resize_4-target.png,250,3.015,9,2671,248,feet,jsons/v1_VE250_randls_42.json,1648558,1857237,40,Woman
139,268772,DepthScenes,duration_manipulation_targetAtFixation,jsons/v1_VE250_randls_42.json,http://54.235.29.9/FacialAge/BNav_EC2/DepthDuration/v2_depth_duration_MTurk/v2_DepthDuration_HTML.html#35,35,1129,635,1241,698,8-20-2022,9-3-48,140,depth_duration_stimuli/001011_2014-06-08_23-18-54_260595134347_rgbf000044-resize_4/001011_2014-06-08_23-18-54_260595134347_rgbf000044-resize_4-target.png,250,2.4730000000000003,13,3193,248,feet,jsons/v1_VE250_randls_42.json,1648558,1857237,40,Woman
140,268772,DepthScenes,duration_manipulation_targetAtFixation,jsons/v1_VE250_randls_42.json,http://54.235.29.9/FacialAge/BNav_EC2/DepthDuration/v2_depth_duration_MTurk/v2_DepthDuration_HTML.html#35,35,1129,635,1241,698,8-20-2022,9-3-48,141,depth_duration_stimuli/002875_2014-06-01_15-19-00_094959634447_rgbf000151-resize_1/002875_2014-06-01_15-19-00_094959634447_rgbf000151-resize_1-target.png,250,1.9675,5,8303,248,feet,jsons/v1_VE250_randls_42.json,1648558,1857237,40,Woman
141,268772,DepthScenes,duration_manipulation_targetAtFixation,jsons/v1_VE250_randls_42.json,http://54.235.29.9/FacialAge/BNav_EC2/DepthDuration/v2_depth_duration_MTurk/v2_DepthDuration_HTML.html#35,35,1129,635,1241,698,8-20-2022,9-3-48,142,depth_duration_stimuli/002118_2014-06-25_20-32-08_260595134347_rgbf000078-resize_1/002118_2014-06-25_20-32-08_260595134347_rgbf000078-resize_1-target.png,250,2.6460000000000004,9,8537,248,feet,jsons/v1_VE250_randls_42.json,1648558,1857237,40,Woman
142,268772,DepthScenes,duration_manipulation_targetAtFixation,jsons/v1_VE250_randls_42.json,http://54.235.29.9/FacialAge/BNav_EC2/DepthDuration/v2_depth_duration_MTurk/v2_DepthDuration_HTML.html#35,35,1129,635,1241,698,8-20-2022,9-3-48,143,depth_duration_stimuli/001516_2014-06-20_16-25-09_260595134347_rgbf000076-resize_2/001516_2014-06-20_16-25-09_260595134347_rgbf000076-resize_2-target.png,250,1.7445,5,4984,249,feet,jsons/v1_VE250_randls_42.json,1648558,1857237,40,Woman
143,268772,DepthScenes,duration_manipulation_targetAtFixation,jsons/v1_VE250_randls_42.json,http://54.235.29.9/FacialAge/BNav_EC2/DepthDuration/v2_depth_duration_MTurk/v2_DepthDuration_HTML.html#35,35,1129,635,1241,698,8-20-2022,9-3-48,144,depth_duration_stimuli/000009_2014-05-26_14-32-05_260595134347_rgbf000034-resize_3/000009_2014-05-26_14-32-05_260595134347_rgbf000034-resize_3-target.png,250,3.8715,13,4668,249,feet,jsons/v1_VE250_randls_42.json,1648558,1857237,40,Woman
144,268772,DepthScenes,duration_manipulation_targetAtFixation,jsons/v1_VE250_randls_42.json,http://54.235.29.9/FacialAge/BNav_EC2/DepthDuration/v2_depth_duration_MTurk/v2_DepthDuration_HTML.html#35,35,1129,635,1241,698,8-20-2022,9-3-48,145,depth_duration_stimuli/001828_2014-06-26_21-40-03_260595134347_rgbf000024-resize_0/001828_2014-06-26_21-40-03_260595134347_rgbf000024-resize_0-target.png,250,4.8260000000000005,7,4575,249,feet,jsons/v1_VE250_randls_42.json,1648558,1857237,40,Woman
145,268772,DepthScenes,duration_manipulation_targetAtFixation,jsons/v1_VE250_randls_42.json,http://54.235.29.9/FacialAge/BNav_EC2/DepthDuration/v2_depth_duration_MTurk/v2_DepthDuration_HTML.html#35,35,1129,635,1241,698,8-20-2022,9-3-48,146,depth_duration_stimuli/001498_2014-06-19_17-45-14_260595134347_rgbf000129-resize_4/001498_2014-06-19_17-45-14_260595134347_rgbf000129-resize-original.jpg,250,1.4075,0,3626,249,feet,jsons/v1_VE250_randls_42.json,1648558,1857237,40,Woman
146,268772,DepthScenes,duration_manipulation_targetAtFixation,jsons/v1_VE250_randls_42.json,http://54.235.29.9/FacialAge/BNav_EC2/DepthDuration/v2_depth_duration_MTurk/v2_DepthDuration_HTML.html#35,35,1129,635,1241,698,8-20-2022,9-3-48,147,depth_duration_stimuli/000906_2014-06-08_13-35-43_260595134347_rgbf000155-resize_1/000906_2014-06-08_13-35-43_260595134347_rgbf000155-resize_1-target.png,250,2.8489999999999998,8,4105,249,feet,jsons/v1_VE250_randls_42.json,1648558,1857237,40,Woman
147,268772,DepthScenes,duration_manipulation_targetAtFixation,jsons/v1_VE250_randls_42.json,http://54.235.29.9/FacialAge/BNav_EC2/DepthDuration/v2_depth_duration_MTurk/v2_DepthDuration_HTML.html#35,35,1129,635,1241,698,8-20-2022,9-3-48,148,depth_duration_stimuli/002805_2014-06-22_19-54-03_094959634447_rgbf000079-resize_1/002805_2014-06-22_19-54-03_094959634447_rgbf000079-resize_1-target.png,250,3.1439999999999997,12,6864,249,feet,jsons/v1_VE250_randls_42.json,1648558,1857237,40,Woman
148,268772,DepthScenes,duration_manipulation_targetAtFixation,jsons/v1_VE250_randls_42.json,http://54.235.29.9/FacialAge/BNav_EC2/DepthDuration/v2_depth_duration_MTurk/v2_DepthDuration_HTML.html#35,35,1129,635,1241,698,8-20-2022,9-3-48,149,depth_duration_stimuli/000736_2014-06-08_18-24-15_260595134347_rgbf000206-resize_3/000736_2014-06-08_18-24-15_260595134347_rgbf000206-resize_3-target.png,250,3.515,7,2900,248,feet,jsons/v1_VE250_randls_42.json,1648558,1857237,40,Woman
149,268772,DepthScenes,duration_manipulation_targetAtFixation,jsons/v1_VE250_randls_42.json,http://54.235.29.9/FacialAge/BNav_EC2/DepthDuration/v2_depth_duration_MTurk/v2_DepthDuration_HTML.html#35,35,1129,635,1241,698,8-20-2022,9-3-48,150,depth_duration_stimuli/000137_2014-05-20_17-04-49_260595134347_rgbf000120-resize_1/000137_2014-05-20_17-04-49_260595134347_rgbf000120-resize_1-target.png,250,3.786,7,2041,248,feet,jsons/v1_VE250_randls_42.json,1648558,1857237,40,Woman
150,268772,DepthScenes,duration_manipulation_targetAtFixation,jsons/v1_VE250_randls_42.json,http://54.235.29.9/FacialAge/BNav_EC2/DepthDuration/v2_depth_duration_MTurk/v2_DepthDuration_HTML.html#35,35,1129,635,1241,698,8-20-2022,9-3-48,151,depth_duration_stimuli/002988_2014-06-15_12-24-20_094959634447_rgbf000150-resize_1/002988_2014-06-15_12-24-20_094959634447_rgbf000150-resize_1-target.png,250,4.7669999999999995,10,4920,248,feet,jsons/v1_VE250_randls_42.json,1648558,1857237,40,Woman
151,268772,DepthScenes,duration_manipulation_targetAtFixation,jsons/v1_VE250_randls_42.json,http://54.235.29.9/FacialAge/BNav_EC2/DepthDuration/v2_depth_duration_MTurk/v2_DepthDuration_HTML.html#35,35,1129,635,1241,698,8-20-2022,9-3-48,152,depth_duration_stimuli/001052_2014-06-08_18-24-54_260595134347_rgbf000130-resize_1/001052_2014-06-08_18-24-54_260595134347_rgbf000130-resize_1-target.png,250,4.1045,9,4352,249,feet,jsons/v1_VE250_randls_42.json,1648558,1857237,40,Woman
152,268772,DepthScenes,duration_manipulation_targetAtFixation,jsons/v1_VE250_randls_42.json,http://54.235.29.9/FacialAge/BNav_EC2/DepthDuration/v2_depth_duration_MTurk/v2_DepthDuration_HTML.html#35,35,1129,635,1241,698,8-20-2022,9-3-48,153,depth_duration_stimuli/003292_2014-05-14_21-53-49_094959634447_rgbf000100-resize_2/003292_2014-05-14_21-53-49_094959634447_rgbf000100-resize_2-target.png,250,3.4815,8,3266,249,feet,jsons/v1_VE250_randls_42.json,1648558,1857237,40,Woman
153,268772,DepthScenes,duration_manipulation_targetAtFixation,jsons/v1_VE250_randls_42.json,http://54.235.29.9/FacialAge/BNav_EC2/DepthDuration/v2_depth_duration_MTurk/v2_DepthDuration_HTML.html#35,35,1129,635,1241,698,8-20-2022,9-3-48,154,depth_duration_stimuli/002639_2014-06-24_14-51-37_094959634447_rgbf000074-resize_4/002639_2014-06-24_14-51-37_094959634447_rgbf000074-resize_4-target.png,250,4.0375,12,3114,248,feet,jsons/v1_VE250_randls_42.json,1648558,1857237,40,Woman
154,268772,DepthScenes,duration_manipulation_targetAtFixation,jsons/v1_VE250_randls_42.json,http://54.235.29.9/FacialAge/BNav_EC2/DepthDuration/v2_depth_duration_MTurk/v2_DepthDuration_HTML.html#35,35,1129,635,1241,698,8-20-2022,9-3-48,155,depth_duration_stimuli/000788_2014-06-08_22-34-36_260595134347_rgbf000131-resize_1/000788_2014-06-08_22-34-36_260595134347_rgbf000131-resize_1-target.png,250,3.359,8,2576,248,feet,jsons/v1_VE250_randls_42.json,1648558,1857237,40,Woman
155,268772,DepthScenes,duration_manipulation_targetAtFixation,jsons/v1_VE250_randls_42.json,http://54.235.29.9/FacialAge/BNav_EC2/DepthDuration/v2_depth_duration_MTurk/v2_DepthDuration_HTML.html#35,35,1129,635,1241,698,8-20-2022,9-3-48,156,depth_duration_stimuli/001235_2014-06-17_16-37-36_260595134347_rgbf000084-resize_4/001235_2014-06-17_16-37-36_260595134347_rgbf000084-resize_4-target.png,250,3.6605,9,2442,249,feet,jsons/v1_VE250_randls_42.json,1648558,1857237,40,Woman
156,268772,DepthScenes,duration_manipulation_targetAtFixation,jsons/v1_VE250_randls_42.json,http://54.235.29.9/FacialAge/BNav_EC2/DepthDuration/v2_depth_duration_MTurk/v2_DepthDuration_HTML.html#35,35,1129,635,1241,698,8-20-2022,9-3-48,157,depth_duration_stimuli/002784_2014-06-22_19-26-30_094959634447_rgbf000083-resize_3/002784_2014-06-22_19-26-30_094959634447_rgbf000083-resize_3-target.png,250,1.8046666666667,7,3865,249,feet,jsons/v1_VE250_randls_42.json,1648558,1857237,40,Woman
157,268772,DepthScenes,duration_manipulation_targetAtFixation,jsons/v1_VE250_randls_42.json,http://54.235.29.9/FacialAge/BNav_EC2/DepthDuration/v2_depth_duration_MTurk/v2_DepthDuration_HTML.html#35,35,1129,635,1241,698,8-20-2022,9-3-48,158,depth_duration_stimuli/001100_2014-06-15_17-46-26_260595134347_rgbf000225-resize_2/001100_2014-06-15_17-46-26_260595134347_rgbf000225-resize_2-target.png,250,2.24,4,8969,249,feet,jsons/v1_VE250_randls_42.json,1648558,1857237,40,Woman
158,268772,DepthScenes,duration_manipulation_targetAtFixation,jsons/v1_VE250_randls_42.json,http://54.235.29.9/FacialAge/BNav_EC2/DepthDuration/v2_depth_duration_MTurk/v2_DepthDuration_HTML.html#35,35,1129,635,1241,698,8-20-2022,9-3-48,159,depth_duration_stimuli/002445_2014-06-28_20-32-16_260595134347_rgbf000029-resize_4/002445_2014-06-28_20-32-16_260595134347_rgbf000029-resize_4-target.png,250,2.5315,8,4407,251,feet,jsons/v1_VE250_randls_42.json,1648558,1857237,40,Woman
159,268772,DepthScenes,duration_manipulation_targetAtFixation,jsons/v1_VE250_randls_42.json,http://54.235.29.9/FacialAge/BNav_EC2/DepthDuration/v2_depth_duration_MTurk/v2_DepthDuration_HTML.html#35,35,1129,635,1241,698,8-20-2022,9-3-48,160,depth_duration_stimuli/000780_2014-06-08_22-28-29_260595134347_rgbf000126-resize_1/000780_2014-06-08_22-28-29_260595134347_rgbf000126-resize_1-target.png,250,3.3825,11,2574,248,feet,jsons/v1_VE250_randls_42.json,1648558,1857237,40,Woman
160,268772,DepthScenes,duration_manipulation_targetAtFixation,jsons/v1_VE250_randls_42.json,http://54.235.29.9/FacialAge/BNav_EC2/DepthDuration/v2_depth_duration_MTurk/v2_DepthDuration_HTML.html#35,35,1129,635,1241,698,8-20-2022,9-3-48,161,depth_duration_stimuli/001810_2014-06-26_20-51-35_260595134347_rgbf000040-resize_3/001810_2014-06-26_20-51-35_260595134347_rgbf000040-resize_3-target.png,250,2.2525,5,5441,248,feet,jsons/v1_VE250_randls_42.json,1648558,1857237,40,Woman
161,268772,DepthScenes,duration_manipulation_targetAtFixation,jsons/v1_VE250_randls_42.json,http://54.235.29.9/FacialAge/BNav_EC2/DepthDuration/v2_depth_duration_MTurk/v2_DepthDuration_HTML.html#35,35,1129,635,1241,698,8-20-2022,9-3-48,162,depth_duration_stimuli/003010_2014-06-15_12-54-35_094959634447_rgbf000112-resize_0/003010_2014-06-15_12-54-35_094959634447_rgbf000112-resize_0-target.png,250,3.1185,13,2800,248,feet,jsons/v1_VE250_randls_42.json,1648558,1857237,40,Woman
162,268772,DepthScenes,duration_manipulation_targetAtFixation,jsons/v1_VE250_randls_42.json,http://54.235.29.9/FacialAge/BNav_EC2/DepthDuration/v2_depth_duration_MTurk/v2_DepthDuration_HTML.html#35,35,1129,635,1241,698,8-20-2022,9-3-48,163,depth_duration_stimuli/001056_2014-06-08_18-46-44_260595134347_rgbf000068-resize_0/001056_2014-06-08_18-46-44_260595134347_rgbf000068-resize_0-target.png,250,2.6625,8,2606,249,feet,jsons/v1_VE250_randls_42.json,1648558,1857237,40,Woman
163,268772,DepthScenes,duration_manipulation_targetAtFixation,jsons/v1_VE250_randls_42.json,http://54.235.29.9/FacialAge/BNav_EC2/DepthDuration/v2_depth_duration_MTurk/v2_DepthDuration_HTML.html#35,35,1129,635,1241,698,8-20-2022,9-3-48,164,depth_duration_stimuli/002199_2014-06-28_18-33-56_260595134347_rgbf000074-resize_0/002199_2014-06-28_18-33-56_260595134347_rgbf000074-resize_0-target.png,250,1.996,5,4829,248,feet,jsons/v1_VE250_randls_42.json,1648558,1857237,40,Woman
