,subjID,experimentName,versionName,sequenceName,url,selected_row,windowWidth,windowHeight,screenWidth,screenHeight,startDate,startTime,trial,stimulus,duration,actual_depth,depth_estimate,trial_RT,log_sceneDuration,unitSelection,seq_filepath,experimentTime,totalTime,age,gender
0,270354,DepthScenes,duration_manipulation_targetAtFixation,jsons/v1_VE250_randls_7_rotated.json,http://54.235.29.9/FacialAge/BNav_EC2/DepthDuration/v2_depth_duration_MTurk/v2_DepthDuration_HTML.html#154,154,1242,698,1366,768,8-20-2022,11-5-42,1,depth_duration_stimuli/000502_2014-06-08_23-02-32_260595134347_rgbf000063-resize_4/000502_2014-06-08_23-02-32_260595134347_rgbf000063-resize_4-target.png,250,2.431,2.0,6478,245,feet,jsons/v1_VE250_randls_7_rotated.json,1326723,1844299,71,Woman
1,270354,DepthScenes,duration_manipulation_targetAtFixation,jsons/v1_VE250_randls_7_rotated.json,http://54.235.29.9/FacialAge/BNav_EC2/DepthDuration/v2_depth_duration_MTurk/v2_DepthDuration_HTML.html#154,154,1242,698,1366,768,8-20-2022,11-5-42,2,depth_duration_stimuli/001199_2014-06-17_16-03-48_260595134347_rgbf000077-resize_0/001199_2014-06-17_16-03-48_260595134347_rgbf000077-resize_0-target.png,250,3.4375,3.5,6407,251,feet,jsons/v1_VE250_randls_7_rotated.json,1326723,1844299,71,Woman
2,270354,DepthScenes,duration_manipulation_targetAtFixation,jsons/v1_VE250_randls_7_rotated.json,http://54.235.29.9/FacialAge/BNav_EC2/DepthDuration/v2_depth_duration_MTurk/v2_DepthDuration_HTML.html#154,154,1242,698,1366,768,8-20-2022,11-5-42,3,depth_duration_stimuli/000943_2014-06-09_19-31-07_260595134347_rgbf000128-resize_1/000943_2014-06-09_19-31-07_260595134347_rgbf000128-resize_1-target.png,250,1.9765,3.0,4962,255,feet,jsons/v1_VE250_randls_7_rotated.json,1326723,1844299,71,Woman
3,270354,DepthScenes,duration_manipulation_targetAtFixation,jsons/v1_VE250_randls_7_rotated.json,http://54.235.29.9/FacialAge/BNav_EC2/DepthDuration/v2_depth_duration_MTurk/v2_DepthDuration_HTML.html#154,154,1242,698,1366,768,8-20-2022,11-5-42,4,depth_duration_stimuli/003070_2014-06-15_14-58-27_094959634447_rgbf000150-resize_3/003070_2014-06-15_14-58-27_094959634447_rgbf000150-resize_3-target.png,250,2.9415,4.0,5954,250,feet,jsons/v1_VE250_randls_7_rotated.json,1326723,1844299,71,Woman
4,270354,DepthScenes,duration_manipulation_targetAtFixation,jsons/v1_VE250_randls_7_rotated.json,http://54.235.29.9/FacialAge/BNav_EC2/DepthDuration/v2_depth_duration_MTurk/v2_DepthDuration_HTML.html#154,154,1242,698,1366,768,8-20-2022,11-5-42,5,depth_duration_stimuli/002639_2014-06-24_14-51-37_094959634447_rgbf000074-resize_4/002639_2014-06-24_14-51-37_094959634447_rgbf000074-resize_4-target.png,250,4.0375,6.0,7923,254,feet,jsons/v1_VE250_randls_7_rotated.json,1326723,1844299,71,Woman
5,270354,DepthScenes,duration_manipulation_targetAtFixation,jsons/v1_VE250_randls_7_rotated.json,http://54.235.29.9/FacialAge/BNav_EC2/DepthDuration/v2_depth_duration_MTurk/v2_DepthDuration_HTML.html#154,154,1242,698,1366,768,8-20-2022,11-5-42,6,depth_duration_stimuli/003292_2014-05-14_21-53-49_094959634447_rgbf000100-resize_2/003292_2014-05-14_21-53-49_094959634447_rgbf000100-resize_2-target.png,250,3.4815,5.0,8512,249,feet,jsons/v1_VE250_randls_7_rotated.json,1326723,1844299,71,Woman
6,270354,DepthScenes,duration_manipulation_targetAtFixation,jsons/v1_VE250_randls_7_rotated.json,http://54.235.29.9/FacialAge/BNav_EC2/DepthDuration/v2_depth_duration_MTurk/v2_DepthDuration_HTML.html#154,154,1242,698,1366,768,8-20-2022,11-5-42,7,depth_duration_stimuli/000191_2014-05-12_17-07-38_260595134347_rgbf000199-resize_0/000191_2014-05-12_17-07-38_260595134347_rgbf000199-resize_0-target.png,250,3.7995,7.0,10399,261,feet,jsons/v1_VE250_randls_7_rotated.json,1326723,1844299,71,Woman
7,270354,DepthScenes,duration_manipulation_targetAtFixation,jsons/v1_VE250_randls_7_rotated.json,http://54.235.29.9/FacialAge/BNav_EC2/DepthDuration/v2_depth_duration_MTurk/v2_DepthDuration_HTML.html#154,154,1242,698,1366,768,8-20-2022,11-5-42,8,depth_duration_stimuli/000493_2014-06-09_21-01-18_260595134347_rgbf000196-resize_3/000493_2014-06-09_21-01-18_260595134347_rgbf000196-resize_3-target.png,250,3.44,4.5,15557,250,feet,jsons/v1_VE250_randls_7_rotated.json,1326723,1844299,71,Woman
8,270354,DepthScenes,duration_manipulation_targetAtFixation,jsons/v1_VE250_randls_7_rotated.json,http://54.235.29.9/FacialAge/BNav_EC2/DepthDuration/v2_depth_duration_MTurk/v2_DepthDuration_HTML.html#154,154,1242,698,1366,768,8-20-2022,11-5-42,9,depth_duration_stimuli/000483_2014-06-09_20-41-45_260595134347_rgbf000116-resize_4/000483_2014-06-09_20-41-45_260595134347_rgbf000116-resize_4-target.png,250,1.337,3.0,7073,259,feet,jsons/v1_VE250_randls_7_rotated.json,1326723,1844299,71,Woman
9,270354,DepthScenes,duration_manipulation_targetAtFixation,jsons/v1_VE250_randls_7_rotated.json,http://54.235.29.9/FacialAge/BNav_EC2/DepthDuration/v2_depth_duration_MTurk/v2_DepthDuration_HTML.html#154,154,1242,698,1366,768,8-20-2022,11-5-42,10,depth_duration_stimuli/000469_2014-06-09_19-42-10_260595134347_rgbf000081-resize_1/000469_2014-06-09_19-42-10_260595134347_rgbf000081-resize_1-target.png,250,1.652,3.5,18335,240,feet,jsons/v1_VE250_randls_7_rotated.json,1326723,1844299,71,Woman
10,270354,DepthScenes,duration_manipulation_targetAtFixation,jsons/v1_VE250_randls_7_rotated.json,http://54.235.29.9/FacialAge/BNav_EC2/DepthDuration/v2_depth_duration_MTurk/v2_DepthDuration_HTML.html#154,154,1242,698,1366,768,8-20-2022,11-5-42,11,depth_duration_stimuli/003423_2014-05-21_10-23-26_094959634447_rgbf002665-resize_2/003423_2014-05-21_10-23-26_094959634447_rgbf002665-resize_2-target.png,250,3.2575,6.0,8156,255,feet,jsons/v1_VE250_randls_7_rotated.json,1326723,1844299,71,Woman
11,270354,DepthScenes,duration_manipulation_targetAtFixation,jsons/v1_VE250_randls_7_rotated.json,http://54.235.29.9/FacialAge/BNav_EC2/DepthDuration/v2_depth_duration_MTurk/v2_DepthDuration_HTML.html#154,154,1242,698,1366,768,8-20-2022,11-5-42,12,depth_duration_stimuli/002905_2014-06-03_18-04-43_094959634447_rgbf000151-resize_2/002905_2014-06-03_18-04-43_094959634447_rgbf000151-resize_2-target.png,250,2.0295,4.5,7820,254,feet,jsons/v1_VE250_randls_7_rotated.json,1326723,1844299,71,Woman
12,270354,DepthScenes,duration_manipulation_targetAtFixation,jsons/v1_VE250_randls_7_rotated.json,http://54.235.29.9/FacialAge/BNav_EC2/DepthDuration/v2_depth_duration_MTurk/v2_DepthDuration_HTML.html#154,154,1242,698,1366,768,8-20-2022,11-5-42,13,depth_duration_stimuli/003081_2014-06-15_15-19-16_094959634447_rgbf000150-resize_1/003081_2014-06-15_15-19-16_094959634447_rgbf000150-resize_1-target.png,250,3.9125,4.0,14430,254,feet,jsons/v1_VE250_randls_7_rotated.json,1326723,1844299,71,Woman
13,270354,DepthScenes,duration_manipulation_targetAtFixation,jsons/v1_VE250_randls_7_rotated.json,http://54.235.29.9/FacialAge/BNav_EC2/DepthDuration/v2_depth_duration_MTurk/v2_DepthDuration_HTML.html#154,154,1242,698,1366,768,8-20-2022,11-5-42,14,depth_duration_stimuli/001417_2014-06-19_16-25-36_260595134347_rgbf000115-resize_5/001417_2014-06-19_16-25-36_260595134347_rgbf000115-resize_5-target.png,250,4.6255,8.0,9322,255,feet,jsons/v1_VE250_randls_7_rotated.json,1326723,1844299,71,Woman
14,270354,DepthScenes,duration_manipulation_targetAtFixation,jsons/v1_VE250_randls_7_rotated.json,http://54.235.29.9/FacialAge/BNav_EC2/DepthDuration/v2_depth_duration_MTurk/v2_DepthDuration_HTML.html#154,154,1242,698,1366,768,8-20-2022,11-5-42,15,depth_duration_stimuli/002657_2014-06-13_15-29-54_094959634447_rgbf000150-resize_1/002657_2014-06-13_15-29-54_094959634447_rgbf000150-resize_1-target.png,250,4.919,4.0,12616,261,feet,jsons/v1_VE250_randls_7_rotated.json,1326723,1844299,71,Woman
15,270354,DepthScenes,duration_manipulation_targetAtFixation,jsons/v1_VE250_randls_7_rotated.json,http://54.235.29.9/FacialAge/BNav_EC2/DepthDuration/v2_depth_duration_MTurk/v2_DepthDuration_HTML.html#154,154,1242,698,1366,768,8-20-2022,11-5-42,16,depth_duration_stimuli/002375_2014-06-28_20-13-44_260595134347_rgbf000032-resize_1/002375_2014-06-28_20-13-44_260595134347_rgbf000032-resize_1-target.png,250,4.0175,5.0,12320,257,feet,jsons/v1_VE250_randls_7_rotated.json,1326723,1844299,71,Woman
16,270354,DepthScenes,duration_manipulation_targetAtFixation,jsons/v1_VE250_randls_7_rotated.json,http://54.235.29.9/FacialAge/BNav_EC2/DepthDuration/v2_depth_duration_MTurk/v2_DepthDuration_HTML.html#154,154,1242,698,1366,768,8-20-2022,11-5-42,17,depth_duration_stimuli/002323_2014-06-28_20-01-54_260595134347_rgbf000051-resize_4/002323_2014-06-28_20-01-54_260595134347_rgbf000051-resize_4-target.png,250,3.7310000000000003,5.7,13713,239,feet,jsons/v1_VE250_randls_7_rotated.json,1326723,1844299,71,Woman
17,270354,DepthScenes,duration_manipulation_targetAtFixation,jsons/v1_VE250_randls_7_rotated.json,http://54.235.29.9/FacialAge/BNav_EC2/DepthDuration/v2_depth_duration_MTurk/v2_DepthDuration_HTML.html#154,154,1242,698,1366,768,8-20-2022,11-5-42,18,depth_duration_stimuli/000917_2014-06-09_22-45-29_260595134347_rgbf000149-resize_3/000917_2014-06-09_22-45-29_260595134347_rgbf000149-resize_3-target.png,250,4.1865,0.0,5250,249,feet,jsons/v1_VE250_randls_7_rotated.json,1326723,1844299,71,Woman
18,270354,DepthScenes,duration_manipulation_targetAtFixation,jsons/v1_VE250_randls_7_rotated.json,http://54.235.29.9/FacialAge/BNav_EC2/DepthDuration/v2_depth_duration_MTurk/v2_DepthDuration_HTML.html#154,154,1242,698,1366,768,8-20-2022,11-5-42,19,depth_duration_stimuli/001498_2014-06-19_17-45-14_260595134347_rgbf000129-resize_4/001498_2014-06-19_17-45-14_260595134347_rgbf000129-resize-original.jpg,250,1.4075,0.0,5020,260,feet,jsons/v1_VE250_randls_7_rotated.json,1326723,1844299,71,Woman
19,270354,DepthScenes,duration_manipulation_targetAtFixation,jsons/v1_VE250_randls_7_rotated.json,http://54.235.29.9/FacialAge/BNav_EC2/DepthDuration/v2_depth_duration_MTurk/v2_DepthDuration_HTML.html#154,154,1242,698,1366,768,8-20-2022,11-5-42,20,depth_duration_stimuli/003338_2014-05-20_11-01-23_094959634447_rgbf000051-resize_6/003338_2014-05-20_11-01-23_094959634447_rgbf000051-resize_6-target.png,250,1.693,3.0,6928,251,feet,jsons/v1_VE250_randls_7_rotated.json,1326723,1844299,71,Woman
20,270354,DepthScenes,duration_manipulation_targetAtFixation,jsons/v1_VE250_randls_7_rotated.json,http://54.235.29.9/FacialAge/BNav_EC2/DepthDuration/v2_depth_duration_MTurk/v2_DepthDuration_HTML.html#154,154,1242,698,1366,768,8-20-2022,11-5-42,21,depth_duration_stimuli/002509_2014-06-24_13-19-22_094959634447_rgbf000077-resize_0/002509_2014-06-24_13-19-22_094959634447_rgbf000077-resize_0-target.png,250,1.3065,2.5,6771,248,feet,jsons/v1_VE250_randls_7_rotated.json,1326723,1844299,71,Woman
21,270354,DepthScenes,duration_manipulation_targetAtFixation,jsons/v1_VE250_randls_7_rotated.json,http://54.235.29.9/FacialAge/BNav_EC2/DepthDuration/v2_depth_duration_MTurk/v2_DepthDuration_HTML.html#154,154,1242,698,1366,768,8-20-2022,11-5-42,22,depth_duration_stimuli/000103_2014-05-14_22-01-17_260595134347_rgbf000152-resize_5/000103_2014-05-14_22-01-17_260595134347_rgbf000152-resize_5-target.png,250,1.993,6.5,9452,262,feet,jsons/v1_VE250_randls_7_rotated.json,1326723,1844299,71,Woman
22,270354,DepthScenes,duration_manipulation_targetAtFixation,jsons/v1_VE250_randls_7_rotated.json,http://54.235.29.9/FacialAge/BNav_EC2/DepthDuration/v2_depth_duration_MTurk/v2_DepthDuration_HTML.html#154,154,1242,698,1366,768,8-20-2022,11-5-42,23,depth_duration_stimuli/001555_2014-06-20_17-12-10_260595134347_rgbf000065-resize_4/001555_2014-06-20_17-12-10_260595134347_rgbf000065-resize_4-target.png,250,1.633,3.0,8474,255,feet,jsons/v1_VE250_randls_7_rotated.json,1326723,1844299,71,Woman
23,270354,DepthScenes,duration_manipulation_targetAtFixation,jsons/v1_VE250_randls_7_rotated.json,http://54.235.29.9/FacialAge/BNav_EC2/DepthDuration/v2_depth_duration_MTurk/v2_DepthDuration_HTML.html#154,154,1242,698,1366,768,8-20-2022,11-5-42,24,depth_duration_stimuli/003079_2014-06-15_15-18-20_094959634447_rgbf000152-resize_8/003079_2014-06-15_15-18-20_094959634447_rgbf000152-resize_8-target.png,250,2.8775,5.0,7958,258,feet,jsons/v1_VE250_randls_7_rotated.json,1326723,1844299,71,Woman
24,270354,DepthScenes,duration_manipulation_targetAtFixation,jsons/v1_VE250_randls_7_rotated.json,http://54.235.29.9/FacialAge/BNav_EC2/DepthDuration/v2_depth_duration_MTurk/v2_DepthDuration_HTML.html#154,154,1242,698,1366,768,8-20-2022,11-5-42,25,depth_duration_stimuli/000506_2014-06-08_23-21-00_260595134347_rgbf000070-resize_7/000506_2014-06-08_23-21-00_260595134347_rgbf000070-resize_7-target.png,250,4.0585,0.0,4942,253,feet,jsons/v1_VE250_randls_7_rotated.json,1326723,1844299,71,Woman
25,270354,DepthScenes,duration_manipulation_targetAtFixation,jsons/v1_VE250_randls_7_rotated.json,http://54.235.29.9/FacialAge/BNav_EC2/DepthDuration/v2_depth_duration_MTurk/v2_DepthDuration_HTML.html#154,154,1242,698,1366,768,8-20-2022,11-5-42,26,depth_duration_stimuli/002414_2014-06-28_20-24-58_260595134347_rgbf000067-resize_4/002414_2014-06-28_20-24-58_260595134347_rgbf000067-resize_4-target.png,250,4.363,4.0,5722,259,feet,jsons/v1_VE250_randls_7_rotated.json,1326723,1844299,71,Woman
26,270354,DepthScenes,duration_manipulation_targetAtFixation,jsons/v1_VE250_randls_7_rotated.json,http://54.235.29.9/FacialAge/BNav_EC2/DepthDuration/v2_depth_duration_MTurk/v2_DepthDuration_HTML.html#154,154,1242,698,1366,768,8-20-2022,11-5-42,27,depth_duration_stimuli/000773_2014-06-08_22-24-54_260595134347_rgbf000093-resize_1/000773_2014-06-08_22-24-54_260595134347_rgbf000093-resize_1-target.png,250,4.973,4.5,8934,247,feet,jsons/v1_VE250_randls_7_rotated.json,1326723,1844299,71,Woman
27,270354,DepthScenes,duration_manipulation_targetAtFixation,jsons/v1_VE250_randls_7_rotated.json,http://54.235.29.9/FacialAge/BNav_EC2/DepthDuration/v2_depth_duration_MTurk/v2_DepthDuration_HTML.html#154,154,1242,698,1366,768,8-20-2022,11-5-42,28,depth_duration_stimuli/000665_2014-06-09_20-42-35_260595134347_rgbf000110-resize_1/000665_2014-06-09_20-42-35_260595134347_rgbf000110-resize_1-target.png,250,3.057,4.0,5017,236,feet,jsons/v1_VE250_randls_7_rotated.json,1326723,1844299,71,Woman
28,270354,DepthScenes,duration_manipulation_targetAtFixation,jsons/v1_VE250_randls_7_rotated.json,http://54.235.29.9/FacialAge/BNav_EC2/DepthDuration/v2_depth_duration_MTurk/v2_DepthDuration_HTML.html#154,154,1242,698,1366,768,8-20-2022,11-5-42,29,depth_duration_stimuli/001150_2014-06-17_15-27-34_260595134347_rgbf000108-resize_2/001150_2014-06-17_15-27-34_260595134347_rgbf000108-resize_2-target.png,250,4.0325,4.5,8965,259,feet,jsons/v1_VE250_randls_7_rotated.json,1326723,1844299,71,Woman
29,270354,DepthScenes,duration_manipulation_targetAtFixation,jsons/v1_VE250_randls_7_rotated.json,http://54.235.29.9/FacialAge/BNav_EC2/DepthDuration/v2_depth_duration_MTurk/v2_DepthDuration_HTML.html#154,154,1242,698,1366,768,8-20-2022,11-5-42,30,depth_duration_stimuli/002072_2014-06-24_21-48-06_260595134347_rgbf000115-resize_0/002072_2014-06-24_21-48-06_260595134347_rgbf000115-resize-original.jpg,250,4.702,0.0,4021,251,feet,jsons/v1_VE250_randls_7_rotated.json,1326723,1844299,71,Woman
30,270354,DepthScenes,duration_manipulation_targetAtFixation,jsons/v1_VE250_randls_7_rotated.json,http://54.235.29.9/FacialAge/BNav_EC2/DepthDuration/v2_depth_duration_MTurk/v2_DepthDuration_HTML.html#154,154,1242,698,1366,768,8-20-2022,11-5-42,31,depth_duration_stimuli/000742_2014-06-08_18-48-09_260595134347_rgbf000164-resize_4/000742_2014-06-08_18-48-09_260595134347_rgbf000164-resize_4-target.png,250,4.632,5.0,6866,256,feet,jsons/v1_VE250_randls_7_rotated.json,1326723,1844299,71,Woman
31,270354,DepthScenes,duration_manipulation_targetAtFixation,jsons/v1_VE250_randls_7_rotated.json,http://54.235.29.9/FacialAge/BNav_EC2/DepthDuration/v2_depth_duration_MTurk/v2_DepthDuration_HTML.html#154,154,1242,698,1366,768,8-20-2022,11-5-42,32,depth_duration_stimuli/001066_2014-06-08_22-03-20_260595134347_rgbf000066-resize_4/001066_2014-06-08_22-03-20_260595134347_rgbf000066-resize_4-target.png,250,4.2330000000000005,4.0,7321,254,feet,jsons/v1_VE250_randls_7_rotated.json,1326723,1844299,71,Woman
32,270354,DepthScenes,duration_manipulation_targetAtFixation,jsons/v1_VE250_randls_7_rotated.json,http://54.235.29.9/FacialAge/BNav_EC2/DepthDuration/v2_depth_duration_MTurk/v2_DepthDuration_HTML.html#154,154,1242,698,1366,768,8-20-2022,11-5-42,33,depth_duration_stimuli/000409_2014-06-04_19-23-33_260595134347_rgbf000067-resize_0/000409_2014-06-04_19-23-33_260595134347_rgbf000067-resize_0-target.png,250,3.7335,4.2,8010,258,feet,jsons/v1_VE250_randls_7_rotated.json,1326723,1844299,71,Woman
33,270354,DepthScenes,duration_manipulation_targetAtFixation,jsons/v1_VE250_randls_7_rotated.json,http://54.235.29.9/FacialAge/BNav_EC2/DepthDuration/v2_depth_duration_MTurk/v2_DepthDuration_HTML.html#154,154,1242,698,1366,768,8-20-2022,11-5-42,34,depth_duration_stimuli/002663_2014-06-13_15-50-26_094959634447_rgbf000075-resize_1/002663_2014-06-13_15-50-26_094959634447_rgbf000075-resize_1-target.png,250,4.7495,5.0,5790,254,feet,jsons/v1_VE250_randls_7_rotated.json,1326723,1844299,71,Woman
34,270354,DepthScenes,duration_manipulation_targetAtFixation,jsons/v1_VE250_randls_7_rotated.json,http://54.235.29.9/FacialAge/BNav_EC2/DepthDuration/v2_depth_duration_MTurk/v2_DepthDuration_HTML.html#154,154,1242,698,1366,768,8-20-2022,11-5-42,35,depth_duration_stimuli/001392_2014-06-19_16-07-59_260595134347_rgbf000046-resize_1/001392_2014-06-19_16-07-59_260595134347_rgbf000046-resize_1-target.png,250,4.135,6.0,4587,244,feet,jsons/v1_VE250_randls_7_rotated.json,1326723,1844299,71,Woman
35,270354,DepthScenes,duration_manipulation_targetAtFixation,jsons/v1_VE250_randls_7_rotated.json,http://54.235.29.9/FacialAge/BNav_EC2/DepthDuration/v2_depth_duration_MTurk/v2_DepthDuration_HTML.html#154,154,1242,698,1366,768,8-20-2022,11-5-42,36,depth_duration_stimuli/001570_2014-06-20_17-21-09_260595134347_rgbf000135-resize_4/001570_2014-06-20_17-21-09_260595134347_rgbf000135-resize_4-target.png,250,4.467,6.2,12133,247,feet,jsons/v1_VE250_randls_7_rotated.json,1326723,1844299,71,Woman
36,270354,DepthScenes,duration_manipulation_targetAtFixation,jsons/v1_VE250_randls_7_rotated.json,http://54.235.29.9/FacialAge/BNav_EC2/DepthDuration/v2_depth_duration_MTurk/v2_DepthDuration_HTML.html#154,154,1242,698,1366,768,8-20-2022,11-5-42,37,depth_duration_stimuli/000927_2014-06-09_16-32-30_260595134347_rgbf000123-resize_3/000927_2014-06-09_16-32-30_260595134347_rgbf000123-resize_3-target.png,250,2.6785,5.0,7611,241,feet,jsons/v1_VE250_randls_7_rotated.json,1326723,1844299,71,Woman
37,270354,DepthScenes,duration_manipulation_targetAtFixation,jsons/v1_VE250_randls_7_rotated.json,http://54.235.29.9/FacialAge/BNav_EC2/DepthDuration/v2_depth_duration_MTurk/v2_DepthDuration_HTML.html#154,154,1242,698,1366,768,8-20-2022,11-5-42,38,depth_duration_stimuli/001110_2014-06-15_17-25-28_260595134347_rgbf000150-resize_1/001110_2014-06-15_17-25-28_260595134347_rgbf000150-resize_1-target.png,250,1.7115,4.0,5259,256,feet,jsons/v1_VE250_randls_7_rotated.json,1326723,1844299,71,Woman
38,270354,DepthScenes,duration_manipulation_targetAtFixation,jsons/v1_VE250_randls_7_rotated.json,http://54.235.29.9/FacialAge/BNav_EC2/DepthDuration/v2_depth_duration_MTurk/v2_DepthDuration_HTML.html#154,154,1242,698,1366,768,8-20-2022,11-5-42,39,depth_duration_stimuli/001136_2014-06-17_15-19-41_260595134347_rgbf000076-resize_3/001136_2014-06-17_15-19-41_260595134347_rgbf000076-resize_3-target.png,250,1.8655,5.0,7744,259,feet,jsons/v1_VE250_randls_7_rotated.json,1326723,1844299,71,Woman
39,270354,DepthScenes,duration_manipulation_targetAtFixation,jsons/v1_VE250_randls_7_rotated.json,http://54.235.29.9/FacialAge/BNav_EC2/DepthDuration/v2_depth_duration_MTurk/v2_DepthDuration_HTML.html#154,154,1242,698,1366,768,8-20-2022,11-5-42,40,depth_duration_stimuli/001164_2014-06-17_15-35-46_260595134347_rgbf000085-resize_3/001164_2014-06-17_15-35-46_260595134347_rgbf000085-resize_3-target.png,250,2.354,4.0,5811,256,feet,jsons/v1_VE250_randls_7_rotated.json,1326723,1844299,71,Woman
40,270354,DepthScenes,duration_manipulation_targetAtFixation,jsons/v1_VE250_randls_7_rotated.json,http://54.235.29.9/FacialAge/BNav_EC2/DepthDuration/v2_depth_duration_MTurk/v2_DepthDuration_HTML.html#154,154,1242,698,1366,768,8-20-2022,11-5-42,41,depth_duration_stimuli/000709_2014-06-08_13-51-55_260595134347_rgbf000068-resize_3/000709_2014-06-08_13-51-55_260595134347_rgbf000068-resize_3-target.png,250,1.8030000000000002,6.0,8202,254,feet,jsons/v1_VE250_randls_7_rotated.json,1326723,1844299,71,Woman
41,270354,DepthScenes,duration_manipulation_targetAtFixation,jsons/v1_VE250_randls_7_rotated.json,http://54.235.29.9/FacialAge/BNav_EC2/DepthDuration/v2_depth_duration_MTurk/v2_DepthDuration_HTML.html#154,154,1242,698,1366,768,8-20-2022,11-5-42,42,depth_duration_stimuli/002057_2014-06-24_21-00-13_260595134347_rgbf000120-resize_1/002057_2014-06-24_21-00-13_260595134347_rgbf000120-resize_1-target.png,250,2.967,4.5,11962,248,feet,jsons/v1_VE250_randls_7_rotated.json,1326723,1844299,71,Woman
42,270354,DepthScenes,duration_manipulation_targetAtFixation,jsons/v1_VE250_randls_7_rotated.json,http://54.235.29.9/FacialAge/BNav_EC2/DepthDuration/v2_depth_duration_MTurk/v2_DepthDuration_HTML.html#154,154,1242,698,1366,768,8-20-2022,11-5-42,43,depth_duration_stimuli/001650_2014-06-20_12-09-00_260595134347_rgbf000087-resize_3/001650_2014-06-20_12-09-00_260595134347_rgbf000087-resize_3-target.png,250,1.9505,3.0,10708,221,feet,jsons/v1_VE250_randls_7_rotated.json,1326723,1844299,71,Woman
43,270354,DepthScenes,duration_manipulation_targetAtFixation,jsons/v1_VE250_randls_7_rotated.json,http://54.235.29.9/FacialAge/BNav_EC2/DepthDuration/v2_depth_duration_MTurk/v2_DepthDuration_HTML.html#154,154,1242,698,1366,768,8-20-2022,11-5-42,44,depth_duration_stimuli/000682_2014-06-08_23-14-58_260595134347_rgbf000041-resize_5/000682_2014-06-08_23-14-58_260595134347_rgbf000041-resize_5-target.png,250,2.7239999999999998,3.0,5767,244,feet,jsons/v1_VE250_randls_7_rotated.json,1326723,1844299,71,Woman
44,270354,DepthScenes,duration_manipulation_targetAtFixation,jsons/v1_VE250_randls_7_rotated.json,http://54.235.29.9/FacialAge/BNav_EC2/DepthDuration/v2_depth_duration_MTurk/v2_DepthDuration_HTML.html#154,154,1242,698,1366,768,8-20-2022,11-5-42,45,depth_duration_stimuli/002344_2014-06-28_20-06-29_260595134347_rgbf000030-resize_1/002344_2014-06-28_20-06-29_260595134347_rgbf000030-resize_1-target.png,250,1.5795,2.0,5340,255,feet,jsons/v1_VE250_randls_7_rotated.json,1326723,1844299,71,Woman
45,270354,DepthScenes,duration_manipulation_targetAtFixation,jsons/v1_VE250_randls_7_rotated.json,http://54.235.29.9/FacialAge/BNav_EC2/DepthDuration/v2_depth_duration_MTurk/v2_DepthDuration_HTML.html#154,154,1242,698,1366,768,8-20-2022,11-5-42,46,depth_duration_stimuli/002725_2014-06-22_11-47-51_094959634447_rgbf000070-resize_1/002725_2014-06-22_11-47-51_094959634447_rgbf000070-resize_1-target.png,250,2.195,4.0,8427,262,feet,jsons/v1_VE250_randls_7_rotated.json,1326723,1844299,71,Woman
46,270354,DepthScenes,duration_manipulation_targetAtFixation,jsons/v1_VE250_randls_7_rotated.json,http://54.235.29.9/FacialAge/BNav_EC2/DepthDuration/v2_depth_duration_MTurk/v2_DepthDuration_HTML.html#154,154,1242,698,1366,768,8-20-2022,11-5-42,47,depth_duration_stimuli/000549_2014-06-08_22-10-24_260595134347_rgbf000247-resize_3/000549_2014-06-08_22-10-24_260595134347_rgbf000247-resize_3-target.png,250,1.841,5.0,11213,257,feet,jsons/v1_VE250_randls_7_rotated.json,1326723,1844299,71,Woman
47,270354,DepthScenes,duration_manipulation_targetAtFixation,jsons/v1_VE250_randls_7_rotated.json,http://54.235.29.9/FacialAge/BNav_EC2/DepthDuration/v2_depth_duration_MTurk/v2_DepthDuration_HTML.html#154,154,1242,698,1366,768,8-20-2022,11-5-42,48,depth_duration_stimuli/001055_2014-06-08_18-45-35_260595134347_rgbf000111-resize_4/001055_2014-06-08_18-45-35_260595134347_rgbf000111-resize_4-target.png,250,2.4290000000000003,4.0,4350,217,feet,jsons/v1_VE250_randls_7_rotated.json,1326723,1844299,71,Woman
48,270354,DepthScenes,duration_manipulation_targetAtFixation,jsons/v1_VE250_randls_7_rotated.json,http://54.235.29.9/FacialAge/BNav_EC2/DepthDuration/v2_depth_duration_MTurk/v2_DepthDuration_HTML.html#154,154,1242,698,1366,768,8-20-2022,11-5-42,49,depth_duration_stimuli/001170_2014-06-17_15-43-44_260595134347_rgbf000096-resize_6/001170_2014-06-17_15-43-44_260595134347_rgbf000096-resize-original.jpg,250,1.1909999999999998,0.0,4689,238,feet,jsons/v1_VE250_randls_7_rotated.json,1326723,1844299,71,Woman
49,270354,DepthScenes,duration_manipulation_targetAtFixation,jsons/v1_VE250_randls_7_rotated.json,http://54.235.29.9/FacialAge/BNav_EC2/DepthDuration/v2_depth_duration_MTurk/v2_DepthDuration_HTML.html#154,154,1242,698,1366,768,8-20-2022,11-5-42,50,depth_duration_stimuli/001450_2014-06-19_17-02-03_260595134347_rgbf000203-resize_4/001450_2014-06-19_17-02-03_260595134347_rgbf000203-resize_4-target.png,250,4.0106666666667,5.0,7255,247,feet,jsons/v1_VE250_randls_7_rotated.json,1326723,1844299,71,Woman
50,270354,DepthScenes,duration_manipulation_targetAtFixation,jsons/v1_VE250_randls_7_rotated.json,http://54.235.29.9/FacialAge/BNav_EC2/DepthDuration/v2_depth_duration_MTurk/v2_DepthDuration_HTML.html#154,154,1242,698,1366,768,8-20-2022,11-5-42,51,depth_duration_stimuli/001449_2014-06-19_17-01-27_260595134347_rgbf000116-resize_2/001449_2014-06-19_17-01-27_260595134347_rgbf000116-resize_2-target.png,250,3.452,4.0,12570,255,feet,jsons/v1_VE250_randls_7_rotated.json,1326723,1844299,71,Woman
51,270354,DepthScenes,duration_manipulation_targetAtFixation,jsons/v1_VE250_randls_7_rotated.json,http://54.235.29.9/FacialAge/BNav_EC2/DepthDuration/v2_depth_duration_MTurk/v2_DepthDuration_HTML.html#154,154,1242,698,1366,768,8-20-2022,11-5-42,52,depth_duration_stimuli/002875_2014-06-01_15-19-00_094959634447_rgbf000151-resize_1/002875_2014-06-01_15-19-00_094959634447_rgbf000151-resize_1-target.png,250,1.9675,3.0,5365,241,feet,jsons/v1_VE250_randls_7_rotated.json,1326723,1844299,71,Woman
52,270354,DepthScenes,duration_manipulation_targetAtFixation,jsons/v1_VE250_randls_7_rotated.json,http://54.235.29.9/FacialAge/BNav_EC2/DepthDuration/v2_depth_duration_MTurk/v2_DepthDuration_HTML.html#154,154,1242,698,1366,768,8-20-2022,11-5-42,53,depth_duration_stimuli/001011_2014-06-08_23-18-54_260595134347_rgbf000044-resize_4/001011_2014-06-08_23-18-54_260595134347_rgbf000044-resize_4-target.png,250,2.4730000000000003,5.0,6189,272,feet,jsons/v1_VE250_randls_7_rotated.json,1326723,1844299,71,Woman
53,270354,DepthScenes,duration_manipulation_targetAtFixation,jsons/v1_VE250_randls_7_rotated.json,http://54.235.29.9/FacialAge/BNav_EC2/DepthDuration/v2_depth_duration_MTurk/v2_DepthDuration_HTML.html#154,154,1242,698,1366,768,8-20-2022,11-5-42,54,depth_duration_stimuli/002103_2014-06-25_20-00-40_260595134347_rgbf000049-resize_0/002103_2014-06-25_20-00-40_260595134347_rgbf000049-resize_0-target.png,250,4.105,3.0,8428,258,feet,jsons/v1_VE250_randls_7_rotated.json,1326723,1844299,71,Woman
54,270354,DepthScenes,duration_manipulation_targetAtFixation,jsons/v1_VE250_randls_7_rotated.json,http://54.235.29.9/FacialAge/BNav_EC2/DepthDuration/v2_depth_duration_MTurk/v2_DepthDuration_HTML.html#154,154,1242,698,1366,768,8-20-2022,11-5-42,55,depth_duration_stimuli/002039_2014-06-24_20-22-38_260595134347_rgbf000084-resize_1/002039_2014-06-24_20-22-38_260595134347_rgbf000084-resize_1-target.png,250,4.408,5.0,5841,241,feet,jsons/v1_VE250_randls_7_rotated.json,1326723,1844299,71,Woman
55,270354,DepthScenes,duration_manipulation_targetAtFixation,jsons/v1_VE250_randls_7_rotated.json,http://54.235.29.9/FacialAge/BNav_EC2/DepthDuration/v2_depth_duration_MTurk/v2_DepthDuration_HTML.html#154,154,1242,698,1366,768,8-20-2022,11-5-42,56,depth_duration_stimuli/001235_2014-06-17_16-37-36_260595134347_rgbf000084-resize_4/001235_2014-06-17_16-37-36_260595134347_rgbf000084-resize_4-target.png,250,3.6605,5.0,7725,245,feet,jsons/v1_VE250_randls_7_rotated.json,1326723,1844299,71,Woman
56,270354,DepthScenes,duration_manipulation_targetAtFixation,jsons/v1_VE250_randls_7_rotated.json,http://54.235.29.9/FacialAge/BNav_EC2/DepthDuration/v2_depth_duration_MTurk/v2_DepthDuration_HTML.html#154,154,1242,698,1366,768,8-20-2022,11-5-42,57,depth_duration_stimuli/000788_2014-06-08_22-34-36_260595134347_rgbf000131-resize_1/000788_2014-06-08_22-34-36_260595134347_rgbf000131-resize_1-target.png,250,3.359,4.0,5270,225,feet,jsons/v1_VE250_randls_7_rotated.json,1326723,1844299,71,Woman
57,270354,DepthScenes,duration_manipulation_targetAtFixation,jsons/v1_VE250_randls_7_rotated.json,http://54.235.29.9/FacialAge/BNav_EC2/DepthDuration/v2_depth_duration_MTurk/v2_DepthDuration_HTML.html#154,154,1242,698,1366,768,8-20-2022,11-5-42,58,depth_duration_stimuli/003587_2014-05-23_16-48-02_094959634447_rgbf002384-resize_2/003587_2014-05-23_16-48-02_094959634447_rgbf002384-resize_2-target.png,250,1.357,2.0,4862,244,feet,jsons/v1_VE250_randls_7_rotated.json,1326723,1844299,71,Woman
58,270354,DepthScenes,duration_manipulation_targetAtFixation,jsons/v1_VE250_randls_7_rotated.json,http://54.235.29.9/FacialAge/BNav_EC2/DepthDuration/v2_depth_duration_MTurk/v2_DepthDuration_HTML.html#154,154,1242,698,1366,768,8-20-2022,11-5-42,59,depth_duration_stimuli/001167_2014-06-17_15-38-07_260595134347_rgbf000108-resize_0/001167_2014-06-17_15-38-07_260595134347_rgbf000108-resize_0-target.png,250,1.8505,4.5,5733,248,feet,jsons/v1_VE250_randls_7_rotated.json,1326723,1844299,71,Woman
59,270354,DepthScenes,duration_manipulation_targetAtFixation,jsons/v1_VE250_randls_7_rotated.json,http://54.235.29.9/FacialAge/BNav_EC2/DepthDuration/v2_depth_duration_MTurk/v2_DepthDuration_HTML.html#154,154,1242,698,1366,768,8-20-2022,11-5-42,60,depth_duration_stimuli/000749_2014-06-08_21-55-06_260595134347_rgbf000070-resize_2/000749_2014-06-08_21-55-06_260595134347_rgbf000070-resize_2-target.png,250,2.331,4.0,6630,258,feet,jsons/v1_VE250_randls_7_rotated.json,1326723,1844299,71,Woman
60,270354,DepthScenes,duration_manipulation_targetAtFixation,jsons/v1_VE250_randls_7_rotated.json,http://54.235.29.9/FacialAge/BNav_EC2/DepthDuration/v2_depth_duration_MTurk/v2_DepthDuration_HTML.html#154,154,1242,698,1366,768,8-20-2022,11-5-42,61,depth_duration_stimuli/002788_2014-06-22_19-36-03_094959634447_rgbf000088-resize_2/002788_2014-06-22_19-36-03_094959634447_rgbf000088-resize_2-target.png,250,1.6465,3.5,8168,253,feet,jsons/v1_VE250_randls_7_rotated.json,1326723,1844299,71,Woman
61,270354,DepthScenes,duration_manipulation_targetAtFixation,jsons/v1_VE250_randls_7_rotated.json,http://54.235.29.9/FacialAge/BNav_EC2/DepthDuration/v2_depth_duration_MTurk/v2_DepthDuration_HTML.html#154,154,1242,698,1366,768,8-20-2022,11-5-42,62,depth_duration_stimuli/001584_2014-06-20_11-07-43_260595134347_rgbf000002-resize_1/001584_2014-06-20_11-07-43_260595134347_rgbf000002-resize_1-target.png,250,3.53,5.0,6284,248,feet,jsons/v1_VE250_randls_7_rotated.json,1326723,1844299,71,Woman
62,270354,DepthScenes,duration_manipulation_targetAtFixation,jsons/v1_VE250_randls_7_rotated.json,http://54.235.29.9/FacialAge/BNav_EC2/DepthDuration/v2_depth_duration_MTurk/v2_DepthDuration_HTML.html#154,154,1242,698,1366,768,8-20-2022,11-5-42,63,depth_duration_stimuli/003621_2014-05-23_18-06-08_094959634447_rgbf000101-resize_1/003621_2014-05-23_18-06-08_094959634447_rgbf000101-resize_1-target.png,250,3.9835,6.0,5222,253,feet,jsons/v1_VE250_randls_7_rotated.json,1326723,1844299,71,Woman
63,270354,DepthScenes,duration_manipulation_targetAtFixation,jsons/v1_VE250_randls_7_rotated.json,http://54.235.29.9/FacialAge/BNav_EC2/DepthDuration/v2_depth_duration_MTurk/v2_DepthDuration_HTML.html#154,154,1242,698,1366,768,8-20-2022,11-5-42,64,depth_duration_stimuli/002136_2014-06-25_21-18-03_260595134347_rgbf000109-resize_3/002136_2014-06-25_21-18-03_260595134347_rgbf000109-resize_3-target.png,250,1.9569999999999999,3.0,5125,258,feet,jsons/v1_VE250_randls_7_rotated.json,1326723,1844299,71,Woman
64,270354,DepthScenes,duration_manipulation_targetAtFixation,jsons/v1_VE250_randls_7_rotated.json,http://54.235.29.9/FacialAge/BNav_EC2/DepthDuration/v2_depth_duration_MTurk/v2_DepthDuration_HTML.html#154,154,1242,698,1366,768,8-20-2022,11-5-42,65,depth_duration_stimuli/002964_2014-06-08_17-46-11_094959634447_rgbf000091-resize_4/002964_2014-06-08_17-46-11_094959634447_rgbf000091-resize_4-target.png,250,1.6909999999999998,4.0,7744,255,feet,jsons/v1_VE250_randls_7_rotated.json,1326723,1844299,71,Woman
65,270354,DepthScenes,duration_manipulation_targetAtFixation,jsons/v1_VE250_randls_7_rotated.json,http://54.235.29.9/FacialAge/BNav_EC2/DepthDuration/v2_depth_duration_MTurk/v2_DepthDuration_HTML.html#154,154,1242,698,1366,768,8-20-2022,11-5-42,66,depth_duration_stimuli/001540_2014-06-20_17-01-05_260595134347_rgbf000086-resize_2/001540_2014-06-20_17-01-05_260595134347_rgbf000086-resize-original.jpg,250,1.459,0.0,4638,245,feet,jsons/v1_VE250_randls_7_rotated.json,1326723,1844299,71,Woman
66,270354,DepthScenes,duration_manipulation_targetAtFixation,jsons/v1_VE250_randls_7_rotated.json,http://54.235.29.9/FacialAge/BNav_EC2/DepthDuration/v2_depth_duration_MTurk/v2_DepthDuration_HTML.html#154,154,1242,698,1366,768,8-20-2022,11-5-42,67,depth_duration_stimuli/002340_2014-06-28_20-05-46_260595134347_rgbf000113-resize_0/002340_2014-06-28_20-05-46_260595134347_rgbf000113-resize_0-target.png,250,2.4735,5.0,7465,252,feet,jsons/v1_VE250_randls_7_rotated.json,1326723,1844299,71,Woman
67,270354,DepthScenes,duration_manipulation_targetAtFixation,jsons/v1_VE250_randls_7_rotated.json,http://54.235.29.9/FacialAge/BNav_EC2/DepthDuration/v2_depth_duration_MTurk/v2_DepthDuration_HTML.html#154,154,1242,698,1366,768,8-20-2022,11-5-42,68,depth_duration_stimuli/001016_2014-06-09_16-16-10_260595134347_rgbf000112-resize_5/001016_2014-06-09_16-16-10_260595134347_rgbf000112-resize_5-target.png,250,1.6565,4.0,5416,258,feet,jsons/v1_VE250_randls_7_rotated.json,1326723,1844299,71,Woman
68,270354,DepthScenes,duration_manipulation_targetAtFixation,jsons/v1_VE250_randls_7_rotated.json,http://54.235.29.9/FacialAge/BNav_EC2/DepthDuration/v2_depth_duration_MTurk/v2_DepthDuration_HTML.html#154,154,1242,698,1366,768,8-20-2022,11-5-42,69,depth_duration_stimuli/003129_2014-05-12_10-48-10_094959634447_rgbf000100-resize_0/003129_2014-05-12_10-48-10_094959634447_rgbf000100-resize_0-target.png,250,4.9305,5.3,9478,261,feet,jsons/v1_VE250_randls_7_rotated.json,1326723,1844299,71,Woman
69,270354,DepthScenes,duration_manipulation_targetAtFixation,jsons/v1_VE250_randls_7_rotated.json,http://54.235.29.9/FacialAge/BNav_EC2/DepthDuration/v2_depth_duration_MTurk/v2_DepthDuration_HTML.html#154,154,1242,698,1366,768,8-20-2022,11-5-42,70,depth_duration_stimuli/000414_2014-06-04_19-49-13_260595134347_rgbf000044-resize_0/000414_2014-06-04_19-49-13_260595134347_rgbf000044-resize_0-target.png,250,4.329,6.0,8331,242,feet,jsons/v1_VE250_randls_7_rotated.json,1326723,1844299,71,Woman
70,270354,DepthScenes,duration_manipulation_targetAtFixation,jsons/v1_VE250_randls_7_rotated.json,http://54.235.29.9/FacialAge/BNav_EC2/DepthDuration/v2_depth_duration_MTurk/v2_DepthDuration_HTML.html#154,154,1242,698,1366,768,8-20-2022,11-5-42,71,depth_duration_stimuli/001132_2014-06-17_14-48-54_260595134347_rgbf000100-resize_2/001132_2014-06-17_14-48-54_260595134347_rgbf000100-resize_2-target.png,250,3.753,5.0,9458,256,feet,jsons/v1_VE250_randls_7_rotated.json,1326723,1844299,71,Woman
71,270354,DepthScenes,duration_manipulation_targetAtFixation,jsons/v1_VE250_randls_7_rotated.json,http://54.235.29.9/FacialAge/BNav_EC2/DepthDuration/v2_depth_duration_MTurk/v2_DepthDuration_HTML.html#154,154,1242,698,1366,768,8-20-2022,11-5-42,72,depth_duration_stimuli/001133_2014-06-17_14-49-16_260595134347_rgbf000100-resize_0/001133_2014-06-17_14-49-16_260595134347_rgbf000100-resize_0-target.png,250,4.2115,4.0,5519,249,feet,jsons/v1_VE250_randls_7_rotated.json,1326723,1844299,71,Woman
72,270354,DepthScenes,duration_manipulation_targetAtFixation,jsons/v1_VE250_randls_7_rotated.json,http://54.235.29.9/FacialAge/BNav_EC2/DepthDuration/v2_depth_duration_MTurk/v2_DepthDuration_HTML.html#154,154,1242,698,1366,768,8-20-2022,11-5-42,73,depth_duration_stimuli/001214_2014-06-17_16-13-55_260595134347_rgbf000111-resize_0/001214_2014-06-17_16-13-55_260595134347_rgbf000111-resize_0-target.png,250,2.6505,3.0,5325,259,feet,jsons/v1_VE250_randls_7_rotated.json,1326723,1844299,71,Woman
73,270354,DepthScenes,duration_manipulation_targetAtFixation,jsons/v1_VE250_randls_7_rotated.json,http://54.235.29.9/FacialAge/BNav_EC2/DepthDuration/v2_depth_duration_MTurk/v2_DepthDuration_HTML.html#154,154,1242,698,1366,768,8-20-2022,11-5-42,74,depth_duration_stimuli/000810_2014-06-08_17-20-01_260595134347_rgbf000105-resize_0/000810_2014-06-08_17-20-01_260595134347_rgbf000105-resize_0-target.png,250,1.4865,4.0,7857,249,feet,jsons/v1_VE250_randls_7_rotated.json,1326723,1844299,71,Woman
74,270354,DepthScenes,duration_manipulation_targetAtFixation,jsons/v1_VE250_randls_7_rotated.json,http://54.235.29.9/FacialAge/BNav_EC2/DepthDuration/v2_depth_duration_MTurk/v2_DepthDuration_HTML.html#154,154,1242,698,1366,768,8-20-2022,11-5-42,75,depth_duration_stimuli/002758_2014-06-22_19-11-20_094959634447_rgbf000128-resize_1/002758_2014-06-22_19-11-20_094959634447_rgbf000128-resize_1-target.png,250,2.555,4.5,9668,256,feet,jsons/v1_VE250_randls_7_rotated.json,1326723,1844299,71,Woman
75,270354,DepthScenes,duration_manipulation_targetAtFixation,jsons/v1_VE250_randls_7_rotated.json,http://54.235.29.9/FacialAge/BNav_EC2/DepthDuration/v2_depth_duration_MTurk/v2_DepthDuration_HTML.html#154,154,1242,698,1366,768,8-20-2022,11-5-42,76,depth_duration_stimuli/002630_2014-06-24_14-47-50_094959634447_rgbf000055-resize_1/002630_2014-06-24_14-47-50_094959634447_rgbf000055-resize_1-target.png,250,3.0095,5.0,7741,259,feet,jsons/v1_VE250_randls_7_rotated.json,1326723,1844299,71,Woman
76,270354,DepthScenes,duration_manipulation_targetAtFixation,jsons/v1_VE250_randls_7_rotated.json,http://54.235.29.9/FacialAge/BNav_EC2/DepthDuration/v2_depth_duration_MTurk/v2_DepthDuration_HTML.html#154,154,1242,698,1366,768,8-20-2022,11-5-42,77,depth_duration_stimuli/000457_2014-06-08_16-52-43_260595134347_rgbf000199-resize_1/000457_2014-06-08_16-52-43_260595134347_rgbf000199-resize_1-target.png,250,3.6489999999999996,4.8,7893,241,feet,jsons/v1_VE250_randls_7_rotated.json,1326723,1844299,71,Woman
77,270354,DepthScenes,duration_manipulation_targetAtFixation,jsons/v1_VE250_randls_7_rotated.json,http://54.235.29.9/FacialAge/BNav_EC2/DepthDuration/v2_depth_duration_MTurk/v2_DepthDuration_HTML.html#154,154,1242,698,1366,768,8-20-2022,11-5-42,78,depth_duration_stimuli/000929_2014-06-09_16-33-19_260595134347_rgbf000139-resize_0/000929_2014-06-09_16-33-19_260595134347_rgbf000139-resize_0-target.png,250,2.8680000000000003,3.0,4166,247,feet,jsons/v1_VE250_randls_7_rotated.json,1326723,1844299,71,Woman
78,270354,DepthScenes,duration_manipulation_targetAtFixation,jsons/v1_VE250_randls_7_rotated.json,http://54.235.29.9/FacialAge/BNav_EC2/DepthDuration/v2_depth_duration_MTurk/v2_DepthDuration_HTML.html#154,154,1242,698,1366,768,8-20-2022,11-5-42,79,depth_duration_stimuli/002568_2014-06-24_13-59-21_094959634447_rgbf000062-resize_4/002568_2014-06-24_13-59-21_094959634447_rgbf000062-resize_4-target.png,250,3.015,4.0,7358,240,feet,jsons/v1_VE250_randls_7_rotated.json,1326723,1844299,71,Woman
79,270354,DepthScenes,duration_manipulation_targetAtFixation,jsons/v1_VE250_randls_7_rotated.json,http://54.235.29.9/FacialAge/BNav_EC2/DepthDuration/v2_depth_duration_MTurk/v2_DepthDuration_HTML.html#154,154,1242,698,1366,768,8-20-2022,11-5-42,80,depth_duration_stimuli/003492_2014-05-21_15-50-55_094959634447_rgbf000828-resize_1/003492_2014-05-21_15-50-55_094959634447_rgbf000828-resize_1-target.png,250,4.06875,6.0,13321,238,feet,jsons/v1_VE250_randls_7_rotated.json,1326723,1844299,71,Woman
80,270354,DepthScenes,duration_manipulation_targetAtFixation,jsons/v1_VE250_randls_7_rotated.json,http://54.235.29.9/FacialAge/BNav_EC2/DepthDuration/v2_depth_duration_MTurk/v2_DepthDuration_HTML.html#154,154,1242,698,1366,768,8-20-2022,11-5-42,81,depth_duration_stimuli/002660_2014-06-13_15-44-18_094959634447_rgbf001878-resize_2/002660_2014-06-13_15-44-18_094959634447_rgbf001878-resize_2-target.png,250,3.576,3.3,9526,258,feet,jsons/v1_VE250_randls_7_rotated.json,1326723,1844299,71,Woman
81,270354,DepthScenes,duration_manipulation_targetAtFixation,jsons/v1_VE250_randls_7_rotated.json,http://54.235.29.9/FacialAge/BNav_EC2/DepthDuration/v2_depth_duration_MTurk/v2_DepthDuration_HTML.html#154,154,1242,698,1366,768,8-20-2022,11-5-42,82,depth_duration_stimuli/002153_2014-06-25_21-27-18_260595134347_rgbf000038-resize_5/002153_2014-06-25_21-27-18_260595134347_rgbf000038-resize_5-target.png,250,2.505,4.0,4918,240,feet,jsons/v1_VE250_randls_7_rotated.json,1326723,1844299,71,Woman
82,270354,DepthScenes,duration_manipulation_targetAtFixation,jsons/v1_VE250_randls_7_rotated.json,http://54.235.29.9/FacialAge/BNav_EC2/DepthDuration/v2_depth_duration_MTurk/v2_DepthDuration_HTML.html#154,154,1242,698,1366,768,8-20-2022,11-5-42,83,depth_duration_stimuli/002750_2014-06-22_19-08-03_094959634447_rgbf000094-resize_4/002750_2014-06-22_19-08-03_094959634447_rgbf000094-resize_4-target.png,250,2.354,5.0,4531,257,feet,jsons/v1_VE250_randls_7_rotated.json,1326723,1844299,71,Woman
83,270354,DepthScenes,duration_manipulation_targetAtFixation,jsons/v1_VE250_randls_7_rotated.json,http://54.235.29.9/FacialAge/BNav_EC2/DepthDuration/v2_depth_duration_MTurk/v2_DepthDuration_HTML.html#154,154,1242,698,1366,768,8-20-2022,11-5-42,84,depth_duration_stimuli/002549_2014-06-24_13-41-39_094959634447_rgbf000022-resize_3/002549_2014-06-24_13-41-39_094959634447_rgbf000022-resize_3-target.png,250,1.476,4.6,7828,258,feet,jsons/v1_VE250_randls_7_rotated.json,1326723,1844299,71,Woman
84,270354,DepthScenes,duration_manipulation_targetAtFixation,jsons/v1_VE250_randls_7_rotated.json,http://54.235.29.9/FacialAge/BNav_EC2/DepthDuration/v2_depth_duration_MTurk/v2_DepthDuration_HTML.html#154,154,1242,698,1366,768,8-20-2022,11-5-42,85,depth_duration_stimuli/002209_2014-06-28_18-36-10_260595134347_rgbf000051-resize_1/002209_2014-06-28_18-36-10_260595134347_rgbf000051-resize_1-target.png,250,2.057,3.5,8500,250,feet,jsons/v1_VE250_randls_7_rotated.json,1326723,1844299,71,Woman
85,270354,DepthScenes,duration_manipulation_targetAtFixation,jsons/v1_VE250_randls_7_rotated.json,http://54.235.29.9/FacialAge/BNav_EC2/DepthDuration/v2_depth_duration_MTurk/v2_DepthDuration_HTML.html#154,154,1242,698,1366,768,8-20-2022,11-5-42,86,depth_duration_stimuli/002763_2014-06-22_19-13-10_094959634447_rgbf000075-resize_4/002763_2014-06-22_19-13-10_094959634447_rgbf000075-resize_4-target.png,250,1.68375,4.0,13090,264,feet,jsons/v1_VE250_randls_7_rotated.json,1326723,1844299,71,Woman
86,270354,DepthScenes,duration_manipulation_targetAtFixation,jsons/v1_VE250_randls_7_rotated.json,http://54.235.29.9/FacialAge/BNav_EC2/DepthDuration/v2_depth_duration_MTurk/v2_DepthDuration_HTML.html#154,154,1242,698,1366,768,8-20-2022,11-5-42,87,depth_duration_stimuli/003083_2014-06-15_15-21-03_094959634447_rgbf000063-resize_1/003083_2014-06-15_15-21-03_094959634447_rgbf000063-resize_1-target.png,250,4.1405,6.0,6629,259,feet,jsons/v1_VE250_randls_7_rotated.json,1326723,1844299,71,Woman
87,270354,DepthScenes,duration_manipulation_targetAtFixation,jsons/v1_VE250_randls_7_rotated.json,http://54.235.29.9/FacialAge/BNav_EC2/DepthDuration/v2_depth_duration_MTurk/v2_DepthDuration_HTML.html#154,154,1242,698,1366,768,8-20-2022,11-5-42,88,depth_duration_stimuli/000486_2014-06-09_20-47-20_260595134347_rgbf000143-resize_2/000486_2014-06-09_20-47-20_260595134347_rgbf000143-resize_2-target.png,250,4.8325,5.0,5431,255,feet,jsons/v1_VE250_randls_7_rotated.json,1326723,1844299,71,Woman
88,270354,DepthScenes,duration_manipulation_targetAtFixation,jsons/v1_VE250_randls_7_rotated.json,http://54.235.29.9/FacialAge/BNav_EC2/DepthDuration/v2_depth_duration_MTurk/v2_DepthDuration_HTML.html#154,154,1242,698,1366,768,8-20-2022,11-5-42,89,depth_duration_stimuli/000137_2014-05-20_17-04-49_260595134347_rgbf000120-resize_1/000137_2014-05-20_17-04-49_260595134347_rgbf000120-resize_1-target.png,250,3.786,5.0,4607,240,feet,jsons/v1_VE250_randls_7_rotated.json,1326723,1844299,71,Woman
89,270354,DepthScenes,duration_manipulation_targetAtFixation,jsons/v1_VE250_randls_7_rotated.json,http://54.235.29.9/FacialAge/BNav_EC2/DepthDuration/v2_depth_duration_MTurk/v2_DepthDuration_HTML.html#154,154,1242,698,1366,768,8-20-2022,11-5-42,90,depth_duration_stimuli/000736_2014-06-08_18-24-15_260595134347_rgbf000206-resize_3/000736_2014-06-08_18-24-15_260595134347_rgbf000206-resize_3-target.png,250,3.515,6.0,10283,269,feet,jsons/v1_VE250_randls_7_rotated.json,1326723,1844299,71,Woman
90,270354,DepthScenes,duration_manipulation_targetAtFixation,jsons/v1_VE250_randls_7_rotated.json,http://54.235.29.9/FacialAge/BNav_EC2/DepthDuration/v2_depth_duration_MTurk/v2_DepthDuration_HTML.html#154,154,1242,698,1366,768,8-20-2022,11-5-42,91,depth_duration_stimuli/000635_2014-06-08_16-38-42_260595134347_rgbf000106-resize_1/000635_2014-06-08_16-38-42_260595134347_rgbf000106-resize_1-target.png,250,2.074,6.0,6789,236,feet,jsons/v1_VE250_randls_7_rotated.json,1326723,1844299,71,Woman
91,270354,DepthScenes,duration_manipulation_targetAtFixation,jsons/v1_VE250_randls_7_rotated.json,http://54.235.29.9/FacialAge/BNav_EC2/DepthDuration/v2_depth_duration_MTurk/v2_DepthDuration_HTML.html#154,154,1242,698,1366,768,8-20-2022,11-5-42,92,depth_duration_stimuli/002279_2014-06-28_18-55-32_260595134347_rgbf000040-resize_5/002279_2014-06-28_18-55-32_260595134347_rgbf000040-resize_5-target.png,250,1.5043333333333,3.0,4454,249,feet,jsons/v1_VE250_randls_7_rotated.json,1326723,1844299,71,Woman
92,270354,DepthScenes,duration_manipulation_targetAtFixation,jsons/v1_VE250_randls_7_rotated.json,http://54.235.29.9/FacialAge/BNav_EC2/DepthDuration/v2_depth_duration_MTurk/v2_DepthDuration_HTML.html#154,154,1242,698,1366,768,8-20-2022,11-5-42,93,depth_duration_stimuli/000866_2014-06-09_20-45-42_260595134347_rgbf000139-resize_1/000866_2014-06-09_20-45-42_260595134347_rgbf000139-resize_1-target.png,250,3.2155,4.0,6698,245,feet,jsons/v1_VE250_randls_7_rotated.json,1326723,1844299,71,Woman
93,270354,DepthScenes,duration_manipulation_targetAtFixation,jsons/v1_VE250_randls_7_rotated.json,http://54.235.29.9/FacialAge/BNav_EC2/DepthDuration/v2_depth_duration_MTurk/v2_DepthDuration_HTML.html#154,154,1242,698,1366,768,8-20-2022,11-5-42,94,depth_duration_stimuli/002989_2014-06-15_12-25-03_094959634447_rgbf000150-resize_3/002989_2014-06-15_12-25-03_094959634447_rgbf000150-resize_3-target.png,250,4.1975,5.5,5293,253,feet,jsons/v1_VE250_randls_7_rotated.json,1326723,1844299,71,Woman
94,270354,DepthScenes,duration_manipulation_targetAtFixation,jsons/v1_VE250_randls_7_rotated.json,http://54.235.29.9/FacialAge/BNav_EC2/DepthDuration/v2_depth_duration_MTurk/v2_DepthDuration_HTML.html#154,154,1242,698,1366,768,8-20-2022,11-5-42,95,depth_duration_stimuli/002805_2014-06-22_19-54-03_094959634447_rgbf000079-resize_1/002805_2014-06-22_19-54-03_094959634447_rgbf000079-resize_1-target.png,250,3.1439999999999997,6.0,9286,224,feet,jsons/v1_VE250_randls_7_rotated.json,1326723,1844299,71,Woman
95,270354,DepthScenes,duration_manipulation_targetAtFixation,jsons/v1_VE250_randls_7_rotated.json,http://54.235.29.9/FacialAge/BNav_EC2/DepthDuration/v2_depth_duration_MTurk/v2_DepthDuration_HTML.html#154,154,1242,698,1366,768,8-20-2022,11-5-42,96,depth_duration_stimuli/000906_2014-06-08_13-35-43_260595134347_rgbf000155-resize_1/000906_2014-06-08_13-35-43_260595134347_rgbf000155-resize_1-target.png,250,2.8489999999999998,5.6,7190,245,feet,jsons/v1_VE250_randls_7_rotated.json,1326723,1844299,71,Woman
96,270354,DepthScenes,duration_manipulation_targetAtFixation,jsons/v1_VE250_randls_7_rotated.json,http://54.235.29.9/FacialAge/BNav_EC2/DepthDuration/v2_depth_duration_MTurk/v2_DepthDuration_HTML.html#154,154,1242,698,1366,768,8-20-2022,11-5-42,97,depth_duration_stimuli/001052_2014-06-08_18-24-54_260595134347_rgbf000130-resize_1/001052_2014-06-08_18-24-54_260595134347_rgbf000130-resize_1-target.png,250,4.1045,5.0,8294,233,feet,jsons/v1_VE250_randls_7_rotated.json,1326723,1844299,71,Woman
97,270354,DepthScenes,duration_manipulation_targetAtFixation,jsons/v1_VE250_randls_7_rotated.json,http://54.235.29.9/FacialAge/BNav_EC2/DepthDuration/v2_depth_duration_MTurk/v2_DepthDuration_HTML.html#154,154,1242,698,1366,768,8-20-2022,11-5-42,98,depth_duration_stimuli/002988_2014-06-15_12-24-20_094959634447_rgbf000150-resize_1/002988_2014-06-15_12-24-20_094959634447_rgbf000150-resize_1-target.png,250,4.7669999999999995,4.0,6669,205,feet,jsons/v1_VE250_randls_7_rotated.json,1326723,1844299,71,Woman
98,270354,DepthScenes,duration_manipulation_targetAtFixation,jsons/v1_VE250_randls_7_rotated.json,http://54.235.29.9/FacialAge/BNav_EC2/DepthDuration/v2_depth_duration_MTurk/v2_DepthDuration_HTML.html#154,154,1242,698,1366,768,8-20-2022,11-5-42,99,depth_duration_stimuli/001222_2014-06-17_16-24-06_260595134347_rgbf000073-resize_0/001222_2014-06-17_16-24-06_260595134347_rgbf000073-resize-original.jpg,250,1.4385,0.0,4458,258,feet,jsons/v1_VE250_randls_7_rotated.json,1326723,1844299,71,Woman
99,270354,DepthScenes,duration_manipulation_targetAtFixation,jsons/v1_VE250_randls_7_rotated.json,http://54.235.29.9/FacialAge/BNav_EC2/DepthDuration/v2_depth_duration_MTurk/v2_DepthDuration_HTML.html#154,154,1242,698,1366,768,8-20-2022,11-5-42,100,depth_duration_stimuli/003228_2014-05-14_13-42-35_094959634447_rgbf000101-resize_1/003228_2014-05-14_13-42-35_094959634447_rgbf000101-resize_1-target.png,250,1.9680000000000002,3.5,13995,242,feet,jsons/v1_VE250_randls_7_rotated.json,1326723,1844299,71,Woman
100,270354,DepthScenes,duration_manipulation_targetAtFixation,jsons/v1_VE250_randls_7_rotated.json,http://54.235.29.9/FacialAge/BNav_EC2/DepthDuration/v2_depth_duration_MTurk/v2_DepthDuration_HTML.html#154,154,1242,698,1366,768,8-20-2022,11-5-42,101,depth_duration_stimuli/002600_2014-06-24_14-27-04_094959634447_rgbf000074-resize_2/002600_2014-06-24_14-27-04_094959634447_rgbf000074-resize_2-target.png,250,2.7575,4.8,6835,247,feet,jsons/v1_VE250_randls_7_rotated.json,1326723,1844299,71,Woman
101,270354,DepthScenes,duration_manipulation_targetAtFixation,jsons/v1_VE250_randls_7_rotated.json,http://54.235.29.9/FacialAge/BNav_EC2/DepthDuration/v2_depth_duration_MTurk/v2_DepthDuration_HTML.html#154,154,1242,698,1366,768,8-20-2022,11-5-42,102,depth_duration_stimuli/002953_2014-06-08_17-32-18_094959634447_rgbf000059-resize_5/002953_2014-06-08_17-32-18_094959634447_rgbf000059-resize_5-target.png,250,1.551,0.0,4744,241,feet,jsons/v1_VE250_randls_7_rotated.json,1326723,1844299,71,Woman
102,270354,DepthScenes,duration_manipulation_targetAtFixation,jsons/v1_VE250_randls_7_rotated.json,http://54.235.29.9/FacialAge/BNav_EC2/DepthDuration/v2_depth_duration_MTurk/v2_DepthDuration_HTML.html#154,154,1242,698,1366,768,8-20-2022,11-5-42,103,depth_duration_stimuli/000878_2014-06-08_22-52-45_260595134347_rgbf000045-resize_2/000878_2014-06-08_22-52-45_260595134347_rgbf000045-resize_2-target.png,250,2.092,4.0,4460,257,feet,jsons/v1_VE250_randls_7_rotated.json,1326723,1844299,71,Woman
103,270354,DepthScenes,duration_manipulation_targetAtFixation,jsons/v1_VE250_randls_7_rotated.json,http://54.235.29.9/FacialAge/BNav_EC2/DepthDuration/v2_depth_duration_MTurk/v2_DepthDuration_HTML.html#154,154,1242,698,1366,768,8-20-2022,11-5-42,104,depth_duration_stimuli/000109_2014-05-14_23-41-52_260595134347_rgbf000035-resize_9/000109_2014-05-14_23-41-52_260595134347_rgbf000035-resize_9-target.png,250,1.3545,3.5,5626,255,feet,jsons/v1_VE250_randls_7_rotated.json,1326723,1844299,71,Woman
104,270354,DepthScenes,duration_manipulation_targetAtFixation,jsons/v1_VE250_randls_7_rotated.json,http://54.235.29.9/FacialAge/BNav_EC2/DepthDuration/v2_depth_duration_MTurk/v2_DepthDuration_HTML.html#154,154,1242,698,1366,768,8-20-2022,11-5-42,105,depth_duration_stimuli/000470_2014-06-09_19-42-40_260595134347_rgbf000094-resize_1/000470_2014-06-09_19-42-40_260595134347_rgbf000094-resize_1-target.png,250,1.831,3.0,5713,247,feet,jsons/v1_VE250_randls_7_rotated.json,1326723,1844299,71,Woman
105,270354,DepthScenes,duration_manipulation_targetAtFixation,jsons/v1_VE250_randls_7_rotated.json,http://54.235.29.9/FacialAge/BNav_EC2/DepthDuration/v2_depth_duration_MTurk/v2_DepthDuration_HTML.html#154,154,1242,698,1366,768,8-20-2022,11-5-42,106,depth_duration_stimuli/000556_2014-06-09_22-42-56_260595134347_rgbf000214-resize_1/000556_2014-06-09_22-42-56_260595134347_rgbf000214-resize_1-target.png,250,4.8415,5.0,5018,260,feet,jsons/v1_VE250_randls_7_rotated.json,1326723,1844299,71,Woman
106,270354,DepthScenes,duration_manipulation_targetAtFixation,jsons/v1_VE250_randls_7_rotated.json,http://54.235.29.9/FacialAge/BNav_EC2/DepthDuration/v2_depth_duration_MTurk/v2_DepthDuration_HTML.html#154,154,1242,698,1366,768,8-20-2022,11-5-42,107,depth_duration_stimuli/001158_2014-06-17_15-32-16_260595134347_rgbf000138-resize_2/001158_2014-06-17_15-32-16_260595134347_rgbf000138-resize_2-target.png,250,4.5315,6.0,4694,250,feet,jsons/v1_VE250_randls_7_rotated.json,1326723,1844299,71,Woman
107,270354,DepthScenes,duration_manipulation_targetAtFixation,jsons/v1_VE250_randls_7_rotated.json,http://54.235.29.9/FacialAge/BNav_EC2/DepthDuration/v2_depth_duration_MTurk/v2_DepthDuration_HTML.html#154,154,1242,698,1366,768,8-20-2022,11-5-42,108,depth_duration_stimuli/003490_2014-05-21_15-50-11_094959634447_rgbf000101-resize_3/003490_2014-05-21_15-50-11_094959634447_rgbf000101-resize_3-target.png,250,3.6445,6.5,10285,250,feet,jsons/v1_VE250_randls_7_rotated.json,1326723,1844299,71,Woman
108,270354,DepthScenes,duration_manipulation_targetAtFixation,jsons/v1_VE250_randls_7_rotated.json,http://54.235.29.9/FacialAge/BNav_EC2/DepthDuration/v2_depth_duration_MTurk/v2_DepthDuration_HTML.html#154,154,1242,698,1366,768,8-20-2022,11-5-42,109,depth_duration_stimuli/001175_2014-06-17_15-45-55_260595134347_rgbf000129-resize_4/001175_2014-06-17_15-45-55_260595134347_rgbf000129-resize_4-target.png,250,4.255,6.2,12106,262,feet,jsons/v1_VE250_randls_7_rotated.json,1326723,1844299,71,Woman
109,270354,DepthScenes,duration_manipulation_targetAtFixation,jsons/v1_VE250_randls_7_rotated.json,http://54.235.29.9/FacialAge/BNav_EC2/DepthDuration/v2_depth_duration_MTurk/v2_DepthDuration_HTML.html#154,154,1242,698,1366,768,8-20-2022,11-5-42,110,depth_duration_stimuli/002545_2014-06-24_13-38-53_094959634447_rgbf000080-resize_4/002545_2014-06-24_13-38-53_094959634447_rgbf000080-resize_4-target.png,250,1.9205,4.3,6652,259,feet,jsons/v1_VE250_randls_7_rotated.json,1326723,1844299,71,Woman
110,270354,DepthScenes,duration_manipulation_targetAtFixation,jsons/v1_VE250_randls_7_rotated.json,http://54.235.29.9/FacialAge/BNav_EC2/DepthDuration/v2_depth_duration_MTurk/v2_DepthDuration_HTML.html#154,154,1242,698,1366,768,8-20-2022,11-5-42,111,depth_duration_stimuli/001092_2014-06-15_17-34-58_260595134347_rgbf000171-resize_3/001092_2014-06-15_17-34-58_260595134347_rgbf000171-resize_3-target.png,250,2.6935,3.2,9490,246,feet,jsons/v1_VE250_randls_7_rotated.json,1326723,1844299,71,Woman
111,270354,DepthScenes,duration_manipulation_targetAtFixation,jsons/v1_VE250_randls_7_rotated.json,http://54.235.29.9/FacialAge/BNav_EC2/DepthDuration/v2_depth_duration_MTurk/v2_DepthDuration_HTML.html#154,154,1242,698,1366,768,8-20-2022,11-5-42,112,depth_duration_stimuli/000691_2014-06-08_13-08-50_260595134347_rgbf000132-resize_3/000691_2014-06-08_13-08-50_260595134347_rgbf000132-resize_3-target.png,250,4.1530000000000005,5.0,8853,248,feet,jsons/v1_VE250_randls_7_rotated.json,1326723,1844299,71,Woman
112,270354,DepthScenes,duration_manipulation_targetAtFixation,jsons/v1_VE250_randls_7_rotated.json,http://54.235.29.9/FacialAge/BNav_EC2/DepthDuration/v2_depth_duration_MTurk/v2_DepthDuration_HTML.html#154,154,1242,698,1366,768,8-20-2022,11-5-42,113,depth_duration_stimuli/002213_2014-06-28_18-37-58_260595134347_rgbf000055-resize_1/002213_2014-06-28_18-37-58_260595134347_rgbf000055-resize_1-target.png,250,3.62,5.5,8968,240,feet,jsons/v1_VE250_randls_7_rotated.json,1326723,1844299,71,Woman
113,270354,DepthScenes,duration_manipulation_targetAtFixation,jsons/v1_VE250_randls_7_rotated.json,http://54.235.29.9/FacialAge/BNav_EC2/DepthDuration/v2_depth_duration_MTurk/v2_DepthDuration_HTML.html#154,154,1242,698,1366,768,8-20-2022,11-5-42,114,depth_duration_stimuli/001447_2014-06-19_17-00-32_260595134347_rgbf000082-resize_5/001447_2014-06-19_17-00-32_260595134347_rgbf000082-resize_5-target.png,250,4.13775,4.5,11004,261,feet,jsons/v1_VE250_randls_7_rotated.json,1326723,1844299,71,Woman
114,270354,DepthScenes,duration_manipulation_targetAtFixation,jsons/v1_VE250_randls_7_rotated.json,http://54.235.29.9/FacialAge/BNav_EC2/DepthDuration/v2_depth_duration_MTurk/v2_DepthDuration_HTML.html#154,154,1242,698,1366,768,8-20-2022,11-5-42,115,depth_duration_stimuli/000447_2014-06-08_16-15-46_260595134347_rgbf000130-resize_1/000447_2014-06-08_16-15-46_260595134347_rgbf000130-resize_1-target.png,250,4.479,4.5,11202,260,feet,jsons/v1_VE250_randls_7_rotated.json,1326723,1844299,71,Woman
115,270354,DepthScenes,duration_manipulation_targetAtFixation,jsons/v1_VE250_randls_7_rotated.json,http://54.235.29.9/FacialAge/BNav_EC2/DepthDuration/v2_depth_duration_MTurk/v2_DepthDuration_HTML.html#154,154,1242,698,1366,768,8-20-2022,11-5-42,116,depth_duration_stimuli/000677_2014-06-08_23-10-32_260595134347_rgbf000158-resize_6/000677_2014-06-08_23-10-32_260595134347_rgbf000158-resize_6-target.png,250,3.556,3.8,7590,249,feet,jsons/v1_VE250_randls_7_rotated.json,1326723,1844299,71,Woman
116,270354,DepthScenes,duration_manipulation_targetAtFixation,jsons/v1_VE250_randls_7_rotated.json,http://54.235.29.9/FacialAge/BNav_EC2/DepthDuration/v2_depth_duration_MTurk/v2_DepthDuration_HTML.html#154,154,1242,698,1366,768,8-20-2022,11-5-42,117,depth_duration_stimuli/001029_2014-06-08_13-17-57_260595134347_rgbf000065-resize_1/001029_2014-06-08_13-17-57_260595134347_rgbf000065-resize_1-target.png,250,3.0835,5.0,6016,249,feet,jsons/v1_VE250_randls_7_rotated.json,1326723,1844299,71,Woman
117,270354,DepthScenes,duration_manipulation_targetAtFixation,jsons/v1_VE250_randls_7_rotated.json,http://54.235.29.9/FacialAge/BNav_EC2/DepthDuration/v2_depth_duration_MTurk/v2_DepthDuration_HTML.html#154,154,1242,698,1366,768,8-20-2022,11-5-42,118,depth_duration_stimuli/002444_2014-06-28_20-32-08_260595134347_rgbf000027-resize_0/002444_2014-06-28_20-32-08_260595134347_rgbf000027-resize_0-target.png,250,4.388999999999999,5.6,8200,245,feet,jsons/v1_VE250_randls_7_rotated.json,1326723,1844299,71,Woman
118,270354,DepthScenes,duration_manipulation_targetAtFixation,jsons/v1_VE250_randls_7_rotated.json,http://54.235.29.9/FacialAge/BNav_EC2/DepthDuration/v2_depth_duration_MTurk/v2_DepthDuration_HTML.html#154,154,1242,698,1366,768,8-20-2022,11-5-42,119,depth_duration_stimuli/000436_2014-06-09_22-25-11_260595134347_rgbf000137-resize_1/000436_2014-06-09_22-25-11_260595134347_rgbf000137-resize_1-target.png,250,4.0705,4.7,11021,253,feet,jsons/v1_VE250_randls_7_rotated.json,1326723,1844299,71,Woman
119,270354,DepthScenes,duration_manipulation_targetAtFixation,jsons/v1_VE250_randls_7_rotated.json,http://54.235.29.9/FacialAge/BNav_EC2/DepthDuration/v2_depth_duration_MTurk/v2_DepthDuration_HTML.html#154,154,1242,698,1366,768,8-20-2022,11-5-42,120,depth_duration_stimuli/000787_2014-06-08_22-33-53_260595134347_rgbf000175-resize_1/000787_2014-06-08_22-33-53_260595134347_rgbf000175-resize-original.jpg,250,4.784,0.0,4248,254,feet,jsons/v1_VE250_randls_7_rotated.json,1326723,1844299,71,Woman
120,270354,DepthScenes,duration_manipulation_targetAtFixation,jsons/v1_VE250_randls_7_rotated.json,http://54.235.29.9/FacialAge/BNav_EC2/DepthDuration/v2_depth_duration_MTurk/v2_DepthDuration_HTML.html#154,154,1242,698,1366,768,8-20-2022,11-5-42,121,depth_duration_stimuli/003495_2014-05-21_16-01-51_094959634447_rgbf000100-resize_3/003495_2014-05-21_16-01-51_094959634447_rgbf000100-resize_3-target.png,250,1.6255,3.0,4457,252,feet,jsons/v1_VE250_randls_7_rotated.json,1326723,1844299,71,Woman
121,270354,DepthScenes,duration_manipulation_targetAtFixation,jsons/v1_VE250_randls_7_rotated.json,http://54.235.29.9/FacialAge/BNav_EC2/DepthDuration/v2_depth_duration_MTurk/v2_DepthDuration_HTML.html#154,154,1242,698,1366,768,8-20-2022,11-5-42,122,depth_duration_stimuli/001244_2014-06-17_16-47-45_260595134347_rgbf000030-resize_4/001244_2014-06-17_16-47-45_260595134347_rgbf000030-resize_4-target.png,250,2.0425,2.8,9146,248,feet,jsons/v1_VE250_randls_7_rotated.json,1326723,1844299,71,Woman
122,270354,DepthScenes,duration_manipulation_targetAtFixation,jsons/v1_VE250_randls_7_rotated.json,http://54.235.29.9/FacialAge/BNav_EC2/DepthDuration/v2_depth_duration_MTurk/v2_DepthDuration_HTML.html#154,154,1242,698,1366,768,8-20-2022,11-5-42,123,depth_duration_stimuli/000854_2014-06-09_19-43-13_260595134347_rgbf000066-resize_0/000854_2014-06-09_19-43-13_260595134347_rgbf000066-resize_0-target.png,250,3.068,3.5,7762,246,feet,jsons/v1_VE250_randls_7_rotated.json,1326723,1844299,71,Woman
123,270354,DepthScenes,duration_manipulation_targetAtFixation,jsons/v1_VE250_randls_7_rotated.json,http://54.235.29.9/FacialAge/BNav_EC2/DepthDuration/v2_depth_duration_MTurk/v2_DepthDuration_HTML.html#154,154,1242,698,1366,768,8-20-2022,11-5-42,124,depth_duration_stimuli/000758_2014-06-08_22-05-08_260595134347_rgbf000085-resize_0/000758_2014-06-08_22-05-08_260595134347_rgbf000085-resize_0-target.png,250,3.3810000000000002,5.0,8418,250,feet,jsons/v1_VE250_randls_7_rotated.json,1326723,1844299,71,Woman
124,270354,DepthScenes,duration_manipulation_targetAtFixation,jsons/v1_VE250_randls_7_rotated.json,http://54.235.29.9/FacialAge/BNav_EC2/DepthDuration/v2_depth_duration_MTurk/v2_DepthDuration_HTML.html#154,154,1242,698,1366,768,8-20-2022,11-5-42,125,depth_duration_stimuli/002995_2014-06-15_12-31-26_094959634447_rgbf000150-resize_1/002995_2014-06-15_12-31-26_094959634447_rgbf000150-resize_1-target.png,250,3.8360000000000003,5.6,10501,263,feet,jsons/v1_VE250_randls_7_rotated.json,1326723,1844299,71,Woman
125,270354,DepthScenes,duration_manipulation_targetAtFixation,jsons/v1_VE250_randls_7_rotated.json,http://54.235.29.9/FacialAge/BNav_EC2/DepthDuration/v2_depth_duration_MTurk/v2_DepthDuration_HTML.html#154,154,1242,698,1366,768,8-20-2022,11-5-42,126,depth_duration_stimuli/002748_2014-06-22_19-07-22_094959634447_rgbf000078-resize_1/002748_2014-06-22_19-07-22_094959634447_rgbf000078-resize_1-target.png,250,4.6705,10.0,8884,261,feet,jsons/v1_VE250_randls_7_rotated.json,1326723,1844299,71,Woman
126,270354,DepthScenes,duration_manipulation_targetAtFixation,jsons/v1_VE250_randls_7_rotated.json,http://54.235.29.9/FacialAge/BNav_EC2/DepthDuration/v2_depth_duration_MTurk/v2_DepthDuration_HTML.html#154,154,1242,698,1366,768,8-20-2022,11-5-42,127,depth_duration_stimuli/002949_2014-06-26_15-57-42_094959634447_rgbf000079-resize_1/002949_2014-06-26_15-57-42_094959634447_rgbf000079-resize_1-target.png,250,1.8915,3.5,8205,272,feet,jsons/v1_VE250_randls_7_rotated.json,1326723,1844299,71,Woman
127,270354,DepthScenes,duration_manipulation_targetAtFixation,jsons/v1_VE250_randls_7_rotated.json,http://54.235.29.9/FacialAge/BNav_EC2/DepthDuration/v2_depth_duration_MTurk/v2_DepthDuration_HTML.html#154,154,1242,698,1366,768,8-20-2022,11-5-42,128,depth_duration_stimuli/000522_2014-06-08_13-35-06_260595134347_rgbf000244-resize_1/000522_2014-06-08_13-35-06_260595134347_rgbf000244-resize_1-target.png,250,2.3715,2.0,4666,241,feet,jsons/v1_VE250_randls_7_rotated.json,1326723,1844299,71,Woman
128,270354,DepthScenes,duration_manipulation_targetAtFixation,jsons/v1_VE250_randls_7_rotated.json,http://54.235.29.9/FacialAge/BNav_EC2/DepthDuration/v2_depth_duration_MTurk/v2_DepthDuration_HTML.html#154,154,1242,698,1366,768,8-20-2022,11-5-42,129,depth_duration_stimuli/002467_2014-06-28_20-38-07_260595134347_rgbf000026-resize_2/002467_2014-06-28_20-38-07_260595134347_rgbf000026-resize_2-target.png,250,4.742,4.4,8224,245,feet,jsons/v1_VE250_randls_7_rotated.json,1326723,1844299,71,Woman
129,270354,DepthScenes,duration_manipulation_targetAtFixation,jsons/v1_VE250_randls_7_rotated.json,http://54.235.29.9/FacialAge/BNav_EC2/DepthDuration/v2_depth_duration_MTurk/v2_DepthDuration_HTML.html#154,154,1242,698,1366,768,8-20-2022,11-5-42,130,depth_duration_stimuli/002570_2014-06-24_13-59-54_094959634447_rgbf000059-resize_0/002570_2014-06-24_13-59-54_094959634447_rgbf000059-resize_0-target.png,250,4.037,3.8,7683,259,feet,jsons/v1_VE250_randls_7_rotated.json,1326723,1844299,71,Woman
130,270354,DepthScenes,duration_manipulation_targetAtFixation,jsons/v1_VE250_randls_7_rotated.json,http://54.235.29.9/FacialAge/BNav_EC2/DepthDuration/v2_depth_duration_MTurk/v2_DepthDuration_HTML.html#154,154,1242,698,1366,768,8-20-2022,11-5-42,131,depth_duration_stimuli/001094_2014-06-15_17-36-00_260595134347_rgbf000205-resize_0/001094_2014-06-15_17-36-00_260595134347_rgbf000205-resize_0-target.png,250,4.2175,5.6,10518,265,feet,jsons/v1_VE250_randls_7_rotated.json,1326723,1844299,71,Woman
131,270354,DepthScenes,duration_manipulation_targetAtFixation,jsons/v1_VE250_randls_7_rotated.json,http://54.235.29.9/FacialAge/BNav_EC2/DepthDuration/v2_depth_duration_MTurk/v2_DepthDuration_HTML.html#154,154,1242,698,1366,768,8-20-2022,11-5-42,132,depth_duration_stimuli/000692_2014-06-08_13-09-42_260595134347_rgbf000199-resize_2/000692_2014-06-08_13-09-42_260595134347_rgbf000199-resize_2-target.png,250,3.661,6.0,5855,239,feet,jsons/v1_VE250_randls_7_rotated.json,1326723,1844299,71,Woman
132,270354,DepthScenes,duration_manipulation_targetAtFixation,jsons/v1_VE250_randls_7_rotated.json,http://54.235.29.9/FacialAge/BNav_EC2/DepthDuration/v2_depth_duration_MTurk/v2_DepthDuration_HTML.html#154,154,1242,698,1366,768,8-20-2022,11-5-42,133,depth_duration_stimuli/001100_2014-06-15_17-46-26_260595134347_rgbf000225-resize_2/001100_2014-06-15_17-46-26_260595134347_rgbf000225-resize_2-target.png,250,2.24,2.5,7901,257,feet,jsons/v1_VE250_randls_7_rotated.json,1326723,1844299,71,Woman
133,270354,DepthScenes,duration_manipulation_targetAtFixation,jsons/v1_VE250_randls_7_rotated.json,http://54.235.29.9/FacialAge/BNav_EC2/DepthDuration/v2_depth_duration_MTurk/v2_DepthDuration_HTML.html#154,154,1242,698,1366,768,8-20-2022,11-5-42,134,depth_duration_stimuli/002784_2014-06-22_19-26-30_094959634447_rgbf000083-resize_3/002784_2014-06-22_19-26-30_094959634447_rgbf000083-resize_3-target.png,250,1.8046666666667,3.0,5926,251,feet,jsons/v1_VE250_randls_7_rotated.json,1326723,1844299,71,Woman
134,270354,DepthScenes,duration_manipulation_targetAtFixation,jsons/v1_VE250_randls_7_rotated.json,http://54.235.29.9/FacialAge/BNav_EC2/DepthDuration/v2_depth_duration_MTurk/v2_DepthDuration_HTML.html#154,154,1242,698,1366,768,8-20-2022,11-5-42,135,depth_duration_stimuli/000375_2014-06-08_11-17-29_260595134347_rgbf000133-resize_2/000375_2014-06-08_11-17-29_260595134347_rgbf000133-resize-original.jpg,250,4.718,0.0,5011,263,feet,jsons/v1_VE250_randls_7_rotated.json,1326723,1844299,71,Woman
135,270354,DepthScenes,duration_manipulation_targetAtFixation,jsons/v1_VE250_randls_7_rotated.json,http://54.235.29.9/FacialAge/BNav_EC2/DepthDuration/v2_depth_duration_MTurk/v2_DepthDuration_HTML.html#154,154,1242,698,1366,768,8-20-2022,11-5-42,136,depth_duration_stimuli/001571_2014-06-20_17-21-32_260595134347_rgbf000089-resize_1/001571_2014-06-20_17-21-32_260595134347_rgbf000089-resize_1-target.png,250,1.86,3.5,5024,255,feet,jsons/v1_VE250_randls_7_rotated.json,1326723,1844299,71,Woman
136,270354,DepthScenes,duration_manipulation_targetAtFixation,jsons/v1_VE250_randls_7_rotated.json,http://54.235.29.9/FacialAge/BNav_EC2/DepthDuration/v2_depth_duration_MTurk/v2_DepthDuration_HTML.html#154,154,1242,698,1366,768,8-20-2022,11-5-42,137,depth_duration_stimuli/002272_2014-06-28_18-53-56_260595134347_rgbf000067-resize_2/002272_2014-06-28_18-53-56_260595134347_rgbf000067-resize_2-target.png,250,1.138,0.0,4761,238,feet,jsons/v1_VE250_randls_7_rotated.json,1326723,1844299,71,Woman
137,270354,DepthScenes,duration_manipulation_targetAtFixation,jsons/v1_VE250_randls_7_rotated.json,http://54.235.29.9/FacialAge/BNav_EC2/DepthDuration/v2_depth_duration_MTurk/v2_DepthDuration_HTML.html#154,154,1242,698,1366,768,8-20-2022,11-5-42,138,depth_duration_stimuli/002678_2014-06-13_16-15-32_094959634447_rgbf000151-resize_6/002678_2014-06-13_16-15-32_094959634447_rgbf000151-resize_6-target.png,250,2.1830000000000003,4.8,8224,258,feet,jsons/v1_VE250_randls_7_rotated.json,1326723,1844299,71,Woman
138,270354,DepthScenes,duration_manipulation_targetAtFixation,jsons/v1_VE250_randls_7_rotated.json,http://54.235.29.9/FacialAge/BNav_EC2/DepthDuration/v2_depth_duration_MTurk/v2_DepthDuration_HTML.html#154,154,1242,698,1366,768,8-20-2022,11-5-42,139,depth_duration_stimuli/000368_2014-06-09_15-53-01_260595134347_rgbf000155-resize_2/000368_2014-06-09_15-53-01_260595134347_rgbf000155-resize_2-target.png,250,2.4859999999999998,3.5,6559,263,feet,jsons/v1_VE250_randls_7_rotated.json,1326723,1844299,71,Woman
139,270354,DepthScenes,duration_manipulation_targetAtFixation,jsons/v1_VE250_randls_7_rotated.json,http://54.235.29.9/FacialAge/BNav_EC2/DepthDuration/v2_depth_duration_MTurk/v2_DepthDuration_HTML.html#154,154,1242,698,1366,768,8-20-2022,11-5-42,140,depth_duration_stimuli/002199_2014-06-28_18-33-56_260595134347_rgbf000074-resize_0/002199_2014-06-28_18-33-56_260595134347_rgbf000074-resize_0-target.png,250,1.996,3.8,7920,249,feet,jsons/v1_VE250_randls_7_rotated.json,1326723,1844299,71,Woman
140,270354,DepthScenes,duration_manipulation_targetAtFixation,jsons/v1_VE250_randls_7_rotated.json,http://54.235.29.9/FacialAge/BNav_EC2/DepthDuration/v2_depth_duration_MTurk/v2_DepthDuration_HTML.html#154,154,1242,698,1366,768,8-20-2022,11-5-42,141,depth_duration_stimuli/001056_2014-06-08_18-46-44_260595134347_rgbf000068-resize_0/001056_2014-06-08_18-46-44_260595134347_rgbf000068-resize_0-target.png,250,2.6625,5.0,8167,260,feet,jsons/v1_VE250_randls_7_rotated.json,1326723,1844299,71,Woman
141,270354,DepthScenes,duration_manipulation_targetAtFixation,jsons/v1_VE250_randls_7_rotated.json,http://54.235.29.9/FacialAge/BNav_EC2/DepthDuration/v2_depth_duration_MTurk/v2_DepthDuration_HTML.html#154,154,1242,698,1366,768,8-20-2022,11-5-42,142,depth_duration_stimuli/002425_2014-06-28_20-27-29_260595134347_rgbf000031-resize_8/002425_2014-06-28_20-27-29_260595134347_rgbf000031-resize_8-target.png,250,3.8960000000000004,5.8,6889,252,feet,jsons/v1_VE250_randls_7_rotated.json,1326723,1844299,71,Woman
142,270354,DepthScenes,duration_manipulation_targetAtFixation,jsons/v1_VE250_randls_7_rotated.json,http://54.235.29.9/FacialAge/BNav_EC2/DepthDuration/v2_depth_duration_MTurk/v2_DepthDuration_HTML.html#154,154,1242,698,1366,768,8-20-2022,11-5-42,143,depth_duration_stimuli/000642_2014-06-08_16-59-25_260595134347_rgbf000098-resize_2/000642_2014-06-08_16-59-25_260595134347_rgbf000098-resize_2-target.png,250,2.8815,4.4,6924,257,feet,jsons/v1_VE250_randls_7_rotated.json,1326723,1844299,71,Woman
143,270354,DepthScenes,duration_manipulation_targetAtFixation,jsons/v1_VE250_randls_7_rotated.json,http://54.235.29.9/FacialAge/BNav_EC2/DepthDuration/v2_depth_duration_MTurk/v2_DepthDuration_HTML.html#154,154,1242,698,1366,768,8-20-2022,11-5-42,144,depth_duration_stimuli/000734_2014-06-08_17-39-11_260595134347_rgbf000128-resize_2/000734_2014-06-08_17-39-11_260595134347_rgbf000128-resize_2-target.png,250,4.098,4.9,17529,249,feet,jsons/v1_VE250_randls_7_rotated.json,1326723,1844299,71,Woman
144,270354,DepthScenes,duration_manipulation_targetAtFixation,jsons/v1_VE250_randls_7_rotated.json,http://54.235.29.9/FacialAge/BNav_EC2/DepthDuration/v2_depth_duration_MTurk/v2_DepthDuration_HTML.html#154,154,1242,698,1366,768,8-20-2022,11-5-42,145,depth_duration_stimuli/000739_2014-06-08_18-45-58_260595134347_rgbf000068-resize_1/000739_2014-06-08_18-45-58_260595134347_rgbf000068-resize_1-target.png,250,3.534,4.2,7227,249,feet,jsons/v1_VE250_randls_7_rotated.json,1326723,1844299,71,Woman
145,270354,DepthScenes,duration_manipulation_targetAtFixation,jsons/v1_VE250_randls_7_rotated.json,http://54.235.29.9/FacialAge/BNav_EC2/DepthDuration/v2_depth_duration_MTurk/v2_DepthDuration_HTML.html#154,154,1242,698,1366,768,8-20-2022,11-5-42,146,depth_duration_stimuli/001815_2014-06-26_20-52-55_260595134347_rgbf000020-resize_0/001815_2014-06-26_20-52-55_260595134347_rgbf000020-resize_0-target.png,250,3.3865,6.0,5715,237,feet,jsons/v1_VE250_randls_7_rotated.json,1326723,1844299,71,Woman
146,270354,DepthScenes,duration_manipulation_targetAtFixation,jsons/v1_VE250_randls_7_rotated.json,http://54.235.29.9/FacialAge/BNav_EC2/DepthDuration/v2_depth_duration_MTurk/v2_DepthDuration_HTML.html#154,154,1242,698,1366,768,8-20-2022,11-5-42,147,depth_duration_stimuli/001808_2014-06-26_20-50-58_260595134347_rgbf000029-resize_1/001808_2014-06-26_20-50-58_260595134347_rgbf000029-resize_1-target.png,250,4.249,5.8,6662,248,feet,jsons/v1_VE250_randls_7_rotated.json,1326723,1844299,71,Woman
147,270354,DepthScenes,duration_manipulation_targetAtFixation,jsons/v1_VE250_randls_7_rotated.json,http://54.235.29.9/FacialAge/BNav_EC2/DepthDuration/v2_depth_duration_MTurk/v2_DepthDuration_HTML.html#154,154,1242,698,1366,768,8-20-2022,11-5-42,148,depth_duration_stimuli/002637_2014-06-24_14-51-13_094959634447_rgbf000066-resize_4/002637_2014-06-24_14-51-13_094959634447_rgbf000066-resize_4-target.png,250,1.9955,4.0,5814,252,feet,jsons/v1_VE250_randls_7_rotated.json,1326723,1844299,71,Woman
148,270354,DepthScenes,duration_manipulation_targetAtFixation,jsons/v1_VE250_randls_7_rotated.json,http://54.235.29.9/FacialAge/BNav_EC2/DepthDuration/v2_depth_duration_MTurk/v2_DepthDuration_HTML.html#154,154,1242,698,1366,768,8-20-2022,11-5-42,149,depth_duration_stimuli/003534_2014-05-22_15-06-10_094959634447_rgbf000102-resize_4/003534_2014-05-22_15-06-10_094959634447_rgbf000102-resize_4-target.png,250,1.426,2.0,5138,247,feet,jsons/v1_VE250_randls_7_rotated.json,1326723,1844299,71,Woman
149,270354,DepthScenes,duration_manipulation_targetAtFixation,jsons/v1_VE250_randls_7_rotated.json,http://54.235.29.9/FacialAge/BNav_EC2/DepthDuration/v2_depth_duration_MTurk/v2_DepthDuration_HTML.html#154,154,1242,698,1366,768,8-20-2022,11-5-42,150,depth_duration_stimuli/003048_2014-06-15_13-49-43_094959634447_rgbf000150-resize_1/003048_2014-06-15_13-49-43_094959634447_rgbf000150-resize_1-target.png,250,4.0035,6.0,7262,251,feet,jsons/v1_VE250_randls_7_rotated.json,1326723,1844299,71,Woman
150,270354,DepthScenes,duration_manipulation_targetAtFixation,jsons/v1_VE250_randls_7_rotated.json,http://54.235.29.9/FacialAge/BNav_EC2/DepthDuration/v2_depth_duration_MTurk/v2_DepthDuration_HTML.html#154,154,1242,698,1366,768,8-20-2022,11-5-42,151,depth_duration_stimuli/002043_2014-06-24_20-29-38_260595134347_rgbf000039-resize_4/002043_2014-06-24_20-29-38_260595134347_rgbf000039-resize_4-target.png,250,2.8435,6.0,6535,252,feet,jsons/v1_VE250_randls_7_rotated.json,1326723,1844299,71,Woman
151,270354,DepthScenes,duration_manipulation_targetAtFixation,jsons/v1_VE250_randls_7_rotated.json,http://54.235.29.9/FacialAge/BNav_EC2/DepthDuration/v2_depth_duration_MTurk/v2_DepthDuration_HTML.html#154,154,1242,698,1366,768,8-20-2022,11-5-42,152,depth_duration_stimuli/000569_2014-06-09_22-51-47_260595134347_rgbf000141-resize_3/000569_2014-06-09_22-51-47_260595134347_rgbf000141-resize-original.jpg,250,4.512,0.0,4674,252,feet,jsons/v1_VE250_randls_7_rotated.json,1326723,1844299,71,Woman
152,270354,DepthScenes,duration_manipulation_targetAtFixation,jsons/v1_VE250_randls_7_rotated.json,http://54.235.29.9/FacialAge/BNav_EC2/DepthDuration/v2_depth_duration_MTurk/v2_DepthDuration_HTML.html#154,154,1242,698,1366,768,8-20-2022,11-5-42,153,depth_duration_stimuli/001516_2014-06-20_16-25-09_260595134347_rgbf000076-resize_2/001516_2014-06-20_16-25-09_260595134347_rgbf000076-resize_2-target.png,250,1.7445,4.2,5765,233,feet,jsons/v1_VE250_randls_7_rotated.json,1326723,1844299,71,Woman
153,270354,DepthScenes,duration_manipulation_targetAtFixation,jsons/v1_VE250_randls_7_rotated.json,http://54.235.29.9/FacialAge/BNav_EC2/DepthDuration/v2_depth_duration_MTurk/v2_DepthDuration_HTML.html#154,154,1242,698,1366,768,8-20-2022,11-5-42,154,depth_duration_stimuli/002118_2014-06-25_20-32-08_260595134347_rgbf000078-resize_1/002118_2014-06-25_20-32-08_260595134347_rgbf000078-resize_1-target.png,250,2.6460000000000004,4.6,11670,247,feet,jsons/v1_VE250_randls_7_rotated.json,1326723,1844299,71,Woman
154,270354,DepthScenes,duration_manipulation_targetAtFixation,jsons/v1_VE250_randls_7_rotated.json,http://54.235.29.9/FacialAge/BNav_EC2/DepthDuration/v2_depth_duration_MTurk/v2_DepthDuration_HTML.html#154,154,1242,698,1366,768,8-20-2022,11-5-42,155,depth_duration_stimuli/001617_2014-06-20_11-35-32_260595134347_rgbf000066-resize_1/001617_2014-06-20_11-35-32_260595134347_rgbf000066-resize_1-target.png,250,3.7910000000000004,6.4,12955,257,feet,jsons/v1_VE250_randls_7_rotated.json,1326723,1844299,71,Woman
155,270354,DepthScenes,duration_manipulation_targetAtFixation,jsons/v1_VE250_randls_7_rotated.json,http://54.235.29.9/FacialAge/BNav_EC2/DepthDuration/v2_depth_duration_MTurk/v2_DepthDuration_HTML.html#154,154,1242,698,1366,768,8-20-2022,11-5-42,156,depth_duration_stimuli/001806_2014-06-26_20-50-20_260595134347_rgbf000091-resize_1/001806_2014-06-26_20-50-20_260595134347_rgbf000091-resize_1-target.png,250,2.7305,3.7,7641,247,feet,jsons/v1_VE250_randls_7_rotated.json,1326723,1844299,71,Woman
156,270354,DepthScenes,duration_manipulation_targetAtFixation,jsons/v1_VE250_randls_7_rotated.json,http://54.235.29.9/FacialAge/BNav_EC2/DepthDuration/v2_depth_duration_MTurk/v2_DepthDuration_HTML.html#154,154,1242,698,1366,768,8-20-2022,11-5-42,157,depth_duration_stimuli/001032_2014-06-08_13-23-17_260595134347_rgbf000021-resize_3/001032_2014-06-08_13-23-17_260595134347_rgbf000021-resize_3-target.png,250,3.2725,4.0,5640,260,feet,jsons/v1_VE250_randls_7_rotated.json,1326723,1844299,71,Woman
157,270354,DepthScenes,duration_manipulation_targetAtFixation,jsons/v1_VE250_randls_7_rotated.json,http://54.235.29.9/FacialAge/BNav_EC2/DepthDuration/v2_depth_duration_MTurk/v2_DepthDuration_HTML.html#154,154,1242,698,1366,768,8-20-2022,11-5-42,158,depth_duration_stimuli/001059_2014-06-08_21-53-27_260595134347_rgbf000061-resize_4/001059_2014-06-08_21-53-27_260595134347_rgbf000061-resize_4-target.png,250,2.4185,4.8,5883,247,feet,jsons/v1_VE250_randls_7_rotated.json,1326723,1844299,71,Woman
158,270354,DepthScenes,duration_manipulation_targetAtFixation,jsons/v1_VE250_randls_7_rotated.json,http://54.235.29.9/FacialAge/BNav_EC2/DepthDuration/v2_depth_duration_MTurk/v2_DepthDuration_HTML.html#154,154,1242,698,1366,768,8-20-2022,11-5-42,159,depth_duration_stimuli/003010_2014-06-15_12-54-35_094959634447_rgbf000112-resize_0/003010_2014-06-15_12-54-35_094959634447_rgbf000112-resize_0-target.png,250,3.1185,7.0,6166,248,feet,jsons/v1_VE250_randls_7_rotated.json,1326723,1844299,71,Woman
159,270354,DepthScenes,duration_manipulation_targetAtFixation,jsons/v1_VE250_randls_7_rotated.json,http://54.235.29.9/FacialAge/BNav_EC2/DepthDuration/v2_depth_duration_MTurk/v2_DepthDuration_HTML.html#154,154,1242,698,1366,768,8-20-2022,11-5-42,160,depth_duration_stimuli/001810_2014-06-26_20-51-35_260595134347_rgbf000040-resize_3/001810_2014-06-26_20-51-35_260595134347_rgbf000040-resize_3-target.png,250,2.2525,3.8,5715,258,feet,jsons/v1_VE250_randls_7_rotated.json,1326723,1844299,71,Woman
160,270354,DepthScenes,duration_manipulation_targetAtFixation,jsons/v1_VE250_randls_7_rotated.json,http://54.235.29.9/FacialAge/BNav_EC2/DepthDuration/v2_depth_duration_MTurk/v2_DepthDuration_HTML.html#154,154,1242,698,1366,768,8-20-2022,11-5-42,161,depth_duration_stimuli/001828_2014-06-26_21-40-03_260595134347_rgbf000024-resize_0/001828_2014-06-26_21-40-03_260595134347_rgbf000024-resize_0-target.png,250,4.8260000000000005,9.0,5361,257,feet,jsons/v1_VE250_randls_7_rotated.json,1326723,1844299,71,Woman
161,270354,DepthScenes,duration_manipulation_targetAtFixation,jsons/v1_VE250_randls_7_rotated.json,http://54.235.29.9/FacialAge/BNav_EC2/DepthDuration/v2_depth_duration_MTurk/v2_DepthDuration_HTML.html#154,154,1242,698,1366,768,8-20-2022,11-5-42,162,depth_duration_stimuli/000009_2014-05-26_14-32-05_260595134347_rgbf000034-resize_3/000009_2014-05-26_14-32-05_260595134347_rgbf000034-resize_3-target.png,250,3.8715,6.8,5285,260,feet,jsons/v1_VE250_randls_7_rotated.json,1326723,1844299,71,Woman
162,270354,DepthScenes,duration_manipulation_targetAtFixation,jsons/v1_VE250_randls_7_rotated.json,http://54.235.29.9/FacialAge/BNav_EC2/DepthDuration/v2_depth_duration_MTurk/v2_DepthDuration_HTML.html#154,154,1242,698,1366,768,8-20-2022,11-5-42,163,depth_duration_stimuli/000780_2014-06-08_22-28-29_260595134347_rgbf000126-resize_1/000780_2014-06-08_22-28-29_260595134347_rgbf000126-resize_1-target.png,250,3.3825,5.4,8533,231,feet,jsons/v1_VE250_randls_7_rotated.json,1326723,1844299,71,Woman
163,270354,DepthScenes,duration_manipulation_targetAtFixation,jsons/v1_VE250_randls_7_rotated.json,http://54.235.29.9/FacialAge/BNav_EC2/DepthDuration/v2_depth_duration_MTurk/v2_DepthDuration_HTML.html#154,154,1242,698,1366,768,8-20-2022,11-5-42,164,depth_duration_stimuli/002445_2014-06-28_20-32-16_260595134347_rgbf000029-resize_4/002445_2014-06-28_20-32-16_260595134347_rgbf000029-resize_4-target.png,250,2.5315,3.0,6110,248,feet,jsons/v1_VE250_randls_7_rotated.json,1326723,1844299,71,Woman
