,subjID,experimentName,versionName,sequenceName,url,selected_row,windowWidth,windowHeight,screenWidth,screenHeight,startDate,startTime,trial,stimulus,duration,actual_depth,depth_estimate,trial_RT,log_sceneDuration,unitSelection,seq_filepath,experimentTime,totalTime,age,gender
0,270671,DepthScenes,duration_manipulation_targetAtFixation,jsons/v1_VE250_randls_15_rotated.json,http://54.235.29.9/FacialAge/BNav_EC2/DepthDuration/v2_depth_duration_MTurk/v2_DepthDuration_HTML.html#38,38,1600,900,1600,900,8-30-2022,10-16-49,1,depth_duration_stimuli/000409_2014-06-04_19-23-33_260595134347_rgbf000067-resize_0/000409_2014-06-04_19-23-33_260595134347_rgbf000067-resize_0-target.png,250,3.7335,5,4318,250,feet,jsons/v1_VE250_randls_15_rotated.json,837500,1098048,28,Man
1,270671,DepthScenes,duration_manipulation_targetAtFixation,jsons/v1_VE250_randls_15_rotated.json,http://54.235.29.9/FacialAge/BNav_EC2/DepthDuration/v2_depth_duration_MTurk/v2_DepthDuration_HTML.html#38,38,1600,900,1600,900,8-30-2022,10-16-49,2,depth_duration_stimuli/002663_2014-06-13_15-50-26_094959634447_rgbf000075-resize_1/002663_2014-06-13_15-50-26_094959634447_rgbf000075-resize_1-target.png,250,4.7495,4,3158,249,feet,jsons/v1_VE250_randls_15_rotated.json,837500,1098048,28,Man
2,270671,DepthScenes,duration_manipulation_targetAtFixation,jsons/v1_VE250_randls_15_rotated.json,http://54.235.29.9/FacialAge/BNav_EC2/DepthDuration/v2_depth_duration_MTurk/v2_DepthDuration_HTML.html#38,38,1600,900,1600,900,8-30-2022,10-16-49,3,depth_duration_stimuli/000709_2014-06-08_13-51-55_260595134347_rgbf000068-resize_3/000709_2014-06-08_13-51-55_260595134347_rgbf000068-resize_3-target.png,250,1.8030000000000002,6,3498,249,feet,jsons/v1_VE250_randls_15_rotated.json,837500,1098048,28,Man
3,270671,DepthScenes,duration_manipulation_targetAtFixation,jsons/v1_VE250_randls_15_rotated.json,http://54.235.29.9/FacialAge/BNav_EC2/DepthDuration/v2_depth_duration_MTurk/v2_DepthDuration_HTML.html#38,38,1600,900,1600,900,8-30-2022,10-16-49,4,depth_duration_stimuli/002057_2014-06-24_21-00-13_260595134347_rgbf000120-resize_1/002057_2014-06-24_21-00-13_260595134347_rgbf000120-resize_1-target.png,250,2.967,5,3198,250,feet,jsons/v1_VE250_randls_15_rotated.json,837500,1098048,28,Man
4,270671,DepthScenes,duration_manipulation_targetAtFixation,jsons/v1_VE250_randls_15_rotated.json,http://54.235.29.9/FacialAge/BNav_EC2/DepthDuration/v2_depth_duration_MTurk/v2_DepthDuration_HTML.html#38,38,1600,900,1600,900,8-30-2022,10-16-49,5,depth_duration_stimuli/003490_2014-05-21_15-50-11_094959634447_rgbf000101-resize_3/003490_2014-05-21_15-50-11_094959634447_rgbf000101-resize_3-target.png,250,3.6445,6,4052,249,feet,jsons/v1_VE250_randls_15_rotated.json,837500,1098048,28,Man
5,270671,DepthScenes,duration_manipulation_targetAtFixation,jsons/v1_VE250_randls_15_rotated.json,http://54.235.29.9/FacialAge/BNav_EC2/DepthDuration/v2_depth_duration_MTurk/v2_DepthDuration_HTML.html#38,38,1600,900,1600,900,8-30-2022,10-16-49,6,depth_duration_stimuli/001175_2014-06-17_15-45-55_260595134347_rgbf000129-resize_4/001175_2014-06-17_15-45-55_260595134347_rgbf000129-resize_4-target.png,250,4.255,7,3562,250,feet,jsons/v1_VE250_randls_15_rotated.json,837500,1098048,28,Man
6,270671,DepthScenes,duration_manipulation_targetAtFixation,jsons/v1_VE250_randls_15_rotated.json,http://54.235.29.9/FacialAge/BNav_EC2/DepthDuration/v2_depth_duration_MTurk/v2_DepthDuration_HTML.html#38,38,1600,900,1600,900,8-30-2022,10-16-49,7,depth_duration_stimuli/002805_2014-06-22_19-54-03_094959634447_rgbf000079-resize_1/002805_2014-06-22_19-54-03_094959634447_rgbf000079-resize_1-target.png,250,3.1439999999999997,4,4079,250,feet,jsons/v1_VE250_randls_15_rotated.json,837500,1098048,28,Man
7,270671,DepthScenes,duration_manipulation_targetAtFixation,jsons/v1_VE250_randls_15_rotated.json,http://54.235.29.9/FacialAge/BNav_EC2/DepthDuration/v2_depth_duration_MTurk/v2_DepthDuration_HTML.html#38,38,1600,900,1600,900,8-30-2022,10-16-49,8,depth_duration_stimuli/000906_2014-06-08_13-35-43_260595134347_rgbf000155-resize_1/000906_2014-06-08_13-35-43_260595134347_rgbf000155-resize_1-target.png,250,2.8489999999999998,5,3777,250,feet,jsons/v1_VE250_randls_15_rotated.json,837500,1098048,28,Man
8,270671,DepthScenes,duration_manipulation_targetAtFixation,jsons/v1_VE250_randls_15_rotated.json,http://54.235.29.9/FacialAge/BNav_EC2/DepthDuration/v2_depth_duration_MTurk/v2_DepthDuration_HTML.html#38,38,1600,900,1600,900,8-30-2022,10-16-49,9,depth_duration_stimuli/001392_2014-06-19_16-07-59_260595134347_rgbf000046-resize_1/001392_2014-06-19_16-07-59_260595134347_rgbf000046-resize_1-target.png,250,4.135,0,14579,251,feet,jsons/v1_VE250_randls_15_rotated.json,837500,1098048,28,Man
9,270671,DepthScenes,duration_manipulation_targetAtFixation,jsons/v1_VE250_randls_15_rotated.json,http://54.235.29.9/FacialAge/BNav_EC2/DepthDuration/v2_depth_duration_MTurk/v2_DepthDuration_HTML.html#38,38,1600,900,1600,900,8-30-2022,10-16-49,10,depth_duration_stimuli/001570_2014-06-20_17-21-09_260595134347_rgbf000135-resize_4/001570_2014-06-20_17-21-09_260595134347_rgbf000135-resize_4-target.png,250,4.467,4,3998,249,feet,jsons/v1_VE250_randls_15_rotated.json,837500,1098048,28,Man
10,270671,DepthScenes,duration_manipulation_targetAtFixation,jsons/v1_VE250_randls_15_rotated.json,http://54.235.29.9/FacialAge/BNav_EC2/DepthDuration/v2_depth_duration_MTurk/v2_DepthDuration_HTML.html#38,38,1600,900,1600,900,8-30-2022,10-16-49,11,depth_duration_stimuli/001100_2014-06-15_17-46-26_260595134347_rgbf000225-resize_2/001100_2014-06-15_17-46-26_260595134347_rgbf000225-resize_2-target.png,250,2.24,5,4198,251,feet,jsons/v1_VE250_randls_15_rotated.json,837500,1098048,28,Man
11,270671,DepthScenes,duration_manipulation_targetAtFixation,jsons/v1_VE250_randls_15_rotated.json,http://54.235.29.9/FacialAge/BNav_EC2/DepthDuration/v2_depth_duration_MTurk/v2_DepthDuration_HTML.html#38,38,1600,900,1600,900,8-30-2022,10-16-49,12,depth_duration_stimuli/002784_2014-06-22_19-26-30_094959634447_rgbf000083-resize_3/002784_2014-06-22_19-26-30_094959634447_rgbf000083-resize_3-target.png,250,1.8046666666667,6,5403,252,feet,jsons/v1_VE250_randls_15_rotated.json,837500,1098048,28,Man
12,270671,DepthScenes,duration_manipulation_targetAtFixation,jsons/v1_VE250_randls_15_rotated.json,http://54.235.29.9/FacialAge/BNav_EC2/DepthDuration/v2_depth_duration_MTurk/v2_DepthDuration_HTML.html#38,38,1600,900,1600,900,8-30-2022,10-16-49,13,depth_duration_stimuli/000734_2014-06-08_17-39-11_260595134347_rgbf000128-resize_2/000734_2014-06-08_17-39-11_260595134347_rgbf000128-resize_2-target.png,250,4.098,4,22136,250,feet,jsons/v1_VE250_randls_15_rotated.json,837500,1098048,28,Man
13,270671,DepthScenes,duration_manipulation_targetAtFixation,jsons/v1_VE250_randls_15_rotated.json,http://54.235.29.9/FacialAge/BNav_EC2/DepthDuration/v2_depth_duration_MTurk/v2_DepthDuration_HTML.html#38,38,1600,900,1600,900,8-30-2022,10-16-49,14,depth_duration_stimuli/000739_2014-06-08_18-45-58_260595134347_rgbf000068-resize_1/000739_2014-06-08_18-45-58_260595134347_rgbf000068-resize_1-target.png,250,3.534,0,5018,249,feet,jsons/v1_VE250_randls_15_rotated.json,837500,1098048,28,Man
14,270671,DepthScenes,duration_manipulation_targetAtFixation,jsons/v1_VE250_randls_15_rotated.json,http://54.235.29.9/FacialAge/BNav_EC2/DepthDuration/v2_depth_duration_MTurk/v2_DepthDuration_HTML.html#38,38,1600,900,1600,900,8-30-2022,10-16-49,15,depth_duration_stimuli/000749_2014-06-08_21-55-06_260595134347_rgbf000070-resize_2/000749_2014-06-08_21-55-06_260595134347_rgbf000070-resize_2-target.png,250,2.331,6,4048,250,feet,jsons/v1_VE250_randls_15_rotated.json,837500,1098048,28,Man
15,270671,DepthScenes,duration_manipulation_targetAtFixation,jsons/v1_VE250_randls_15_rotated.json,http://54.235.29.9/FacialAge/BNav_EC2/DepthDuration/v2_depth_duration_MTurk/v2_DepthDuration_HTML.html#38,38,1600,900,1600,900,8-30-2022,10-16-49,16,depth_duration_stimuli/002788_2014-06-22_19-36-03_094959634447_rgbf000088-resize_2/002788_2014-06-22_19-36-03_094959634447_rgbf000088-resize_2-target.png,250,1.6465,5,103389,248,feet,jsons/v1_VE250_randls_15_rotated.json,837500,1098048,28,Man
16,270671,DepthScenes,duration_manipulation_targetAtFixation,jsons/v1_VE250_randls_15_rotated.json,http://54.235.29.9/FacialAge/BNav_EC2/DepthDuration/v2_depth_duration_MTurk/v2_DepthDuration_HTML.html#38,38,1600,900,1600,900,8-30-2022,10-16-49,17,depth_duration_stimuli/000677_2014-06-08_23-10-32_260595134347_rgbf000158-resize_6/000677_2014-06-08_23-10-32_260595134347_rgbf000158-resize_6-target.png,250,3.556,5,3418,251,feet,jsons/v1_VE250_randls_15_rotated.json,837500,1098048,28,Man
17,270671,DepthScenes,duration_manipulation_targetAtFixation,jsons/v1_VE250_randls_15_rotated.json,http://54.235.29.9/FacialAge/BNav_EC2/DepthDuration/v2_depth_duration_MTurk/v2_DepthDuration_HTML.html#38,38,1600,900,1600,900,8-30-2022,10-16-49,18,depth_duration_stimuli/001029_2014-06-08_13-17-57_260595134347_rgbf000065-resize_1/001029_2014-06-08_13-17-57_260595134347_rgbf000065-resize_1-target.png,250,3.0835,5,3380,249,feet,jsons/v1_VE250_randls_15_rotated.json,837500,1098048,28,Man
18,270671,DepthScenes,duration_manipulation_targetAtFixation,jsons/v1_VE250_randls_15_rotated.json,http://54.235.29.9/FacialAge/BNav_EC2/DepthDuration/v2_depth_duration_MTurk/v2_DepthDuration_HTML.html#38,38,1600,900,1600,900,8-30-2022,10-16-49,19,depth_duration_stimuli/001498_2014-06-19_17-45-14_260595134347_rgbf000129-resize_4/001498_2014-06-19_17-45-14_260595134347_rgbf000129-resize-original.jpg,250,1.4075,0,3519,250,feet,jsons/v1_VE250_randls_15_rotated.json,837500,1098048,28,Man
19,270671,DepthScenes,duration_manipulation_targetAtFixation,jsons/v1_VE250_randls_15_rotated.json,http://54.235.29.9/FacialAge/BNav_EC2/DepthDuration/v2_depth_duration_MTurk/v2_DepthDuration_HTML.html#38,38,1600,900,1600,900,8-30-2022,10-16-49,20,depth_duration_stimuli/000457_2014-06-08_16-52-43_260595134347_rgbf000199-resize_1/000457_2014-06-08_16-52-43_260595134347_rgbf000199-resize_1-target.png,250,3.6489999999999996,8,4119,250,feet,jsons/v1_VE250_randls_15_rotated.json,837500,1098048,28,Man
20,270671,DepthScenes,duration_manipulation_targetAtFixation,jsons/v1_VE250_randls_15_rotated.json,http://54.235.29.9/FacialAge/BNav_EC2/DepthDuration/v2_depth_duration_MTurk/v2_DepthDuration_HTML.html#38,38,1600,900,1600,900,8-30-2022,10-16-49,21,depth_duration_stimuli/000929_2014-06-09_16-33-19_260595134347_rgbf000139-resize_0/000929_2014-06-09_16-33-19_260595134347_rgbf000139-resize_0-target.png,250,2.8680000000000003,5,3160,250,feet,jsons/v1_VE250_randls_15_rotated.json,837500,1098048,28,Man
21,270671,DepthScenes,duration_manipulation_targetAtFixation,jsons/v1_VE250_randls_15_rotated.json,http://54.235.29.9/FacialAge/BNav_EC2/DepthDuration/v2_depth_duration_MTurk/v2_DepthDuration_HTML.html#38,38,1600,900,1600,900,8-30-2022,10-16-49,22,depth_duration_stimuli/002467_2014-06-28_20-38-07_260595134347_rgbf000026-resize_2/002467_2014-06-28_20-38-07_260595134347_rgbf000026-resize_2-target.png,250,4.742,5,3407,249,feet,jsons/v1_VE250_randls_15_rotated.json,837500,1098048,28,Man
22,270671,DepthScenes,duration_manipulation_targetAtFixation,jsons/v1_VE250_randls_15_rotated.json,http://54.235.29.9/FacialAge/BNav_EC2/DepthDuration/v2_depth_duration_MTurk/v2_DepthDuration_HTML.html#38,38,1600,900,1600,900,8-30-2022,10-16-49,23,depth_duration_stimuli/002570_2014-06-24_13-59-54_094959634447_rgbf000059-resize_0/002570_2014-06-24_13-59-54_094959634447_rgbf000059-resize_0-target.png,250,4.037,5,3131,250,feet,jsons/v1_VE250_randls_15_rotated.json,837500,1098048,28,Man
23,270671,DepthScenes,duration_manipulation_targetAtFixation,jsons/v1_VE250_randls_15_rotated.json,http://54.235.29.9/FacialAge/BNav_EC2/DepthDuration/v2_depth_duration_MTurk/v2_DepthDuration_HTML.html#38,38,1600,900,1600,900,8-30-2022,10-16-49,24,depth_duration_stimuli/001450_2014-06-19_17-02-03_260595134347_rgbf000203-resize_4/001450_2014-06-19_17-02-03_260595134347_rgbf000203-resize_4-target.png,250,4.0106666666667,6,3264,251,feet,jsons/v1_VE250_randls_15_rotated.json,837500,1098048,28,Man
24,270671,DepthScenes,duration_manipulation_targetAtFixation,jsons/v1_VE250_randls_15_rotated.json,http://54.235.29.9/FacialAge/BNav_EC2/DepthDuration/v2_depth_duration_MTurk/v2_DepthDuration_HTML.html#38,38,1600,900,1600,900,8-30-2022,10-16-49,25,depth_duration_stimuli/001449_2014-06-19_17-01-27_260595134347_rgbf000116-resize_2/001449_2014-06-19_17-01-27_260595134347_rgbf000116-resize_2-target.png,250,3.452,7,4978,249,feet,jsons/v1_VE250_randls_15_rotated.json,837500,1098048,28,Man
25,270671,DepthScenes,duration_manipulation_targetAtFixation,jsons/v1_VE250_randls_15_rotated.json,http://54.235.29.9/FacialAge/BNav_EC2/DepthDuration/v2_depth_duration_MTurk/v2_DepthDuration_HTML.html#38,38,1600,900,1600,900,8-30-2022,10-16-49,26,depth_duration_stimuli/002953_2014-06-08_17-32-18_094959634447_rgbf000059-resize_5/002953_2014-06-08_17-32-18_094959634447_rgbf000059-resize_5-target.png,250,1.551,8,3236,250,feet,jsons/v1_VE250_randls_15_rotated.json,837500,1098048,28,Man
26,270671,DepthScenes,duration_manipulation_targetAtFixation,jsons/v1_VE250_randls_15_rotated.json,http://54.235.29.9/FacialAge/BNav_EC2/DepthDuration/v2_depth_duration_MTurk/v2_DepthDuration_HTML.html#38,38,1600,900,1600,900,8-30-2022,10-16-49,27,depth_duration_stimuli/000878_2014-06-08_22-52-45_260595134347_rgbf000045-resize_2/000878_2014-06-08_22-52-45_260595134347_rgbf000045-resize_2-target.png,250,2.092,2,2939,250,feet,jsons/v1_VE250_randls_15_rotated.json,837500,1098048,28,Man
27,270671,DepthScenes,duration_manipulation_targetAtFixation,jsons/v1_VE250_randls_15_rotated.json,http://54.235.29.9/FacialAge/BNav_EC2/DepthDuration/v2_depth_duration_MTurk/v2_DepthDuration_HTML.html#38,38,1600,900,1600,900,8-30-2022,10-16-49,28,depth_duration_stimuli/000854_2014-06-09_19-43-13_260595134347_rgbf000066-resize_0/000854_2014-06-09_19-43-13_260595134347_rgbf000066-resize_0-target.png,250,3.068,5,3189,250,feet,jsons/v1_VE250_randls_15_rotated.json,837500,1098048,28,Man
28,270671,DepthScenes,duration_manipulation_targetAtFixation,jsons/v1_VE250_randls_15_rotated.json,http://54.235.29.9/FacialAge/BNav_EC2/DepthDuration/v2_depth_duration_MTurk/v2_DepthDuration_HTML.html#38,38,1600,900,1600,900,8-30-2022,10-16-49,29,depth_duration_stimuli/000758_2014-06-08_22-05-08_260595134347_rgbf000085-resize_0/000758_2014-06-08_22-05-08_260595134347_rgbf000085-resize_0-target.png,250,3.3810000000000002,8,2991,249,feet,jsons/v1_VE250_randls_15_rotated.json,837500,1098048,28,Man
29,270671,DepthScenes,duration_manipulation_targetAtFixation,jsons/v1_VE250_randls_15_rotated.json,http://54.235.29.9/FacialAge/BNav_EC2/DepthDuration/v2_depth_duration_MTurk/v2_DepthDuration_HTML.html#38,38,1600,900,1600,900,8-30-2022,10-16-49,30,depth_duration_stimuli/002072_2014-06-24_21-48-06_260595134347_rgbf000115-resize_0/002072_2014-06-24_21-48-06_260595134347_rgbf000115-resize-original.jpg,250,4.702,0,3374,250,feet,jsons/v1_VE250_randls_15_rotated.json,837500,1098048,28,Man
30,270671,DepthScenes,duration_manipulation_targetAtFixation,jsons/v1_VE250_randls_15_rotated.json,http://54.235.29.9/FacialAge/BNav_EC2/DepthDuration/v2_depth_duration_MTurk/v2_DepthDuration_HTML.html#38,38,1600,900,1600,900,8-30-2022,10-16-49,31,depth_duration_stimuli/001132_2014-06-17_14-48-54_260595134347_rgbf000100-resize_2/001132_2014-06-17_14-48-54_260595134347_rgbf000100-resize_2-target.png,250,3.753,8,3399,250,feet,jsons/v1_VE250_randls_15_rotated.json,837500,1098048,28,Man
31,270671,DepthScenes,duration_manipulation_targetAtFixation,jsons/v1_VE250_randls_15_rotated.json,http://54.235.29.9/FacialAge/BNav_EC2/DepthDuration/v2_depth_duration_MTurk/v2_DepthDuration_HTML.html#38,38,1600,900,1600,900,8-30-2022,10-16-49,32,depth_duration_stimuli/001133_2014-06-17_14-49-16_260595134347_rgbf000100-resize_0/001133_2014-06-17_14-49-16_260595134347_rgbf000100-resize_0-target.png,250,4.2115,8,2918,249,feet,jsons/v1_VE250_randls_15_rotated.json,837500,1098048,28,Man
32,270671,DepthScenes,duration_manipulation_targetAtFixation,jsons/v1_VE250_randls_15_rotated.json,http://54.235.29.9/FacialAge/BNav_EC2/DepthDuration/v2_depth_duration_MTurk/v2_DepthDuration_HTML.html#38,38,1600,900,1600,900,8-30-2022,10-16-49,33,depth_duration_stimuli/001447_2014-06-19_17-00-32_260595134347_rgbf000082-resize_5/001447_2014-06-19_17-00-32_260595134347_rgbf000082-resize_5-target.png,250,4.13775,2,4118,248,feet,jsons/v1_VE250_randls_15_rotated.json,837500,1098048,28,Man
33,270671,DepthScenes,duration_manipulation_targetAtFixation,jsons/v1_VE250_randls_15_rotated.json,http://54.235.29.9/FacialAge/BNav_EC2/DepthDuration/v2_depth_duration_MTurk/v2_DepthDuration_HTML.html#38,38,1600,900,1600,900,8-30-2022,10-16-49,34,depth_duration_stimuli/000447_2014-06-08_16-15-46_260595134347_rgbf000130-resize_1/000447_2014-06-08_16-15-46_260595134347_rgbf000130-resize_1-target.png,250,4.479,8,3238,251,feet,jsons/v1_VE250_randls_15_rotated.json,837500,1098048,28,Man
34,270671,DepthScenes,duration_manipulation_targetAtFixation,jsons/v1_VE250_randls_15_rotated.json,http://54.235.29.9/FacialAge/BNav_EC2/DepthDuration/v2_depth_duration_MTurk/v2_DepthDuration_HTML.html#38,38,1600,900,1600,900,8-30-2022,10-16-49,35,depth_duration_stimuli/000191_2014-05-12_17-07-38_260595134347_rgbf000199-resize_0/000191_2014-05-12_17-07-38_260595134347_rgbf000199-resize_0-target.png,250,3.7995,5,3180,251,feet,jsons/v1_VE250_randls_15_rotated.json,837500,1098048,28,Man
35,270671,DepthScenes,duration_manipulation_targetAtFixation,jsons/v1_VE250_randls_15_rotated.json,http://54.235.29.9/FacialAge/BNav_EC2/DepthDuration/v2_depth_duration_MTurk/v2_DepthDuration_HTML.html#38,38,1600,900,1600,900,8-30-2022,10-16-49,36,depth_duration_stimuli/000493_2014-06-09_21-01-18_260595134347_rgbf000196-resize_3/000493_2014-06-09_21-01-18_260595134347_rgbf000196-resize_3-target.png,250,3.44,6,3357,250,feet,jsons/v1_VE250_randls_15_rotated.json,837500,1098048,28,Man
36,270671,DepthScenes,duration_manipulation_targetAtFixation,jsons/v1_VE250_randls_15_rotated.json,http://54.235.29.9/FacialAge/BNav_EC2/DepthDuration/v2_depth_duration_MTurk/v2_DepthDuration_HTML.html#38,38,1600,900,1600,900,8-30-2022,10-16-49,37,depth_duration_stimuli/000691_2014-06-08_13-08-50_260595134347_rgbf000132-resize_3/000691_2014-06-08_13-08-50_260595134347_rgbf000132-resize_3-target.png,250,4.1530000000000005,4,2939,250,feet,jsons/v1_VE250_randls_15_rotated.json,837500,1098048,28,Man
37,270671,DepthScenes,duration_manipulation_targetAtFixation,jsons/v1_VE250_randls_15_rotated.json,http://54.235.29.9/FacialAge/BNav_EC2/DepthDuration/v2_depth_duration_MTurk/v2_DepthDuration_HTML.html#38,38,1600,900,1600,900,8-30-2022,10-16-49,38,depth_duration_stimuli/002213_2014-06-28_18-37-58_260595134347_rgbf000055-resize_1/002213_2014-06-28_18-37-58_260595134347_rgbf000055-resize_1-target.png,250,3.62,7,2964,251,feet,jsons/v1_VE250_randls_15_rotated.json,837500,1098048,28,Man
38,270671,DepthScenes,duration_manipulation_targetAtFixation,jsons/v1_VE250_randls_15_rotated.json,http://54.235.29.9/FacialAge/BNav_EC2/DepthDuration/v2_depth_duration_MTurk/v2_DepthDuration_HTML.html#38,38,1600,900,1600,900,8-30-2022,10-16-49,39,depth_duration_stimuli/002103_2014-06-25_20-00-40_260595134347_rgbf000049-resize_0/002103_2014-06-25_20-00-40_260595134347_rgbf000049-resize_0-target.png,250,4.105,5,3374,251,feet,jsons/v1_VE250_randls_15_rotated.json,837500,1098048,28,Man
39,270671,DepthScenes,duration_manipulation_targetAtFixation,jsons/v1_VE250_randls_15_rotated.json,http://54.235.29.9/FacialAge/BNav_EC2/DepthDuration/v2_depth_duration_MTurk/v2_DepthDuration_HTML.html#38,38,1600,900,1600,900,8-30-2022,10-16-49,40,depth_duration_stimuli/002039_2014-06-24_20-22-38_260595134347_rgbf000084-resize_1/002039_2014-06-24_20-22-38_260595134347_rgbf000084-resize_1-target.png,250,4.408,5,3718,250,feet,jsons/v1_VE250_randls_15_rotated.json,837500,1098048,28,Man
40,270671,DepthScenes,duration_manipulation_targetAtFixation,jsons/v1_VE250_randls_15_rotated.json,http://54.235.29.9/FacialAge/BNav_EC2/DepthDuration/v2_depth_duration_MTurk/v2_DepthDuration_HTML.html#38,38,1600,900,1600,900,8-30-2022,10-16-49,41,depth_duration_stimuli/003048_2014-06-15_13-49-43_094959634447_rgbf000150-resize_1/003048_2014-06-15_13-49-43_094959634447_rgbf000150-resize_1-target.png,250,4.0035,5,3638,250,feet,jsons/v1_VE250_randls_15_rotated.json,837500,1098048,28,Man
41,270671,DepthScenes,duration_manipulation_targetAtFixation,jsons/v1_VE250_randls_15_rotated.json,http://54.235.29.9/FacialAge/BNav_EC2/DepthDuration/v2_depth_duration_MTurk/v2_DepthDuration_HTML.html#38,38,1600,900,1600,900,8-30-2022,10-16-49,42,depth_duration_stimuli/002043_2014-06-24_20-29-38_260595134347_rgbf000039-resize_4/002043_2014-06-24_20-29-38_260595134347_rgbf000039-resize_4-target.png,250,2.8435,5,3120,250,feet,jsons/v1_VE250_randls_15_rotated.json,837500,1098048,28,Man
42,270671,DepthScenes,duration_manipulation_targetAtFixation,jsons/v1_VE250_randls_15_rotated.json,http://54.235.29.9/FacialAge/BNav_EC2/DepthDuration/v2_depth_duration_MTurk/v2_DepthDuration_HTML.html#38,38,1600,900,1600,900,8-30-2022,10-16-49,43,depth_duration_stimuli/001136_2014-06-17_15-19-41_260595134347_rgbf000076-resize_3/001136_2014-06-17_15-19-41_260595134347_rgbf000076-resize_3-target.png,250,1.8655,6,4240,250,feet,jsons/v1_VE250_randls_15_rotated.json,837500,1098048,28,Man
43,270671,DepthScenes,duration_manipulation_targetAtFixation,jsons/v1_VE250_randls_15_rotated.json,http://54.235.29.9/FacialAge/BNav_EC2/DepthDuration/v2_depth_duration_MTurk/v2_DepthDuration_HTML.html#38,38,1600,900,1600,900,8-30-2022,10-16-49,44,depth_duration_stimuli/001164_2014-06-17_15-35-46_260595134347_rgbf000085-resize_3/001164_2014-06-17_15-35-46_260595134347_rgbf000085-resize_3-target.png,250,2.354,5,3038,249,feet,jsons/v1_VE250_randls_15_rotated.json,837500,1098048,28,Man
44,270671,DepthScenes,duration_manipulation_targetAtFixation,jsons/v1_VE250_randls_15_rotated.json,http://54.235.29.9/FacialAge/BNav_EC2/DepthDuration/v2_depth_duration_MTurk/v2_DepthDuration_HTML.html#38,38,1600,900,1600,900,8-30-2022,10-16-49,45,depth_duration_stimuli/002545_2014-06-24_13-38-53_094959634447_rgbf000080-resize_4/002545_2014-06-24_13-38-53_094959634447_rgbf000080-resize_4-target.png,250,1.9205,6,4377,248,feet,jsons/v1_VE250_randls_15_rotated.json,837500,1098048,28,Man
45,270671,DepthScenes,duration_manipulation_targetAtFixation,jsons/v1_VE250_randls_15_rotated.json,http://54.235.29.9/FacialAge/BNav_EC2/DepthDuration/v2_depth_duration_MTurk/v2_DepthDuration_HTML.html#38,38,1600,900,1600,900,8-30-2022,10-16-49,46,depth_duration_stimuli/001092_2014-06-15_17-34-58_260595134347_rgbf000171-resize_3/001092_2014-06-15_17-34-58_260595134347_rgbf000171-resize_3-target.png,250,2.6935,5,4939,248,feet,jsons/v1_VE250_randls_15_rotated.json,837500,1098048,28,Man
46,270671,DepthScenes,duration_manipulation_targetAtFixation,jsons/v1_VE250_randls_15_rotated.json,http://54.235.29.9/FacialAge/BNav_EC2/DepthDuration/v2_depth_duration_MTurk/v2_DepthDuration_HTML.html#38,38,1600,900,1600,900,8-30-2022,10-16-49,47,depth_duration_stimuli/002750_2014-06-22_19-08-03_094959634447_rgbf000094-resize_4/002750_2014-06-22_19-08-03_094959634447_rgbf000094-resize_4-target.png,250,2.354,2,3918,250,feet,jsons/v1_VE250_randls_15_rotated.json,837500,1098048,28,Man
47,270671,DepthScenes,duration_manipulation_targetAtFixation,jsons/v1_VE250_randls_15_rotated.json,http://54.235.29.9/FacialAge/BNav_EC2/DepthDuration/v2_depth_duration_MTurk/v2_DepthDuration_HTML.html#38,38,1600,900,1600,900,8-30-2022,10-16-49,48,depth_duration_stimuli/002549_2014-06-24_13-41-39_094959634447_rgbf000022-resize_3/002549_2014-06-24_13-41-39_094959634447_rgbf000022-resize_3-target.png,250,1.476,5,3319,251,feet,jsons/v1_VE250_randls_15_rotated.json,837500,1098048,28,Man
48,270671,DepthScenes,duration_manipulation_targetAtFixation,jsons/v1_VE250_randls_15_rotated.json,http://54.235.29.9/FacialAge/BNav_EC2/DepthDuration/v2_depth_duration_MTurk/v2_DepthDuration_HTML.html#38,38,1600,900,1600,900,8-30-2022,10-16-49,49,depth_duration_stimuli/001170_2014-06-17_15-43-44_260595134347_rgbf000096-resize_6/001170_2014-06-17_15-43-44_260595134347_rgbf000096-resize-original.jpg,250,1.1909999999999998,0,3620,250,feet,jsons/v1_VE250_randls_15_rotated.json,837500,1098048,28,Man
49,270671,DepthScenes,duration_manipulation_targetAtFixation,jsons/v1_VE250_randls_15_rotated.json,http://54.235.29.9/FacialAge/BNav_EC2/DepthDuration/v2_depth_duration_MTurk/v2_DepthDuration_HTML.html#38,38,1600,900,1600,900,8-30-2022,10-16-49,50,depth_duration_stimuli/001032_2014-06-08_13-23-17_260595134347_rgbf000021-resize_3/001032_2014-06-08_13-23-17_260595134347_rgbf000021-resize_3-target.png,250,3.2725,2,4161,250,feet,jsons/v1_VE250_randls_15_rotated.json,837500,1098048,28,Man
50,270671,DepthScenes,duration_manipulation_targetAtFixation,jsons/v1_VE250_randls_15_rotated.json,http://54.235.29.9/FacialAge/BNav_EC2/DepthDuration/v2_depth_duration_MTurk/v2_DepthDuration_HTML.html#38,38,1600,900,1600,900,8-30-2022,10-16-49,51,depth_duration_stimuli/001059_2014-06-08_21-53-27_260595134347_rgbf000061-resize_4/001059_2014-06-08_21-53-27_260595134347_rgbf000061-resize_4-target.png,250,2.4185,4,4815,249,feet,jsons/v1_VE250_randls_15_rotated.json,837500,1098048,28,Man
51,270671,DepthScenes,duration_manipulation_targetAtFixation,jsons/v1_VE250_randls_15_rotated.json,http://54.235.29.9/FacialAge/BNav_EC2/DepthDuration/v2_depth_duration_MTurk/v2_DepthDuration_HTML.html#38,38,1600,900,1600,900,8-30-2022,10-16-49,52,depth_duration_stimuli/000109_2014-05-14_23-41-52_260595134347_rgbf000035-resize_9/000109_2014-05-14_23-41-52_260595134347_rgbf000035-resize_9-target.png,250,1.3545,5,3657,250,feet,jsons/v1_VE250_randls_15_rotated.json,837500,1098048,28,Man
52,270671,DepthScenes,duration_manipulation_targetAtFixation,jsons/v1_VE250_randls_15_rotated.json,http://54.235.29.9/FacialAge/BNav_EC2/DepthDuration/v2_depth_duration_MTurk/v2_DepthDuration_HTML.html#38,38,1600,900,1600,900,8-30-2022,10-16-49,53,depth_duration_stimuli/000470_2014-06-09_19-42-40_260595134347_rgbf000094-resize_1/000470_2014-06-09_19-42-40_260595134347_rgbf000094-resize_1-target.png,250,1.831,5,3477,249,feet,jsons/v1_VE250_randls_15_rotated.json,837500,1098048,28,Man
53,270671,DepthScenes,duration_manipulation_targetAtFixation,jsons/v1_VE250_randls_15_rotated.json,http://54.235.29.9/FacialAge/BNav_EC2/DepthDuration/v2_depth_duration_MTurk/v2_DepthDuration_HTML.html#38,38,1600,900,1600,900,8-30-2022,10-16-49,54,depth_duration_stimuli/002199_2014-06-28_18-33-56_260595134347_rgbf000074-resize_0/002199_2014-06-28_18-33-56_260595134347_rgbf000074-resize_0-target.png,250,1.996,4,3561,251,feet,jsons/v1_VE250_randls_15_rotated.json,837500,1098048,28,Man
54,270671,DepthScenes,duration_manipulation_targetAtFixation,jsons/v1_VE250_randls_15_rotated.json,http://54.235.29.9/FacialAge/BNav_EC2/DepthDuration/v2_depth_duration_MTurk/v2_DepthDuration_HTML.html#38,38,1600,900,1600,900,8-30-2022,10-16-49,55,depth_duration_stimuli/001056_2014-06-08_18-46-44_260595134347_rgbf000068-resize_0/001056_2014-06-08_18-46-44_260595134347_rgbf000068-resize_0-target.png,250,2.6625,4,3699,249,feet,jsons/v1_VE250_randls_15_rotated.json,837500,1098048,28,Man
55,270671,DepthScenes,duration_manipulation_targetAtFixation,jsons/v1_VE250_randls_15_rotated.json,http://54.235.29.9/FacialAge/BNav_EC2/DepthDuration/v2_depth_duration_MTurk/v2_DepthDuration_HTML.html#38,38,1600,900,1600,900,8-30-2022,10-16-49,56,depth_duration_stimuli/000483_2014-06-09_20-41-45_260595134347_rgbf000116-resize_4/000483_2014-06-09_20-41-45_260595134347_rgbf000116-resize_4-target.png,250,1.337,2,4885,249,feet,jsons/v1_VE250_randls_15_rotated.json,837500,1098048,28,Man
56,270671,DepthScenes,duration_manipulation_targetAtFixation,jsons/v1_VE250_randls_15_rotated.json,http://54.235.29.9/FacialAge/BNav_EC2/DepthDuration/v2_depth_duration_MTurk/v2_DepthDuration_HTML.html#38,38,1600,900,1600,900,8-30-2022,10-16-49,57,depth_duration_stimuli/000469_2014-06-09_19-42-10_260595134347_rgbf000081-resize_1/000469_2014-06-09_19-42-10_260595134347_rgbf000081-resize_1-target.png,250,1.652,5,3930,250,feet,jsons/v1_VE250_randls_15_rotated.json,837500,1098048,28,Man
57,270671,DepthScenes,duration_manipulation_targetAtFixation,jsons/v1_VE250_randls_15_rotated.json,http://54.235.29.9/FacialAge/BNav_EC2/DepthDuration/v2_depth_duration_MTurk/v2_DepthDuration_HTML.html#38,38,1600,900,1600,900,8-30-2022,10-16-49,58,depth_duration_stimuli/001516_2014-06-20_16-25-09_260595134347_rgbf000076-resize_2/001516_2014-06-20_16-25-09_260595134347_rgbf000076-resize_2-target.png,250,1.7445,6,4679,249,feet,jsons/v1_VE250_randls_15_rotated.json,837500,1098048,28,Man
58,270671,DepthScenes,duration_manipulation_targetAtFixation,jsons/v1_VE250_randls_15_rotated.json,http://54.235.29.9/FacialAge/BNav_EC2/DepthDuration/v2_depth_duration_MTurk/v2_DepthDuration_HTML.html#38,38,1600,900,1600,900,8-30-2022,10-16-49,59,depth_duration_stimuli/002118_2014-06-25_20-32-08_260595134347_rgbf000078-resize_1/002118_2014-06-25_20-32-08_260595134347_rgbf000078-resize_1-target.png,250,2.6460000000000004,5,4097,249,feet,jsons/v1_VE250_randls_15_rotated.json,837500,1098048,28,Man
59,270671,DepthScenes,duration_manipulation_targetAtFixation,jsons/v1_VE250_randls_15_rotated.json,http://54.235.29.9/FacialAge/BNav_EC2/DepthDuration/v2_depth_duration_MTurk/v2_DepthDuration_HTML.html#38,38,1600,900,1600,900,8-30-2022,10-16-49,60,depth_duration_stimuli/002639_2014-06-24_14-51-37_094959634447_rgbf000074-resize_4/002639_2014-06-24_14-51-37_094959634447_rgbf000074-resize_4-target.png,250,4.0375,2,3977,250,feet,jsons/v1_VE250_randls_15_rotated.json,837500,1098048,28,Man
60,270671,DepthScenes,duration_manipulation_targetAtFixation,jsons/v1_VE250_randls_15_rotated.json,http://54.235.29.9/FacialAge/BNav_EC2/DepthDuration/v2_depth_duration_MTurk/v2_DepthDuration_HTML.html#38,38,1600,900,1600,900,8-30-2022,10-16-49,61,depth_duration_stimuli/003292_2014-05-14_21-53-49_094959634447_rgbf000100-resize_2/003292_2014-05-14_21-53-49_094959634447_rgbf000100-resize_2-target.png,250,3.4815,5,3478,249,feet,jsons/v1_VE250_randls_15_rotated.json,837500,1098048,28,Man
61,270671,DepthScenes,duration_manipulation_targetAtFixation,jsons/v1_VE250_randls_15_rotated.json,http://54.235.29.9/FacialAge/BNav_EC2/DepthDuration/v2_depth_duration_MTurk/v2_DepthDuration_HTML.html#38,38,1600,900,1600,900,8-30-2022,10-16-49,62,depth_duration_stimuli/001214_2014-06-17_16-13-55_260595134347_rgbf000111-resize_0/001214_2014-06-17_16-13-55_260595134347_rgbf000111-resize_0-target.png,250,2.6505,5,4218,250,feet,jsons/v1_VE250_randls_15_rotated.json,837500,1098048,28,Man
62,270671,DepthScenes,duration_manipulation_targetAtFixation,jsons/v1_VE250_randls_15_rotated.json,http://54.235.29.9/FacialAge/BNav_EC2/DepthDuration/v2_depth_duration_MTurk/v2_DepthDuration_HTML.html#38,38,1600,900,1600,900,8-30-2022,10-16-49,63,depth_duration_stimuli/000810_2014-06-08_17-20-01_260595134347_rgbf000105-resize_0/000810_2014-06-08_17-20-01_260595134347_rgbf000105-resize_0-target.png,250,1.4865,5,3959,251,feet,jsons/v1_VE250_randls_15_rotated.json,837500,1098048,28,Man
63,270671,DepthScenes,duration_manipulation_targetAtFixation,jsons/v1_VE250_randls_15_rotated.json,http://54.235.29.9/FacialAge/BNav_EC2/DepthDuration/v2_depth_duration_MTurk/v2_DepthDuration_HTML.html#38,38,1600,900,1600,900,8-30-2022,10-16-49,64,depth_duration_stimuli/001094_2014-06-15_17-36-00_260595134347_rgbf000205-resize_0/001094_2014-06-15_17-36-00_260595134347_rgbf000205-resize_0-target.png,250,4.2175,2,4940,250,feet,jsons/v1_VE250_randls_15_rotated.json,837500,1098048,28,Man
64,270671,DepthScenes,duration_manipulation_targetAtFixation,jsons/v1_VE250_randls_15_rotated.json,http://54.235.29.9/FacialAge/BNav_EC2/DepthDuration/v2_depth_duration_MTurk/v2_DepthDuration_HTML.html#38,38,1600,900,1600,900,8-30-2022,10-16-49,65,depth_duration_stimuli/000692_2014-06-08_13-09-42_260595134347_rgbf000199-resize_2/000692_2014-06-08_13-09-42_260595134347_rgbf000199-resize_2-target.png,250,3.661,2,3680,250,feet,jsons/v1_VE250_randls_15_rotated.json,837500,1098048,28,Man
65,270671,DepthScenes,duration_manipulation_targetAtFixation,jsons/v1_VE250_randls_15_rotated.json,http://54.235.29.9/FacialAge/BNav_EC2/DepthDuration/v2_depth_duration_MTurk/v2_DepthDuration_HTML.html#38,38,1600,900,1600,900,8-30-2022,10-16-49,66,depth_duration_stimuli/001540_2014-06-20_17-01-05_260595134347_rgbf000086-resize_2/001540_2014-06-20_17-01-05_260595134347_rgbf000086-resize-original.jpg,250,1.459,0,4510,250,feet,jsons/v1_VE250_randls_15_rotated.json,837500,1098048,28,Man
66,270671,DepthScenes,duration_manipulation_targetAtFixation,jsons/v1_VE250_randls_15_rotated.json,http://54.235.29.9/FacialAge/BNav_EC2/DepthDuration/v2_depth_duration_MTurk/v2_DepthDuration_HTML.html#38,38,1600,900,1600,900,8-30-2022,10-16-49,67,depth_duration_stimuli/001235_2014-06-17_16-37-36_260595134347_rgbf000084-resize_4/001235_2014-06-17_16-37-36_260595134347_rgbf000084-resize_4-target.png,250,3.6605,2,3975,250,feet,jsons/v1_VE250_randls_15_rotated.json,837500,1098048,28,Man
67,270671,DepthScenes,duration_manipulation_targetAtFixation,jsons/v1_VE250_randls_15_rotated.json,http://54.235.29.9/FacialAge/BNav_EC2/DepthDuration/v2_depth_duration_MTurk/v2_DepthDuration_HTML.html#38,38,1600,900,1600,900,8-30-2022,10-16-49,68,depth_duration_stimuli/000788_2014-06-08_22-34-36_260595134347_rgbf000131-resize_1/000788_2014-06-08_22-34-36_260595134347_rgbf000131-resize_1-target.png,250,3.359,5,4623,249,feet,jsons/v1_VE250_randls_15_rotated.json,837500,1098048,28,Man
68,270671,DepthScenes,duration_manipulation_targetAtFixation,jsons/v1_VE250_randls_15_rotated.json,http://54.235.29.9/FacialAge/BNav_EC2/DepthDuration/v2_depth_duration_MTurk/v2_DepthDuration_HTML.html#38,38,1600,900,1600,900,8-30-2022,10-16-49,69,depth_duration_stimuli/000780_2014-06-08_22-28-29_260595134347_rgbf000126-resize_1/000780_2014-06-08_22-28-29_260595134347_rgbf000126-resize_1-target.png,250,3.3825,8,4107,250,feet,jsons/v1_VE250_randls_15_rotated.json,837500,1098048,28,Man
69,270671,DepthScenes,duration_manipulation_targetAtFixation,jsons/v1_VE250_randls_15_rotated.json,http://54.235.29.9/FacialAge/BNav_EC2/DepthDuration/v2_depth_duration_MTurk/v2_DepthDuration_HTML.html#38,38,1600,900,1600,900,8-30-2022,10-16-49,70,depth_duration_stimuli/002445_2014-06-28_20-32-16_260595134347_rgbf000029-resize_4/002445_2014-06-28_20-32-16_260595134347_rgbf000029-resize_4-target.png,250,2.5315,7,3582,249,feet,jsons/v1_VE250_randls_15_rotated.json,837500,1098048,28,Man
70,270671,DepthScenes,duration_manipulation_targetAtFixation,jsons/v1_VE250_randls_15_rotated.json,http://54.235.29.9/FacialAge/BNav_EC2/DepthDuration/v2_depth_duration_MTurk/v2_DepthDuration_HTML.html#38,38,1600,900,1600,900,8-30-2022,10-16-49,71,depth_duration_stimuli/001650_2014-06-20_12-09-00_260595134347_rgbf000087-resize_3/001650_2014-06-20_12-09-00_260595134347_rgbf000087-resize_3-target.png,250,1.9505,2,4370,248,feet,jsons/v1_VE250_randls_15_rotated.json,837500,1098048,28,Man
71,270671,DepthScenes,duration_manipulation_targetAtFixation,jsons/v1_VE250_randls_15_rotated.json,http://54.235.29.9/FacialAge/BNav_EC2/DepthDuration/v2_depth_duration_MTurk/v2_DepthDuration_HTML.html#38,38,1600,900,1600,900,8-30-2022,10-16-49,72,depth_duration_stimuli/000682_2014-06-08_23-14-58_260595134347_rgbf000041-resize_5/000682_2014-06-08_23-14-58_260595134347_rgbf000041-resize_5-target.png,250,2.7239999999999998,5,3589,250,feet,jsons/v1_VE250_randls_15_rotated.json,837500,1098048,28,Man
72,270671,DepthScenes,duration_manipulation_targetAtFixation,jsons/v1_VE250_randls_15_rotated.json,http://54.235.29.9/FacialAge/BNav_EC2/DepthDuration/v2_depth_duration_MTurk/v2_DepthDuration_HTML.html#38,38,1600,900,1600,900,8-30-2022,10-16-49,73,depth_duration_stimuli/003228_2014-05-14_13-42-35_094959634447_rgbf000101-resize_1/003228_2014-05-14_13-42-35_094959634447_rgbf000101-resize_1-target.png,250,1.9680000000000002,4,4549,249,feet,jsons/v1_VE250_randls_15_rotated.json,837500,1098048,28,Man
73,270671,DepthScenes,duration_manipulation_targetAtFixation,jsons/v1_VE250_randls_15_rotated.json,http://54.235.29.9/FacialAge/BNav_EC2/DepthDuration/v2_depth_duration_MTurk/v2_DepthDuration_HTML.html#38,38,1600,900,1600,900,8-30-2022,10-16-49,74,depth_duration_stimuli/002600_2014-06-24_14-27-04_094959634447_rgbf000074-resize_2/002600_2014-06-24_14-27-04_094959634447_rgbf000074-resize_2-target.png,250,2.7575,5,8938,249,feet,jsons/v1_VE250_randls_15_rotated.json,837500,1098048,28,Man
74,270671,DepthScenes,duration_manipulation_targetAtFixation,jsons/v1_VE250_randls_15_rotated.json,http://54.235.29.9/FacialAge/BNav_EC2/DepthDuration/v2_depth_duration_MTurk/v2_DepthDuration_HTML.html#38,38,1600,757,1600,900,8-30-2022,10-16-49,75,depth_duration_stimuli/002444_2014-06-28_20-32-08_260595134347_rgbf000027-resize_0/002444_2014-06-28_20-32-08_260595134347_rgbf000027-resize_0-target.png,250,4.388999999999999,5,4737,249,feet,jsons/v1_VE250_randls_15_rotated.json,837500,1098048,28,Man
75,270671,DepthScenes,duration_manipulation_targetAtFixation,jsons/v1_VE250_randls_15_rotated.json,http://54.235.29.9/FacialAge/BNav_EC2/DepthDuration/v2_depth_duration_MTurk/v2_DepthDuration_HTML.html#38,38,1600,757,1600,900,8-30-2022,10-16-49,76,depth_duration_stimuli/000436_2014-06-09_22-25-11_260595134347_rgbf000137-resize_1/000436_2014-06-09_22-25-11_260595134347_rgbf000137-resize_1-target.png,250,4.0705,5,3717,249,feet,jsons/v1_VE250_randls_15_rotated.json,837500,1098048,28,Man
76,270671,DepthScenes,duration_manipulation_targetAtFixation,jsons/v1_VE250_randls_15_rotated.json,http://54.235.29.9/FacialAge/BNav_EC2/DepthDuration/v2_depth_duration_MTurk/v2_DepthDuration_HTML.html#38,38,1600,757,1600,900,8-30-2022,10-16-49,77,depth_duration_stimuli/000137_2014-05-20_17-04-49_260595134347_rgbf000120-resize_1/000137_2014-05-20_17-04-49_260595134347_rgbf000120-resize_1-target.png,250,3.786,2,3599,251,feet,jsons/v1_VE250_randls_15_rotated.json,837500,1098048,28,Man
77,270671,DepthScenes,duration_manipulation_targetAtFixation,jsons/v1_VE250_randls_15_rotated.json,http://54.235.29.9/FacialAge/BNav_EC2/DepthDuration/v2_depth_duration_MTurk/v2_DepthDuration_HTML.html#38,38,1600,757,1600,900,8-30-2022,10-16-49,78,depth_duration_stimuli/000736_2014-06-08_18-24-15_260595134347_rgbf000206-resize_3/000736_2014-06-08_18-24-15_260595134347_rgbf000206-resize_3-target.png,250,3.515,2,3348,250,feet,jsons/v1_VE250_randls_15_rotated.json,837500,1098048,28,Man
78,270671,DepthScenes,duration_manipulation_targetAtFixation,jsons/v1_VE250_randls_15_rotated.json,http://54.235.29.9/FacialAge/BNav_EC2/DepthDuration/v2_depth_duration_MTurk/v2_DepthDuration_HTML.html#38,38,1600,757,1600,900,8-30-2022,10-16-49,79,depth_duration_stimuli/002344_2014-06-28_20-06-29_260595134347_rgbf000030-resize_1/002344_2014-06-28_20-06-29_260595134347_rgbf000030-resize_1-target.png,250,1.5795,5,4269,248,feet,jsons/v1_VE250_randls_15_rotated.json,837500,1098048,28,Man
79,270671,DepthScenes,duration_manipulation_targetAtFixation,jsons/v1_VE250_randls_15_rotated.json,http://54.235.29.9/FacialAge/BNav_EC2/DepthDuration/v2_depth_duration_MTurk/v2_DepthDuration_HTML.html#38,38,1600,757,1600,900,8-30-2022,10-16-49,80,depth_duration_stimuli/002725_2014-06-22_11-47-51_094959634447_rgbf000070-resize_1/002725_2014-06-22_11-47-51_094959634447_rgbf000070-resize_1-target.png,250,2.195,5,2996,250,feet,jsons/v1_VE250_randls_15_rotated.json,837500,1098048,28,Man
80,270671,DepthScenes,duration_manipulation_targetAtFixation,jsons/v1_VE250_randls_15_rotated.json,http://54.235.29.9/FacialAge/BNav_EC2/DepthDuration/v2_depth_duration_MTurk/v2_DepthDuration_HTML.html#38,38,1600,757,1600,900,8-30-2022,10-16-49,81,depth_duration_stimuli/003587_2014-05-23_16-48-02_094959634447_rgbf002384-resize_2/003587_2014-05-23_16-48-02_094959634447_rgbf002384-resize_2-target.png,250,1.357,5,3379,250,feet,jsons/v1_VE250_randls_15_rotated.json,837500,1098048,28,Man
81,270671,DepthScenes,duration_manipulation_targetAtFixation,jsons/v1_VE250_randls_15_rotated.json,http://54.235.29.9/FacialAge/BNav_EC2/DepthDuration/v2_depth_duration_MTurk/v2_DepthDuration_HTML.html#38,38,1600,757,1600,900,8-30-2022,10-16-49,82,depth_duration_stimuli/001167_2014-06-17_15-38-07_260595134347_rgbf000108-resize_0/001167_2014-06-17_15-38-07_260595134347_rgbf000108-resize_0-target.png,250,1.8505,4,3278,249,feet,jsons/v1_VE250_randls_15_rotated.json,837500,1098048,28,Man
82,270671,DepthScenes,duration_manipulation_targetAtFixation,jsons/v1_VE250_randls_15_rotated.json,http://54.235.29.9/FacialAge/BNav_EC2/DepthDuration/v2_depth_duration_MTurk/v2_DepthDuration_HTML.html#38,38,1600,757,1600,900,8-30-2022,10-16-49,83,depth_duration_stimuli/000556_2014-06-09_22-42-56_260595134347_rgbf000214-resize_1/000556_2014-06-09_22-42-56_260595134347_rgbf000214-resize_1-target.png,250,4.8415,4,3459,250,feet,jsons/v1_VE250_randls_15_rotated.json,837500,1098048,28,Man
83,270671,DepthScenes,duration_manipulation_targetAtFixation,jsons/v1_VE250_randls_15_rotated.json,http://54.235.29.9/FacialAge/BNav_EC2/DepthDuration/v2_depth_duration_MTurk/v2_DepthDuration_HTML.html#38,38,1600,757,1600,900,8-30-2022,10-16-49,84,depth_duration_stimuli/001158_2014-06-17_15-32-16_260595134347_rgbf000138-resize_2/001158_2014-06-17_15-32-16_260595134347_rgbf000138-resize_2-target.png,250,4.5315,6,3758,250,feet,jsons/v1_VE250_randls_15_rotated.json,837500,1098048,28,Man
84,270671,DepthScenes,duration_manipulation_targetAtFixation,jsons/v1_VE250_randls_15_rotated.json,http://54.235.29.9/FacialAge/BNav_EC2/DepthDuration/v2_depth_duration_MTurk/v2_DepthDuration_HTML.html#38,38,1600,757,1600,900,8-30-2022,10-16-49,85,depth_duration_stimuli/002758_2014-06-22_19-11-20_094959634447_rgbf000128-resize_1/002758_2014-06-22_19-11-20_094959634447_rgbf000128-resize_1-target.png,250,2.555,5,3279,250,feet,jsons/v1_VE250_randls_15_rotated.json,837500,1098048,28,Man
85,270671,DepthScenes,duration_manipulation_targetAtFixation,jsons/v1_VE250_randls_15_rotated.json,http://54.235.29.9/FacialAge/BNav_EC2/DepthDuration/v2_depth_duration_MTurk/v2_DepthDuration_HTML.html#38,38,1600,757,1600,900,8-30-2022,10-16-49,86,depth_duration_stimuli/002630_2014-06-24_14-47-50_094959634447_rgbf000055-resize_1/002630_2014-06-24_14-47-50_094959634447_rgbf000055-resize_1-target.png,250,3.0095,5,3358,249,feet,jsons/v1_VE250_randls_15_rotated.json,837500,1098048,28,Man
86,270671,DepthScenes,duration_manipulation_targetAtFixation,jsons/v1_VE250_randls_15_rotated.json,http://54.235.29.9/FacialAge/BNav_EC2/DepthDuration/v2_depth_duration_MTurk/v2_DepthDuration_HTML.html#38,38,1600,757,1600,900,8-30-2022,10-16-49,87,depth_duration_stimuli/002425_2014-06-28_20-27-29_260595134347_rgbf000031-resize_8/002425_2014-06-28_20-27-29_260595134347_rgbf000031-resize_8-target.png,250,3.8960000000000004,5,3697,249,feet,jsons/v1_VE250_randls_15_rotated.json,837500,1098048,28,Man
87,270671,DepthScenes,duration_manipulation_targetAtFixation,jsons/v1_VE250_randls_15_rotated.json,http://54.235.29.9/FacialAge/BNav_EC2/DepthDuration/v2_depth_duration_MTurk/v2_DepthDuration_HTML.html#38,38,1600,757,1600,900,8-30-2022,10-16-49,88,depth_duration_stimuli/000642_2014-06-08_16-59-25_260595134347_rgbf000098-resize_2/000642_2014-06-08_16-59-25_260595134347_rgbf000098-resize_2-target.png,250,2.8815,6,3538,251,feet,jsons/v1_VE250_randls_15_rotated.json,837500,1098048,28,Man
88,270671,DepthScenes,duration_manipulation_targetAtFixation,jsons/v1_VE250_randls_15_rotated.json,http://54.235.29.9/FacialAge/BNav_EC2/DepthDuration/v2_depth_duration_MTurk/v2_DepthDuration_HTML.html#38,38,1600,757,1600,900,8-30-2022,10-16-49,89,depth_duration_stimuli/001828_2014-06-26_21-40-03_260595134347_rgbf000024-resize_0/001828_2014-06-26_21-40-03_260595134347_rgbf000024-resize_0-target.png,250,4.8260000000000005,2,3698,250,feet,jsons/v1_VE250_randls_15_rotated.json,837500,1098048,28,Man
89,270671,DepthScenes,duration_manipulation_targetAtFixation,jsons/v1_VE250_randls_15_rotated.json,http://54.235.29.9/FacialAge/BNav_EC2/DepthDuration/v2_depth_duration_MTurk/v2_DepthDuration_HTML.html#38,38,1600,757,1600,900,8-30-2022,10-16-49,90,depth_duration_stimuli/000009_2014-05-26_14-32-05_260595134347_rgbf000034-resize_3/000009_2014-05-26_14-32-05_260595134347_rgbf000034-resize_3-target.png,250,3.8715,5,3829,251,feet,jsons/v1_VE250_randls_15_rotated.json,837500,1098048,28,Man
90,270671,DepthScenes,duration_manipulation_targetAtFixation,jsons/v1_VE250_randls_15_rotated.json,http://54.235.29.9/FacialAge/BNav_EC2/DepthDuration/v2_depth_duration_MTurk/v2_DepthDuration_HTML.html#38,38,1600,757,1600,900,8-30-2022,10-16-49,91,depth_duration_stimuli/000103_2014-05-14_22-01-17_260595134347_rgbf000152-resize_5/000103_2014-05-14_22-01-17_260595134347_rgbf000152-resize_5-target.png,250,1.993,5,3467,250,feet,jsons/v1_VE250_randls_15_rotated.json,837500,1098048,28,Man
91,270671,DepthScenes,duration_manipulation_targetAtFixation,jsons/v1_VE250_randls_15_rotated.json,http://54.235.29.9/FacialAge/BNav_EC2/DepthDuration/v2_depth_duration_MTurk/v2_DepthDuration_HTML.html#38,38,1600,757,1600,900,8-30-2022,10-16-49,92,depth_duration_stimuli/001555_2014-06-20_17-12-10_260595134347_rgbf000065-resize_4/001555_2014-06-20_17-12-10_260595134347_rgbf000065-resize_4-target.png,250,1.633,5,4459,250,feet,jsons/v1_VE250_randls_15_rotated.json,837500,1098048,28,Man
92,270671,DepthScenes,duration_manipulation_targetAtFixation,jsons/v1_VE250_randls_15_rotated.json,http://54.235.29.9/FacialAge/BNav_EC2/DepthDuration/v2_depth_duration_MTurk/v2_DepthDuration_HTML.html#38,38,1600,757,1600,900,8-30-2022,10-16-49,93,depth_duration_stimuli/000943_2014-06-09_19-31-07_260595134347_rgbf000128-resize_1/000943_2014-06-09_19-31-07_260595134347_rgbf000128-resize_1-target.png,250,1.9765,5,3340,249,feet,jsons/v1_VE250_randls_15_rotated.json,837500,1098048,28,Man
93,270671,DepthScenes,duration_manipulation_targetAtFixation,jsons/v1_VE250_randls_15_rotated.json,http://54.235.29.9/FacialAge/BNav_EC2/DepthDuration/v2_depth_duration_MTurk/v2_DepthDuration_HTML.html#38,38,1600,757,1600,900,8-30-2022,10-16-49,94,depth_duration_stimuli/003070_2014-06-15_14-58-27_094959634447_rgbf000150-resize_3/003070_2014-06-15_14-58-27_094959634447_rgbf000150-resize_3-target.png,250,2.9415,6,4643,250,feet,jsons/v1_VE250_randls_15_rotated.json,837500,1098048,28,Man
94,270671,DepthScenes,duration_manipulation_targetAtFixation,jsons/v1_VE250_randls_15_rotated.json,http://54.235.29.9/FacialAge/BNav_EC2/DepthDuration/v2_depth_duration_MTurk/v2_DepthDuration_HTML.html#38,38,1600,757,1600,900,8-30-2022,10-16-49,95,depth_duration_stimuli/003338_2014-05-20_11-01-23_094959634447_rgbf000051-resize_6/003338_2014-05-20_11-01-23_094959634447_rgbf000051-resize_6-target.png,250,1.693,5,3373,251,feet,jsons/v1_VE250_randls_15_rotated.json,837500,1098048,28,Man
95,270671,DepthScenes,duration_manipulation_targetAtFixation,jsons/v1_VE250_randls_15_rotated.json,http://54.235.29.9/FacialAge/BNav_EC2/DepthDuration/v2_depth_duration_MTurk/v2_DepthDuration_HTML.html#38,38,1600,757,1600,900,8-30-2022,10-16-49,96,depth_duration_stimuli/002509_2014-06-24_13-19-22_094959634447_rgbf000077-resize_0/002509_2014-06-24_13-19-22_094959634447_rgbf000077-resize_0-target.png,250,1.3065,5,4543,250,feet,jsons/v1_VE250_randls_15_rotated.json,837500,1098048,28,Man
96,270671,DepthScenes,duration_manipulation_targetAtFixation,jsons/v1_VE250_randls_15_rotated.json,http://54.235.29.9/FacialAge/BNav_EC2/DepthDuration/v2_depth_duration_MTurk/v2_DepthDuration_HTML.html#38,38,1600,757,1600,900,8-30-2022,10-16-49,97,depth_duration_stimuli/002660_2014-06-13_15-44-18_094959634447_rgbf001878-resize_2/002660_2014-06-13_15-44-18_094959634447_rgbf001878-resize_2-target.png,250,3.576,5,3151,249,feet,jsons/v1_VE250_randls_15_rotated.json,837500,1098048,28,Man
97,270671,DepthScenes,duration_manipulation_targetAtFixation,jsons/v1_VE250_randls_15_rotated.json,http://54.235.29.9/FacialAge/BNav_EC2/DepthDuration/v2_depth_duration_MTurk/v2_DepthDuration_HTML.html#38,38,1600,757,1600,900,8-30-2022,10-16-49,98,depth_duration_stimuli/002153_2014-06-25_21-27-18_260595134347_rgbf000038-resize_5/002153_2014-06-25_21-27-18_260595134347_rgbf000038-resize_5-target.png,250,2.505,5,4738,250,feet,jsons/v1_VE250_randls_15_rotated.json,837500,1098048,28,Man
98,270671,DepthScenes,duration_manipulation_targetAtFixation,jsons/v1_VE250_randls_15_rotated.json,http://54.235.29.9/FacialAge/BNav_EC2/DepthDuration/v2_depth_duration_MTurk/v2_DepthDuration_HTML.html#38,38,1600,757,1600,900,8-30-2022,10-16-49,99,depth_duration_stimuli/001222_2014-06-17_16-24-06_260595134347_rgbf000073-resize_0/001222_2014-06-17_16-24-06_260595134347_rgbf000073-resize-original.jpg,250,1.4385,5,4960,251,feet,jsons/v1_VE250_randls_15_rotated.json,837500,1098048,28,Man
99,270671,DepthScenes,duration_manipulation_targetAtFixation,jsons/v1_VE250_randls_15_rotated.json,http://54.235.29.9/FacialAge/BNav_EC2/DepthDuration/v2_depth_duration_MTurk/v2_DepthDuration_HTML.html#38,38,1600,757,1600,900,8-30-2022,10-16-49,100,depth_duration_stimuli/001815_2014-06-26_20-52-55_260595134347_rgbf000020-resize_0/001815_2014-06-26_20-52-55_260595134347_rgbf000020-resize_0-target.png,250,3.3865,2,3859,251,feet,jsons/v1_VE250_randls_15_rotated.json,837500,1098048,28,Man
100,270671,DepthScenes,duration_manipulation_targetAtFixation,jsons/v1_VE250_randls_15_rotated.json,http://54.235.29.9/FacialAge/BNav_EC2/DepthDuration/v2_depth_duration_MTurk/v2_DepthDuration_HTML.html#38,38,1600,757,1600,900,8-30-2022,10-16-49,101,depth_duration_stimuli/001808_2014-06-26_20-50-58_260595134347_rgbf000029-resize_1/001808_2014-06-26_20-50-58_260595134347_rgbf000029-resize_1-target.png,250,4.249,5,3398,249,feet,jsons/v1_VE250_randls_15_rotated.json,837500,1098048,28,Man
101,270671,DepthScenes,duration_manipulation_targetAtFixation,jsons/v1_VE250_randls_15_rotated.json,http://54.235.29.9/FacialAge/BNav_EC2/DepthDuration/v2_depth_duration_MTurk/v2_DepthDuration_HTML.html#38,38,1600,757,1600,900,8-30-2022,10-16-49,102,depth_duration_stimuli/000549_2014-06-08_22-10-24_260595134347_rgbf000247-resize_3/000549_2014-06-08_22-10-24_260595134347_rgbf000247-resize_3-target.png,250,1.841,5,3659,249,feet,jsons/v1_VE250_randls_15_rotated.json,837500,1098048,28,Man
102,270671,DepthScenes,duration_manipulation_targetAtFixation,jsons/v1_VE250_randls_15_rotated.json,http://54.235.29.9/FacialAge/BNav_EC2/DepthDuration/v2_depth_duration_MTurk/v2_DepthDuration_HTML.html#38,38,1600,757,1600,900,8-30-2022,10-16-49,103,depth_duration_stimuli/001055_2014-06-08_18-45-35_260595134347_rgbf000111-resize_4/001055_2014-06-08_18-45-35_260595134347_rgbf000111-resize_4-target.png,250,2.4290000000000003,2,6872,249,feet,jsons/v1_VE250_randls_15_rotated.json,837500,1098048,28,Man
103,270671,DepthScenes,duration_manipulation_targetAtFixation,jsons/v1_VE250_randls_15_rotated.json,http://54.235.29.9/FacialAge/BNav_EC2/DepthDuration/v2_depth_duration_MTurk/v2_DepthDuration_HTML.html#38,38,1600,757,1600,900,8-30-2022,10-16-49,104,depth_duration_stimuli/002949_2014-06-26_15-57-42_094959634447_rgbf000079-resize_1/002949_2014-06-26_15-57-42_094959634447_rgbf000079-resize_1-target.png,250,1.8915,5,3323,250,feet,jsons/v1_VE250_randls_15_rotated.json,837500,1098048,28,Man
104,270671,DepthScenes,duration_manipulation_targetAtFixation,jsons/v1_VE250_randls_15_rotated.json,http://54.235.29.9/FacialAge/BNav_EC2/DepthDuration/v2_depth_duration_MTurk/v2_DepthDuration_HTML.html#38,38,1600,757,1600,900,8-30-2022,10-16-49,105,depth_duration_stimuli/000522_2014-06-08_13-35-06_260595134347_rgbf000244-resize_1/000522_2014-06-08_13-35-06_260595134347_rgbf000244-resize_1-target.png,250,2.3715,6,3760,250,feet,jsons/v1_VE250_randls_15_rotated.json,837500,1098048,28,Man
105,270671,DepthScenes,duration_manipulation_targetAtFixation,jsons/v1_VE250_randls_15_rotated.json,http://54.235.29.9/FacialAge/BNav_EC2/DepthDuration/v2_depth_duration_MTurk/v2_DepthDuration_HTML.html#38,38,1600,757,1600,900,8-30-2022,10-16-49,106,depth_duration_stimuli/001584_2014-06-20_11-07-43_260595134347_rgbf000002-resize_1/001584_2014-06-20_11-07-43_260595134347_rgbf000002-resize_1-target.png,250,3.53,4,3659,251,feet,jsons/v1_VE250_randls_15_rotated.json,837500,1098048,28,Man
106,270671,DepthScenes,duration_manipulation_targetAtFixation,jsons/v1_VE250_randls_15_rotated.json,http://54.235.29.9/FacialAge/BNav_EC2/DepthDuration/v2_depth_duration_MTurk/v2_DepthDuration_HTML.html#38,38,1600,757,1600,900,8-30-2022,10-16-49,107,depth_duration_stimuli/003621_2014-05-23_18-06-08_094959634447_rgbf000101-resize_1/003621_2014-05-23_18-06-08_094959634447_rgbf000101-resize_1-target.png,250,3.9835,4,2933,251,feet,jsons/v1_VE250_randls_15_rotated.json,837500,1098048,28,Man
107,270671,DepthScenes,duration_manipulation_targetAtFixation,jsons/v1_VE250_randls_15_rotated.json,http://54.235.29.9/FacialAge/BNav_EC2/DepthDuration/v2_depth_duration_MTurk/v2_DepthDuration_HTML.html#38,38,1600,757,1600,900,8-30-2022,10-16-49,108,depth_duration_stimuli/002637_2014-06-24_14-51-13_094959634447_rgbf000066-resize_4/002637_2014-06-24_14-51-13_094959634447_rgbf000066-resize_4-target.png,250,1.9955,5,3825,250,feet,jsons/v1_VE250_randls_15_rotated.json,837500,1098048,28,Man
108,270671,DepthScenes,duration_manipulation_targetAtFixation,jsons/v1_VE250_randls_15_rotated.json,http://54.235.29.9/FacialAge/BNav_EC2/DepthDuration/v2_depth_duration_MTurk/v2_DepthDuration_HTML.html#38,38,1600,757,1600,900,8-30-2022,10-16-49,109,depth_duration_stimuli/003534_2014-05-22_15-06-10_094959634447_rgbf000102-resize_4/003534_2014-05-22_15-06-10_094959634447_rgbf000102-resize_4-target.png,250,1.426,6,4140,249,feet,jsons/v1_VE250_randls_15_rotated.json,837500,1098048,28,Man
109,270671,DepthScenes,duration_manipulation_targetAtFixation,jsons/v1_VE250_randls_15_rotated.json,http://54.235.29.9/FacialAge/BNav_EC2/DepthDuration/v2_depth_duration_MTurk/v2_DepthDuration_HTML.html#38,38,1600,757,1600,900,8-30-2022,10-16-49,110,depth_duration_stimuli/003495_2014-05-21_16-01-51_094959634447_rgbf000100-resize_3/003495_2014-05-21_16-01-51_094959634447_rgbf000100-resize_3-target.png,250,1.6255,4,3417,251,feet,jsons/v1_VE250_randls_15_rotated.json,837500,1098048,28,Man
110,270671,DepthScenes,duration_manipulation_targetAtFixation,jsons/v1_VE250_randls_15_rotated.json,http://54.235.29.9/FacialAge/BNav_EC2/DepthDuration/v2_depth_duration_MTurk/v2_DepthDuration_HTML.html#38,38,1600,757,1600,900,8-30-2022,10-16-49,111,depth_duration_stimuli/001244_2014-06-17_16-47-45_260595134347_rgbf000030-resize_4/001244_2014-06-17_16-47-45_260595134347_rgbf000030-resize_4-target.png,250,2.0425,4,4119,250,feet,jsons/v1_VE250_randls_15_rotated.json,837500,1098048,28,Man
111,270671,DepthScenes,duration_manipulation_targetAtFixation,jsons/v1_VE250_randls_15_rotated.json,http://54.235.29.9/FacialAge/BNav_EC2/DepthDuration/v2_depth_duration_MTurk/v2_DepthDuration_HTML.html#38,38,1600,757,1600,900,8-30-2022,10-16-49,112,depth_duration_stimuli/000665_2014-06-09_20-42-35_260595134347_rgbf000110-resize_1/000665_2014-06-09_20-42-35_260595134347_rgbf000110-resize_1-target.png,250,3.057,4,6416,250,feet,jsons/v1_VE250_randls_15_rotated.json,837500,1098048,28,Man
112,270671,DepthScenes,duration_manipulation_targetAtFixation,jsons/v1_VE250_randls_15_rotated.json,http://54.235.29.9/FacialAge/BNav_EC2/DepthDuration/v2_depth_duration_MTurk/v2_DepthDuration_HTML.html#38,38,1600,757,1600,900,8-30-2022,10-16-49,113,depth_duration_stimuli/001150_2014-06-17_15-27-34_260595134347_rgbf000108-resize_2/001150_2014-06-17_15-27-34_260595134347_rgbf000108-resize_2-target.png,250,4.0325,5,4123,248,feet,jsons/v1_VE250_randls_15_rotated.json,837500,1098048,28,Man
113,270671,DepthScenes,duration_manipulation_targetAtFixation,jsons/v1_VE250_randls_15_rotated.json,http://54.235.29.9/FacialAge/BNav_EC2/DepthDuration/v2_depth_duration_MTurk/v2_DepthDuration_HTML.html#38,38,1600,757,1600,900,8-30-2022,10-16-49,114,depth_duration_stimuli/002323_2014-06-28_20-01-54_260595134347_rgbf000051-resize_4/002323_2014-06-28_20-01-54_260595134347_rgbf000051-resize_4-target.png,250,3.7310000000000003,5,11617,249,feet,jsons/v1_VE250_randls_15_rotated.json,837500,1098048,28,Man
114,270671,DepthScenes,duration_manipulation_targetAtFixation,jsons/v1_VE250_randls_15_rotated.json,http://54.235.29.9/FacialAge/BNav_EC2/DepthDuration/v2_depth_duration_MTurk/v2_DepthDuration_HTML.html#38,38,1600,757,1600,900,8-30-2022,10-16-49,115,depth_duration_stimuli/000917_2014-06-09_22-45-29_260595134347_rgbf000149-resize_3/000917_2014-06-09_22-45-29_260595134347_rgbf000149-resize_3-target.png,250,4.1865,4,3577,249,feet,jsons/v1_VE250_randls_15_rotated.json,837500,1098048,28,Man
115,270671,DepthScenes,duration_manipulation_targetAtFixation,jsons/v1_VE250_randls_15_rotated.json,http://54.235.29.9/FacialAge/BNav_EC2/DepthDuration/v2_depth_duration_MTurk/v2_DepthDuration_HTML.html#38,38,1600,757,1600,900,8-30-2022,10-16-49,116,depth_duration_stimuli/002678_2014-06-13_16-15-32_094959634447_rgbf000151-resize_6/002678_2014-06-13_16-15-32_094959634447_rgbf000151-resize_6-target.png,250,2.1830000000000003,5,3659,251,feet,jsons/v1_VE250_randls_15_rotated.json,837500,1098048,28,Man
116,270671,DepthScenes,duration_manipulation_targetAtFixation,jsons/v1_VE250_randls_15_rotated.json,http://54.235.29.9/FacialAge/BNav_EC2/DepthDuration/v2_depth_duration_MTurk/v2_DepthDuration_HTML.html#38,38,1600,757,1600,900,8-30-2022,10-16-49,117,depth_duration_stimuli/000368_2014-06-09_15-53-01_260595134347_rgbf000155-resize_2/000368_2014-06-09_15-53-01_260595134347_rgbf000155-resize_2-target.png,250,2.4859999999999998,4,3658,250,feet,jsons/v1_VE250_randls_15_rotated.json,837500,1098048,28,Man
117,270671,DepthScenes,duration_manipulation_targetAtFixation,jsons/v1_VE250_randls_15_rotated.json,http://54.235.29.9/FacialAge/BNav_EC2/DepthDuration/v2_depth_duration_MTurk/v2_DepthDuration_HTML.html#38,38,1600,757,1600,900,8-30-2022,10-16-49,118,depth_duration_stimuli/002340_2014-06-28_20-05-46_260595134347_rgbf000113-resize_0/002340_2014-06-28_20-05-46_260595134347_rgbf000113-resize_0-target.png,250,2.4735,4,3679,250,feet,jsons/v1_VE250_randls_15_rotated.json,837500,1098048,28,Man
118,270671,DepthScenes,duration_manipulation_targetAtFixation,jsons/v1_VE250_randls_15_rotated.json,http://54.235.29.9/FacialAge/BNav_EC2/DepthDuration/v2_depth_duration_MTurk/v2_DepthDuration_HTML.html#38,38,1600,757,1600,900,8-30-2022,10-16-49,119,depth_duration_stimuli/001016_2014-06-09_16-16-10_260595134347_rgbf000112-resize_5/001016_2014-06-09_16-16-10_260595134347_rgbf000112-resize_5-target.png,250,1.6565,6,3158,250,feet,jsons/v1_VE250_randls_15_rotated.json,837500,1098048,28,Man
119,270671,DepthScenes,duration_manipulation_targetAtFixation,jsons/v1_VE250_randls_15_rotated.json,http://54.235.29.9/FacialAge/BNav_EC2/DepthDuration/v2_depth_duration_MTurk/v2_DepthDuration_HTML.html#38,38,1600,757,1600,900,8-30-2022,10-16-49,120,depth_duration_stimuli/000787_2014-06-08_22-33-53_260595134347_rgbf000175-resize_1/000787_2014-06-08_22-33-53_260595134347_rgbf000175-resize-original.jpg,250,4.784,5,3439,251,feet,jsons/v1_VE250_randls_15_rotated.json,837500,1098048,28,Man
120,270671,DepthScenes,duration_manipulation_targetAtFixation,jsons/v1_VE250_randls_15_rotated.json,http://54.235.29.9/FacialAge/BNav_EC2/DepthDuration/v2_depth_duration_MTurk/v2_DepthDuration_HTML.html#38,38,1600,757,1600,900,8-30-2022,10-16-49,121,depth_duration_stimuli/003079_2014-06-15_15-18-20_094959634447_rgbf000152-resize_8/003079_2014-06-15_15-18-20_094959634447_rgbf000152-resize_8-target.png,250,2.8775,4,5578,251,feet,jsons/v1_VE250_randls_15_rotated.json,837500,1098048,28,Man
121,270671,DepthScenes,duration_manipulation_targetAtFixation,jsons/v1_VE250_randls_15_rotated.json,http://54.235.29.9/FacialAge/BNav_EC2/DepthDuration/v2_depth_duration_MTurk/v2_DepthDuration_HTML.html#38,38,1600,757,1600,900,8-30-2022,10-16-49,122,depth_duration_stimuli/000506_2014-06-08_23-21-00_260595134347_rgbf000070-resize_7/000506_2014-06-08_23-21-00_260595134347_rgbf000070-resize_7-target.png,250,4.0585,6,3057,250,feet,jsons/v1_VE250_randls_15_rotated.json,837500,1098048,28,Man
122,270671,DepthScenes,duration_manipulation_targetAtFixation,jsons/v1_VE250_randls_15_rotated.json,http://54.235.29.9/FacialAge/BNav_EC2/DepthDuration/v2_depth_duration_MTurk/v2_DepthDuration_HTML.html#38,38,1600,757,1600,900,8-30-2022,10-16-49,123,depth_duration_stimuli/003129_2014-05-12_10-48-10_094959634447_rgbf000100-resize_0/003129_2014-05-12_10-48-10_094959634447_rgbf000100-resize_0-target.png,250,4.9305,5,3339,250,feet,jsons/v1_VE250_randls_15_rotated.json,837500,1098048,28,Man
123,270671,DepthScenes,duration_manipulation_targetAtFixation,jsons/v1_VE250_randls_15_rotated.json,http://54.235.29.9/FacialAge/BNav_EC2/DepthDuration/v2_depth_duration_MTurk/v2_DepthDuration_HTML.html#38,38,1600,757,1600,900,8-30-2022,10-16-49,124,depth_duration_stimuli/000414_2014-06-04_19-49-13_260595134347_rgbf000044-resize_0/000414_2014-06-04_19-49-13_260595134347_rgbf000044-resize_0-target.png,250,4.329,8,3299,251,feet,jsons/v1_VE250_randls_15_rotated.json,837500,1098048,28,Man
124,270671,DepthScenes,duration_manipulation_targetAtFixation,jsons/v1_VE250_randls_15_rotated.json,http://54.235.29.9/FacialAge/BNav_EC2/DepthDuration/v2_depth_duration_MTurk/v2_DepthDuration_HTML.html#38,38,1600,757,1600,900,8-30-2022,10-16-49,125,depth_duration_stimuli/002875_2014-06-01_15-19-00_094959634447_rgbf000151-resize_1/002875_2014-06-01_15-19-00_094959634447_rgbf000151-resize_1-target.png,250,1.9675,5,3551,250,feet,jsons/v1_VE250_randls_15_rotated.json,837500,1098048,28,Man
125,270671,DepthScenes,duration_manipulation_targetAtFixation,jsons/v1_VE250_randls_15_rotated.json,http://54.235.29.9/FacialAge/BNav_EC2/DepthDuration/v2_depth_duration_MTurk/v2_DepthDuration_HTML.html#38,38,1600,757,1600,900,8-30-2022,10-16-49,126,depth_duration_stimuli/001011_2014-06-08_23-18-54_260595134347_rgbf000044-resize_4/001011_2014-06-08_23-18-54_260595134347_rgbf000044-resize_4-target.png,250,2.4730000000000003,5,3151,251,feet,jsons/v1_VE250_randls_15_rotated.json,837500,1098048,28,Man
126,270671,DepthScenes,duration_manipulation_targetAtFixation,jsons/v1_VE250_randls_15_rotated.json,http://54.235.29.9/FacialAge/BNav_EC2/DepthDuration/v2_depth_duration_MTurk/v2_DepthDuration_HTML.html#38,38,1600,757,1600,900,8-30-2022,10-16-49,127,depth_duration_stimuli/003423_2014-05-21_10-23-26_094959634447_rgbf002665-resize_2/003423_2014-05-21_10-23-26_094959634447_rgbf002665-resize_2-target.png,250,3.2575,5,3206,250,feet,jsons/v1_VE250_randls_15_rotated.json,837500,1098048,28,Man
127,270671,DepthScenes,duration_manipulation_targetAtFixation,jsons/v1_VE250_randls_15_rotated.json,http://54.235.29.9/FacialAge/BNav_EC2/DepthDuration/v2_depth_duration_MTurk/v2_DepthDuration_HTML.html#38,38,1600,757,1600,900,8-30-2022,10-16-49,128,depth_duration_stimuli/002905_2014-06-03_18-04-43_094959634447_rgbf000151-resize_2/002905_2014-06-03_18-04-43_094959634447_rgbf000151-resize_2-target.png,250,2.0295,6,3649,250,feet,jsons/v1_VE250_randls_15_rotated.json,837500,1098048,28,Man
128,270671,DepthScenes,duration_manipulation_targetAtFixation,jsons/v1_VE250_randls_15_rotated.json,http://54.235.29.9/FacialAge/BNav_EC2/DepthDuration/v2_depth_duration_MTurk/v2_DepthDuration_HTML.html#38,38,1600,757,1600,900,8-30-2022,10-16-49,129,depth_duration_stimuli/002209_2014-06-28_18-36-10_260595134347_rgbf000051-resize_1/002209_2014-06-28_18-36-10_260595134347_rgbf000051-resize_1-target.png,250,2.057,5,7858,250,feet,jsons/v1_VE250_randls_15_rotated.json,837500,1098048,28,Man
129,270671,DepthScenes,duration_manipulation_targetAtFixation,jsons/v1_VE250_randls_15_rotated.json,http://54.235.29.9/FacialAge/BNav_EC2/DepthDuration/v2_depth_duration_MTurk/v2_DepthDuration_HTML.html#38,38,1600,757,1600,900,8-30-2022,10-16-49,130,depth_duration_stimuli/002763_2014-06-22_19-13-10_094959634447_rgbf000075-resize_4/002763_2014-06-22_19-13-10_094959634447_rgbf000075-resize_4-target.png,250,1.68375,4,3944,250,feet,jsons/v1_VE250_randls_15_rotated.json,837500,1098048,28,Man
130,270671,DepthScenes,duration_manipulation_targetAtFixation,jsons/v1_VE250_randls_15_rotated.json,http://54.235.29.9/FacialAge/BNav_EC2/DepthDuration/v2_depth_duration_MTurk/v2_DepthDuration_HTML.html#38,38,1600,757,1600,900,8-30-2022,10-16-49,131,depth_duration_stimuli/001617_2014-06-20_11-35-32_260595134347_rgbf000066-resize_1/001617_2014-06-20_11-35-32_260595134347_rgbf000066-resize_1-target.png,250,3.7910000000000004,5,3614,249,feet,jsons/v1_VE250_randls_15_rotated.json,837500,1098048,28,Man
131,270671,DepthScenes,duration_manipulation_targetAtFixation,jsons/v1_VE250_randls_15_rotated.json,http://54.235.29.9/FacialAge/BNav_EC2/DepthDuration/v2_depth_duration_MTurk/v2_DepthDuration_HTML.html#38,38,1600,757,1600,900,8-30-2022,10-16-49,132,depth_duration_stimuli/001806_2014-06-26_20-50-20_260595134347_rgbf000091-resize_1/001806_2014-06-26_20-50-20_260595134347_rgbf000091-resize_1-target.png,250,2.7305,5,3217,251,feet,jsons/v1_VE250_randls_15_rotated.json,837500,1098048,28,Man
132,270671,DepthScenes,duration_manipulation_targetAtFixation,jsons/v1_VE250_randls_15_rotated.json,http://54.235.29.9/FacialAge/BNav_EC2/DepthDuration/v2_depth_duration_MTurk/v2_DepthDuration_HTML.html#38,38,1600,757,1600,900,8-30-2022,10-16-49,133,depth_duration_stimuli/000742_2014-06-08_18-48-09_260595134347_rgbf000164-resize_4/000742_2014-06-08_18-48-09_260595134347_rgbf000164-resize_4-target.png,250,4.632,5,4019,249,feet,jsons/v1_VE250_randls_15_rotated.json,837500,1098048,28,Man
133,270671,DepthScenes,duration_manipulation_targetAtFixation,jsons/v1_VE250_randls_15_rotated.json,http://54.235.29.9/FacialAge/BNav_EC2/DepthDuration/v2_depth_duration_MTurk/v2_DepthDuration_HTML.html#38,38,1600,757,1600,900,8-30-2022,10-16-49,134,depth_duration_stimuli/001066_2014-06-08_22-03-20_260595134347_rgbf000066-resize_4/001066_2014-06-08_22-03-20_260595134347_rgbf000066-resize_4-target.png,250,4.2330000000000005,6,3259,251,feet,jsons/v1_VE250_randls_15_rotated.json,837500,1098048,28,Man
134,270671,DepthScenes,duration_manipulation_targetAtFixation,jsons/v1_VE250_randls_15_rotated.json,http://54.235.29.9/FacialAge/BNav_EC2/DepthDuration/v2_depth_duration_MTurk/v2_DepthDuration_HTML.html#38,38,1600,757,1600,900,8-30-2022,10-16-49,135,depth_duration_stimuli/000375_2014-06-08_11-17-29_260595134347_rgbf000133-resize_2/000375_2014-06-08_11-17-29_260595134347_rgbf000133-resize-original.jpg,250,4.718,0,3179,250,feet,jsons/v1_VE250_randls_15_rotated.json,837500,1098048,28,Man
135,270671,DepthScenes,duration_manipulation_targetAtFixation,jsons/v1_VE250_randls_15_rotated.json,http://54.235.29.9/FacialAge/BNav_EC2/DepthDuration/v2_depth_duration_MTurk/v2_DepthDuration_HTML.html#38,38,1600,757,1600,900,8-30-2022,10-16-49,136,depth_duration_stimuli/000502_2014-06-08_23-02-32_260595134347_rgbf000063-resize_4/000502_2014-06-08_23-02-32_260595134347_rgbf000063-resize_4-target.png,250,2.431,2,3099,250,feet,jsons/v1_VE250_randls_15_rotated.json,837500,1098048,28,Man
136,270671,DepthScenes,duration_manipulation_targetAtFixation,jsons/v1_VE250_randls_15_rotated.json,http://54.235.29.9/FacialAge/BNav_EC2/DepthDuration/v2_depth_duration_MTurk/v2_DepthDuration_HTML.html#38,38,1600,757,1600,900,8-30-2022,10-16-49,137,depth_duration_stimuli/001199_2014-06-17_16-03-48_260595134347_rgbf000077-resize_0/001199_2014-06-17_16-03-48_260595134347_rgbf000077-resize_0-target.png,250,3.4375,2,2819,249,feet,jsons/v1_VE250_randls_15_rotated.json,837500,1098048,28,Man
137,270671,DepthScenes,duration_manipulation_targetAtFixation,jsons/v1_VE250_randls_15_rotated.json,http://54.235.29.9/FacialAge/BNav_EC2/DepthDuration/v2_depth_duration_MTurk/v2_DepthDuration_HTML.html#38,38,1600,757,1600,900,8-30-2022,10-16-49,138,depth_duration_stimuli/002657_2014-06-13_15-29-54_094959634447_rgbf000150-resize_1/002657_2014-06-13_15-29-54_094959634447_rgbf000150-resize_1-target.png,250,4.919,4,3219,251,feet,jsons/v1_VE250_randls_15_rotated.json,837500,1098048,28,Man
138,270671,DepthScenes,duration_manipulation_targetAtFixation,jsons/v1_VE250_randls_15_rotated.json,http://54.235.29.9/FacialAge/BNav_EC2/DepthDuration/v2_depth_duration_MTurk/v2_DepthDuration_HTML.html#38,38,1600,757,1600,900,8-30-2022,10-16-49,139,depth_duration_stimuli/002375_2014-06-28_20-13-44_260595134347_rgbf000032-resize_1/002375_2014-06-28_20-13-44_260595134347_rgbf000032-resize_1-target.png,250,4.0175,5,3232,250,feet,jsons/v1_VE250_randls_15_rotated.json,837500,1098048,28,Man
139,270671,DepthScenes,duration_manipulation_targetAtFixation,jsons/v1_VE250_randls_15_rotated.json,http://54.235.29.9/FacialAge/BNav_EC2/DepthDuration/v2_depth_duration_MTurk/v2_DepthDuration_HTML.html#38,38,1600,757,1600,900,8-30-2022,10-16-49,140,depth_duration_stimuli/003083_2014-06-15_15-21-03_094959634447_rgbf000063-resize_1/003083_2014-06-15_15-21-03_094959634447_rgbf000063-resize_1-target.png,250,4.1405,5,3446,248,feet,jsons/v1_VE250_randls_15_rotated.json,837500,1098048,28,Man
140,270671,DepthScenes,duration_manipulation_targetAtFixation,jsons/v1_VE250_randls_15_rotated.json,http://54.235.29.9/FacialAge/BNav_EC2/DepthDuration/v2_depth_duration_MTurk/v2_DepthDuration_HTML.html#38,38,1600,757,1600,900,8-30-2022,10-16-49,141,depth_duration_stimuli/000486_2014-06-09_20-47-20_260595134347_rgbf000143-resize_2/000486_2014-06-09_20-47-20_260595134347_rgbf000143-resize_2-target.png,250,4.8325,5,3278,249,feet,jsons/v1_VE250_randls_15_rotated.json,837500,1098048,28,Man
141,270671,DepthScenes,duration_manipulation_targetAtFixation,jsons/v1_VE250_randls_15_rotated.json,http://54.235.29.9/FacialAge/BNav_EC2/DepthDuration/v2_depth_duration_MTurk/v2_DepthDuration_HTML.html#38,38,1600,757,1600,900,8-30-2022,10-16-49,142,depth_duration_stimuli/003010_2014-06-15_12-54-35_094959634447_rgbf000112-resize_0/003010_2014-06-15_12-54-35_094959634447_rgbf000112-resize_0-target.png,250,3.1185,6,3224,250,feet,jsons/v1_VE250_randls_15_rotated.json,837500,1098048,28,Man
142,270671,DepthScenes,duration_manipulation_targetAtFixation,jsons/v1_VE250_randls_15_rotated.json,http://54.235.29.9/FacialAge/BNav_EC2/DepthDuration/v2_depth_duration_MTurk/v2_DepthDuration_HTML.html#38,38,1600,757,1600,900,8-30-2022,10-16-49,143,depth_duration_stimuli/001810_2014-06-26_20-51-35_260595134347_rgbf000040-resize_3/001810_2014-06-26_20-51-35_260595134347_rgbf000040-resize_3-target.png,250,2.2525,5,3255,251,feet,jsons/v1_VE250_randls_15_rotated.json,837500,1098048,28,Man
143,270671,DepthScenes,duration_manipulation_targetAtFixation,jsons/v1_VE250_randls_15_rotated.json,http://54.235.29.9/FacialAge/BNav_EC2/DepthDuration/v2_depth_duration_MTurk/v2_DepthDuration_HTML.html#38,38,1600,757,1600,900,8-30-2022,10-16-49,144,depth_duration_stimuli/000866_2014-06-09_20-45-42_260595134347_rgbf000139-resize_1/000866_2014-06-09_20-45-42_260595134347_rgbf000139-resize_1-target.png,250,3.2155,2,2877,249,feet,jsons/v1_VE250_randls_15_rotated.json,837500,1098048,28,Man
144,270671,DepthScenes,duration_manipulation_targetAtFixation,jsons/v1_VE250_randls_15_rotated.json,http://54.235.29.9/FacialAge/BNav_EC2/DepthDuration/v2_depth_duration_MTurk/v2_DepthDuration_HTML.html#38,38,1600,757,1600,900,8-30-2022,10-16-49,145,depth_duration_stimuli/002989_2014-06-15_12-25-03_094959634447_rgbf000150-resize_3/002989_2014-06-15_12-25-03_094959634447_rgbf000150-resize_3-target.png,250,4.1975,7,3280,250,feet,jsons/v1_VE250_randls_15_rotated.json,837500,1098048,28,Man
145,270671,DepthScenes,duration_manipulation_targetAtFixation,jsons/v1_VE250_randls_15_rotated.json,http://54.235.29.9/FacialAge/BNav_EC2/DepthDuration/v2_depth_duration_MTurk/v2_DepthDuration_HTML.html#38,38,1600,757,1600,900,8-30-2022,10-16-49,146,depth_duration_stimuli/002568_2014-06-24_13-59-21_094959634447_rgbf000062-resize_4/002568_2014-06-24_13-59-21_094959634447_rgbf000062-resize_4-target.png,250,3.015,8,3138,250,feet,jsons/v1_VE250_randls_15_rotated.json,837500,1098048,28,Man
146,270671,DepthScenes,duration_manipulation_targetAtFixation,jsons/v1_VE250_randls_15_rotated.json,http://54.235.29.9/FacialAge/BNav_EC2/DepthDuration/v2_depth_duration_MTurk/v2_DepthDuration_HTML.html#38,38,1600,757,1600,900,8-30-2022,10-16-49,147,depth_duration_stimuli/003492_2014-05-21_15-50-55_094959634447_rgbf000828-resize_1/003492_2014-05-21_15-50-55_094959634447_rgbf000828-resize_1-target.png,250,4.06875,6,3199,251,feet,jsons/v1_VE250_randls_15_rotated.json,837500,1098048,28,Man
147,270671,DepthScenes,duration_manipulation_targetAtFixation,jsons/v1_VE250_randls_15_rotated.json,http://54.235.29.9/FacialAge/BNav_EC2/DepthDuration/v2_depth_duration_MTurk/v2_DepthDuration_HTML.html#38,38,1600,757,1600,900,8-30-2022,10-16-49,148,depth_duration_stimuli/003081_2014-06-15_15-19-16_094959634447_rgbf000150-resize_1/003081_2014-06-15_15-19-16_094959634447_rgbf000150-resize_1-target.png,250,3.9125,2,2999,251,feet,jsons/v1_VE250_randls_15_rotated.json,837500,1098048,28,Man
148,270671,DepthScenes,duration_manipulation_targetAtFixation,jsons/v1_VE250_randls_15_rotated.json,http://54.235.29.9/FacialAge/BNav_EC2/DepthDuration/v2_depth_duration_MTurk/v2_DepthDuration_HTML.html#38,38,1600,757,1600,900,8-30-2022,10-16-49,149,depth_duration_stimuli/001417_2014-06-19_16-25-36_260595134347_rgbf000115-resize_5/001417_2014-06-19_16-25-36_260595134347_rgbf000115-resize_5-target.png,250,4.6255,3,3118,249,feet,jsons/v1_VE250_randls_15_rotated.json,837500,1098048,28,Man
149,270671,DepthScenes,duration_manipulation_targetAtFixation,jsons/v1_VE250_randls_15_rotated.json,http://54.235.29.9/FacialAge/BNav_EC2/DepthDuration/v2_depth_duration_MTurk/v2_DepthDuration_HTML.html#38,38,1600,757,1600,900,8-30-2022,10-16-49,150,depth_duration_stimuli/000635_2014-06-08_16-38-42_260595134347_rgbf000106-resize_1/000635_2014-06-08_16-38-42_260595134347_rgbf000106-resize_1-target.png,250,2.074,6,3239,250,feet,jsons/v1_VE250_randls_15_rotated.json,837500,1098048,28,Man
150,270671,DepthScenes,duration_manipulation_targetAtFixation,jsons/v1_VE250_randls_15_rotated.json,http://54.235.29.9/FacialAge/BNav_EC2/DepthDuration/v2_depth_duration_MTurk/v2_DepthDuration_HTML.html#38,38,1600,757,1600,900,8-30-2022,10-16-49,151,depth_duration_stimuli/002279_2014-06-28_18-55-32_260595134347_rgbf000040-resize_5/002279_2014-06-28_18-55-32_260595134347_rgbf000040-resize_5-target.png,250,1.5043333333333,2,3138,250,feet,jsons/v1_VE250_randls_15_rotated.json,837500,1098048,28,Man
151,270671,DepthScenes,duration_manipulation_targetAtFixation,jsons/v1_VE250_randls_15_rotated.json,http://54.235.29.9/FacialAge/BNav_EC2/DepthDuration/v2_depth_duration_MTurk/v2_DepthDuration_HTML.html#38,38,1600,757,1600,900,8-30-2022,10-16-49,152,depth_duration_stimuli/000569_2014-06-09_22-51-47_260595134347_rgbf000141-resize_3/000569_2014-06-09_22-51-47_260595134347_rgbf000141-resize-original.jpg,250,4.512,0,3177,249,feet,jsons/v1_VE250_randls_15_rotated.json,837500,1098048,28,Man
152,270671,DepthScenes,duration_manipulation_targetAtFixation,jsons/v1_VE250_randls_15_rotated.json,http://54.235.29.9/FacialAge/BNav_EC2/DepthDuration/v2_depth_duration_MTurk/v2_DepthDuration_HTML.html#38,38,1600,757,1600,900,8-30-2022,10-16-49,153,depth_duration_stimuli/002414_2014-06-28_20-24-58_260595134347_rgbf000067-resize_4/002414_2014-06-28_20-24-58_260595134347_rgbf000067-resize_4-target.png,250,4.363,4,3258,249,feet,jsons/v1_VE250_randls_15_rotated.json,837500,1098048,28,Man
153,270671,DepthScenes,duration_manipulation_targetAtFixation,jsons/v1_VE250_randls_15_rotated.json,http://54.235.29.9/FacialAge/BNav_EC2/DepthDuration/v2_depth_duration_MTurk/v2_DepthDuration_HTML.html#38,38,1600,757,1600,900,8-30-2022,10-16-49,154,depth_duration_stimuli/000773_2014-06-08_22-24-54_260595134347_rgbf000093-resize_1/000773_2014-06-08_22-24-54_260595134347_rgbf000093-resize_1-target.png,250,4.973,4,3239,251,feet,jsons/v1_VE250_randls_15_rotated.json,837500,1098048,28,Man
154,270671,DepthScenes,duration_manipulation_targetAtFixation,jsons/v1_VE250_randls_15_rotated.json,http://54.235.29.9/FacialAge/BNav_EC2/DepthDuration/v2_depth_duration_MTurk/v2_DepthDuration_HTML.html#38,38,1600,757,1600,900,8-30-2022,10-16-49,155,depth_duration_stimuli/002995_2014-06-15_12-31-26_094959634447_rgbf000150-resize_1/002995_2014-06-15_12-31-26_094959634447_rgbf000150-resize_1-target.png,250,3.8360000000000003,5,3048,251,feet,jsons/v1_VE250_randls_15_rotated.json,837500,1098048,28,Man
155,270671,DepthScenes,duration_manipulation_targetAtFixation,jsons/v1_VE250_randls_15_rotated.json,http://54.235.29.9/FacialAge/BNav_EC2/DepthDuration/v2_depth_duration_MTurk/v2_DepthDuration_HTML.html#38,38,1600,757,1600,900,8-30-2022,10-16-49,156,depth_duration_stimuli/002748_2014-06-22_19-07-22_094959634447_rgbf000078-resize_1/002748_2014-06-22_19-07-22_094959634447_rgbf000078-resize_1-target.png,250,4.6705,6,3411,252,feet,jsons/v1_VE250_randls_15_rotated.json,837500,1098048,28,Man
156,270671,DepthScenes,duration_manipulation_targetAtFixation,jsons/v1_VE250_randls_15_rotated.json,http://54.235.29.9/FacialAge/BNav_EC2/DepthDuration/v2_depth_duration_MTurk/v2_DepthDuration_HTML.html#38,38,1600,757,1600,900,8-30-2022,10-16-49,157,depth_duration_stimuli/000927_2014-06-09_16-32-30_260595134347_rgbf000123-resize_3/000927_2014-06-09_16-32-30_260595134347_rgbf000123-resize_3-target.png,250,2.6785,2,3138,251,feet,jsons/v1_VE250_randls_15_rotated.json,837500,1098048,28,Man
157,270671,DepthScenes,duration_manipulation_targetAtFixation,jsons/v1_VE250_randls_15_rotated.json,http://54.235.29.9/FacialAge/BNav_EC2/DepthDuration/v2_depth_duration_MTurk/v2_DepthDuration_HTML.html#38,38,1600,757,1600,900,8-30-2022,10-16-49,158,depth_duration_stimuli/001110_2014-06-15_17-25-28_260595134347_rgbf000150-resize_1/001110_2014-06-15_17-25-28_260595134347_rgbf000150-resize_1-target.png,250,1.7115,2,3421,251,feet,jsons/v1_VE250_randls_15_rotated.json,837500,1098048,28,Man
158,270671,DepthScenes,duration_manipulation_targetAtFixation,jsons/v1_VE250_randls_15_rotated.json,http://54.235.29.9/FacialAge/BNav_EC2/DepthDuration/v2_depth_duration_MTurk/v2_DepthDuration_HTML.html#38,38,1600,757,1600,900,8-30-2022,10-16-49,159,depth_duration_stimuli/001052_2014-06-08_18-24-54_260595134347_rgbf000130-resize_1/001052_2014-06-08_18-24-54_260595134347_rgbf000130-resize_1-target.png,250,4.1045,2,3616,249,feet,jsons/v1_VE250_randls_15_rotated.json,837500,1098048,28,Man
159,270671,DepthScenes,duration_manipulation_targetAtFixation,jsons/v1_VE250_randls_15_rotated.json,http://54.235.29.9/FacialAge/BNav_EC2/DepthDuration/v2_depth_duration_MTurk/v2_DepthDuration_HTML.html#38,38,1600,757,1600,900,8-30-2022,10-16-49,160,depth_duration_stimuli/002988_2014-06-15_12-24-20_094959634447_rgbf000150-resize_1/002988_2014-06-15_12-24-20_094959634447_rgbf000150-resize_1-target.png,250,4.7669999999999995,2,3038,250,feet,jsons/v1_VE250_randls_15_rotated.json,837500,1098048,28,Man
160,270671,DepthScenes,duration_manipulation_targetAtFixation,jsons/v1_VE250_randls_15_rotated.json,http://54.235.29.9/FacialAge/BNav_EC2/DepthDuration/v2_depth_duration_MTurk/v2_DepthDuration_HTML.html#38,38,1600,757,1600,900,8-30-2022,10-16-49,161,depth_duration_stimuli/001571_2014-06-20_17-21-32_260595134347_rgbf000089-resize_1/001571_2014-06-20_17-21-32_260595134347_rgbf000089-resize_1-target.png,250,1.86,2,3198,247,feet,jsons/v1_VE250_randls_15_rotated.json,837500,1098048,28,Man
161,270671,DepthScenes,duration_manipulation_targetAtFixation,jsons/v1_VE250_randls_15_rotated.json,http://54.235.29.9/FacialAge/BNav_EC2/DepthDuration/v2_depth_duration_MTurk/v2_DepthDuration_HTML.html#38,38,1600,757,1600,900,8-30-2022,10-16-49,162,depth_duration_stimuli/002272_2014-06-28_18-53-56_260595134347_rgbf000067-resize_2/002272_2014-06-28_18-53-56_260595134347_rgbf000067-resize_2-target.png,250,1.138,1,4619,249,feet,jsons/v1_VE250_randls_15_rotated.json,837500,1098048,28,Man
162,270671,DepthScenes,duration_manipulation_targetAtFixation,jsons/v1_VE250_randls_15_rotated.json,http://54.235.29.9/FacialAge/BNav_EC2/DepthDuration/v2_depth_duration_MTurk/v2_DepthDuration_HTML.html#38,38,1600,757,1600,900,8-30-2022,10-16-49,163,depth_duration_stimuli/002136_2014-06-25_21-18-03_260595134347_rgbf000109-resize_3/002136_2014-06-25_21-18-03_260595134347_rgbf000109-resize_3-target.png,250,1.9569999999999999,2,3298,249,feet,jsons/v1_VE250_randls_15_rotated.json,837500,1098048,28,Man
163,270671,DepthScenes,duration_manipulation_targetAtFixation,jsons/v1_VE250_randls_15_rotated.json,http://54.235.29.9/FacialAge/BNav_EC2/DepthDuration/v2_depth_duration_MTurk/v2_DepthDuration_HTML.html#38,38,1600,757,1600,900,8-30-2022,10-16-49,164,depth_duration_stimuli/002964_2014-06-08_17-46-11_094959634447_rgbf000091-resize_4/002964_2014-06-08_17-46-11_094959634447_rgbf000091-resize_4-target.png,250,1.6909999999999998,5,6000,250,feet,jsons/v1_VE250_randls_15_rotated.json,837500,1098048,28,Man
