,subjID,experimentName,versionName,sequenceName,url,selected_row,windowWidth,windowHeight,screenWidth,screenHeight,startDate,startTime,trial,stimulus,duration,actual_depth,depth_estimate,trial_RT,log_sceneDuration,unitSelection,seq_filepath,experimentTime,totalTime,age,gender
0,270708,DepthScenes,duration_manipulation_targetAtFixation,jsons/v1_VE1000_randls_60_rotated.json,http://54.235.29.9/FacialAge/BNav_EC2/DepthDuration/v2_depth_duration_MTurk/v2_DepthDuration_HTML.html#328,328,1440,757,1440,900,9-3-2022,10-2-23,1,depth_duration_stimuli/001032_2014-06-08_13-23-17_260595134347_rgbf000021-resize_3/001032_2014-06-08_13-23-17_260595134347_rgbf000021-resize_3-target.png,1000,3.2725,4,3306,1000,feet,jsons/v1_VE1000_randls_60_rotated.json,632533,729966,40,Man
1,270708,DepthScenes,duration_manipulation_targetAtFixation,jsons/v1_VE1000_randls_60_rotated.json,http://54.235.29.9/FacialAge/BNav_EC2/DepthDuration/v2_depth_duration_MTurk/v2_DepthDuration_HTML.html#328,328,1440,757,1440,900,9-3-2022,10-2-23,2,depth_duration_stimuli/001059_2014-06-08_21-53-27_260595134347_rgbf000061-resize_4/001059_2014-06-08_21-53-27_260595134347_rgbf000061-resize_4-target.png,1000,2.4185,6,3535,996,feet,jsons/v1_VE1000_randls_60_rotated.json,632533,729966,40,Man
2,270708,DepthScenes,duration_manipulation_targetAtFixation,jsons/v1_VE1000_randls_60_rotated.json,http://54.235.29.9/FacialAge/BNav_EC2/DepthDuration/v2_depth_duration_MTurk/v2_DepthDuration_HTML.html#328,328,1440,757,1440,900,9-3-2022,10-2-23,3,depth_duration_stimuli/003083_2014-06-15_15-21-03_094959634447_rgbf000063-resize_1/003083_2014-06-15_15-21-03_094959634447_rgbf000063-resize_1-target.png,1000,4.1405,12,3219,1007,feet,jsons/v1_VE1000_randls_60_rotated.json,632533,729966,40,Man
3,270708,DepthScenes,duration_manipulation_targetAtFixation,jsons/v1_VE1000_randls_60_rotated.json,http://54.235.29.9/FacialAge/BNav_EC2/DepthDuration/v2_depth_duration_MTurk/v2_DepthDuration_HTML.html#328,328,1440,757,1440,900,9-3-2022,10-2-23,4,depth_duration_stimuli/000486_2014-06-09_20-47-20_260595134347_rgbf000143-resize_2/000486_2014-06-09_20-47-20_260595134347_rgbf000143-resize_2-target.png,1000,4.8325,12,3027,1008,feet,jsons/v1_VE1000_randls_60_rotated.json,632533,729966,40,Man
4,270708,DepthScenes,duration_manipulation_targetAtFixation,jsons/v1_VE1000_randls_60_rotated.json,http://54.235.29.9/FacialAge/BNav_EC2/DepthDuration/v2_depth_duration_MTurk/v2_DepthDuration_HTML.html#328,328,1440,757,1440,900,9-3-2022,10-2-23,5,depth_duration_stimuli/000709_2014-06-08_13-51-55_260595134347_rgbf000068-resize_3/000709_2014-06-08_13-51-55_260595134347_rgbf000068-resize_3-target.png,1000,1.8030000000000002,4,3767,988,feet,jsons/v1_VE1000_randls_60_rotated.json,632533,729966,40,Man
5,270708,DepthScenes,duration_manipulation_targetAtFixation,jsons/v1_VE1000_randls_60_rotated.json,http://54.235.29.9/FacialAge/BNav_EC2/DepthDuration/v2_depth_duration_MTurk/v2_DepthDuration_HTML.html#328,328,1440,757,1440,900,9-3-2022,10-2-23,6,depth_duration_stimuli/002057_2014-06-24_21-00-13_260595134347_rgbf000120-resize_1/002057_2014-06-24_21-00-13_260595134347_rgbf000120-resize_1-target.png,1000,2.967,6,3659,992,feet,jsons/v1_VE1000_randls_60_rotated.json,632533,729966,40,Man
6,270708,DepthScenes,duration_manipulation_targetAtFixation,jsons/v1_VE1000_randls_60_rotated.json,http://54.235.29.9/FacialAge/BNav_EC2/DepthDuration/v2_depth_duration_MTurk/v2_DepthDuration_HTML.html#328,328,1440,757,1440,900,9-3-2022,10-2-23,7,depth_duration_stimuli/001214_2014-06-17_16-13-55_260595134347_rgbf000111-resize_0/001214_2014-06-17_16-13-55_260595134347_rgbf000111-resize_0-target.png,1000,2.6505,4,3906,995,feet,jsons/v1_VE1000_randls_60_rotated.json,632533,729966,40,Man
7,270708,DepthScenes,duration_manipulation_targetAtFixation,jsons/v1_VE1000_randls_60_rotated.json,http://54.235.29.9/FacialAge/BNav_EC2/DepthDuration/v2_depth_duration_MTurk/v2_DepthDuration_HTML.html#328,328,1440,757,1440,900,9-3-2022,10-2-23,8,depth_duration_stimuli/000810_2014-06-08_17-20-01_260595134347_rgbf000105-resize_0/000810_2014-06-08_17-20-01_260595134347_rgbf000105-resize_0-target.png,1000,1.4865,4,3129,990,feet,jsons/v1_VE1000_randls_60_rotated.json,632533,729966,40,Man
8,270708,DepthScenes,duration_manipulation_targetAtFixation,jsons/v1_VE1000_randls_60_rotated.json,http://54.235.29.9/FacialAge/BNav_EC2/DepthDuration/v2_depth_duration_MTurk/v2_DepthDuration_HTML.html#328,328,1440,757,1440,900,9-3-2022,10-2-23,9,depth_duration_stimuli/003048_2014-06-15_13-49-43_094959634447_rgbf000150-resize_1/003048_2014-06-15_13-49-43_094959634447_rgbf000150-resize_1-target.png,1000,4.0035,8,3479,1002,feet,jsons/v1_VE1000_randls_60_rotated.json,632533,729966,40,Man
9,270708,DepthScenes,duration_manipulation_targetAtFixation,jsons/v1_VE1000_randls_60_rotated.json,http://54.235.29.9/FacialAge/BNav_EC2/DepthDuration/v2_depth_duration_MTurk/v2_DepthDuration_HTML.html#328,328,1440,757,1440,900,9-3-2022,10-2-23,10,depth_duration_stimuli/002043_2014-06-24_20-29-38_260595134347_rgbf000039-resize_4/002043_2014-06-24_20-29-38_260595134347_rgbf000039-resize_4-target.png,1000,2.8435,6,4586,1003,feet,jsons/v1_VE1000_randls_60_rotated.json,632533,729966,40,Man
10,270708,DepthScenes,duration_manipulation_targetAtFixation,jsons/v1_VE1000_randls_60_rotated.json,http://54.235.29.9/FacialAge/BNav_EC2/DepthDuration/v2_depth_duration_MTurk/v2_DepthDuration_HTML.html#328,328,1440,757,1440,900,9-3-2022,10-2-23,11,depth_duration_stimuli/001136_2014-06-17_15-19-41_260595134347_rgbf000076-resize_3/001136_2014-06-17_15-19-41_260595134347_rgbf000076-resize_3-target.png,1000,1.8655,4,3627,1006,feet,jsons/v1_VE1000_randls_60_rotated.json,632533,729966,40,Man
11,270708,DepthScenes,duration_manipulation_targetAtFixation,jsons/v1_VE1000_randls_60_rotated.json,http://54.235.29.9/FacialAge/BNav_EC2/DepthDuration/v2_depth_duration_MTurk/v2_DepthDuration_HTML.html#328,328,1440,757,1440,900,9-3-2022,10-2-23,12,depth_duration_stimuli/001164_2014-06-17_15-35-46_260595134347_rgbf000085-resize_3/001164_2014-06-17_15-35-46_260595134347_rgbf000085-resize_3-target.png,1000,2.354,6,3560,992,feet,jsons/v1_VE1000_randls_60_rotated.json,632533,729966,40,Man
12,270708,DepthScenes,duration_manipulation_targetAtFixation,jsons/v1_VE1000_randls_60_rotated.json,http://54.235.29.9/FacialAge/BNav_EC2/DepthDuration/v2_depth_duration_MTurk/v2_DepthDuration_HTML.html#328,328,1440,757,1440,900,9-3-2022,10-2-23,13,depth_duration_stimuli/000483_2014-06-09_20-41-45_260595134347_rgbf000116-resize_4/000483_2014-06-09_20-41-45_260595134347_rgbf000116-resize_4-target.png,1000,1.337,2,3084,999,feet,jsons/v1_VE1000_randls_60_rotated.json,632533,729966,40,Man
13,270708,DepthScenes,duration_manipulation_targetAtFixation,jsons/v1_VE1000_randls_60_rotated.json,http://54.235.29.9/FacialAge/BNav_EC2/DepthDuration/v2_depth_duration_MTurk/v2_DepthDuration_HTML.html#328,328,1440,757,1440,900,9-3-2022,10-2-23,14,depth_duration_stimuli/000469_2014-06-09_19-42-10_260595134347_rgbf000081-resize_1/000469_2014-06-09_19-42-10_260595134347_rgbf000081-resize_1-target.png,1000,1.652,3,3811,1000,feet,jsons/v1_VE1000_randls_60_rotated.json,632533,729966,40,Man
14,270708,DepthScenes,duration_manipulation_targetAtFixation,jsons/v1_VE1000_randls_60_rotated.json,http://54.235.29.9/FacialAge/BNav_EC2/DepthDuration/v2_depth_duration_MTurk/v2_DepthDuration_HTML.html#328,328,1440,757,1440,900,9-3-2022,10-2-23,15,depth_duration_stimuli/002414_2014-06-28_20-24-58_260595134347_rgbf000067-resize_4/002414_2014-06-28_20-24-58_260595134347_rgbf000067-resize_4-target.png,1000,4.363,7,3985,990,feet,jsons/v1_VE1000_randls_60_rotated.json,632533,729966,40,Man
15,270708,DepthScenes,duration_manipulation_targetAtFixation,jsons/v1_VE1000_randls_60_rotated.json,http://54.235.29.9/FacialAge/BNav_EC2/DepthDuration/v2_depth_duration_MTurk/v2_DepthDuration_HTML.html#328,328,1440,757,1440,900,9-3-2022,10-2-23,16,depth_duration_stimuli/000773_2014-06-08_22-24-54_260595134347_rgbf000093-resize_1/000773_2014-06-08_22-24-54_260595134347_rgbf000093-resize_1-target.png,1000,4.973,8,3037,986,feet,jsons/v1_VE1000_randls_60_rotated.json,632533,729966,40,Man
16,270708,DepthScenes,duration_manipulation_targetAtFixation,jsons/v1_VE1000_randls_60_rotated.json,http://54.235.29.9/FacialAge/BNav_EC2/DepthDuration/v2_depth_duration_MTurk/v2_DepthDuration_HTML.html#328,328,1440,757,1440,900,9-3-2022,10-2-23,17,depth_duration_stimuli/001392_2014-06-19_16-07-59_260595134347_rgbf000046-resize_1/001392_2014-06-19_16-07-59_260595134347_rgbf000046-resize_1-target.png,1000,4.135,6,3329,1005,feet,jsons/v1_VE1000_randls_60_rotated.json,632533,729966,40,Man
17,270708,DepthScenes,duration_manipulation_targetAtFixation,jsons/v1_VE1000_randls_60_rotated.json,http://54.235.29.9/FacialAge/BNav_EC2/DepthDuration/v2_depth_duration_MTurk/v2_DepthDuration_HTML.html#328,328,1440,757,1440,900,9-3-2022,10-2-23,18,depth_duration_stimuli/001570_2014-06-20_17-21-09_260595134347_rgbf000135-resize_4/001570_2014-06-20_17-21-09_260595134347_rgbf000135-resize_4-target.png,1000,4.467,8,3322,999,feet,jsons/v1_VE1000_randls_60_rotated.json,632533,729966,40,Man
18,270708,DepthScenes,duration_manipulation_targetAtFixation,jsons/v1_VE1000_randls_60_rotated.json,http://54.235.29.9/FacialAge/BNav_EC2/DepthDuration/v2_depth_duration_MTurk/v2_DepthDuration_HTML.html#328,328,1440,757,1440,900,9-3-2022,10-2-23,19,depth_duration_stimuli/001498_2014-06-19_17-45-14_260595134347_rgbf000129-resize_4/001498_2014-06-19_17-45-14_260595134347_rgbf000129-resize-original.jpg,1000,1.4075,0,3034,998,feet,jsons/v1_VE1000_randls_60_rotated.json,632533,729966,40,Man
19,270708,DepthScenes,duration_manipulation_targetAtFixation,jsons/v1_VE1000_randls_60_rotated.json,http://54.235.29.9/FacialAge/BNav_EC2/DepthDuration/v2_depth_duration_MTurk/v2_DepthDuration_HTML.html#328,328,1440,757,1440,900,9-3-2022,10-2-23,20,depth_duration_stimuli/002639_2014-06-24_14-51-37_094959634447_rgbf000074-resize_4/002639_2014-06-24_14-51-37_094959634447_rgbf000074-resize_4-target.png,1000,4.0375,6,4184,989,feet,jsons/v1_VE1000_randls_60_rotated.json,632533,729966,40,Man
20,270708,DepthScenes,duration_manipulation_targetAtFixation,jsons/v1_VE1000_randls_60_rotated.json,http://54.235.29.9/FacialAge/BNav_EC2/DepthDuration/v2_depth_duration_MTurk/v2_DepthDuration_HTML.html#328,328,1440,757,1440,900,9-3-2022,10-2-23,21,depth_duration_stimuli/003292_2014-05-14_21-53-49_094959634447_rgbf000100-resize_2/003292_2014-05-14_21-53-49_094959634447_rgbf000100-resize_2-target.png,1000,3.4815,5,3295,996,feet,jsons/v1_VE1000_randls_60_rotated.json,632533,729966,40,Man
21,270708,DepthScenes,duration_manipulation_targetAtFixation,jsons/v1_VE1000_randls_60_rotated.json,http://54.235.29.9/FacialAge/BNav_EC2/DepthDuration/v2_depth_duration_MTurk/v2_DepthDuration_HTML.html#328,328,1440,757,1440,900,9-3-2022,10-2-23,22,depth_duration_stimuli/000635_2014-06-08_16-38-42_260595134347_rgbf000106-resize_1/000635_2014-06-08_16-38-42_260595134347_rgbf000106-resize_1-target.png,1000,2.074,5,3003,999,feet,jsons/v1_VE1000_randls_60_rotated.json,632533,729966,40,Man
22,270708,DepthScenes,duration_manipulation_targetAtFixation,jsons/v1_VE1000_randls_60_rotated.json,http://54.235.29.9/FacialAge/BNav_EC2/DepthDuration/v2_depth_duration_MTurk/v2_DepthDuration_HTML.html#328,328,1440,757,1440,900,9-3-2022,10-2-23,23,depth_duration_stimuli/002279_2014-06-28_18-55-32_260595134347_rgbf000040-resize_5/002279_2014-06-28_18-55-32_260595134347_rgbf000040-resize_5-target.png,1000,1.5043333333333,3,3134,995,feet,jsons/v1_VE1000_randls_60_rotated.json,632533,729966,40,Man
23,270708,DepthScenes,duration_manipulation_targetAtFixation,jsons/v1_VE1000_randls_60_rotated.json,http://54.235.29.9/FacialAge/BNav_EC2/DepthDuration/v2_depth_duration_MTurk/v2_DepthDuration_HTML.html#328,328,1440,757,1440,900,9-3-2022,10-2-23,24,depth_duration_stimuli/000742_2014-06-08_18-48-09_260595134347_rgbf000164-resize_4/000742_2014-06-08_18-48-09_260595134347_rgbf000164-resize_4-target.png,1000,4.632,9,3475,1006,feet,jsons/v1_VE1000_randls_60_rotated.json,632533,729966,40,Man
24,270708,DepthScenes,duration_manipulation_targetAtFixation,jsons/v1_VE1000_randls_60_rotated.json,http://54.235.29.9/FacialAge/BNav_EC2/DepthDuration/v2_depth_duration_MTurk/v2_DepthDuration_HTML.html#328,328,1440,757,1440,900,9-3-2022,10-2-23,25,depth_duration_stimuli/001066_2014-06-08_22-03-20_260595134347_rgbf000066-resize_4/001066_2014-06-08_22-03-20_260595134347_rgbf000066-resize_4-target.png,1000,4.2330000000000005,12,2998,994,feet,jsons/v1_VE1000_randls_60_rotated.json,632533,729966,40,Man
25,270708,DepthScenes,duration_manipulation_targetAtFixation,jsons/v1_VE1000_randls_60_rotated.json,http://54.235.29.9/FacialAge/BNav_EC2/DepthDuration/v2_depth_duration_MTurk/v2_DepthDuration_HTML.html#328,328,1440,757,1440,900,9-3-2022,10-2-23,26,depth_duration_stimuli/003423_2014-05-21_10-23-26_094959634447_rgbf002665-resize_2/003423_2014-05-21_10-23-26_094959634447_rgbf002665-resize_2-target.png,1000,3.2575,12,3739,999,feet,jsons/v1_VE1000_randls_60_rotated.json,632533,729966,40,Man
26,270708,DepthScenes,duration_manipulation_targetAtFixation,jsons/v1_VE1000_randls_60_rotated.json,http://54.235.29.9/FacialAge/BNav_EC2/DepthDuration/v2_depth_duration_MTurk/v2_DepthDuration_HTML.html#328,328,1440,757,1440,900,9-3-2022,10-2-23,27,depth_duration_stimuli/002905_2014-06-03_18-04-43_094959634447_rgbf000151-resize_2/002905_2014-06-03_18-04-43_094959634447_rgbf000151-resize_2-target.png,1000,2.0295,3,2913,993,feet,jsons/v1_VE1000_randls_60_rotated.json,632533,729966,40,Man
27,270708,DepthScenes,duration_manipulation_targetAtFixation,jsons/v1_VE1000_randls_60_rotated.json,http://54.235.29.9/FacialAge/BNav_EC2/DepthDuration/v2_depth_duration_MTurk/v2_DepthDuration_HTML.html#328,328,1440,757,1440,900,9-3-2022,10-2-23,28,depth_duration_stimuli/001828_2014-06-26_21-40-03_260595134347_rgbf000024-resize_0/001828_2014-06-26_21-40-03_260595134347_rgbf000024-resize_0-target.png,1000,4.8260000000000005,89,2946,998,feet,jsons/v1_VE1000_randls_60_rotated.json,632533,729966,40,Man
28,270708,DepthScenes,duration_manipulation_targetAtFixation,jsons/v1_VE1000_randls_60_rotated.json,http://54.235.29.9/FacialAge/BNav_EC2/DepthDuration/v2_depth_duration_MTurk/v2_DepthDuration_HTML.html#328,328,1440,757,1440,900,9-3-2022,10-2-23,29,depth_duration_stimuli/000009_2014-05-26_14-32-05_260595134347_rgbf000034-resize_3/000009_2014-05-26_14-32-05_260595134347_rgbf000034-resize_3-target.png,1000,3.8715,7,4486,991,feet,jsons/v1_VE1000_randls_60_rotated.json,632533,729966,40,Man
29,270708,DepthScenes,duration_manipulation_targetAtFixation,jsons/v1_VE1000_randls_60_rotated.json,http://54.235.29.9/FacialAge/BNav_EC2/DepthDuration/v2_depth_duration_MTurk/v2_DepthDuration_HTML.html#328,328,1440,757,1440,900,9-3-2022,10-2-23,30,depth_duration_stimuli/002072_2014-06-24_21-48-06_260595134347_rgbf000115-resize_0/002072_2014-06-24_21-48-06_260595134347_rgbf000115-resize-original.jpg,1000,4.702,0,2847,994,feet,jsons/v1_VE1000_randls_60_rotated.json,632533,729966,40,Man
30,270708,DepthScenes,duration_manipulation_targetAtFixation,jsons/v1_VE1000_randls_60_rotated.json,http://54.235.29.9/FacialAge/BNav_EC2/DepthDuration/v2_depth_duration_MTurk/v2_DepthDuration_HTML.html#328,328,1440,757,1440,900,9-3-2022,10-2-23,31,depth_duration_stimuli/002444_2014-06-28_20-32-08_260595134347_rgbf000027-resize_0/002444_2014-06-28_20-32-08_260595134347_rgbf000027-resize_0-target.png,1000,4.388999999999999,6,3536,996,feet,jsons/v1_VE1000_randls_60_rotated.json,632533,729966,40,Man
31,270708,DepthScenes,duration_manipulation_targetAtFixation,jsons/v1_VE1000_randls_60_rotated.json,http://54.235.29.9/FacialAge/BNav_EC2/DepthDuration/v2_depth_duration_MTurk/v2_DepthDuration_HTML.html#328,328,1440,757,1440,900,9-3-2022,10-2-23,32,depth_duration_stimuli/000436_2014-06-09_22-25-11_260595134347_rgbf000137-resize_1/000436_2014-06-09_22-25-11_260595134347_rgbf000137-resize_1-target.png,1000,4.0705,12,3587,992,feet,jsons/v1_VE1000_randls_60_rotated.json,632533,729966,40,Man
32,270708,DepthScenes,duration_manipulation_targetAtFixation,jsons/v1_VE1000_randls_60_rotated.json,http://54.235.29.9/FacialAge/BNav_EC2/DepthDuration/v2_depth_duration_MTurk/v2_DepthDuration_HTML.html#328,328,1440,757,1440,900,9-3-2022,10-2-23,33,depth_duration_stimuli/000927_2014-06-09_16-32-30_260595134347_rgbf000123-resize_3/000927_2014-06-09_16-32-30_260595134347_rgbf000123-resize_3-target.png,1000,2.6785,6,3079,997,feet,jsons/v1_VE1000_randls_60_rotated.json,632533,729966,40,Man
33,270708,DepthScenes,duration_manipulation_targetAtFixation,jsons/v1_VE1000_randls_60_rotated.json,http://54.235.29.9/FacialAge/BNav_EC2/DepthDuration/v2_depth_duration_MTurk/v2_DepthDuration_HTML.html#328,328,1440,757,1440,900,9-3-2022,10-2-23,34,depth_duration_stimuli/001110_2014-06-15_17-25-28_260595134347_rgbf000150-resize_1/001110_2014-06-15_17-25-28_260595134347_rgbf000150-resize_1-target.png,1000,1.7115,4,3168,995,feet,jsons/v1_VE1000_randls_60_rotated.json,632533,729966,40,Man
34,270708,DepthScenes,duration_manipulation_targetAtFixation,jsons/v1_VE1000_randls_60_rotated.json,http://54.235.29.9/FacialAge/BNav_EC2/DepthDuration/v2_depth_duration_MTurk/v2_DepthDuration_HTML.html#328,328,1440,757,1440,900,9-3-2022,10-2-23,35,depth_duration_stimuli/003495_2014-05-21_16-01-51_094959634447_rgbf000100-resize_3/003495_2014-05-21_16-01-51_094959634447_rgbf000100-resize_3-target.png,1000,1.6255,2,4400,988,feet,jsons/v1_VE1000_randls_60_rotated.json,632533,729966,40,Man
35,270708,DepthScenes,duration_manipulation_targetAtFixation,jsons/v1_VE1000_randls_60_rotated.json,http://54.235.29.9/FacialAge/BNav_EC2/DepthDuration/v2_depth_duration_MTurk/v2_DepthDuration_HTML.html#328,328,1440,757,1440,900,9-3-2022,10-2-23,36,depth_duration_stimuli/001244_2014-06-17_16-47-45_260595134347_rgbf000030-resize_4/001244_2014-06-17_16-47-45_260595134347_rgbf000030-resize_4-target.png,1000,2.0425,4,3252,991,feet,jsons/v1_VE1000_randls_60_rotated.json,632533,729966,40,Man
36,270708,DepthScenes,duration_manipulation_targetAtFixation,jsons/v1_VE1000_randls_60_rotated.json,http://54.235.29.9/FacialAge/BNav_EC2/DepthDuration/v2_depth_duration_MTurk/v2_DepthDuration_HTML.html#328,328,1440,757,1440,900,9-3-2022,10-2-23,37,depth_duration_stimuli/001815_2014-06-26_20-52-55_260595134347_rgbf000020-resize_0/001815_2014-06-26_20-52-55_260595134347_rgbf000020-resize_0-target.png,1000,3.3865,5,4350,994,feet,jsons/v1_VE1000_randls_60_rotated.json,632533,729966,40,Man
37,270708,DepthScenes,duration_manipulation_targetAtFixation,jsons/v1_VE1000_randls_60_rotated.json,http://54.235.29.9/FacialAge/BNav_EC2/DepthDuration/v2_depth_duration_MTurk/v2_DepthDuration_HTML.html#328,328,1440,757,1440,900,9-3-2022,10-2-23,38,depth_duration_stimuli/001808_2014-06-26_20-50-58_260595134347_rgbf000029-resize_1/001808_2014-06-26_20-50-58_260595134347_rgbf000029-resize_1-target.png,1000,4.249,5,3061,994,feet,jsons/v1_VE1000_randls_60_rotated.json,632533,729966,40,Man
38,270708,DepthScenes,duration_manipulation_targetAtFixation,jsons/v1_VE1000_randls_60_rotated.json,http://54.235.29.9/FacialAge/BNav_EC2/DepthDuration/v2_depth_duration_MTurk/v2_DepthDuration_HTML.html#328,328,1440,757,1440,900,9-3-2022,10-2-23,39,depth_duration_stimuli/001052_2014-06-08_18-24-54_260595134347_rgbf000130-resize_1/001052_2014-06-08_18-24-54_260595134347_rgbf000130-resize_1-target.png,1000,4.1045,6,3984,997,feet,jsons/v1_VE1000_randls_60_rotated.json,632533,729966,40,Man
39,270708,DepthScenes,duration_manipulation_targetAtFixation,jsons/v1_VE1000_randls_60_rotated.json,http://54.235.29.9/FacialAge/BNav_EC2/DepthDuration/v2_depth_duration_MTurk/v2_DepthDuration_HTML.html#328,328,1440,757,1440,900,9-3-2022,10-2-23,40,depth_duration_stimuli/002988_2014-06-15_12-24-20_094959634447_rgbf000150-resize_1/002988_2014-06-15_12-24-20_094959634447_rgbf000150-resize_1-target.png,1000,4.7669999999999995,7,3155,1007,feet,jsons/v1_VE1000_randls_60_rotated.json,632533,729966,40,Man
40,270708,DepthScenes,duration_manipulation_targetAtFixation,jsons/v1_VE1000_randls_60_rotated.json,http://54.235.29.9/FacialAge/BNav_EC2/DepthDuration/v2_depth_duration_MTurk/v2_DepthDuration_HTML.html#328,328,1440,757,1440,900,9-3-2022,10-2-23,41,depth_duration_stimuli/001571_2014-06-20_17-21-32_260595134347_rgbf000089-resize_1/001571_2014-06-20_17-21-32_260595134347_rgbf000089-resize_1-target.png,1000,1.86,3,3123,992,feet,jsons/v1_VE1000_randls_60_rotated.json,632533,729966,40,Man
41,270708,DepthScenes,duration_manipulation_targetAtFixation,jsons/v1_VE1000_randls_60_rotated.json,http://54.235.29.9/FacialAge/BNav_EC2/DepthDuration/v2_depth_duration_MTurk/v2_DepthDuration_HTML.html#328,328,1440,757,1440,900,9-3-2022,10-2-23,42,depth_duration_stimuli/002272_2014-06-28_18-53-56_260595134347_rgbf000067-resize_2/002272_2014-06-28_18-53-56_260595134347_rgbf000067-resize_2-target.png,1000,1.138,2,2884,993,feet,jsons/v1_VE1000_randls_60_rotated.json,632533,729966,40,Man
42,270708,DepthScenes,duration_manipulation_targetAtFixation,jsons/v1_VE1000_randls_60_rotated.json,http://54.235.29.9/FacialAge/BNav_EC2/DepthDuration/v2_depth_duration_MTurk/v2_DepthDuration_HTML.html#328,328,1440,757,1440,900,9-3-2022,10-2-23,43,depth_duration_stimuli/002678_2014-06-13_16-15-32_094959634447_rgbf000151-resize_6/002678_2014-06-13_16-15-32_094959634447_rgbf000151-resize_6-target.png,1000,2.1830000000000003,4,3243,1000,feet,jsons/v1_VE1000_randls_60_rotated.json,632533,729966,40,Man
43,270708,DepthScenes,duration_manipulation_targetAtFixation,jsons/v1_VE1000_randls_60_rotated.json,http://54.235.29.9/FacialAge/BNav_EC2/DepthDuration/v2_depth_duration_MTurk/v2_DepthDuration_HTML.html#328,328,1440,757,1440,900,9-3-2022,10-2-23,44,depth_duration_stimuli/000368_2014-06-09_15-53-01_260595134347_rgbf000155-resize_2/000368_2014-06-09_15-53-01_260595134347_rgbf000155-resize_2-target.png,1000,2.4859999999999998,3,3352,997,feet,jsons/v1_VE1000_randls_60_rotated.json,632533,729966,40,Man
44,270708,DepthScenes,duration_manipulation_targetAtFixation,jsons/v1_VE1000_randls_60_rotated.json,http://54.235.29.9/FacialAge/BNav_EC2/DepthDuration/v2_depth_duration_MTurk/v2_DepthDuration_HTML.html#328,328,1440,757,1440,900,9-3-2022,10-2-23,45,depth_duration_stimuli/001650_2014-06-20_12-09-00_260595134347_rgbf000087-resize_3/001650_2014-06-20_12-09-00_260595134347_rgbf000087-resize_3-target.png,1000,1.9505,1,2927,987,feet,jsons/v1_VE1000_randls_60_rotated.json,632533,729966,40,Man
45,270708,DepthScenes,duration_manipulation_targetAtFixation,jsons/v1_VE1000_randls_60_rotated.json,http://54.235.29.9/FacialAge/BNav_EC2/DepthDuration/v2_depth_duration_MTurk/v2_DepthDuration_HTML.html#328,328,1440,757,1440,900,9-3-2022,10-2-23,46,depth_duration_stimuli/000682_2014-06-08_23-14-58_260595134347_rgbf000041-resize_5/000682_2014-06-08_23-14-58_260595134347_rgbf000041-resize_5-target.png,1000,2.7239999999999998,3,3025,998,feet,jsons/v1_VE1000_randls_60_rotated.json,632533,729966,40,Man
46,270708,DepthScenes,duration_manipulation_targetAtFixation,jsons/v1_VE1000_randls_60_rotated.json,http://54.235.29.9/FacialAge/BNav_EC2/DepthDuration/v2_depth_duration_MTurk/v2_DepthDuration_HTML.html#328,328,1440,757,1440,900,9-3-2022,10-2-23,47,depth_duration_stimuli/000943_2014-06-09_19-31-07_260595134347_rgbf000128-resize_1/000943_2014-06-09_19-31-07_260595134347_rgbf000128-resize_1-target.png,1000,1.9765,3,3507,999,feet,jsons/v1_VE1000_randls_60_rotated.json,632533,729966,40,Man
47,270708,DepthScenes,duration_manipulation_targetAtFixation,jsons/v1_VE1000_randls_60_rotated.json,http://54.235.29.9/FacialAge/BNav_EC2/DepthDuration/v2_depth_duration_MTurk/v2_DepthDuration_HTML.html#328,328,1440,757,1440,900,9-3-2022,10-2-23,48,depth_duration_stimuli/003070_2014-06-15_14-58-27_094959634447_rgbf000150-resize_3/003070_2014-06-15_14-58-27_094959634447_rgbf000150-resize_3-target.png,1000,2.9415,6,2902,994,feet,jsons/v1_VE1000_randls_60_rotated.json,632533,729966,40,Man
48,270708,DepthScenes,duration_manipulation_targetAtFixation,jsons/v1_VE1000_randls_60_rotated.json,http://54.235.29.9/FacialAge/BNav_EC2/DepthDuration/v2_depth_duration_MTurk/v2_DepthDuration_HTML.html#328,328,1440,757,1440,900,9-3-2022,10-2-23,49,depth_duration_stimuli/001170_2014-06-17_15-43-44_260595134347_rgbf000096-resize_6/001170_2014-06-17_15-43-44_260595134347_rgbf000096-resize-original.jpg,1000,1.1909999999999998,0,2903,1002,feet,jsons/v1_VE1000_randls_60_rotated.json,632533,729966,40,Man
49,270708,DepthScenes,duration_manipulation_targetAtFixation,jsons/v1_VE1000_randls_60_rotated.json,http://54.235.29.9/FacialAge/BNav_EC2/DepthDuration/v2_depth_duration_MTurk/v2_DepthDuration_HTML.html#328,328,1440,757,1440,900,9-3-2022,10-2-23,50,depth_duration_stimuli/000677_2014-06-08_23-10-32_260595134347_rgbf000158-resize_6/000677_2014-06-08_23-10-32_260595134347_rgbf000158-resize_6-target.png,1000,3.556,5,3322,1011,feet,jsons/v1_VE1000_randls_60_rotated.json,632533,729966,40,Man
50,270708,DepthScenes,duration_manipulation_targetAtFixation,jsons/v1_VE1000_randls_60_rotated.json,http://54.235.29.9/FacialAge/BNav_EC2/DepthDuration/v2_depth_duration_MTurk/v2_DepthDuration_HTML.html#328,328,1440,757,1440,900,9-3-2022,10-2-23,51,depth_duration_stimuli/001029_2014-06-08_13-17-57_260595134347_rgbf000065-resize_1/001029_2014-06-08_13-17-57_260595134347_rgbf000065-resize_1-target.png,1000,3.0835,6,3233,991,feet,jsons/v1_VE1000_randls_60_rotated.json,632533,729966,40,Man
51,270708,DepthScenes,duration_manipulation_targetAtFixation,jsons/v1_VE1000_randls_60_rotated.json,http://54.235.29.9/FacialAge/BNav_EC2/DepthDuration/v2_depth_duration_MTurk/v2_DepthDuration_HTML.html#328,328,1440,757,1440,900,9-3-2022,10-2-23,52,depth_duration_stimuli/002340_2014-06-28_20-05-46_260595134347_rgbf000113-resize_0/002340_2014-06-28_20-05-46_260595134347_rgbf000113-resize_0-target.png,1000,2.4735,0,3044,1000,feet,jsons/v1_VE1000_randls_60_rotated.json,632533,729966,40,Man
52,270708,DepthScenes,duration_manipulation_targetAtFixation,jsons/v1_VE1000_randls_60_rotated.json,http://54.235.29.9/FacialAge/BNav_EC2/DepthDuration/v2_depth_duration_MTurk/v2_DepthDuration_HTML.html#328,328,1440,757,1440,900,9-3-2022,10-2-23,53,depth_duration_stimuli/001016_2014-06-09_16-16-10_260595134347_rgbf000112-resize_5/001016_2014-06-09_16-16-10_260595134347_rgbf000112-resize_5-target.png,1000,1.6565,4,3139,1005,feet,jsons/v1_VE1000_randls_60_rotated.json,632533,729966,40,Man
53,270708,DepthScenes,duration_manipulation_targetAtFixation,jsons/v1_VE1000_randls_60_rotated.json,http://54.235.29.9/FacialAge/BNav_EC2/DepthDuration/v2_depth_duration_MTurk/v2_DepthDuration_HTML.html#328,328,1440,757,1440,900,9-3-2022,10-2-23,54,depth_duration_stimuli/001617_2014-06-20_11-35-32_260595134347_rgbf000066-resize_1/001617_2014-06-20_11-35-32_260595134347_rgbf000066-resize_1-target.png,1000,3.7910000000000004,4,2951,991,feet,jsons/v1_VE1000_randls_60_rotated.json,632533,729966,40,Man
54,270708,DepthScenes,duration_manipulation_targetAtFixation,jsons/v1_VE1000_randls_60_rotated.json,http://54.235.29.9/FacialAge/BNav_EC2/DepthDuration/v2_depth_duration_MTurk/v2_DepthDuration_HTML.html#328,328,1440,757,1440,900,9-3-2022,10-2-23,55,depth_duration_stimuli/001806_2014-06-26_20-50-20_260595134347_rgbf000091-resize_1/001806_2014-06-26_20-50-20_260595134347_rgbf000091-resize_1-target.png,1000,2.7305,3,3180,1000,feet,jsons/v1_VE1000_randls_60_rotated.json,632533,729966,40,Man
55,270708,DepthScenes,duration_manipulation_targetAtFixation,jsons/v1_VE1000_randls_60_rotated.json,http://54.235.29.9/FacialAge/BNav_EC2/DepthDuration/v2_depth_duration_MTurk/v2_DepthDuration_HTML.html#328,328,1440,757,1440,900,9-3-2022,10-2-23,56,depth_duration_stimuli/001100_2014-06-15_17-46-26_260595134347_rgbf000225-resize_2/001100_2014-06-15_17-46-26_260595134347_rgbf000225-resize_2-target.png,1000,2.24,2,3040,997,feet,jsons/v1_VE1000_randls_60_rotated.json,632533,729966,40,Man
56,270708,DepthScenes,duration_manipulation_targetAtFixation,jsons/v1_VE1000_randls_60_rotated.json,http://54.235.29.9/FacialAge/BNav_EC2/DepthDuration/v2_depth_duration_MTurk/v2_DepthDuration_HTML.html#328,328,1440,757,1440,900,9-3-2022,10-2-23,57,depth_duration_stimuli/002784_2014-06-22_19-26-30_094959634447_rgbf000083-resize_3/002784_2014-06-22_19-26-30_094959634447_rgbf000083-resize_3-target.png,1000,1.8046666666667,2,2904,989,feet,jsons/v1_VE1000_randls_60_rotated.json,632533,729966,40,Man
57,270708,DepthScenes,duration_manipulation_targetAtFixation,jsons/v1_VE1000_randls_60_rotated.json,http://54.235.29.9/FacialAge/BNav_EC2/DepthDuration/v2_depth_duration_MTurk/v2_DepthDuration_HTML.html#328,328,1440,757,1440,900,9-3-2022,10-2-23,58,depth_duration_stimuli/001584_2014-06-20_11-07-43_260595134347_rgbf000002-resize_1/001584_2014-06-20_11-07-43_260595134347_rgbf000002-resize_1-target.png,1000,3.53,4,2837,995,feet,jsons/v1_VE1000_randls_60_rotated.json,632533,729966,40,Man
58,270708,DepthScenes,duration_manipulation_targetAtFixation,jsons/v1_VE1000_randls_60_rotated.json,http://54.235.29.9/FacialAge/BNav_EC2/DepthDuration/v2_depth_duration_MTurk/v2_DepthDuration_HTML.html#328,328,1440,757,1440,900,9-3-2022,10-2-23,59,depth_duration_stimuli/003621_2014-05-23_18-06-08_094959634447_rgbf000101-resize_1/003621_2014-05-23_18-06-08_094959634447_rgbf000101-resize_1-target.png,1000,3.9835,4,12250,998,feet,jsons/v1_VE1000_randls_60_rotated.json,632533,729966,40,Man
59,270708,DepthScenes,duration_manipulation_targetAtFixation,jsons/v1_VE1000_randls_60_rotated.json,http://54.235.29.9/FacialAge/BNav_EC2/DepthDuration/v2_depth_duration_MTurk/v2_DepthDuration_HTML.html#328,328,1440,757,1440,900,9-3-2022,10-2-23,60,depth_duration_stimuli/001094_2014-06-15_17-36-00_260595134347_rgbf000205-resize_0/001094_2014-06-15_17-36-00_260595134347_rgbf000205-resize_0-target.png,1000,4.2175,6,3143,989,feet,jsons/v1_VE1000_randls_60_rotated.json,632533,729966,40,Man
60,270708,DepthScenes,duration_manipulation_targetAtFixation,jsons/v1_VE1000_randls_60_rotated.json,http://54.235.29.9/FacialAge/BNav_EC2/DepthDuration/v2_depth_duration_MTurk/v2_DepthDuration_HTML.html#328,328,1440,757,1440,900,9-3-2022,10-2-23,61,depth_duration_stimuli/000692_2014-06-08_13-09-42_260595134347_rgbf000199-resize_2/000692_2014-06-08_13-09-42_260595134347_rgbf000199-resize_2-target.png,1000,3.661,8,3192,988,feet,jsons/v1_VE1000_randls_60_rotated.json,632533,729966,40,Man
61,270708,DepthScenes,duration_manipulation_targetAtFixation,jsons/v1_VE1000_randls_60_rotated.json,http://54.235.29.9/FacialAge/BNav_EC2/DepthDuration/v2_depth_duration_MTurk/v2_DepthDuration_HTML.html#328,328,1440,757,1440,900,9-3-2022,10-2-23,62,depth_duration_stimuli/000137_2014-05-20_17-04-49_260595134347_rgbf000120-resize_1/000137_2014-05-20_17-04-49_260595134347_rgbf000120-resize_1-target.png,1000,3.786,12,3816,1002,feet,jsons/v1_VE1000_randls_60_rotated.json,632533,729966,40,Man
62,270708,DepthScenes,duration_manipulation_targetAtFixation,jsons/v1_VE1000_randls_60_rotated.json,http://54.235.29.9/FacialAge/BNav_EC2/DepthDuration/v2_depth_duration_MTurk/v2_DepthDuration_HTML.html#328,328,1440,757,1440,900,9-3-2022,10-2-23,63,depth_duration_stimuli/000736_2014-06-08_18-24-15_260595134347_rgbf000206-resize_3/000736_2014-06-08_18-24-15_260595134347_rgbf000206-resize_3-target.png,1000,3.515,5,3756,1002,feet,jsons/v1_VE1000_randls_60_rotated.json,632533,729966,40,Man
63,270708,DepthScenes,duration_manipulation_targetAtFixation,jsons/v1_VE1000_randls_60_rotated.json,http://54.235.29.9/FacialAge/BNav_EC2/DepthDuration/v2_depth_duration_MTurk/v2_DepthDuration_HTML.html#328,328,1440,757,1440,900,9-3-2022,10-2-23,64,depth_duration_stimuli/001132_2014-06-17_14-48-54_260595134347_rgbf000100-resize_2/001132_2014-06-17_14-48-54_260595134347_rgbf000100-resize_2-target.png,1000,3.753,4,3702,986,feet,jsons/v1_VE1000_randls_60_rotated.json,632533,729966,40,Man
64,270708,DepthScenes,duration_manipulation_targetAtFixation,jsons/v1_VE1000_randls_60_rotated.json,http://54.235.29.9/FacialAge/BNav_EC2/DepthDuration/v2_depth_duration_MTurk/v2_DepthDuration_HTML.html#328,328,1440,757,1440,900,9-3-2022,10-2-23,65,depth_duration_stimuli/001133_2014-06-17_14-49-16_260595134347_rgbf000100-resize_0/001133_2014-06-17_14-49-16_260595134347_rgbf000100-resize_0-target.png,1000,4.2115,6,3339,1001,feet,jsons/v1_VE1000_randls_60_rotated.json,632533,729966,40,Man
65,270708,DepthScenes,duration_manipulation_targetAtFixation,jsons/v1_VE1000_randls_60_rotated.json,http://54.235.29.9/FacialAge/BNav_EC2/DepthDuration/v2_depth_duration_MTurk/v2_DepthDuration_HTML.html#328,328,1440,757,1440,900,9-3-2022,10-2-23,66,depth_duration_stimuli/001540_2014-06-20_17-01-05_260595134347_rgbf000086-resize_2/001540_2014-06-20_17-01-05_260595134347_rgbf000086-resize-original.jpg,1000,1.459,0,2884,995,feet,jsons/v1_VE1000_randls_60_rotated.json,632533,729966,40,Man
66,270708,DepthScenes,duration_manipulation_targetAtFixation,jsons/v1_VE1000_randls_60_rotated.json,http://54.235.29.9/FacialAge/BNav_EC2/DepthDuration/v2_depth_duration_MTurk/v2_DepthDuration_HTML.html#328,328,1440,757,1440,900,9-3-2022,10-2-23,67,depth_duration_stimuli/002136_2014-06-25_21-18-03_260595134347_rgbf000109-resize_3/002136_2014-06-25_21-18-03_260595134347_rgbf000109-resize_3-target.png,1000,1.9569999999999999,4,3114,1012,feet,jsons/v1_VE1000_randls_60_rotated.json,632533,729966,40,Man
67,270708,DepthScenes,duration_manipulation_targetAtFixation,jsons/v1_VE1000_randls_60_rotated.json,http://54.235.29.9/FacialAge/BNav_EC2/DepthDuration/v2_depth_duration_MTurk/v2_DepthDuration_HTML.html#328,328,1440,757,1440,900,9-3-2022,10-2-23,68,depth_duration_stimuli/002964_2014-06-08_17-46-11_094959634447_rgbf000091-resize_4/002964_2014-06-08_17-46-11_094959634447_rgbf000091-resize_4-target.png,1000,1.6909999999999998,3,3182,987,feet,jsons/v1_VE1000_randls_60_rotated.json,632533,729966,40,Man
68,270708,DepthScenes,duration_manipulation_targetAtFixation,jsons/v1_VE1000_randls_60_rotated.json,http://54.235.29.9/FacialAge/BNav_EC2/DepthDuration/v2_depth_duration_MTurk/v2_DepthDuration_HTML.html#328,328,1440,757,1440,900,9-3-2022,10-2-23,69,depth_duration_stimuli/001235_2014-06-17_16-37-36_260595134347_rgbf000084-resize_4/001235_2014-06-17_16-37-36_260595134347_rgbf000084-resize_4-target.png,1000,3.6605,4,3283,1006,feet,jsons/v1_VE1000_randls_60_rotated.json,632533,729966,40,Man
69,270708,DepthScenes,duration_manipulation_targetAtFixation,jsons/v1_VE1000_randls_60_rotated.json,http://54.235.29.9/FacialAge/BNav_EC2/DepthDuration/v2_depth_duration_MTurk/v2_DepthDuration_HTML.html#328,328,1440,757,1440,900,9-3-2022,10-2-23,70,depth_duration_stimuli/000788_2014-06-08_22-34-36_260595134347_rgbf000131-resize_1/000788_2014-06-08_22-34-36_260595134347_rgbf000131-resize_1-target.png,1000,3.359,5,3323,1003,feet,jsons/v1_VE1000_randls_60_rotated.json,632533,729966,40,Man
70,270708,DepthScenes,duration_manipulation_targetAtFixation,jsons/v1_VE1000_randls_60_rotated.json,http://54.235.29.9/FacialAge/BNav_EC2/DepthDuration/v2_depth_duration_MTurk/v2_DepthDuration_HTML.html#328,328,1440,757,1440,900,9-3-2022,10-2-23,71,depth_duration_stimuli/000103_2014-05-14_22-01-17_260595134347_rgbf000152-resize_5/000103_2014-05-14_22-01-17_260595134347_rgbf000152-resize_5-target.png,1000,1.993,4,3011,1000,feet,jsons/v1_VE1000_randls_60_rotated.json,632533,729966,40,Man
71,270708,DepthScenes,duration_manipulation_targetAtFixation,jsons/v1_VE1000_randls_60_rotated.json,http://54.235.29.9/FacialAge/BNav_EC2/DepthDuration/v2_depth_duration_MTurk/v2_DepthDuration_HTML.html#328,328,1440,757,1440,900,9-3-2022,10-2-23,72,depth_duration_stimuli/001555_2014-06-20_17-12-10_260595134347_rgbf000065-resize_4/001555_2014-06-20_17-12-10_260595134347_rgbf000065-resize_4-target.png,1000,1.633,2,3291,999,feet,jsons/v1_VE1000_randls_60_rotated.json,632533,729966,40,Man
72,270708,DepthScenes,duration_manipulation_targetAtFixation,jsons/v1_VE1000_randls_60_rotated.json,http://54.235.29.9/FacialAge/BNav_EC2/DepthDuration/v2_depth_duration_MTurk/v2_DepthDuration_HTML.html#328,328,1440,757,1440,900,9-3-2022,10-2-23,73,depth_duration_stimuli/000409_2014-06-04_19-23-33_260595134347_rgbf000067-resize_0/000409_2014-06-04_19-23-33_260595134347_rgbf000067-resize_0-target.png,1000,3.7335,8,3300,1011,feet,jsons/v1_VE1000_randls_60_rotated.json,632533,729966,40,Man
73,270708,DepthScenes,duration_manipulation_targetAtFixation,jsons/v1_VE1000_randls_60_rotated.json,http://54.235.29.9/FacialAge/BNav_EC2/DepthDuration/v2_depth_duration_MTurk/v2_DepthDuration_HTML.html#328,328,1440,757,1440,900,9-3-2022,10-2-23,74,depth_duration_stimuli/002663_2014-06-13_15-50-26_094959634447_rgbf000075-resize_1/002663_2014-06-13_15-50-26_094959634447_rgbf000075-resize_1-target.png,1000,4.7495,8,2946,999,feet,jsons/v1_VE1000_randls_60_rotated.json,632533,729966,40,Man
74,270708,DepthScenes,duration_manipulation_targetAtFixation,jsons/v1_VE1000_randls_60_rotated.json,http://54.235.29.9/FacialAge/BNav_EC2/DepthDuration/v2_depth_duration_MTurk/v2_DepthDuration_HTML.html#328,328,1440,757,1440,900,9-3-2022,10-2-23,75,depth_duration_stimuli/002953_2014-06-08_17-32-18_094959634447_rgbf000059-resize_5/002953_2014-06-08_17-32-18_094959634447_rgbf000059-resize_5-target.png,1000,1.551,2,2902,999,feet,jsons/v1_VE1000_randls_60_rotated.json,632533,729966,40,Man
75,270708,DepthScenes,duration_manipulation_targetAtFixation,jsons/v1_VE1000_randls_60_rotated.json,http://54.235.29.9/FacialAge/BNav_EC2/DepthDuration/v2_depth_duration_MTurk/v2_DepthDuration_HTML.html#328,328,1440,757,1440,900,9-3-2022,10-2-23,76,depth_duration_stimuli/000878_2014-06-08_22-52-45_260595134347_rgbf000045-resize_2/000878_2014-06-08_22-52-45_260595134347_rgbf000045-resize_2-target.png,1000,2.092,4,3317,994,feet,jsons/v1_VE1000_randls_60_rotated.json,632533,729966,40,Man
76,270708,DepthScenes,duration_manipulation_targetAtFixation,jsons/v1_VE1000_randls_60_rotated.json,http://54.235.29.9/FacialAge/BNav_EC2/DepthDuration/v2_depth_duration_MTurk/v2_DepthDuration_HTML.html#328,328,1440,757,1440,900,9-3-2022,10-2-23,77,depth_duration_stimuli/000191_2014-05-12_17-07-38_260595134347_rgbf000199-resize_0/000191_2014-05-12_17-07-38_260595134347_rgbf000199-resize_0-target.png,1000,3.7995,9,3171,999,feet,jsons/v1_VE1000_randls_60_rotated.json,632533,729966,40,Man
77,270708,DepthScenes,duration_manipulation_targetAtFixation,jsons/v1_VE1000_randls_60_rotated.json,http://54.235.29.9/FacialAge/BNav_EC2/DepthDuration/v2_depth_duration_MTurk/v2_DepthDuration_HTML.html#328,328,1440,757,1440,900,9-3-2022,10-2-23,78,depth_duration_stimuli/000493_2014-06-09_21-01-18_260595134347_rgbf000196-resize_3/000493_2014-06-09_21-01-18_260595134347_rgbf000196-resize_3-target.png,1000,3.44,5,3469,985,feet,jsons/v1_VE1000_randls_60_rotated.json,632533,729966,40,Man
78,270708,DepthScenes,duration_manipulation_targetAtFixation,jsons/v1_VE1000_randls_60_rotated.json,http://54.235.29.9/FacialAge/BNav_EC2/DepthDuration/v2_depth_duration_MTurk/v2_DepthDuration_HTML.html#328,328,1440,757,1440,900,9-3-2022,10-2-23,79,depth_duration_stimuli/002323_2014-06-28_20-01-54_260595134347_rgbf000051-resize_4/002323_2014-06-28_20-01-54_260595134347_rgbf000051-resize_4-target.png,1000,3.7310000000000003,6,3248,997,feet,jsons/v1_VE1000_randls_60_rotated.json,632533,729966,40,Man
79,270708,DepthScenes,duration_manipulation_targetAtFixation,jsons/v1_VE1000_randls_60_rotated.json,http://54.235.29.9/FacialAge/BNav_EC2/DepthDuration/v2_depth_duration_MTurk/v2_DepthDuration_HTML.html#328,328,1440,757,1440,900,9-3-2022,10-2-23,80,depth_duration_stimuli/000917_2014-06-09_22-45-29_260595134347_rgbf000149-resize_3/000917_2014-06-09_22-45-29_260595134347_rgbf000149-resize_3-target.png,1000,4.1865,8,3499,992,feet,jsons/v1_VE1000_randls_60_rotated.json,632533,729966,40,Man
80,270708,DepthScenes,duration_manipulation_targetAtFixation,jsons/v1_VE1000_randls_60_rotated.json,http://54.235.29.9/FacialAge/BNav_EC2/DepthDuration/v2_depth_duration_MTurk/v2_DepthDuration_HTML.html#328,328,1440,757,1440,900,9-3-2022,10-2-23,81,depth_duration_stimuli/002467_2014-06-28_20-38-07_260595134347_rgbf000026-resize_2/002467_2014-06-28_20-38-07_260595134347_rgbf000026-resize_2-target.png,1000,4.742,10,3398,995,feet,jsons/v1_VE1000_randls_60_rotated.json,632533,729966,40,Man
81,270708,DepthScenes,duration_manipulation_targetAtFixation,jsons/v1_VE1000_randls_60_rotated.json,http://54.235.29.9/FacialAge/BNav_EC2/DepthDuration/v2_depth_duration_MTurk/v2_DepthDuration_HTML.html#328,328,1440,757,1440,900,9-3-2022,10-2-23,82,depth_duration_stimuli/002570_2014-06-24_13-59-54_094959634447_rgbf000059-resize_0/002570_2014-06-24_13-59-54_094959634447_rgbf000059-resize_0-target.png,1000,4.037,8,3021,1008,feet,jsons/v1_VE1000_randls_60_rotated.json,632533,729966,40,Man
82,270708,DepthScenes,duration_manipulation_targetAtFixation,jsons/v1_VE1000_randls_60_rotated.json,http://54.235.29.9/FacialAge/BNav_EC2/DepthDuration/v2_depth_duration_MTurk/v2_DepthDuration_HTML.html#328,328,1440,757,1440,900,9-3-2022,10-2-23,83,depth_duration_stimuli/001516_2014-06-20_16-25-09_260595134347_rgbf000076-resize_2/001516_2014-06-20_16-25-09_260595134347_rgbf000076-resize_2-target.png,1000,1.7445,4,2909,986,feet,jsons/v1_VE1000_randls_60_rotated.json,632533,729966,40,Man
83,270708,DepthScenes,duration_manipulation_targetAtFixation,jsons/v1_VE1000_randls_60_rotated.json,http://54.235.29.9/FacialAge/BNav_EC2/DepthDuration/v2_depth_duration_MTurk/v2_DepthDuration_HTML.html#328,328,1440,757,1440,900,9-3-2022,10-2-23,84,depth_duration_stimuli/002118_2014-06-25_20-32-08_260595134347_rgbf000078-resize_1/002118_2014-06-25_20-32-08_260595134347_rgbf000078-resize_1-target.png,1000,2.6460000000000004,4,3076,997,feet,jsons/v1_VE1000_randls_60_rotated.json,632533,729966,40,Man
84,270708,DepthScenes,duration_manipulation_targetAtFixation,jsons/v1_VE1000_randls_60_rotated.json,http://54.235.29.9/FacialAge/BNav_EC2/DepthDuration/v2_depth_duration_MTurk/v2_DepthDuration_HTML.html#328,328,1440,757,1440,900,9-3-2022,10-2-23,85,depth_duration_stimuli/002657_2014-06-13_15-29-54_094959634447_rgbf000150-resize_1/002657_2014-06-13_15-29-54_094959634447_rgbf000150-resize_1-target.png,1000,4.919,6,2937,998,feet,jsons/v1_VE1000_randls_60_rotated.json,632533,729966,40,Man
85,270708,DepthScenes,duration_manipulation_targetAtFixation,jsons/v1_VE1000_randls_60_rotated.json,http://54.235.29.9/FacialAge/BNav_EC2/DepthDuration/v2_depth_duration_MTurk/v2_DepthDuration_HTML.html#328,328,1440,757,1440,900,9-3-2022,10-2-23,86,depth_duration_stimuli/002375_2014-06-28_20-13-44_260595134347_rgbf000032-resize_1/002375_2014-06-28_20-13-44_260595134347_rgbf000032-resize_1-target.png,1000,4.0175,6,3087,987,feet,jsons/v1_VE1000_randls_60_rotated.json,632533,729966,40,Man
86,270708,DepthScenes,duration_manipulation_targetAtFixation,jsons/v1_VE1000_randls_60_rotated.json,http://54.235.29.9/FacialAge/BNav_EC2/DepthDuration/v2_depth_duration_MTurk/v2_DepthDuration_HTML.html#328,328,1440,757,1440,900,9-3-2022,10-2-23,87,depth_duration_stimuli/003010_2014-06-15_12-54-35_094959634447_rgbf000112-resize_0/003010_2014-06-15_12-54-35_094959634447_rgbf000112-resize_0-target.png,1000,3.1185,8,3356,984,feet,jsons/v1_VE1000_randls_60_rotated.json,632533,729966,40,Man
87,270708,DepthScenes,duration_manipulation_targetAtFixation,jsons/v1_VE1000_randls_60_rotated.json,http://54.235.29.9/FacialAge/BNav_EC2/DepthDuration/v2_depth_duration_MTurk/v2_DepthDuration_HTML.html#328,328,1440,757,1440,900,9-3-2022,10-2-23,88,depth_duration_stimuli/001810_2014-06-26_20-51-35_260595134347_rgbf000040-resize_3/001810_2014-06-26_20-51-35_260595134347_rgbf000040-resize_3-target.png,1000,2.2525,3,3408,990,feet,jsons/v1_VE1000_randls_60_rotated.json,632533,729966,40,Man
88,270708,DepthScenes,duration_manipulation_targetAtFixation,jsons/v1_VE1000_randls_60_rotated.json,http://54.235.29.9/FacialAge/BNav_EC2/DepthDuration/v2_depth_duration_MTurk/v2_DepthDuration_HTML.html#328,328,1440,757,1440,900,9-3-2022,10-2-23,89,depth_duration_stimuli/001450_2014-06-19_17-02-03_260595134347_rgbf000203-resize_4/001450_2014-06-19_17-02-03_260595134347_rgbf000203-resize_4-target.png,1000,4.0106666666667,7,3815,1004,feet,jsons/v1_VE1000_randls_60_rotated.json,632533,729966,40,Man
89,270708,DepthScenes,duration_manipulation_targetAtFixation,jsons/v1_VE1000_randls_60_rotated.json,http://54.235.29.9/FacialAge/BNav_EC2/DepthDuration/v2_depth_duration_MTurk/v2_DepthDuration_HTML.html#328,328,1440,757,1440,900,9-3-2022,10-2-23,90,depth_duration_stimuli/001449_2014-06-19_17-01-27_260595134347_rgbf000116-resize_2/001449_2014-06-19_17-01-27_260595134347_rgbf000116-resize_2-target.png,1000,3.452,7,3200,1012,feet,jsons/v1_VE1000_randls_60_rotated.json,632533,729966,40,Man
90,270708,DepthScenes,duration_manipulation_targetAtFixation,jsons/v1_VE1000_randls_60_rotated.json,http://54.235.29.9/FacialAge/BNav_EC2/DepthDuration/v2_depth_duration_MTurk/v2_DepthDuration_HTML.html#328,328,1440,757,1440,900,9-3-2022,10-2-23,91,depth_duration_stimuli/003338_2014-05-20_11-01-23_094959634447_rgbf000051-resize_6/003338_2014-05-20_11-01-23_094959634447_rgbf000051-resize_6-target.png,1000,1.693,3,3071,996,feet,jsons/v1_VE1000_randls_60_rotated.json,632533,729966,40,Man
91,270708,DepthScenes,duration_manipulation_targetAtFixation,jsons/v1_VE1000_randls_60_rotated.json,http://54.235.29.9/FacialAge/BNav_EC2/DepthDuration/v2_depth_duration_MTurk/v2_DepthDuration_HTML.html#328,328,1440,757,1440,900,9-3-2022,10-2-23,92,depth_duration_stimuli/002509_2014-06-24_13-19-22_094959634447_rgbf000077-resize_0/002509_2014-06-24_13-19-22_094959634447_rgbf000077-resize_0-target.png,1000,1.3065,2,3187,1000,feet,jsons/v1_VE1000_randls_60_rotated.json,632533,729966,40,Man
92,270708,DepthScenes,duration_manipulation_targetAtFixation,jsons/v1_VE1000_randls_60_rotated.json,http://54.235.29.9/FacialAge/BNav_EC2/DepthDuration/v2_depth_duration_MTurk/v2_DepthDuration_HTML.html#328,328,1440,757,1440,900,9-3-2022,10-2-23,93,depth_duration_stimuli/003081_2014-06-15_15-19-16_094959634447_rgbf000150-resize_1/003081_2014-06-15_15-19-16_094959634447_rgbf000150-resize_1-target.png,1000,3.9125,4,3193,999,feet,jsons/v1_VE1000_randls_60_rotated.json,632533,729966,40,Man
93,270708,DepthScenes,duration_manipulation_targetAtFixation,jsons/v1_VE1000_randls_60_rotated.json,http://54.235.29.9/FacialAge/BNav_EC2/DepthDuration/v2_depth_duration_MTurk/v2_DepthDuration_HTML.html#328,328,1440,757,1440,900,9-3-2022,10-2-23,94,depth_duration_stimuli/001417_2014-06-19_16-25-36_260595134347_rgbf000115-resize_5/001417_2014-06-19_16-25-36_260595134347_rgbf000115-resize_5-target.png,1000,4.6255,6,3391,996,feet,jsons/v1_VE1000_randls_60_rotated.json,632533,729966,40,Man
94,270708,DepthScenes,duration_manipulation_targetAtFixation,jsons/v1_VE1000_randls_60_rotated.json,http://54.235.29.9/FacialAge/BNav_EC2/DepthDuration/v2_depth_duration_MTurk/v2_DepthDuration_HTML.html#328,328,1440,757,1440,900,9-3-2022,10-2-23,95,depth_duration_stimuli/002758_2014-06-22_19-11-20_094959634447_rgbf000128-resize_1/002758_2014-06-22_19-11-20_094959634447_rgbf000128-resize_1-target.png,1000,2.555,4,3233,989,feet,jsons/v1_VE1000_randls_60_rotated.json,632533,729966,40,Man
95,270708,DepthScenes,duration_manipulation_targetAtFixation,jsons/v1_VE1000_randls_60_rotated.json,http://54.235.29.9/FacialAge/BNav_EC2/DepthDuration/v2_depth_duration_MTurk/v2_DepthDuration_HTML.html#328,328,1440,757,1440,900,9-3-2022,10-2-23,96,depth_duration_stimuli/002630_2014-06-24_14-47-50_094959634447_rgbf000055-resize_1/002630_2014-06-24_14-47-50_094959634447_rgbf000055-resize_1-target.png,1000,3.0095,6,3384,987,feet,jsons/v1_VE1000_randls_60_rotated.json,632533,729966,40,Man
96,270708,DepthScenes,duration_manipulation_targetAtFixation,jsons/v1_VE1000_randls_60_rotated.json,http://54.235.29.9/FacialAge/BNav_EC2/DepthDuration/v2_depth_duration_MTurk/v2_DepthDuration_HTML.html#328,328,1440,757,1440,900,9-3-2022,10-2-23,97,depth_duration_stimuli/002805_2014-06-22_19-54-03_094959634447_rgbf000079-resize_1/002805_2014-06-22_19-54-03_094959634447_rgbf000079-resize_1-target.png,1000,3.1439999999999997,7,3683,999,feet,jsons/v1_VE1000_randls_60_rotated.json,632533,729966,40,Man
97,270708,DepthScenes,duration_manipulation_targetAtFixation,jsons/v1_VE1000_randls_60_rotated.json,http://54.235.29.9/FacialAge/BNav_EC2/DepthDuration/v2_depth_duration_MTurk/v2_DepthDuration_HTML.html#328,328,1440,757,1440,900,9-3-2022,10-2-23,98,depth_duration_stimuli/000906_2014-06-08_13-35-43_260595134347_rgbf000155-resize_1/000906_2014-06-08_13-35-43_260595134347_rgbf000155-resize_1-target.png,1000,2.8489999999999998,9,3760,996,feet,jsons/v1_VE1000_randls_60_rotated.json,632533,729966,40,Man
98,270708,DepthScenes,duration_manipulation_targetAtFixation,jsons/v1_VE1000_randls_60_rotated.json,http://54.235.29.9/FacialAge/BNav_EC2/DepthDuration/v2_depth_duration_MTurk/v2_DepthDuration_HTML.html#328,328,1440,757,1440,900,9-3-2022,10-2-23,99,depth_duration_stimuli/001222_2014-06-17_16-24-06_260595134347_rgbf000073-resize_0/001222_2014-06-17_16-24-06_260595134347_rgbf000073-resize-original.jpg,1000,1.4385,0,2893,986,feet,jsons/v1_VE1000_randls_60_rotated.json,632533,729966,40,Man
99,270708,DepthScenes,duration_manipulation_targetAtFixation,jsons/v1_VE1000_randls_60_rotated.json,http://54.235.29.9/FacialAge/BNav_EC2/DepthDuration/v2_depth_duration_MTurk/v2_DepthDuration_HTML.html#328,328,1440,757,1440,900,9-3-2022,10-2-23,100,depth_duration_stimuli/002344_2014-06-28_20-06-29_260595134347_rgbf000030-resize_1/002344_2014-06-28_20-06-29_260595134347_rgbf000030-resize_1-target.png,1000,1.5795,1,2907,1000,feet,jsons/v1_VE1000_randls_60_rotated.json,632533,729966,40,Man
100,270708,DepthScenes,duration_manipulation_targetAtFixation,jsons/v1_VE1000_randls_60_rotated.json,http://54.235.29.9/FacialAge/BNav_EC2/DepthDuration/v2_depth_duration_MTurk/v2_DepthDuration_HTML.html#328,328,1440,757,1440,900,9-3-2022,10-2-23,101,depth_duration_stimuli/002725_2014-06-22_11-47-51_094959634447_rgbf000070-resize_1/002725_2014-06-22_11-47-51_094959634447_rgbf000070-resize_1-target.png,1000,2.195,4,3038,997,feet,jsons/v1_VE1000_randls_60_rotated.json,632533,729966,40,Man
101,270708,DepthScenes,duration_manipulation_targetAtFixation,jsons/v1_VE1000_randls_60_rotated.json,http://54.235.29.9/FacialAge/BNav_EC2/DepthDuration/v2_depth_duration_MTurk/v2_DepthDuration_HTML.html#328,328,1440,757,1440,900,9-3-2022,10-2-23,102,depth_duration_stimuli/000749_2014-06-08_21-55-06_260595134347_rgbf000070-resize_2/000749_2014-06-08_21-55-06_260595134347_rgbf000070-resize_2-target.png,1000,2.331,4,3468,993,feet,jsons/v1_VE1000_randls_60_rotated.json,632533,729966,40,Man
102,270708,DepthScenes,duration_manipulation_targetAtFixation,jsons/v1_VE1000_randls_60_rotated.json,http://54.235.29.9/FacialAge/BNav_EC2/DepthDuration/v2_depth_duration_MTurk/v2_DepthDuration_HTML.html#328,328,1440,757,1440,900,9-3-2022,10-2-23,103,depth_duration_stimuli/002788_2014-06-22_19-36-03_094959634447_rgbf000088-resize_2/002788_2014-06-22_19-36-03_094959634447_rgbf000088-resize_2-target.png,1000,1.6465,5,3347,1000,feet,jsons/v1_VE1000_randls_60_rotated.json,632533,729966,40,Man
103,270708,DepthScenes,duration_manipulation_targetAtFixation,jsons/v1_VE1000_randls_60_rotated.json,http://54.235.29.9/FacialAge/BNav_EC2/DepthDuration/v2_depth_duration_MTurk/v2_DepthDuration_HTML.html#328,328,1440,757,1440,900,9-3-2022,10-2-23,104,depth_duration_stimuli/000549_2014-06-08_22-10-24_260595134347_rgbf000247-resize_3/000549_2014-06-08_22-10-24_260595134347_rgbf000247-resize_3-target.png,1000,1.841,2,3118,988,feet,jsons/v1_VE1000_randls_60_rotated.json,632533,729966,40,Man
104,270708,DepthScenes,duration_manipulation_targetAtFixation,jsons/v1_VE1000_randls_60_rotated.json,http://54.235.29.9/FacialAge/BNav_EC2/DepthDuration/v2_depth_duration_MTurk/v2_DepthDuration_HTML.html#328,328,1440,757,1440,900,9-3-2022,10-2-23,105,depth_duration_stimuli/001055_2014-06-08_18-45-35_260595134347_rgbf000111-resize_4/001055_2014-06-08_18-45-35_260595134347_rgbf000111-resize_4-target.png,1000,2.4290000000000003,6,3212,1000,feet,jsons/v1_VE1000_randls_60_rotated.json,632533,729966,40,Man
105,270708,DepthScenes,duration_manipulation_targetAtFixation,jsons/v1_VE1000_randls_60_rotated.json,http://54.235.29.9/FacialAge/BNav_EC2/DepthDuration/v2_depth_duration_MTurk/v2_DepthDuration_HTML.html#328,328,1440,757,1440,900,9-3-2022,10-2-23,106,depth_duration_stimuli/000691_2014-06-08_13-08-50_260595134347_rgbf000132-resize_3/000691_2014-06-08_13-08-50_260595134347_rgbf000132-resize_3-target.png,1000,4.1530000000000005,4,2947,1010,feet,jsons/v1_VE1000_randls_60_rotated.json,632533,729966,40,Man
106,270708,DepthScenes,duration_manipulation_targetAtFixation,jsons/v1_VE1000_randls_60_rotated.json,http://54.235.29.9/FacialAge/BNav_EC2/DepthDuration/v2_depth_duration_MTurk/v2_DepthDuration_HTML.html#328,328,1440,757,1440,900,9-3-2022,10-2-23,107,depth_duration_stimuli/002213_2014-06-28_18-37-58_260595134347_rgbf000055-resize_1/002213_2014-06-28_18-37-58_260595134347_rgbf000055-resize_1-target.png,1000,3.62,7,2912,996,feet,jsons/v1_VE1000_randls_60_rotated.json,632533,729966,40,Man
107,270708,DepthScenes,duration_manipulation_targetAtFixation,jsons/v1_VE1000_randls_60_rotated.json,http://54.235.29.9/FacialAge/BNav_EC2/DepthDuration/v2_depth_duration_MTurk/v2_DepthDuration_HTML.html#328,328,1440,757,1440,900,9-3-2022,10-2-23,108,depth_duration_stimuli/000109_2014-05-14_23-41-52_260595134347_rgbf000035-resize_9/000109_2014-05-14_23-41-52_260595134347_rgbf000035-resize_9-target.png,1000,1.3545,2,3219,991,feet,jsons/v1_VE1000_randls_60_rotated.json,632533,729966,40,Man
108,270708,DepthScenes,duration_manipulation_targetAtFixation,jsons/v1_VE1000_randls_60_rotated.json,http://54.235.29.9/FacialAge/BNav_EC2/DepthDuration/v2_depth_duration_MTurk/v2_DepthDuration_HTML.html#328,328,1440,757,1440,900,9-3-2022,10-2-23,109,depth_duration_stimuli/000470_2014-06-09_19-42-40_260595134347_rgbf000094-resize_1/000470_2014-06-09_19-42-40_260595134347_rgbf000094-resize_1-target.png,1000,1.831,4,2926,994,feet,jsons/v1_VE1000_randls_60_rotated.json,632533,729966,40,Man
109,270708,DepthScenes,duration_manipulation_targetAtFixation,jsons/v1_VE1000_randls_60_rotated.json,http://54.235.29.9/FacialAge/BNav_EC2/DepthDuration/v2_depth_duration_MTurk/v2_DepthDuration_HTML.html#328,328,1440,757,1440,900,9-3-2022,10-2-23,110,depth_duration_stimuli/003490_2014-05-21_15-50-11_094959634447_rgbf000101-resize_3/003490_2014-05-21_15-50-11_094959634447_rgbf000101-resize_3-target.png,1000,3.6445,6,2940,999,feet,jsons/v1_VE1000_randls_60_rotated.json,632533,729966,40,Man
110,270708,DepthScenes,duration_manipulation_targetAtFixation,jsons/v1_VE1000_randls_60_rotated.json,http://54.235.29.9/FacialAge/BNav_EC2/DepthDuration/v2_depth_duration_MTurk/v2_DepthDuration_HTML.html#328,328,1440,757,1440,900,9-3-2022,10-2-23,111,depth_duration_stimuli/001175_2014-06-17_15-45-55_260595134347_rgbf000129-resize_4/001175_2014-06-17_15-45-55_260595134347_rgbf000129-resize_4-target.png,1000,4.255,8,2979,1003,feet,jsons/v1_VE1000_randls_60_rotated.json,632533,729966,40,Man
111,270708,DepthScenes,duration_manipulation_targetAtFixation,jsons/v1_VE1000_randls_60_rotated.json,http://54.235.29.9/FacialAge/BNav_EC2/DepthDuration/v2_depth_duration_MTurk/v2_DepthDuration_HTML.html#328,328,1440,757,1440,900,9-3-2022,10-2-23,112,depth_duration_stimuli/003129_2014-05-12_10-48-10_094959634447_rgbf000100-resize_0/003129_2014-05-12_10-48-10_094959634447_rgbf000100-resize_0-target.png,1000,4.9305,12,3991,995,feet,jsons/v1_VE1000_randls_60_rotated.json,632533,729966,40,Man
112,270708,DepthScenes,duration_manipulation_targetAtFixation,jsons/v1_VE1000_randls_60_rotated.json,http://54.235.29.9/FacialAge/BNav_EC2/DepthDuration/v2_depth_duration_MTurk/v2_DepthDuration_HTML.html#328,328,1440,757,1440,900,9-3-2022,10-2-23,113,depth_duration_stimuli/000414_2014-06-04_19-49-13_260595134347_rgbf000044-resize_0/000414_2014-06-04_19-49-13_260595134347_rgbf000044-resize_0-target.png,1000,4.329,8,6702,1007,feet,jsons/v1_VE1000_randls_60_rotated.json,632533,729966,40,Man
113,270708,DepthScenes,duration_manipulation_targetAtFixation,jsons/v1_VE1000_randls_60_rotated.json,http://54.235.29.9/FacialAge/BNav_EC2/DepthDuration/v2_depth_duration_MTurk/v2_DepthDuration_HTML.html#328,328,1440,757,1440,900,9-3-2022,10-2-23,114,depth_duration_stimuli/002949_2014-06-26_15-57-42_094959634447_rgbf000079-resize_1/002949_2014-06-26_15-57-42_094959634447_rgbf000079-resize_1-target.png,1000,1.8915,3,3285,994,feet,jsons/v1_VE1000_randls_60_rotated.json,632533,729966,40,Man
114,270708,DepthScenes,duration_manipulation_targetAtFixation,jsons/v1_VE1000_randls_60_rotated.json,http://54.235.29.9/FacialAge/BNav_EC2/DepthDuration/v2_depth_duration_MTurk/v2_DepthDuration_HTML.html#328,328,1440,757,1440,900,9-3-2022,10-2-23,115,depth_duration_stimuli/000522_2014-06-08_13-35-06_260595134347_rgbf000244-resize_1/000522_2014-06-08_13-35-06_260595134347_rgbf000244-resize_1-target.png,1000,2.3715,3,3244,1000,feet,jsons/v1_VE1000_randls_60_rotated.json,632533,729966,40,Man
115,270708,DepthScenes,duration_manipulation_targetAtFixation,jsons/v1_VE1000_randls_60_rotated.json,http://54.235.29.9/FacialAge/BNav_EC2/DepthDuration/v2_depth_duration_MTurk/v2_DepthDuration_HTML.html#328,328,1440,757,1440,900,9-3-2022,10-2-23,116,depth_duration_stimuli/002660_2014-06-13_15-44-18_094959634447_rgbf001878-resize_2/002660_2014-06-13_15-44-18_094959634447_rgbf001878-resize_2-target.png,1000,3.576,4,3281,997,feet,jsons/v1_VE1000_randls_60_rotated.json,632533,729966,40,Man
116,270708,DepthScenes,duration_manipulation_targetAtFixation,jsons/v1_VE1000_randls_60_rotated.json,http://54.235.29.9/FacialAge/BNav_EC2/DepthDuration/v2_depth_duration_MTurk/v2_DepthDuration_HTML.html#328,328,1440,757,1440,900,9-3-2022,10-2-23,117,depth_duration_stimuli/002153_2014-06-25_21-27-18_260595134347_rgbf000038-resize_5/002153_2014-06-25_21-27-18_260595134347_rgbf000038-resize_5-target.png,1000,2.505,4,3285,993,feet,jsons/v1_VE1000_randls_60_rotated.json,632533,729966,40,Man
117,270708,DepthScenes,duration_manipulation_targetAtFixation,jsons/v1_VE1000_randls_60_rotated.json,http://54.235.29.9/FacialAge/BNav_EC2/DepthDuration/v2_depth_duration_MTurk/v2_DepthDuration_HTML.html#328,328,1440,757,1440,900,9-3-2022,10-2-23,118,depth_duration_stimuli/000854_2014-06-09_19-43-13_260595134347_rgbf000066-resize_0/000854_2014-06-09_19-43-13_260595134347_rgbf000066-resize_0-target.png,1000,3.068,4,3136,990,feet,jsons/v1_VE1000_randls_60_rotated.json,632533,729966,40,Man
118,270708,DepthScenes,duration_manipulation_targetAtFixation,jsons/v1_VE1000_randls_60_rotated.json,http://54.235.29.9/FacialAge/BNav_EC2/DepthDuration/v2_depth_duration_MTurk/v2_DepthDuration_HTML.html#328,328,1440,757,1440,900,9-3-2022,10-2-23,119,depth_duration_stimuli/000758_2014-06-08_22-05-08_260595134347_rgbf000085-resize_0/000758_2014-06-08_22-05-08_260595134347_rgbf000085-resize_0-target.png,1000,3.3810000000000002,8,2931,1009,feet,jsons/v1_VE1000_randls_60_rotated.json,632533,729966,40,Man
119,270708,DepthScenes,duration_manipulation_targetAtFixation,jsons/v1_VE1000_randls_60_rotated.json,http://54.235.29.9/FacialAge/BNav_EC2/DepthDuration/v2_depth_duration_MTurk/v2_DepthDuration_HTML.html#328,328,1440,757,1440,900,9-3-2022,10-2-23,120,depth_duration_stimuli/000787_2014-06-08_22-33-53_260595134347_rgbf000175-resize_1/000787_2014-06-08_22-33-53_260595134347_rgbf000175-resize-original.jpg,1000,4.784,0,3148,993,feet,jsons/v1_VE1000_randls_60_rotated.json,632533,729966,40,Man
120,270708,DepthScenes,duration_manipulation_targetAtFixation,jsons/v1_VE1000_randls_60_rotated.json,http://54.235.29.9/FacialAge/BNav_EC2/DepthDuration/v2_depth_duration_MTurk/v2_DepthDuration_HTML.html#328,328,1440,757,1440,900,9-3-2022,10-2-23,121,depth_duration_stimuli/002545_2014-06-24_13-38-53_094959634447_rgbf000080-resize_4/002545_2014-06-24_13-38-53_094959634447_rgbf000080-resize_4-target.png,1000,1.9205,4,3444,994,feet,jsons/v1_VE1000_randls_60_rotated.json,632533,729966,40,Man
121,270708,DepthScenes,duration_manipulation_targetAtFixation,jsons/v1_VE1000_randls_60_rotated.json,http://54.235.29.9/FacialAge/BNav_EC2/DepthDuration/v2_depth_duration_MTurk/v2_DepthDuration_HTML.html#328,328,1440,757,1440,900,9-3-2022,10-2-23,122,depth_duration_stimuli/001092_2014-06-15_17-34-58_260595134347_rgbf000171-resize_3/001092_2014-06-15_17-34-58_260595134347_rgbf000171-resize_3-target.png,1000,2.6935,2,4001,998,feet,jsons/v1_VE1000_randls_60_rotated.json,632533,729966,40,Man
122,270708,DepthScenes,duration_manipulation_targetAtFixation,jsons/v1_VE1000_randls_60_rotated.json,http://54.235.29.9/FacialAge/BNav_EC2/DepthDuration/v2_depth_duration_MTurk/v2_DepthDuration_HTML.html#328,328,1440,757,1440,900,9-3-2022,10-2-23,123,depth_duration_stimuli/003079_2014-06-15_15-18-20_094959634447_rgbf000152-resize_8/003079_2014-06-15_15-18-20_094959634447_rgbf000152-resize_8-target.png,1000,2.8775,4,3067,1007,feet,jsons/v1_VE1000_randls_60_rotated.json,632533,729966,40,Man
123,270708,DepthScenes,duration_manipulation_targetAtFixation,jsons/v1_VE1000_randls_60_rotated.json,http://54.235.29.9/FacialAge/BNav_EC2/DepthDuration/v2_depth_duration_MTurk/v2_DepthDuration_HTML.html#328,328,1440,757,1440,900,9-3-2022,10-2-23,124,depth_duration_stimuli/000506_2014-06-08_23-21-00_260595134347_rgbf000070-resize_7/000506_2014-06-08_23-21-00_260595134347_rgbf000070-resize_7-target.png,1000,4.0585,5,3528,998,feet,jsons/v1_VE1000_randls_60_rotated.json,632533,729966,40,Man
124,270708,DepthScenes,duration_manipulation_targetAtFixation,jsons/v1_VE1000_randls_60_rotated.json,http://54.235.29.9/FacialAge/BNav_EC2/DepthDuration/v2_depth_duration_MTurk/v2_DepthDuration_HTML.html#328,328,1440,757,1440,900,9-3-2022,10-2-23,125,depth_duration_stimuli/003228_2014-05-14_13-42-35_094959634447_rgbf000101-resize_1/003228_2014-05-14_13-42-35_094959634447_rgbf000101-resize_1-target.png,1000,1.9680000000000002,2,3060,1004,feet,jsons/v1_VE1000_randls_60_rotated.json,632533,729966,40,Man
125,270708,DepthScenes,duration_manipulation_targetAtFixation,jsons/v1_VE1000_randls_60_rotated.json,http://54.235.29.9/FacialAge/BNav_EC2/DepthDuration/v2_depth_duration_MTurk/v2_DepthDuration_HTML.html#328,328,1440,757,1440,900,9-3-2022,10-2-23,126,depth_duration_stimuli/002600_2014-06-24_14-27-04_094959634447_rgbf000074-resize_2/002600_2014-06-24_14-27-04_094959634447_rgbf000074-resize_2-target.png,1000,2.7575,7,2834,999,feet,jsons/v1_VE1000_randls_60_rotated.json,632533,729966,40,Man
126,270708,DepthScenes,duration_manipulation_targetAtFixation,jsons/v1_VE1000_randls_60_rotated.json,http://54.235.29.9/FacialAge/BNav_EC2/DepthDuration/v2_depth_duration_MTurk/v2_DepthDuration_HTML.html#328,328,1440,757,1440,900,9-3-2022,10-2-23,127,depth_duration_stimuli/001447_2014-06-19_17-00-32_260595134347_rgbf000082-resize_5/001447_2014-06-19_17-00-32_260595134347_rgbf000082-resize_5-target.png,1000,4.13775,7,2800,994,feet,jsons/v1_VE1000_randls_60_rotated.json,632533,729966,40,Man
127,270708,DepthScenes,duration_manipulation_targetAtFixation,jsons/v1_VE1000_randls_60_rotated.json,http://54.235.29.9/FacialAge/BNav_EC2/DepthDuration/v2_depth_duration_MTurk/v2_DepthDuration_HTML.html#328,328,1440,757,1440,900,9-3-2022,10-2-23,128,depth_duration_stimuli/000447_2014-06-08_16-15-46_260595134347_rgbf000130-resize_1/000447_2014-06-08_16-15-46_260595134347_rgbf000130-resize_1-target.png,1000,4.479,7,3048,988,feet,jsons/v1_VE1000_randls_60_rotated.json,632533,729966,40,Man
128,270708,DepthScenes,duration_manipulation_targetAtFixation,jsons/v1_VE1000_randls_60_rotated.json,http://54.235.29.9/FacialAge/BNav_EC2/DepthDuration/v2_depth_duration_MTurk/v2_DepthDuration_HTML.html#328,328,1440,757,1440,900,9-3-2022,10-2-23,129,depth_duration_stimuli/002425_2014-06-28_20-27-29_260595134347_rgbf000031-resize_8/002425_2014-06-28_20-27-29_260595134347_rgbf000031-resize_8-target.png,1000,3.8960000000000004,8,3844,1007,feet,jsons/v1_VE1000_randls_60_rotated.json,632533,729966,40,Man
129,270708,DepthScenes,duration_manipulation_targetAtFixation,jsons/v1_VE1000_randls_60_rotated.json,http://54.235.29.9/FacialAge/BNav_EC2/DepthDuration/v2_depth_duration_MTurk/v2_DepthDuration_HTML.html#328,328,1440,757,1440,900,9-3-2022,10-2-23,130,depth_duration_stimuli/000642_2014-06-08_16-59-25_260595134347_rgbf000098-resize_2/000642_2014-06-08_16-59-25_260595134347_rgbf000098-resize_2-target.png,1000,2.8815,8,3712,990,feet,jsons/v1_VE1000_randls_60_rotated.json,632533,729966,40,Man
130,270708,DepthScenes,duration_manipulation_targetAtFixation,jsons/v1_VE1000_randls_60_rotated.json,http://54.235.29.9/FacialAge/BNav_EC2/DepthDuration/v2_depth_duration_MTurk/v2_DepthDuration_HTML.html#328,328,1440,757,1440,900,9-3-2022,10-2-23,131,depth_duration_stimuli/002875_2014-06-01_15-19-00_094959634447_rgbf000151-resize_1/002875_2014-06-01_15-19-00_094959634447_rgbf000151-resize_1-target.png,1000,1.9675,4,3123,1011,feet,jsons/v1_VE1000_randls_60_rotated.json,632533,729966,40,Man
131,270708,DepthScenes,duration_manipulation_targetAtFixation,jsons/v1_VE1000_randls_60_rotated.json,http://54.235.29.9/FacialAge/BNav_EC2/DepthDuration/v2_depth_duration_MTurk/v2_DepthDuration_HTML.html#328,328,1440,757,1440,900,9-3-2022,10-2-23,132,depth_duration_stimuli/001011_2014-06-08_23-18-54_260595134347_rgbf000044-resize_4/001011_2014-06-08_23-18-54_260595134347_rgbf000044-resize_4-target.png,1000,2.4730000000000003,6,3104,998,feet,jsons/v1_VE1000_randls_60_rotated.json,632533,729966,40,Man
132,270708,DepthScenes,duration_manipulation_targetAtFixation,jsons/v1_VE1000_randls_60_rotated.json,http://54.235.29.9/FacialAge/BNav_EC2/DepthDuration/v2_depth_duration_MTurk/v2_DepthDuration_HTML.html#328,328,1440,757,1440,900,9-3-2022,10-2-23,133,depth_duration_stimuli/002568_2014-06-24_13-59-21_094959634447_rgbf000062-resize_4/002568_2014-06-24_13-59-21_094959634447_rgbf000062-resize_4-target.png,1000,3.015,4,3116,994,feet,jsons/v1_VE1000_randls_60_rotated.json,632533,729966,40,Man
133,270708,DepthScenes,duration_manipulation_targetAtFixation,jsons/v1_VE1000_randls_60_rotated.json,http://54.235.29.9/FacialAge/BNav_EC2/DepthDuration/v2_depth_duration_MTurk/v2_DepthDuration_HTML.html#328,328,1440,757,1440,900,9-3-2022,10-2-23,134,depth_duration_stimuli/003492_2014-05-21_15-50-55_094959634447_rgbf000828-resize_1/003492_2014-05-21_15-50-55_094959634447_rgbf000828-resize_1-target.png,1000,4.06875,6,2877,999,feet,jsons/v1_VE1000_randls_60_rotated.json,632533,729966,40,Man
134,270708,DepthScenes,duration_manipulation_targetAtFixation,jsons/v1_VE1000_randls_60_rotated.json,http://54.235.29.9/FacialAge/BNav_EC2/DepthDuration/v2_depth_duration_MTurk/v2_DepthDuration_HTML.html#328,328,1440,757,1440,900,9-3-2022,10-2-23,135,depth_duration_stimuli/000375_2014-06-08_11-17-29_260595134347_rgbf000133-resize_2/000375_2014-06-08_11-17-29_260595134347_rgbf000133-resize-original.jpg,1000,4.718,0,3163,992,feet,jsons/v1_VE1000_randls_60_rotated.json,632533,729966,40,Man
135,270708,DepthScenes,duration_manipulation_targetAtFixation,jsons/v1_VE1000_randls_60_rotated.json,http://54.235.29.9/FacialAge/BNav_EC2/DepthDuration/v2_depth_duration_MTurk/v2_DepthDuration_HTML.html#328,328,1440,757,1440,900,9-3-2022,10-2-23,136,depth_duration_stimuli/002199_2014-06-28_18-33-56_260595134347_rgbf000074-resize_0/002199_2014-06-28_18-33-56_260595134347_rgbf000074-resize_0-target.png,1000,1.996,2,3027,1003,feet,jsons/v1_VE1000_randls_60_rotated.json,632533,729966,40,Man
136,270708,DepthScenes,duration_manipulation_targetAtFixation,jsons/v1_VE1000_randls_60_rotated.json,http://54.235.29.9/FacialAge/BNav_EC2/DepthDuration/v2_depth_duration_MTurk/v2_DepthDuration_HTML.html#328,328,1440,757,1440,900,9-3-2022,10-2-23,137,depth_duration_stimuli/001056_2014-06-08_18-46-44_260595134347_rgbf000068-resize_0/001056_2014-06-08_18-46-44_260595134347_rgbf000068-resize_0-target.png,1000,2.6625,4,3780,1001,feet,jsons/v1_VE1000_randls_60_rotated.json,632533,729966,40,Man
137,270708,DepthScenes,duration_manipulation_targetAtFixation,jsons/v1_VE1000_randls_60_rotated.json,http://54.235.29.9/FacialAge/BNav_EC2/DepthDuration/v2_depth_duration_MTurk/v2_DepthDuration_HTML.html#328,328,1440,757,1440,900,9-3-2022,10-2-23,138,depth_duration_stimuli/000866_2014-06-09_20-45-42_260595134347_rgbf000139-resize_1/000866_2014-06-09_20-45-42_260595134347_rgbf000139-resize_1-target.png,1000,3.2155,5,3400,990,feet,jsons/v1_VE1000_randls_60_rotated.json,632533,729966,40,Man
138,270708,DepthScenes,duration_manipulation_targetAtFixation,jsons/v1_VE1000_randls_60_rotated.json,http://54.235.29.9/FacialAge/BNav_EC2/DepthDuration/v2_depth_duration_MTurk/v2_DepthDuration_HTML.html#328,328,1440,757,1440,900,9-3-2022,10-2-23,139,depth_duration_stimuli/002989_2014-06-15_12-25-03_094959634447_rgbf000150-resize_3/002989_2014-06-15_12-25-03_094959634447_rgbf000150-resize_3-target.png,1000,4.1975,9,2949,997,feet,jsons/v1_VE1000_randls_60_rotated.json,632533,729966,40,Man
139,270708,DepthScenes,duration_manipulation_targetAtFixation,jsons/v1_VE1000_randls_60_rotated.json,http://54.235.29.9/FacialAge/BNav_EC2/DepthDuration/v2_depth_duration_MTurk/v2_DepthDuration_HTML.html#328,328,1440,757,1440,900,9-3-2022,10-2-23,140,depth_duration_stimuli/003587_2014-05-23_16-48-02_094959634447_rgbf002384-resize_2/003587_2014-05-23_16-48-02_094959634447_rgbf002384-resize_2-target.png,1000,1.357,2,2898,1003,feet,jsons/v1_VE1000_randls_60_rotated.json,632533,729966,40,Man
140,270708,DepthScenes,duration_manipulation_targetAtFixation,jsons/v1_VE1000_randls_60_rotated.json,http://54.235.29.9/FacialAge/BNav_EC2/DepthDuration/v2_depth_duration_MTurk/v2_DepthDuration_HTML.html#328,328,1440,757,1440,900,9-3-2022,10-2-23,141,depth_duration_stimuli/001167_2014-06-17_15-38-07_260595134347_rgbf000108-resize_0/001167_2014-06-17_15-38-07_260595134347_rgbf000108-resize_0-target.png,1000,1.8505,3,3009,1006,feet,jsons/v1_VE1000_randls_60_rotated.json,632533,729966,40,Man
141,270708,DepthScenes,duration_manipulation_targetAtFixation,jsons/v1_VE1000_randls_60_rotated.json,http://54.235.29.9/FacialAge/BNav_EC2/DepthDuration/v2_depth_duration_MTurk/v2_DepthDuration_HTML.html#328,328,1440,757,1440,900,9-3-2022,10-2-23,142,depth_duration_stimuli/002103_2014-06-25_20-00-40_260595134347_rgbf000049-resize_0/002103_2014-06-25_20-00-40_260595134347_rgbf000049-resize_0-target.png,1000,4.105,4,3151,1001,feet,jsons/v1_VE1000_randls_60_rotated.json,632533,729966,40,Man
142,270708,DepthScenes,duration_manipulation_targetAtFixation,jsons/v1_VE1000_randls_60_rotated.json,http://54.235.29.9/FacialAge/BNav_EC2/DepthDuration/v2_depth_duration_MTurk/v2_DepthDuration_HTML.html#328,328,1440,757,1440,900,9-3-2022,10-2-23,143,depth_duration_stimuli/002039_2014-06-24_20-22-38_260595134347_rgbf000084-resize_1/002039_2014-06-24_20-22-38_260595134347_rgbf000084-resize_1-target.png,1000,4.408,6,3312,997,feet,jsons/v1_VE1000_randls_60_rotated.json,632533,729966,40,Man
143,270708,DepthScenes,duration_manipulation_targetAtFixation,jsons/v1_VE1000_randls_60_rotated.json,http://54.235.29.9/FacialAge/BNav_EC2/DepthDuration/v2_depth_duration_MTurk/v2_DepthDuration_HTML.html#328,328,1440,757,1440,900,9-3-2022,10-2-23,144,depth_duration_stimuli/000780_2014-06-08_22-28-29_260595134347_rgbf000126-resize_1/000780_2014-06-08_22-28-29_260595134347_rgbf000126-resize_1-target.png,1000,3.3825,4,3275,1009,feet,jsons/v1_VE1000_randls_60_rotated.json,632533,729966,40,Man
144,270708,DepthScenes,duration_manipulation_targetAtFixation,jsons/v1_VE1000_randls_60_rotated.json,http://54.235.29.9/FacialAge/BNav_EC2/DepthDuration/v2_depth_duration_MTurk/v2_DepthDuration_HTML.html#328,328,1440,757,1440,900,9-3-2022,10-2-23,145,depth_duration_stimuli/002445_2014-06-28_20-32-16_260595134347_rgbf000029-resize_4/002445_2014-06-28_20-32-16_260595134347_rgbf000029-resize_4-target.png,1000,2.5315,2,3553,990,feet,jsons/v1_VE1000_randls_60_rotated.json,632533,729966,40,Man
145,270708,DepthScenes,duration_manipulation_targetAtFixation,jsons/v1_VE1000_randls_60_rotated.json,http://54.235.29.9/FacialAge/BNav_EC2/DepthDuration/v2_depth_duration_MTurk/v2_DepthDuration_HTML.html#328,328,1440,757,1440,900,9-3-2022,10-2-23,146,depth_duration_stimuli/000665_2014-06-09_20-42-35_260595134347_rgbf000110-resize_1/000665_2014-06-09_20-42-35_260595134347_rgbf000110-resize_1-target.png,1000,3.057,4,2919,996,feet,jsons/v1_VE1000_randls_60_rotated.json,632533,729966,40,Man
146,270708,DepthScenes,duration_manipulation_targetAtFixation,jsons/v1_VE1000_randls_60_rotated.json,http://54.235.29.9/FacialAge/BNav_EC2/DepthDuration/v2_depth_duration_MTurk/v2_DepthDuration_HTML.html#328,328,1440,757,1440,900,9-3-2022,10-2-23,147,depth_duration_stimuli/001150_2014-06-17_15-27-34_260595134347_rgbf000108-resize_2/001150_2014-06-17_15-27-34_260595134347_rgbf000108-resize_2-target.png,1000,4.0325,5,3192,997,feet,jsons/v1_VE1000_randls_60_rotated.json,632533,729966,40,Man
147,270708,DepthScenes,duration_manipulation_targetAtFixation,jsons/v1_VE1000_randls_60_rotated.json,http://54.235.29.9/FacialAge/BNav_EC2/DepthDuration/v2_depth_duration_MTurk/v2_DepthDuration_HTML.html#328,328,1440,757,1440,900,9-3-2022,10-2-23,148,depth_duration_stimuli/000734_2014-06-08_17-39-11_260595134347_rgbf000128-resize_2/000734_2014-06-08_17-39-11_260595134347_rgbf000128-resize_2-target.png,1000,4.098,5,2964,994,feet,jsons/v1_VE1000_randls_60_rotated.json,632533,729966,40,Man
148,270708,DepthScenes,duration_manipulation_targetAtFixation,jsons/v1_VE1000_randls_60_rotated.json,http://54.235.29.9/FacialAge/BNav_EC2/DepthDuration/v2_depth_duration_MTurk/v2_DepthDuration_HTML.html#328,328,1440,757,1440,900,9-3-2022,10-2-23,149,depth_duration_stimuli/000739_2014-06-08_18-45-58_260595134347_rgbf000068-resize_1/000739_2014-06-08_18-45-58_260595134347_rgbf000068-resize_1-target.png,1000,3.534,6,3822,993,feet,jsons/v1_VE1000_randls_60_rotated.json,632533,729966,40,Man
149,270708,DepthScenes,duration_manipulation_targetAtFixation,jsons/v1_VE1000_randls_60_rotated.json,http://54.235.29.9/FacialAge/BNav_EC2/DepthDuration/v2_depth_duration_MTurk/v2_DepthDuration_HTML.html#328,328,1440,757,1440,900,9-3-2022,10-2-23,150,depth_duration_stimuli/000502_2014-06-08_23-02-32_260595134347_rgbf000063-resize_4/000502_2014-06-08_23-02-32_260595134347_rgbf000063-resize_4-target.png,1000,2.431,4,3691,1008,feet,jsons/v1_VE1000_randls_60_rotated.json,632533,729966,40,Man
150,270708,DepthScenes,duration_manipulation_targetAtFixation,jsons/v1_VE1000_randls_60_rotated.json,http://54.235.29.9/FacialAge/BNav_EC2/DepthDuration/v2_depth_duration_MTurk/v2_DepthDuration_HTML.html#328,328,1440,757,1440,900,9-3-2022,10-2-23,151,depth_duration_stimuli/001199_2014-06-17_16-03-48_260595134347_rgbf000077-resize_0/001199_2014-06-17_16-03-48_260595134347_rgbf000077-resize_0-target.png,1000,3.4375,6,3482,995,feet,jsons/v1_VE1000_randls_60_rotated.json,632533,729966,40,Man
151,270708,DepthScenes,duration_manipulation_targetAtFixation,jsons/v1_VE1000_randls_60_rotated.json,http://54.235.29.9/FacialAge/BNav_EC2/DepthDuration/v2_depth_duration_MTurk/v2_DepthDuration_HTML.html#328,328,1440,757,1440,900,9-3-2022,10-2-23,152,depth_duration_stimuli/000569_2014-06-09_22-51-47_260595134347_rgbf000141-resize_3/000569_2014-06-09_22-51-47_260595134347_rgbf000141-resize-original.jpg,1000,4.512,0,3192,988,feet,jsons/v1_VE1000_randls_60_rotated.json,632533,729966,40,Man
152,270708,DepthScenes,duration_manipulation_targetAtFixation,jsons/v1_VE1000_randls_60_rotated.json,http://54.235.29.9/FacialAge/BNav_EC2/DepthDuration/v2_depth_duration_MTurk/v2_DepthDuration_HTML.html#328,328,1440,757,1440,900,9-3-2022,10-2-23,153,depth_duration_stimuli/002750_2014-06-22_19-08-03_094959634447_rgbf000094-resize_4/002750_2014-06-22_19-08-03_094959634447_rgbf000094-resize_4-target.png,1000,2.354,4,2881,1010,feet,jsons/v1_VE1000_randls_60_rotated.json,632533,729966,40,Man
153,270708,DepthScenes,duration_manipulation_targetAtFixation,jsons/v1_VE1000_randls_60_rotated.json,http://54.235.29.9/FacialAge/BNav_EC2/DepthDuration/v2_depth_duration_MTurk/v2_DepthDuration_HTML.html#328,328,1440,757,1440,900,9-3-2022,10-2-23,154,depth_duration_stimuli/002549_2014-06-24_13-41-39_094959634447_rgbf000022-resize_3/002549_2014-06-24_13-41-39_094959634447_rgbf000022-resize_3-target.png,1000,1.476,2,2916,1013,feet,jsons/v1_VE1000_randls_60_rotated.json,632533,729966,40,Man
154,270708,DepthScenes,duration_manipulation_targetAtFixation,jsons/v1_VE1000_randls_60_rotated.json,http://54.235.29.9/FacialAge/BNav_EC2/DepthDuration/v2_depth_duration_MTurk/v2_DepthDuration_HTML.html#328,328,1440,757,1440,900,9-3-2022,10-2-23,155,depth_duration_stimuli/000556_2014-06-09_22-42-56_260595134347_rgbf000214-resize_1/000556_2014-06-09_22-42-56_260595134347_rgbf000214-resize_1-target.png,1000,4.8415,4,2916,991,feet,jsons/v1_VE1000_randls_60_rotated.json,632533,729966,40,Man
155,270708,DepthScenes,duration_manipulation_targetAtFixation,jsons/v1_VE1000_randls_60_rotated.json,http://54.235.29.9/FacialAge/BNav_EC2/DepthDuration/v2_depth_duration_MTurk/v2_DepthDuration_HTML.html#328,328,1440,757,1440,900,9-3-2022,10-2-23,156,depth_duration_stimuli/001158_2014-06-17_15-32-16_260595134347_rgbf000138-resize_2/001158_2014-06-17_15-32-16_260595134347_rgbf000138-resize_2-target.png,1000,4.5315,6,3841,997,feet,jsons/v1_VE1000_randls_60_rotated.json,632533,729966,40,Man
156,270708,DepthScenes,duration_manipulation_targetAtFixation,jsons/v1_VE1000_randls_60_rotated.json,http://54.235.29.9/FacialAge/BNav_EC2/DepthDuration/v2_depth_duration_MTurk/v2_DepthDuration_HTML.html#328,328,1440,757,1440,900,9-3-2022,10-2-23,157,depth_duration_stimuli/002637_2014-06-24_14-51-13_094959634447_rgbf000066-resize_4/002637_2014-06-24_14-51-13_094959634447_rgbf000066-resize_4-target.png,1000,1.9955,5,2951,1005,feet,jsons/v1_VE1000_randls_60_rotated.json,632533,729966,40,Man
157,270708,DepthScenes,duration_manipulation_targetAtFixation,jsons/v1_VE1000_randls_60_rotated.json,http://54.235.29.9/FacialAge/BNav_EC2/DepthDuration/v2_depth_duration_MTurk/v2_DepthDuration_HTML.html#328,328,1440,757,1440,900,9-3-2022,10-2-23,158,depth_duration_stimuli/003534_2014-05-22_15-06-10_094959634447_rgbf000102-resize_4/003534_2014-05-22_15-06-10_094959634447_rgbf000102-resize_4-target.png,1000,1.426,2,2902,993,feet,jsons/v1_VE1000_randls_60_rotated.json,632533,729966,40,Man
158,270708,DepthScenes,duration_manipulation_targetAtFixation,jsons/v1_VE1000_randls_60_rotated.json,http://54.235.29.9/FacialAge/BNav_EC2/DepthDuration/v2_depth_duration_MTurk/v2_DepthDuration_HTML.html#328,328,1440,757,1440,900,9-3-2022,10-2-23,159,depth_duration_stimuli/002209_2014-06-28_18-36-10_260595134347_rgbf000051-resize_1/002209_2014-06-28_18-36-10_260595134347_rgbf000051-resize_1-target.png,1000,2.057,4,3379,991,feet,jsons/v1_VE1000_randls_60_rotated.json,632533,729966,40,Man
159,270708,DepthScenes,duration_manipulation_targetAtFixation,jsons/v1_VE1000_randls_60_rotated.json,http://54.235.29.9/FacialAge/BNav_EC2/DepthDuration/v2_depth_duration_MTurk/v2_DepthDuration_HTML.html#328,328,1440,757,1440,900,9-3-2022,10-2-23,160,depth_duration_stimuli/002763_2014-06-22_19-13-10_094959634447_rgbf000075-resize_4/002763_2014-06-22_19-13-10_094959634447_rgbf000075-resize_4-target.png,1000,1.68375,4,2836,1009,feet,jsons/v1_VE1000_randls_60_rotated.json,632533,729966,40,Man
160,270708,DepthScenes,duration_manipulation_targetAtFixation,jsons/v1_VE1000_randls_60_rotated.json,http://54.235.29.9/FacialAge/BNav_EC2/DepthDuration/v2_depth_duration_MTurk/v2_DepthDuration_HTML.html#328,328,1440,757,1440,900,9-3-2022,10-2-23,161,depth_duration_stimuli/002995_2014-06-15_12-31-26_094959634447_rgbf000150-resize_1/002995_2014-06-15_12-31-26_094959634447_rgbf000150-resize_1-target.png,1000,3.8360000000000003,6,2783,995,feet,jsons/v1_VE1000_randls_60_rotated.json,632533,729966,40,Man
161,270708,DepthScenes,duration_manipulation_targetAtFixation,jsons/v1_VE1000_randls_60_rotated.json,http://54.235.29.9/FacialAge/BNav_EC2/DepthDuration/v2_depth_duration_MTurk/v2_DepthDuration_HTML.html#328,328,1440,757,1440,900,9-3-2022,10-2-23,162,depth_duration_stimuli/002748_2014-06-22_19-07-22_094959634447_rgbf000078-resize_1/002748_2014-06-22_19-07-22_094959634447_rgbf000078-resize_1-target.png,1000,4.6705,9,3273,991,feet,jsons/v1_VE1000_randls_60_rotated.json,632533,729966,40,Man
162,270708,DepthScenes,duration_manipulation_targetAtFixation,jsons/v1_VE1000_randls_60_rotated.json,http://54.235.29.9/FacialAge/BNav_EC2/DepthDuration/v2_depth_duration_MTurk/v2_DepthDuration_HTML.html#328,328,1440,757,1440,900,9-3-2022,10-2-23,163,depth_duration_stimuli/000457_2014-06-08_16-52-43_260595134347_rgbf000199-resize_1/000457_2014-06-08_16-52-43_260595134347_rgbf000199-resize_1-target.png,1000,3.6489999999999996,7,3311,987,feet,jsons/v1_VE1000_randls_60_rotated.json,632533,729966,40,Man
163,270708,DepthScenes,duration_manipulation_targetAtFixation,jsons/v1_VE1000_randls_60_rotated.json,http://54.235.29.9/FacialAge/BNav_EC2/DepthDuration/v2_depth_duration_MTurk/v2_DepthDuration_HTML.html#328,328,1440,757,1440,900,9-3-2022,10-2-23,164,depth_duration_stimuli/000929_2014-06-09_16-33-19_260595134347_rgbf000139-resize_0/000929_2014-06-09_16-33-19_260595134347_rgbf000139-resize_0-target.png,1000,2.8680000000000003,4,3413,987,feet,jsons/v1_VE1000_randls_60_rotated.json,632533,729966,40,Man
