,subjID,experimentName,versionName,sequenceName,url,selected_row,windowWidth,windowHeight,screenWidth,screenHeight,startDate,startTime,trial,stimulus,duration,actual_depth,depth_estimate,trial_RT,log_sceneDuration,unitSelection,seq_filepath,experimentTime,totalTime,age,gender
0,270834,DepthScenes,duration_manipulation_targetAtFixation,jsons/v1_VE1000_randls_41_rotated.json,http://54.235.29.9/FacialAge/BNav_EC2/DepthDuration/v2_depth_duration_MTurk/v2_DepthDuration_HTML.html#46,46,1366,625,1366,768,8-22-2022,8-17-3,1,depth_duration_stimuli/003081_2014-06-15_15-19-16_094959634447_rgbf000150-resize_1/003081_2014-06-15_15-19-16_094959634447_rgbf000150-resize_1-target.png,1000,3.9125,20,7790,976,meters,jsons/v1_VE1000_randls_41_rotated.json,775386,984939,57,Woman
1,270834,DepthScenes,duration_manipulation_targetAtFixation,jsons/v1_VE1000_randls_41_rotated.json,http://54.235.29.9/FacialAge/BNav_EC2/DepthDuration/v2_depth_duration_MTurk/v2_DepthDuration_HTML.html#46,46,1366,625,1366,768,8-22-2022,8-17-3,2,depth_duration_stimuli/001417_2014-06-19_16-25-36_260595134347_rgbf000115-resize_5/001417_2014-06-19_16-25-36_260595134347_rgbf000115-resize_5-target.png,1000,4.6255,10,6328,996,meters,jsons/v1_VE1000_randls_41_rotated.json,775386,984939,57,Woman
2,270834,DepthScenes,duration_manipulation_targetAtFixation,jsons/v1_VE1000_randls_41_rotated.json,http://54.235.29.9/FacialAge/BNav_EC2/DepthDuration/v2_depth_duration_MTurk/v2_DepthDuration_HTML.html#46,46,1366,625,1366,768,8-22-2022,8-17-3,3,depth_duration_stimuli/002199_2014-06-28_18-33-56_260595134347_rgbf000074-resize_0/002199_2014-06-28_18-33-56_260595134347_rgbf000074-resize_0-target.png,1000,1.996,15,6525,993,meters,jsons/v1_VE1000_randls_41_rotated.json,775386,984939,57,Woman
3,270834,DepthScenes,duration_manipulation_targetAtFixation,jsons/v1_VE1000_randls_41_rotated.json,http://54.235.29.9/FacialAge/BNav_EC2/DepthDuration/v2_depth_duration_MTurk/v2_DepthDuration_HTML.html#46,46,1366,625,1366,768,8-22-2022,8-17-3,4,depth_duration_stimuli/001056_2014-06-08_18-46-44_260595134347_rgbf000068-resize_0/001056_2014-06-08_18-46-44_260595134347_rgbf000068-resize_0-target.png,1000,2.6625,20,7034,990,meters,jsons/v1_VE1000_randls_41_rotated.json,775386,984939,57,Woman
4,270834,DepthScenes,duration_manipulation_targetAtFixation,jsons/v1_VE1000_randls_41_rotated.json,http://54.235.29.9/FacialAge/BNav_EC2/DepthDuration/v2_depth_duration_MTurk/v2_DepthDuration_HTML.html#46,46,1366,625,1366,768,8-22-2022,8-17-3,5,depth_duration_stimuli/000866_2014-06-09_20-45-42_260595134347_rgbf000139-resize_1/000866_2014-06-09_20-45-42_260595134347_rgbf000139-resize_1-target.png,1000,3.2155,30,5533,988,meters,jsons/v1_VE1000_randls_41_rotated.json,775386,984939,57,Woman
5,270834,DepthScenes,duration_manipulation_targetAtFixation,jsons/v1_VE1000_randls_41_rotated.json,http://54.235.29.9/FacialAge/BNav_EC2/DepthDuration/v2_depth_duration_MTurk/v2_DepthDuration_HTML.html#46,46,1366,625,1366,768,8-22-2022,8-17-3,6,depth_duration_stimuli/002989_2014-06-15_12-25-03_094959634447_rgbf000150-resize_3/002989_2014-06-15_12-25-03_094959634447_rgbf000150-resize_3-target.png,1000,4.1975,40,6243,998,meters,jsons/v1_VE1000_randls_41_rotated.json,775386,984939,57,Woman
6,270834,DepthScenes,duration_manipulation_targetAtFixation,jsons/v1_VE1000_randls_41_rotated.json,http://54.235.29.9/FacialAge/BNav_EC2/DepthDuration/v2_depth_duration_MTurk/v2_DepthDuration_HTML.html#46,46,1366,625,1366,768,8-22-2022,8-17-3,7,depth_duration_stimuli/002344_2014-06-28_20-06-29_260595134347_rgbf000030-resize_1/002344_2014-06-28_20-06-29_260595134347_rgbf000030-resize_1-target.png,1000,1.5795,50,5713,996,meters,jsons/v1_VE1000_randls_41_rotated.json,775386,984939,57,Woman
7,270834,DepthScenes,duration_manipulation_targetAtFixation,jsons/v1_VE1000_randls_41_rotated.json,http://54.235.29.9/FacialAge/BNav_EC2/DepthDuration/v2_depth_duration_MTurk/v2_DepthDuration_HTML.html#46,46,1366,625,1366,768,8-22-2022,8-17-3,8,depth_duration_stimuli/002725_2014-06-22_11-47-51_094959634447_rgbf000070-resize_1/002725_2014-06-22_11-47-51_094959634447_rgbf000070-resize_1-target.png,1000,2.195,20,5618,993,meters,jsons/v1_VE1000_randls_41_rotated.json,775386,984939,57,Woman
8,270834,DepthScenes,duration_manipulation_targetAtFixation,jsons/v1_VE1000_randls_41_rotated.json,http://54.235.29.9/FacialAge/BNav_EC2/DepthDuration/v2_depth_duration_MTurk/v2_DepthDuration_HTML.html#46,46,1366,625,1366,768,8-22-2022,8-17-3,9,depth_duration_stimuli/002750_2014-06-22_19-08-03_094959634447_rgbf000094-resize_4/002750_2014-06-22_19-08-03_094959634447_rgbf000094-resize_4-target.png,1000,2.354,25,6365,988,meters,jsons/v1_VE1000_randls_41_rotated.json,775386,984939,57,Woman
9,270834,DepthScenes,duration_manipulation_targetAtFixation,jsons/v1_VE1000_randls_41_rotated.json,http://54.235.29.9/FacialAge/BNav_EC2/DepthDuration/v2_depth_duration_MTurk/v2_DepthDuration_HTML.html#46,46,1366,625,1366,768,8-22-2022,8-17-3,10,depth_duration_stimuli/002549_2014-06-24_13-41-39_094959634447_rgbf000022-resize_3/002549_2014-06-24_13-41-39_094959634447_rgbf000022-resize_3-target.png,1000,1.476,52,5397,1005,meters,jsons/v1_VE1000_randls_41_rotated.json,775386,984939,57,Woman
10,270834,DepthScenes,duration_manipulation_targetAtFixation,jsons/v1_VE1000_randls_41_rotated.json,http://54.235.29.9/FacialAge/BNav_EC2/DepthDuration/v2_depth_duration_MTurk/v2_DepthDuration_HTML.html#46,46,1366,625,1366,768,8-22-2022,8-17-3,11,depth_duration_stimuli/000483_2014-06-09_20-41-45_260595134347_rgbf000116-resize_4/000483_2014-06-09_20-41-45_260595134347_rgbf000116-resize_4-target.png,1000,1.337,20,8305,994,meters,jsons/v1_VE1000_randls_41_rotated.json,775386,984939,57,Woman
11,270834,DepthScenes,duration_manipulation_targetAtFixation,jsons/v1_VE1000_randls_41_rotated.json,http://54.235.29.9/FacialAge/BNav_EC2/DepthDuration/v2_depth_duration_MTurk/v2_DepthDuration_HTML.html#46,46,1366,625,1366,768,8-22-2022,8-17-3,12,depth_duration_stimuli/000469_2014-06-09_19-42-10_260595134347_rgbf000081-resize_1/000469_2014-06-09_19-42-10_260595134347_rgbf000081-resize_1-target.png,1000,1.652,5,6837,993,meters,jsons/v1_VE1000_randls_41_rotated.json,775386,984939,57,Woman
12,270834,DepthScenes,duration_manipulation_targetAtFixation,jsons/v1_VE1000_randls_41_rotated.json,http://54.235.29.9/FacialAge/BNav_EC2/DepthDuration/v2_depth_duration_MTurk/v2_DepthDuration_HTML.html#46,46,1366,625,1366,768,8-22-2022,8-17-3,13,depth_duration_stimuli/001650_2014-06-20_12-09-00_260595134347_rgbf000087-resize_3/001650_2014-06-20_12-09-00_260595134347_rgbf000087-resize_3-target.png,1000,1.9505,7,8416,896,meters,jsons/v1_VE1000_randls_41_rotated.json,775386,984939,57,Woman
13,270834,DepthScenes,duration_manipulation_targetAtFixation,jsons/v1_VE1000_randls_41_rotated.json,http://54.235.29.9/FacialAge/BNav_EC2/DepthDuration/v2_depth_duration_MTurk/v2_DepthDuration_HTML.html#46,46,1366,625,1366,768,8-22-2022,8-17-3,14,depth_duration_stimuli/000682_2014-06-08_23-14-58_260595134347_rgbf000041-resize_5/000682_2014-06-08_23-14-58_260595134347_rgbf000041-resize_5-target.png,1000,2.7239999999999998,10,8596,1004,meters,jsons/v1_VE1000_randls_41_rotated.json,775386,984939,57,Woman
14,270834,DepthScenes,duration_manipulation_targetAtFixation,jsons/v1_VE1000_randls_41_rotated.json,http://54.235.29.9/FacialAge/BNav_EC2/DepthDuration/v2_depth_duration_MTurk/v2_DepthDuration_HTML.html#46,46,1366,625,1366,768,8-22-2022,8-17-3,15,depth_duration_stimuli/002545_2014-06-24_13-38-53_094959634447_rgbf000080-resize_4/002545_2014-06-24_13-38-53_094959634447_rgbf000080-resize_4-target.png,1000,1.9205,15,6320,993,meters,jsons/v1_VE1000_randls_41_rotated.json,775386,984939,57,Woman
15,270834,DepthScenes,duration_manipulation_targetAtFixation,jsons/v1_VE1000_randls_41_rotated.json,http://54.235.29.9/FacialAge/BNav_EC2/DepthDuration/v2_depth_duration_MTurk/v2_DepthDuration_HTML.html#46,46,1366,625,1366,768,8-22-2022,8-17-3,16,depth_duration_stimuli/001092_2014-06-15_17-34-58_260595134347_rgbf000171-resize_3/001092_2014-06-15_17-34-58_260595134347_rgbf000171-resize_3-target.png,1000,2.6935,30,5285,991,meters,jsons/v1_VE1000_randls_41_rotated.json,775386,984939,57,Woman
16,270834,DepthScenes,duration_manipulation_targetAtFixation,jsons/v1_VE1000_randls_41_rotated.json,http://54.235.29.9/FacialAge/BNav_EC2/DepthDuration/v2_depth_duration_MTurk/v2_DepthDuration_HTML.html#46,46,1366,625,1366,768,8-22-2022,8-17-3,17,depth_duration_stimuli/001032_2014-06-08_13-23-17_260595134347_rgbf000021-resize_3/001032_2014-06-08_13-23-17_260595134347_rgbf000021-resize_3-target.png,1000,3.2725,20,5717,998,meters,jsons/v1_VE1000_randls_41_rotated.json,775386,984939,57,Woman
17,270834,DepthScenes,duration_manipulation_targetAtFixation,jsons/v1_VE1000_randls_41_rotated.json,http://54.235.29.9/FacialAge/BNav_EC2/DepthDuration/v2_depth_duration_MTurk/v2_DepthDuration_HTML.html#46,46,1366,625,1366,768,8-22-2022,8-17-3,18,depth_duration_stimuli/001059_2014-06-08_21-53-27_260595134347_rgbf000061-resize_4/001059_2014-06-08_21-53-27_260595134347_rgbf000061-resize_4-target.png,1000,2.4185,25,5812,1007,meters,jsons/v1_VE1000_randls_41_rotated.json,775386,984939,57,Woman
18,270834,DepthScenes,duration_manipulation_targetAtFixation,jsons/v1_VE1000_randls_41_rotated.json,http://54.235.29.9/FacialAge/BNav_EC2/DepthDuration/v2_depth_duration_MTurk/v2_DepthDuration_HTML.html#46,46,1366,625,1366,768,8-22-2022,8-17-3,19,depth_duration_stimuli/001498_2014-06-19_17-45-14_260595134347_rgbf000129-resize_4/001498_2014-06-19_17-45-14_260595134347_rgbf000129-resize-original.jpg,1000,1.4075,0,5069,1008,meters,jsons/v1_VE1000_randls_41_rotated.json,775386,984939,57,Woman
19,270834,DepthScenes,duration_manipulation_targetAtFixation,jsons/v1_VE1000_randls_41_rotated.json,http://54.235.29.9/FacialAge/BNav_EC2/DepthDuration/v2_depth_duration_MTurk/v2_DepthDuration_HTML.html#46,46,1366,625,1366,768,8-22-2022,8-17-3,20,depth_duration_stimuli/002953_2014-06-08_17-32-18_094959634447_rgbf000059-resize_5/002953_2014-06-08_17-32-18_094959634447_rgbf000059-resize_5-target.png,1000,1.551,20,6774,1038,meters,jsons/v1_VE1000_randls_41_rotated.json,775386,984939,57,Woman
20,270834,DepthScenes,duration_manipulation_targetAtFixation,jsons/v1_VE1000_randls_41_rotated.json,http://54.235.29.9/FacialAge/BNav_EC2/DepthDuration/v2_depth_duration_MTurk/v2_DepthDuration_HTML.html#46,46,1366,625,1366,768,8-22-2022,8-17-3,21,depth_duration_stimuli/000878_2014-06-08_22-52-45_260595134347_rgbf000045-resize_2/000878_2014-06-08_22-52-45_260595134347_rgbf000045-resize_2-target.png,1000,2.092,30,6776,993,meters,jsons/v1_VE1000_randls_41_rotated.json,775386,984939,57,Woman
21,270834,DepthScenes,duration_manipulation_targetAtFixation,jsons/v1_VE1000_randls_41_rotated.json,http://54.235.29.9/FacialAge/BNav_EC2/DepthDuration/v2_depth_duration_MTurk/v2_DepthDuration_HTML.html#46,46,1366,625,1366,768,8-22-2022,8-17-3,22,depth_duration_stimuli/000677_2014-06-08_23-10-32_260595134347_rgbf000158-resize_6/000677_2014-06-08_23-10-32_260595134347_rgbf000158-resize_6-target.png,1000,3.556,30,4425,1007,meters,jsons/v1_VE1000_randls_41_rotated.json,775386,984939,57,Woman
22,270834,DepthScenes,duration_manipulation_targetAtFixation,jsons/v1_VE1000_randls_41_rotated.json,http://54.235.29.9/FacialAge/BNav_EC2/DepthDuration/v2_depth_duration_MTurk/v2_DepthDuration_HTML.html#46,46,1366,625,1366,768,8-22-2022,8-17-3,23,depth_duration_stimuli/001029_2014-06-08_13-17-57_260595134347_rgbf000065-resize_1/001029_2014-06-08_13-17-57_260595134347_rgbf000065-resize_1-target.png,1000,3.0835,20,3720,996,meters,jsons/v1_VE1000_randls_41_rotated.json,775386,984939,57,Woman
23,270834,DepthScenes,duration_manipulation_targetAtFixation,jsons/v1_VE1000_randls_41_rotated.json,http://54.235.29.9/FacialAge/BNav_EC2/DepthDuration/v2_depth_duration_MTurk/v2_DepthDuration_HTML.html#46,46,1366,625,1366,768,8-22-2022,8-17-3,24,depth_duration_stimuli/001052_2014-06-08_18-24-54_260595134347_rgbf000130-resize_1/001052_2014-06-08_18-24-54_260595134347_rgbf000130-resize_1-target.png,1000,4.1045,30,6066,996,meters,jsons/v1_VE1000_randls_41_rotated.json,775386,984939,57,Woman
24,270834,DepthScenes,duration_manipulation_targetAtFixation,jsons/v1_VE1000_randls_41_rotated.json,http://54.235.29.9/FacialAge/BNav_EC2/DepthDuration/v2_depth_duration_MTurk/v2_DepthDuration_HTML.html#46,46,1366,625,1366,768,8-22-2022,8-17-3,25,depth_duration_stimuli/002988_2014-06-15_12-24-20_094959634447_rgbf000150-resize_1/002988_2014-06-15_12-24-20_094959634447_rgbf000150-resize_1-target.png,1000,4.7669999999999995,20,3633,1023,meters,jsons/v1_VE1000_randls_41_rotated.json,775386,984939,57,Woman
25,270834,DepthScenes,duration_manipulation_targetAtFixation,jsons/v1_VE1000_randls_41_rotated.json,http://54.235.29.9/FacialAge/BNav_EC2/DepthDuration/v2_depth_duration_MTurk/v2_DepthDuration_HTML.html#46,46,1366,625,1366,768,8-22-2022,8-17-3,26,depth_duration_stimuli/002678_2014-06-13_16-15-32_094959634447_rgbf000151-resize_6/002678_2014-06-13_16-15-32_094959634447_rgbf000151-resize_6-target.png,1000,2.1830000000000003,30,3691,1000,meters,jsons/v1_VE1000_randls_41_rotated.json,775386,984939,57,Woman
26,270834,DepthScenes,duration_manipulation_targetAtFixation,jsons/v1_VE1000_randls_41_rotated.json,http://54.235.29.9/FacialAge/BNav_EC2/DepthDuration/v2_depth_duration_MTurk/v2_DepthDuration_HTML.html#46,46,1366,625,1366,768,8-22-2022,8-17-3,27,depth_duration_stimuli/000368_2014-06-09_15-53-01_260595134347_rgbf000155-resize_2/000368_2014-06-09_15-53-01_260595134347_rgbf000155-resize_2-target.png,1000,2.4859999999999998,20,3430,993,meters,jsons/v1_VE1000_randls_41_rotated.json,775386,984939,57,Woman
27,270834,DepthScenes,duration_manipulation_targetAtFixation,jsons/v1_VE1000_randls_41_rotated.json,http://54.235.29.9/FacialAge/BNav_EC2/DepthDuration/v2_depth_duration_MTurk/v2_DepthDuration_HTML.html#46,46,1366,625,1366,768,8-22-2022,8-17-3,28,depth_duration_stimuli/002660_2014-06-13_15-44-18_094959634447_rgbf001878-resize_2/002660_2014-06-13_15-44-18_094959634447_rgbf001878-resize_2-target.png,1000,3.576,30,3697,1007,meters,jsons/v1_VE1000_randls_41_rotated.json,775386,984939,57,Woman
28,270834,DepthScenes,duration_manipulation_targetAtFixation,jsons/v1_VE1000_randls_41_rotated.json,http://54.235.29.9/FacialAge/BNav_EC2/DepthDuration/v2_depth_duration_MTurk/v2_DepthDuration_HTML.html#46,46,1366,625,1366,768,8-22-2022,8-17-3,29,depth_duration_stimuli/002153_2014-06-25_21-27-18_260595134347_rgbf000038-resize_5/002153_2014-06-25_21-27-18_260595134347_rgbf000038-resize_5-target.png,1000,2.505,20,3574,1006,meters,jsons/v1_VE1000_randls_41_rotated.json,775386,984939,57,Woman
29,270834,DepthScenes,duration_manipulation_targetAtFixation,jsons/v1_VE1000_randls_41_rotated.json,http://54.235.29.9/FacialAge/BNav_EC2/DepthDuration/v2_depth_duration_MTurk/v2_DepthDuration_HTML.html#46,46,1366,625,1366,768,8-22-2022,8-17-3,30,depth_duration_stimuli/002072_2014-06-24_21-48-06_260595134347_rgbf000115-resize_0/002072_2014-06-24_21-48-06_260595134347_rgbf000115-resize-original.jpg,1000,4.702,0,5711,980,meters,jsons/v1_VE1000_randls_41_rotated.json,775386,984939,57,Woman
30,270834,DepthScenes,duration_manipulation_targetAtFixation,jsons/v1_VE1000_randls_41_rotated.json,http://54.235.29.9/FacialAge/BNav_EC2/DepthDuration/v2_depth_duration_MTurk/v2_DepthDuration_HTML.html#46,46,1366,625,1366,768,8-22-2022,8-17-3,31,depth_duration_stimuli/001094_2014-06-15_17-36-00_260595134347_rgbf000205-resize_0/001094_2014-06-15_17-36-00_260595134347_rgbf000205-resize_0-target.png,1000,4.2175,20,4300,1002,meters,jsons/v1_VE1000_randls_41_rotated.json,775386,984939,57,Woman
31,270834,DepthScenes,duration_manipulation_targetAtFixation,jsons/v1_VE1000_randls_41_rotated.json,http://54.235.29.9/FacialAge/BNav_EC2/DepthDuration/v2_depth_duration_MTurk/v2_DepthDuration_HTML.html#46,46,1366,625,1366,768,8-22-2022,8-17-3,32,depth_duration_stimuli/000692_2014-06-08_13-09-42_260595134347_rgbf000199-resize_2/000692_2014-06-08_13-09-42_260595134347_rgbf000199-resize_2-target.png,1000,3.661,30,3829,1018,meters,jsons/v1_VE1000_randls_41_rotated.json,775386,984939,57,Woman
32,270834,DepthScenes,duration_manipulation_targetAtFixation,jsons/v1_VE1000_randls_41_rotated.json,http://54.235.29.9/FacialAge/BNav_EC2/DepthDuration/v2_depth_duration_MTurk/v2_DepthDuration_HTML.html#46,46,1366,625,1366,768,8-22-2022,8-17-3,33,depth_duration_stimuli/001584_2014-06-20_11-07-43_260595134347_rgbf000002-resize_1/001584_2014-06-20_11-07-43_260595134347_rgbf000002-resize_1-target.png,1000,3.53,20,4099,999,meters,jsons/v1_VE1000_randls_41_rotated.json,775386,984939,57,Woman
33,270834,DepthScenes,duration_manipulation_targetAtFixation,jsons/v1_VE1000_randls_41_rotated.json,http://54.235.29.9/FacialAge/BNav_EC2/DepthDuration/v2_depth_duration_MTurk/v2_DepthDuration_HTML.html#46,46,1366,625,1366,768,8-22-2022,8-17-3,34,depth_duration_stimuli/003621_2014-05-23_18-06-08_094959634447_rgbf000101-resize_1/003621_2014-05-23_18-06-08_094959634447_rgbf000101-resize_1-target.png,1000,3.9835,30,3913,990,meters,jsons/v1_VE1000_randls_41_rotated.json,775386,984939,57,Woman
34,270834,DepthScenes,duration_manipulation_targetAtFixation,jsons/v1_VE1000_randls_41_rotated.json,http://54.235.29.9/FacialAge/BNav_EC2/DepthDuration/v2_depth_duration_MTurk/v2_DepthDuration_HTML.html#46,46,1366,625,1366,768,8-22-2022,8-17-3,35,depth_duration_stimuli/000943_2014-06-09_19-31-07_260595134347_rgbf000128-resize_1/000943_2014-06-09_19-31-07_260595134347_rgbf000128-resize_1-target.png,1000,1.9765,20,3711,1002,meters,jsons/v1_VE1000_randls_41_rotated.json,775386,984939,57,Woman
35,270834,DepthScenes,duration_manipulation_targetAtFixation,jsons/v1_VE1000_randls_41_rotated.json,http://54.235.29.9/FacialAge/BNav_EC2/DepthDuration/v2_depth_duration_MTurk/v2_DepthDuration_HTML.html#46,46,1366,625,1366,768,8-22-2022,8-17-3,36,depth_duration_stimuli/003070_2014-06-15_14-58-27_094959634447_rgbf000150-resize_3/003070_2014-06-15_14-58-27_094959634447_rgbf000150-resize_3-target.png,1000,2.9415,30,3865,999,meters,jsons/v1_VE1000_randls_41_rotated.json,775386,984939,57,Woman
36,270834,DepthScenes,duration_manipulation_targetAtFixation,jsons/v1_VE1000_randls_41_rotated.json,http://54.235.29.9/FacialAge/BNav_EC2/DepthDuration/v2_depth_duration_MTurk/v2_DepthDuration_HTML.html#46,46,1366,625,1366,768,8-22-2022,8-17-3,37,depth_duration_stimuli/003079_2014-06-15_15-18-20_094959634447_rgbf000152-resize_8/003079_2014-06-15_15-18-20_094959634447_rgbf000152-resize_8-target.png,1000,2.8775,20,3644,1006,meters,jsons/v1_VE1000_randls_41_rotated.json,775386,984939,57,Woman
37,270834,DepthScenes,duration_manipulation_targetAtFixation,jsons/v1_VE1000_randls_41_rotated.json,http://54.235.29.9/FacialAge/BNav_EC2/DepthDuration/v2_depth_duration_MTurk/v2_DepthDuration_HTML.html#46,46,1366,625,1366,768,8-22-2022,8-17-3,38,depth_duration_stimuli/000506_2014-06-08_23-21-00_260595134347_rgbf000070-resize_7/000506_2014-06-08_23-21-00_260595134347_rgbf000070-resize_7-target.png,1000,4.0585,30,3830,1000,meters,jsons/v1_VE1000_randls_41_rotated.json,775386,984939,57,Woman
38,270834,DepthScenes,duration_manipulation_targetAtFixation,jsons/v1_VE1000_randls_41_rotated.json,http://54.235.29.9/FacialAge/BNav_EC2/DepthDuration/v2_depth_duration_MTurk/v2_DepthDuration_HTML.html#46,46,1366,625,1366,768,8-22-2022,8-17-3,39,depth_duration_stimuli/001571_2014-06-20_17-21-32_260595134347_rgbf000089-resize_1/001571_2014-06-20_17-21-32_260595134347_rgbf000089-resize_1-target.png,1000,1.86,30,3835,987,meters,jsons/v1_VE1000_randls_41_rotated.json,775386,984939,57,Woman
39,270834,DepthScenes,duration_manipulation_targetAtFixation,jsons/v1_VE1000_randls_41_rotated.json,http://54.235.29.9/FacialAge/BNav_EC2/DepthDuration/v2_depth_duration_MTurk/v2_DepthDuration_HTML.html#46,46,1366,625,1366,768,8-22-2022,8-17-3,40,depth_duration_stimuli/002272_2014-06-28_18-53-56_260595134347_rgbf000067-resize_2/002272_2014-06-28_18-53-56_260595134347_rgbf000067-resize_2-target.png,1000,1.138,20,3446,987,meters,jsons/v1_VE1000_randls_41_rotated.json,775386,984939,57,Woman
40,270834,DepthScenes,duration_manipulation_targetAtFixation,jsons/v1_VE1000_randls_41_rotated.json,http://54.235.29.9/FacialAge/BNav_EC2/DepthDuration/v2_depth_duration_MTurk/v2_DepthDuration_HTML.html#46,46,1366,625,1366,768,8-22-2022,8-17-3,41,depth_duration_stimuli/003083_2014-06-15_15-21-03_094959634447_rgbf000063-resize_1/003083_2014-06-15_15-21-03_094959634447_rgbf000063-resize_1-target.png,1000,4.1405,30,3568,926,meters,jsons/v1_VE1000_randls_41_rotated.json,775386,984939,57,Woman
41,270834,DepthScenes,duration_manipulation_targetAtFixation,jsons/v1_VE1000_randls_41_rotated.json,http://54.235.29.9/FacialAge/BNav_EC2/DepthDuration/v2_depth_duration_MTurk/v2_DepthDuration_HTML.html#46,46,1366,625,1366,768,8-22-2022,8-17-3,42,depth_duration_stimuli/000486_2014-06-09_20-47-20_260595134347_rgbf000143-resize_2/000486_2014-06-09_20-47-20_260595134347_rgbf000143-resize_2-target.png,1000,4.8325,40,3408,1003,meters,jsons/v1_VE1000_randls_41_rotated.json,775386,984939,57,Woman
42,270834,DepthScenes,duration_manipulation_targetAtFixation,jsons/v1_VE1000_randls_41_rotated.json,http://54.235.29.9/FacialAge/BNav_EC2/DepthDuration/v2_depth_duration_MTurk/v2_DepthDuration_HTML.html#46,46,1366,625,1366,768,8-22-2022,8-17-3,43,depth_duration_stimuli/000502_2014-06-08_23-02-32_260595134347_rgbf000063-resize_4/000502_2014-06-08_23-02-32_260595134347_rgbf000063-resize_4-target.png,1000,2.431,20,3430,1012,meters,jsons/v1_VE1000_randls_41_rotated.json,775386,984939,57,Woman
43,270834,DepthScenes,duration_manipulation_targetAtFixation,jsons/v1_VE1000_randls_41_rotated.json,http://54.235.29.9/FacialAge/BNav_EC2/DepthDuration/v2_depth_duration_MTurk/v2_DepthDuration_HTML.html#46,46,1366,625,1366,768,8-22-2022,8-17-3,44,depth_duration_stimuli/001199_2014-06-17_16-03-48_260595134347_rgbf000077-resize_0/001199_2014-06-17_16-03-48_260595134347_rgbf000077-resize_0-target.png,1000,3.4375,30,3750,960,meters,jsons/v1_VE1000_randls_41_rotated.json,775386,984939,57,Woman
44,270834,DepthScenes,duration_manipulation_targetAtFixation,jsons/v1_VE1000_randls_41_rotated.json,http://54.235.29.9/FacialAge/BNav_EC2/DepthDuration/v2_depth_duration_MTurk/v2_DepthDuration_HTML.html#46,46,1366,625,1366,768,8-22-2022,8-17-3,45,depth_duration_stimuli/000854_2014-06-09_19-43-13_260595134347_rgbf000066-resize_0/000854_2014-06-09_19-43-13_260595134347_rgbf000066-resize_0-target.png,1000,3.068,40,3452,1002,meters,jsons/v1_VE1000_randls_41_rotated.json,775386,984939,57,Woman
45,270834,DepthScenes,duration_manipulation_targetAtFixation,jsons/v1_VE1000_randls_41_rotated.json,http://54.235.29.9/FacialAge/BNav_EC2/DepthDuration/v2_depth_duration_MTurk/v2_DepthDuration_HTML.html#46,46,1366,625,1366,768,8-22-2022,8-17-3,46,depth_duration_stimuli/000758_2014-06-08_22-05-08_260595134347_rgbf000085-resize_0/000758_2014-06-08_22-05-08_260595134347_rgbf000085-resize_0-target.png,1000,3.3810000000000002,50,3584,891,meters,jsons/v1_VE1000_randls_41_rotated.json,775386,984939,57,Woman
46,270834,DepthScenes,duration_manipulation_targetAtFixation,jsons/v1_VE1000_randls_41_rotated.json,http://54.235.29.9/FacialAge/BNav_EC2/DepthDuration/v2_depth_duration_MTurk/v2_DepthDuration_HTML.html#46,46,1366,625,1366,768,8-22-2022,8-17-3,47,depth_duration_stimuli/001450_2014-06-19_17-02-03_260595134347_rgbf000203-resize_4/001450_2014-06-19_17-02-03_260595134347_rgbf000203-resize_4-target.png,1000,4.0106666666667,40,3704,1004,meters,jsons/v1_VE1000_randls_41_rotated.json,775386,984939,57,Woman
47,270834,DepthScenes,duration_manipulation_targetAtFixation,jsons/v1_VE1000_randls_41_rotated.json,http://54.235.29.9/FacialAge/BNav_EC2/DepthDuration/v2_depth_duration_MTurk/v2_DepthDuration_HTML.html#46,46,1366,625,1366,768,8-22-2022,8-17-3,48,depth_duration_stimuli/001449_2014-06-19_17-01-27_260595134347_rgbf000116-resize_2/001449_2014-06-19_17-01-27_260595134347_rgbf000116-resize_2-target.png,1000,3.452,40,3552,1000,meters,jsons/v1_VE1000_randls_41_rotated.json,775386,984939,57,Woman
48,270834,DepthScenes,duration_manipulation_targetAtFixation,jsons/v1_VE1000_randls_41_rotated.json,http://54.235.29.9/FacialAge/BNav_EC2/DepthDuration/v2_depth_duration_MTurk/v2_DepthDuration_HTML.html#46,46,1366,625,1366,768,8-22-2022,8-17-3,49,depth_duration_stimuli/001170_2014-06-17_15-43-44_260595134347_rgbf000096-resize_6/001170_2014-06-17_15-43-44_260595134347_rgbf000096-resize-original.jpg,1000,1.1909999999999998,1,3341,1002,meters,jsons/v1_VE1000_randls_41_rotated.json,775386,984939,57,Woman
49,270834,DepthScenes,duration_manipulation_targetAtFixation,jsons/v1_VE1000_randls_41_rotated.json,http://54.235.29.9/FacialAge/BNav_EC2/DepthDuration/v2_depth_duration_MTurk/v2_DepthDuration_HTML.html#46,46,1366,625,1366,768,8-22-2022,8-17-3,50,depth_duration_stimuli/001132_2014-06-17_14-48-54_260595134347_rgbf000100-resize_2/001132_2014-06-17_14-48-54_260595134347_rgbf000100-resize_2-target.png,1000,3.753,40,3609,997,meters,jsons/v1_VE1000_randls_41_rotated.json,775386,984939,57,Woman
50,270834,DepthScenes,duration_manipulation_targetAtFixation,jsons/v1_VE1000_randls_41_rotated.json,http://54.235.29.9/FacialAge/BNav_EC2/DepthDuration/v2_depth_duration_MTurk/v2_DepthDuration_HTML.html#46,46,1366,625,1366,768,8-22-2022,8-17-3,51,depth_duration_stimuli/001133_2014-06-17_14-49-16_260595134347_rgbf000100-resize_0/001133_2014-06-17_14-49-16_260595134347_rgbf000100-resize_0-target.png,1000,4.2115,20,3697,1012,meters,jsons/v1_VE1000_randls_41_rotated.json,775386,984939,57,Woman
51,270834,DepthScenes,duration_manipulation_targetAtFixation,jsons/v1_VE1000_randls_41_rotated.json,http://54.235.29.9/FacialAge/BNav_EC2/DepthDuration/v2_depth_duration_MTurk/v2_DepthDuration_HTML.html#46,46,1366,625,1366,768,8-22-2022,8-17-3,52,depth_duration_stimuli/000734_2014-06-08_17-39-11_260595134347_rgbf000128-resize_2/000734_2014-06-08_17-39-11_260595134347_rgbf000128-resize_2-target.png,1000,4.098,30,3913,986,meters,jsons/v1_VE1000_randls_41_rotated.json,775386,984939,57,Woman
52,270834,DepthScenes,duration_manipulation_targetAtFixation,jsons/v1_VE1000_randls_41_rotated.json,http://54.235.29.9/FacialAge/BNav_EC2/DepthDuration/v2_depth_duration_MTurk/v2_DepthDuration_HTML.html#46,46,1366,625,1366,768,8-22-2022,8-17-3,53,depth_duration_stimuli/000739_2014-06-08_18-45-58_260595134347_rgbf000068-resize_1/000739_2014-06-08_18-45-58_260595134347_rgbf000068-resize_1-target.png,1000,3.534,40,3812,1001,meters,jsons/v1_VE1000_randls_41_rotated.json,775386,984939,57,Woman
53,270834,DepthScenes,duration_manipulation_targetAtFixation,jsons/v1_VE1000_randls_41_rotated.json,http://54.235.29.9/FacialAge/BNav_EC2/DepthDuration/v2_depth_duration_MTurk/v2_DepthDuration_HTML.html#46,46,1366,625,1366,768,8-22-2022,8-17-3,54,depth_duration_stimuli/002637_2014-06-24_14-51-13_094959634447_rgbf000066-resize_4/002637_2014-06-24_14-51-13_094959634447_rgbf000066-resize_4-target.png,1000,1.9955,20,3510,1000,meters,jsons/v1_VE1000_randls_41_rotated.json,775386,984939,57,Woman
54,270834,DepthScenes,duration_manipulation_targetAtFixation,jsons/v1_VE1000_randls_41_rotated.json,http://54.235.29.9/FacialAge/BNav_EC2/DepthDuration/v2_depth_duration_MTurk/v2_DepthDuration_HTML.html#46,46,1366,625,1366,768,8-22-2022,8-17-3,55,depth_duration_stimuli/003534_2014-05-22_15-06-10_094959634447_rgbf000102-resize_4/003534_2014-05-22_15-06-10_094959634447_rgbf000102-resize_4-target.png,1000,1.426,40,3357,990,meters,jsons/v1_VE1000_randls_41_rotated.json,775386,984939,57,Woman
55,270834,DepthScenes,duration_manipulation_targetAtFixation,jsons/v1_VE1000_randls_41_rotated.json,http://54.235.29.9/FacialAge/BNav_EC2/DepthDuration/v2_depth_duration_MTurk/v2_DepthDuration_HTML.html#46,46,1366,625,1366,768,8-22-2022,8-17-3,56,depth_duration_stimuli/002136_2014-06-25_21-18-03_260595134347_rgbf000109-resize_3/002136_2014-06-25_21-18-03_260595134347_rgbf000109-resize_3-target.png,1000,1.9569999999999999,30,3659,981,meters,jsons/v1_VE1000_randls_41_rotated.json,775386,984939,57,Woman
56,270834,DepthScenes,duration_manipulation_targetAtFixation,jsons/v1_VE1000_randls_41_rotated.json,http://54.235.29.9/FacialAge/BNav_EC2/DepthDuration/v2_depth_duration_MTurk/v2_DepthDuration_HTML.html#46,46,1366,625,1366,768,8-22-2022,8-17-3,57,depth_duration_stimuli/002964_2014-06-08_17-46-11_094959634447_rgbf000091-resize_4/002964_2014-06-08_17-46-11_094959634447_rgbf000091-resize_4-target.png,1000,1.6909999999999998,40,3423,1005,meters,jsons/v1_VE1000_randls_41_rotated.json,775386,984939,57,Woman
57,270834,DepthScenes,duration_manipulation_targetAtFixation,jsons/v1_VE1000_randls_41_rotated.json,http://54.235.29.9/FacialAge/BNav_EC2/DepthDuration/v2_depth_duration_MTurk/v2_DepthDuration_HTML.html#46,46,1366,625,1366,768,8-22-2022,8-17-3,58,depth_duration_stimuli/001815_2014-06-26_20-52-55_260595134347_rgbf000020-resize_0/001815_2014-06-26_20-52-55_260595134347_rgbf000020-resize_0-target.png,1000,3.3865,40,3735,1007,meters,jsons/v1_VE1000_randls_41_rotated.json,775386,984939,57,Woman
58,270834,DepthScenes,duration_manipulation_targetAtFixation,jsons/v1_VE1000_randls_41_rotated.json,http://54.235.29.9/FacialAge/BNav_EC2/DepthDuration/v2_depth_duration_MTurk/v2_DepthDuration_HTML.html#46,46,1366,625,1366,768,8-22-2022,8-17-3,59,depth_duration_stimuli/001808_2014-06-26_20-50-58_260595134347_rgbf000029-resize_1/001808_2014-06-26_20-50-58_260595134347_rgbf000029-resize_1-target.png,1000,4.249,30,3804,999,meters,jsons/v1_VE1000_randls_41_rotated.json,775386,984939,57,Woman
59,270834,DepthScenes,duration_manipulation_targetAtFixation,jsons/v1_VE1000_randls_41_rotated.json,http://54.235.29.9/FacialAge/BNav_EC2/DepthDuration/v2_depth_duration_MTurk/v2_DepthDuration_HTML.html#46,46,1366,625,1366,768,8-22-2022,8-17-3,60,depth_duration_stimuli/002467_2014-06-28_20-38-07_260595134347_rgbf000026-resize_2/002467_2014-06-28_20-38-07_260595134347_rgbf000026-resize_2-target.png,1000,4.742,40,3683,935,meters,jsons/v1_VE1000_randls_41_rotated.json,775386,984939,57,Woman
60,270834,DepthScenes,duration_manipulation_targetAtFixation,jsons/v1_VE1000_randls_41_rotated.json,http://54.235.29.9/FacialAge/BNav_EC2/DepthDuration/v2_depth_duration_MTurk/v2_DepthDuration_HTML.html#46,46,1366,625,1366,768,8-22-2022,8-17-3,61,depth_duration_stimuli/002570_2014-06-24_13-59-54_094959634447_rgbf000059-resize_0/002570_2014-06-24_13-59-54_094959634447_rgbf000059-resize_0-target.png,1000,4.037,40,4229,1002,meters,jsons/v1_VE1000_randls_41_rotated.json,775386,984939,57,Woman
61,270834,DepthScenes,duration_manipulation_targetAtFixation,jsons/v1_VE1000_randls_41_rotated.json,http://54.235.29.9/FacialAge/BNav_EC2/DepthDuration/v2_depth_duration_MTurk/v2_DepthDuration_HTML.html#46,46,1366,625,1366,768,8-22-2022,8-17-3,62,depth_duration_stimuli/002209_2014-06-28_18-36-10_260595134347_rgbf000051-resize_1/002209_2014-06-28_18-36-10_260595134347_rgbf000051-resize_1-target.png,1000,2.057,30,3934,1028,meters,jsons/v1_VE1000_randls_41_rotated.json,775386,984939,57,Woman
62,270834,DepthScenes,duration_manipulation_targetAtFixation,jsons/v1_VE1000_randls_41_rotated.json,http://54.235.29.9/FacialAge/BNav_EC2/DepthDuration/v2_depth_duration_MTurk/v2_DepthDuration_HTML.html#46,46,1366,625,1366,768,8-22-2022,8-17-3,63,depth_duration_stimuli/002763_2014-06-22_19-13-10_094959634447_rgbf000075-resize_4/002763_2014-06-22_19-13-10_094959634447_rgbf000075-resize_4-target.png,1000,1.68375,40,3718,985,meters,jsons/v1_VE1000_randls_41_rotated.json,775386,984939,57,Woman
63,270834,DepthScenes,duration_manipulation_targetAtFixation,jsons/v1_VE1000_randls_41_rotated.json,http://54.235.29.9/FacialAge/BNav_EC2/DepthDuration/v2_depth_duration_MTurk/v2_DepthDuration_HTML.html#46,46,1366,625,1366,768,8-22-2022,8-17-3,64,depth_duration_stimuli/002758_2014-06-22_19-11-20_094959634447_rgbf000128-resize_1/002758_2014-06-22_19-11-20_094959634447_rgbf000128-resize_1-target.png,1000,2.555,50,4138,1001,meters,jsons/v1_VE1000_randls_41_rotated.json,775386,984939,57,Woman
64,270834,DepthScenes,duration_manipulation_targetAtFixation,jsons/v1_VE1000_randls_41_rotated.json,http://54.235.29.9/FacialAge/BNav_EC2/DepthDuration/v2_depth_duration_MTurk/v2_DepthDuration_HTML.html#46,46,1366,625,1366,768,8-22-2022,8-17-3,65,depth_duration_stimuli/002630_2014-06-24_14-47-50_094959634447_rgbf000055-resize_1/002630_2014-06-24_14-47-50_094959634447_rgbf000055-resize_1-target.png,1000,3.0095,40,3938,993,meters,jsons/v1_VE1000_randls_41_rotated.json,775386,984939,57,Woman
65,270834,DepthScenes,duration_manipulation_targetAtFixation,jsons/v1_VE1000_randls_41_rotated.json,http://54.235.29.9/FacialAge/BNav_EC2/DepthDuration/v2_depth_duration_MTurk/v2_DepthDuration_HTML.html#46,46,1366,625,1366,768,8-22-2022,8-17-3,66,depth_duration_stimuli/001540_2014-06-20_17-01-05_260595134347_rgbf000086-resize_2/001540_2014-06-20_17-01-05_260595134347_rgbf000086-resize-original.jpg,1000,1.459,0,3862,998,meters,jsons/v1_VE1000_randls_41_rotated.json,775386,984939,57,Woman
66,270834,DepthScenes,duration_manipulation_targetAtFixation,jsons/v1_VE1000_randls_41_rotated.json,http://54.235.29.9/FacialAge/BNav_EC2/DepthDuration/v2_depth_duration_MTurk/v2_DepthDuration_HTML.html#46,46,1366,625,1366,768,8-22-2022,8-17-3,67,depth_duration_stimuli/002875_2014-06-01_15-19-00_094959634447_rgbf000151-resize_1/002875_2014-06-01_15-19-00_094959634447_rgbf000151-resize_1-target.png,1000,1.9675,30,4769,993,meters,jsons/v1_VE1000_randls_41_rotated.json,775386,984939,57,Woman
67,270834,DepthScenes,duration_manipulation_targetAtFixation,jsons/v1_VE1000_randls_41_rotated.json,http://54.235.29.9/FacialAge/BNav_EC2/DepthDuration/v2_depth_duration_MTurk/v2_DepthDuration_HTML.html#46,46,1366,625,1366,768,8-22-2022,8-17-3,68,depth_duration_stimuli/001011_2014-06-08_23-18-54_260595134347_rgbf000044-resize_4/001011_2014-06-08_23-18-54_260595134347_rgbf000044-resize_4-target.png,1000,2.4730000000000003,40,4300,985,meters,jsons/v1_VE1000_randls_41_rotated.json,775386,984939,57,Woman
68,270834,DepthScenes,duration_manipulation_targetAtFixation,jsons/v1_VE1000_randls_41_rotated.json,http://54.235.29.9/FacialAge/BNav_EC2/DepthDuration/v2_depth_duration_MTurk/v2_DepthDuration_HTML.html#46,46,1366,625,1366,768,8-22-2022,8-17-3,69,depth_duration_stimuli/002323_2014-06-28_20-01-54_260595134347_rgbf000051-resize_4/002323_2014-06-28_20-01-54_260595134347_rgbf000051-resize_4-target.png,1000,3.7310000000000003,30,3642,1001,meters,jsons/v1_VE1000_randls_41_rotated.json,775386,984939,57,Woman
69,270834,DepthScenes,duration_manipulation_targetAtFixation,jsons/v1_VE1000_randls_41_rotated.json,http://54.235.29.9/FacialAge/BNav_EC2/DepthDuration/v2_depth_duration_MTurk/v2_DepthDuration_HTML.html#46,46,1366,625,1366,768,8-22-2022,8-17-3,70,depth_duration_stimuli/000917_2014-06-09_22-45-29_260595134347_rgbf000149-resize_3/000917_2014-06-09_22-45-29_260595134347_rgbf000149-resize_3-target.png,1000,4.1865,40,3684,988,meters,jsons/v1_VE1000_randls_41_rotated.json,775386,984939,57,Woman
70,270834,DepthScenes,duration_manipulation_targetAtFixation,jsons/v1_VE1000_randls_41_rotated.json,http://54.235.29.9/FacialAge/BNav_EC2/DepthDuration/v2_depth_duration_MTurk/v2_DepthDuration_HTML.html#46,46,1366,625,1366,768,8-22-2022,8-17-3,71,depth_duration_stimuli/002949_2014-06-26_15-57-42_094959634447_rgbf000079-resize_1/002949_2014-06-26_15-57-42_094959634447_rgbf000079-resize_1-target.png,1000,1.8915,30,3955,990,meters,jsons/v1_VE1000_randls_41_rotated.json,775386,984939,57,Woman
71,270834,DepthScenes,duration_manipulation_targetAtFixation,jsons/v1_VE1000_randls_41_rotated.json,http://54.235.29.9/FacialAge/BNav_EC2/DepthDuration/v2_depth_duration_MTurk/v2_DepthDuration_HTML.html#46,46,1366,625,1366,768,8-22-2022,8-17-3,72,depth_duration_stimuli/000522_2014-06-08_13-35-06_260595134347_rgbf000244-resize_1/000522_2014-06-08_13-35-06_260595134347_rgbf000244-resize_1-target.png,1000,2.3715,40,4088,996,meters,jsons/v1_VE1000_randls_41_rotated.json,775386,984939,57,Woman
72,270834,DepthScenes,duration_manipulation_targetAtFixation,jsons/v1_VE1000_randls_41_rotated.json,http://54.235.29.9/FacialAge/BNav_EC2/DepthDuration/v2_depth_duration_MTurk/v2_DepthDuration_HTML.html#46,46,1366,625,1366,768,8-22-2022,8-17-3,73,depth_duration_stimuli/003129_2014-05-12_10-48-10_094959634447_rgbf000100-resize_0/003129_2014-05-12_10-48-10_094959634447_rgbf000100-resize_0-target.png,1000,4.9305,30,3719,992,meters,jsons/v1_VE1000_randls_41_rotated.json,775386,984939,57,Woman
73,270834,DepthScenes,duration_manipulation_targetAtFixation,jsons/v1_VE1000_randls_41_rotated.json,http://54.235.29.9/FacialAge/BNav_EC2/DepthDuration/v2_depth_duration_MTurk/v2_DepthDuration_HTML.html#46,46,1366,625,1366,768,8-22-2022,8-17-3,74,depth_duration_stimuli/000414_2014-06-04_19-49-13_260595134347_rgbf000044-resize_0/000414_2014-06-04_19-49-13_260595134347_rgbf000044-resize_0-target.png,1000,4.329,40,3692,1008,meters,jsons/v1_VE1000_randls_41_rotated.json,775386,984939,57,Woman
74,270834,DepthScenes,duration_manipulation_targetAtFixation,jsons/v1_VE1000_randls_41_rotated.json,http://54.235.29.9/FacialAge/BNav_EC2/DepthDuration/v2_depth_duration_MTurk/v2_DepthDuration_HTML.html#46,46,1366,625,1366,768,8-22-2022,8-17-3,75,depth_duration_stimuli/000927_2014-06-09_16-32-30_260595134347_rgbf000123-resize_3/000927_2014-06-09_16-32-30_260595134347_rgbf000123-resize_3-target.png,1000,2.6785,30,4157,1104,meters,jsons/v1_VE1000_randls_41_rotated.json,775386,984939,57,Woman
75,270834,DepthScenes,duration_manipulation_targetAtFixation,jsons/v1_VE1000_randls_41_rotated.json,http://54.235.29.9/FacialAge/BNav_EC2/DepthDuration/v2_depth_duration_MTurk/v2_DepthDuration_HTML.html#46,46,1366,625,1366,768,8-22-2022,8-17-3,76,depth_duration_stimuli/001110_2014-06-15_17-25-28_260595134347_rgbf000150-resize_1/001110_2014-06-15_17-25-28_260595134347_rgbf000150-resize_1-target.png,1000,1.7115,40,3709,1011,meters,jsons/v1_VE1000_randls_41_rotated.json,775386,984939,57,Woman
76,270834,DepthScenes,duration_manipulation_targetAtFixation,jsons/v1_VE1000_randls_41_rotated.json,http://54.235.29.9/FacialAge/BNav_EC2/DepthDuration/v2_depth_duration_MTurk/v2_DepthDuration_HTML.html#46,46,1366,625,1366,768,8-22-2022,8-17-3,77,depth_duration_stimuli/003495_2014-05-21_16-01-51_094959634447_rgbf000100-resize_3/003495_2014-05-21_16-01-51_094959634447_rgbf000100-resize_3-target.png,1000,1.6255,30,4198,1047,meters,jsons/v1_VE1000_randls_41_rotated.json,775386,984939,57,Woman
77,270834,DepthScenes,duration_manipulation_targetAtFixation,jsons/v1_VE1000_randls_41_rotated.json,http://54.235.29.9/FacialAge/BNav_EC2/DepthDuration/v2_depth_duration_MTurk/v2_DepthDuration_HTML.html#46,46,1366,625,1366,768,8-22-2022,8-17-3,78,depth_duration_stimuli/001244_2014-06-17_16-47-45_260595134347_rgbf000030-resize_4/001244_2014-06-17_16-47-45_260595134347_rgbf000030-resize_4-target.png,1000,2.0425,40,3722,1000,meters,jsons/v1_VE1000_randls_41_rotated.json,775386,984939,57,Woman
78,270834,DepthScenes,duration_manipulation_targetAtFixation,jsons/v1_VE1000_randls_41_rotated.json,http://54.235.29.9/FacialAge/BNav_EC2/DepthDuration/v2_depth_duration_MTurk/v2_DepthDuration_HTML.html#46,46,1366,625,1366,768,8-22-2022,8-17-3,79,depth_duration_stimuli/002425_2014-06-28_20-27-29_260595134347_rgbf000031-resize_8/002425_2014-06-28_20-27-29_260595134347_rgbf000031-resize_8-target.png,1000,3.8960000000000004,20,3592,987,meters,jsons/v1_VE1000_randls_41_rotated.json,775386,984939,57,Woman
79,270834,DepthScenes,duration_manipulation_targetAtFixation,jsons/v1_VE1000_randls_41_rotated.json,http://54.235.29.9/FacialAge/BNav_EC2/DepthDuration/v2_depth_duration_MTurk/v2_DepthDuration_HTML.html#46,46,1366,625,1366,768,8-22-2022,8-17-3,80,depth_duration_stimuli/000642_2014-06-08_16-59-25_260595134347_rgbf000098-resize_2/000642_2014-06-08_16-59-25_260595134347_rgbf000098-resize_2-target.png,1000,2.8815,40,3471,1003,meters,jsons/v1_VE1000_randls_41_rotated.json,775386,984939,57,Woman
80,270834,DepthScenes,duration_manipulation_targetAtFixation,jsons/v1_VE1000_randls_41_rotated.json,http://54.235.29.9/FacialAge/BNav_EC2/DepthDuration/v2_depth_duration_MTurk/v2_DepthDuration_HTML.html#46,46,1366,625,1366,768,8-22-2022,8-17-3,81,depth_duration_stimuli/002568_2014-06-24_13-59-21_094959634447_rgbf000062-resize_4/002568_2014-06-24_13-59-21_094959634447_rgbf000062-resize_4-target.png,1000,3.015,30,3976,995,meters,jsons/v1_VE1000_randls_41_rotated.json,775386,984939,57,Woman
81,270834,DepthScenes,duration_manipulation_targetAtFixation,jsons/v1_VE1000_randls_41_rotated.json,http://54.235.29.9/FacialAge/BNav_EC2/DepthDuration/v2_depth_duration_MTurk/v2_DepthDuration_HTML.html#46,46,1366,625,1366,768,8-22-2022,8-17-3,82,depth_duration_stimuli/003492_2014-05-21_15-50-55_094959634447_rgbf000828-resize_1/003492_2014-05-21_15-50-55_094959634447_rgbf000828-resize_1-target.png,1000,4.06875,40,3996,1011,meters,jsons/v1_VE1000_randls_41_rotated.json,775386,984939,57,Woman
82,270834,DepthScenes,duration_manipulation_targetAtFixation,jsons/v1_VE1000_randls_41_rotated.json,http://54.235.29.9/FacialAge/BNav_EC2/DepthDuration/v2_depth_duration_MTurk/v2_DepthDuration_HTML.html#46,46,1366,625,1366,768,8-22-2022,8-17-3,83,depth_duration_stimuli/002414_2014-06-28_20-24-58_260595134347_rgbf000067-resize_4/002414_2014-06-28_20-24-58_260595134347_rgbf000067-resize_4-target.png,1000,4.363,20,3665,964,meters,jsons/v1_VE1000_randls_41_rotated.json,775386,984939,57,Woman
83,270834,DepthScenes,duration_manipulation_targetAtFixation,jsons/v1_VE1000_randls_41_rotated.json,http://54.235.29.9/FacialAge/BNav_EC2/DepthDuration/v2_depth_duration_MTurk/v2_DepthDuration_HTML.html#46,46,1366,625,1366,768,8-22-2022,8-17-3,84,depth_duration_stimuli/000773_2014-06-08_22-24-54_260595134347_rgbf000093-resize_1/000773_2014-06-08_22-24-54_260595134347_rgbf000093-resize_1-target.png,1000,4.973,30,3596,999,meters,jsons/v1_VE1000_randls_41_rotated.json,775386,984939,57,Woman
84,270834,DepthScenes,duration_manipulation_targetAtFixation,jsons/v1_VE1000_randls_41_rotated.json,http://54.235.29.9/FacialAge/BNav_EC2/DepthDuration/v2_depth_duration_MTurk/v2_DepthDuration_HTML.html#46,46,1366,625,1366,768,8-22-2022,8-17-3,85,depth_duration_stimuli/002805_2014-06-22_19-54-03_094959634447_rgbf000079-resize_1/002805_2014-06-22_19-54-03_094959634447_rgbf000079-resize_1-target.png,1000,3.1439999999999997,40,3549,988,meters,jsons/v1_VE1000_randls_41_rotated.json,775386,984939,57,Woman
85,270834,DepthScenes,duration_manipulation_targetAtFixation,jsons/v1_VE1000_randls_41_rotated.json,http://54.235.29.9/FacialAge/BNav_EC2/DepthDuration/v2_depth_duration_MTurk/v2_DepthDuration_HTML.html#46,46,1366,625,1366,768,8-22-2022,8-17-3,86,depth_duration_stimuli/000906_2014-06-08_13-35-43_260595134347_rgbf000155-resize_1/000906_2014-06-08_13-35-43_260595134347_rgbf000155-resize_1-target.png,1000,2.8489999999999998,30,4158,932,meters,jsons/v1_VE1000_randls_41_rotated.json,775386,984939,57,Woman
86,270834,DepthScenes,duration_manipulation_targetAtFixation,jsons/v1_VE1000_randls_41_rotated.json,http://54.235.29.9/FacialAge/BNav_EC2/DepthDuration/v2_depth_duration_MTurk/v2_DepthDuration_HTML.html#46,46,1366,625,1366,768,8-22-2022,8-17-3,87,depth_duration_stimuli/003048_2014-06-15_13-49-43_094959634447_rgbf000150-resize_1/003048_2014-06-15_13-49-43_094959634447_rgbf000150-resize_1-target.png,1000,4.0035,40,3671,988,meters,jsons/v1_VE1000_randls_41_rotated.json,775386,984939,57,Woman
87,270834,DepthScenes,duration_manipulation_targetAtFixation,jsons/v1_VE1000_randls_41_rotated.json,http://54.235.29.9/FacialAge/BNav_EC2/DepthDuration/v2_depth_duration_MTurk/v2_DepthDuration_HTML.html#46,46,1366,625,1366,768,8-22-2022,8-17-3,88,depth_duration_stimuli/002043_2014-06-24_20-29-38_260595134347_rgbf000039-resize_4/002043_2014-06-24_20-29-38_260595134347_rgbf000039-resize_4-target.png,1000,2.8435,40,3681,1229,meters,jsons/v1_VE1000_randls_41_rotated.json,775386,984939,57,Woman
88,270834,DepthScenes,duration_manipulation_targetAtFixation,jsons/v1_VE1000_randls_41_rotated.json,http://54.235.29.9/FacialAge/BNav_EC2/DepthDuration/v2_depth_duration_MTurk/v2_DepthDuration_HTML.html#46,46,1366,625,1366,768,8-22-2022,8-17-3,89,depth_duration_stimuli/001100_2014-06-15_17-46-26_260595134347_rgbf000225-resize_2/001100_2014-06-15_17-46-26_260595134347_rgbf000225-resize_2-target.png,1000,2.24,30,3754,1013,meters,jsons/v1_VE1000_randls_41_rotated.json,775386,984939,57,Woman
89,270834,DepthScenes,duration_manipulation_targetAtFixation,jsons/v1_VE1000_randls_41_rotated.json,http://54.235.29.9/FacialAge/BNav_EC2/DepthDuration/v2_depth_duration_MTurk/v2_DepthDuration_HTML.html#46,46,1366,625,1366,768,8-22-2022,8-17-3,90,depth_duration_stimuli/002784_2014-06-22_19-26-30_094959634447_rgbf000083-resize_3/002784_2014-06-22_19-26-30_094959634447_rgbf000083-resize_3-target.png,1000,1.8046666666667,20,3357,993,meters,jsons/v1_VE1000_randls_41_rotated.json,775386,984939,57,Woman
90,270834,DepthScenes,duration_manipulation_targetAtFixation,jsons/v1_VE1000_randls_41_rotated.json,http://54.235.29.9/FacialAge/BNav_EC2/DepthDuration/v2_depth_duration_MTurk/v2_DepthDuration_HTML.html#46,46,1366,625,1366,768,8-22-2022,8-17-3,91,depth_duration_stimuli/001235_2014-06-17_16-37-36_260595134347_rgbf000084-resize_4/001235_2014-06-17_16-37-36_260595134347_rgbf000084-resize_4-target.png,1000,3.6605,40,3538,1029,meters,jsons/v1_VE1000_randls_41_rotated.json,775386,984939,57,Woman
91,270834,DepthScenes,duration_manipulation_targetAtFixation,jsons/v1_VE1000_randls_41_rotated.json,http://54.235.29.9/FacialAge/BNav_EC2/DepthDuration/v2_depth_duration_MTurk/v2_DepthDuration_HTML.html#46,46,1366,625,1366,768,8-22-2022,8-17-3,92,depth_duration_stimuli/000788_2014-06-08_22-34-36_260595134347_rgbf000131-resize_1/000788_2014-06-08_22-34-36_260595134347_rgbf000131-resize_1-target.png,1000,3.359,30,3700,1003,meters,jsons/v1_VE1000_randls_41_rotated.json,775386,984939,57,Woman
92,270834,DepthScenes,duration_manipulation_targetAtFixation,jsons/v1_VE1000_randls_41_rotated.json,http://54.235.29.9/FacialAge/BNav_EC2/DepthDuration/v2_depth_duration_MTurk/v2_DepthDuration_HTML.html#46,46,1366,625,1366,768,8-22-2022,8-17-3,93,depth_duration_stimuli/000709_2014-06-08_13-51-55_260595134347_rgbf000068-resize_3/000709_2014-06-08_13-51-55_260595134347_rgbf000068-resize_3-target.png,1000,1.8030000000000002,40,4078,994,meters,jsons/v1_VE1000_randls_41_rotated.json,775386,984939,57,Woman
93,270834,DepthScenes,duration_manipulation_targetAtFixation,jsons/v1_VE1000_randls_41_rotated.json,http://54.235.29.9/FacialAge/BNav_EC2/DepthDuration/v2_depth_duration_MTurk/v2_DepthDuration_HTML.html#46,46,1366,625,1366,768,8-22-2022,8-17-3,94,depth_duration_stimuli/002057_2014-06-24_21-00-13_260595134347_rgbf000120-resize_1/002057_2014-06-24_21-00-13_260595134347_rgbf000120-resize_1-target.png,1000,2.967,30,3712,851,meters,jsons/v1_VE1000_randls_41_rotated.json,775386,984939,57,Woman
94,270834,DepthScenes,duration_manipulation_targetAtFixation,jsons/v1_VE1000_randls_41_rotated.json,http://54.235.29.9/FacialAge/BNav_EC2/DepthDuration/v2_depth_duration_MTurk/v2_DepthDuration_HTML.html#46,46,1366,625,1366,768,8-22-2022,8-17-3,95,depth_duration_stimuli/003010_2014-06-15_12-54-35_094959634447_rgbf000112-resize_0/003010_2014-06-15_12-54-35_094959634447_rgbf000112-resize_0-target.png,1000,3.1185,40,3504,1011,meters,jsons/v1_VE1000_randls_41_rotated.json,775386,984939,57,Woman
95,270834,DepthScenes,duration_manipulation_targetAtFixation,jsons/v1_VE1000_randls_41_rotated.json,http://54.235.29.9/FacialAge/BNav_EC2/DepthDuration/v2_depth_duration_MTurk/v2_DepthDuration_HTML.html#46,46,1366,625,1366,768,8-22-2022,8-17-3,96,depth_duration_stimuli/001810_2014-06-26_20-51-35_260595134347_rgbf000040-resize_3/001810_2014-06-26_20-51-35_260595134347_rgbf000040-resize_3-target.png,1000,2.2525,30,4286,993,meters,jsons/v1_VE1000_randls_41_rotated.json,775386,984939,57,Woman
96,270834,DepthScenes,duration_manipulation_targetAtFixation,jsons/v1_VE1000_randls_41_rotated.json,http://54.235.29.9/FacialAge/BNav_EC2/DepthDuration/v2_depth_duration_MTurk/v2_DepthDuration_HTML.html#46,46,1366,625,1366,768,8-22-2022,8-17-3,97,depth_duration_stimuli/000137_2014-05-20_17-04-49_260595134347_rgbf000120-resize_1/000137_2014-05-20_17-04-49_260595134347_rgbf000120-resize_1-target.png,1000,3.786,40,3744,992,meters,jsons/v1_VE1000_randls_41_rotated.json,775386,984939,57,Woman
97,270834,DepthScenes,duration_manipulation_targetAtFixation,jsons/v1_VE1000_randls_41_rotated.json,http://54.235.29.9/FacialAge/BNav_EC2/DepthDuration/v2_depth_duration_MTurk/v2_DepthDuration_HTML.html#46,46,1366,625,1366,768,8-22-2022,8-17-3,98,depth_duration_stimuli/000736_2014-06-08_18-24-15_260595134347_rgbf000206-resize_3/000736_2014-06-08_18-24-15_260595134347_rgbf000206-resize_3-target.png,1000,3.515,30,3984,1007,meters,jsons/v1_VE1000_randls_41_rotated.json,775386,984939,57,Woman
98,270834,DepthScenes,duration_manipulation_targetAtFixation,jsons/v1_VE1000_randls_41_rotated.json,http://54.235.29.9/FacialAge/BNav_EC2/DepthDuration/v2_depth_duration_MTurk/v2_DepthDuration_HTML.html#46,46,1366,625,1366,768,8-22-2022,8-17-3,99,depth_duration_stimuli/001222_2014-06-17_16-24-06_260595134347_rgbf000073-resize_0/001222_2014-06-17_16-24-06_260595134347_rgbf000073-resize-original.jpg,1000,1.4385,0,3964,982,meters,jsons/v1_VE1000_randls_41_rotated.json,775386,984939,57,Woman
99,270834,DepthScenes,duration_manipulation_targetAtFixation,jsons/v1_VE1000_randls_41_rotated.json,http://54.235.29.9/FacialAge/BNav_EC2/DepthDuration/v2_depth_duration_MTurk/v2_DepthDuration_HTML.html#46,46,1366,625,1366,768,8-22-2022,8-17-3,100,depth_duration_stimuli/001828_2014-06-26_21-40-03_260595134347_rgbf000024-resize_0/001828_2014-06-26_21-40-03_260595134347_rgbf000024-resize_0-target.png,1000,4.8260000000000005,30,4188,994,meters,jsons/v1_VE1000_randls_41_rotated.json,775386,984939,57,Woman
100,270834,DepthScenes,duration_manipulation_targetAtFixation,jsons/v1_VE1000_randls_41_rotated.json,http://54.235.29.9/FacialAge/BNav_EC2/DepthDuration/v2_depth_duration_MTurk/v2_DepthDuration_HTML.html#46,46,1366,625,1366,768,8-22-2022,8-17-3,101,depth_duration_stimuli/000009_2014-05-26_14-32-05_260595134347_rgbf000034-resize_3/000009_2014-05-26_14-32-05_260595134347_rgbf000034-resize_3-target.png,1000,3.8715,40,3738,1008,meters,jsons/v1_VE1000_randls_41_rotated.json,775386,984939,57,Woman
101,270834,DepthScenes,duration_manipulation_targetAtFixation,jsons/v1_VE1000_randls_41_rotated.json,http://54.235.29.9/FacialAge/BNav_EC2/DepthDuration/v2_depth_duration_MTurk/v2_DepthDuration_HTML.html#46,46,1366,625,1366,768,8-22-2022,8-17-3,102,depth_duration_stimuli/000635_2014-06-08_16-38-42_260595134347_rgbf000106-resize_1/000635_2014-06-08_16-38-42_260595134347_rgbf000106-resize_1-target.png,1000,2.074,30,3700,1001,meters,jsons/v1_VE1000_randls_41_rotated.json,775386,984939,57,Woman
102,270834,DepthScenes,duration_manipulation_targetAtFixation,jsons/v1_VE1000_randls_41_rotated.json,http://54.235.29.9/FacialAge/BNav_EC2/DepthDuration/v2_depth_duration_MTurk/v2_DepthDuration_HTML.html#46,46,1366,625,1366,768,8-22-2022,8-17-3,103,depth_duration_stimuli/002279_2014-06-28_18-55-32_260595134347_rgbf000040-resize_5/002279_2014-06-28_18-55-32_260595134347_rgbf000040-resize_5-target.png,1000,1.5043333333333,40,3657,995,meters,jsons/v1_VE1000_randls_41_rotated.json,775386,984939,57,Woman
103,270834,DepthScenes,duration_manipulation_targetAtFixation,jsons/v1_VE1000_randls_41_rotated.json,http://54.235.29.9/FacialAge/BNav_EC2/DepthDuration/v2_depth_duration_MTurk/v2_DepthDuration_HTML.html#46,46,1366,625,1366,768,8-22-2022,8-17-3,104,depth_duration_stimuli/000191_2014-05-12_17-07-38_260595134347_rgbf000199-resize_0/000191_2014-05-12_17-07-38_260595134347_rgbf000199-resize_0-target.png,1000,3.7995,40,4689,992,meters,jsons/v1_VE1000_randls_41_rotated.json,775386,984939,57,Woman
104,270834,DepthScenes,duration_manipulation_targetAtFixation,jsons/v1_VE1000_randls_41_rotated.json,http://54.235.29.9/FacialAge/BNav_EC2/DepthDuration/v2_depth_duration_MTurk/v2_DepthDuration_HTML.html#46,46,1366,625,1366,768,8-22-2022,8-17-3,105,depth_duration_stimuli/000493_2014-06-09_21-01-18_260595134347_rgbf000196-resize_3/000493_2014-06-09_21-01-18_260595134347_rgbf000196-resize_3-target.png,1000,3.44,30,4198,992,meters,jsons/v1_VE1000_randls_41_rotated.json,775386,984939,57,Woman
105,270834,DepthScenes,duration_manipulation_targetAtFixation,jsons/v1_VE1000_randls_41_rotated.json,http://54.235.29.9/FacialAge/BNav_EC2/DepthDuration/v2_depth_duration_MTurk/v2_DepthDuration_HTML.html#46,46,1366,625,1366,768,8-22-2022,8-17-3,106,depth_duration_stimuli/000742_2014-06-08_18-48-09_260595134347_rgbf000164-resize_4/000742_2014-06-08_18-48-09_260595134347_rgbf000164-resize_4-target.png,1000,4.632,40,3715,993,meters,jsons/v1_VE1000_randls_41_rotated.json,775386,984939,57,Woman
106,270834,DepthScenes,duration_manipulation_targetAtFixation,jsons/v1_VE1000_randls_41_rotated.json,http://54.235.29.9/FacialAge/BNav_EC2/DepthDuration/v2_depth_duration_MTurk/v2_DepthDuration_HTML.html#46,46,1366,625,1366,768,8-22-2022,8-17-3,107,depth_duration_stimuli/001066_2014-06-08_22-03-20_260595134347_rgbf000066-resize_4/001066_2014-06-08_22-03-20_260595134347_rgbf000066-resize_4-target.png,1000,4.2330000000000005,30,3658,1000,meters,jsons/v1_VE1000_randls_41_rotated.json,775386,984939,57,Woman
107,270834,DepthScenes,duration_manipulation_targetAtFixation,jsons/v1_VE1000_randls_41_rotated.json,http://54.235.29.9/FacialAge/BNav_EC2/DepthDuration/v2_depth_duration_MTurk/v2_DepthDuration_HTML.html#46,46,1366,625,1366,768,8-22-2022,8-17-3,108,depth_duration_stimuli/002103_2014-06-25_20-00-40_260595134347_rgbf000049-resize_0/002103_2014-06-25_20-00-40_260595134347_rgbf000049-resize_0-target.png,1000,4.105,40,3703,964,meters,jsons/v1_VE1000_randls_41_rotated.json,775386,984939,57,Woman
108,270834,DepthScenes,duration_manipulation_targetAtFixation,jsons/v1_VE1000_randls_41_rotated.json,http://54.235.29.9/FacialAge/BNav_EC2/DepthDuration/v2_depth_duration_MTurk/v2_DepthDuration_HTML.html#46,46,1366,625,1366,768,8-22-2022,8-17-3,109,depth_duration_stimuli/002039_2014-06-24_20-22-38_260595134347_rgbf000084-resize_1/002039_2014-06-24_20-22-38_260595134347_rgbf000084-resize_1-target.png,1000,4.408,30,3615,1006,meters,jsons/v1_VE1000_randls_41_rotated.json,775386,984939,57,Woman
109,270834,DepthScenes,duration_manipulation_targetAtFixation,jsons/v1_VE1000_randls_41_rotated.json,http://54.235.29.9/FacialAge/BNav_EC2/DepthDuration/v2_depth_duration_MTurk/v2_DepthDuration_HTML.html#46,46,1366,625,1366,768,8-22-2022,8-17-3,110,depth_duration_stimuli/001516_2014-06-20_16-25-09_260595134347_rgbf000076-resize_2/001516_2014-06-20_16-25-09_260595134347_rgbf000076-resize_2-target.png,1000,1.7445,40,3687,999,meters,jsons/v1_VE1000_randls_41_rotated.json,775386,984939,57,Woman
110,270834,DepthScenes,duration_manipulation_targetAtFixation,jsons/v1_VE1000_randls_41_rotated.json,http://54.235.29.9/FacialAge/BNav_EC2/DepthDuration/v2_depth_duration_MTurk/v2_DepthDuration_HTML.html#46,46,1366,625,1366,768,8-22-2022,8-17-3,111,depth_duration_stimuli/002118_2014-06-25_20-32-08_260595134347_rgbf000078-resize_1/002118_2014-06-25_20-32-08_260595134347_rgbf000078-resize_1-target.png,1000,2.6460000000000004,30,3875,1002,meters,jsons/v1_VE1000_randls_41_rotated.json,775386,984939,57,Woman
111,270834,DepthScenes,duration_manipulation_targetAtFixation,jsons/v1_VE1000_randls_41_rotated.json,http://54.235.29.9/FacialAge/BNav_EC2/DepthDuration/v2_depth_duration_MTurk/v2_DepthDuration_HTML.html#46,46,1366,625,1366,768,8-22-2022,8-17-3,112,depth_duration_stimuli/000409_2014-06-04_19-23-33_260595134347_rgbf000067-resize_0/000409_2014-06-04_19-23-33_260595134347_rgbf000067-resize_0-target.png,1000,3.7335,30,3593,996,meters,jsons/v1_VE1000_randls_41_rotated.json,775386,984939,57,Woman
112,270834,DepthScenes,duration_manipulation_targetAtFixation,jsons/v1_VE1000_randls_41_rotated.json,http://54.235.29.9/FacialAge/BNav_EC2/DepthDuration/v2_depth_duration_MTurk/v2_DepthDuration_HTML.html#46,46,1366,625,1366,768,8-22-2022,8-17-3,113,depth_duration_stimuli/002663_2014-06-13_15-50-26_094959634447_rgbf000075-resize_1/002663_2014-06-13_15-50-26_094959634447_rgbf000075-resize_1-target.png,1000,4.7495,30,3739,1008,meters,jsons/v1_VE1000_randls_41_rotated.json,775386,984939,57,Woman
113,270834,DepthScenes,duration_manipulation_targetAtFixation,jsons/v1_VE1000_randls_41_rotated.json,http://54.235.29.9/FacialAge/BNav_EC2/DepthDuration/v2_depth_duration_MTurk/v2_DepthDuration_HTML.html#46,46,1366,625,1366,768,8-22-2022,8-17-3,114,depth_duration_stimuli/000109_2014-05-14_23-41-52_260595134347_rgbf000035-resize_9/000109_2014-05-14_23-41-52_260595134347_rgbf000035-resize_9-target.png,1000,1.3545,30,3500,999,meters,jsons/v1_VE1000_randls_41_rotated.json,775386,984939,57,Woman
114,270834,DepthScenes,duration_manipulation_targetAtFixation,jsons/v1_VE1000_randls_41_rotated.json,http://54.235.29.9/FacialAge/BNav_EC2/DepthDuration/v2_depth_duration_MTurk/v2_DepthDuration_HTML.html#46,46,1366,625,1366,768,8-22-2022,8-17-3,115,depth_duration_stimuli/000470_2014-06-09_19-42-40_260595134347_rgbf000094-resize_1/000470_2014-06-09_19-42-40_260595134347_rgbf000094-resize_1-target.png,1000,1.831,40,3494,1014,meters,jsons/v1_VE1000_randls_41_rotated.json,775386,984939,57,Woman
115,270834,DepthScenes,duration_manipulation_targetAtFixation,jsons/v1_VE1000_randls_41_rotated.json,http://54.235.29.9/FacialAge/BNav_EC2/DepthDuration/v2_depth_duration_MTurk/v2_DepthDuration_HTML.html#46,46,1366,625,1366,768,8-22-2022,8-17-3,116,depth_duration_stimuli/001617_2014-06-20_11-35-32_260595134347_rgbf000066-resize_1/001617_2014-06-20_11-35-32_260595134347_rgbf000066-resize_1-target.png,1000,3.7910000000000004,30,3572,1004,meters,jsons/v1_VE1000_randls_41_rotated.json,775386,984939,57,Woman
116,270834,DepthScenes,duration_manipulation_targetAtFixation,jsons/v1_VE1000_randls_41_rotated.json,http://54.235.29.9/FacialAge/BNav_EC2/DepthDuration/v2_depth_duration_MTurk/v2_DepthDuration_HTML.html#46,46,1366,625,1366,768,8-22-2022,8-17-3,117,depth_duration_stimuli/001806_2014-06-26_20-50-20_260595134347_rgbf000091-resize_1/001806_2014-06-26_20-50-20_260595134347_rgbf000091-resize_1-target.png,1000,2.7305,30,3662,990,meters,jsons/v1_VE1000_randls_41_rotated.json,775386,984939,57,Woman
117,270834,DepthScenes,duration_manipulation_targetAtFixation,jsons/v1_VE1000_randls_41_rotated.json,http://54.235.29.9/FacialAge/BNav_EC2/DepthDuration/v2_depth_duration_MTurk/v2_DepthDuration_HTML.html#46,46,1366,625,1366,768,8-22-2022,8-17-3,118,depth_duration_stimuli/001392_2014-06-19_16-07-59_260595134347_rgbf000046-resize_1/001392_2014-06-19_16-07-59_260595134347_rgbf000046-resize_1-target.png,1000,4.135,20,3581,1008,meters,jsons/v1_VE1000_randls_41_rotated.json,775386,984939,57,Woman
118,270834,DepthScenes,duration_manipulation_targetAtFixation,jsons/v1_VE1000_randls_41_rotated.json,http://54.235.29.9/FacialAge/BNav_EC2/DepthDuration/v2_depth_duration_MTurk/v2_DepthDuration_HTML.html#46,46,1366,625,1366,768,8-22-2022,8-17-3,119,depth_duration_stimuli/001570_2014-06-20_17-21-09_260595134347_rgbf000135-resize_4/001570_2014-06-20_17-21-09_260595134347_rgbf000135-resize_4-target.png,1000,4.467,30,3597,1005,meters,jsons/v1_VE1000_randls_41_rotated.json,775386,984939,57,Woman
119,270834,DepthScenes,duration_manipulation_targetAtFixation,jsons/v1_VE1000_randls_41_rotated.json,http://54.235.29.9/FacialAge/BNav_EC2/DepthDuration/v2_depth_duration_MTurk/v2_DepthDuration_HTML.html#46,46,1366,625,1366,768,8-22-2022,8-17-3,120,depth_duration_stimuli/000787_2014-06-08_22-33-53_260595134347_rgbf000175-resize_1/000787_2014-06-08_22-33-53_260595134347_rgbf000175-resize-original.jpg,1000,4.784,0,4139,1004,meters,jsons/v1_VE1000_randls_41_rotated.json,775386,984939,57,Woman
120,270834,DepthScenes,duration_manipulation_targetAtFixation,jsons/v1_VE1000_randls_41_rotated.json,http://54.235.29.9/FacialAge/BNav_EC2/DepthDuration/v2_depth_duration_MTurk/v2_DepthDuration_HTML.html#46,46,1366,625,1366,768,8-22-2022,8-17-3,121,depth_duration_stimuli/003423_2014-05-21_10-23-26_094959634447_rgbf002665-resize_2/003423_2014-05-21_10-23-26_094959634447_rgbf002665-resize_2-target.png,1000,3.2575,30,3836,997,meters,jsons/v1_VE1000_randls_41_rotated.json,775386,984939,57,Woman
121,270834,DepthScenes,duration_manipulation_targetAtFixation,jsons/v1_VE1000_randls_41_rotated.json,http://54.235.29.9/FacialAge/BNav_EC2/DepthDuration/v2_depth_duration_MTurk/v2_DepthDuration_HTML.html#46,46,1366,625,1366,768,8-22-2022,8-17-3,122,depth_duration_stimuli/002905_2014-06-03_18-04-43_094959634447_rgbf000151-resize_2/002905_2014-06-03_18-04-43_094959634447_rgbf000151-resize_2-target.png,1000,2.0295,30,3836,987,meters,jsons/v1_VE1000_randls_41_rotated.json,775386,984939,57,Woman
122,270834,DepthScenes,duration_manipulation_targetAtFixation,jsons/v1_VE1000_randls_41_rotated.json,http://54.235.29.9/FacialAge/BNav_EC2/DepthDuration/v2_depth_duration_MTurk/v2_DepthDuration_HTML.html#46,46,1366,625,1366,768,8-22-2022,8-17-3,123,depth_duration_stimuli/000556_2014-06-09_22-42-56_260595134347_rgbf000214-resize_1/000556_2014-06-09_22-42-56_260595134347_rgbf000214-resize_1-target.png,1000,4.8415,40,3526,999,meters,jsons/v1_VE1000_randls_41_rotated.json,775386,984939,57,Woman
123,270834,DepthScenes,duration_manipulation_targetAtFixation,jsons/v1_VE1000_randls_41_rotated.json,http://54.235.29.9/FacialAge/BNav_EC2/DepthDuration/v2_depth_duration_MTurk/v2_DepthDuration_HTML.html#46,46,1366,625,1366,768,8-22-2022,8-17-3,124,depth_duration_stimuli/001158_2014-06-17_15-32-16_260595134347_rgbf000138-resize_2/001158_2014-06-17_15-32-16_260595134347_rgbf000138-resize_2-target.png,1000,4.5315,50,3804,982,meters,jsons/v1_VE1000_randls_41_rotated.json,775386,984939,57,Woman
124,270834,DepthScenes,duration_manipulation_targetAtFixation,jsons/v1_VE1000_randls_41_rotated.json,http://54.235.29.9/FacialAge/BNav_EC2/DepthDuration/v2_depth_duration_MTurk/v2_DepthDuration_HTML.html#46,46,1366,625,1366,768,8-22-2022,8-17-3,125,depth_duration_stimuli/000103_2014-05-14_22-01-17_260595134347_rgbf000152-resize_5/000103_2014-05-14_22-01-17_260595134347_rgbf000152-resize_5-target.png,1000,1.993,30,3567,993,meters,jsons/v1_VE1000_randls_41_rotated.json,775386,984939,57,Woman
125,270834,DepthScenes,duration_manipulation_targetAtFixation,jsons/v1_VE1000_randls_41_rotated.json,http://54.235.29.9/FacialAge/BNav_EC2/DepthDuration/v2_depth_duration_MTurk/v2_DepthDuration_HTML.html#46,46,1366,625,1366,768,8-22-2022,8-17-3,126,depth_duration_stimuli/001555_2014-06-20_17-12-10_260595134347_rgbf000065-resize_4/001555_2014-06-20_17-12-10_260595134347_rgbf000065-resize_4-target.png,1000,1.633,40,3648,991,meters,jsons/v1_VE1000_randls_41_rotated.json,775386,984939,57,Woman
126,270834,DepthScenes,duration_manipulation_targetAtFixation,jsons/v1_VE1000_randls_41_rotated.json,http://54.235.29.9/FacialAge/BNav_EC2/DepthDuration/v2_depth_duration_MTurk/v2_DepthDuration_HTML.html#46,46,1366,625,1366,768,8-22-2022,8-17-3,127,depth_duration_stimuli/002639_2014-06-24_14-51-37_094959634447_rgbf000074-resize_4/002639_2014-06-24_14-51-37_094959634447_rgbf000074-resize_4-target.png,1000,4.0375,20,5351,1010,meters,jsons/v1_VE1000_randls_41_rotated.json,775386,984939,57,Woman
127,270834,DepthScenes,duration_manipulation_targetAtFixation,jsons/v1_VE1000_randls_41_rotated.json,http://54.235.29.9/FacialAge/BNav_EC2/DepthDuration/v2_depth_duration_MTurk/v2_DepthDuration_HTML.html#46,46,1366,625,1366,768,8-22-2022,8-17-3,128,depth_duration_stimuli/003292_2014-05-14_21-53-49_094959634447_rgbf000100-resize_2/003292_2014-05-14_21-53-49_094959634447_rgbf000100-resize_2-target.png,1000,3.4815,40,3685,990,meters,jsons/v1_VE1000_randls_41_rotated.json,775386,984939,57,Woman
128,270834,DepthScenes,duration_manipulation_targetAtFixation,jsons/v1_VE1000_randls_41_rotated.json,http://54.235.29.9/FacialAge/BNav_EC2/DepthDuration/v2_depth_duration_MTurk/v2_DepthDuration_HTML.html#46,46,1366,625,1366,768,8-22-2022,8-17-3,129,depth_duration_stimuli/000665_2014-06-09_20-42-35_260595134347_rgbf000110-resize_1/000665_2014-06-09_20-42-35_260595134347_rgbf000110-resize_1-target.png,1000,3.057,30,3414,939,meters,jsons/v1_VE1000_randls_41_rotated.json,775386,984939,57,Woman
129,270834,DepthScenes,duration_manipulation_targetAtFixation,jsons/v1_VE1000_randls_41_rotated.json,http://54.235.29.9/FacialAge/BNav_EC2/DepthDuration/v2_depth_duration_MTurk/v2_DepthDuration_HTML.html#46,46,1366,625,1366,768,8-22-2022,8-17-3,130,depth_duration_stimuli/001150_2014-06-17_15-27-34_260595134347_rgbf000108-resize_2/001150_2014-06-17_15-27-34_260595134347_rgbf000108-resize_2-target.png,1000,4.0325,40,3774,996,meters,jsons/v1_VE1000_randls_41_rotated.json,775386,984939,57,Woman
130,270834,DepthScenes,duration_manipulation_targetAtFixation,jsons/v1_VE1000_randls_41_rotated.json,http://54.235.29.9/FacialAge/BNav_EC2/DepthDuration/v2_depth_duration_MTurk/v2_DepthDuration_HTML.html#46,46,1366,625,1366,768,8-22-2022,8-17-3,131,depth_duration_stimuli/001214_2014-06-17_16-13-55_260595134347_rgbf000111-resize_0/001214_2014-06-17_16-13-55_260595134347_rgbf000111-resize_0-target.png,1000,2.6505,30,3554,988,meters,jsons/v1_VE1000_randls_41_rotated.json,775386,984939,57,Woman
131,270834,DepthScenes,duration_manipulation_targetAtFixation,jsons/v1_VE1000_randls_41_rotated.json,http://54.235.29.9/FacialAge/BNav_EC2/DepthDuration/v2_depth_duration_MTurk/v2_DepthDuration_HTML.html#46,46,1366,625,1366,768,8-22-2022,8-17-3,132,depth_duration_stimuli/000810_2014-06-08_17-20-01_260595134347_rgbf000105-resize_0/000810_2014-06-08_17-20-01_260595134347_rgbf000105-resize_0-target.png,1000,1.4865,20,3527,1006,meters,jsons/v1_VE1000_randls_41_rotated.json,775386,984939,57,Woman
132,270834,DepthScenes,duration_manipulation_targetAtFixation,jsons/v1_VE1000_randls_41_rotated.json,http://54.235.29.9/FacialAge/BNav_EC2/DepthDuration/v2_depth_duration_MTurk/v2_DepthDuration_HTML.html#46,46,1366,625,1366,768,8-22-2022,8-17-3,133,depth_duration_stimuli/002995_2014-06-15_12-31-26_094959634447_rgbf000150-resize_1/002995_2014-06-15_12-31-26_094959634447_rgbf000150-resize_1-target.png,1000,3.8360000000000003,30,3473,1015,meters,jsons/v1_VE1000_randls_41_rotated.json,775386,984939,57,Woman
133,270834,DepthScenes,duration_manipulation_targetAtFixation,jsons/v1_VE1000_randls_41_rotated.json,http://54.235.29.9/FacialAge/BNav_EC2/DepthDuration/v2_depth_duration_MTurk/v2_DepthDuration_HTML.html#46,46,1366,625,1366,768,8-22-2022,8-17-3,134,depth_duration_stimuli/002748_2014-06-22_19-07-22_094959634447_rgbf000078-resize_1/002748_2014-06-22_19-07-22_094959634447_rgbf000078-resize_1-target.png,1000,4.6705,30,3459,921,meters,jsons/v1_VE1000_randls_41_rotated.json,775386,984939,57,Woman
134,270834,DepthScenes,duration_manipulation_targetAtFixation,jsons/v1_VE1000_randls_41_rotated.json,http://54.235.29.9/FacialAge/BNav_EC2/DepthDuration/v2_depth_duration_MTurk/v2_DepthDuration_HTML.html#46,46,1366,625,1366,768,8-22-2022,8-17-3,135,depth_duration_stimuli/000375_2014-06-08_11-17-29_260595134347_rgbf000133-resize_2/000375_2014-06-08_11-17-29_260595134347_rgbf000133-resize-original.jpg,1000,4.718,0,3428,999,meters,jsons/v1_VE1000_randls_41_rotated.json,775386,984939,57,Woman
135,270834,DepthScenes,duration_manipulation_targetAtFixation,jsons/v1_VE1000_randls_41_rotated.json,http://54.235.29.9/FacialAge/BNav_EC2/DepthDuration/v2_depth_duration_MTurk/v2_DepthDuration_HTML.html#46,46,1366,625,1366,768,8-22-2022,8-17-3,136,depth_duration_stimuli/001136_2014-06-17_15-19-41_260595134347_rgbf000076-resize_3/001136_2014-06-17_15-19-41_260595134347_rgbf000076-resize_3-target.png,1000,1.8655,30,3844,996,meters,jsons/v1_VE1000_randls_41_rotated.json,775386,984939,57,Woman
136,270834,DepthScenes,duration_manipulation_targetAtFixation,jsons/v1_VE1000_randls_41_rotated.json,http://54.235.29.9/FacialAge/BNav_EC2/DepthDuration/v2_depth_duration_MTurk/v2_DepthDuration_HTML.html#46,46,1366,625,1366,768,8-22-2022,8-17-3,137,depth_duration_stimuli/001164_2014-06-17_15-35-46_260595134347_rgbf000085-resize_3/001164_2014-06-17_15-35-46_260595134347_rgbf000085-resize_3-target.png,1000,2.354,30,3254,878,meters,jsons/v1_VE1000_randls_41_rotated.json,775386,984939,57,Woman
137,270834,DepthScenes,duration_manipulation_targetAtFixation,jsons/v1_VE1000_randls_41_rotated.json,http://54.235.29.9/FacialAge/BNav_EC2/DepthDuration/v2_depth_duration_MTurk/v2_DepthDuration_HTML.html#46,46,1366,625,1366,768,8-22-2022,8-17-3,138,depth_duration_stimuli/003490_2014-05-21_15-50-11_094959634447_rgbf000101-resize_3/003490_2014-05-21_15-50-11_094959634447_rgbf000101-resize_3-target.png,1000,3.6445,30,5858,1013,meters,jsons/v1_VE1000_randls_41_rotated.json,775386,984939,57,Woman
138,270834,DepthScenes,duration_manipulation_targetAtFixation,jsons/v1_VE1000_randls_41_rotated.json,http://54.235.29.9/FacialAge/BNav_EC2/DepthDuration/v2_depth_duration_MTurk/v2_DepthDuration_HTML.html#46,46,1366,625,1366,768,8-22-2022,8-17-3,139,depth_duration_stimuli/001175_2014-06-17_15-45-55_260595134347_rgbf000129-resize_4/001175_2014-06-17_15-45-55_260595134347_rgbf000129-resize_4-target.png,1000,4.255,20,3864,995,meters,jsons/v1_VE1000_randls_41_rotated.json,775386,984939,57,Woman
139,270834,DepthScenes,duration_manipulation_targetAtFixation,jsons/v1_VE1000_randls_41_rotated.json,http://54.235.29.9/FacialAge/BNav_EC2/DepthDuration/v2_depth_duration_MTurk/v2_DepthDuration_HTML.html#46,46,1366,625,1366,768,8-22-2022,8-17-3,140,depth_duration_stimuli/003228_2014-05-14_13-42-35_094959634447_rgbf000101-resize_1/003228_2014-05-14_13-42-35_094959634447_rgbf000101-resize_1-target.png,1000,1.9680000000000002,30,4350,1003,meters,jsons/v1_VE1000_randls_41_rotated.json,775386,984939,57,Woman
140,270834,DepthScenes,duration_manipulation_targetAtFixation,jsons/v1_VE1000_randls_41_rotated.json,http://54.235.29.9/FacialAge/BNav_EC2/DepthDuration/v2_depth_duration_MTurk/v2_DepthDuration_HTML.html#46,46,1366,625,1366,768,8-22-2022,8-17-3,141,depth_duration_stimuli/002600_2014-06-24_14-27-04_094959634447_rgbf000074-resize_2/002600_2014-06-24_14-27-04_094959634447_rgbf000074-resize_2-target.png,1000,2.7575,20,3612,985,meters,jsons/v1_VE1000_randls_41_rotated.json,775386,984939,57,Woman
141,270834,DepthScenes,duration_manipulation_targetAtFixation,jsons/v1_VE1000_randls_41_rotated.json,http://54.235.29.9/FacialAge/BNav_EC2/DepthDuration/v2_depth_duration_MTurk/v2_DepthDuration_HTML.html#46,46,1366,625,1366,768,8-22-2022,8-17-3,142,depth_duration_stimuli/002444_2014-06-28_20-32-08_260595134347_rgbf000027-resize_0/002444_2014-06-28_20-32-08_260595134347_rgbf000027-resize_0-target.png,1000,4.388999999999999,30,3540,988,meters,jsons/v1_VE1000_randls_41_rotated.json,775386,984939,57,Woman
142,270834,DepthScenes,duration_manipulation_targetAtFixation,jsons/v1_VE1000_randls_41_rotated.json,http://54.235.29.9/FacialAge/BNav_EC2/DepthDuration/v2_depth_duration_MTurk/v2_DepthDuration_HTML.html#46,46,1366,625,1366,768,8-22-2022,8-17-3,143,depth_duration_stimuli/000436_2014-06-09_22-25-11_260595134347_rgbf000137-resize_1/000436_2014-06-09_22-25-11_260595134347_rgbf000137-resize_1-target.png,1000,4.0705,10,3622,1000,meters,jsons/v1_VE1000_randls_41_rotated.json,775386,984939,57,Woman
143,270834,DepthScenes,duration_manipulation_targetAtFixation,jsons/v1_VE1000_randls_41_rotated.json,http://54.235.29.9/FacialAge/BNav_EC2/DepthDuration/v2_depth_duration_MTurk/v2_DepthDuration_HTML.html#46,46,1366,625,1366,768,8-22-2022,8-17-3,144,depth_duration_stimuli/000749_2014-06-08_21-55-06_260595134347_rgbf000070-resize_2/000749_2014-06-08_21-55-06_260595134347_rgbf000070-resize_2-target.png,1000,2.331,30,3946,988,meters,jsons/v1_VE1000_randls_41_rotated.json,775386,984939,57,Woman
144,270834,DepthScenes,duration_manipulation_targetAtFixation,jsons/v1_VE1000_randls_41_rotated.json,http://54.235.29.9/FacialAge/BNav_EC2/DepthDuration/v2_depth_duration_MTurk/v2_DepthDuration_HTML.html#46,46,1366,625,1366,768,8-22-2022,8-17-3,145,depth_duration_stimuli/002788_2014-06-22_19-36-03_094959634447_rgbf000088-resize_2/002788_2014-06-22_19-36-03_094959634447_rgbf000088-resize_2-target.png,1000,1.6465,20,3370,1004,meters,jsons/v1_VE1000_randls_41_rotated.json,775386,984939,57,Woman
145,270834,DepthScenes,duration_manipulation_targetAtFixation,jsons/v1_VE1000_randls_41_rotated.json,http://54.235.29.9/FacialAge/BNav_EC2/DepthDuration/v2_depth_duration_MTurk/v2_DepthDuration_HTML.html#46,46,1366,625,1366,768,8-22-2022,8-17-3,146,depth_duration_stimuli/002340_2014-06-28_20-05-46_260595134347_rgbf000113-resize_0/002340_2014-06-28_20-05-46_260595134347_rgbf000113-resize_0-target.png,1000,2.4735,30,3714,1002,meters,jsons/v1_VE1000_randls_41_rotated.json,775386,984939,57,Woman
146,270834,DepthScenes,duration_manipulation_targetAtFixation,jsons/v1_VE1000_randls_41_rotated.json,http://54.235.29.9/FacialAge/BNav_EC2/DepthDuration/v2_depth_duration_MTurk/v2_DepthDuration_HTML.html#46,46,1366,625,1366,768,8-22-2022,8-17-3,147,depth_duration_stimuli/001016_2014-06-09_16-16-10_260595134347_rgbf000112-resize_5/001016_2014-06-09_16-16-10_260595134347_rgbf000112-resize_5-target.png,1000,1.6565,40,3661,1009,meters,jsons/v1_VE1000_randls_41_rotated.json,775386,984939,57,Woman
147,270834,DepthScenes,duration_manipulation_targetAtFixation,jsons/v1_VE1000_randls_41_rotated.json,http://54.235.29.9/FacialAge/BNav_EC2/DepthDuration/v2_depth_duration_MTurk/v2_DepthDuration_HTML.html#46,46,1366,625,1366,768,8-22-2022,8-17-3,148,depth_duration_stimuli/002657_2014-06-13_15-29-54_094959634447_rgbf000150-resize_1/002657_2014-06-13_15-29-54_094959634447_rgbf000150-resize_1-target.png,1000,4.919,30,3865,1001,meters,jsons/v1_VE1000_randls_41_rotated.json,775386,984939,57,Woman
148,270834,DepthScenes,duration_manipulation_targetAtFixation,jsons/v1_VE1000_randls_41_rotated.json,http://54.235.29.9/FacialAge/BNav_EC2/DepthDuration/v2_depth_duration_MTurk/v2_DepthDuration_HTML.html#46,46,1366,625,1366,768,8-22-2022,8-17-3,149,depth_duration_stimuli/002375_2014-06-28_20-13-44_260595134347_rgbf000032-resize_1/002375_2014-06-28_20-13-44_260595134347_rgbf000032-resize_1-target.png,1000,4.0175,30,3477,1000,meters,jsons/v1_VE1000_randls_41_rotated.json,775386,984939,57,Woman
149,270834,DepthScenes,duration_manipulation_targetAtFixation,jsons/v1_VE1000_randls_41_rotated.json,http://54.235.29.9/FacialAge/BNav_EC2/DepthDuration/v2_depth_duration_MTurk/v2_DepthDuration_HTML.html#46,46,1366,625,1366,768,8-22-2022,8-17-3,150,depth_duration_stimuli/001447_2014-06-19_17-00-32_260595134347_rgbf000082-resize_5/001447_2014-06-19_17-00-32_260595134347_rgbf000082-resize_5-target.png,1000,4.13775,30,3393,1007,meters,jsons/v1_VE1000_randls_41_rotated.json,775386,984939,57,Woman
150,270834,DepthScenes,duration_manipulation_targetAtFixation,jsons/v1_VE1000_randls_41_rotated.json,http://54.235.29.9/FacialAge/BNav_EC2/DepthDuration/v2_depth_duration_MTurk/v2_DepthDuration_HTML.html#46,46,1366,625,1366,768,8-22-2022,8-17-3,151,depth_duration_stimuli/000447_2014-06-08_16-15-46_260595134347_rgbf000130-resize_1/000447_2014-06-08_16-15-46_260595134347_rgbf000130-resize_1-target.png,1000,4.479,40,3813,999,meters,jsons/v1_VE1000_randls_41_rotated.json,775386,984939,57,Woman
151,270834,DepthScenes,duration_manipulation_targetAtFixation,jsons/v1_VE1000_randls_41_rotated.json,http://54.235.29.9/FacialAge/BNav_EC2/DepthDuration/v2_depth_duration_MTurk/v2_DepthDuration_HTML.html#46,46,1366,625,1366,768,8-22-2022,8-17-3,152,depth_duration_stimuli/000569_2014-06-09_22-51-47_260595134347_rgbf000141-resize_3/000569_2014-06-09_22-51-47_260595134347_rgbf000141-resize-original.jpg,1000,4.512,0,3413,998,meters,jsons/v1_VE1000_randls_41_rotated.json,775386,984939,57,Woman
152,270834,DepthScenes,duration_manipulation_targetAtFixation,jsons/v1_VE1000_randls_41_rotated.json,http://54.235.29.9/FacialAge/BNav_EC2/DepthDuration/v2_depth_duration_MTurk/v2_DepthDuration_HTML.html#46,46,1366,625,1366,768,8-22-2022,8-17-3,153,depth_duration_stimuli/000457_2014-06-08_16-52-43_260595134347_rgbf000199-resize_1/000457_2014-06-08_16-52-43_260595134347_rgbf000199-resize_1-target.png,1000,3.6489999999999996,30,3467,999,meters,jsons/v1_VE1000_randls_41_rotated.json,775386,984939,57,Woman
153,270834,DepthScenes,duration_manipulation_targetAtFixation,jsons/v1_VE1000_randls_41_rotated.json,http://54.235.29.9/FacialAge/BNav_EC2/DepthDuration/v2_depth_duration_MTurk/v2_DepthDuration_HTML.html#46,46,1366,625,1366,768,8-22-2022,8-17-3,154,depth_duration_stimuli/000929_2014-06-09_16-33-19_260595134347_rgbf000139-resize_0/000929_2014-06-09_16-33-19_260595134347_rgbf000139-resize_0-target.png,1000,2.8680000000000003,30,3619,1006,meters,jsons/v1_VE1000_randls_41_rotated.json,775386,984939,57,Woman
154,270834,DepthScenes,duration_manipulation_targetAtFixation,jsons/v1_VE1000_randls_41_rotated.json,http://54.235.29.9/FacialAge/BNav_EC2/DepthDuration/v2_depth_duration_MTurk/v2_DepthDuration_HTML.html#46,46,1366,625,1366,768,8-22-2022,8-17-3,155,depth_duration_stimuli/000780_2014-06-08_22-28-29_260595134347_rgbf000126-resize_1/000780_2014-06-08_22-28-29_260595134347_rgbf000126-resize_1-target.png,1000,3.3825,50,3570,986,meters,jsons/v1_VE1000_randls_41_rotated.json,775386,984939,57,Woman
155,270834,DepthScenes,duration_manipulation_targetAtFixation,jsons/v1_VE1000_randls_41_rotated.json,http://54.235.29.9/FacialAge/BNav_EC2/DepthDuration/v2_depth_duration_MTurk/v2_DepthDuration_HTML.html#46,46,1366,625,1366,768,8-22-2022,8-17-3,156,depth_duration_stimuli/002445_2014-06-28_20-32-16_260595134347_rgbf000029-resize_4/002445_2014-06-28_20-32-16_260595134347_rgbf000029-resize_4-target.png,1000,2.5315,30,3312,994,meters,jsons/v1_VE1000_randls_41_rotated.json,775386,984939,57,Woman
156,270834,DepthScenes,duration_manipulation_targetAtFixation,jsons/v1_VE1000_randls_41_rotated.json,http://54.235.29.9/FacialAge/BNav_EC2/DepthDuration/v2_depth_duration_MTurk/v2_DepthDuration_HTML.html#46,46,1366,625,1366,768,8-22-2022,8-17-3,157,depth_duration_stimuli/003587_2014-05-23_16-48-02_094959634447_rgbf002384-resize_2/003587_2014-05-23_16-48-02_094959634447_rgbf002384-resize_2-target.png,1000,1.357,20,3831,994,meters,jsons/v1_VE1000_randls_41_rotated.json,775386,984939,57,Woman
157,270834,DepthScenes,duration_manipulation_targetAtFixation,jsons/v1_VE1000_randls_41_rotated.json,http://54.235.29.9/FacialAge/BNav_EC2/DepthDuration/v2_depth_duration_MTurk/v2_DepthDuration_HTML.html#46,46,1366,625,1366,768,8-22-2022,8-17-3,158,depth_duration_stimuli/001167_2014-06-17_15-38-07_260595134347_rgbf000108-resize_0/001167_2014-06-17_15-38-07_260595134347_rgbf000108-resize_0-target.png,1000,1.8505,30,4141,998,meters,jsons/v1_VE1000_randls_41_rotated.json,775386,984939,57,Woman
158,270834,DepthScenes,duration_manipulation_targetAtFixation,jsons/v1_VE1000_randls_41_rotated.json,http://54.235.29.9/FacialAge/BNav_EC2/DepthDuration/v2_depth_duration_MTurk/v2_DepthDuration_HTML.html#46,46,1366,625,1366,768,8-22-2022,8-17-3,159,depth_duration_stimuli/003338_2014-05-20_11-01-23_094959634447_rgbf000051-resize_6/003338_2014-05-20_11-01-23_094959634447_rgbf000051-resize_6-target.png,1000,1.693,30,3379,1003,meters,jsons/v1_VE1000_randls_41_rotated.json,775386,984939,57,Woman
159,270834,DepthScenes,duration_manipulation_targetAtFixation,jsons/v1_VE1000_randls_41_rotated.json,http://54.235.29.9/FacialAge/BNav_EC2/DepthDuration/v2_depth_duration_MTurk/v2_DepthDuration_HTML.html#46,46,1366,625,1366,768,8-22-2022,8-17-3,160,depth_duration_stimuli/002509_2014-06-24_13-19-22_094959634447_rgbf000077-resize_0/002509_2014-06-24_13-19-22_094959634447_rgbf000077-resize_0-target.png,1000,1.3065,50,4195,1009,meters,jsons/v1_VE1000_randls_41_rotated.json,775386,984939,57,Woman
160,270834,DepthScenes,duration_manipulation_targetAtFixation,jsons/v1_VE1000_randls_41_rotated.json,http://54.235.29.9/FacialAge/BNav_EC2/DepthDuration/v2_depth_duration_MTurk/v2_DepthDuration_HTML.html#46,46,1366,625,1366,768,8-22-2022,8-17-3,161,depth_duration_stimuli/000549_2014-06-08_22-10-24_260595134347_rgbf000247-resize_3/000549_2014-06-08_22-10-24_260595134347_rgbf000247-resize_3-target.png,1000,1.841,30,3733,990,meters,jsons/v1_VE1000_randls_41_rotated.json,775386,984939,57,Woman
161,270834,DepthScenes,duration_manipulation_targetAtFixation,jsons/v1_VE1000_randls_41_rotated.json,http://54.235.29.9/FacialAge/BNav_EC2/DepthDuration/v2_depth_duration_MTurk/v2_DepthDuration_HTML.html#46,46,1366,625,1366,768,8-22-2022,8-17-3,162,depth_duration_stimuli/001055_2014-06-08_18-45-35_260595134347_rgbf000111-resize_4/001055_2014-06-08_18-45-35_260595134347_rgbf000111-resize_4-target.png,1000,2.4290000000000003,20,6380,1176,meters,jsons/v1_VE1000_randls_41_rotated.json,775386,984939,57,Woman
162,270834,DepthScenes,duration_manipulation_targetAtFixation,jsons/v1_VE1000_randls_41_rotated.json,http://54.235.29.9/FacialAge/BNav_EC2/DepthDuration/v2_depth_duration_MTurk/v2_DepthDuration_HTML.html#46,46,1366,625,1366,768,8-22-2022,8-17-3,163,depth_duration_stimuli/000691_2014-06-08_13-08-50_260595134347_rgbf000132-resize_3/000691_2014-06-08_13-08-50_260595134347_rgbf000132-resize_3-target.png,1000,4.1530000000000005,50,12025,1006,meters,jsons/v1_VE1000_randls_41_rotated.json,775386,984939,57,Woman
163,270834,DepthScenes,duration_manipulation_targetAtFixation,jsons/v1_VE1000_randls_41_rotated.json,http://54.235.29.9/FacialAge/BNav_EC2/DepthDuration/v2_depth_duration_MTurk/v2_DepthDuration_HTML.html#46,46,1366,625,1366,768,8-22-2022,8-17-3,164,depth_duration_stimuli/002213_2014-06-28_18-37-58_260595134347_rgbf000055-resize_1/002213_2014-06-28_18-37-58_260595134347_rgbf000055-resize_1-target.png,1000,3.62,75,4491,1068,meters,jsons/v1_VE1000_randls_41_rotated.json,775386,984939,57,Woman
