,subjID,experimentName,versionName,sequenceName,url,selected_row,windowWidth,windowHeight,screenWidth,screenHeight,startDate,startTime,trial,stimulus,duration,actual_depth,depth_estimate,trial_RT,log_sceneDuration,unitSelection,seq_filepath,experimentTime,totalTime,age,gender
0,272000,DepthScenes,duration_manipulation_targetAtFixation,jsons/VE125_randls_57_rotated.json,http://54.235.29.9/FacialAge/BNav_EC2/DepthDuration/v2_depth_duration_MTurk/v2_DepthDuration_HTML.html#306,306,1280,601,1280,720,9-4-2022,7-31-12,1,depth_duration_stimuli/003048_2014-06-15_13-49-43_094959634447_rgbf000150-resize_1/003048_2014-06-15_13-49-43_094959634447_rgbf000150-resize_1-target.png,125,4.0035,10,3123,131,feet,jsons/VE125_randls_57_rotated.json,489334,593540,38,Man
1,272000,DepthScenes,duration_manipulation_targetAtFixation,jsons/VE125_randls_57_rotated.json,http://54.235.29.9/FacialAge/BNav_EC2/DepthDuration/v2_depth_duration_MTurk/v2_DepthDuration_HTML.html#306,306,1280,601,1280,720,9-4-2022,7-31-12,2,depth_duration_stimuli/002043_2014-06-24_20-29-38_260595134347_rgbf000039-resize_4/002043_2014-06-24_20-29-38_260595134347_rgbf000039-resize_4-target.png,125,2.8435,3,4287,139,feet,jsons/VE125_randls_57_rotated.json,489334,593540,38,Man
2,272000,DepthScenes,duration_manipulation_targetAtFixation,jsons/VE125_randls_57_rotated.json,http://54.235.29.9/FacialAge/BNav_EC2/DepthDuration/v2_depth_duration_MTurk/v2_DepthDuration_HTML.html#306,306,1280,601,1280,720,9-4-2022,7-31-12,3,depth_duration_stimuli/002323_2014-06-28_20-01-54_260595134347_rgbf000051-resize_4/002323_2014-06-28_20-01-54_260595134347_rgbf000051-resize_4-target.png,125,3.7310000000000003,4,4425,121,feet,jsons/VE125_randls_57_rotated.json,489334,593540,38,Man
3,272000,DepthScenes,duration_manipulation_targetAtFixation,jsons/VE125_randls_57_rotated.json,http://54.235.29.9/FacialAge/BNav_EC2/DepthDuration/v2_depth_duration_MTurk/v2_DepthDuration_HTML.html#306,306,1280,601,1280,720,9-4-2022,7-31-12,4,depth_duration_stimuli/000917_2014-06-09_22-45-29_260595134347_rgbf000149-resize_3/000917_2014-06-09_22-45-29_260595134347_rgbf000149-resize_3-target.png,125,4.1865,1,3537,125,feet,jsons/VE125_randls_57_rotated.json,489334,593540,38,Man
4,272000,DepthScenes,duration_manipulation_targetAtFixation,jsons/VE125_randls_57_rotated.json,http://54.235.29.9/FacialAge/BNav_EC2/DepthDuration/v2_depth_duration_MTurk/v2_DepthDuration_HTML.html#306,306,1280,601,1280,720,9-4-2022,7-31-12,5,depth_duration_stimuli/002136_2014-06-25_21-18-03_260595134347_rgbf000109-resize_3/002136_2014-06-25_21-18-03_260595134347_rgbf000109-resize_3-target.png,125,1.9569999999999999,4,4290,124,feet,jsons/VE125_randls_57_rotated.json,489334,593540,38,Man
5,272000,DepthScenes,duration_manipulation_targetAtFixation,jsons/VE125_randls_57_rotated.json,http://54.235.29.9/FacialAge/BNav_EC2/DepthDuration/v2_depth_duration_MTurk/v2_DepthDuration_HTML.html#306,306,1280,601,1280,720,9-4-2022,7-31-12,6,depth_duration_stimuli/002964_2014-06-08_17-46-11_094959634447_rgbf000091-resize_4/002964_2014-06-08_17-46-11_094959634447_rgbf000091-resize_4-target.png,125,1.6909999999999998,8,3653,128,feet,jsons/VE125_randls_57_rotated.json,489334,593540,38,Man
6,272000,DepthScenes,duration_manipulation_targetAtFixation,jsons/VE125_randls_57_rotated.json,http://54.235.29.9/FacialAge/BNav_EC2/DepthDuration/v2_depth_duration_MTurk/v2_DepthDuration_HTML.html#306,306,1280,601,1280,720,9-4-2022,7-31-12,7,depth_duration_stimuli/000691_2014-06-08_13-08-50_260595134347_rgbf000132-resize_3/000691_2014-06-08_13-08-50_260595134347_rgbf000132-resize_3-target.png,125,4.1530000000000005,9,2708,125,feet,jsons/VE125_randls_57_rotated.json,489334,593540,38,Man
7,272000,DepthScenes,duration_manipulation_targetAtFixation,jsons/VE125_randls_57_rotated.json,http://54.235.29.9/FacialAge/BNav_EC2/DepthDuration/v2_depth_duration_MTurk/v2_DepthDuration_HTML.html#306,306,1280,601,1280,720,9-4-2022,7-31-12,8,depth_duration_stimuli/002213_2014-06-28_18-37-58_260595134347_rgbf000055-resize_1/002213_2014-06-28_18-37-58_260595134347_rgbf000055-resize_1-target.png,125,3.62,11,3751,115,feet,jsons/VE125_randls_57_rotated.json,489334,593540,38,Man
8,272000,DepthScenes,duration_manipulation_targetAtFixation,jsons/VE125_randls_57_rotated.json,http://54.235.29.9/FacialAge/BNav_EC2/DepthDuration/v2_depth_duration_MTurk/v2_DepthDuration_HTML.html#306,306,1280,601,1280,720,9-4-2022,7-31-12,9,depth_duration_stimuli/000137_2014-05-20_17-04-49_260595134347_rgbf000120-resize_1/000137_2014-05-20_17-04-49_260595134347_rgbf000120-resize_1-target.png,125,3.786,8,2326,114,feet,jsons/VE125_randls_57_rotated.json,489334,593540,38,Man
9,272000,DepthScenes,duration_manipulation_targetAtFixation,jsons/VE125_randls_57_rotated.json,http://54.235.29.9/FacialAge/BNav_EC2/DepthDuration/v2_depth_duration_MTurk/v2_DepthDuration_HTML.html#306,306,1280,601,1280,720,9-4-2022,7-31-12,10,depth_duration_stimuli/000736_2014-06-08_18-24-15_260595134347_rgbf000206-resize_3/000736_2014-06-08_18-24-15_260595134347_rgbf000206-resize_3-target.png,125,3.515,7,2296,122,feet,jsons/VE125_randls_57_rotated.json,489334,593540,38,Man
10,272000,DepthScenes,duration_manipulation_targetAtFixation,jsons/VE125_randls_57_rotated.json,http://54.235.29.9/FacialAge/BNav_EC2/DepthDuration/v2_depth_duration_MTurk/v2_DepthDuration_HTML.html#306,306,1280,601,1280,720,9-4-2022,7-31-12,11,depth_duration_stimuli/000854_2014-06-09_19-43-13_260595134347_rgbf000066-resize_0/000854_2014-06-09_19-43-13_260595134347_rgbf000066-resize_0-target.png,125,3.068,5,2239,126,feet,jsons/VE125_randls_57_rotated.json,489334,593540,38,Man
11,272000,DepthScenes,duration_manipulation_targetAtFixation,jsons/VE125_randls_57_rotated.json,http://54.235.29.9/FacialAge/BNav_EC2/DepthDuration/v2_depth_duration_MTurk/v2_DepthDuration_HTML.html#306,306,1280,601,1280,720,9-4-2022,7-31-12,12,depth_duration_stimuli/000758_2014-06-08_22-05-08_260595134347_rgbf000085-resize_0/000758_2014-06-08_22-05-08_260595134347_rgbf000085-resize_0-target.png,125,3.3810000000000002,8,2754,127,feet,jsons/VE125_randls_57_rotated.json,489334,593540,38,Man
12,272000,DepthScenes,duration_manipulation_targetAtFixation,jsons/VE125_randls_57_rotated.json,http://54.235.29.9/FacialAge/BNav_EC2/DepthDuration/v2_depth_duration_MTurk/v2_DepthDuration_HTML.html#306,306,1280,601,1280,720,9-4-2022,7-31-12,13,depth_duration_stimuli/000866_2014-06-09_20-45-42_260595134347_rgbf000139-resize_1/000866_2014-06-09_20-45-42_260595134347_rgbf000139-resize_1-target.png,125,3.2155,3,4170,126,feet,jsons/VE125_randls_57_rotated.json,489334,593540,38,Man
13,272000,DepthScenes,duration_manipulation_targetAtFixation,jsons/VE125_randls_57_rotated.json,http://54.235.29.9/FacialAge/BNav_EC2/DepthDuration/v2_depth_duration_MTurk/v2_DepthDuration_HTML.html#306,306,1280,601,1280,720,9-4-2022,7-31-12,14,depth_duration_stimuli/002989_2014-06-15_12-25-03_094959634447_rgbf000150-resize_3/002989_2014-06-15_12-25-03_094959634447_rgbf000150-resize_3-target.png,125,4.1975,12,2779,128,feet,jsons/VE125_randls_57_rotated.json,489334,593540,38,Man
14,272000,DepthScenes,duration_manipulation_targetAtFixation,jsons/VE125_randls_57_rotated.json,http://54.235.29.9/FacialAge/BNav_EC2/DepthDuration/v2_depth_duration_MTurk/v2_DepthDuration_HTML.html#306,306,1280,601,1280,720,9-4-2022,7-31-12,15,depth_duration_stimuli/002425_2014-06-28_20-27-29_260595134347_rgbf000031-resize_8/002425_2014-06-28_20-27-29_260595134347_rgbf000031-resize_8-target.png,125,3.8960000000000004,9,2302,110,feet,jsons/VE125_randls_57_rotated.json,489334,593540,38,Man
15,272000,DepthScenes,duration_manipulation_targetAtFixation,jsons/VE125_randls_57_rotated.json,http://54.235.29.9/FacialAge/BNav_EC2/DepthDuration/v2_depth_duration_MTurk/v2_DepthDuration_HTML.html#306,306,1280,601,1280,720,9-4-2022,7-31-12,16,depth_duration_stimuli/000642_2014-06-08_16-59-25_260595134347_rgbf000098-resize_2/000642_2014-06-08_16-59-25_260595134347_rgbf000098-resize_2-target.png,125,2.8815,8,2272,116,feet,jsons/VE125_randls_57_rotated.json,489334,593540,38,Man
16,272000,DepthScenes,duration_manipulation_targetAtFixation,jsons/VE125_randls_57_rotated.json,http://54.235.29.9/FacialAge/BNav_EC2/DepthDuration/v2_depth_duration_MTurk/v2_DepthDuration_HTML.html#306,306,1280,601,1280,720,9-4-2022,7-31-12,17,depth_duration_stimuli/001094_2014-06-15_17-36-00_260595134347_rgbf000205-resize_0/001094_2014-06-15_17-36-00_260595134347_rgbf000205-resize_0-target.png,125,4.2175,11,2984,137,feet,jsons/VE125_randls_57_rotated.json,489334,593540,38,Man
17,272000,DepthScenes,duration_manipulation_targetAtFixation,jsons/VE125_randls_57_rotated.json,http://54.235.29.9/FacialAge/BNav_EC2/DepthDuration/v2_depth_duration_MTurk/v2_DepthDuration_HTML.html#306,306,1280,601,1280,720,9-4-2022,7-31-12,18,depth_duration_stimuli/000692_2014-06-08_13-09-42_260595134347_rgbf000199-resize_2/000692_2014-06-08_13-09-42_260595134347_rgbf000199-resize_2-target.png,125,3.661,14,2792,131,feet,jsons/VE125_randls_57_rotated.json,489334,593540,38,Man
18,272000,DepthScenes,duration_manipulation_targetAtFixation,jsons/VE125_randls_57_rotated.json,http://54.235.29.9/FacialAge/BNav_EC2/DepthDuration/v2_depth_duration_MTurk/v2_DepthDuration_HTML.html#306,306,1280,601,1280,720,9-4-2022,7-31-12,19,depth_duration_stimuli/001498_2014-06-19_17-45-14_260595134347_rgbf000129-resize_4/001498_2014-06-19_17-45-14_260595134347_rgbf000129-resize-original.jpg,125,1.4075,0,2558,121,feet,jsons/VE125_randls_57_rotated.json,489334,593540,38,Man
19,272000,DepthScenes,duration_manipulation_targetAtFixation,jsons/VE125_randls_57_rotated.json,http://54.235.29.9/FacialAge/BNav_EC2/DepthDuration/v2_depth_duration_MTurk/v2_DepthDuration_HTML.html#306,306,1280,601,1280,720,9-4-2022,7-31-12,20,depth_duration_stimuli/001132_2014-06-17_14-48-54_260595134347_rgbf000100-resize_2/001132_2014-06-17_14-48-54_260595134347_rgbf000100-resize_2-target.png,125,3.753,7,3152,125,feet,jsons/VE125_randls_57_rotated.json,489334,593540,38,Man
20,272000,DepthScenes,duration_manipulation_targetAtFixation,jsons/VE125_randls_57_rotated.json,http://54.235.29.9/FacialAge/BNav_EC2/DepthDuration/v2_depth_duration_MTurk/v2_DepthDuration_HTML.html#306,306,1280,601,1280,720,9-4-2022,7-31-12,21,depth_duration_stimuli/001133_2014-06-17_14-49-16_260595134347_rgbf000100-resize_0/001133_2014-06-17_14-49-16_260595134347_rgbf000100-resize_0-target.png,125,4.2115,14,3356,132,feet,jsons/VE125_randls_57_rotated.json,489334,593540,38,Man
21,272000,DepthScenes,duration_manipulation_targetAtFixation,jsons/VE125_randls_57_rotated.json,http://54.235.29.9/FacialAge/BNav_EC2/DepthDuration/v2_depth_duration_MTurk/v2_DepthDuration_HTML.html#306,306,1280,601,1280,720,9-4-2022,7-31-12,22,depth_duration_stimuli/001450_2014-06-19_17-02-03_260595134347_rgbf000203-resize_4/001450_2014-06-19_17-02-03_260595134347_rgbf000203-resize_4-target.png,125,4.0106666666667,9,2418,138,feet,jsons/VE125_randls_57_rotated.json,489334,593540,38,Man
22,272000,DepthScenes,duration_manipulation_targetAtFixation,jsons/VE125_randls_57_rotated.json,http://54.235.29.9/FacialAge/BNav_EC2/DepthDuration/v2_depth_duration_MTurk/v2_DepthDuration_HTML.html#306,306,1280,601,1280,720,9-4-2022,7-31-12,23,depth_duration_stimuli/001449_2014-06-19_17-01-27_260595134347_rgbf000116-resize_2/001449_2014-06-19_17-01-27_260595134347_rgbf000116-resize_2-target.png,125,3.452,6,3276,126,feet,jsons/VE125_randls_57_rotated.json,489334,593540,38,Man
23,272000,DepthScenes,duration_manipulation_targetAtFixation,jsons/VE125_randls_57_rotated.json,http://54.235.29.9/FacialAge/BNav_EC2/DepthDuration/v2_depth_duration_MTurk/v2_DepthDuration_HTML.html#306,306,1280,601,1280,720,9-4-2022,7-31-12,24,depth_duration_stimuli/001584_2014-06-20_11-07-43_260595134347_rgbf000002-resize_1/001584_2014-06-20_11-07-43_260595134347_rgbf000002-resize_1-target.png,125,3.53,7,2215,129,feet,jsons/VE125_randls_57_rotated.json,489334,593540,38,Man
24,272000,DepthScenes,duration_manipulation_targetAtFixation,jsons/VE125_randls_57_rotated.json,http://54.235.29.9/FacialAge/BNav_EC2/DepthDuration/v2_depth_duration_MTurk/v2_DepthDuration_HTML.html#306,306,1280,601,1280,720,9-4-2022,7-31-12,25,depth_duration_stimuli/003621_2014-05-23_18-06-08_094959634447_rgbf000101-resize_1/003621_2014-05-23_18-06-08_094959634447_rgbf000101-resize_1-target.png,125,3.9835,11,2765,122,feet,jsons/VE125_randls_57_rotated.json,489334,593540,38,Man
25,272000,DepthScenes,duration_manipulation_targetAtFixation,jsons/VE125_randls_57_rotated.json,http://54.235.29.9/FacialAge/BNav_EC2/DepthDuration/v2_depth_duration_MTurk/v2_DepthDuration_HTML.html#306,306,1280,601,1280,720,9-4-2022,7-31-12,26,depth_duration_stimuli/000742_2014-06-08_18-48-09_260595134347_rgbf000164-resize_4/000742_2014-06-08_18-48-09_260595134347_rgbf000164-resize_4-target.png,125,4.632,13,2375,128,feet,jsons/VE125_randls_57_rotated.json,489334,593540,38,Man
26,272000,DepthScenes,duration_manipulation_targetAtFixation,jsons/VE125_randls_57_rotated.json,http://54.235.29.9/FacialAge/BNav_EC2/DepthDuration/v2_depth_duration_MTurk/v2_DepthDuration_HTML.html#306,306,1280,601,1280,720,9-4-2022,7-31-12,27,depth_duration_stimuli/001066_2014-06-08_22-03-20_260595134347_rgbf000066-resize_4/001066_2014-06-08_22-03-20_260595134347_rgbf000066-resize_4-target.png,125,4.2330000000000005,14,2259,121,feet,jsons/VE125_randls_57_rotated.json,489334,593540,38,Man
27,272000,DepthScenes,duration_manipulation_targetAtFixation,jsons/VE125_randls_57_rotated.json,http://54.235.29.9/FacialAge/BNav_EC2/DepthDuration/v2_depth_duration_MTurk/v2_DepthDuration_HTML.html#306,306,1280,601,1280,720,9-4-2022,7-31-12,28,depth_duration_stimuli/001136_2014-06-17_15-19-41_260595134347_rgbf000076-resize_3/001136_2014-06-17_15-19-41_260595134347_rgbf000076-resize_3-target.png,125,1.8655,5,2527,124,feet,jsons/VE125_randls_57_rotated.json,489334,593540,38,Man
28,272000,DepthScenes,duration_manipulation_targetAtFixation,jsons/VE125_randls_57_rotated.json,http://54.235.29.9/FacialAge/BNav_EC2/DepthDuration/v2_depth_duration_MTurk/v2_DepthDuration_HTML.html#306,306,1280,601,1280,720,9-4-2022,7-31-12,29,depth_duration_stimuli/001164_2014-06-17_15-35-46_260595134347_rgbf000085-resize_3/001164_2014-06-17_15-35-46_260595134347_rgbf000085-resize_3-target.png,125,2.354,7,2149,124,feet,jsons/VE125_randls_57_rotated.json,489334,593540,38,Man
29,272000,DepthScenes,duration_manipulation_targetAtFixation,jsons/VE125_randls_57_rotated.json,http://54.235.29.9/FacialAge/BNav_EC2/DepthDuration/v2_depth_duration_MTurk/v2_DepthDuration_HTML.html#306,306,1280,601,1280,720,9-4-2022,7-31-12,30,depth_duration_stimuli/002072_2014-06-24_21-48-06_260595134347_rgbf000115-resize_0/002072_2014-06-24_21-48-06_260595134347_rgbf000115-resize-original.jpg,125,4.702,0,3111,140,feet,jsons/VE125_randls_57_rotated.json,489334,593540,38,Man
30,272000,DepthScenes,duration_manipulation_targetAtFixation,jsons/VE125_randls_57_rotated.json,http://54.235.29.9/FacialAge/BNav_EC2/DepthDuration/v2_depth_duration_MTurk/v2_DepthDuration_HTML.html#306,306,1280,601,1280,720,9-4-2022,7-31-12,31,depth_duration_stimuli/003587_2014-05-23_16-48-02_094959634447_rgbf002384-resize_2/003587_2014-05-23_16-48-02_094959634447_rgbf002384-resize_2-target.png,125,1.357,1,2819,125,feet,jsons/VE125_randls_57_rotated.json,489334,593540,38,Man
31,272000,DepthScenes,duration_manipulation_targetAtFixation,jsons/VE125_randls_57_rotated.json,http://54.235.29.9/FacialAge/BNav_EC2/DepthDuration/v2_depth_duration_MTurk/v2_DepthDuration_HTML.html#306,306,1280,601,1280,720,9-4-2022,7-31-12,32,depth_duration_stimuli/001167_2014-06-17_15-38-07_260595134347_rgbf000108-resize_0/001167_2014-06-17_15-38-07_260595134347_rgbf000108-resize_0-target.png,125,1.8505,2,1950,124,feet,jsons/VE125_randls_57_rotated.json,489334,593540,38,Man
32,272000,DepthScenes,duration_manipulation_targetAtFixation,jsons/VE125_randls_57_rotated.json,http://54.235.29.9/FacialAge/BNav_EC2/DepthDuration/v2_depth_duration_MTurk/v2_DepthDuration_HTML.html#306,306,1280,601,1280,720,9-4-2022,7-31-12,33,depth_duration_stimuli/002344_2014-06-28_20-06-29_260595134347_rgbf000030-resize_1/002344_2014-06-28_20-06-29_260595134347_rgbf000030-resize_1-target.png,125,1.5795,2,2365,125,feet,jsons/VE125_randls_57_rotated.json,489334,593540,38,Man
33,272000,DepthScenes,duration_manipulation_targetAtFixation,jsons/VE125_randls_57_rotated.json,http://54.235.29.9/FacialAge/BNav_EC2/DepthDuration/v2_depth_duration_MTurk/v2_DepthDuration_HTML.html#306,306,1280,601,1280,720,9-4-2022,7-31-12,34,depth_duration_stimuli/002725_2014-06-22_11-47-51_094959634447_rgbf000070-resize_1/002725_2014-06-22_11-47-51_094959634447_rgbf000070-resize_1-target.png,125,2.195,8,2495,109,feet,jsons/VE125_randls_57_rotated.json,489334,593540,38,Man
34,272000,DepthScenes,duration_manipulation_targetAtFixation,jsons/VE125_randls_57_rotated.json,http://54.235.29.9/FacialAge/BNav_EC2/DepthDuration/v2_depth_duration_MTurk/v2_DepthDuration_HTML.html#306,306,1280,601,1280,720,9-4-2022,7-31-12,35,depth_duration_stimuli/000749_2014-06-08_21-55-06_260595134347_rgbf000070-resize_2/000749_2014-06-08_21-55-06_260595134347_rgbf000070-resize_2-target.png,125,2.331,4,3938,125,feet,jsons/VE125_randls_57_rotated.json,489334,593540,38,Man
35,272000,DepthScenes,duration_manipulation_targetAtFixation,jsons/VE125_randls_57_rotated.json,http://54.235.29.9/FacialAge/BNav_EC2/DepthDuration/v2_depth_duration_MTurk/v2_DepthDuration_HTML.html#306,306,1280,601,1280,720,9-4-2022,7-31-12,36,depth_duration_stimuli/002788_2014-06-22_19-36-03_094959634447_rgbf000088-resize_2/002788_2014-06-22_19-36-03_094959634447_rgbf000088-resize_2-target.png,125,1.6465,7,2175,127,feet,jsons/VE125_randls_57_rotated.json,489334,593540,38,Man
36,272000,DepthScenes,duration_manipulation_targetAtFixation,jsons/VE125_randls_57_rotated.json,http://54.235.29.9/FacialAge/BNav_EC2/DepthDuration/v2_depth_duration_MTurk/v2_DepthDuration_HTML.html#306,306,1280,601,1280,720,9-4-2022,7-31-12,37,depth_duration_stimuli/002545_2014-06-24_13-38-53_094959634447_rgbf000080-resize_4/002545_2014-06-24_13-38-53_094959634447_rgbf000080-resize_4-target.png,125,1.9205,5,2064,120,feet,jsons/VE125_randls_57_rotated.json,489334,593540,38,Man
37,272000,DepthScenes,duration_manipulation_targetAtFixation,jsons/VE125_randls_57_rotated.json,http://54.235.29.9/FacialAge/BNav_EC2/DepthDuration/v2_depth_duration_MTurk/v2_DepthDuration_HTML.html#306,306,1280,601,1280,720,9-4-2022,7-31-12,38,depth_duration_stimuli/001092_2014-06-15_17-34-58_260595134347_rgbf000171-resize_3/001092_2014-06-15_17-34-58_260595134347_rgbf000171-resize_3-target.png,125,2.6935,6,2061,127,feet,jsons/VE125_randls_57_rotated.json,489334,593540,38,Man
38,272000,DepthScenes,duration_manipulation_targetAtFixation,jsons/VE125_randls_57_rotated.json,http://54.235.29.9/FacialAge/BNav_EC2/DepthDuration/v2_depth_duration_MTurk/v2_DepthDuration_HTML.html#306,306,1280,601,1280,720,9-4-2022,7-31-12,39,depth_duration_stimuli/002199_2014-06-28_18-33-56_260595134347_rgbf000074-resize_0/002199_2014-06-28_18-33-56_260595134347_rgbf000074-resize_0-target.png,125,1.996,2,1970,120,feet,jsons/VE125_randls_57_rotated.json,489334,593540,38,Man
39,272000,DepthScenes,duration_manipulation_targetAtFixation,jsons/VE125_randls_57_rotated.json,http://54.235.29.9/FacialAge/BNav_EC2/DepthDuration/v2_depth_duration_MTurk/v2_DepthDuration_HTML.html#306,306,1280,601,1280,720,9-4-2022,7-31-12,40,depth_duration_stimuli/001056_2014-06-08_18-46-44_260595134347_rgbf000068-resize_0/001056_2014-06-08_18-46-44_260595134347_rgbf000068-resize_0-target.png,125,2.6625,7,2192,120,feet,jsons/VE125_randls_57_rotated.json,489334,593540,38,Man
40,272000,DepthScenes,duration_manipulation_targetAtFixation,jsons/VE125_randls_57_rotated.json,http://54.235.29.9/FacialAge/BNav_EC2/DepthDuration/v2_depth_duration_MTurk/v2_DepthDuration_HTML.html#306,306,1280,601,1280,720,9-4-2022,7-31-12,41,depth_duration_stimuli/003495_2014-05-21_16-01-51_094959634447_rgbf000100-resize_3/003495_2014-05-21_16-01-51_094959634447_rgbf000100-resize_3-target.png,125,1.6255,3,1973,124,feet,jsons/VE125_randls_57_rotated.json,489334,593540,38,Man
41,272000,DepthScenes,duration_manipulation_targetAtFixation,jsons/VE125_randls_57_rotated.json,http://54.235.29.9/FacialAge/BNav_EC2/DepthDuration/v2_depth_duration_MTurk/v2_DepthDuration_HTML.html#306,306,1280,601,1280,720,9-4-2022,7-31-12,42,depth_duration_stimuli/001244_2014-06-17_16-47-45_260595134347_rgbf000030-resize_4/001244_2014-06-17_16-47-45_260595134347_rgbf000030-resize_4-target.png,125,2.0425,5,1999,124,feet,jsons/VE125_randls_57_rotated.json,489334,593540,38,Man
42,272000,DepthScenes,duration_manipulation_targetAtFixation,jsons/VE125_randls_57_rotated.json,http://54.235.29.9/FacialAge/BNav_EC2/DepthDuration/v2_depth_duration_MTurk/v2_DepthDuration_HTML.html#306,306,1280,601,1280,720,9-4-2022,7-31-12,43,depth_duration_stimuli/000483_2014-06-09_20-41-45_260595134347_rgbf000116-resize_4/000483_2014-06-09_20-41-45_260595134347_rgbf000116-resize_4-target.png,125,1.337,3,2797,123,feet,jsons/VE125_randls_57_rotated.json,489334,593540,38,Man
43,272000,DepthScenes,duration_manipulation_targetAtFixation,jsons/VE125_randls_57_rotated.json,http://54.235.29.9/FacialAge/BNav_EC2/DepthDuration/v2_depth_duration_MTurk/v2_DepthDuration_HTML.html#306,306,1280,601,1280,720,9-4-2022,7-31-12,44,depth_duration_stimuli/000469_2014-06-09_19-42-10_260595134347_rgbf000081-resize_1/000469_2014-06-09_19-42-10_260595134347_rgbf000081-resize_1-target.png,125,1.652,3,1971,132,feet,jsons/VE125_randls_57_rotated.json,489334,593540,38,Man
44,272000,DepthScenes,duration_manipulation_targetAtFixation,jsons/VE125_randls_57_rotated.json,http://54.235.29.9/FacialAge/BNav_EC2/DepthDuration/v2_depth_duration_MTurk/v2_DepthDuration_HTML.html#306,306,1280,601,1280,720,9-4-2022,7-31-12,45,depth_duration_stimuli/002750_2014-06-22_19-08-03_094959634447_rgbf000094-resize_4/002750_2014-06-22_19-08-03_094959634447_rgbf000094-resize_4-target.png,125,2.354,5,2339,124,feet,jsons/VE125_randls_57_rotated.json,489334,593540,38,Man
45,272000,DepthScenes,duration_manipulation_targetAtFixation,jsons/VE125_randls_57_rotated.json,http://54.235.29.9/FacialAge/BNav_EC2/DepthDuration/v2_depth_duration_MTurk/v2_DepthDuration_HTML.html#306,306,1280,601,1280,720,9-4-2022,7-31-12,46,depth_duration_stimuli/002549_2014-06-24_13-41-39_094959634447_rgbf000022-resize_3/002549_2014-06-24_13-41-39_094959634447_rgbf000022-resize_3-target.png,125,1.476,4,3031,126,feet,jsons/VE125_randls_57_rotated.json,489334,593540,38,Man
46,272000,DepthScenes,duration_manipulation_targetAtFixation,jsons/VE125_randls_57_rotated.json,http://54.235.29.9/FacialAge/BNav_EC2/DepthDuration/v2_depth_duration_MTurk/v2_DepthDuration_HTML.html#306,306,1280,601,1280,720,9-4-2022,7-31-12,47,depth_duration_stimuli/002467_2014-06-28_20-38-07_260595134347_rgbf000026-resize_2/002467_2014-06-28_20-38-07_260595134347_rgbf000026-resize_2-target.png,125,4.742,8,2344,119,feet,jsons/VE125_randls_57_rotated.json,489334,593540,38,Man
47,272000,DepthScenes,duration_manipulation_targetAtFixation,jsons/VE125_randls_57_rotated.json,http://54.235.29.9/FacialAge/BNav_EC2/DepthDuration/v2_depth_duration_MTurk/v2_DepthDuration_HTML.html#306,306,1280,601,1280,720,9-4-2022,7-31-12,48,depth_duration_stimuli/002570_2014-06-24_13-59-54_094959634447_rgbf000059-resize_0/002570_2014-06-24_13-59-54_094959634447_rgbf000059-resize_0-target.png,125,4.037,6,2108,135,feet,jsons/VE125_randls_57_rotated.json,489334,593540,38,Man
48,272000,DepthScenes,duration_manipulation_targetAtFixation,jsons/VE125_randls_57_rotated.json,http://54.235.29.9/FacialAge/BNav_EC2/DepthDuration/v2_depth_duration_MTurk/v2_DepthDuration_HTML.html#306,306,1280,601,1280,720,9-4-2022,7-31-12,49,depth_duration_stimuli/001170_2014-06-17_15-43-44_260595134347_rgbf000096-resize_6/001170_2014-06-17_15-43-44_260595134347_rgbf000096-resize-original.jpg,125,1.1909999999999998,0,1933,126,feet,jsons/VE125_randls_57_rotated.json,489334,593540,38,Man
49,272000,DepthScenes,duration_manipulation_targetAtFixation,jsons/VE125_randls_57_rotated.json,http://54.235.29.9/FacialAge/BNav_EC2/DepthDuration/v2_depth_duration_MTurk/v2_DepthDuration_HTML.html#306,306,1280,601,1280,720,9-4-2022,7-31-12,50,depth_duration_stimuli/000780_2014-06-08_22-28-29_260595134347_rgbf000126-resize_1/000780_2014-06-08_22-28-29_260595134347_rgbf000126-resize_1-target.png,125,3.3825,16,2713,140,feet,jsons/VE125_randls_57_rotated.json,489334,593540,38,Man
50,272000,DepthScenes,duration_manipulation_targetAtFixation,jsons/VE125_randls_57_rotated.json,http://54.235.29.9/FacialAge/BNav_EC2/DepthDuration/v2_depth_duration_MTurk/v2_DepthDuration_HTML.html#306,306,1280,601,1280,720,9-4-2022,7-31-12,51,depth_duration_stimuli/002445_2014-06-28_20-32-16_260595134347_rgbf000029-resize_4/002445_2014-06-28_20-32-16_260595134347_rgbf000029-resize_4-target.png,125,2.5315,4,2047,125,feet,jsons/VE125_randls_57_rotated.json,489334,593540,38,Man
51,272000,DepthScenes,duration_manipulation_targetAtFixation,jsons/VE125_randls_57_rotated.json,http://54.235.29.9/FacialAge/BNav_EC2/DepthDuration/v2_depth_duration_MTurk/v2_DepthDuration_HTML.html#306,306,1280,601,1280,720,9-4-2022,7-31-12,52,depth_duration_stimuli/001235_2014-06-17_16-37-36_260595134347_rgbf000084-resize_4/001235_2014-06-17_16-37-36_260595134347_rgbf000084-resize_4-target.png,125,3.6605,4,3855,123,feet,jsons/VE125_randls_57_rotated.json,489334,593540,38,Man
52,272000,DepthScenes,duration_manipulation_targetAtFixation,jsons/VE125_randls_57_rotated.json,http://54.235.29.9/FacialAge/BNav_EC2/DepthDuration/v2_depth_duration_MTurk/v2_DepthDuration_HTML.html#306,306,1280,601,1280,720,9-4-2022,7-31-12,53,depth_duration_stimuli/000788_2014-06-08_22-34-36_260595134347_rgbf000131-resize_1/000788_2014-06-08_22-34-36_260595134347_rgbf000131-resize_1-target.png,125,3.359,6,2337,112,feet,jsons/VE125_randls_57_rotated.json,489334,593540,38,Man
53,272000,DepthScenes,duration_manipulation_targetAtFixation,jsons/VE125_randls_57_rotated.json,http://54.235.29.9/FacialAge/BNav_EC2/DepthDuration/v2_depth_duration_MTurk/v2_DepthDuration_HTML.html#306,306,1280,601,1280,720,9-4-2022,7-31-12,54,depth_duration_stimuli/000943_2014-06-09_19-31-07_260595134347_rgbf000128-resize_1/000943_2014-06-09_19-31-07_260595134347_rgbf000128-resize_1-target.png,125,1.9765,3,2158,125,feet,jsons/VE125_randls_57_rotated.json,489334,593540,38,Man
54,272000,DepthScenes,duration_manipulation_targetAtFixation,jsons/VE125_randls_57_rotated.json,http://54.235.29.9/FacialAge/BNav_EC2/DepthDuration/v2_depth_duration_MTurk/v2_DepthDuration_HTML.html#306,306,1280,601,1280,720,9-4-2022,7-31-12,55,depth_duration_stimuli/003070_2014-06-15_14-58-27_094959634447_rgbf000150-resize_3/003070_2014-06-15_14-58-27_094959634447_rgbf000150-resize_3-target.png,125,2.9415,8,2056,126,feet,jsons/VE125_randls_57_rotated.json,489334,593540,38,Man
55,272000,DepthScenes,duration_manipulation_targetAtFixation,jsons/VE125_randls_57_rotated.json,http://54.235.29.9/FacialAge/BNav_EC2/DepthDuration/v2_depth_duration_MTurk/v2_DepthDuration_HTML.html#306,306,1280,601,1280,720,9-4-2022,7-31-12,56,depth_duration_stimuli/003081_2014-06-15_15-19-16_094959634447_rgbf000150-resize_1/003081_2014-06-15_15-19-16_094959634447_rgbf000150-resize_1-target.png,125,3.9125,9,2099,124,feet,jsons/VE125_randls_57_rotated.json,489334,593540,38,Man
56,272000,DepthScenes,duration_manipulation_targetAtFixation,jsons/VE125_randls_57_rotated.json,http://54.235.29.9/FacialAge/BNav_EC2/DepthDuration/v2_depth_duration_MTurk/v2_DepthDuration_HTML.html#306,306,1280,601,1280,720,9-4-2022,7-31-12,57,depth_duration_stimuli/001417_2014-06-19_16-25-36_260595134347_rgbf000115-resize_5/001417_2014-06-19_16-25-36_260595134347_rgbf000115-resize_5-target.png,125,4.6255,11,2745,124,feet,jsons/VE125_randls_57_rotated.json,489334,593540,38,Man
57,272000,DepthScenes,duration_manipulation_targetAtFixation,jsons/VE125_randls_57_rotated.json,http://54.235.29.9/FacialAge/BNav_EC2/DepthDuration/v2_depth_duration_MTurk/v2_DepthDuration_HTML.html#306,306,1280,601,1280,720,9-4-2022,7-31-12,58,depth_duration_stimuli/002875_2014-06-01_15-19-00_094959634447_rgbf000151-resize_1/002875_2014-06-01_15-19-00_094959634447_rgbf000151-resize_1-target.png,125,1.9675,4,2128,117,feet,jsons/VE125_randls_57_rotated.json,489334,593540,38,Man
58,272000,DepthScenes,duration_manipulation_targetAtFixation,jsons/VE125_randls_57_rotated.json,http://54.235.29.9/FacialAge/BNav_EC2/DepthDuration/v2_depth_duration_MTurk/v2_DepthDuration_HTML.html#306,306,1280,601,1280,720,9-4-2022,7-31-12,59,depth_duration_stimuli/001011_2014-06-08_23-18-54_260595134347_rgbf000044-resize_4/001011_2014-06-08_23-18-54_260595134347_rgbf000044-resize_4-target.png,125,2.4730000000000003,7,2114,126,feet,jsons/VE125_randls_57_rotated.json,489334,593540,38,Man
59,272000,DepthScenes,duration_manipulation_targetAtFixation,jsons/VE125_randls_57_rotated.json,http://54.235.29.9/FacialAge/BNav_EC2/DepthDuration/v2_depth_duration_MTurk/v2_DepthDuration_HTML.html#306,306,1280,601,1280,720,9-4-2022,7-31-12,60,depth_duration_stimuli/003228_2014-05-14_13-42-35_094959634447_rgbf000101-resize_1/003228_2014-05-14_13-42-35_094959634447_rgbf000101-resize_1-target.png,125,1.9680000000000002,3,2082,125,feet,jsons/VE125_randls_57_rotated.json,489334,593540,38,Man
60,272000,DepthScenes,duration_manipulation_targetAtFixation,jsons/VE125_randls_57_rotated.json,http://54.235.29.9/FacialAge/BNav_EC2/DepthDuration/v2_depth_duration_MTurk/v2_DepthDuration_HTML.html#306,306,1280,601,1280,720,9-4-2022,7-31-12,61,depth_duration_stimuli/002600_2014-06-24_14-27-04_094959634447_rgbf000074-resize_2/002600_2014-06-24_14-27-04_094959634447_rgbf000074-resize_2-target.png,125,2.7575,6,1883,128,feet,jsons/VE125_randls_57_rotated.json,489334,593540,38,Man
61,272000,DepthScenes,duration_manipulation_targetAtFixation,jsons/VE125_randls_57_rotated.json,http://54.235.29.9/FacialAge/BNav_EC2/DepthDuration/v2_depth_duration_MTurk/v2_DepthDuration_HTML.html#306,306,1280,601,1280,720,9-4-2022,7-31-12,62,depth_duration_stimuli/002660_2014-06-13_15-44-18_094959634447_rgbf001878-resize_2/002660_2014-06-13_15-44-18_094959634447_rgbf001878-resize_2-target.png,125,3.576,8,2020,130,feet,jsons/VE125_randls_57_rotated.json,489334,593540,38,Man
62,272000,DepthScenes,duration_manipulation_targetAtFixation,jsons/VE125_randls_57_rotated.json,http://54.235.29.9/FacialAge/BNav_EC2/DepthDuration/v2_depth_duration_MTurk/v2_DepthDuration_HTML.html#306,306,1280,601,1280,720,9-4-2022,7-31-12,63,depth_duration_stimuli/002153_2014-06-25_21-27-18_260595134347_rgbf000038-resize_5/002153_2014-06-25_21-27-18_260595134347_rgbf000038-resize_5-target.png,125,2.505,4,2276,125,feet,jsons/VE125_randls_57_rotated.json,489334,593540,38,Man
63,272000,DepthScenes,duration_manipulation_targetAtFixation,jsons/VE125_randls_57_rotated.json,http://54.235.29.9/FacialAge/BNav_EC2/DepthDuration/v2_depth_duration_MTurk/v2_DepthDuration_HTML.html#306,306,1280,601,1280,720,9-4-2022,7-31-12,64,depth_duration_stimuli/002637_2014-06-24_14-51-13_094959634447_rgbf000066-resize_4/002637_2014-06-24_14-51-13_094959634447_rgbf000066-resize_4-target.png,125,1.9955,5,2170,124,feet,jsons/VE125_randls_57_rotated.json,489334,593540,38,Man
64,272000,DepthScenes,duration_manipulation_targetAtFixation,jsons/VE125_randls_57_rotated.json,http://54.235.29.9/FacialAge/BNav_EC2/DepthDuration/v2_depth_duration_MTurk/v2_DepthDuration_HTML.html#306,306,1280,601,1280,720,9-4-2022,7-31-12,65,depth_duration_stimuli/003534_2014-05-22_15-06-10_094959634447_rgbf000102-resize_4/003534_2014-05-22_15-06-10_094959634447_rgbf000102-resize_4-target.png,125,1.426,3,2056,120,feet,jsons/VE125_randls_57_rotated.json,489334,593540,38,Man
65,272000,DepthScenes,duration_manipulation_targetAtFixation,jsons/VE125_randls_57_rotated.json,http://54.235.29.9/FacialAge/BNav_EC2/DepthDuration/v2_depth_duration_MTurk/v2_DepthDuration_HTML.html#306,306,1280,601,1280,720,9-4-2022,7-31-12,66,depth_duration_stimuli/001540_2014-06-20_17-01-05_260595134347_rgbf000086-resize_2/001540_2014-06-20_17-01-05_260595134347_rgbf000086-resize-original.jpg,125,1.459,0,2046,138,feet,jsons/VE125_randls_57_rotated.json,489334,593540,38,Man
66,272000,DepthScenes,duration_manipulation_targetAtFixation,jsons/VE125_randls_57_rotated.json,http://54.235.29.9/FacialAge/BNav_EC2/DepthDuration/v2_depth_duration_MTurk/v2_DepthDuration_HTML.html#306,306,1280,601,1280,720,9-4-2022,7-31-12,67,depth_duration_stimuli/000677_2014-06-08_23-10-32_260595134347_rgbf000158-resize_6/000677_2014-06-08_23-10-32_260595134347_rgbf000158-resize_6-target.png,125,3.556,3,2087,111,feet,jsons/VE125_randls_57_rotated.json,489334,593540,38,Man
67,272000,DepthScenes,duration_manipulation_targetAtFixation,jsons/VE125_randls_57_rotated.json,http://54.235.29.9/FacialAge/BNav_EC2/DepthDuration/v2_depth_duration_MTurk/v2_DepthDuration_HTML.html#306,306,1280,601,1280,720,9-4-2022,7-31-12,68,depth_duration_stimuli/001029_2014-06-08_13-17-57_260595134347_rgbf000065-resize_1/001029_2014-06-08_13-17-57_260595134347_rgbf000065-resize_1-target.png,125,3.0835,3,2043,126,feet,jsons/VE125_randls_57_rotated.json,489334,593540,38,Man
68,272000,DepthScenes,duration_manipulation_targetAtFixation,jsons/VE125_randls_57_rotated.json,http://54.235.29.9/FacialAge/BNav_EC2/DepthDuration/v2_depth_duration_MTurk/v2_DepthDuration_HTML.html#306,306,1280,601,1280,720,9-4-2022,7-31-12,69,depth_duration_stimuli/002340_2014-06-28_20-05-46_260595134347_rgbf000113-resize_0/002340_2014-06-28_20-05-46_260595134347_rgbf000113-resize_0-target.png,125,2.4735,9,2096,121,feet,jsons/VE125_randls_57_rotated.json,489334,593540,38,Man
69,272000,DepthScenes,duration_manipulation_targetAtFixation,jsons/VE125_randls_57_rotated.json,http://54.235.29.9/FacialAge/BNav_EC2/DepthDuration/v2_depth_duration_MTurk/v2_DepthDuration_HTML.html#306,306,1280,601,1280,720,9-4-2022,7-31-12,70,depth_duration_stimuli/001016_2014-06-09_16-16-10_260595134347_rgbf000112-resize_5/001016_2014-06-09_16-16-10_260595134347_rgbf000112-resize_5-target.png,125,1.6565,4,3048,126,feet,jsons/VE125_randls_57_rotated.json,489334,593540,38,Man
70,272000,DepthScenes,duration_manipulation_targetAtFixation,jsons/VE125_randls_57_rotated.json,http://54.235.29.9/FacialAge/BNav_EC2/DepthDuration/v2_depth_duration_MTurk/v2_DepthDuration_HTML.html#306,306,1280,601,1280,720,9-4-2022,7-31-12,71,depth_duration_stimuli/000191_2014-05-12_17-07-38_260595134347_rgbf000199-resize_0/000191_2014-05-12_17-07-38_260595134347_rgbf000199-resize_0-target.png,125,3.7995,8,2238,123,feet,jsons/VE125_randls_57_rotated.json,489334,593540,38,Man
71,272000,DepthScenes,duration_manipulation_targetAtFixation,jsons/VE125_randls_57_rotated.json,http://54.235.29.9/FacialAge/BNav_EC2/DepthDuration/v2_depth_duration_MTurk/v2_DepthDuration_HTML.html#306,306,1280,601,1280,720,9-4-2022,7-31-12,72,depth_duration_stimuli/000493_2014-06-09_21-01-18_260595134347_rgbf000196-resize_3/000493_2014-06-09_21-01-18_260595134347_rgbf000196-resize_3-target.png,125,3.44,5,2203,127,feet,jsons/VE125_randls_57_rotated.json,489334,593540,38,Man
72,272000,DepthScenes,duration_manipulation_targetAtFixation,jsons/VE125_randls_57_rotated.json,http://54.235.29.9/FacialAge/BNav_EC2/DepthDuration/v2_depth_duration_MTurk/v2_DepthDuration_HTML.html#306,306,1280,601,1280,720,9-4-2022,7-31-12,73,depth_duration_stimuli/003423_2014-05-21_10-23-26_094959634447_rgbf002665-resize_2/003423_2014-05-21_10-23-26_094959634447_rgbf002665-resize_2-target.png,125,3.2575,11,2607,137,feet,jsons/VE125_randls_57_rotated.json,489334,593540,38,Man
73,272000,DepthScenes,duration_manipulation_targetAtFixation,jsons/VE125_randls_57_rotated.json,http://54.235.29.9/FacialAge/BNav_EC2/DepthDuration/v2_depth_duration_MTurk/v2_DepthDuration_HTML.html#306,306,1280,601,1280,720,9-4-2022,7-31-12,74,depth_duration_stimuli/002905_2014-06-03_18-04-43_094959634447_rgbf000151-resize_2/002905_2014-06-03_18-04-43_094959634447_rgbf000151-resize_2-target.png,125,2.0295,3,2471,120,feet,jsons/VE125_randls_57_rotated.json,489334,593540,38,Man
74,272000,DepthScenes,duration_manipulation_targetAtFixation,jsons/VE125_randls_57_rotated.json,http://54.235.29.9/FacialAge/BNav_EC2/DepthDuration/v2_depth_duration_MTurk/v2_DepthDuration_HTML.html#306,306,1280,601,1280,720,9-4-2022,7-31-12,75,depth_duration_stimuli/001815_2014-06-26_20-52-55_260595134347_rgbf000020-resize_0/001815_2014-06-26_20-52-55_260595134347_rgbf000020-resize_0-target.png,125,3.3865,9,2062,129,feet,jsons/VE125_randls_57_rotated.json,489334,593540,38,Man
75,272000,DepthScenes,duration_manipulation_targetAtFixation,jsons/VE125_randls_57_rotated.json,http://54.235.29.9/FacialAge/BNav_EC2/DepthDuration/v2_depth_duration_MTurk/v2_DepthDuration_HTML.html#306,306,1280,601,1280,720,9-4-2022,7-31-12,76,depth_duration_stimuli/001808_2014-06-26_20-50-58_260595134347_rgbf000029-resize_1/001808_2014-06-26_20-50-58_260595134347_rgbf000029-resize_1-target.png,125,4.249,8,2066,125,feet,jsons/VE125_randls_57_rotated.json,489334,593540,38,Man
76,272000,DepthScenes,duration_manipulation_targetAtFixation,jsons/VE125_randls_57_rotated.json,http://54.235.29.9/FacialAge/BNav_EC2/DepthDuration/v2_depth_duration_MTurk/v2_DepthDuration_HTML.html#306,306,1280,601,1280,720,9-4-2022,7-31-12,77,depth_duration_stimuli/003490_2014-05-21_15-50-11_094959634447_rgbf000101-resize_3/003490_2014-05-21_15-50-11_094959634447_rgbf000101-resize_3-target.png,125,3.6445,11,2333,109,feet,jsons/VE125_randls_57_rotated.json,489334,593540,38,Man
77,272000,DepthScenes,duration_manipulation_targetAtFixation,jsons/VE125_randls_57_rotated.json,http://54.235.29.9/FacialAge/BNav_EC2/DepthDuration/v2_depth_duration_MTurk/v2_DepthDuration_HTML.html#306,306,1280,601,1280,720,9-4-2022,7-31-12,78,depth_duration_stimuli/001175_2014-06-17_15-45-55_260595134347_rgbf000129-resize_4/001175_2014-06-17_15-45-55_260595134347_rgbf000129-resize_4-target.png,125,4.255,15,2819,112,feet,jsons/VE125_randls_57_rotated.json,489334,593540,38,Man
78,272000,DepthScenes,duration_manipulation_targetAtFixation,jsons/VE125_randls_57_rotated.json,http://54.235.29.9/FacialAge/BNav_EC2/DepthDuration/v2_depth_duration_MTurk/v2_DepthDuration_HTML.html#306,306,1280,601,1280,720,9-4-2022,7-31-12,79,depth_duration_stimuli/000709_2014-06-08_13-51-55_260595134347_rgbf000068-resize_3/000709_2014-06-08_13-51-55_260595134347_rgbf000068-resize_3-target.png,125,1.8030000000000002,6,2108,126,feet,jsons/VE125_randls_57_rotated.json,489334,593540,38,Man
79,272000,DepthScenes,duration_manipulation_targetAtFixation,jsons/VE125_randls_57_rotated.json,http://54.235.29.9/FacialAge/BNav_EC2/DepthDuration/v2_depth_duration_MTurk/v2_DepthDuration_HTML.html#306,306,1280,601,1280,720,9-4-2022,7-31-12,80,depth_duration_stimuli/002057_2014-06-24_21-00-13_260595134347_rgbf000120-resize_1/002057_2014-06-24_21-00-13_260595134347_rgbf000120-resize_1-target.png,125,2.967,11,3861,123,feet,jsons/VE125_randls_57_rotated.json,489334,593540,38,Man
80,272000,DepthScenes,duration_manipulation_targetAtFixation,jsons/VE125_randls_57_rotated.json,http://54.235.29.9/FacialAge/BNav_EC2/DepthDuration/v2_depth_duration_MTurk/v2_DepthDuration_HTML.html#306,306,1280,601,1280,720,9-4-2022,7-31-12,81,depth_duration_stimuli/000457_2014-06-08_16-52-43_260595134347_rgbf000199-resize_1/000457_2014-06-08_16-52-43_260595134347_rgbf000199-resize_1-target.png,125,3.6489999999999996,6,2021,125,feet,jsons/VE125_randls_57_rotated.json,489334,593540,38,Man
81,272000,DepthScenes,duration_manipulation_targetAtFixation,jsons/VE125_randls_57_rotated.json,http://54.235.29.9/FacialAge/BNav_EC2/DepthDuration/v2_depth_duration_MTurk/v2_DepthDuration_HTML.html#306,306,1280,601,1280,720,9-4-2022,7-31-12,82,depth_duration_stimuli/000929_2014-06-09_16-33-19_260595134347_rgbf000139-resize_0/000929_2014-06-09_16-33-19_260595134347_rgbf000139-resize_0-target.png,125,2.8680000000000003,7,1949,121,feet,jsons/VE125_randls_57_rotated.json,489334,593540,38,Man
82,272000,DepthScenes,duration_manipulation_targetAtFixation,jsons/VE125_randls_57_rotated.json,http://54.235.29.9/FacialAge/BNav_EC2/DepthDuration/v2_depth_duration_MTurk/v2_DepthDuration_HTML.html#306,306,1280,601,1280,720,9-4-2022,7-31-12,83,depth_duration_stimuli/003010_2014-06-15_12-54-35_094959634447_rgbf000112-resize_0/003010_2014-06-15_12-54-35_094959634447_rgbf000112-resize_0-target.png,125,3.1185,7,2114,128,feet,jsons/VE125_randls_57_rotated.json,489334,593540,38,Man
83,272000,DepthScenes,duration_manipulation_targetAtFixation,jsons/VE125_randls_57_rotated.json,http://54.235.29.9/FacialAge/BNav_EC2/DepthDuration/v2_depth_duration_MTurk/v2_DepthDuration_HTML.html#306,306,1280,601,1280,720,9-4-2022,7-31-12,84,depth_duration_stimuli/001810_2014-06-26_20-51-35_260595134347_rgbf000040-resize_3/001810_2014-06-26_20-51-35_260595134347_rgbf000040-resize_3-target.png,125,2.2525,4,2003,122,feet,jsons/VE125_randls_57_rotated.json,489334,593540,38,Man
84,272000,DepthScenes,duration_manipulation_targetAtFixation,jsons/VE125_randls_57_rotated.json,http://54.235.29.9/FacialAge/BNav_EC2/DepthDuration/v2_depth_duration_MTurk/v2_DepthDuration_HTML.html#306,306,1280,601,1280,720,9-4-2022,7-31-12,85,depth_duration_stimuli/000927_2014-06-09_16-32-30_260595134347_rgbf000123-resize_3/000927_2014-06-09_16-32-30_260595134347_rgbf000123-resize_3-target.png,125,2.6785,6,2294,126,feet,jsons/VE125_randls_57_rotated.json,489334,593540,38,Man
85,272000,DepthScenes,duration_manipulation_targetAtFixation,jsons/VE125_randls_57_rotated.json,http://54.235.29.9/FacialAge/BNav_EC2/DepthDuration/v2_depth_duration_MTurk/v2_DepthDuration_HTML.html#306,306,1280,601,1280,720,9-4-2022,7-31-12,86,depth_duration_stimuli/001110_2014-06-15_17-25-28_260595134347_rgbf000150-resize_1/001110_2014-06-15_17-25-28_260595134347_rgbf000150-resize_1-target.png,125,1.7115,5,2224,126,feet,jsons/VE125_randls_57_rotated.json,489334,593540,38,Man
86,272000,DepthScenes,duration_manipulation_targetAtFixation,jsons/VE125_randls_57_rotated.json,http://54.235.29.9/FacialAge/BNav_EC2/DepthDuration/v2_depth_duration_MTurk/v2_DepthDuration_HTML.html#306,306,1280,601,1280,720,9-4-2022,7-31-12,87,depth_duration_stimuli/002949_2014-06-26_15-57-42_094959634447_rgbf000079-resize_1/002949_2014-06-26_15-57-42_094959634447_rgbf000079-resize_1-target.png,125,1.8915,4,1995,127,feet,jsons/VE125_randls_57_rotated.json,489334,593540,38,Man
87,272000,DepthScenes,duration_manipulation_targetAtFixation,jsons/VE125_randls_57_rotated.json,http://54.235.29.9/FacialAge/BNav_EC2/DepthDuration/v2_depth_duration_MTurk/v2_DepthDuration_HTML.html#306,306,1280,601,1280,720,9-4-2022,7-31-12,88,depth_duration_stimuli/000522_2014-06-08_13-35-06_260595134347_rgbf000244-resize_1/000522_2014-06-08_13-35-06_260595134347_rgbf000244-resize_1-target.png,125,2.3715,2,2106,126,feet,jsons/VE125_randls_57_rotated.json,489334,593540,38,Man
88,272000,DepthScenes,duration_manipulation_targetAtFixation,jsons/VE125_randls_57_rotated.json,http://54.235.29.9/FacialAge/BNav_EC2/DepthDuration/v2_depth_duration_MTurk/v2_DepthDuration_HTML.html#306,306,1280,601,1280,720,9-4-2022,7-31-12,89,depth_duration_stimuli/001032_2014-06-08_13-23-17_260595134347_rgbf000021-resize_3/001032_2014-06-08_13-23-17_260595134347_rgbf000021-resize_3-target.png,125,3.2725,6,2358,126,feet,jsons/VE125_randls_57_rotated.json,489334,593540,38,Man
89,272000,DepthScenes,duration_manipulation_targetAtFixation,jsons/VE125_randls_57_rotated.json,http://54.235.29.9/FacialAge/BNav_EC2/DepthDuration/v2_depth_duration_MTurk/v2_DepthDuration_HTML.html#306,306,1280,601,1280,720,9-4-2022,7-31-12,90,depth_duration_stimuli/001059_2014-06-08_21-53-27_260595134347_rgbf000061-resize_4/001059_2014-06-08_21-53-27_260595134347_rgbf000061-resize_4-target.png,125,2.4185,3,2048,121,feet,jsons/VE125_randls_57_rotated.json,489334,593540,38,Man
90,272000,DepthScenes,duration_manipulation_targetAtFixation,jsons/VE125_randls_57_rotated.json,http://54.235.29.9/FacialAge/BNav_EC2/DepthDuration/v2_depth_duration_MTurk/v2_DepthDuration_HTML.html#306,306,1280,601,1280,720,9-4-2022,7-31-12,91,depth_duration_stimuli/001650_2014-06-20_12-09-00_260595134347_rgbf000087-resize_3/001650_2014-06-20_12-09-00_260595134347_rgbf000087-resize_3-target.png,125,1.9505,4,2203,112,feet,jsons/VE125_randls_57_rotated.json,489334,593540,38,Man
91,272000,DepthScenes,duration_manipulation_targetAtFixation,jsons/VE125_randls_57_rotated.json,http://54.235.29.9/FacialAge/BNav_EC2/DepthDuration/v2_depth_duration_MTurk/v2_DepthDuration_HTML.html#306,306,1280,601,1280,720,9-4-2022,7-31-12,92,depth_duration_stimuli/000682_2014-06-08_23-14-58_260595134347_rgbf000041-resize_5/000682_2014-06-08_23-14-58_260595134347_rgbf000041-resize_5-target.png,125,2.7239999999999998,4,1998,132,feet,jsons/VE125_randls_57_rotated.json,489334,593540,38,Man
92,272000,DepthScenes,duration_manipulation_targetAtFixation,jsons/VE125_randls_57_rotated.json,http://54.235.29.9/FacialAge/BNav_EC2/DepthDuration/v2_depth_duration_MTurk/v2_DepthDuration_HTML.html#306,306,1280,601,1280,720,9-4-2022,7-31-12,93,depth_duration_stimuli/003338_2014-05-20_11-01-23_094959634447_rgbf000051-resize_6/003338_2014-05-20_11-01-23_094959634447_rgbf000051-resize_6-target.png,125,1.693,5,1951,127,feet,jsons/VE125_randls_57_rotated.json,489334,593540,38,Man
93,272000,DepthScenes,duration_manipulation_targetAtFixation,jsons/VE125_randls_57_rotated.json,http://54.235.29.9/FacialAge/BNav_EC2/DepthDuration/v2_depth_duration_MTurk/v2_DepthDuration_HTML.html#306,306,1280,601,1280,720,9-4-2022,7-31-12,94,depth_duration_stimuli/002509_2014-06-24_13-19-22_094959634447_rgbf000077-resize_0/002509_2014-06-24_13-19-22_094959634447_rgbf000077-resize_0-target.png,125,1.3065,2,2066,134,feet,jsons/VE125_randls_57_rotated.json,489334,593540,38,Man
94,272000,DepthScenes,duration_manipulation_targetAtFixation,jsons/VE125_randls_57_rotated.json,http://54.235.29.9/FacialAge/BNav_EC2/DepthDuration/v2_depth_duration_MTurk/v2_DepthDuration_HTML.html#306,306,1280,601,1280,720,9-4-2022,7-31-12,95,depth_duration_stimuli/001214_2014-06-17_16-13-55_260595134347_rgbf000111-resize_0/001214_2014-06-17_16-13-55_260595134347_rgbf000111-resize_0-target.png,125,2.6505,6,2051,127,feet,jsons/VE125_randls_57_rotated.json,489334,593540,38,Man
95,272000,DepthScenes,duration_manipulation_targetAtFixation,jsons/VE125_randls_57_rotated.json,http://54.235.29.9/FacialAge/BNav_EC2/DepthDuration/v2_depth_duration_MTurk/v2_DepthDuration_HTML.html#306,306,1280,601,1280,720,9-4-2022,7-31-12,96,depth_duration_stimuli/000810_2014-06-08_17-20-01_260595134347_rgbf000105-resize_0/000810_2014-06-08_17-20-01_260595134347_rgbf000105-resize_0-target.png,125,1.4865,5,1911,125,feet,jsons/VE125_randls_57_rotated.json,489334,593540,38,Man
96,272000,DepthScenes,duration_manipulation_targetAtFixation,jsons/VE125_randls_57_rotated.json,http://54.235.29.9/FacialAge/BNav_EC2/DepthDuration/v2_depth_duration_MTurk/v2_DepthDuration_HTML.html#306,306,1280,601,1280,720,9-4-2022,7-31-12,97,depth_duration_stimuli/000502_2014-06-08_23-02-32_260595134347_rgbf000063-resize_4/000502_2014-06-08_23-02-32_260595134347_rgbf000063-resize_4-target.png,125,2.431,3,2061,126,feet,jsons/VE125_randls_57_rotated.json,489334,593540,38,Man
97,272000,DepthScenes,duration_manipulation_targetAtFixation,jsons/VE125_randls_57_rotated.json,http://54.235.29.9/FacialAge/BNav_EC2/DepthDuration/v2_depth_duration_MTurk/v2_DepthDuration_HTML.html#306,306,1280,601,1280,720,9-4-2022,7-31-12,98,depth_duration_stimuli/001199_2014-06-17_16-03-48_260595134347_rgbf000077-resize_0/001199_2014-06-17_16-03-48_260595134347_rgbf000077-resize_0-target.png,125,3.4375,11,4319,125,feet,jsons/VE125_randls_57_rotated.json,489334,593540,38,Man
98,272000,DepthScenes,duration_manipulation_targetAtFixation,jsons/VE125_randls_57_rotated.json,http://54.235.29.9/FacialAge/BNav_EC2/DepthDuration/v2_depth_duration_MTurk/v2_DepthDuration_HTML.html#306,306,1280,601,1280,720,9-4-2022,7-31-12,99,depth_duration_stimuli/001222_2014-06-17_16-24-06_260595134347_rgbf000073-resize_0/001222_2014-06-17_16-24-06_260595134347_rgbf000073-resize-original.jpg,125,1.4385,0,2333,127,feet,jsons/VE125_randls_57_rotated.json,489334,593540,38,Man
99,272000,DepthScenes,duration_manipulation_targetAtFixation,jsons/VE125_randls_57_rotated.json,http://54.235.29.9/FacialAge/BNav_EC2/DepthDuration/v2_depth_duration_MTurk/v2_DepthDuration_HTML.html#306,306,1280,601,1280,720,9-4-2022,7-31-12,100,depth_duration_stimuli/003083_2014-06-15_15-21-03_094959634447_rgbf000063-resize_1/003083_2014-06-15_15-21-03_094959634447_rgbf000063-resize_1-target.png,125,4.1405,12,2993,122,feet,jsons/VE125_randls_57_rotated.json,489334,593540,38,Man
100,272000,DepthScenes,duration_manipulation_targetAtFixation,jsons/VE125_randls_57_rotated.json,http://54.235.29.9/FacialAge/BNav_EC2/DepthDuration/v2_depth_duration_MTurk/v2_DepthDuration_HTML.html#306,306,1280,601,1280,720,9-4-2022,7-31-12,101,depth_duration_stimuli/000486_2014-06-09_20-47-20_260595134347_rgbf000143-resize_2/000486_2014-06-09_20-47-20_260595134347_rgbf000143-resize_2-target.png,125,4.8325,8,2134,124,feet,jsons/VE125_randls_57_rotated.json,489334,593540,38,Man
101,272000,DepthScenes,duration_manipulation_targetAtFixation,jsons/VE125_randls_57_rotated.json,http://54.235.29.9/FacialAge/BNav_EC2/DepthDuration/v2_depth_duration_MTurk/v2_DepthDuration_HTML.html#306,306,1280,601,1280,720,9-4-2022,7-31-12,102,depth_duration_stimuli/002568_2014-06-24_13-59-21_094959634447_rgbf000062-resize_4/002568_2014-06-24_13-59-21_094959634447_rgbf000062-resize_4-target.png,125,3.015,9,2146,132,feet,jsons/VE125_randls_57_rotated.json,489334,593540,38,Man
102,272000,DepthScenes,duration_manipulation_targetAtFixation,jsons/VE125_randls_57_rotated.json,http://54.235.29.9/FacialAge/BNav_EC2/DepthDuration/v2_depth_duration_MTurk/v2_DepthDuration_HTML.html#306,306,1280,601,1280,720,9-4-2022,7-31-12,103,depth_duration_stimuli/003492_2014-05-21_15-50-55_094959634447_rgbf000828-resize_1/003492_2014-05-21_15-50-55_094959634447_rgbf000828-resize_1-target.png,125,4.06875,8,2052,131,feet,jsons/VE125_randls_57_rotated.json,489334,593540,38,Man
103,272000,DepthScenes,duration_manipulation_targetAtFixation,jsons/VE125_randls_57_rotated.json,http://54.235.29.9/FacialAge/BNav_EC2/DepthDuration/v2_depth_duration_MTurk/v2_DepthDuration_HTML.html#306,306,1280,601,1280,720,9-4-2022,7-31-12,104,depth_duration_stimuli/003129_2014-05-12_10-48-10_094959634447_rgbf000100-resize_0/003129_2014-05-12_10-48-10_094959634447_rgbf000100-resize_0-target.png,125,4.9305,9,2031,126,feet,jsons/VE125_randls_57_rotated.json,489334,593540,38,Man
104,272000,DepthScenes,duration_manipulation_targetAtFixation,jsons/VE125_randls_57_rotated.json,http://54.235.29.9/FacialAge/BNav_EC2/DepthDuration/v2_depth_duration_MTurk/v2_DepthDuration_HTML.html#306,306,1280,601,1280,720,9-4-2022,7-31-12,105,depth_duration_stimuli/000414_2014-06-04_19-49-13_260595134347_rgbf000044-resize_0/000414_2014-06-04_19-49-13_260595134347_rgbf000044-resize_0-target.png,125,4.329,11,2234,118,feet,jsons/VE125_randls_57_rotated.json,489334,593540,38,Man
105,272000,DepthScenes,duration_manipulation_targetAtFixation,jsons/VE125_randls_57_rotated.json,http://54.235.29.9/FacialAge/BNav_EC2/DepthDuration/v2_depth_duration_MTurk/v2_DepthDuration_HTML.html#306,306,1280,601,1280,720,9-4-2022,7-31-12,106,depth_duration_stimuli/002995_2014-06-15_12-31-26_094959634447_rgbf000150-resize_1/002995_2014-06-15_12-31-26_094959634447_rgbf000150-resize_1-target.png,125,3.8360000000000003,11,2144,125,feet,jsons/VE125_randls_57_rotated.json,489334,593540,38,Man
106,272000,DepthScenes,duration_manipulation_targetAtFixation,jsons/VE125_randls_57_rotated.json,http://54.235.29.9/FacialAge/BNav_EC2/DepthDuration/v2_depth_duration_MTurk/v2_DepthDuration_HTML.html#306,306,1280,601,1280,720,9-4-2022,7-31-12,107,depth_duration_stimuli/002748_2014-06-22_19-07-22_094959634447_rgbf000078-resize_1/002748_2014-06-22_19-07-22_094959634447_rgbf000078-resize_1-target.png,125,4.6705,12,5337,125,feet,jsons/VE125_randls_57_rotated.json,489334,593540,38,Man
107,272000,DepthScenes,duration_manipulation_targetAtFixation,jsons/VE125_randls_57_rotated.json,http://54.235.29.9/FacialAge/BNav_EC2/DepthDuration/v2_depth_duration_MTurk/v2_DepthDuration_HTML.html#306,306,1280,601,1280,720,9-4-2022,7-31-12,108,depth_duration_stimuli/000103_2014-05-14_22-01-17_260595134347_rgbf000152-resize_5/000103_2014-05-14_22-01-17_260595134347_rgbf000152-resize_5-target.png,125,1.993,7,2716,127,feet,jsons/VE125_randls_57_rotated.json,489334,593540,38,Man
108,272000,DepthScenes,duration_manipulation_targetAtFixation,jsons/VE125_randls_57_rotated.json,http://54.235.29.9/FacialAge/BNav_EC2/DepthDuration/v2_depth_duration_MTurk/v2_DepthDuration_HTML.html#306,306,1280,601,1280,720,9-4-2022,7-31-12,109,depth_duration_stimuli/001555_2014-06-20_17-12-10_260595134347_rgbf000065-resize_4/001555_2014-06-20_17-12-10_260595134347_rgbf000065-resize_4-target.png,125,1.633,2,2209,140,feet,jsons/VE125_randls_57_rotated.json,489334,593540,38,Man
109,272000,DepthScenes,duration_manipulation_targetAtFixation,jsons/VE125_randls_57_rotated.json,http://54.235.29.9/FacialAge/BNav_EC2/DepthDuration/v2_depth_duration_MTurk/v2_DepthDuration_HTML.html#306,306,1280,601,1280,720,9-4-2022,7-31-12,110,depth_duration_stimuli/002678_2014-06-13_16-15-32_094959634447_rgbf000151-resize_6/002678_2014-06-13_16-15-32_094959634447_rgbf000151-resize_6-target.png,125,2.1830000000000003,8,2112,125,feet,jsons/VE125_randls_57_rotated.json,489334,593540,38,Man
110,272000,DepthScenes,duration_manipulation_targetAtFixation,jsons/VE125_randls_57_rotated.json,http://54.235.29.9/FacialAge/BNav_EC2/DepthDuration/v2_depth_duration_MTurk/v2_DepthDuration_HTML.html#306,306,1280,601,1280,720,9-4-2022,7-31-12,111,depth_duration_stimuli/000368_2014-06-09_15-53-01_260595134347_rgbf000155-resize_2/000368_2014-06-09_15-53-01_260595134347_rgbf000155-resize_2-target.png,125,2.4859999999999998,5,2120,126,feet,jsons/VE125_randls_57_rotated.json,489334,593540,38,Man
111,272000,DepthScenes,duration_manipulation_targetAtFixation,jsons/VE125_randls_57_rotated.json,http://54.235.29.9/FacialAge/BNav_EC2/DepthDuration/v2_depth_duration_MTurk/v2_DepthDuration_HTML.html#306,306,1280,601,1280,720,9-4-2022,7-31-12,112,depth_duration_stimuli/000635_2014-06-08_16-38-42_260595134347_rgbf000106-resize_1/000635_2014-06-08_16-38-42_260595134347_rgbf000106-resize_1-target.png,125,2.074,7,2111,124,feet,jsons/VE125_randls_57_rotated.json,489334,593540,38,Man
112,272000,DepthScenes,duration_manipulation_targetAtFixation,jsons/VE125_randls_57_rotated.json,http://54.235.29.9/FacialAge/BNav_EC2/DepthDuration/v2_depth_duration_MTurk/v2_DepthDuration_HTML.html#306,306,1280,601,1280,720,9-4-2022,7-31-12,113,depth_duration_stimuli/002279_2014-06-28_18-55-32_260595134347_rgbf000040-resize_5/002279_2014-06-28_18-55-32_260595134347_rgbf000040-resize_5-target.png,125,1.5043333333333,3,2387,121,feet,jsons/VE125_randls_57_rotated.json,489334,593540,38,Man
113,272000,DepthScenes,duration_manipulation_targetAtFixation,jsons/VE125_randls_57_rotated.json,http://54.235.29.9/FacialAge/BNav_EC2/DepthDuration/v2_depth_duration_MTurk/v2_DepthDuration_HTML.html#306,306,1280,601,1280,720,9-4-2022,7-31-12,114,depth_duration_stimuli/000549_2014-06-08_22-10-24_260595134347_rgbf000247-resize_3/000549_2014-06-08_22-10-24_260595134347_rgbf000247-resize_3-target.png,125,1.841,2,2172,114,feet,jsons/VE125_randls_57_rotated.json,489334,593540,38,Man
114,272000,DepthScenes,duration_manipulation_targetAtFixation,jsons/VE125_randls_57_rotated.json,http://54.235.29.9/FacialAge/BNav_EC2/DepthDuration/v2_depth_duration_MTurk/v2_DepthDuration_HTML.html#306,306,1280,601,1280,720,9-4-2022,7-31-12,115,depth_duration_stimuli/001055_2014-06-08_18-45-35_260595134347_rgbf000111-resize_4/001055_2014-06-08_18-45-35_260595134347_rgbf000111-resize_4-target.png,125,2.4290000000000003,9,1988,148,feet,jsons/VE125_randls_57_rotated.json,489334,593540,38,Man
115,272000,DepthScenes,duration_manipulation_targetAtFixation,jsons/VE125_randls_57_rotated.json,http://54.235.29.9/FacialAge/BNav_EC2/DepthDuration/v2_depth_duration_MTurk/v2_DepthDuration_HTML.html#306,306,1280,601,1280,720,9-4-2022,7-31-12,116,depth_duration_stimuli/002953_2014-06-08_17-32-18_094959634447_rgbf000059-resize_5/002953_2014-06-08_17-32-18_094959634447_rgbf000059-resize_5-target.png,125,1.551,6,2102,139,feet,jsons/VE125_randls_57_rotated.json,489334,593540,38,Man
116,272000,DepthScenes,duration_manipulation_targetAtFixation,jsons/VE125_randls_57_rotated.json,http://54.235.29.9/FacialAge/BNav_EC2/DepthDuration/v2_depth_duration_MTurk/v2_DepthDuration_HTML.html#306,306,1280,601,1280,720,9-4-2022,7-31-12,117,depth_duration_stimuli/000878_2014-06-08_22-52-45_260595134347_rgbf000045-resize_2/000878_2014-06-08_22-52-45_260595134347_rgbf000045-resize_2-target.png,125,2.092,11,2728,122,feet,jsons/VE125_randls_57_rotated.json,489334,593540,38,Man
117,272000,DepthScenes,duration_manipulation_targetAtFixation,jsons/VE125_randls_57_rotated.json,http://54.235.29.9/FacialAge/BNav_EC2/DepthDuration/v2_depth_duration_MTurk/v2_DepthDuration_HTML.html#306,306,1280,601,1280,720,9-4-2022,7-31-12,118,depth_duration_stimuli/000734_2014-06-08_17-39-11_260595134347_rgbf000128-resize_2/000734_2014-06-08_17-39-11_260595134347_rgbf000128-resize_2-target.png,125,4.098,9,2090,126,feet,jsons/VE125_randls_57_rotated.json,489334,593540,38,Man
118,272000,DepthScenes,duration_manipulation_targetAtFixation,jsons/VE125_randls_57_rotated.json,http://54.235.29.9/FacialAge/BNav_EC2/DepthDuration/v2_depth_duration_MTurk/v2_DepthDuration_HTML.html#306,306,1280,601,1280,720,9-4-2022,7-31-12,119,depth_duration_stimuli/000739_2014-06-08_18-45-58_260595134347_rgbf000068-resize_1/000739_2014-06-08_18-45-58_260595134347_rgbf000068-resize_1-target.png,125,3.534,8,2551,125,feet,jsons/VE125_randls_57_rotated.json,489334,593540,38,Man
119,272000,DepthScenes,duration_manipulation_targetAtFixation,jsons/VE125_randls_57_rotated.json,http://54.235.29.9/FacialAge/BNav_EC2/DepthDuration/v2_depth_duration_MTurk/v2_DepthDuration_HTML.html#306,306,1280,601,1280,720,9-4-2022,7-31-12,120,depth_duration_stimuli/000787_2014-06-08_22-33-53_260595134347_rgbf000175-resize_1/000787_2014-06-08_22-33-53_260595134347_rgbf000175-resize-original.jpg,125,4.784,0,1765,136,feet,jsons/VE125_randls_57_rotated.json,489334,593540,38,Man
120,272000,DepthScenes,duration_manipulation_targetAtFixation,jsons/VE125_randls_57_rotated.json,http://54.235.29.9/FacialAge/BNav_EC2/DepthDuration/v2_depth_duration_MTurk/v2_DepthDuration_HTML.html#306,306,1280,601,1280,720,9-4-2022,7-31-12,121,depth_duration_stimuli/002103_2014-06-25_20-00-40_260595134347_rgbf000049-resize_0/002103_2014-06-25_20-00-40_260595134347_rgbf000049-resize_0-target.png,125,4.105,5,2061,125,feet,jsons/VE125_randls_57_rotated.json,489334,593540,38,Man
121,272000,DepthScenes,duration_manipulation_targetAtFixation,jsons/VE125_randls_57_rotated.json,http://54.235.29.9/FacialAge/BNav_EC2/DepthDuration/v2_depth_duration_MTurk/v2_DepthDuration_HTML.html#306,306,1280,601,1280,720,9-4-2022,7-31-12,122,depth_duration_stimuli/002039_2014-06-24_20-22-38_260595134347_rgbf000084-resize_1/002039_2014-06-24_20-22-38_260595134347_rgbf000084-resize_1-target.png,125,4.408,8,2577,125,feet,jsons/VE125_randls_57_rotated.json,489334,593540,38,Man
122,272000,DepthScenes,duration_manipulation_targetAtFixation,jsons/VE125_randls_57_rotated.json,http://54.235.29.9/FacialAge/BNav_EC2/DepthDuration/v2_depth_duration_MTurk/v2_DepthDuration_HTML.html#306,306,1280,601,1280,720,9-4-2022,7-31-12,123,depth_duration_stimuli/002444_2014-06-28_20-32-08_260595134347_rgbf000027-resize_0/002444_2014-06-28_20-32-08_260595134347_rgbf000027-resize_0-target.png,125,4.388999999999999,12,2365,120,feet,jsons/VE125_randls_57_rotated.json,489334,593540,38,Man
123,272000,DepthScenes,duration_manipulation_targetAtFixation,jsons/VE125_randls_57_rotated.json,http://54.235.29.9/FacialAge/BNav_EC2/DepthDuration/v2_depth_duration_MTurk/v2_DepthDuration_HTML.html#306,306,1280,601,1280,720,9-4-2022,7-31-12,124,depth_duration_stimuli/000436_2014-06-09_22-25-11_260595134347_rgbf000137-resize_1/000436_2014-06-09_22-25-11_260595134347_rgbf000137-resize_1-target.png,125,4.0705,11,2202,125,feet,jsons/VE125_randls_57_rotated.json,489334,593540,38,Man
124,272000,DepthScenes,duration_manipulation_targetAtFixation,jsons/VE125_randls_57_rotated.json,http://54.235.29.9/FacialAge/BNav_EC2/DepthDuration/v2_depth_duration_MTurk/v2_DepthDuration_HTML.html#306,306,1280,601,1280,720,9-4-2022,7-31-12,125,depth_duration_stimuli/002758_2014-06-22_19-11-20_094959634447_rgbf000128-resize_1/002758_2014-06-22_19-11-20_094959634447_rgbf000128-resize_1-target.png,125,2.555,5,2040,132,feet,jsons/VE125_randls_57_rotated.json,489334,593540,38,Man
125,272000,DepthScenes,duration_manipulation_targetAtFixation,jsons/VE125_randls_57_rotated.json,http://54.235.29.9/FacialAge/BNav_EC2/DepthDuration/v2_depth_duration_MTurk/v2_DepthDuration_HTML.html#306,306,1280,601,1280,720,9-4-2022,7-31-12,126,depth_duration_stimuli/002630_2014-06-24_14-47-50_094959634447_rgbf000055-resize_1/002630_2014-06-24_14-47-50_094959634447_rgbf000055-resize_1-target.png,125,3.0095,8,2261,135,feet,jsons/VE125_randls_57_rotated.json,489334,593540,38,Man
126,272000,DepthScenes,duration_manipulation_targetAtFixation,jsons/VE125_randls_57_rotated.json,http://54.235.29.9/FacialAge/BNav_EC2/DepthDuration/v2_depth_duration_MTurk/v2_DepthDuration_HTML.html#306,306,1280,601,1280,720,9-4-2022,7-31-12,127,depth_duration_stimuli/000409_2014-06-04_19-23-33_260595134347_rgbf000067-resize_0/000409_2014-06-04_19-23-33_260595134347_rgbf000067-resize_0-target.png,125,3.7335,7,2646,126,feet,jsons/VE125_randls_57_rotated.json,489334,593540,38,Man
127,272000,DepthScenes,duration_manipulation_targetAtFixation,jsons/VE125_randls_57_rotated.json,http://54.235.29.9/FacialAge/BNav_EC2/DepthDuration/v2_depth_duration_MTurk/v2_DepthDuration_HTML.html#306,306,1280,601,1280,720,9-4-2022,7-31-12,128,depth_duration_stimuli/002663_2014-06-13_15-50-26_094959634447_rgbf000075-resize_1/002663_2014-06-13_15-50-26_094959634447_rgbf000075-resize_1-target.png,125,4.7495,7,2018,124,feet,jsons/VE125_randls_57_rotated.json,489334,593540,38,Man
128,272000,DepthScenes,duration_manipulation_targetAtFixation,jsons/VE125_randls_57_rotated.json,http://54.235.29.9/FacialAge/BNav_EC2/DepthDuration/v2_depth_duration_MTurk/v2_DepthDuration_HTML.html#306,306,1280,601,1280,720,9-4-2022,7-31-12,129,depth_duration_stimuli/000109_2014-05-14_23-41-52_260595134347_rgbf000035-resize_9/000109_2014-05-14_23-41-52_260595134347_rgbf000035-resize_9-target.png,125,1.3545,4,2117,116,feet,jsons/VE125_randls_57_rotated.json,489334,593540,38,Man
129,272000,DepthScenes,duration_manipulation_targetAtFixation,jsons/VE125_randls_57_rotated.json,http://54.235.29.9/FacialAge/BNav_EC2/DepthDuration/v2_depth_duration_MTurk/v2_DepthDuration_HTML.html#306,306,1280,601,1280,720,9-4-2022,7-31-12,130,depth_duration_stimuli/000470_2014-06-09_19-42-40_260595134347_rgbf000094-resize_1/000470_2014-06-09_19-42-40_260595134347_rgbf000094-resize_1-target.png,125,1.831,3,2294,125,feet,jsons/VE125_randls_57_rotated.json,489334,593540,38,Man
130,272000,DepthScenes,duration_manipulation_targetAtFixation,jsons/VE125_randls_57_rotated.json,http://54.235.29.9/FacialAge/BNav_EC2/DepthDuration/v2_depth_duration_MTurk/v2_DepthDuration_HTML.html#306,306,1280,601,1280,720,9-4-2022,7-31-12,131,depth_duration_stimuli/002657_2014-06-13_15-29-54_094959634447_rgbf000150-resize_1/002657_2014-06-13_15-29-54_094959634447_rgbf000150-resize_1-target.png,125,4.919,7,2280,116,feet,jsons/VE125_randls_57_rotated.json,489334,593540,38,Man
131,272000,DepthScenes,duration_manipulation_targetAtFixation,jsons/VE125_randls_57_rotated.json,http://54.235.29.9/FacialAge/BNav_EC2/DepthDuration/v2_depth_duration_MTurk/v2_DepthDuration_HTML.html#306,306,1280,601,1280,720,9-4-2022,7-31-12,132,depth_duration_stimuli/002375_2014-06-28_20-13-44_260595134347_rgbf000032-resize_1/002375_2014-06-28_20-13-44_260595134347_rgbf000032-resize_1-target.png,125,4.0175,5,2441,123,feet,jsons/VE125_randls_57_rotated.json,489334,593540,38,Man
132,272000,DepthScenes,duration_manipulation_targetAtFixation,jsons/VE125_randls_57_rotated.json,http://54.235.29.9/FacialAge/BNav_EC2/DepthDuration/v2_depth_duration_MTurk/v2_DepthDuration_HTML.html#306,306,1280,601,1280,720,9-4-2022,7-31-12,133,depth_duration_stimuli/000556_2014-06-09_22-42-56_260595134347_rgbf000214-resize_1/000556_2014-06-09_22-42-56_260595134347_rgbf000214-resize_1-target.png,125,4.8415,13,2599,120,feet,jsons/VE125_randls_57_rotated.json,489334,593540,38,Man
133,272000,DepthScenes,duration_manipulation_targetAtFixation,jsons/VE125_randls_57_rotated.json,http://54.235.29.9/FacialAge/BNav_EC2/DepthDuration/v2_depth_duration_MTurk/v2_DepthDuration_HTML.html#306,306,1280,601,1280,720,9-4-2022,7-31-12,134,depth_duration_stimuli/001158_2014-06-17_15-32-16_260595134347_rgbf000138-resize_2/001158_2014-06-17_15-32-16_260595134347_rgbf000138-resize_2-target.png,125,4.5315,11,2214,126,feet,jsons/VE125_randls_57_rotated.json,489334,593540,38,Man
134,272000,DepthScenes,duration_manipulation_targetAtFixation,jsons/VE125_randls_57_rotated.json,http://54.235.29.9/FacialAge/BNav_EC2/DepthDuration/v2_depth_duration_MTurk/v2_DepthDuration_HTML.html#306,306,1280,601,1280,720,9-4-2022,7-31-12,135,depth_duration_stimuli/000375_2014-06-08_11-17-29_260595134347_rgbf000133-resize_2/000375_2014-06-08_11-17-29_260595134347_rgbf000133-resize-original.jpg,125,4.718,0,1999,122,feet,jsons/VE125_randls_57_rotated.json,489334,593540,38,Man
135,272000,DepthScenes,duration_manipulation_targetAtFixation,jsons/VE125_randls_57_rotated.json,http://54.235.29.9/FacialAge/BNav_EC2/DepthDuration/v2_depth_duration_MTurk/v2_DepthDuration_HTML.html#306,306,1280,601,1280,720,9-4-2022,7-31-12,136,depth_duration_stimuli/002414_2014-06-28_20-24-58_260595134347_rgbf000067-resize_4/002414_2014-06-28_20-24-58_260595134347_rgbf000067-resize_4-target.png,125,4.363,7,2197,130,feet,jsons/VE125_randls_57_rotated.json,489334,593540,38,Man
136,272000,DepthScenes,duration_manipulation_targetAtFixation,jsons/VE125_randls_57_rotated.json,http://54.235.29.9/FacialAge/BNav_EC2/DepthDuration/v2_depth_duration_MTurk/v2_DepthDuration_HTML.html#306,306,1280,601,1280,720,9-4-2022,7-31-12,137,depth_duration_stimuli/000773_2014-06-08_22-24-54_260595134347_rgbf000093-resize_1/000773_2014-06-08_22-24-54_260595134347_rgbf000093-resize_1-target.png,125,4.973,8,2601,123,feet,jsons/VE125_randls_57_rotated.json,489334,593540,38,Man
137,272000,DepthScenes,duration_manipulation_targetAtFixation,jsons/VE125_randls_57_rotated.json,http://54.235.29.9/FacialAge/BNav_EC2/DepthDuration/v2_depth_duration_MTurk/v2_DepthDuration_HTML.html#306,306,1280,601,1280,720,9-4-2022,7-31-12,138,depth_duration_stimuli/001571_2014-06-20_17-21-32_260595134347_rgbf000089-resize_1/001571_2014-06-20_17-21-32_260595134347_rgbf000089-resize_1-target.png,125,1.86,6,3036,137,feet,jsons/VE125_randls_57_rotated.json,489334,593540,38,Man
138,272000,DepthScenes,duration_manipulation_targetAtFixation,jsons/VE125_randls_57_rotated.json,http://54.235.29.9/FacialAge/BNav_EC2/DepthDuration/v2_depth_duration_MTurk/v2_DepthDuration_HTML.html#306,306,1280,601,1280,720,9-4-2022,7-31-12,139,depth_duration_stimuli/002272_2014-06-28_18-53-56_260595134347_rgbf000067-resize_2/002272_2014-06-28_18-53-56_260595134347_rgbf000067-resize_2-target.png,125,1.138,2,2070,131,feet,jsons/VE125_randls_57_rotated.json,489334,593540,38,Man
139,272000,DepthScenes,duration_manipulation_targetAtFixation,jsons/VE125_randls_57_rotated.json,http://54.235.29.9/FacialAge/BNav_EC2/DepthDuration/v2_depth_duration_MTurk/v2_DepthDuration_HTML.html#306,306,1280,601,1280,720,9-4-2022,7-31-12,140,depth_duration_stimuli/001828_2014-06-26_21-40-03_260595134347_rgbf000024-resize_0/001828_2014-06-26_21-40-03_260595134347_rgbf000024-resize_0-target.png,125,4.8260000000000005,9,2096,138,feet,jsons/VE125_randls_57_rotated.json,489334,593540,38,Man
140,272000,DepthScenes,duration_manipulation_targetAtFixation,jsons/VE125_randls_57_rotated.json,http://54.235.29.9/FacialAge/BNav_EC2/DepthDuration/v2_depth_duration_MTurk/v2_DepthDuration_HTML.html#306,306,1280,601,1280,720,9-4-2022,7-31-12,141,depth_duration_stimuli/000009_2014-05-26_14-32-05_260595134347_rgbf000034-resize_3/000009_2014-05-26_14-32-05_260595134347_rgbf000034-resize_3-target.png,125,3.8715,12,2511,123,feet,jsons/VE125_randls_57_rotated.json,489334,593540,38,Man
141,272000,DepthScenes,duration_manipulation_targetAtFixation,jsons/VE125_randls_57_rotated.json,http://54.235.29.9/FacialAge/BNav_EC2/DepthDuration/v2_depth_duration_MTurk/v2_DepthDuration_HTML.html#306,306,1280,601,1280,720,9-4-2022,7-31-12,142,depth_duration_stimuli/001617_2014-06-20_11-35-32_260595134347_rgbf000066-resize_1/001617_2014-06-20_11-35-32_260595134347_rgbf000066-resize_1-target.png,125,3.7910000000000004,13,2452,111,feet,jsons/VE125_randls_57_rotated.json,489334,593540,38,Man
142,272000,DepthScenes,duration_manipulation_targetAtFixation,jsons/VE125_randls_57_rotated.json,http://54.235.29.9/FacialAge/BNav_EC2/DepthDuration/v2_depth_duration_MTurk/v2_DepthDuration_HTML.html#306,306,1280,601,1280,720,9-4-2022,7-31-12,143,depth_duration_stimuli/001806_2014-06-26_20-50-20_260595134347_rgbf000091-resize_1/001806_2014-06-26_20-50-20_260595134347_rgbf000091-resize_1-target.png,125,2.7305,4,3278,110,feet,jsons/VE125_randls_57_rotated.json,489334,593540,38,Man
143,272000,DepthScenes,duration_manipulation_targetAtFixation,jsons/VE125_randls_57_rotated.json,http://54.235.29.9/FacialAge/BNav_EC2/DepthDuration/v2_depth_duration_MTurk/v2_DepthDuration_HTML.html#306,306,1280,601,1280,720,9-4-2022,7-31-12,144,depth_duration_stimuli/002805_2014-06-22_19-54-03_094959634447_rgbf000079-resize_1/002805_2014-06-22_19-54-03_094959634447_rgbf000079-resize_1-target.png,125,3.1439999999999997,11,2257,125,feet,jsons/VE125_randls_57_rotated.json,489334,593540,38,Man
144,272000,DepthScenes,duration_manipulation_targetAtFixation,jsons/VE125_randls_57_rotated.json,http://54.235.29.9/FacialAge/BNav_EC2/DepthDuration/v2_depth_duration_MTurk/v2_DepthDuration_HTML.html#306,306,1280,601,1280,720,9-4-2022,7-31-12,145,depth_duration_stimuli/000906_2014-06-08_13-35-43_260595134347_rgbf000155-resize_1/000906_2014-06-08_13-35-43_260595134347_rgbf000155-resize_1-target.png,125,2.8489999999999998,13,2253,123,feet,jsons/VE125_randls_57_rotated.json,489334,593540,38,Man
145,272000,DepthScenes,duration_manipulation_targetAtFixation,jsons/VE125_randls_57_rotated.json,http://54.235.29.9/FacialAge/BNav_EC2/DepthDuration/v2_depth_duration_MTurk/v2_DepthDuration_HTML.html#306,306,1280,601,1280,720,9-4-2022,7-31-12,146,depth_duration_stimuli/001100_2014-06-15_17-46-26_260595134347_rgbf000225-resize_2/001100_2014-06-15_17-46-26_260595134347_rgbf000225-resize_2-target.png,125,2.24,2,1839,130,feet,jsons/VE125_randls_57_rotated.json,489334,593540,38,Man
146,272000,DepthScenes,duration_manipulation_targetAtFixation,jsons/VE125_randls_57_rotated.json,http://54.235.29.9/FacialAge/BNav_EC2/DepthDuration/v2_depth_duration_MTurk/v2_DepthDuration_HTML.html#306,306,1280,601,1280,720,9-4-2022,7-31-12,147,depth_duration_stimuli/002784_2014-06-22_19-26-30_094959634447_rgbf000083-resize_3/002784_2014-06-22_19-26-30_094959634447_rgbf000083-resize_3-target.png,125,1.8046666666667,2,2152,126,feet,jsons/VE125_randls_57_rotated.json,489334,593540,38,Man
147,272000,DepthScenes,duration_manipulation_targetAtFixation,jsons/VE125_randls_57_rotated.json,http://54.235.29.9/FacialAge/BNav_EC2/DepthDuration/v2_depth_duration_MTurk/v2_DepthDuration_HTML.html#306,306,1280,601,1280,720,9-4-2022,7-31-12,148,depth_duration_stimuli/003079_2014-06-15_15-18-20_094959634447_rgbf000152-resize_8/003079_2014-06-15_15-18-20_094959634447_rgbf000152-resize_8-target.png,125,2.8775,9,2397,123,feet,jsons/VE125_randls_57_rotated.json,489334,593540,38,Man
148,272000,DepthScenes,duration_manipulation_targetAtFixation,jsons/VE125_randls_57_rotated.json,http://54.235.29.9/FacialAge/BNav_EC2/DepthDuration/v2_depth_duration_MTurk/v2_DepthDuration_HTML.html#306,306,1280,601,1280,720,9-4-2022,7-31-12,149,depth_duration_stimuli/000506_2014-06-08_23-21-00_260595134347_rgbf000070-resize_7/000506_2014-06-08_23-21-00_260595134347_rgbf000070-resize_7-target.png,125,4.0585,10,2465,117,feet,jsons/VE125_randls_57_rotated.json,489334,593540,38,Man
149,272000,DepthScenes,duration_manipulation_targetAtFixation,jsons/VE125_randls_57_rotated.json,http://54.235.29.9/FacialAge/BNav_EC2/DepthDuration/v2_depth_duration_MTurk/v2_DepthDuration_HTML.html#306,306,1280,601,1280,720,9-4-2022,7-31-12,150,depth_duration_stimuli/001392_2014-06-19_16-07-59_260595134347_rgbf000046-resize_1/001392_2014-06-19_16-07-59_260595134347_rgbf000046-resize_1-target.png,125,4.135,12,2798,125,feet,jsons/VE125_randls_57_rotated.json,489334,593540,38,Man
150,272000,DepthScenes,duration_manipulation_targetAtFixation,jsons/VE125_randls_57_rotated.json,http://54.235.29.9/FacialAge/BNav_EC2/DepthDuration/v2_depth_duration_MTurk/v2_DepthDuration_HTML.html#306,306,1280,601,1280,720,9-4-2022,7-31-12,151,depth_duration_stimuli/001570_2014-06-20_17-21-09_260595134347_rgbf000135-resize_4/001570_2014-06-20_17-21-09_260595134347_rgbf000135-resize_4-target.png,125,4.467,13,2434,118,feet,jsons/VE125_randls_57_rotated.json,489334,593540,38,Man
151,272000,DepthScenes,duration_manipulation_targetAtFixation,jsons/VE125_randls_57_rotated.json,http://54.235.29.9/FacialAge/BNav_EC2/DepthDuration/v2_depth_duration_MTurk/v2_DepthDuration_HTML.html#306,306,1280,601,1280,720,9-4-2022,7-31-12,152,depth_duration_stimuli/000569_2014-06-09_22-51-47_260595134347_rgbf000141-resize_3/000569_2014-06-09_22-51-47_260595134347_rgbf000141-resize-original.jpg,125,4.512,0,1890,117,feet,jsons/VE125_randls_57_rotated.json,489334,593540,38,Man
152,272000,DepthScenes,duration_manipulation_targetAtFixation,jsons/VE125_randls_57_rotated.json,http://54.235.29.9/FacialAge/BNav_EC2/DepthDuration/v2_depth_duration_MTurk/v2_DepthDuration_HTML.html#306,306,1280,601,1280,720,9-4-2022,7-31-12,153,depth_duration_stimuli/002639_2014-06-24_14-51-37_094959634447_rgbf000074-resize_4/002639_2014-06-24_14-51-37_094959634447_rgbf000074-resize_4-target.png,125,4.0375,14,3022,116,feet,jsons/VE125_randls_57_rotated.json,489334,593540,38,Man
153,272000,DepthScenes,duration_manipulation_targetAtFixation,jsons/VE125_randls_57_rotated.json,http://54.235.29.9/FacialAge/BNav_EC2/DepthDuration/v2_depth_duration_MTurk/v2_DepthDuration_HTML.html#306,306,1280,601,1280,720,9-4-2022,7-31-12,154,depth_duration_stimuli/003292_2014-05-14_21-53-49_094959634447_rgbf000100-resize_2/003292_2014-05-14_21-53-49_094959634447_rgbf000100-resize_2-target.png,125,3.4815,5,2096,111,feet,jsons/VE125_randls_57_rotated.json,489334,593540,38,Man
154,272000,DepthScenes,duration_manipulation_targetAtFixation,jsons/VE125_randls_57_rotated.json,http://54.235.29.9/FacialAge/BNav_EC2/DepthDuration/v2_depth_duration_MTurk/v2_DepthDuration_HTML.html#306,306,1280,601,1280,720,9-4-2022,7-31-12,155,depth_duration_stimuli/001052_2014-06-08_18-24-54_260595134347_rgbf000130-resize_1/001052_2014-06-08_18-24-54_260595134347_rgbf000130-resize_1-target.png,125,4.1045,9,2182,124,feet,jsons/VE125_randls_57_rotated.json,489334,593540,38,Man
155,272000,DepthScenes,duration_manipulation_targetAtFixation,jsons/VE125_randls_57_rotated.json,http://54.235.29.9/FacialAge/BNav_EC2/DepthDuration/v2_depth_duration_MTurk/v2_DepthDuration_HTML.html#306,306,1280,601,1280,720,9-4-2022,7-31-12,156,depth_duration_stimuli/002988_2014-06-15_12-24-20_094959634447_rgbf000150-resize_1/002988_2014-06-15_12-24-20_094959634447_rgbf000150-resize_1-target.png,125,4.7669999999999995,12,2672,111,feet,jsons/VE125_randls_57_rotated.json,489334,593540,38,Man
156,272000,DepthScenes,duration_manipulation_targetAtFixation,jsons/VE125_randls_57_rotated.json,http://54.235.29.9/FacialAge/BNav_EC2/DepthDuration/v2_depth_duration_MTurk/v2_DepthDuration_HTML.html#306,306,1280,601,1280,720,9-4-2022,7-31-12,157,depth_duration_stimuli/002209_2014-06-28_18-36-10_260595134347_rgbf000051-resize_1/002209_2014-06-28_18-36-10_260595134347_rgbf000051-resize_1-target.png,125,2.057,2,2038,136,feet,jsons/VE125_randls_57_rotated.json,489334,593540,38,Man
157,272000,DepthScenes,duration_manipulation_targetAtFixation,jsons/VE125_randls_57_rotated.json,http://54.235.29.9/FacialAge/BNav_EC2/DepthDuration/v2_depth_duration_MTurk/v2_DepthDuration_HTML.html#306,306,1280,601,1280,720,9-4-2022,7-31-12,158,depth_duration_stimuli/002763_2014-06-22_19-13-10_094959634447_rgbf000075-resize_4/002763_2014-06-22_19-13-10_094959634447_rgbf000075-resize_4-target.png,125,1.68375,3,4069,125,feet,jsons/VE125_randls_57_rotated.json,489334,593540,38,Man
158,272000,DepthScenes,duration_manipulation_targetAtFixation,jsons/VE125_randls_57_rotated.json,http://54.235.29.9/FacialAge/BNav_EC2/DepthDuration/v2_depth_duration_MTurk/v2_DepthDuration_HTML.html#306,306,1280,601,1280,720,9-4-2022,7-31-12,159,depth_duration_stimuli/001447_2014-06-19_17-00-32_260595134347_rgbf000082-resize_5/001447_2014-06-19_17-00-32_260595134347_rgbf000082-resize_5-target.png,125,4.13775,5,2246,132,feet,jsons/VE125_randls_57_rotated.json,489334,593540,38,Man
159,272000,DepthScenes,duration_manipulation_targetAtFixation,jsons/VE125_randls_57_rotated.json,http://54.235.29.9/FacialAge/BNav_EC2/DepthDuration/v2_depth_duration_MTurk/v2_DepthDuration_HTML.html#306,306,1280,601,1280,720,9-4-2022,7-31-12,160,depth_duration_stimuli/000447_2014-06-08_16-15-46_260595134347_rgbf000130-resize_1/000447_2014-06-08_16-15-46_260595134347_rgbf000130-resize_1-target.png,125,4.479,13,4739,126,feet,jsons/VE125_randls_57_rotated.json,489334,593540,38,Man
160,272000,DepthScenes,duration_manipulation_targetAtFixation,jsons/VE125_randls_57_rotated.json,http://54.235.29.9/FacialAge/BNav_EC2/DepthDuration/v2_depth_duration_MTurk/v2_DepthDuration_HTML.html#306,306,1280,601,1280,720,9-4-2022,7-31-12,161,depth_duration_stimuli/000665_2014-06-09_20-42-35_260595134347_rgbf000110-resize_1/000665_2014-06-09_20-42-35_260595134347_rgbf000110-resize_1-target.png,125,3.057,5,2759,127,feet,jsons/VE125_randls_57_rotated.json,489334,593540,38,Man
161,272000,DepthScenes,duration_manipulation_targetAtFixation,jsons/VE125_randls_57_rotated.json,http://54.235.29.9/FacialAge/BNav_EC2/DepthDuration/v2_depth_duration_MTurk/v2_DepthDuration_HTML.html#306,306,1280,601,1280,720,9-4-2022,7-31-12,162,depth_duration_stimuli/001150_2014-06-17_15-27-34_260595134347_rgbf000108-resize_2/001150_2014-06-17_15-27-34_260595134347_rgbf000108-resize_2-target.png,125,4.0325,5,2513,122,feet,jsons/VE125_randls_57_rotated.json,489334,593540,38,Man
162,272000,DepthScenes,duration_manipulation_targetAtFixation,jsons/VE125_randls_57_rotated.json,http://54.235.29.9/FacialAge/BNav_EC2/DepthDuration/v2_depth_duration_MTurk/v2_DepthDuration_HTML.html#306,306,1280,601,1280,720,9-4-2022,7-31-12,163,depth_duration_stimuli/001516_2014-06-20_16-25-09_260595134347_rgbf000076-resize_2/001516_2014-06-20_16-25-09_260595134347_rgbf000076-resize_2-target.png,125,1.7445,5,2314,126,feet,jsons/VE125_randls_57_rotated.json,489334,593540,38,Man
163,272000,DepthScenes,duration_manipulation_targetAtFixation,jsons/VE125_randls_57_rotated.json,http://54.235.29.9/FacialAge/BNav_EC2/DepthDuration/v2_depth_duration_MTurk/v2_DepthDuration_HTML.html#306,306,1280,601,1280,720,9-4-2022,7-31-12,164,depth_duration_stimuli/002118_2014-06-25_20-32-08_260595134347_rgbf000078-resize_1/002118_2014-06-25_20-32-08_260595134347_rgbf000078-resize_1-target.png,125,2.6460000000000004,6,2243,119,feet,jsons/VE125_randls_57_rotated.json,489334,593540,38,Man
