,subjID,experimentName,versionName,sequenceName,url,selected_row,windowWidth,windowHeight,screenWidth,screenHeight,startDate,startTime,trial,stimulus,duration,actual_depth,depth_estimate,trial_RT,log_sceneDuration,unitSelection,seq_filepath,experimentTime,totalTime,age,gender
0,272047,DepthScenes,duration_manipulation_targetAtFixation,jsons/VE125_randls_10.json,http://54.235.29.9/FacialAge/BNav_EC2/DepthDuration/v2_depth_duration_MTurk/v2_DepthDuration_HTML.html#332,332,1707,821,1366,768,8-30-2022,13-55-57,1,depth_duration_stimuli/000917_2014-06-09_22-45-29_260595134347_rgbf000149-resize_3/000917_2014-06-09_22-45-29_260595134347_rgbf000149-resize_3-target.png,125,4.1865,4,8828,131,meters,jsons/VE125_randls_10.json,1162647,1539020,1969,Man
1,272047,DepthScenes,duration_manipulation_targetAtFixation,jsons/VE125_randls_10.json,http://54.235.29.9/FacialAge/BNav_EC2/DepthDuration/v2_depth_duration_MTurk/v2_DepthDuration_HTML.html#332,332,1707,821,1366,768,8-30-2022,13-55-57,2,depth_duration_stimuli/002323_2014-06-28_20-01-54_260595134347_rgbf000051-resize_4/002323_2014-06-28_20-01-54_260595134347_rgbf000051-resize_4-target.png,125,3.7310000000000003,3,5564,126,meters,jsons/VE125_randls_10.json,1162647,1539020,1969,Man
2,272047,DepthScenes,duration_manipulation_targetAtFixation,jsons/VE125_randls_10.json,http://54.235.29.9/FacialAge/BNav_EC2/DepthDuration/v2_depth_duration_MTurk/v2_DepthDuration_HTML.html#332,332,1707,821,1366,768,8-30-2022,13-55-57,3,depth_duration_stimuli/001133_2014-06-17_14-49-16_260595134347_rgbf000100-resize_0/001133_2014-06-17_14-49-16_260595134347_rgbf000100-resize_0-target.png,125,4.2115,5,5893,116,meters,jsons/VE125_randls_10.json,1162647,1539020,1969,Man
3,272047,DepthScenes,duration_manipulation_targetAtFixation,jsons/VE125_randls_10.json,http://54.235.29.9/FacialAge/BNav_EC2/DepthDuration/v2_depth_duration_MTurk/v2_DepthDuration_HTML.html#332,332,1707,821,1366,768,8-30-2022,13-55-57,4,depth_duration_stimuli/001132_2014-06-17_14-48-54_260595134347_rgbf000100-resize_2/001132_2014-06-17_14-48-54_260595134347_rgbf000100-resize_2-target.png,125,3.753,4,9763,123,meters,jsons/VE125_randls_10.json,1162647,1539020,1969,Man
4,272047,DepthScenes,duration_manipulation_targetAtFixation,jsons/VE125_randls_10.json,http://54.235.29.9/FacialAge/BNav_EC2/DepthDuration/v2_depth_duration_MTurk/v2_DepthDuration_HTML.html#332,332,1707,821,1366,768,8-30-2022,13-55-57,5,depth_duration_stimuli/000522_2014-06-08_13-35-06_260595134347_rgbf000244-resize_1/000522_2014-06-08_13-35-06_260595134347_rgbf000244-resize_1-target.png,125,2.3715,8,14380,127,meters,jsons/VE125_randls_10.json,1162647,1539020,1969,Man
5,272047,DepthScenes,duration_manipulation_targetAtFixation,jsons/VE125_randls_10.json,http://54.235.29.9/FacialAge/BNav_EC2/DepthDuration/v2_depth_duration_MTurk/v2_DepthDuration_HTML.html#332,332,1707,821,1366,768,8-30-2022,13-55-57,6,depth_duration_stimuli/002949_2014-06-26_15-57-42_094959634447_rgbf000079-resize_1/002949_2014-06-26_15-57-42_094959634447_rgbf000079-resize_1-target.png,125,1.8915,7,5980,122,meters,jsons/VE125_randls_10.json,1162647,1539020,1969,Man
6,272047,DepthScenes,duration_manipulation_targetAtFixation,jsons/VE125_randls_10.json,http://54.235.29.9/FacialAge/BNav_EC2/DepthDuration/v2_depth_duration_MTurk/v2_DepthDuration_HTML.html#332,332,1707,821,1366,768,8-30-2022,13-55-57,7,depth_duration_stimuli/001055_2014-06-08_18-45-35_260595134347_rgbf000111-resize_4/001055_2014-06-08_18-45-35_260595134347_rgbf000111-resize_4-target.png,125,2.4290000000000003,15,7418,118,meters,jsons/VE125_randls_10.json,1162647,1539020,1969,Man
7,272047,DepthScenes,duration_manipulation_targetAtFixation,jsons/VE125_randls_10.json,http://54.235.29.9/FacialAge/BNav_EC2/DepthDuration/v2_depth_duration_MTurk/v2_DepthDuration_HTML.html#332,332,1707,821,1366,768,8-30-2022,13-55-57,8,depth_duration_stimuli/000549_2014-06-08_22-10-24_260595134347_rgbf000247-resize_3/000549_2014-06-08_22-10-24_260595134347_rgbf000247-resize_3-target.png,125,1.841,0,5187,124,meters,jsons/VE125_randls_10.json,1162647,1539020,1969,Man
8,272047,DepthScenes,duration_manipulation_targetAtFixation,jsons/VE125_randls_10.json,http://54.235.29.9/FacialAge/BNav_EC2/DepthDuration/v2_depth_duration_MTurk/v2_DepthDuration_HTML.html#332,332,1707,821,1366,768,8-30-2022,13-55-57,9,depth_duration_stimuli/002964_2014-06-08_17-46-11_094959634447_rgbf000091-resize_4/002964_2014-06-08_17-46-11_094959634447_rgbf000091-resize_4-target.png,125,1.6909999999999998,10,9159,132,meters,jsons/VE125_randls_10.json,1162647,1539020,1969,Man
9,272047,DepthScenes,duration_manipulation_targetAtFixation,jsons/VE125_randls_10.json,http://54.235.29.9/FacialAge/BNav_EC2/DepthDuration/v2_depth_duration_MTurk/v2_DepthDuration_HTML.html#332,332,1707,821,1366,768,8-30-2022,13-55-57,10,depth_duration_stimuli/002136_2014-06-25_21-18-03_260595134347_rgbf000109-resize_3/002136_2014-06-25_21-18-03_260595134347_rgbf000109-resize_3-target.png,125,1.9569999999999999,12,11171,128,meters,jsons/VE125_randls_10.json,1162647,1539020,1969,Man
10,272047,DepthScenes,duration_manipulation_targetAtFixation,jsons/VE125_randls_10.json,http://54.235.29.9/FacialAge/BNav_EC2/DepthDuration/v2_depth_duration_MTurk/v2_DepthDuration_HTML.html#332,332,1707,821,1366,768,8-30-2022,13-55-57,11,depth_duration_stimuli/002375_2014-06-28_20-13-44_260595134347_rgbf000032-resize_1/002375_2014-06-28_20-13-44_260595134347_rgbf000032-resize_1-target.png,125,4.0175,9,6871,123,meters,jsons/VE125_randls_10.json,1162647,1539020,1969,Man
11,272047,DepthScenes,duration_manipulation_targetAtFixation,jsons/VE125_randls_10.json,http://54.235.29.9/FacialAge/BNav_EC2/DepthDuration/v2_depth_duration_MTurk/v2_DepthDuration_HTML.html#332,332,1707,821,1366,768,8-30-2022,13-55-57,12,depth_duration_stimuli/002657_2014-06-13_15-29-54_094959634447_rgbf000150-resize_1/002657_2014-06-13_15-29-54_094959634447_rgbf000150-resize_1-target.png,125,4.919,12,9116,125,meters,jsons/VE125_randls_10.json,1162647,1539020,1969,Man
12,272047,DepthScenes,duration_manipulation_targetAtFixation,jsons/VE125_randls_10.json,http://54.235.29.9/FacialAge/BNav_EC2/DepthDuration/v2_depth_duration_MTurk/v2_DepthDuration_HTML.html#332,332,1707,821,1366,768,8-30-2022,13-55-57,13,depth_duration_stimuli/000569_2014-06-09_22-51-47_260595134347_rgbf000141-resize_3/000569_2014-06-09_22-51-47_260595134347_rgbf000141-resize-original.jpg,125,4.512,11,6590,117,meters,jsons/VE125_randls_10.json,1162647,1539020,1969,Man
13,272047,DepthScenes,duration_manipulation_targetAtFixation,jsons/VE125_randls_10.json,http://54.235.29.9/FacialAge/BNav_EC2/DepthDuration/v2_depth_duration_MTurk/v2_DepthDuration_HTML.html#332,332,1707,821,1366,768,8-30-2022,13-55-57,14,depth_duration_stimuli/001808_2014-06-26_20-50-58_260595134347_rgbf000029-resize_1/001808_2014-06-26_20-50-58_260595134347_rgbf000029-resize_1-target.png,125,4.249,12,16842,117,meters,jsons/VE125_randls_10.json,1162647,1539020,1969,Man
14,272047,DepthScenes,duration_manipulation_targetAtFixation,jsons/VE125_randls_10.json,http://54.235.29.9/FacialAge/BNav_EC2/DepthDuration/v2_depth_duration_MTurk/v2_DepthDuration_HTML.html#332,332,1707,821,1366,768,8-30-2022,13-55-57,15,depth_duration_stimuli/001815_2014-06-26_20-52-55_260595134347_rgbf000020-resize_0/001815_2014-06-26_20-52-55_260595134347_rgbf000020-resize_0-target.png,125,3.3865,13,5568,133,meters,jsons/VE125_randls_10.json,1162647,1539020,1969,Man
15,272047,DepthScenes,duration_manipulation_targetAtFixation,jsons/VE125_randls_10.json,http://54.235.29.9/FacialAge/BNav_EC2/DepthDuration/v2_depth_duration_MTurk/v2_DepthDuration_HTML.html#332,332,1707,821,1366,768,8-30-2022,13-55-57,16,depth_duration_stimuli/001066_2014-06-08_22-03-20_260595134347_rgbf000066-resize_4/001066_2014-06-08_22-03-20_260595134347_rgbf000066-resize_4-target.png,125,4.2330000000000005,14,11722,120,meters,jsons/VE125_randls_10.json,1162647,1539020,1969,Man
16,272047,DepthScenes,duration_manipulation_targetAtFixation,jsons/VE125_randls_10.json,http://54.235.29.9/FacialAge/BNav_EC2/DepthDuration/v2_depth_duration_MTurk/v2_DepthDuration_HTML.html#332,332,1707,821,1366,768,8-30-2022,13-55-57,17,depth_duration_stimuli/000742_2014-06-08_18-48-09_260595134347_rgbf000164-resize_4/000742_2014-06-08_18-48-09_260595134347_rgbf000164-resize_4-target.png,125,4.632,15,12239,114,meters,jsons/VE125_randls_10.json,1162647,1539020,1969,Man
17,272047,DepthScenes,duration_manipulation_targetAtFixation,jsons/VE125_randls_10.json,http://54.235.29.9/FacialAge/BNav_EC2/DepthDuration/v2_depth_duration_MTurk/v2_DepthDuration_HTML.html#332,332,1707,821,1366,768,8-30-2022,13-55-57,18,depth_duration_stimuli/001417_2014-06-19_16-25-36_260595134347_rgbf000115-resize_5/001417_2014-06-19_16-25-36_260595134347_rgbf000115-resize_5-target.png,125,4.6255,0,6717,137,meters,jsons/VE125_randls_10.json,1162647,1539020,1969,Man
18,272047,DepthScenes,duration_manipulation_targetAtFixation,jsons/VE125_randls_10.json,http://54.235.29.9/FacialAge/BNav_EC2/DepthDuration/v2_depth_duration_MTurk/v2_DepthDuration_HTML.html#332,332,1707,821,1366,768,8-30-2022,13-55-57,19,depth_duration_stimuli/003081_2014-06-15_15-19-16_094959634447_rgbf000150-resize_1/003081_2014-06-15_15-19-16_094959634447_rgbf000150-resize_1-target.png,125,3.9125,16,13967,122,meters,jsons/VE125_randls_10.json,1162647,1539020,1969,Man
19,272047,DepthScenes,duration_manipulation_targetAtFixation,jsons/VE125_randls_10.json,http://54.235.29.9/FacialAge/BNav_EC2/DepthDuration/v2_depth_duration_MTurk/v2_DepthDuration_HTML.html#332,332,1707,821,1366,768,8-30-2022,13-55-57,20,depth_duration_stimuli/000642_2014-06-08_16-59-25_260595134347_rgbf000098-resize_2/000642_2014-06-08_16-59-25_260595134347_rgbf000098-resize_2-target.png,125,2.8815,17,21851,132,meters,jsons/VE125_randls_10.json,1162647,1539020,1969,Man
20,272047,DepthScenes,duration_manipulation_targetAtFixation,jsons/VE125_randls_10.json,http://54.235.29.9/FacialAge/BNav_EC2/DepthDuration/v2_depth_duration_MTurk/v2_DepthDuration_HTML.html#332,332,1707,821,1366,768,8-30-2022,13-55-57,21,depth_duration_stimuli/002425_2014-06-28_20-27-29_260595134347_rgbf000031-resize_8/002425_2014-06-28_20-27-29_260595134347_rgbf000031-resize_8-target.png,125,3.8960000000000004,6,16891,118,meters,jsons/VE125_randls_10.json,1162647,1539020,1969,Man
21,272047,DepthScenes,duration_manipulation_targetAtFixation,jsons/VE125_randls_10.json,http://54.235.29.9/FacialAge/BNav_EC2/DepthDuration/v2_depth_duration_MTurk/v2_DepthDuration_HTML.html#332,332,1707,821,1366,768,8-30-2022,13-55-57,22,depth_duration_stimuli/002784_2014-06-22_19-26-30_094959634447_rgbf000083-resize_3/002784_2014-06-22_19-26-30_094959634447_rgbf000083-resize_3-target.png,125,1.8046666666667,8,20733,117,meters,jsons/VE125_randls_10.json,1162647,1539020,1969,Man
22,272047,DepthScenes,duration_manipulation_targetAtFixation,jsons/VE125_randls_10.json,http://54.235.29.9/FacialAge/BNav_EC2/DepthDuration/v2_depth_duration_MTurk/v2_DepthDuration_HTML.html#332,332,1707,821,1366,768,8-30-2022,13-55-57,23,depth_duration_stimuli/001100_2014-06-15_17-46-26_260595134347_rgbf000225-resize_2/001100_2014-06-15_17-46-26_260595134347_rgbf000225-resize_2-target.png,125,2.24,7,5852,115,meters,jsons/VE125_randls_10.json,1162647,1539020,1969,Man
23,272047,DepthScenes,duration_manipulation_targetAtFixation,jsons/VE125_randls_10.json,http://54.235.29.9/FacialAge/BNav_EC2/DepthDuration/v2_depth_duration_MTurk/v2_DepthDuration_HTML.html#332,332,1707,821,1366,768,8-30-2022,13-55-57,24,depth_duration_stimuli/000470_2014-06-09_19-42-40_260595134347_rgbf000094-resize_1/000470_2014-06-09_19-42-40_260595134347_rgbf000094-resize_1-target.png,125,1.831,9,5773,120,meters,jsons/VE125_randls_10.json,1162647,1539020,1969,Man
24,272047,DepthScenes,duration_manipulation_targetAtFixation,jsons/VE125_randls_10.json,http://54.235.29.9/FacialAge/BNav_EC2/DepthDuration/v2_depth_duration_MTurk/v2_DepthDuration_HTML.html#332,332,1707,821,1366,768,8-30-2022,13-55-57,25,depth_duration_stimuli/000109_2014-05-14_23-41-52_260595134347_rgbf000035-resize_9/000109_2014-05-14_23-41-52_260595134347_rgbf000035-resize_9-target.png,125,1.3545,0,5478,126,meters,jsons/VE125_randls_10.json,1162647,1539020,1969,Man
25,272047,DepthScenes,duration_manipulation_targetAtFixation,jsons/VE125_randls_10.json,http://54.235.29.9/FacialAge/BNav_EC2/DepthDuration/v2_depth_duration_MTurk/v2_DepthDuration_HTML.html#332,332,1707,821,1366,768,8-30-2022,13-55-57,26,depth_duration_stimuli/001555_2014-06-20_17-12-10_260595134347_rgbf000065-resize_4/001555_2014-06-20_17-12-10_260595134347_rgbf000065-resize_4-target.png,125,1.633,8,5118,124,meters,jsons/VE125_randls_10.json,1162647,1539020,1969,Man
26,272047,DepthScenes,duration_manipulation_targetAtFixation,jsons/VE125_randls_10.json,http://54.235.29.9/FacialAge/BNav_EC2/DepthDuration/v2_depth_duration_MTurk/v2_DepthDuration_HTML.html#332,332,1707,821,1366,768,8-30-2022,13-55-57,27,depth_duration_stimuli/000103_2014-05-14_22-01-17_260595134347_rgbf000152-resize_5/000103_2014-05-14_22-01-17_260595134347_rgbf000152-resize_5-target.png,125,1.993,8,5436,111,meters,jsons/VE125_randls_10.json,1162647,1539020,1969,Man
27,272047,DepthScenes,duration_manipulation_targetAtFixation,jsons/VE125_randls_10.json,http://54.235.29.9/FacialAge/BNav_EC2/DepthDuration/v2_depth_duration_MTurk/v2_DepthDuration_HTML.html#332,332,1707,821,1366,768,8-30-2022,13-55-57,28,depth_duration_stimuli/001110_2014-06-15_17-25-28_260595134347_rgbf000150-resize_1/001110_2014-06-15_17-25-28_260595134347_rgbf000150-resize_1-target.png,125,1.7115,9,5973,133,meters,jsons/VE125_randls_10.json,1162647,1539020,1969,Man
28,272047,DepthScenes,duration_manipulation_targetAtFixation,jsons/VE125_randls_10.json,http://54.235.29.9/FacialAge/BNav_EC2/DepthDuration/v2_depth_duration_MTurk/v2_DepthDuration_HTML.html#332,332,1707,821,1366,768,8-30-2022,13-55-57,29,depth_duration_stimuli/000927_2014-06-09_16-32-30_260595134347_rgbf000123-resize_3/000927_2014-06-09_16-32-30_260595134347_rgbf000123-resize_3-target.png,125,2.6785,8,5431,125,meters,jsons/VE125_randls_10.json,1162647,1539020,1969,Man
29,272047,DepthScenes,duration_manipulation_targetAtFixation,jsons/VE125_randls_10.json,http://54.235.29.9/FacialAge/BNav_EC2/DepthDuration/v2_depth_duration_MTurk/v2_DepthDuration_HTML.html#332,332,1707,821,1366,768,8-30-2022,13-55-57,30,depth_duration_stimuli/000375_2014-06-08_11-17-29_260595134347_rgbf000133-resize_2/000375_2014-06-08_11-17-29_260595134347_rgbf000133-resize-original.jpg,125,4.718,7,4420,124,meters,jsons/VE125_randls_10.json,1162647,1539020,1969,Man
30,272047,DepthScenes,duration_manipulation_targetAtFixation,jsons/VE125_randls_10.json,http://54.235.29.9/FacialAge/BNav_EC2/DepthDuration/v2_depth_duration_MTurk/v2_DepthDuration_HTML.html#332,332,1707,821,1366,768,8-30-2022,13-55-57,31,depth_duration_stimuli/003292_2014-05-14_21-53-49_094959634447_rgbf000100-resize_2/003292_2014-05-14_21-53-49_094959634447_rgbf000100-resize_2-target.png,125,3.4815,8,5338,130,meters,jsons/VE125_randls_10.json,1162647,1539020,1969,Man
31,272047,DepthScenes,duration_manipulation_targetAtFixation,jsons/VE125_randls_10.json,http://54.235.29.9/FacialAge/BNav_EC2/DepthDuration/v2_depth_duration_MTurk/v2_DepthDuration_HTML.html#332,332,1707,821,1366,768,8-30-2022,13-55-57,32,depth_duration_stimuli/002639_2014-06-24_14-51-37_094959634447_rgbf000074-resize_4/002639_2014-06-24_14-51-37_094959634447_rgbf000074-resize_4-target.png,125,4.0375,6,5018,125,meters,jsons/VE125_randls_10.json,1162647,1539020,1969,Man
32,272047,DepthScenes,duration_manipulation_targetAtFixation,jsons/VE125_randls_10.json,http://54.235.29.9/FacialAge/BNav_EC2/DepthDuration/v2_depth_duration_MTurk/v2_DepthDuration_HTML.html#332,332,1707,821,1366,768,8-30-2022,13-55-57,33,depth_duration_stimuli/000368_2014-06-09_15-53-01_260595134347_rgbf000155-resize_2/000368_2014-06-09_15-53-01_260595134347_rgbf000155-resize_2-target.png,125,2.4859999999999998,8,5917,117,meters,jsons/VE125_randls_10.json,1162647,1539020,1969,Man
33,272047,DepthScenes,duration_manipulation_targetAtFixation,jsons/VE125_randls_10.json,http://54.235.29.9/FacialAge/BNav_EC2/DepthDuration/v2_depth_duration_MTurk/v2_DepthDuration_HTML.html#332,332,1707,821,1366,768,8-30-2022,13-55-57,34,depth_duration_stimuli/002678_2014-06-13_16-15-32_094959634447_rgbf000151-resize_6/002678_2014-06-13_16-15-32_094959634447_rgbf000151-resize_6-target.png,125,2.1830000000000003,9,5554,132,meters,jsons/VE125_randls_10.json,1162647,1539020,1969,Man
34,272047,DepthScenes,duration_manipulation_targetAtFixation,jsons/VE125_randls_10.json,http://54.235.29.9/FacialAge/BNav_EC2/DepthDuration/v2_depth_duration_MTurk/v2_DepthDuration_HTML.html#332,332,1707,821,1366,768,8-30-2022,13-55-57,35,depth_duration_stimuli/001570_2014-06-20_17-21-09_260595134347_rgbf000135-resize_4/001570_2014-06-20_17-21-09_260595134347_rgbf000135-resize_4-target.png,125,4.467,14,9133,128,meters,jsons/VE125_randls_10.json,1162647,1539020,1969,Man
35,272047,DepthScenes,duration_manipulation_targetAtFixation,jsons/VE125_randls_10.json,http://54.235.29.9/FacialAge/BNav_EC2/DepthDuration/v2_depth_duration_MTurk/v2_DepthDuration_HTML.html#332,332,1707,821,1366,768,8-30-2022,13-55-57,36,depth_duration_stimuli/001392_2014-06-19_16-07-59_260595134347_rgbf000046-resize_1/001392_2014-06-19_16-07-59_260595134347_rgbf000046-resize_1-target.png,125,4.135,9,5766,136,meters,jsons/VE125_randls_10.json,1162647,1539020,1969,Man
36,272047,DepthScenes,duration_manipulation_targetAtFixation,jsons/VE125_randls_10.json,http://54.235.29.9/FacialAge/BNav_EC2/DepthDuration/v2_depth_duration_MTurk/v2_DepthDuration_HTML.html#332,332,1707,821,1366,768,8-30-2022,13-55-57,37,depth_duration_stimuli/001167_2014-06-17_15-38-07_260595134347_rgbf000108-resize_0/001167_2014-06-17_15-38-07_260595134347_rgbf000108-resize_0-target.png,125,1.8505,8,5460,121,meters,jsons/VE125_randls_10.json,1162647,1539020,1969,Man
37,272047,DepthScenes,duration_manipulation_targetAtFixation,jsons/VE125_randls_10.json,http://54.235.29.9/FacialAge/BNav_EC2/DepthDuration/v2_depth_duration_MTurk/v2_DepthDuration_HTML.html#332,332,1707,821,1366,768,8-30-2022,13-55-57,38,depth_duration_stimuli/003587_2014-05-23_16-48-02_094959634447_rgbf002384-resize_2/003587_2014-05-23_16-48-02_094959634447_rgbf002384-resize_2-target.png,125,1.357,7,4658,126,meters,jsons/VE125_randls_10.json,1162647,1539020,1969,Man
38,272047,DepthScenes,duration_manipulation_targetAtFixation,jsons/VE125_randls_10.json,http://54.235.29.9/FacialAge/BNav_EC2/DepthDuration/v2_depth_duration_MTurk/v2_DepthDuration_HTML.html#332,332,1707,821,1366,768,8-30-2022,13-55-57,39,depth_duration_stimuli/000486_2014-06-09_20-47-20_260595134347_rgbf000143-resize_2/000486_2014-06-09_20-47-20_260595134347_rgbf000143-resize_2-target.png,125,4.8325,12,5959,127,meters,jsons/VE125_randls_10.json,1162647,1539020,1969,Man
39,272047,DepthScenes,duration_manipulation_targetAtFixation,jsons/VE125_randls_10.json,http://54.235.29.9/FacialAge/BNav_EC2/DepthDuration/v2_depth_duration_MTurk/v2_DepthDuration_HTML.html#332,332,1707,821,1366,768,8-30-2022,13-55-57,40,depth_duration_stimuli/003083_2014-06-15_15-21-03_094959634447_rgbf000063-resize_1/003083_2014-06-15_15-21-03_094959634447_rgbf000063-resize_1-target.png,125,4.1405,8,4105,133,meters,jsons/VE125_randls_10.json,1162647,1539020,1969,Man
40,272047,DepthScenes,duration_manipulation_targetAtFixation,jsons/VE125_randls_10.json,http://54.235.29.9/FacialAge/BNav_EC2/DepthDuration/v2_depth_duration_MTurk/v2_DepthDuration_HTML.html#332,332,1707,821,1366,768,8-30-2022,13-55-57,41,depth_duration_stimuli/000810_2014-06-08_17-20-01_260595134347_rgbf000105-resize_0/000810_2014-06-08_17-20-01_260595134347_rgbf000105-resize_0-target.png,125,1.4865,9,5477,119,meters,jsons/VE125_randls_10.json,1162647,1539020,1969,Man
41,272047,DepthScenes,duration_manipulation_targetAtFixation,jsons/VE125_randls_10.json,http://54.235.29.9/FacialAge/BNav_EC2/DepthDuration/v2_depth_duration_MTurk/v2_DepthDuration_HTML.html#332,332,1707,821,1366,768,8-30-2022,13-55-57,42,depth_duration_stimuli/001214_2014-06-17_16-13-55_260595134347_rgbf000111-resize_0/001214_2014-06-17_16-13-55_260595134347_rgbf000111-resize_0-target.png,125,2.6505,8,5437,125,meters,jsons/VE125_randls_10.json,1162647,1539020,1969,Man
42,272047,DepthScenes,duration_manipulation_targetAtFixation,jsons/VE125_randls_10.json,http://54.235.29.9/FacialAge/BNav_EC2/DepthDuration/v2_depth_duration_MTurk/v2_DepthDuration_HTML.html#332,332,1707,821,1366,768,8-30-2022,13-55-57,43,depth_duration_stimuli/000692_2014-06-08_13-09-42_260595134347_rgbf000199-resize_2/000692_2014-06-08_13-09-42_260595134347_rgbf000199-resize_2-target.png,125,3.661,10,5457,141,meters,jsons/VE125_randls_10.json,1162647,1539020,1969,Man
43,272047,DepthScenes,duration_manipulation_targetAtFixation,jsons/VE125_randls_10.json,http://54.235.29.9/FacialAge/BNav_EC2/DepthDuration/v2_depth_duration_MTurk/v2_DepthDuration_HTML.html#332,332,1707,821,1366,768,8-30-2022,13-55-57,44,depth_duration_stimuli/001094_2014-06-15_17-36-00_260595134347_rgbf000205-resize_0/001094_2014-06-15_17-36-00_260595134347_rgbf000205-resize_0-target.png,125,4.2175,8,7165,135,meters,jsons/VE125_randls_10.json,1162647,1539020,1969,Man
44,272047,DepthScenes,duration_manipulation_targetAtFixation,jsons/VE125_randls_10.json,http://54.235.29.9/FacialAge/BNav_EC2/DepthDuration/v2_depth_duration_MTurk/v2_DepthDuration_HTML.html#332,332,1707,821,1366,768,8-30-2022,13-55-57,45,depth_duration_stimuli/000787_2014-06-08_22-33-53_260595134347_rgbf000175-resize_1/000787_2014-06-08_22-33-53_260595134347_rgbf000175-resize-original.jpg,125,4.784,0,5432,125,meters,jsons/VE125_randls_10.json,1162647,1539020,1969,Man
45,272047,DepthScenes,duration_manipulation_targetAtFixation,jsons/VE125_randls_10.json,http://54.235.29.9/FacialAge/BNav_EC2/DepthDuration/v2_depth_duration_MTurk/v2_DepthDuration_HTML.html#332,332,1707,821,1366,768,8-30-2022,13-55-57,46,depth_duration_stimuli/003534_2014-05-22_15-06-10_094959634447_rgbf000102-resize_4/003534_2014-05-22_15-06-10_094959634447_rgbf000102-resize_4-target.png,125,1.426,8,5043,125,meters,jsons/VE125_randls_10.json,1162647,1539020,1969,Man
46,272047,DepthScenes,duration_manipulation_targetAtFixation,jsons/VE125_randls_10.json,http://54.235.29.9/FacialAge/BNav_EC2/DepthDuration/v2_depth_duration_MTurk/v2_DepthDuration_HTML.html#332,332,1707,821,1366,768,8-30-2022,13-55-57,47,depth_duration_stimuli/002637_2014-06-24_14-51-13_094959634447_rgbf000066-resize_4/002637_2014-06-24_14-51-13_094959634447_rgbf000066-resize_4-target.png,125,1.9955,7,5109,122,meters,jsons/VE125_randls_10.json,1162647,1539020,1969,Man
47,272047,DepthScenes,duration_manipulation_targetAtFixation,jsons/VE125_randls_10.json,http://54.235.29.9/FacialAge/BNav_EC2/DepthDuration/v2_depth_duration_MTurk/v2_DepthDuration_HTML.html#332,332,1707,821,1366,768,8-30-2022,13-55-57,48,depth_duration_stimuli/000493_2014-06-09_21-01-18_260595134347_rgbf000196-resize_3/000493_2014-06-09_21-01-18_260595134347_rgbf000196-resize_3-target.png,125,3.44,9,5875,125,meters,jsons/VE125_randls_10.json,1162647,1539020,1969,Man
48,272047,DepthScenes,duration_manipulation_targetAtFixation,jsons/VE125_randls_10.json,http://54.235.29.9/FacialAge/BNav_EC2/DepthDuration/v2_depth_duration_MTurk/v2_DepthDuration_HTML.html#332,332,1707,821,1366,768,8-30-2022,13-55-57,49,depth_duration_stimuli/000191_2014-05-12_17-07-38_260595134347_rgbf000199-resize_0/000191_2014-05-12_17-07-38_260595134347_rgbf000199-resize_0-target.png,125,3.7995,7,5343,124,meters,jsons/VE125_randls_10.json,1162647,1539020,1969,Man
49,272047,DepthScenes,duration_manipulation_targetAtFixation,jsons/VE125_randls_10.json,http://54.235.29.9/FacialAge/BNav_EC2/DepthDuration/v2_depth_duration_MTurk/v2_DepthDuration_HTML.html#332,332,1707,821,1366,768,8-30-2022,13-55-57,50,depth_duration_stimuli/001056_2014-06-08_18-46-44_260595134347_rgbf000068-resize_0/001056_2014-06-08_18-46-44_260595134347_rgbf000068-resize_0-target.png,125,2.6625,8,6396,123,meters,jsons/VE125_randls_10.json,1162647,1539020,1969,Man
50,272047,DepthScenes,duration_manipulation_targetAtFixation,jsons/VE125_randls_10.json,http://54.235.29.9/FacialAge/BNav_EC2/DepthDuration/v2_depth_duration_MTurk/v2_DepthDuration_HTML.html#332,332,1707,821,1366,768,8-30-2022,13-55-57,51,depth_duration_stimuli/002199_2014-06-28_18-33-56_260595134347_rgbf000074-resize_0/002199_2014-06-28_18-33-56_260595134347_rgbf000074-resize_0-target.png,125,1.996,0,10352,124,meters,jsons/VE125_randls_10.json,1162647,1539020,1969,Man
51,272047,DepthScenes,duration_manipulation_targetAtFixation,jsons/VE125_randls_10.json,http://54.235.29.9/FacialAge/BNav_EC2/DepthDuration/v2_depth_duration_MTurk/v2_DepthDuration_HTML.html#332,332,1707,821,1366,768,8-30-2022,13-55-57,52,depth_duration_stimuli/001449_2014-06-19_17-01-27_260595134347_rgbf000116-resize_2/001449_2014-06-19_17-01-27_260595134347_rgbf000116-resize_2-target.png,125,3.452,8,6787,125,meters,jsons/VE125_randls_10.json,1162647,1539020,1969,Man
52,272047,DepthScenes,duration_manipulation_targetAtFixation,jsons/VE125_randls_10.json,http://54.235.29.9/FacialAge/BNav_EC2/DepthDuration/v2_depth_duration_MTurk/v2_DepthDuration_HTML.html#332,332,1707,821,1366,768,8-30-2022,13-55-57,53,depth_duration_stimuli/001450_2014-06-19_17-02-03_260595134347_rgbf000203-resize_4/001450_2014-06-19_17-02-03_260595134347_rgbf000203-resize_4-target.png,125,4.0106666666667,0,5050,132,meters,jsons/VE125_randls_10.json,1162647,1539020,1969,Man
53,272047,DepthScenes,duration_manipulation_targetAtFixation,jsons/VE125_randls_10.json,http://54.235.29.9/FacialAge/BNav_EC2/DepthDuration/v2_depth_duration_MTurk/v2_DepthDuration_HTML.html#332,332,1707,821,1366,768,8-30-2022,13-55-57,54,depth_duration_stimuli/002663_2014-06-13_15-50-26_094959634447_rgbf000075-resize_1/002663_2014-06-13_15-50-26_094959634447_rgbf000075-resize_1-target.png,125,4.7495,7,5124,120,meters,jsons/VE125_randls_10.json,1162647,1539020,1969,Man
54,272047,DepthScenes,duration_manipulation_targetAtFixation,jsons/VE125_randls_10.json,http://54.235.29.9/FacialAge/BNav_EC2/DepthDuration/v2_depth_duration_MTurk/v2_DepthDuration_HTML.html#332,332,1707,821,1366,768,8-30-2022,13-55-57,55,depth_duration_stimuli/000409_2014-06-04_19-23-33_260595134347_rgbf000067-resize_0/000409_2014-06-04_19-23-33_260595134347_rgbf000067-resize_0-target.png,125,3.7335,0,7087,113,meters,jsons/VE125_randls_10.json,1162647,1539020,1969,Man
55,272047,DepthScenes,duration_manipulation_targetAtFixation,jsons/VE125_randls_10.json,http://54.235.29.9/FacialAge/BNav_EC2/DepthDuration/v2_depth_duration_MTurk/v2_DepthDuration_HTML.html#332,332,1707,821,1366,768,8-30-2022,13-55-57,56,depth_duration_stimuli/002788_2014-06-22_19-36-03_094959634447_rgbf000088-resize_2/002788_2014-06-22_19-36-03_094959634447_rgbf000088-resize_2-target.png,125,1.6465,8,6526,131,meters,jsons/VE125_randls_10.json,1162647,1539020,1969,Man
56,272047,DepthScenes,duration_manipulation_targetAtFixation,jsons/VE125_randls_10.json,http://54.235.29.9/FacialAge/BNav_EC2/DepthDuration/v2_depth_duration_MTurk/v2_DepthDuration_HTML.html#332,332,1707,821,1366,768,8-30-2022,13-55-57,57,depth_duration_stimuli/000749_2014-06-08_21-55-06_260595134347_rgbf000070-resize_2/000749_2014-06-08_21-55-06_260595134347_rgbf000070-resize_2-target.png,125,2.331,9,4753,131,meters,jsons/VE125_randls_10.json,1162647,1539020,1969,Man
57,272047,DepthScenes,duration_manipulation_targetAtFixation,jsons/VE125_randls_10.json,http://54.235.29.9/FacialAge/BNav_EC2/DepthDuration/v2_depth_duration_MTurk/v2_DepthDuration_HTML.html#332,332,1707,821,1366,768,8-30-2022,13-55-57,58,depth_duration_stimuli/000436_2014-06-09_22-25-11_260595134347_rgbf000137-resize_1/000436_2014-06-09_22-25-11_260595134347_rgbf000137-resize_1-target.png,125,4.0705,7,8437,116,meters,jsons/VE125_randls_10.json,1162647,1539020,1969,Man
58,272047,DepthScenes,duration_manipulation_targetAtFixation,jsons/VE125_randls_10.json,http://54.235.29.9/FacialAge/BNav_EC2/DepthDuration/v2_depth_duration_MTurk/v2_DepthDuration_HTML.html#332,332,1707,821,1366,768,8-30-2022,13-55-57,59,depth_duration_stimuli/002444_2014-06-28_20-32-08_260595134347_rgbf000027-resize_0/002444_2014-06-28_20-32-08_260595134347_rgbf000027-resize_0-target.png,125,4.388999999999999,9,4336,127,meters,jsons/VE125_randls_10.json,1162647,1539020,1969,Man
59,272047,DepthScenes,duration_manipulation_targetAtFixation,jsons/VE125_randls_10.json,http://54.235.29.9/FacialAge/BNav_EC2/DepthDuration/v2_depth_duration_MTurk/v2_DepthDuration_HTML.html#332,332,1707,821,1366,768,8-30-2022,13-55-57,60,depth_duration_stimuli/000878_2014-06-08_22-52-45_260595134347_rgbf000045-resize_2/000878_2014-06-08_22-52-45_260595134347_rgbf000045-resize_2-target.png,125,2.092,7,6828,125,meters,jsons/VE125_randls_10.json,1162647,1539020,1969,Man
60,272047,DepthScenes,duration_manipulation_targetAtFixation,jsons/VE125_randls_10.json,http://54.235.29.9/FacialAge/BNav_EC2/DepthDuration/v2_depth_duration_MTurk/v2_DepthDuration_HTML.html#332,332,1707,821,1366,768,8-30-2022,13-55-57,61,depth_duration_stimuli/002953_2014-06-08_17-32-18_094959634447_rgbf000059-resize_5/002953_2014-06-08_17-32-18_094959634447_rgbf000059-resize_5-target.png,125,1.551,0,7292,123,meters,jsons/VE125_randls_10.json,1162647,1539020,1969,Man
61,272047,DepthScenes,duration_manipulation_targetAtFixation,jsons/VE125_randls_10.json,http://54.235.29.9/FacialAge/BNav_EC2/DepthDuration/v2_depth_duration_MTurk/v2_DepthDuration_HTML.html#332,332,1707,821,1366,768,8-30-2022,13-55-57,62,depth_duration_stimuli/002213_2014-06-28_18-37-58_260595134347_rgbf000055-resize_1/002213_2014-06-28_18-37-58_260595134347_rgbf000055-resize_1-target.png,125,3.62,0,4996,128,meters,jsons/VE125_randls_10.json,1162647,1539020,1969,Man
62,272047,DepthScenes,duration_manipulation_targetAtFixation,jsons/VE125_randls_10.json,http://54.235.29.9/FacialAge/BNav_EC2/DepthDuration/v2_depth_duration_MTurk/v2_DepthDuration_HTML.html#332,332,1707,821,1366,768,8-30-2022,13-55-57,63,depth_duration_stimuli/000691_2014-06-08_13-08-50_260595134347_rgbf000132-resize_3/000691_2014-06-08_13-08-50_260595134347_rgbf000132-resize_3-target.png,125,4.1530000000000005,6,6861,124,meters,jsons/VE125_randls_10.json,1162647,1539020,1969,Man
63,272047,DepthScenes,duration_manipulation_targetAtFixation,jsons/VE125_randls_10.json,http://54.235.29.9/FacialAge/BNav_EC2/DepthDuration/v2_depth_duration_MTurk/v2_DepthDuration_HTML.html#332,332,1707,821,1366,768,8-30-2022,13-55-57,64,depth_duration_stimuli/001158_2014-06-17_15-32-16_260595134347_rgbf000138-resize_2/001158_2014-06-17_15-32-16_260595134347_rgbf000138-resize_2-target.png,125,4.5315,0,6802,121,meters,jsons/VE125_randls_10.json,1162647,1539020,1969,Man
64,272047,DepthScenes,duration_manipulation_targetAtFixation,jsons/VE125_randls_10.json,http://54.235.29.9/FacialAge/BNav_EC2/DepthDuration/v2_depth_duration_MTurk/v2_DepthDuration_HTML.html#332,332,1707,821,1366,768,8-30-2022,13-55-57,65,depth_duration_stimuli/000556_2014-06-09_22-42-56_260595134347_rgbf000214-resize_1/000556_2014-06-09_22-42-56_260595134347_rgbf000214-resize_1-target.png,125,4.8415,7,4811,124,meters,jsons/VE125_randls_10.json,1162647,1539020,1969,Man
65,272047,DepthScenes,duration_manipulation_targetAtFixation,jsons/VE125_randls_10.json,http://54.235.29.9/FacialAge/BNav_EC2/DepthDuration/v2_depth_duration_MTurk/v2_DepthDuration_HTML.html#332,332,1707,821,1366,768,8-30-2022,13-55-57,66,depth_duration_stimuli/001222_2014-06-17_16-24-06_260595134347_rgbf000073-resize_0/001222_2014-06-17_16-24-06_260595134347_rgbf000073-resize-original.jpg,125,1.4385,6,10351,123,meters,jsons/VE125_randls_10.json,1162647,1539020,1969,Man
66,272047,DepthScenes,duration_manipulation_targetAtFixation,jsons/VE125_randls_10.json,http://54.235.29.9/FacialAge/BNav_EC2/DepthDuration/v2_depth_duration_MTurk/v2_DepthDuration_HTML.html#332,332,1707,821,1366,768,8-30-2022,13-55-57,67,depth_duration_stimuli/000773_2014-06-08_22-24-54_260595134347_rgbf000093-resize_1/000773_2014-06-08_22-24-54_260595134347_rgbf000093-resize_1-target.png,125,4.973,7,12605,122,meters,jsons/VE125_randls_10.json,1162647,1539020,1969,Man
67,272047,DepthScenes,duration_manipulation_targetAtFixation,jsons/VE125_randls_10.json,http://54.235.29.9/FacialAge/BNav_EC2/DepthDuration/v2_depth_duration_MTurk/v2_DepthDuration_HTML.html#332,332,1707,821,1366,768,8-30-2022,13-55-57,68,depth_duration_stimuli/002414_2014-06-28_20-24-58_260595134347_rgbf000067-resize_4/002414_2014-06-28_20-24-58_260595134347_rgbf000067-resize_4-target.png,125,4.363,9,6287,125,meters,jsons/VE125_randls_10.json,1162647,1539020,1969,Man
68,272047,DepthScenes,duration_manipulation_targetAtFixation,jsons/VE125_randls_10.json,http://54.235.29.9/FacialAge/BNav_EC2/DepthDuration/v2_depth_duration_MTurk/v2_DepthDuration_HTML.html#332,332,1707,821,1366,768,8-30-2022,13-55-57,69,depth_duration_stimuli/001806_2014-06-26_20-50-20_260595134347_rgbf000091-resize_1/001806_2014-06-26_20-50-20_260595134347_rgbf000091-resize_1-target.png,125,2.7305,7,7774,118,meters,jsons/VE125_randls_10.json,1162647,1539020,1969,Man
69,272047,DepthScenes,duration_manipulation_targetAtFixation,jsons/VE125_randls_10.json,http://54.235.29.9/FacialAge/BNav_EC2/DepthDuration/v2_depth_duration_MTurk/v2_DepthDuration_HTML.html#332,332,1707,821,1366,768,8-30-2022,13-55-57,70,depth_duration_stimuli/001617_2014-06-20_11-35-32_260595134347_rgbf000066-resize_1/001617_2014-06-20_11-35-32_260595134347_rgbf000066-resize_1-target.png,125,3.7910000000000004,6,3694,126,meters,jsons/VE125_randls_10.json,1162647,1539020,1969,Man
70,272047,DepthScenes,duration_manipulation_targetAtFixation,jsons/VE125_randls_10.json,http://54.235.29.9/FacialAge/BNav_EC2/DepthDuration/v2_depth_duration_MTurk/v2_DepthDuration_HTML.html#332,332,1707,821,1366,768,8-30-2022,13-55-57,71,depth_duration_stimuli/002988_2014-06-15_12-24-20_094959634447_rgbf000150-resize_1/002988_2014-06-15_12-24-20_094959634447_rgbf000150-resize_1-target.png,125,4.7669999999999995,8,5952,125,meters,jsons/VE125_randls_10.json,1162647,1539020,1969,Man
71,272047,DepthScenes,duration_manipulation_targetAtFixation,jsons/VE125_randls_10.json,http://54.235.29.9/FacialAge/BNav_EC2/DepthDuration/v2_depth_duration_MTurk/v2_DepthDuration_HTML.html#332,332,1707,821,1366,768,8-30-2022,13-55-57,72,depth_duration_stimuli/001052_2014-06-08_18-24-54_260595134347_rgbf000130-resize_1/001052_2014-06-08_18-24-54_260595134347_rgbf000130-resize_1-target.png,125,4.1045,7,4916,123,meters,jsons/VE125_randls_10.json,1162647,1539020,1969,Man
72,272047,DepthScenes,duration_manipulation_targetAtFixation,jsons/VE125_randls_10.json,http://54.235.29.9/FacialAge/BNav_EC2/DepthDuration/v2_depth_duration_MTurk/v2_DepthDuration_HTML.html#332,332,1707,821,1366,768,8-30-2022,13-55-57,73,depth_duration_stimuli/001059_2014-06-08_21-53-27_260595134347_rgbf000061-resize_4/001059_2014-06-08_21-53-27_260595134347_rgbf000061-resize_4-target.png,125,2.4185,0,5306,120,meters,jsons/VE125_randls_10.json,1162647,1539020,1969,Man
73,272047,DepthScenes,duration_manipulation_targetAtFixation,jsons/VE125_randls_10.json,http://54.235.29.9/FacialAge/BNav_EC2/DepthDuration/v2_depth_duration_MTurk/v2_DepthDuration_HTML.html#332,332,1707,821,1366,768,8-30-2022,13-55-57,74,depth_duration_stimuli/001032_2014-06-08_13-23-17_260595134347_rgbf000021-resize_3/001032_2014-06-08_13-23-17_260595134347_rgbf000021-resize_3-target.png,125,3.2725,9,5558,117,meters,jsons/VE125_randls_10.json,1162647,1539020,1969,Man
74,272047,DepthScenes,duration_manipulation_targetAtFixation,jsons/VE125_randls_10.json,http://54.235.29.9/FacialAge/BNav_EC2/DepthDuration/v2_depth_duration_MTurk/v2_DepthDuration_HTML.html#332,332,1707,821,1366,768,8-30-2022,13-55-57,75,depth_duration_stimuli/002118_2014-06-25_20-32-08_260595134347_rgbf000078-resize_1/002118_2014-06-25_20-32-08_260595134347_rgbf000078-resize_1-target.png,125,2.6460000000000004,8,5473,123,meters,jsons/VE125_randls_10.json,1162647,1539020,1969,Man
75,272047,DepthScenes,duration_manipulation_targetAtFixation,jsons/VE125_randls_10.json,http://54.235.29.9/FacialAge/BNav_EC2/DepthDuration/v2_depth_duration_MTurk/v2_DepthDuration_HTML.html#332,332,1707,821,1366,768,8-30-2022,13-55-57,76,depth_duration_stimuli/001516_2014-06-20_16-25-09_260595134347_rgbf000076-resize_2/001516_2014-06-20_16-25-09_260595134347_rgbf000076-resize_2-target.png,125,1.7445,8,7213,117,meters,jsons/VE125_randls_10.json,1162647,1539020,1969,Man
76,272047,DepthScenes,duration_manipulation_targetAtFixation,jsons/VE125_randls_10.json,http://54.235.29.9/FacialAge/BNav_EC2/DepthDuration/v2_depth_duration_MTurk/v2_DepthDuration_HTML.html#332,332,1707,821,1366,768,8-30-2022,13-55-57,77,depth_duration_stimuli/002057_2014-06-24_21-00-13_260595134347_rgbf000120-resize_1/002057_2014-06-24_21-00-13_260595134347_rgbf000120-resize_1-target.png,125,2.967,9,5272,119,meters,jsons/VE125_randls_10.json,1162647,1539020,1969,Man
77,272047,DepthScenes,duration_manipulation_targetAtFixation,jsons/VE125_randls_10.json,http://54.235.29.9/FacialAge/BNav_EC2/DepthDuration/v2_depth_duration_MTurk/v2_DepthDuration_HTML.html#332,332,1707,821,1366,768,8-30-2022,13-55-57,78,depth_duration_stimuli/000709_2014-06-08_13-51-55_260595134347_rgbf000068-resize_3/000709_2014-06-08_13-51-55_260595134347_rgbf000068-resize_3-target.png,125,1.8030000000000002,7,8095,112,meters,jsons/VE125_randls_10.json,1162647,1539020,1969,Man
78,272047,DepthScenes,duration_manipulation_targetAtFixation,jsons/VE125_randls_10.json,http://54.235.29.9/FacialAge/BNav_EC2/DepthDuration/v2_depth_duration_MTurk/v2_DepthDuration_HTML.html#332,332,1707,821,1366,768,8-30-2022,13-55-57,79,depth_duration_stimuli/000929_2014-06-09_16-33-19_260595134347_rgbf000139-resize_0/000929_2014-06-09_16-33-19_260595134347_rgbf000139-resize_0-target.png,125,2.8680000000000003,8,15487,117,meters,jsons/VE125_randls_10.json,1162647,1539020,1969,Man
79,272047,DepthScenes,duration_manipulation_targetAtFixation,jsons/VE125_randls_10.json,http://54.235.29.9/FacialAge/BNav_EC2/DepthDuration/v2_depth_duration_MTurk/v2_DepthDuration_HTML.html#332,332,1707,821,1366,768,8-30-2022,13-55-57,80,depth_duration_stimuli/000457_2014-06-08_16-52-43_260595134347_rgbf000199-resize_1/000457_2014-06-08_16-52-43_260595134347_rgbf000199-resize_1-target.png,125,3.6489999999999996,9,6166,117,meters,jsons/VE125_randls_10.json,1162647,1539020,1969,Man
80,272047,DepthScenes,duration_manipulation_targetAtFixation,jsons/VE125_randls_10.json,http://54.235.29.9/FacialAge/BNav_EC2/DepthDuration/v2_depth_duration_MTurk/v2_DepthDuration_HTML.html#332,332,1707,821,1366,768,8-30-2022,13-55-57,81,depth_duration_stimuli/000009_2014-05-26_14-32-05_260595134347_rgbf000034-resize_3/000009_2014-05-26_14-32-05_260595134347_rgbf000034-resize_3-target.png,125,3.8715,8,6522,128,meters,jsons/VE125_randls_10.json,1162647,1539020,1969,Man
81,272047,DepthScenes,duration_manipulation_targetAtFixation,jsons/VE125_randls_10.json,http://54.235.29.9/FacialAge/BNav_EC2/DepthDuration/v2_depth_duration_MTurk/v2_DepthDuration_HTML.html#332,332,1707,821,1366,768,8-30-2022,13-55-57,82,depth_duration_stimuli/001828_2014-06-26_21-40-03_260595134347_rgbf000024-resize_0/001828_2014-06-26_21-40-03_260595134347_rgbf000024-resize_0-target.png,125,4.8260000000000005,7,5704,123,meters,jsons/VE125_randls_10.json,1162647,1539020,1969,Man
82,272047,DepthScenes,duration_manipulation_targetAtFixation,jsons/VE125_randls_10.json,http://54.235.29.9/FacialAge/BNav_EC2/DepthDuration/v2_depth_duration_MTurk/v2_DepthDuration_HTML.html#332,332,1707,821,1366,768,8-30-2022,13-55-57,83,depth_duration_stimuli/002272_2014-06-28_18-53-56_260595134347_rgbf000067-resize_2/002272_2014-06-28_18-53-56_260595134347_rgbf000067-resize_2-target.png,125,1.138,0,7850,128,meters,jsons/VE125_randls_10.json,1162647,1539020,1969,Man
83,272047,DepthScenes,duration_manipulation_targetAtFixation,jsons/VE125_randls_10.json,http://54.235.29.9/FacialAge/BNav_EC2/DepthDuration/v2_depth_duration_MTurk/v2_DepthDuration_HTML.html#332,332,1707,821,1366,768,8-30-2022,13-55-57,84,depth_duration_stimuli/001571_2014-06-20_17-21-32_260595134347_rgbf000089-resize_1/001571_2014-06-20_17-21-32_260595134347_rgbf000089-resize_1-target.png,125,1.86,5,6365,125,meters,jsons/VE125_randls_10.json,1162647,1539020,1969,Man
84,272047,DepthScenes,duration_manipulation_targetAtFixation,jsons/VE125_randls_10.json,http://54.235.29.9/FacialAge/BNav_EC2/DepthDuration/v2_depth_duration_MTurk/v2_DepthDuration_HTML.html#332,332,1707,821,1366,768,8-30-2022,13-55-57,85,depth_duration_stimuli/002043_2014-06-24_20-29-38_260595134347_rgbf000039-resize_4/002043_2014-06-24_20-29-38_260595134347_rgbf000039-resize_4-target.png,125,2.8435,8,5220,124,meters,jsons/VE125_randls_10.json,1162647,1539020,1969,Man
85,272047,DepthScenes,duration_manipulation_targetAtFixation,jsons/VE125_randls_10.json,http://54.235.29.9/FacialAge/BNav_EC2/DepthDuration/v2_depth_duration_MTurk/v2_DepthDuration_HTML.html#332,332,1707,821,1366,768,8-30-2022,13-55-57,86,depth_duration_stimuli/003048_2014-06-15_13-49-43_094959634447_rgbf000150-resize_1/003048_2014-06-15_13-49-43_094959634447_rgbf000150-resize_1-target.png,125,4.0035,7,5467,124,meters,jsons/VE125_randls_10.json,1162647,1539020,1969,Man
86,272047,DepthScenes,duration_manipulation_targetAtFixation,jsons/VE125_randls_10.json,http://54.235.29.9/FacialAge/BNav_EC2/DepthDuration/v2_depth_duration_MTurk/v2_DepthDuration_HTML.html#332,332,1707,821,1366,768,8-30-2022,13-55-57,87,depth_duration_stimuli/002630_2014-06-24_14-47-50_094959634447_rgbf000055-resize_1/002630_2014-06-24_14-47-50_094959634447_rgbf000055-resize_1-target.png,125,3.0095,8,6406,119,meters,jsons/VE125_randls_10.json,1162647,1539020,1969,Man
87,272047,DepthScenes,duration_manipulation_targetAtFixation,jsons/VE125_randls_10.json,http://54.235.29.9/FacialAge/BNav_EC2/DepthDuration/v2_depth_duration_MTurk/v2_DepthDuration_HTML.html#332,332,1707,821,1366,768,8-30-2022,13-55-57,88,depth_duration_stimuli/002758_2014-06-22_19-11-20_094959634447_rgbf000128-resize_1/002758_2014-06-22_19-11-20_094959634447_rgbf000128-resize_1-target.png,125,2.555,9,5294,123,meters,jsons/VE125_randls_10.json,1162647,1539020,1969,Man
88,272047,DepthScenes,duration_manipulation_targetAtFixation,jsons/VE125_randls_10.json,http://54.235.29.9/FacialAge/BNav_EC2/DepthDuration/v2_depth_duration_MTurk/v2_DepthDuration_HTML.html#332,332,1707,821,1366,768,8-30-2022,13-55-57,89,depth_duration_stimuli/001150_2014-06-17_15-27-34_260595134347_rgbf000108-resize_2/001150_2014-06-17_15-27-34_260595134347_rgbf000108-resize_2-target.png,125,4.0325,7,5311,91,meters,jsons/VE125_randls_10.json,1162647,1539020,1969,Man
89,272047,DepthScenes,duration_manipulation_targetAtFixation,jsons/VE125_randls_10.json,http://54.235.29.9/FacialAge/BNav_EC2/DepthDuration/v2_depth_duration_MTurk/v2_DepthDuration_HTML.html#332,332,1707,821,1366,768,8-30-2022,13-55-57,90,depth_duration_stimuli/000665_2014-06-09_20-42-35_260595134347_rgbf000110-resize_1/000665_2014-06-09_20-42-35_260595134347_rgbf000110-resize_1-target.png,125,3.057,6,5714,122,meters,jsons/VE125_randls_10.json,1162647,1539020,1969,Man
90,272047,DepthScenes,duration_manipulation_targetAtFixation,jsons/VE125_randls_10.json,http://54.235.29.9/FacialAge/BNav_EC2/DepthDuration/v2_depth_duration_MTurk/v2_DepthDuration_HTML.html#332,332,1707,821,1366,768,8-30-2022,13-55-57,91,depth_duration_stimuli/000469_2014-06-09_19-42-10_260595134347_rgbf000081-resize_1/000469_2014-06-09_19-42-10_260595134347_rgbf000081-resize_1-target.png,125,1.652,8,5005,124,meters,jsons/VE125_randls_10.json,1162647,1539020,1969,Man
91,272047,DepthScenes,duration_manipulation_targetAtFixation,jsons/VE125_randls_10.json,http://54.235.29.9/FacialAge/BNav_EC2/DepthDuration/v2_depth_duration_MTurk/v2_DepthDuration_HTML.html#332,332,1707,821,1366,768,8-30-2022,13-55-57,92,depth_duration_stimuli/000483_2014-06-09_20-41-45_260595134347_rgbf000116-resize_4/000483_2014-06-09_20-41-45_260595134347_rgbf000116-resize_4-target.png,125,1.337,7,9264,127,meters,jsons/VE125_randls_10.json,1162647,1539020,1969,Man
92,272047,DepthScenes,duration_manipulation_targetAtFixation,jsons/VE125_randls_10.json,http://54.235.29.9/FacialAge/BNav_EC2/DepthDuration/v2_depth_duration_MTurk/v2_DepthDuration_HTML.html#332,332,1707,821,1366,768,8-30-2022,13-55-57,93,depth_duration_stimuli/002600_2014-06-24_14-27-04_094959634447_rgbf000074-resize_2/002600_2014-06-24_14-27-04_094959634447_rgbf000074-resize_2-target.png,125,2.7575,6,5747,126,meters,jsons/VE125_randls_10.json,1162647,1539020,1969,Man
93,272047,DepthScenes,duration_manipulation_targetAtFixation,jsons/VE125_randls_10.json,http://54.235.29.9/FacialAge/BNav_EC2/DepthDuration/v2_depth_duration_MTurk/v2_DepthDuration_HTML.html#332,332,1707,821,1366,768,8-30-2022,13-55-57,94,depth_duration_stimuli/003228_2014-05-14_13-42-35_094959634447_rgbf000101-resize_1/003228_2014-05-14_13-42-35_094959634447_rgbf000101-resize_1-target.png,125,1.9680000000000002,8,4354,121,meters,jsons/VE125_randls_10.json,1162647,1539020,1969,Man
94,272047,DepthScenes,duration_manipulation_targetAtFixation,jsons/VE125_randls_10.json,http://54.235.29.9/FacialAge/BNav_EC2/DepthDuration/v2_depth_duration_MTurk/v2_DepthDuration_HTML.html#332,332,1707,821,1366,768,8-30-2022,13-55-57,95,depth_duration_stimuli/001011_2014-06-08_23-18-54_260595134347_rgbf000044-resize_4/001011_2014-06-08_23-18-54_260595134347_rgbf000044-resize_4-target.png,125,2.4730000000000003,9,5454,124,meters,jsons/VE125_randls_10.json,1162647,1539020,1969,Man
95,272047,DepthScenes,duration_manipulation_targetAtFixation,jsons/VE125_randls_10.json,http://54.235.29.9/FacialAge/BNav_EC2/DepthDuration/v2_depth_duration_MTurk/v2_DepthDuration_HTML.html#332,332,1707,821,1366,768,8-30-2022,13-55-57,96,depth_duration_stimuli/002875_2014-06-01_15-19-00_094959634447_rgbf000151-resize_1/002875_2014-06-01_15-19-00_094959634447_rgbf000151-resize_1-target.png,125,1.9675,7,5570,131,meters,jsons/VE125_randls_10.json,1162647,1539020,1969,Man
96,272047,DepthScenes,duration_manipulation_targetAtFixation,jsons/VE125_randls_10.json,http://54.235.29.9/FacialAge/BNav_EC2/DepthDuration/v2_depth_duration_MTurk/v2_DepthDuration_HTML.html#332,332,1707,821,1366,768,8-30-2022,13-55-57,97,depth_duration_stimuli/002279_2014-06-28_18-55-32_260595134347_rgbf000040-resize_5/002279_2014-06-28_18-55-32_260595134347_rgbf000040-resize_5-target.png,125,1.5043333333333,7,8095,127,meters,jsons/VE125_randls_10.json,1162647,1539020,1969,Man
97,272047,DepthScenes,duration_manipulation_targetAtFixation,jsons/VE125_randls_10.json,http://54.235.29.9/FacialAge/BNav_EC2/DepthDuration/v2_depth_duration_MTurk/v2_DepthDuration_HTML.html#332,332,1707,821,1366,768,8-30-2022,13-55-57,98,depth_duration_stimuli/000635_2014-06-08_16-38-42_260595134347_rgbf000106-resize_1/000635_2014-06-08_16-38-42_260595134347_rgbf000106-resize_1-target.png,125,2.074,8,5577,112,meters,jsons/VE125_randls_10.json,1162647,1539020,1969,Man
98,272047,DepthScenes,duration_manipulation_targetAtFixation,jsons/VE125_randls_10.json,http://54.235.29.9/FacialAge/BNav_EC2/DepthDuration/v2_depth_duration_MTurk/v2_DepthDuration_HTML.html#332,332,1707,821,1366,768,8-30-2022,13-55-57,99,depth_duration_stimuli/001540_2014-06-20_17-01-05_260595134347_rgbf000086-resize_2/001540_2014-06-20_17-01-05_260595134347_rgbf000086-resize-original.jpg,125,1.459,0,5949,111,meters,jsons/VE125_randls_10.json,1162647,1539020,1969,Man
99,272047,DepthScenes,duration_manipulation_targetAtFixation,jsons/VE125_randls_10.json,http://54.235.29.9/FacialAge/BNav_EC2/DepthDuration/v2_depth_duration_MTurk/v2_DepthDuration_HTML.html#332,332,1707,821,1366,768,8-30-2022,13-55-57,100,depth_duration_stimuli/002989_2014-06-15_12-25-03_094959634447_rgbf000150-resize_3/002989_2014-06-15_12-25-03_094959634447_rgbf000150-resize_3-target.png,125,4.1975,8,7014,121,meters,jsons/VE125_randls_10.json,1162647,1539020,1969,Man
100,272047,DepthScenes,duration_manipulation_targetAtFixation,jsons/VE125_randls_10.json,http://54.235.29.9/FacialAge/BNav_EC2/DepthDuration/v2_depth_duration_MTurk/v2_DepthDuration_HTML.html#332,332,1707,821,1366,768,8-30-2022,13-55-57,101,depth_duration_stimuli/000866_2014-06-09_20-45-42_260595134347_rgbf000139-resize_1/000866_2014-06-09_20-45-42_260595134347_rgbf000139-resize_1-target.png,125,3.2155,7,5683,120,meters,jsons/VE125_randls_10.json,1162647,1539020,1969,Man
101,272047,DepthScenes,duration_manipulation_targetAtFixation,jsons/VE125_randls_10.json,http://54.235.29.9/FacialAge/BNav_EC2/DepthDuration/v2_depth_duration_MTurk/v2_DepthDuration_HTML.html#332,332,1707,821,1366,768,8-30-2022,13-55-57,102,depth_duration_stimuli/000447_2014-06-08_16-15-46_260595134347_rgbf000130-resize_1/000447_2014-06-08_16-15-46_260595134347_rgbf000130-resize_1-target.png,125,4.479,5,4895,122,meters,jsons/VE125_randls_10.json,1162647,1539020,1969,Man
102,272047,DepthScenes,duration_manipulation_targetAtFixation,jsons/VE125_randls_10.json,http://54.235.29.9/FacialAge/BNav_EC2/DepthDuration/v2_depth_duration_MTurk/v2_DepthDuration_HTML.html#332,332,1707,821,1366,768,8-30-2022,13-55-57,103,depth_duration_stimuli/001447_2014-06-19_17-00-32_260595134347_rgbf000082-resize_5/001447_2014-06-19_17-00-32_260595134347_rgbf000082-resize_5-target.png,125,4.13775,8,4370,132,meters,jsons/VE125_randls_10.json,1162647,1539020,1969,Man
103,272047,DepthScenes,duration_manipulation_targetAtFixation,jsons/VE125_randls_10.json,http://54.235.29.9/FacialAge/BNav_EC2/DepthDuration/v2_depth_duration_MTurk/v2_DepthDuration_HTML.html#332,332,1707,821,1366,768,8-30-2022,13-55-57,104,depth_duration_stimuli/001029_2014-06-08_13-17-57_260595134347_rgbf000065-resize_1/001029_2014-06-08_13-17-57_260595134347_rgbf000065-resize_1-target.png,125,3.0835,8,7281,113,meters,jsons/VE125_randls_10.json,1162647,1539020,1969,Man
104,272047,DepthScenes,duration_manipulation_targetAtFixation,jsons/VE125_randls_10.json,http://54.235.29.9/FacialAge/BNav_EC2/DepthDuration/v2_depth_duration_MTurk/v2_DepthDuration_HTML.html#332,332,1517,730,1366,768,8-30-2022,13-55-57,105,depth_duration_stimuli/000677_2014-06-08_23-10-32_260595134347_rgbf000158-resize_6/000677_2014-06-08_23-10-32_260595134347_rgbf000158-resize_6-target.png,125,3.556,8,19666,132,meters,jsons/VE125_randls_10.json,1162647,1539020,1969,Man
105,272047,DepthScenes,duration_manipulation_targetAtFixation,jsons/VE125_randls_10.json,http://54.235.29.9/FacialAge/BNav_EC2/DepthDuration/v2_depth_duration_MTurk/v2_DepthDuration_HTML.html#332,332,1517,730,1366,768,8-30-2022,13-55-57,106,depth_duration_stimuli/002509_2014-06-24_13-19-22_094959634447_rgbf000077-resize_0/002509_2014-06-24_13-19-22_094959634447_rgbf000077-resize_0-target.png,125,1.3065,8,7133,124,meters,jsons/VE125_randls_10.json,1162647,1539020,1969,Man
106,272047,DepthScenes,duration_manipulation_targetAtFixation,jsons/VE125_randls_10.json,http://54.235.29.9/FacialAge/BNav_EC2/DepthDuration/v2_depth_duration_MTurk/v2_DepthDuration_HTML.html#332,332,1517,730,1366,768,8-30-2022,13-55-57,107,depth_duration_stimuli/003338_2014-05-20_11-01-23_094959634447_rgbf000051-resize_6/003338_2014-05-20_11-01-23_094959634447_rgbf000051-resize_6-target.png,125,1.693,9,4451,119,meters,jsons/VE125_randls_10.json,1162647,1539020,1969,Man
107,272047,DepthScenes,duration_manipulation_targetAtFixation,jsons/VE125_randls_10.json,http://54.235.29.9/FacialAge/BNav_EC2/DepthDuration/v2_depth_duration_MTurk/v2_DepthDuration_HTML.html#332,332,1517,730,1366,768,8-30-2022,13-55-57,108,depth_duration_stimuli/000758_2014-06-08_22-05-08_260595134347_rgbf000085-resize_0/000758_2014-06-08_22-05-08_260595134347_rgbf000085-resize_0-target.png,125,3.3810000000000002,7,4468,124,meters,jsons/VE125_randls_10.json,1162647,1539020,1969,Man
108,272047,DepthScenes,duration_manipulation_targetAtFixation,jsons/VE125_randls_10.json,http://54.235.29.9/FacialAge/BNav_EC2/DepthDuration/v2_depth_duration_MTurk/v2_DepthDuration_HTML.html#332,332,1517,730,1366,768,8-30-2022,13-55-57,109,depth_duration_stimuli/000854_2014-06-09_19-43-13_260595134347_rgbf000066-resize_0/000854_2014-06-09_19-43-13_260595134347_rgbf000066-resize_0-target.png,125,3.068,5,4685,119,meters,jsons/VE125_randls_10.json,1162647,1539020,1969,Man
109,272047,DepthScenes,duration_manipulation_targetAtFixation,jsons/VE125_randls_10.json,http://54.235.29.9/FacialAge/BNav_EC2/DepthDuration/v2_depth_duration_MTurk/v2_DepthDuration_HTML.html#332,332,1517,730,1366,768,8-30-2022,13-55-57,110,depth_duration_stimuli/001810_2014-06-26_20-51-35_260595134347_rgbf000040-resize_3/001810_2014-06-26_20-51-35_260595134347_rgbf000040-resize_3-target.png,125,2.2525,8,3495,111,meters,jsons/VE125_randls_10.json,1162647,1539020,1969,Man
110,272047,DepthScenes,duration_manipulation_targetAtFixation,jsons/VE125_randls_10.json,http://54.235.29.9/FacialAge/BNav_EC2/DepthDuration/v2_depth_duration_MTurk/v2_DepthDuration_HTML.html#332,332,1517,730,1366,768,8-30-2022,13-55-57,111,depth_duration_stimuli/003010_2014-06-15_12-54-35_094959634447_rgbf000112-resize_0/003010_2014-06-15_12-54-35_094959634447_rgbf000112-resize_0-target.png,125,3.1185,7,4536,131,meters,jsons/VE125_randls_10.json,1162647,1539020,1969,Man
111,272047,DepthScenes,duration_manipulation_targetAtFixation,jsons/VE125_randls_10.json,http://54.235.29.9/FacialAge/BNav_EC2/DepthDuration/v2_depth_duration_MTurk/v2_DepthDuration_HTML.html#332,332,1517,730,1366,768,8-30-2022,13-55-57,112,depth_duration_stimuli/001199_2014-06-17_16-03-48_260595134347_rgbf000077-resize_0/001199_2014-06-17_16-03-48_260595134347_rgbf000077-resize_0-target.png,125,3.4375,5,5902,124,meters,jsons/VE125_randls_10.json,1162647,1539020,1969,Man
112,272047,DepthScenes,duration_manipulation_targetAtFixation,jsons/VE125_randls_10.json,http://54.235.29.9/FacialAge/BNav_EC2/DepthDuration/v2_depth_duration_MTurk/v2_DepthDuration_HTML.html#332,332,1517,730,1366,768,8-30-2022,13-55-57,113,depth_duration_stimuli/000502_2014-06-08_23-02-32_260595134347_rgbf000063-resize_4/000502_2014-06-08_23-02-32_260595134347_rgbf000063-resize_4-target.png,125,2.431,8,5151,117,meters,jsons/VE125_randls_10.json,1162647,1539020,1969,Man
113,272047,DepthScenes,duration_manipulation_targetAtFixation,jsons/VE125_randls_10.json,http://54.235.29.9/FacialAge/BNav_EC2/DepthDuration/v2_depth_duration_MTurk/v2_DepthDuration_HTML.html#332,332,1517,730,1366,768,8-30-2022,13-55-57,114,depth_duration_stimuli/002570_2014-06-24_13-59-54_094959634447_rgbf000059-resize_0/002570_2014-06-24_13-59-54_094959634447_rgbf000059-resize_0-target.png,125,4.037,2,10187,125,meters,jsons/VE125_randls_10.json,1162647,1539020,1969,Man
114,272047,DepthScenes,duration_manipulation_targetAtFixation,jsons/VE125_randls_10.json,http://54.235.29.9/FacialAge/BNav_EC2/DepthDuration/v2_depth_duration_MTurk/v2_DepthDuration_HTML.html#332,332,1517,730,1366,768,8-30-2022,13-55-57,115,depth_duration_stimuli/002467_2014-06-28_20-38-07_260595134347_rgbf000026-resize_2/002467_2014-06-28_20-38-07_260595134347_rgbf000026-resize_2-target.png,125,4.742,80,7530,133,meters,jsons/VE125_randls_10.json,1162647,1539020,1969,Man
115,272047,DepthScenes,duration_manipulation_targetAtFixation,jsons/VE125_randls_10.json,http://54.235.29.9/FacialAge/BNav_EC2/DepthDuration/v2_depth_duration_MTurk/v2_DepthDuration_HTML.html#332,332,1517,730,1366,768,8-30-2022,13-55-57,116,depth_duration_stimuli/001170_2014-06-17_15-43-44_260595134347_rgbf000096-resize_6/001170_2014-06-17_15-43-44_260595134347_rgbf000096-resize-original.jpg,125,1.1909999999999998,15,5873,124,meters,jsons/VE125_randls_10.json,1162647,1539020,1969,Man
116,272047,DepthScenes,duration_manipulation_targetAtFixation,jsons/VE125_randls_10.json,http://54.235.29.9/FacialAge/BNav_EC2/DepthDuration/v2_depth_duration_MTurk/v2_DepthDuration_HTML.html#332,332,1517,730,1366,768,8-30-2022,13-55-57,117,depth_duration_stimuli/000682_2014-06-08_23-14-58_260595134347_rgbf000041-resize_5/000682_2014-06-08_23-14-58_260595134347_rgbf000041-resize_5-target.png,125,2.7239999999999998,25,4960,129,meters,jsons/VE125_randls_10.json,1162647,1539020,1969,Man
117,272047,DepthScenes,duration_manipulation_targetAtFixation,jsons/VE125_randls_10.json,http://54.235.29.9/FacialAge/BNav_EC2/DepthDuration/v2_depth_duration_MTurk/v2_DepthDuration_HTML.html#332,332,1517,730,1366,768,8-30-2022,13-55-57,118,depth_duration_stimuli/001650_2014-06-20_12-09-00_260595134347_rgbf000087-resize_3/001650_2014-06-20_12-09-00_260595134347_rgbf000087-resize_3-target.png,125,1.9505,30,3562,130,meters,jsons/VE125_randls_10.json,1162647,1539020,1969,Man
118,272047,DepthScenes,duration_manipulation_targetAtFixation,jsons/VE125_randls_10.json,http://54.235.29.9/FacialAge/BNav_EC2/DepthDuration/v2_depth_duration_MTurk/v2_DepthDuration_HTML.html#332,332,1517,730,1366,768,8-30-2022,13-55-57,119,depth_duration_stimuli/000739_2014-06-08_18-45-58_260595134347_rgbf000068-resize_1/000739_2014-06-08_18-45-58_260595134347_rgbf000068-resize_1-target.png,125,3.534,25,4020,127,meters,jsons/VE125_randls_10.json,1162647,1539020,1969,Man
119,272047,DepthScenes,duration_manipulation_targetAtFixation,jsons/VE125_randls_10.json,http://54.235.29.9/FacialAge/BNav_EC2/DepthDuration/v2_depth_duration_MTurk/v2_DepthDuration_HTML.html#332,332,1517,730,1366,768,8-30-2022,13-55-57,120,depth_duration_stimuli/000734_2014-06-08_17-39-11_260595134347_rgbf000128-resize_2/000734_2014-06-08_17-39-11_260595134347_rgbf000128-resize_2-target.png,125,4.098,12,4075,117,meters,jsons/VE125_randls_10.json,1162647,1539020,1969,Man
120,272047,DepthScenes,duration_manipulation_targetAtFixation,jsons/VE125_randls_10.json,http://54.235.29.9/FacialAge/BNav_EC2/DepthDuration/v2_depth_duration_MTurk/v2_DepthDuration_HTML.html#332,332,1517,730,1366,768,8-30-2022,13-55-57,121,depth_duration_stimuli/002725_2014-06-22_11-47-51_094959634447_rgbf000070-resize_1/002725_2014-06-22_11-47-51_094959634447_rgbf000070-resize_1-target.png,125,2.195,18,5184,134,meters,jsons/VE125_randls_10.json,1162647,1539020,1969,Man
121,272047,DepthScenes,duration_manipulation_targetAtFixation,jsons/VE125_randls_10.json,http://54.235.29.9/FacialAge/BNav_EC2/DepthDuration/v2_depth_duration_MTurk/v2_DepthDuration_HTML.html#332,332,1517,730,1366,768,8-30-2022,13-55-57,122,depth_duration_stimuli/002344_2014-06-28_20-06-29_260595134347_rgbf000030-resize_1/002344_2014-06-28_20-06-29_260595134347_rgbf000030-resize_1-target.png,125,1.5795,16,3220,123,meters,jsons/VE125_randls_10.json,1162647,1539020,1969,Man
122,272047,DepthScenes,duration_manipulation_targetAtFixation,jsons/VE125_randls_10.json,http://54.235.29.9/FacialAge/BNav_EC2/DepthDuration/v2_depth_duration_MTurk/v2_DepthDuration_HTML.html#332,332,1517,730,1366,768,8-30-2022,13-55-57,123,depth_duration_stimuli/000906_2014-06-08_13-35-43_260595134347_rgbf000155-resize_1/000906_2014-06-08_13-35-43_260595134347_rgbf000155-resize_1-target.png,125,2.8489999999999998,18,6417,129,meters,jsons/VE125_randls_10.json,1162647,1539020,1969,Man
123,272047,DepthScenes,duration_manipulation_targetAtFixation,jsons/VE125_randls_10.json,http://54.235.29.9/FacialAge/BNav_EC2/DepthDuration/v2_depth_duration_MTurk/v2_DepthDuration_HTML.html#332,332,1517,730,1366,768,8-30-2022,13-55-57,124,depth_duration_stimuli/002805_2014-06-22_19-54-03_094959634447_rgbf000079-resize_1/002805_2014-06-22_19-54-03_094959634447_rgbf000079-resize_1-target.png,125,3.1439999999999997,15,4630,123,meters,jsons/VE125_randls_10.json,1162647,1539020,1969,Man
124,272047,DepthScenes,duration_manipulation_targetAtFixation,jsons/VE125_randls_10.json,http://54.235.29.9/FacialAge/BNav_EC2/DepthDuration/v2_depth_duration_MTurk/v2_DepthDuration_HTML.html#332,332,1517,730,1366,768,8-30-2022,13-55-57,125,depth_duration_stimuli/003070_2014-06-15_14-58-27_094959634447_rgbf000150-resize_3/003070_2014-06-15_14-58-27_094959634447_rgbf000150-resize_3-target.png,125,2.9415,8,23281,123,meters,jsons/VE125_randls_10.json,1162647,1539020,1969,Man
125,272047,DepthScenes,duration_manipulation_targetAtFixation,jsons/VE125_randls_10.json,http://54.235.29.9/FacialAge/BNav_EC2/DepthDuration/v2_depth_duration_MTurk/v2_DepthDuration_HTML.html#332,332,1517,730,1366,768,8-30-2022,13-55-57,126,depth_duration_stimuli/000943_2014-06-09_19-31-07_260595134347_rgbf000128-resize_1/000943_2014-06-09_19-31-07_260595134347_rgbf000128-resize_1-target.png,125,1.9765,15,5064,127,meters,jsons/VE125_randls_10.json,1162647,1539020,1969,Man
126,272047,DepthScenes,duration_manipulation_targetAtFixation,jsons/VE125_randls_10.json,http://54.235.29.9/FacialAge/BNav_EC2/DepthDuration/v2_depth_duration_MTurk/v2_DepthDuration_HTML.html#332,332,1517,730,1366,768,8-30-2022,13-55-57,127,depth_duration_stimuli/002748_2014-06-22_19-07-22_094959634447_rgbf000078-resize_1/002748_2014-06-22_19-07-22_094959634447_rgbf000078-resize_1-target.png,125,4.6705,42,5235,123,meters,jsons/VE125_randls_10.json,1162647,1539020,1969,Man
127,272047,DepthScenes,duration_manipulation_targetAtFixation,jsons/VE125_randls_10.json,http://54.235.29.9/FacialAge/BNav_EC2/DepthDuration/v2_depth_duration_MTurk/v2_DepthDuration_HTML.html#332,332,1517,730,1366,768,8-30-2022,13-55-57,128,depth_duration_stimuli/002995_2014-06-15_12-31-26_094959634447_rgbf000150-resize_1/002995_2014-06-15_12-31-26_094959634447_rgbf000150-resize_1-target.png,125,3.8360000000000003,16,4808,125,meters,jsons/VE125_randls_10.json,1162647,1539020,1969,Man
128,272047,DepthScenes,duration_manipulation_targetAtFixation,jsons/VE125_randls_10.json,http://54.235.29.9/FacialAge/BNav_EC2/DepthDuration/v2_depth_duration_MTurk/v2_DepthDuration_HTML.html#332,332,1517,730,1366,768,8-30-2022,13-55-57,129,depth_duration_stimuli/000788_2014-06-08_22-34-36_260595134347_rgbf000131-resize_1/000788_2014-06-08_22-34-36_260595134347_rgbf000131-resize_1-target.png,125,3.359,28,4767,125,meters,jsons/VE125_randls_10.json,1162647,1539020,1969,Man
129,272047,DepthScenes,duration_manipulation_targetAtFixation,jsons/VE125_randls_10.json,http://54.235.29.9/FacialAge/BNav_EC2/DepthDuration/v2_depth_duration_MTurk/v2_DepthDuration_HTML.html#332,332,1517,730,1366,768,8-30-2022,13-55-57,130,depth_duration_stimuli/001235_2014-06-17_16-37-36_260595134347_rgbf000084-resize_4/001235_2014-06-17_16-37-36_260595134347_rgbf000084-resize_4-target.png,125,3.6605,17,3841,124,meters,jsons/VE125_randls_10.json,1162647,1539020,1969,Man
130,272047,DepthScenes,duration_manipulation_targetAtFixation,jsons/VE125_randls_10.json,http://54.235.29.9/FacialAge/BNav_EC2/DepthDuration/v2_depth_duration_MTurk/v2_DepthDuration_HTML.html#332,332,1517,730,1366,768,8-30-2022,13-55-57,131,depth_duration_stimuli/002549_2014-06-24_13-41-39_094959634447_rgbf000022-resize_3/002549_2014-06-24_13-41-39_094959634447_rgbf000022-resize_3-target.png,125,1.476,26,3418,123,meters,jsons/VE125_randls_10.json,1162647,1539020,1969,Man
131,272047,DepthScenes,duration_manipulation_targetAtFixation,jsons/VE125_randls_10.json,http://54.235.29.9/FacialAge/BNav_EC2/DepthDuration/v2_depth_duration_MTurk/v2_DepthDuration_HTML.html#332,332,1517,730,1366,768,8-30-2022,13-55-57,132,depth_duration_stimuli/002750_2014-06-22_19-08-03_094959634447_rgbf000094-resize_4/002750_2014-06-22_19-08-03_094959634447_rgbf000094-resize_4-target.png,125,2.354,36,3658,125,meters,jsons/VE125_randls_10.json,1162647,1539020,1969,Man
132,272047,DepthScenes,duration_manipulation_targetAtFixation,jsons/VE125_randls_10.json,http://54.235.29.9/FacialAge/BNav_EC2/DepthDuration/v2_depth_duration_MTurk/v2_DepthDuration_HTML.html#332,332,1517,730,1366,768,8-30-2022,13-55-57,133,depth_duration_stimuli/002445_2014-06-28_20-32-16_260595134347_rgbf000029-resize_4/002445_2014-06-28_20-32-16_260595134347_rgbf000029-resize_4-target.png,125,2.5315,25,3642,125,meters,jsons/VE125_randls_10.json,1162647,1539020,1969,Man
133,272047,DepthScenes,duration_manipulation_targetAtFixation,jsons/VE125_randls_10.json,http://54.235.29.9/FacialAge/BNav_EC2/DepthDuration/v2_depth_duration_MTurk/v2_DepthDuration_HTML.html#332,332,1517,730,1366,768,8-30-2022,13-55-57,134,depth_duration_stimuli/000780_2014-06-08_22-28-29_260595134347_rgbf000126-resize_1/000780_2014-06-08_22-28-29_260595134347_rgbf000126-resize_1-target.png,125,3.3825,28,3195,125,meters,jsons/VE125_randls_10.json,1162647,1539020,1969,Man
134,272047,DepthScenes,duration_manipulation_targetAtFixation,jsons/VE125_randls_10.json,http://54.235.29.9/FacialAge/BNav_EC2/DepthDuration/v2_depth_duration_MTurk/v2_DepthDuration_HTML.html#332,332,1517,730,1366,768,8-30-2022,13-55-57,135,depth_duration_stimuli/002072_2014-06-24_21-48-06_260595134347_rgbf000115-resize_0/002072_2014-06-24_21-48-06_260595134347_rgbf000115-resize-original.jpg,125,4.702,0,3810,124,meters,jsons/VE125_randls_10.json,1162647,1539020,1969,Man
135,272047,DepthScenes,duration_manipulation_targetAtFixation,jsons/VE125_randls_10.json,http://54.235.29.9/FacialAge/BNav_EC2/DepthDuration/v2_depth_duration_MTurk/v2_DepthDuration_HTML.html#332,332,1517,730,1366,768,8-30-2022,13-55-57,136,depth_duration_stimuli/000414_2014-06-04_19-49-13_260595134347_rgbf000044-resize_0/000414_2014-06-04_19-49-13_260595134347_rgbf000044-resize_0-target.png,125,4.329,15,3781,124,meters,jsons/VE125_randls_10.json,1162647,1539020,1969,Man
136,272047,DepthScenes,duration_manipulation_targetAtFixation,jsons/VE125_randls_10.json,http://54.235.29.9/FacialAge/BNav_EC2/DepthDuration/v2_depth_duration_MTurk/v2_DepthDuration_HTML.html#332,332,1517,730,1366,768,8-30-2022,13-55-57,137,depth_duration_stimuli/003129_2014-05-12_10-48-10_094959634447_rgbf000100-resize_0/003129_2014-05-12_10-48-10_094959634447_rgbf000100-resize_0-target.png,125,4.9305,18,3503,126,meters,jsons/VE125_randls_10.json,1162647,1539020,1969,Man
137,272047,DepthScenes,duration_manipulation_targetAtFixation,jsons/VE125_randls_10.json,http://54.235.29.9/FacialAge/BNav_EC2/DepthDuration/v2_depth_duration_MTurk/v2_DepthDuration_HTML.html#332,332,1517,730,1366,768,8-30-2022,13-55-57,138,depth_duration_stimuli/000506_2014-06-08_23-21-00_260595134347_rgbf000070-resize_7/000506_2014-06-08_23-21-00_260595134347_rgbf000070-resize_7-target.png,125,4.0585,18,3779,125,meters,jsons/VE125_randls_10.json,1162647,1539020,1969,Man
138,272047,DepthScenes,duration_manipulation_targetAtFixation,jsons/VE125_randls_10.json,http://54.235.29.9/FacialAge/BNav_EC2/DepthDuration/v2_depth_duration_MTurk/v2_DepthDuration_HTML.html#332,332,1517,730,1366,768,8-30-2022,13-55-57,139,depth_duration_stimuli/003079_2014-06-15_15-18-20_094959634447_rgbf000152-resize_8/003079_2014-06-15_15-18-20_094959634447_rgbf000152-resize_8-target.png,125,2.8775,20,4701,123,meters,jsons/VE125_randls_10.json,1162647,1539020,1969,Man
139,272047,DepthScenes,duration_manipulation_targetAtFixation,jsons/VE125_randls_10.json,http://54.235.29.9/FacialAge/BNav_EC2/DepthDuration/v2_depth_duration_MTurk/v2_DepthDuration_HTML.html#332,332,1517,730,1366,768,8-30-2022,13-55-57,140,depth_duration_stimuli/003492_2014-05-21_15-50-55_094959634447_rgbf000828-resize_1/003492_2014-05-21_15-50-55_094959634447_rgbf000828-resize_1-target.png,125,4.06875,15,5436,124,meters,jsons/VE125_randls_10.json,1162647,1539020,1969,Man
140,272047,DepthScenes,duration_manipulation_targetAtFixation,jsons/VE125_randls_10.json,http://54.235.29.9/FacialAge/BNav_EC2/DepthDuration/v2_depth_duration_MTurk/v2_DepthDuration_HTML.html#332,332,1517,730,1366,768,8-30-2022,13-55-57,141,depth_duration_stimuli/002568_2014-06-24_13-59-21_094959634447_rgbf000062-resize_4/002568_2014-06-24_13-59-21_094959634447_rgbf000062-resize_4-target.png,125,3.015,25,5939,126,meters,jsons/VE125_randls_10.json,1162647,1539020,1969,Man
141,272047,DepthScenes,duration_manipulation_targetAtFixation,jsons/VE125_randls_10.json,http://54.235.29.9/FacialAge/BNav_EC2/DepthDuration/v2_depth_duration_MTurk/v2_DepthDuration_HTML.html#332,332,1517,730,1366,768,8-30-2022,13-55-57,142,depth_duration_stimuli/002763_2014-06-22_19-13-10_094959634447_rgbf000075-resize_4/002763_2014-06-22_19-13-10_094959634447_rgbf000075-resize_4-target.png,125,1.68375,15,4709,124,meters,jsons/VE125_randls_10.json,1162647,1539020,1969,Man
142,272047,DepthScenes,duration_manipulation_targetAtFixation,jsons/VE125_randls_10.json,http://54.235.29.9/FacialAge/BNav_EC2/DepthDuration/v2_depth_duration_MTurk/v2_DepthDuration_HTML.html#332,332,1517,730,1366,768,8-30-2022,13-55-57,143,depth_duration_stimuli/002209_2014-06-28_18-36-10_260595134347_rgbf000051-resize_1/002209_2014-06-28_18-36-10_260595134347_rgbf000051-resize_1-target.png,125,2.057,25,3948,122,meters,jsons/VE125_randls_10.json,1162647,1539020,1969,Man
143,272047,DepthScenes,duration_manipulation_targetAtFixation,jsons/VE125_randls_10.json,http://54.235.29.9/FacialAge/BNav_EC2/DepthDuration/v2_depth_duration_MTurk/v2_DepthDuration_HTML.html#332,332,1517,730,1366,768,8-30-2022,13-55-57,144,depth_duration_stimuli/002153_2014-06-25_21-27-18_260595134347_rgbf000038-resize_5/002153_2014-06-25_21-27-18_260595134347_rgbf000038-resize_5-target.png,125,2.505,56,4615,124,meters,jsons/VE125_randls_10.json,1162647,1539020,1969,Man
144,272047,DepthScenes,duration_manipulation_targetAtFixation,jsons/VE125_randls_10.json,http://54.235.29.9/FacialAge/BNav_EC2/DepthDuration/v2_depth_duration_MTurk/v2_DepthDuration_HTML.html#332,332,1517,730,1366,768,8-30-2022,13-55-57,145,depth_duration_stimuli/002660_2014-06-13_15-44-18_094959634447_rgbf001878-resize_2/002660_2014-06-13_15-44-18_094959634447_rgbf001878-resize_2-target.png,125,3.576,14,4009,123,meters,jsons/VE125_randls_10.json,1162647,1539020,1969,Man
145,272047,DepthScenes,duration_manipulation_targetAtFixation,jsons/VE125_randls_10.json,http://54.235.29.9/FacialAge/BNav_EC2/DepthDuration/v2_depth_duration_MTurk/v2_DepthDuration_HTML.html#332,332,1517,730,1366,768,8-30-2022,13-55-57,146,depth_duration_stimuli/001498_2014-06-19_17-45-14_260595134347_rgbf000129-resize_4/001498_2014-06-19_17-45-14_260595134347_rgbf000129-resize-original.jpg,125,1.4075,0,4693,123,meters,jsons/VE125_randls_10.json,1162647,1539020,1969,Man
146,272047,DepthScenes,duration_manipulation_targetAtFixation,jsons/VE125_randls_10.json,http://54.235.29.9/FacialAge/BNav_EC2/DepthDuration/v2_depth_duration_MTurk/v2_DepthDuration_HTML.html#332,332,1517,730,1366,768,8-30-2022,13-55-57,147,depth_duration_stimuli/002039_2014-06-24_20-22-38_260595134347_rgbf000084-resize_1/002039_2014-06-24_20-22-38_260595134347_rgbf000084-resize_1-target.png,125,4.408,15,3855,124,meters,jsons/VE125_randls_10.json,1162647,1539020,1969,Man
147,272047,DepthScenes,duration_manipulation_targetAtFixation,jsons/VE125_randls_10.json,http://54.235.29.9/FacialAge/BNav_EC2/DepthDuration/v2_depth_duration_MTurk/v2_DepthDuration_HTML.html#332,332,1517,730,1366,768,8-30-2022,13-55-57,148,depth_duration_stimuli/002103_2014-06-25_20-00-40_260595134347_rgbf000049-resize_0/002103_2014-06-25_20-00-40_260595134347_rgbf000049-resize_0-target.png,125,4.105,18,4797,121,meters,jsons/VE125_randls_10.json,1162647,1539020,1969,Man
148,272047,DepthScenes,duration_manipulation_targetAtFixation,jsons/VE125_randls_10.json,http://54.235.29.9/FacialAge/BNav_EC2/DepthDuration/v2_depth_duration_MTurk/v2_DepthDuration_HTML.html#332,332,1517,730,1366,768,8-30-2022,13-55-57,149,depth_duration_stimuli/003621_2014-05-23_18-06-08_094959634447_rgbf000101-resize_1/003621_2014-05-23_18-06-08_094959634447_rgbf000101-resize_1-target.png,125,3.9835,15,6227,115,meters,jsons/VE125_randls_10.json,1162647,1539020,1969,Man
149,272047,DepthScenes,duration_manipulation_targetAtFixation,jsons/VE125_randls_10.json,http://54.235.29.9/FacialAge/BNav_EC2/DepthDuration/v2_depth_duration_MTurk/v2_DepthDuration_HTML.html#332,332,1517,730,1366,768,8-30-2022,13-55-57,150,depth_duration_stimuli/001584_2014-06-20_11-07-43_260595134347_rgbf000002-resize_1/001584_2014-06-20_11-07-43_260595134347_rgbf000002-resize_1-target.png,125,3.53,15,7384,125,meters,jsons/VE125_randls_10.json,1162647,1539020,1969,Man
150,272047,DepthScenes,duration_manipulation_targetAtFixation,jsons/VE125_randls_10.json,http://54.235.29.9/FacialAge/BNav_EC2/DepthDuration/v2_depth_duration_MTurk/v2_DepthDuration_HTML.html#332,332,1517,730,1366,768,8-30-2022,13-55-57,151,depth_duration_stimuli/001016_2014-06-09_16-16-10_260595134347_rgbf000112-resize_5/001016_2014-06-09_16-16-10_260595134347_rgbf000112-resize_5-target.png,125,1.6565,15,9379,119,meters,jsons/VE125_randls_10.json,1162647,1539020,1969,Man
151,272047,DepthScenes,duration_manipulation_targetAtFixation,jsons/VE125_randls_10.json,http://54.235.29.9/FacialAge/BNav_EC2/DepthDuration/v2_depth_duration_MTurk/v2_DepthDuration_HTML.html#332,332,1517,730,1366,768,8-30-2022,13-55-57,152,depth_duration_stimuli/002340_2014-06-28_20-05-46_260595134347_rgbf000113-resize_0/002340_2014-06-28_20-05-46_260595134347_rgbf000113-resize_0-target.png,125,2.4735,25,6493,124,meters,jsons/VE125_randls_10.json,1162647,1539020,1969,Man
152,272047,DepthScenes,duration_manipulation_targetAtFixation,jsons/VE125_randls_10.json,http://54.235.29.9/FacialAge/BNav_EC2/DepthDuration/v2_depth_duration_MTurk/v2_DepthDuration_HTML.html#332,332,1517,730,1366,768,8-30-2022,13-55-57,153,depth_duration_stimuli/000736_2014-06-08_18-24-15_260595134347_rgbf000206-resize_3/000736_2014-06-08_18-24-15_260595134347_rgbf000206-resize_3-target.png,125,3.515,25,5901,121,meters,jsons/VE125_randls_10.json,1162647,1539020,1969,Man
153,272047,DepthScenes,duration_manipulation_targetAtFixation,jsons/VE125_randls_10.json,http://54.235.29.9/FacialAge/BNav_EC2/DepthDuration/v2_depth_duration_MTurk/v2_DepthDuration_HTML.html#332,332,1517,730,1366,768,8-30-2022,13-55-57,154,depth_duration_stimuli/000137_2014-05-20_17-04-49_260595134347_rgbf000120-resize_1/000137_2014-05-20_17-04-49_260595134347_rgbf000120-resize_1-target.png,125,3.786,15,8206,123,meters,jsons/VE125_randls_10.json,1162647,1539020,1969,Man
154,272047,DepthScenes,duration_manipulation_targetAtFixation,jsons/VE125_randls_10.json,http://54.235.29.9/FacialAge/BNav_EC2/DepthDuration/v2_depth_duration_MTurk/v2_DepthDuration_HTML.html#332,332,1517,730,1366,768,8-30-2022,13-55-57,155,depth_duration_stimuli/001175_2014-06-17_15-45-55_260595134347_rgbf000129-resize_4/001175_2014-06-17_15-45-55_260595134347_rgbf000129-resize_4-target.png,125,4.255,55,5392,124,meters,jsons/VE125_randls_10.json,1162647,1539020,1969,Man
155,272047,DepthScenes,duration_manipulation_targetAtFixation,jsons/VE125_randls_10.json,http://54.235.29.9/FacialAge/BNav_EC2/DepthDuration/v2_depth_duration_MTurk/v2_DepthDuration_HTML.html#332,332,1517,730,1366,768,8-30-2022,13-55-57,156,depth_duration_stimuli/003490_2014-05-21_15-50-11_094959634447_rgbf000101-resize_3/003490_2014-05-21_15-50-11_094959634447_rgbf000101-resize_3-target.png,125,3.6445,15,8099,124,meters,jsons/VE125_randls_10.json,1162647,1539020,1969,Man
156,272047,DepthScenes,duration_manipulation_targetAtFixation,jsons/VE125_randls_10.json,http://54.235.29.9/FacialAge/BNav_EC2/DepthDuration/v2_depth_duration_MTurk/v2_DepthDuration_HTML.html#332,332,1517,730,1366,768,8-30-2022,13-55-57,157,depth_duration_stimuli/001164_2014-06-17_15-35-46_260595134347_rgbf000085-resize_3/001164_2014-06-17_15-35-46_260595134347_rgbf000085-resize_3-target.png,125,2.354,25,5142,126,meters,jsons/VE125_randls_10.json,1162647,1539020,1969,Man
157,272047,DepthScenes,duration_manipulation_targetAtFixation,jsons/VE125_randls_10.json,http://54.235.29.9/FacialAge/BNav_EC2/DepthDuration/v2_depth_duration_MTurk/v2_DepthDuration_HTML.html#332,332,1517,730,1366,768,8-30-2022,13-55-57,158,depth_duration_stimuli/001136_2014-06-17_15-19-41_260595134347_rgbf000076-resize_3/001136_2014-06-17_15-19-41_260595134347_rgbf000076-resize_3-target.png,125,1.8655,45,4083,121,meters,jsons/VE125_randls_10.json,1162647,1539020,1969,Man
158,272047,DepthScenes,duration_manipulation_targetAtFixation,jsons/VE125_randls_10.json,http://54.235.29.9/FacialAge/BNav_EC2/DepthDuration/v2_depth_duration_MTurk/v2_DepthDuration_HTML.html#332,332,1517,730,1366,768,8-30-2022,13-55-57,159,depth_duration_stimuli/001092_2014-06-15_17-34-58_260595134347_rgbf000171-resize_3/001092_2014-06-15_17-34-58_260595134347_rgbf000171-resize_3-target.png,125,2.6935,25,3629,117,meters,jsons/VE125_randls_10.json,1162647,1539020,1969,Man
159,272047,DepthScenes,duration_manipulation_targetAtFixation,jsons/VE125_randls_10.json,http://54.235.29.9/FacialAge/BNav_EC2/DepthDuration/v2_depth_duration_MTurk/v2_DepthDuration_HTML.html#332,332,1517,730,1366,768,8-30-2022,13-55-57,160,depth_duration_stimuli/002545_2014-06-24_13-38-53_094959634447_rgbf000080-resize_4/002545_2014-06-24_13-38-53_094959634447_rgbf000080-resize_4-target.png,125,1.9205,14,3995,113,meters,jsons/VE125_randls_10.json,1162647,1539020,1969,Man
160,272047,DepthScenes,duration_manipulation_targetAtFixation,jsons/VE125_randls_10.json,http://54.235.29.9/FacialAge/BNav_EC2/DepthDuration/v2_depth_duration_MTurk/v2_DepthDuration_HTML.html#332,332,1517,730,1366,768,8-30-2022,13-55-57,161,depth_duration_stimuli/001244_2014-06-17_16-47-45_260595134347_rgbf000030-resize_4/001244_2014-06-17_16-47-45_260595134347_rgbf000030-resize_4-target.png,125,2.0425,15,5222,122,meters,jsons/VE125_randls_10.json,1162647,1539020,1969,Man
161,272047,DepthScenes,duration_manipulation_targetAtFixation,jsons/VE125_randls_10.json,http://54.235.29.9/FacialAge/BNav_EC2/DepthDuration/v2_depth_duration_MTurk/v2_DepthDuration_HTML.html#332,332,1517,730,1366,768,8-30-2022,13-55-57,162,depth_duration_stimuli/003495_2014-05-21_16-01-51_094959634447_rgbf000100-resize_3/003495_2014-05-21_16-01-51_094959634447_rgbf000100-resize_3-target.png,125,1.6255,45,5013,123,meters,jsons/VE125_randls_10.json,1162647,1539020,1969,Man
162,272047,DepthScenes,duration_manipulation_targetAtFixation,jsons/VE125_randls_10.json,http://54.235.29.9/FacialAge/BNav_EC2/DepthDuration/v2_depth_duration_MTurk/v2_DepthDuration_HTML.html#332,332,1517,730,1366,768,8-30-2022,13-55-57,163,depth_duration_stimuli/002905_2014-06-03_18-04-43_094959634447_rgbf000151-resize_2/002905_2014-06-03_18-04-43_094959634447_rgbf000151-resize_2-target.png,125,2.0295,11,6493,125,meters,jsons/VE125_randls_10.json,1162647,1539020,1969,Man
163,272047,DepthScenes,duration_manipulation_targetAtFixation,jsons/VE125_randls_10.json,http://54.235.29.9/FacialAge/BNav_EC2/DepthDuration/v2_depth_duration_MTurk/v2_DepthDuration_HTML.html#332,332,1517,730,1366,768,8-30-2022,13-55-57,164,depth_duration_stimuli/003423_2014-05-21_10-23-26_094959634447_rgbf002665-resize_2/003423_2014-05-21_10-23-26_094959634447_rgbf002665-resize_2-target.png,125,3.2575,12,7508,125,meters,jsons/VE125_randls_10.json,1162647,1539020,1969,Man
