,subjID,experimentName,versionName,sequenceName,url,selected_row,windowWidth,windowHeight,screenWidth,screenHeight,startDate,startTime,trial,stimulus,duration,actual_depth,depth_estimate,trial_RT,log_sceneDuration,unitSelection,seq_filepath,experimentTime,totalTime,age,gender
0,273030,DepthScenes,duration_manipulation_targetAtFixation,jsons/v1_VE250_randls_59_rotated.json,http://54.235.29.9/FacialAge/BNav_EC2/DepthDuration/v2_depth_duration_MTurk/v2_DepthDuration_HTML.html#62,62,1677,900,1680,1050,8-20-2022,9-16-19,1,depth_duration_stimuli/000549_2014-06-08_22-10-24_260595134347_rgbf000247-resize_3/000549_2014-06-08_22-10-24_260595134347_rgbf000247-resize_3-target.png,250,1.841,2,3231,254,feet,jsons/v1_VE250_randls_59_rotated.json,478966,627675,44,Man
1,273030,DepthScenes,duration_manipulation_targetAtFixation,jsons/v1_VE250_randls_59_rotated.json,http://54.235.29.9/FacialAge/BNav_EC2/DepthDuration/v2_depth_duration_MTurk/v2_DepthDuration_HTML.html#62,62,1677,900,1680,1050,8-20-2022,9-16-19,2,depth_duration_stimuli/001055_2014-06-08_18-45-35_260595134347_rgbf000111-resize_4/001055_2014-06-08_18-45-35_260595134347_rgbf000111-resize_4-target.png,250,2.4290000000000003,0,2536,253,feet,jsons/v1_VE250_randls_59_rotated.json,478966,627675,44,Man
2,273030,DepthScenes,duration_manipulation_targetAtFixation,jsons/v1_VE250_randls_59_rotated.json,http://54.235.29.9/FacialAge/BNav_EC2/DepthDuration/v2_depth_duration_MTurk/v2_DepthDuration_HTML.html#62,62,1677,900,1680,1050,8-20-2022,9-16-19,3,depth_duration_stimuli/000734_2014-06-08_17-39-11_260595134347_rgbf000128-resize_2/000734_2014-06-08_17-39-11_260595134347_rgbf000128-resize_2-target.png,250,4.098,3,3698,253,feet,jsons/v1_VE250_randls_59_rotated.json,478966,627675,44,Man
3,273030,DepthScenes,duration_manipulation_targetAtFixation,jsons/v1_VE250_randls_59_rotated.json,http://54.235.29.9/FacialAge/BNav_EC2/DepthDuration/v2_depth_duration_MTurk/v2_DepthDuration_HTML.html#62,62,1677,900,1680,1050,8-20-2022,9-16-19,4,depth_duration_stimuli/000739_2014-06-08_18-45-58_260595134347_rgbf000068-resize_1/000739_2014-06-08_18-45-58_260595134347_rgbf000068-resize_1-target.png,250,3.534,7,2505,253,feet,jsons/v1_VE250_randls_59_rotated.json,478966,627675,44,Man
4,273030,DepthScenes,duration_manipulation_targetAtFixation,jsons/v1_VE250_randls_59_rotated.json,http://54.235.29.9/FacialAge/BNav_EC2/DepthDuration/v2_depth_duration_MTurk/v2_DepthDuration_HTML.html#62,62,1677,900,1680,1050,8-20-2022,9-16-19,5,depth_duration_stimuli/000749_2014-06-08_21-55-06_260595134347_rgbf000070-resize_2/000749_2014-06-08_21-55-06_260595134347_rgbf000070-resize_2-target.png,250,2.331,2,2628,248,feet,jsons/v1_VE250_randls_59_rotated.json,478966,627675,44,Man
5,273030,DepthScenes,duration_manipulation_targetAtFixation,jsons/v1_VE250_randls_59_rotated.json,http://54.235.29.9/FacialAge/BNav_EC2/DepthDuration/v2_depth_duration_MTurk/v2_DepthDuration_HTML.html#62,62,1677,900,1680,1050,8-20-2022,9-16-19,6,depth_duration_stimuli/002788_2014-06-22_19-36-03_094959634447_rgbf000088-resize_2/002788_2014-06-22_19-36-03_094959634447_rgbf000088-resize_2-target.png,250,1.6465,5,2493,246,feet,jsons/v1_VE250_randls_59_rotated.json,478966,627675,44,Man
6,273030,DepthScenes,duration_manipulation_targetAtFixation,jsons/v1_VE250_randls_59_rotated.json,http://54.235.29.9/FacialAge/BNav_EC2/DepthDuration/v2_depth_duration_MTurk/v2_DepthDuration_HTML.html#62,62,1677,900,1680,1050,8-20-2022,9-16-19,7,depth_duration_stimuli/001052_2014-06-08_18-24-54_260595134347_rgbf000130-resize_1/001052_2014-06-08_18-24-54_260595134347_rgbf000130-resize_1-target.png,250,4.1045,7,2618,240,feet,jsons/v1_VE250_randls_59_rotated.json,478966,627675,44,Man
7,273030,DepthScenes,duration_manipulation_targetAtFixation,jsons/v1_VE250_randls_59_rotated.json,http://54.235.29.9/FacialAge/BNav_EC2/DepthDuration/v2_depth_duration_MTurk/v2_DepthDuration_HTML.html#62,62,1677,900,1680,1050,8-20-2022,9-16-19,8,depth_duration_stimuli/002988_2014-06-15_12-24-20_094959634447_rgbf000150-resize_1/002988_2014-06-15_12-24-20_094959634447_rgbf000150-resize_1-target.png,250,4.7669999999999995,10,2769,247,feet,jsons/v1_VE250_randls_59_rotated.json,478966,627675,44,Man
8,273030,DepthScenes,duration_manipulation_targetAtFixation,jsons/v1_VE250_randls_59_rotated.json,http://54.235.29.9/FacialAge/BNav_EC2/DepthDuration/v2_depth_duration_MTurk/v2_DepthDuration_HTML.html#62,62,1677,900,1680,1050,8-20-2022,9-16-19,9,depth_duration_stimuli/000191_2014-05-12_17-07-38_260595134347_rgbf000199-resize_0/000191_2014-05-12_17-07-38_260595134347_rgbf000199-resize_0-target.png,250,3.7995,8,2482,247,feet,jsons/v1_VE250_randls_59_rotated.json,478966,627675,44,Man
9,273030,DepthScenes,duration_manipulation_targetAtFixation,jsons/v1_VE250_randls_59_rotated.json,http://54.235.29.9/FacialAge/BNav_EC2/DepthDuration/v2_depth_duration_MTurk/v2_DepthDuration_HTML.html#62,62,1677,900,1680,1050,8-20-2022,9-16-19,10,depth_duration_stimuli/000493_2014-06-09_21-01-18_260595134347_rgbf000196-resize_3/000493_2014-06-09_21-01-18_260595134347_rgbf000196-resize_3-target.png,250,3.44,5,2398,245,feet,jsons/v1_VE250_randls_59_rotated.json,478966,627675,44,Man
10,273030,DepthScenes,duration_manipulation_targetAtFixation,jsons/v1_VE250_randls_59_rotated.json,http://54.235.29.9/FacialAge/BNav_EC2/DepthDuration/v2_depth_duration_MTurk/v2_DepthDuration_HTML.html#62,62,1677,900,1680,1050,8-20-2022,9-16-19,11,depth_duration_stimuli/002678_2014-06-13_16-15-32_094959634447_rgbf000151-resize_6/002678_2014-06-13_16-15-32_094959634447_rgbf000151-resize_6-target.png,250,2.1830000000000003,5,2839,271,feet,jsons/v1_VE250_randls_59_rotated.json,478966,627675,44,Man
11,273030,DepthScenes,duration_manipulation_targetAtFixation,jsons/v1_VE250_randls_59_rotated.json,http://54.235.29.9/FacialAge/BNav_EC2/DepthDuration/v2_depth_duration_MTurk/v2_DepthDuration_HTML.html#62,62,1677,900,1680,1050,8-20-2022,9-16-19,12,depth_duration_stimuli/000368_2014-06-09_15-53-01_260595134347_rgbf000155-resize_2/000368_2014-06-09_15-53-01_260595134347_rgbf000155-resize_2-target.png,250,2.4859999999999998,3,2443,254,feet,jsons/v1_VE250_randls_59_rotated.json,478966,627675,44,Man
12,273030,DepthScenes,duration_manipulation_targetAtFixation,jsons/v1_VE250_randls_59_rotated.json,http://54.235.29.9/FacialAge/BNav_EC2/DepthDuration/v2_depth_duration_MTurk/v2_DepthDuration_HTML.html#62,62,1677,900,1680,1050,8-20-2022,9-16-19,13,depth_duration_stimuli/003495_2014-05-21_16-01-51_094959634447_rgbf000100-resize_3/003495_2014-05-21_16-01-51_094959634447_rgbf000100-resize_3-target.png,250,1.6255,2,2466,246,feet,jsons/v1_VE250_randls_59_rotated.json,478966,627675,44,Man
13,273030,DepthScenes,duration_manipulation_targetAtFixation,jsons/v1_VE250_randls_59_rotated.json,http://54.235.29.9/FacialAge/BNav_EC2/DepthDuration/v2_depth_duration_MTurk/v2_DepthDuration_HTML.html#62,62,1677,900,1680,1050,8-20-2022,9-16-19,14,depth_duration_stimuli/001244_2014-06-17_16-47-45_260595134347_rgbf000030-resize_4/001244_2014-06-17_16-47-45_260595134347_rgbf000030-resize_4-target.png,250,2.0425,3,2344,236,feet,jsons/v1_VE250_randls_59_rotated.json,478966,627675,44,Man
14,273030,DepthScenes,duration_manipulation_targetAtFixation,jsons/v1_VE250_randls_59_rotated.json,http://54.235.29.9/FacialAge/BNav_EC2/DepthDuration/v2_depth_duration_MTurk/v2_DepthDuration_HTML.html#62,62,1677,900,1680,1050,8-20-2022,9-16-19,15,depth_duration_stimuli/003081_2014-06-15_15-19-16_094959634447_rgbf000150-resize_1/003081_2014-06-15_15-19-16_094959634447_rgbf000150-resize_1-target.png,250,3.9125,5,2280,247,feet,jsons/v1_VE250_randls_59_rotated.json,478966,627675,44,Man
15,273030,DepthScenes,duration_manipulation_targetAtFixation,jsons/v1_VE250_randls_59_rotated.json,http://54.235.29.9/FacialAge/BNav_EC2/DepthDuration/v2_depth_duration_MTurk/v2_DepthDuration_HTML.html#62,62,1677,900,1680,1050,8-20-2022,9-16-19,16,depth_duration_stimuli/001417_2014-06-19_16-25-36_260595134347_rgbf000115-resize_5/001417_2014-06-19_16-25-36_260595134347_rgbf000115-resize_5-target.png,250,4.6255,6,2552,254,feet,jsons/v1_VE250_randls_59_rotated.json,478966,627675,44,Man
16,273030,DepthScenes,duration_manipulation_targetAtFixation,jsons/v1_VE250_randls_59_rotated.json,http://54.235.29.9/FacialAge/BNav_EC2/DepthDuration/v2_depth_duration_MTurk/v2_DepthDuration_HTML.html#62,62,1677,900,1680,1050,8-20-2022,9-16-19,17,depth_duration_stimuli/000780_2014-06-08_22-28-29_260595134347_rgbf000126-resize_1/000780_2014-06-08_22-28-29_260595134347_rgbf000126-resize_1-target.png,250,3.3825,5,3521,254,feet,jsons/v1_VE250_randls_59_rotated.json,478966,627675,44,Man
17,273030,DepthScenes,duration_manipulation_targetAtFixation,jsons/v1_VE250_randls_59_rotated.json,http://54.235.29.9/FacialAge/BNav_EC2/DepthDuration/v2_depth_duration_MTurk/v2_DepthDuration_HTML.html#62,62,1677,900,1680,1050,8-20-2022,9-16-19,18,depth_duration_stimuli/002445_2014-06-28_20-32-16_260595134347_rgbf000029-resize_4/002445_2014-06-28_20-32-16_260595134347_rgbf000029-resize_4-target.png,250,2.5315,3,2234,234,feet,jsons/v1_VE250_randls_59_rotated.json,478966,627675,44,Man
18,273030,DepthScenes,duration_manipulation_targetAtFixation,jsons/v1_VE250_randls_59_rotated.json,http://54.235.29.9/FacialAge/BNav_EC2/DepthDuration/v2_depth_duration_MTurk/v2_DepthDuration_HTML.html#62,62,1677,900,1680,1050,8-20-2022,9-16-19,19,depth_duration_stimuli/001498_2014-06-19_17-45-14_260595134347_rgbf000129-resize_4/001498_2014-06-19_17-45-14_260595134347_rgbf000129-resize-original.jpg,250,1.4075,0,4182,249,feet,jsons/v1_VE250_randls_59_rotated.json,478966,627675,44,Man
19,273030,DepthScenes,duration_manipulation_targetAtFixation,jsons/v1_VE250_randls_59_rotated.json,http://54.235.29.9/FacialAge/BNav_EC2/DepthDuration/v2_depth_duration_MTurk/v2_DepthDuration_HTML.html#62,62,1677,900,1680,1050,8-20-2022,9-16-19,20,depth_duration_stimuli/003228_2014-05-14_13-42-35_094959634447_rgbf000101-resize_1/003228_2014-05-14_13-42-35_094959634447_rgbf000101-resize_1-target.png,250,1.9680000000000002,1,2481,254,feet,jsons/v1_VE250_randls_59_rotated.json,478966,627675,44,Man
20,273030,DepthScenes,duration_manipulation_targetAtFixation,jsons/v1_VE250_randls_59_rotated.json,http://54.235.29.9/FacialAge/BNav_EC2/DepthDuration/v2_depth_duration_MTurk/v2_DepthDuration_HTML.html#62,62,1677,900,1680,1050,8-20-2022,9-16-19,21,depth_duration_stimuli/002600_2014-06-24_14-27-04_094959634447_rgbf000074-resize_2/002600_2014-06-24_14-27-04_094959634447_rgbf000074-resize_2-target.png,250,2.7575,4,2486,262,feet,jsons/v1_VE250_randls_59_rotated.json,478966,627675,44,Man
21,273030,DepthScenes,duration_manipulation_targetAtFixation,jsons/v1_VE250_randls_59_rotated.json,http://54.235.29.9/FacialAge/BNav_EC2/DepthDuration/v2_depth_duration_MTurk/v2_DepthDuration_HTML.html#62,62,1677,900,1680,1050,8-20-2022,9-16-19,22,depth_duration_stimuli/001571_2014-06-20_17-21-32_260595134347_rgbf000089-resize_1/001571_2014-06-20_17-21-32_260595134347_rgbf000089-resize_1-target.png,250,1.86,2,2166,255,feet,jsons/v1_VE250_randls_59_rotated.json,478966,627675,44,Man
22,273030,DepthScenes,duration_manipulation_targetAtFixation,jsons/v1_VE250_randls_59_rotated.json,http://54.235.29.9/FacialAge/BNav_EC2/DepthDuration/v2_depth_duration_MTurk/v2_DepthDuration_HTML.html#62,62,1677,900,1680,1050,8-20-2022,9-16-19,23,depth_duration_stimuli/002272_2014-06-28_18-53-56_260595134347_rgbf000067-resize_2/002272_2014-06-28_18-53-56_260595134347_rgbf000067-resize_2-target.png,250,1.138,1,3210,263,feet,jsons/v1_VE250_randls_59_rotated.json,478966,627675,44,Man
23,273030,DepthScenes,duration_manipulation_targetAtFixation,jsons/v1_VE250_randls_59_rotated.json,http://54.235.29.9/FacialAge/BNav_EC2/DepthDuration/v2_depth_duration_MTurk/v2_DepthDuration_HTML.html#62,62,1677,900,1680,1050,8-20-2022,9-16-19,24,depth_duration_stimuli/001828_2014-06-26_21-40-03_260595134347_rgbf000024-resize_0/001828_2014-06-26_21-40-03_260595134347_rgbf000024-resize_0-target.png,250,4.8260000000000005,10,2686,247,feet,jsons/v1_VE250_randls_59_rotated.json,478966,627675,44,Man
24,273030,DepthScenes,duration_manipulation_targetAtFixation,jsons/v1_VE250_randls_59_rotated.json,http://54.235.29.9/FacialAge/BNav_EC2/DepthDuration/v2_depth_duration_MTurk/v2_DepthDuration_HTML.html#62,62,1677,900,1680,1050,8-20-2022,9-16-19,25,depth_duration_stimuli/000009_2014-05-26_14-32-05_260595134347_rgbf000034-resize_3/000009_2014-05-26_14-32-05_260595134347_rgbf000034-resize_3-target.png,250,3.8715,12,2465,254,feet,jsons/v1_VE250_randls_59_rotated.json,478966,627675,44,Man
25,273030,DepthScenes,duration_manipulation_targetAtFixation,jsons/v1_VE250_randls_59_rotated.json,http://54.235.29.9/FacialAge/BNav_EC2/DepthDuration/v2_depth_duration_MTurk/v2_DepthDuration_HTML.html#62,62,1677,900,1680,1050,8-20-2022,9-16-19,26,depth_duration_stimuli/000409_2014-06-04_19-23-33_260595134347_rgbf000067-resize_0/000409_2014-06-04_19-23-33_260595134347_rgbf000067-resize_0-target.png,250,3.7335,5,2128,252,feet,jsons/v1_VE250_randls_59_rotated.json,478966,627675,44,Man
26,273030,DepthScenes,duration_manipulation_targetAtFixation,jsons/v1_VE250_randls_59_rotated.json,http://54.235.29.9/FacialAge/BNav_EC2/DepthDuration/v2_depth_duration_MTurk/v2_DepthDuration_HTML.html#62,62,1677,900,1680,1050,8-20-2022,9-16-19,27,depth_duration_stimuli/002663_2014-06-13_15-50-26_094959634447_rgbf000075-resize_1/002663_2014-06-13_15-50-26_094959634447_rgbf000075-resize_1-target.png,250,4.7495,8,3010,248,feet,jsons/v1_VE250_randls_59_rotated.json,478966,627675,44,Man
27,273030,DepthScenes,duration_manipulation_targetAtFixation,jsons/v1_VE250_randls_59_rotated.json,http://54.235.29.9/FacialAge/BNav_EC2/DepthDuration/v2_depth_duration_MTurk/v2_DepthDuration_HTML.html#62,62,1677,900,1680,1050,8-20-2022,9-16-19,28,depth_duration_stimuli/001392_2014-06-19_16-07-59_260595134347_rgbf000046-resize_1/001392_2014-06-19_16-07-59_260595134347_rgbf000046-resize_1-target.png,250,4.135,10,2435,247,feet,jsons/v1_VE250_randls_59_rotated.json,478966,627675,44,Man
28,273030,DepthScenes,duration_manipulation_targetAtFixation,jsons/v1_VE250_randls_59_rotated.json,http://54.235.29.9/FacialAge/BNav_EC2/DepthDuration/v2_depth_duration_MTurk/v2_DepthDuration_HTML.html#62,62,1677,900,1680,1050,8-20-2022,9-16-19,29,depth_duration_stimuli/001570_2014-06-20_17-21-09_260595134347_rgbf000135-resize_4/001570_2014-06-20_17-21-09_260595134347_rgbf000135-resize_4-target.png,250,4.467,8,2843,253,feet,jsons/v1_VE250_randls_59_rotated.json,478966,627675,44,Man
29,273030,DepthScenes,duration_manipulation_targetAtFixation,jsons/v1_VE250_randls_59_rotated.json,http://54.235.29.9/FacialAge/BNav_EC2/DepthDuration/v2_depth_duration_MTurk/v2_DepthDuration_HTML.html#62,62,1677,900,1680,1050,8-20-2022,9-16-19,30,depth_duration_stimuli/002072_2014-06-24_21-48-06_260595134347_rgbf000115-resize_0/002072_2014-06-24_21-48-06_260595134347_rgbf000115-resize-original.jpg,250,4.702,0,3214,247,feet,jsons/v1_VE250_randls_59_rotated.json,478966,627675,44,Man
30,273030,DepthScenes,duration_manipulation_targetAtFixation,jsons/v1_VE250_randls_59_rotated.json,http://54.235.29.9/FacialAge/BNav_EC2/DepthDuration/v2_depth_duration_MTurk/v2_DepthDuration_HTML.html#62,62,1677,900,1680,1050,8-20-2022,9-16-19,31,depth_duration_stimuli/002344_2014-06-28_20-06-29_260595134347_rgbf000030-resize_1/002344_2014-06-28_20-06-29_260595134347_rgbf000030-resize_1-target.png,250,1.5795,1,2208,244,feet,jsons/v1_VE250_randls_59_rotated.json,478966,627675,44,Man
31,273030,DepthScenes,duration_manipulation_targetAtFixation,jsons/v1_VE250_randls_59_rotated.json,http://54.235.29.9/FacialAge/BNav_EC2/DepthDuration/v2_depth_duration_MTurk/v2_DepthDuration_HTML.html#62,62,1677,900,1680,1050,8-20-2022,9-16-19,32,depth_duration_stimuli/002725_2014-06-22_11-47-51_094959634447_rgbf000070-resize_1/002725_2014-06-22_11-47-51_094959634447_rgbf000070-resize_1-target.png,250,2.195,3,2310,248,feet,jsons/v1_VE250_randls_59_rotated.json,478966,627675,44,Man
32,273030,DepthScenes,duration_manipulation_targetAtFixation,jsons/v1_VE250_randls_59_rotated.json,http://54.235.29.9/FacialAge/BNav_EC2/DepthDuration/v2_depth_duration_MTurk/v2_DepthDuration_HTML.html#62,62,1677,900,1680,1050,8-20-2022,9-16-19,33,depth_duration_stimuli/001100_2014-06-15_17-46-26_260595134347_rgbf000225-resize_2/001100_2014-06-15_17-46-26_260595134347_rgbf000225-resize_2-target.png,250,2.24,2,2330,249,feet,jsons/v1_VE250_randls_59_rotated.json,478966,627675,44,Man
33,273030,DepthScenes,duration_manipulation_targetAtFixation,jsons/v1_VE250_randls_59_rotated.json,http://54.235.29.9/FacialAge/BNav_EC2/DepthDuration/v2_depth_duration_MTurk/v2_DepthDuration_HTML.html#62,62,1677,900,1680,1050,8-20-2022,9-16-19,34,depth_duration_stimuli/002784_2014-06-22_19-26-30_094959634447_rgbf000083-resize_3/002784_2014-06-22_19-26-30_094959634447_rgbf000083-resize_3-target.png,250,1.8046666666667,3,2353,252,feet,jsons/v1_VE250_randls_59_rotated.json,478966,627675,44,Man
34,273030,DepthScenes,duration_manipulation_targetAtFixation,jsons/v1_VE250_randls_59_rotated.json,http://54.235.29.9/FacialAge/BNav_EC2/DepthDuration/v2_depth_duration_MTurk/v2_DepthDuration_HTML.html#62,62,1677,900,1680,1050,8-20-2022,9-16-19,35,depth_duration_stimuli/002750_2014-06-22_19-08-03_094959634447_rgbf000094-resize_4/002750_2014-06-22_19-08-03_094959634447_rgbf000094-resize_4-target.png,250,2.354,4,2268,246,feet,jsons/v1_VE250_randls_59_rotated.json,478966,627675,44,Man
35,273030,DepthScenes,duration_manipulation_targetAtFixation,jsons/v1_VE250_randls_59_rotated.json,http://54.235.29.9/FacialAge/BNav_EC2/DepthDuration/v2_depth_duration_MTurk/v2_DepthDuration_HTML.html#62,62,1677,900,1680,1050,8-20-2022,9-16-19,36,depth_duration_stimuli/002549_2014-06-24_13-41-39_094959634447_rgbf000022-resize_3/002549_2014-06-24_13-41-39_094959634447_rgbf000022-resize_3-target.png,250,1.476,2,2157,247,feet,jsons/v1_VE250_randls_59_rotated.json,478966,627675,44,Man
36,273030,DepthScenes,duration_manipulation_targetAtFixation,jsons/v1_VE250_randls_59_rotated.json,http://54.235.29.9/FacialAge/BNav_EC2/DepthDuration/v2_depth_duration_MTurk/v2_DepthDuration_HTML.html#62,62,1677,900,1680,1050,8-20-2022,9-16-19,37,depth_duration_stimuli/003010_2014-06-15_12-54-35_094959634447_rgbf000112-resize_0/003010_2014-06-15_12-54-35_094959634447_rgbf000112-resize_0-target.png,250,3.1185,6,2298,236,feet,jsons/v1_VE250_randls_59_rotated.json,478966,627675,44,Man
37,273030,DepthScenes,duration_manipulation_targetAtFixation,jsons/v1_VE250_randls_59_rotated.json,http://54.235.29.9/FacialAge/BNav_EC2/DepthDuration/v2_depth_duration_MTurk/v2_DepthDuration_HTML.html#62,62,1677,900,1680,1050,8-20-2022,9-16-19,38,depth_duration_stimuli/001810_2014-06-26_20-51-35_260595134347_rgbf000040-resize_3/001810_2014-06-26_20-51-35_260595134347_rgbf000040-resize_3-target.png,250,2.2525,2,2341,247,feet,jsons/v1_VE250_randls_59_rotated.json,478966,627675,44,Man
38,273030,DepthScenes,duration_manipulation_targetAtFixation,jsons/v1_VE250_randls_59_rotated.json,http://54.235.29.9/FacialAge/BNav_EC2/DepthDuration/v2_depth_duration_MTurk/v2_DepthDuration_HTML.html#62,62,1677,900,1680,1050,8-20-2022,9-16-19,39,depth_duration_stimuli/003083_2014-06-15_15-21-03_094959634447_rgbf000063-resize_1/003083_2014-06-15_15-21-03_094959634447_rgbf000063-resize_1-target.png,250,4.1405,6,3958,247,feet,jsons/v1_VE250_randls_59_rotated.json,478966,627675,44,Man
39,273030,DepthScenes,duration_manipulation_targetAtFixation,jsons/v1_VE250_randls_59_rotated.json,http://54.235.29.9/FacialAge/BNav_EC2/DepthDuration/v2_depth_duration_MTurk/v2_DepthDuration_HTML.html#62,62,1677,900,1680,1050,8-20-2022,9-16-19,40,depth_duration_stimuli/000486_2014-06-09_20-47-20_260595134347_rgbf000143-resize_2/000486_2014-06-09_20-47-20_260595134347_rgbf000143-resize_2-target.png,250,4.8325,8,2393,247,feet,jsons/v1_VE250_randls_59_rotated.json,478966,627675,44,Man
40,273030,DepthScenes,duration_manipulation_targetAtFixation,jsons/v1_VE250_randls_59_rotated.json,http://54.235.29.9/FacialAge/BNav_EC2/DepthDuration/v2_depth_duration_MTurk/v2_DepthDuration_HTML.html#62,62,1677,900,1680,1050,8-20-2022,9-16-19,41,depth_duration_stimuli/002323_2014-06-28_20-01-54_260595134347_rgbf000051-resize_4/002323_2014-06-28_20-01-54_260595134347_rgbf000051-resize_4-target.png,250,3.7310000000000003,8,2757,245,feet,jsons/v1_VE250_randls_59_rotated.json,478966,627675,44,Man
41,273030,DepthScenes,duration_manipulation_targetAtFixation,jsons/v1_VE250_randls_59_rotated.json,http://54.235.29.9/FacialAge/BNav_EC2/DepthDuration/v2_depth_duration_MTurk/v2_DepthDuration_HTML.html#62,62,1677,900,1680,1050,8-20-2022,9-16-19,42,depth_duration_stimuli/000917_2014-06-09_22-45-29_260595134347_rgbf000149-resize_3/000917_2014-06-09_22-45-29_260595134347_rgbf000149-resize_3-target.png,250,4.1865,5,3694,254,feet,jsons/v1_VE250_randls_59_rotated.json,478966,627675,44,Man
42,273030,DepthScenes,duration_manipulation_targetAtFixation,jsons/v1_VE250_randls_59_rotated.json,http://54.235.29.9/FacialAge/BNav_EC2/DepthDuration/v2_depth_duration_MTurk/v2_DepthDuration_HTML.html#62,62,1677,900,1680,1050,8-20-2022,9-16-19,43,depth_duration_stimuli/002949_2014-06-26_15-57-42_094959634447_rgbf000079-resize_1/002949_2014-06-26_15-57-42_094959634447_rgbf000079-resize_1-target.png,250,1.8915,2,2433,247,feet,jsons/v1_VE250_randls_59_rotated.json,478966,627675,44,Man
43,273030,DepthScenes,duration_manipulation_targetAtFixation,jsons/v1_VE250_randls_59_rotated.json,http://54.235.29.9/FacialAge/BNav_EC2/DepthDuration/v2_depth_duration_MTurk/v2_DepthDuration_HTML.html#62,62,1677,900,1680,1050,8-20-2022,9-16-19,44,depth_duration_stimuli/000522_2014-06-08_13-35-06_260595134347_rgbf000244-resize_1/000522_2014-06-08_13-35-06_260595134347_rgbf000244-resize_1-target.png,250,2.3715,1,2080,249,feet,jsons/v1_VE250_randls_59_rotated.json,478966,627675,44,Man
44,273030,DepthScenes,duration_manipulation_targetAtFixation,jsons/v1_VE250_randls_59_rotated.json,http://54.235.29.9/FacialAge/BNav_EC2/DepthDuration/v2_depth_duration_MTurk/v2_DepthDuration_HTML.html#62,62,1677,900,1680,1050,8-20-2022,9-16-19,45,depth_duration_stimuli/000677_2014-06-08_23-10-32_260595134347_rgbf000158-resize_6/000677_2014-06-08_23-10-32_260595134347_rgbf000158-resize_6-target.png,250,3.556,2,2226,246,feet,jsons/v1_VE250_randls_59_rotated.json,478966,627675,44,Man
45,273030,DepthScenes,duration_manipulation_targetAtFixation,jsons/v1_VE250_randls_59_rotated.json,http://54.235.29.9/FacialAge/BNav_EC2/DepthDuration/v2_depth_duration_MTurk/v2_DepthDuration_HTML.html#62,62,1677,900,1680,1050,8-20-2022,9-16-19,46,depth_duration_stimuli/001029_2014-06-08_13-17-57_260595134347_rgbf000065-resize_1/001029_2014-06-08_13-17-57_260595134347_rgbf000065-resize_1-target.png,250,3.0835,3,2222,239,feet,jsons/v1_VE250_randls_59_rotated.json,478966,627675,44,Man
46,273030,DepthScenes,duration_manipulation_targetAtFixation,jsons/v1_VE250_randls_59_rotated.json,http://54.235.29.9/FacialAge/BNav_EC2/DepthDuration/v2_depth_duration_MTurk/v2_DepthDuration_HTML.html#62,62,1677,900,1680,1050,8-20-2022,9-16-19,47,depth_duration_stimuli/000109_2014-05-14_23-41-52_260595134347_rgbf000035-resize_9/000109_2014-05-14_23-41-52_260595134347_rgbf000035-resize_9-target.png,250,1.3545,1,2017,240,feet,jsons/v1_VE250_randls_59_rotated.json,478966,627675,44,Man
47,273030,DepthScenes,duration_manipulation_targetAtFixation,jsons/v1_VE250_randls_59_rotated.json,http://54.235.29.9/FacialAge/BNav_EC2/DepthDuration/v2_depth_duration_MTurk/v2_DepthDuration_HTML.html#62,62,1677,900,1680,1050,8-20-2022,9-16-19,48,depth_duration_stimuli/000470_2014-06-09_19-42-40_260595134347_rgbf000094-resize_1/000470_2014-06-09_19-42-40_260595134347_rgbf000094-resize_1-target.png,250,1.831,1,2245,247,feet,jsons/v1_VE250_randls_59_rotated.json,478966,627675,44,Man
48,273030,DepthScenes,duration_manipulation_targetAtFixation,jsons/v1_VE250_randls_59_rotated.json,http://54.235.29.9/FacialAge/BNav_EC2/DepthDuration/v2_depth_duration_MTurk/v2_DepthDuration_HTML.html#62,62,1677,900,1680,1050,8-20-2022,9-16-19,49,depth_duration_stimuli/001170_2014-06-17_15-43-44_260595134347_rgbf000096-resize_6/001170_2014-06-17_15-43-44_260595134347_rgbf000096-resize-original.jpg,250,1.1909999999999998,0,2645,254,feet,jsons/v1_VE250_randls_59_rotated.json,478966,627675,44,Man
49,273030,DepthScenes,duration_manipulation_targetAtFixation,jsons/v1_VE250_randls_59_rotated.json,http://54.235.29.9/FacialAge/BNav_EC2/DepthDuration/v2_depth_duration_MTurk/v2_DepthDuration_HTML.html#62,62,1677,900,1680,1050,8-20-2022,9-16-19,50,depth_duration_stimuli/003490_2014-05-21_15-50-11_094959634447_rgbf000101-resize_3/003490_2014-05-21_15-50-11_094959634447_rgbf000101-resize_3-target.png,250,3.6445,6,2071,257,feet,jsons/v1_VE250_randls_59_rotated.json,478966,627675,44,Man
50,273030,DepthScenes,duration_manipulation_targetAtFixation,jsons/v1_VE250_randls_59_rotated.json,http://54.235.29.9/FacialAge/BNav_EC2/DepthDuration/v2_depth_duration_MTurk/v2_DepthDuration_HTML.html#62,62,1677,900,1680,1050,8-20-2022,9-16-19,51,depth_duration_stimuli/001175_2014-06-17_15-45-55_260595134347_rgbf000129-resize_4/001175_2014-06-17_15-45-55_260595134347_rgbf000129-resize_4-target.png,250,4.255,10,2202,270,feet,jsons/v1_VE250_randls_59_rotated.json,478966,627675,44,Man
51,273030,DepthScenes,duration_manipulation_targetAtFixation,jsons/v1_VE250_randls_59_rotated.json,http://54.235.29.9/FacialAge/BNav_EC2/DepthDuration/v2_depth_duration_MTurk/v2_DepthDuration_HTML.html#62,62,1677,900,1680,1050,8-20-2022,9-16-19,52,depth_duration_stimuli/002568_2014-06-24_13-59-21_094959634447_rgbf000062-resize_4/002568_2014-06-24_13-59-21_094959634447_rgbf000062-resize_4-target.png,250,3.015,5,2013,237,feet,jsons/v1_VE250_randls_59_rotated.json,478966,627675,44,Man
52,273030,DepthScenes,duration_manipulation_targetAtFixation,jsons/v1_VE250_randls_59_rotated.json,http://54.235.29.9/FacialAge/BNav_EC2/DepthDuration/v2_depth_duration_MTurk/v2_DepthDuration_HTML.html#62,62,1677,900,1680,1050,8-20-2022,9-16-19,53,depth_duration_stimuli/003492_2014-05-21_15-50-55_094959634447_rgbf000828-resize_1/003492_2014-05-21_15-50-55_094959634447_rgbf000828-resize_1-target.png,250,4.06875,6,2182,259,feet,jsons/v1_VE250_randls_59_rotated.json,478966,627675,44,Man
53,273030,DepthScenes,duration_manipulation_targetAtFixation,jsons/v1_VE250_randls_59_rotated.json,http://54.235.29.9/FacialAge/BNav_EC2/DepthDuration/v2_depth_duration_MTurk/v2_DepthDuration_HTML.html#62,62,1677,900,1680,1050,8-20-2022,9-16-19,54,depth_duration_stimuli/001516_2014-06-20_16-25-09_260595134347_rgbf000076-resize_2/001516_2014-06-20_16-25-09_260595134347_rgbf000076-resize_2-target.png,250,1.7445,3,2001,245,feet,jsons/v1_VE250_randls_59_rotated.json,478966,627675,44,Man
54,273030,DepthScenes,duration_manipulation_targetAtFixation,jsons/v1_VE250_randls_59_rotated.json,http://54.235.29.9/FacialAge/BNav_EC2/DepthDuration/v2_depth_duration_MTurk/v2_DepthDuration_HTML.html#62,62,1677,900,1680,1050,8-20-2022,9-16-19,55,depth_duration_stimuli/002118_2014-06-25_20-32-08_260595134347_rgbf000078-resize_1/002118_2014-06-25_20-32-08_260595134347_rgbf000078-resize_1-target.png,250,2.6460000000000004,2,1899,256,feet,jsons/v1_VE250_randls_59_rotated.json,478966,627675,44,Man
55,273030,DepthScenes,duration_manipulation_targetAtFixation,jsons/v1_VE250_randls_59_rotated.json,http://54.235.29.9/FacialAge/BNav_EC2/DepthDuration/v2_depth_duration_MTurk/v2_DepthDuration_HTML.html#62,62,1677,900,1680,1050,8-20-2022,9-16-19,56,depth_duration_stimuli/002425_2014-06-28_20-27-29_260595134347_rgbf000031-resize_8/002425_2014-06-28_20-27-29_260595134347_rgbf000031-resize_8-target.png,250,3.8960000000000004,6,2206,245,feet,jsons/v1_VE250_randls_59_rotated.json,478966,627675,44,Man
56,273030,DepthScenes,duration_manipulation_targetAtFixation,jsons/v1_VE250_randls_59_rotated.json,http://54.235.29.9/FacialAge/BNav_EC2/DepthDuration/v2_depth_duration_MTurk/v2_DepthDuration_HTML.html#62,62,1677,900,1680,1050,8-20-2022,9-16-19,57,depth_duration_stimuli/000642_2014-06-08_16-59-25_260595134347_rgbf000098-resize_2/000642_2014-06-08_16-59-25_260595134347_rgbf000098-resize_2-target.png,250,2.8815,3,2272,237,feet,jsons/v1_VE250_randls_59_rotated.json,478966,627675,44,Man
57,273030,DepthScenes,duration_manipulation_targetAtFixation,jsons/v1_VE250_randls_59_rotated.json,http://54.235.29.9/FacialAge/BNav_EC2/DepthDuration/v2_depth_duration_MTurk/v2_DepthDuration_HTML.html#62,62,1677,900,1680,1050,8-20-2022,9-16-19,58,depth_duration_stimuli/002758_2014-06-22_19-11-20_094959634447_rgbf000128-resize_1/002758_2014-06-22_19-11-20_094959634447_rgbf000128-resize_1-target.png,250,2.555,2,1951,249,feet,jsons/v1_VE250_randls_59_rotated.json,478966,627675,44,Man
58,273030,DepthScenes,duration_manipulation_targetAtFixation,jsons/v1_VE250_randls_59_rotated.json,http://54.235.29.9/FacialAge/BNav_EC2/DepthDuration/v2_depth_duration_MTurk/v2_DepthDuration_HTML.html#62,62,1677,900,1680,1050,8-20-2022,9-16-19,59,depth_duration_stimuli/002630_2014-06-24_14-47-50_094959634447_rgbf000055-resize_1/002630_2014-06-24_14-47-50_094959634447_rgbf000055-resize_1-target.png,250,3.0095,6,1926,254,feet,jsons/v1_VE250_randls_59_rotated.json,478966,627675,44,Man
59,273030,DepthScenes,duration_manipulation_targetAtFixation,jsons/v1_VE250_randls_59_rotated.json,http://54.235.29.9/FacialAge/BNav_EC2/DepthDuration/v2_depth_duration_MTurk/v2_DepthDuration_HTML.html#62,62,1677,900,1680,1050,8-20-2022,9-16-19,60,depth_duration_stimuli/000635_2014-06-08_16-38-42_260595134347_rgbf000106-resize_1/000635_2014-06-08_16-38-42_260595134347_rgbf000106-resize_1-target.png,250,2.074,3,2446,247,feet,jsons/v1_VE250_randls_59_rotated.json,478966,627675,44,Man
60,273030,DepthScenes,duration_manipulation_targetAtFixation,jsons/v1_VE250_randls_59_rotated.json,http://54.235.29.9/FacialAge/BNav_EC2/DepthDuration/v2_depth_duration_MTurk/v2_DepthDuration_HTML.html#62,62,1677,900,1680,1050,8-20-2022,9-16-19,61,depth_duration_stimuli/002279_2014-06-28_18-55-32_260595134347_rgbf000040-resize_5/002279_2014-06-28_18-55-32_260595134347_rgbf000040-resize_5-target.png,250,1.5043333333333,1,2092,254,feet,jsons/v1_VE250_randls_59_rotated.json,478966,627675,44,Man
61,273030,DepthScenes,duration_manipulation_targetAtFixation,jsons/v1_VE250_randls_59_rotated.json,http://54.235.29.9/FacialAge/BNav_EC2/DepthDuration/v2_depth_duration_MTurk/v2_DepthDuration_HTML.html#62,62,1677,900,1680,1050,8-20-2022,9-16-19,62,depth_duration_stimuli/002875_2014-06-01_15-19-00_094959634447_rgbf000151-resize_1/002875_2014-06-01_15-19-00_094959634447_rgbf000151-resize_1-target.png,250,1.9675,1,3539,254,feet,jsons/v1_VE250_randls_59_rotated.json,478966,627675,44,Man
62,273030,DepthScenes,duration_manipulation_targetAtFixation,jsons/v1_VE250_randls_59_rotated.json,http://54.235.29.9/FacialAge/BNav_EC2/DepthDuration/v2_depth_duration_MTurk/v2_DepthDuration_HTML.html#62,62,1677,900,1680,1050,8-20-2022,9-16-19,63,depth_duration_stimuli/001011_2014-06-08_23-18-54_260595134347_rgbf000044-resize_4/001011_2014-06-08_23-18-54_260595134347_rgbf000044-resize_4-target.png,250,2.4730000000000003,3,2333,245,feet,jsons/v1_VE250_randls_59_rotated.json,478966,627675,44,Man
63,273030,DepthScenes,duration_manipulation_targetAtFixation,jsons/v1_VE250_randls_59_rotated.json,http://54.235.29.9/FacialAge/BNav_EC2/DepthDuration/v2_depth_duration_MTurk/v2_DepthDuration_HTML.html#62,62,1677,900,1680,1050,8-20-2022,9-16-19,64,depth_duration_stimuli/002467_2014-06-28_20-38-07_260595134347_rgbf000026-resize_2/002467_2014-06-28_20-38-07_260595134347_rgbf000026-resize_2-target.png,250,4.742,5,2010,263,feet,jsons/v1_VE250_randls_59_rotated.json,478966,627675,44,Man
64,273030,DepthScenes,duration_manipulation_targetAtFixation,jsons/v1_VE250_randls_59_rotated.json,http://54.235.29.9/FacialAge/BNav_EC2/DepthDuration/v2_depth_duration_MTurk/v2_DepthDuration_HTML.html#62,62,1677,900,1680,1050,8-20-2022,9-16-19,65,depth_duration_stimuli/002570_2014-06-24_13-59-54_094959634447_rgbf000059-resize_0/002570_2014-06-24_13-59-54_094959634447_rgbf000059-resize_0-target.png,250,4.037,3,2104,253,feet,jsons/v1_VE250_randls_59_rotated.json,478966,627675,44,Man
65,273030,DepthScenes,duration_manipulation_targetAtFixation,jsons/v1_VE250_randls_59_rotated.json,http://54.235.29.9/FacialAge/BNav_EC2/DepthDuration/v2_depth_duration_MTurk/v2_DepthDuration_HTML.html#62,62,1677,900,1680,1050,8-20-2022,9-16-19,66,depth_duration_stimuli/001540_2014-06-20_17-01-05_260595134347_rgbf000086-resize_2/001540_2014-06-20_17-01-05_260595134347_rgbf000086-resize-original.jpg,250,1.459,0,2473,256,feet,jsons/v1_VE250_randls_59_rotated.json,478966,627675,44,Man
66,273030,DepthScenes,duration_manipulation_targetAtFixation,jsons/v1_VE250_randls_59_rotated.json,http://54.235.29.9/FacialAge/BNav_EC2/DepthDuration/v2_depth_duration_MTurk/v2_DepthDuration_HTML.html#62,62,1677,900,1680,1050,8-20-2022,9-16-19,67,depth_duration_stimuli/001132_2014-06-17_14-48-54_260595134347_rgbf000100-resize_2/001132_2014-06-17_14-48-54_260595134347_rgbf000100-resize_2-target.png,250,3.753,5,2304,248,feet,jsons/v1_VE250_randls_59_rotated.json,478966,627675,44,Man
67,273030,DepthScenes,duration_manipulation_targetAtFixation,jsons/v1_VE250_randls_59_rotated.json,http://54.235.29.9/FacialAge/BNav_EC2/DepthDuration/v2_depth_duration_MTurk/v2_DepthDuration_HTML.html#62,62,1677,900,1680,1050,8-20-2022,9-16-19,68,depth_duration_stimuli/001133_2014-06-17_14-49-16_260595134347_rgbf000100-resize_0/001133_2014-06-17_14-49-16_260595134347_rgbf000100-resize_0-target.png,250,4.2115,4,2338,254,feet,jsons/v1_VE250_randls_59_rotated.json,478966,627675,44,Man
68,273030,DepthScenes,duration_manipulation_targetAtFixation,jsons/v1_VE250_randls_59_rotated.json,http://54.235.29.9/FacialAge/BNav_EC2/DepthDuration/v2_depth_duration_MTurk/v2_DepthDuration_HTML.html#62,62,1677,900,1680,1050,8-20-2022,9-16-19,69,depth_duration_stimuli/000457_2014-06-08_16-52-43_260595134347_rgbf000199-resize_1/000457_2014-06-08_16-52-43_260595134347_rgbf000199-resize_1-target.png,250,3.6489999999999996,4,2387,256,feet,jsons/v1_VE250_randls_59_rotated.json,478966,627675,44,Man
69,273030,DepthScenes,duration_manipulation_targetAtFixation,jsons/v1_VE250_randls_59_rotated.json,http://54.235.29.9/FacialAge/BNav_EC2/DepthDuration/v2_depth_duration_MTurk/v2_DepthDuration_HTML.html#62,62,1677,900,1680,1050,8-20-2022,9-16-19,70,depth_duration_stimuli/000929_2014-06-09_16-33-19_260595134347_rgbf000139-resize_0/000929_2014-06-09_16-33-19_260595134347_rgbf000139-resize_0-target.png,250,2.8680000000000003,3,2261,249,feet,jsons/v1_VE250_randls_59_rotated.json,478966,627675,44,Man
70,273030,DepthScenes,duration_manipulation_targetAtFixation,jsons/v1_VE250_randls_59_rotated.json,http://54.235.29.9/FacialAge/BNav_EC2/DepthDuration/v2_depth_duration_MTurk/v2_DepthDuration_HTML.html#62,62,1677,900,1680,1050,8-20-2022,9-16-19,71,depth_duration_stimuli/003129_2014-05-12_10-48-10_094959634447_rgbf000100-resize_0/003129_2014-05-12_10-48-10_094959634447_rgbf000100-resize_0-target.png,250,4.9305,3,2245,254,feet,jsons/v1_VE250_randls_59_rotated.json,478966,627675,44,Man
71,273030,DepthScenes,duration_manipulation_targetAtFixation,jsons/v1_VE250_randls_59_rotated.json,http://54.235.29.9/FacialAge/BNav_EC2/DepthDuration/v2_depth_duration_MTurk/v2_DepthDuration_HTML.html#62,62,1677,900,1680,1050,8-20-2022,9-16-19,72,depth_duration_stimuli/000414_2014-06-04_19-49-13_260595134347_rgbf000044-resize_0/000414_2014-06-04_19-49-13_260595134347_rgbf000044-resize_0-target.png,250,4.329,8,2146,257,feet,jsons/v1_VE250_randls_59_rotated.json,478966,627675,44,Man
72,273030,DepthScenes,duration_manipulation_targetAtFixation,jsons/v1_VE250_randls_59_rotated.json,http://54.235.29.9/FacialAge/BNav_EC2/DepthDuration/v2_depth_duration_MTurk/v2_DepthDuration_HTML.html#62,62,1677,900,1680,1050,8-20-2022,9-16-19,73,depth_duration_stimuli/002209_2014-06-28_18-36-10_260595134347_rgbf000051-resize_1/002209_2014-06-28_18-36-10_260595134347_rgbf000051-resize_1-target.png,250,2.057,2,2090,247,feet,jsons/v1_VE250_randls_59_rotated.json,478966,627675,44,Man
73,273030,DepthScenes,duration_manipulation_targetAtFixation,jsons/v1_VE250_randls_59_rotated.json,http://54.235.29.9/FacialAge/BNav_EC2/DepthDuration/v2_depth_duration_MTurk/v2_DepthDuration_HTML.html#62,62,1677,900,1680,1050,8-20-2022,9-16-19,74,depth_duration_stimuli/002763_2014-06-22_19-13-10_094959634447_rgbf000075-resize_4/002763_2014-06-22_19-13-10_094959634447_rgbf000075-resize_4-target.png,250,1.68375,3,2112,248,feet,jsons/v1_VE250_randls_59_rotated.json,478966,627675,44,Man
74,273030,DepthScenes,duration_manipulation_targetAtFixation,jsons/v1_VE250_randls_59_rotated.json,http://54.235.29.9/FacialAge/BNav_EC2/DepthDuration/v2_depth_duration_MTurk/v2_DepthDuration_HTML.html#62,62,1677,900,1680,1050,8-20-2022,9-16-19,75,depth_duration_stimuli/002545_2014-06-24_13-38-53_094959634447_rgbf000080-resize_4/002545_2014-06-24_13-38-53_094959634447_rgbf000080-resize_4-target.png,250,1.9205,3,2272,254,feet,jsons/v1_VE250_randls_59_rotated.json,478966,627675,44,Man
75,273030,DepthScenes,duration_manipulation_targetAtFixation,jsons/v1_VE250_randls_59_rotated.json,http://54.235.29.9/FacialAge/BNav_EC2/DepthDuration/v2_depth_duration_MTurk/v2_DepthDuration_HTML.html#62,62,1677,900,1680,1050,8-20-2022,9-16-19,76,depth_duration_stimuli/001092_2014-06-15_17-34-58_260595134347_rgbf000171-resize_3/001092_2014-06-15_17-34-58_260595134347_rgbf000171-resize_3-target.png,250,2.6935,3,2679,233,feet,jsons/v1_VE250_randls_59_rotated.json,478966,627675,44,Man
76,273030,DepthScenes,duration_manipulation_targetAtFixation,jsons/v1_VE250_randls_59_rotated.json,http://54.235.29.9/FacialAge/BNav_EC2/DepthDuration/v2_depth_duration_MTurk/v2_DepthDuration_HTML.html#62,62,1677,900,1680,1050,8-20-2022,9-16-19,77,depth_duration_stimuli/001032_2014-06-08_13-23-17_260595134347_rgbf000021-resize_3/001032_2014-06-08_13-23-17_260595134347_rgbf000021-resize_3-target.png,250,3.2725,2,2207,253,feet,jsons/v1_VE250_randls_59_rotated.json,478966,627675,44,Man
77,273030,DepthScenes,duration_manipulation_targetAtFixation,jsons/v1_VE250_randls_59_rotated.json,http://54.235.29.9/FacialAge/BNav_EC2/DepthDuration/v2_depth_duration_MTurk/v2_DepthDuration_HTML.html#62,62,1677,900,1680,1050,8-20-2022,9-16-19,78,depth_duration_stimuli/001059_2014-06-08_21-53-27_260595134347_rgbf000061-resize_4/001059_2014-06-08_21-53-27_260595134347_rgbf000061-resize_4-target.png,250,2.4185,3,2172,256,feet,jsons/v1_VE250_randls_59_rotated.json,478966,627675,44,Man
78,273030,DepthScenes,duration_manipulation_targetAtFixation,jsons/v1_VE250_randls_59_rotated.json,http://54.235.29.9/FacialAge/BNav_EC2/DepthDuration/v2_depth_duration_MTurk/v2_DepthDuration_HTML.html#62,62,1677,900,1680,1050,8-20-2022,9-16-19,79,depth_duration_stimuli/001447_2014-06-19_17-00-32_260595134347_rgbf000082-resize_5/001447_2014-06-19_17-00-32_260595134347_rgbf000082-resize_5-target.png,250,4.13775,4,2425,255,feet,jsons/v1_VE250_randls_59_rotated.json,478966,627675,44,Man
79,273030,DepthScenes,duration_manipulation_targetAtFixation,jsons/v1_VE250_randls_59_rotated.json,http://54.235.29.9/FacialAge/BNav_EC2/DepthDuration/v2_depth_duration_MTurk/v2_DepthDuration_HTML.html#62,62,1677,900,1680,1050,8-20-2022,9-16-19,80,depth_duration_stimuli/000447_2014-06-08_16-15-46_260595134347_rgbf000130-resize_1/000447_2014-06-08_16-15-46_260595134347_rgbf000130-resize_1-target.png,250,4.479,6,2003,248,feet,jsons/v1_VE250_randls_59_rotated.json,478966,627675,44,Man
80,273030,DepthScenes,duration_manipulation_targetAtFixation,jsons/v1_VE250_randls_59_rotated.json,http://54.235.29.9/FacialAge/BNav_EC2/DepthDuration/v2_depth_duration_MTurk/v2_DepthDuration_HTML.html#62,62,1677,900,1680,1050,8-20-2022,9-16-19,81,depth_duration_stimuli/002136_2014-06-25_21-18-03_260595134347_rgbf000109-resize_3/002136_2014-06-25_21-18-03_260595134347_rgbf000109-resize_3-target.png,250,1.9569999999999999,3,2097,254,feet,jsons/v1_VE250_randls_59_rotated.json,478966,627675,44,Man
81,273030,DepthScenes,duration_manipulation_targetAtFixation,jsons/v1_VE250_randls_59_rotated.json,http://54.235.29.9/FacialAge/BNav_EC2/DepthDuration/v2_depth_duration_MTurk/v2_DepthDuration_HTML.html#62,62,1677,900,1680,1050,8-20-2022,9-16-19,82,depth_duration_stimuli/002964_2014-06-08_17-46-11_094959634447_rgbf000091-resize_4/002964_2014-06-08_17-46-11_094959634447_rgbf000091-resize_4-target.png,250,1.6909999999999998,1,2134,246,feet,jsons/v1_VE250_randls_59_rotated.json,478966,627675,44,Man
82,273030,DepthScenes,duration_manipulation_targetAtFixation,jsons/v1_VE250_randls_59_rotated.json,http://54.235.29.9/FacialAge/BNav_EC2/DepthDuration/v2_depth_duration_MTurk/v2_DepthDuration_HTML.html#62,62,1677,900,1680,1050,8-20-2022,9-16-19,83,depth_duration_stimuli/003048_2014-06-15_13-49-43_094959634447_rgbf000150-resize_1/003048_2014-06-15_13-49-43_094959634447_rgbf000150-resize_1-target.png,250,4.0035,4,2257,254,feet,jsons/v1_VE250_randls_59_rotated.json,478966,627675,44,Man
83,273030,DepthScenes,duration_manipulation_targetAtFixation,jsons/v1_VE250_randls_59_rotated.json,http://54.235.29.9/FacialAge/BNav_EC2/DepthDuration/v2_depth_duration_MTurk/v2_DepthDuration_HTML.html#62,62,1677,900,1680,1050,8-20-2022,9-16-19,84,depth_duration_stimuli/002043_2014-06-24_20-29-38_260595134347_rgbf000039-resize_4/002043_2014-06-24_20-29-38_260595134347_rgbf000039-resize_4-target.png,250,2.8435,4,2286,243,feet,jsons/v1_VE250_randls_59_rotated.json,478966,627675,44,Man
84,273030,DepthScenes,duration_manipulation_targetAtFixation,jsons/v1_VE250_randls_59_rotated.json,http://54.235.29.9/FacialAge/BNav_EC2/DepthDuration/v2_depth_duration_MTurk/v2_DepthDuration_HTML.html#62,62,1677,900,1680,1050,8-20-2022,9-16-19,85,depth_duration_stimuli/001094_2014-06-15_17-36-00_260595134347_rgbf000205-resize_0/001094_2014-06-15_17-36-00_260595134347_rgbf000205-resize_0-target.png,250,4.2175,8,2276,263,feet,jsons/v1_VE250_randls_59_rotated.json,478966,627675,44,Man
85,273030,DepthScenes,duration_manipulation_targetAtFixation,jsons/v1_VE250_randls_59_rotated.json,http://54.235.29.9/FacialAge/BNav_EC2/DepthDuration/v2_depth_duration_MTurk/v2_DepthDuration_HTML.html#62,62,1677,900,1680,1050,8-20-2022,9-16-19,86,depth_duration_stimuli/000692_2014-06-08_13-09-42_260595134347_rgbf000199-resize_2/000692_2014-06-08_13-09-42_260595134347_rgbf000199-resize_2-target.png,250,3.661,4,2165,248,feet,jsons/v1_VE250_randls_59_rotated.json,478966,627675,44,Man
86,273030,DepthScenes,duration_manipulation_targetAtFixation,jsons/v1_VE250_randls_59_rotated.json,http://54.235.29.9/FacialAge/BNav_EC2/DepthDuration/v2_depth_duration_MTurk/v2_DepthDuration_HTML.html#62,62,1677,900,1680,1050,8-20-2022,9-16-19,87,depth_duration_stimuli/000854_2014-06-09_19-43-13_260595134347_rgbf000066-resize_0/000854_2014-06-09_19-43-13_260595134347_rgbf000066-resize_0-target.png,250,3.068,2,2072,241,feet,jsons/v1_VE250_randls_59_rotated.json,478966,627675,44,Man
87,273030,DepthScenes,duration_manipulation_targetAtFixation,jsons/v1_VE250_randls_59_rotated.json,http://54.235.29.9/FacialAge/BNav_EC2/DepthDuration/v2_depth_duration_MTurk/v2_DepthDuration_HTML.html#62,62,1677,900,1680,1050,8-20-2022,9-16-19,88,depth_duration_stimuli/000758_2014-06-08_22-05-08_260595134347_rgbf000085-resize_0/000758_2014-06-08_22-05-08_260595134347_rgbf000085-resize_0-target.png,250,3.3810000000000002,6,2108,263,feet,jsons/v1_VE250_randls_59_rotated.json,478966,627675,44,Man
88,273030,DepthScenes,duration_manipulation_targetAtFixation,jsons/v1_VE250_randls_59_rotated.json,http://54.235.29.9/FacialAge/BNav_EC2/DepthDuration/v2_depth_duration_MTurk/v2_DepthDuration_HTML.html#62,62,1677,900,1680,1050,8-20-2022,9-16-19,89,depth_duration_stimuli/000103_2014-05-14_22-01-17_260595134347_rgbf000152-resize_5/000103_2014-05-14_22-01-17_260595134347_rgbf000152-resize_5-target.png,250,1.993,4,2647,251,feet,jsons/v1_VE250_randls_59_rotated.json,478966,627675,44,Man
89,273030,DepthScenes,duration_manipulation_targetAtFixation,jsons/v1_VE250_randls_59_rotated.json,http://54.235.29.9/FacialAge/BNav_EC2/DepthDuration/v2_depth_duration_MTurk/v2_DepthDuration_HTML.html#62,62,1677,900,1680,1050,8-20-2022,9-16-19,90,depth_duration_stimuli/001555_2014-06-20_17-12-10_260595134347_rgbf000065-resize_4/001555_2014-06-20_17-12-10_260595134347_rgbf000065-resize_4-target.png,250,1.633,1,1974,231,feet,jsons/v1_VE250_randls_59_rotated.json,478966,627675,44,Man
90,273030,DepthScenes,duration_manipulation_targetAtFixation,jsons/v1_VE250_randls_59_rotated.json,http://54.235.29.9/FacialAge/BNav_EC2/DepthDuration/v2_depth_duration_MTurk/v2_DepthDuration_HTML.html#62,62,1677,900,1680,1050,8-20-2022,9-16-19,91,depth_duration_stimuli/002199_2014-06-28_18-33-56_260595134347_rgbf000074-resize_0/002199_2014-06-28_18-33-56_260595134347_rgbf000074-resize_0-target.png,250,1.996,1,1813,247,feet,jsons/v1_VE250_randls_59_rotated.json,478966,627675,44,Man
91,273030,DepthScenes,duration_manipulation_targetAtFixation,jsons/v1_VE250_randls_59_rotated.json,http://54.235.29.9/FacialAge/BNav_EC2/DepthDuration/v2_depth_duration_MTurk/v2_DepthDuration_HTML.html#62,62,1677,900,1680,1050,8-20-2022,9-16-19,92,depth_duration_stimuli/001056_2014-06-08_18-46-44_260595134347_rgbf000068-resize_0/001056_2014-06-08_18-46-44_260595134347_rgbf000068-resize_0-target.png,250,2.6625,3,2056,258,feet,jsons/v1_VE250_randls_59_rotated.json,478966,627675,44,Man
92,273030,DepthScenes,duration_manipulation_targetAtFixation,jsons/v1_VE250_randls_59_rotated.json,http://54.235.29.9/FacialAge/BNav_EC2/DepthDuration/v2_depth_duration_MTurk/v2_DepthDuration_HTML.html#62,62,1677,900,1680,1050,8-20-2022,9-16-19,93,depth_duration_stimuli/001617_2014-06-20_11-35-32_260595134347_rgbf000066-resize_1/001617_2014-06-20_11-35-32_260595134347_rgbf000066-resize_1-target.png,250,3.7910000000000004,6,2123,244,feet,jsons/v1_VE250_randls_59_rotated.json,478966,627675,44,Man
93,273030,DepthScenes,duration_manipulation_targetAtFixation,jsons/v1_VE250_randls_59_rotated.json,http://54.235.29.9/FacialAge/BNav_EC2/DepthDuration/v2_depth_duration_MTurk/v2_DepthDuration_HTML.html#62,62,1677,900,1680,1050,8-20-2022,9-16-19,94,depth_duration_stimuli/001806_2014-06-26_20-50-20_260595134347_rgbf000091-resize_1/001806_2014-06-26_20-50-20_260595134347_rgbf000091-resize_1-target.png,250,2.7305,3,2027,250,feet,jsons/v1_VE250_randls_59_rotated.json,478966,627675,44,Man
94,273030,DepthScenes,duration_manipulation_targetAtFixation,jsons/v1_VE250_randls_59_rotated.json,http://54.235.29.9/FacialAge/BNav_EC2/DepthDuration/v2_depth_duration_MTurk/v2_DepthDuration_HTML.html#62,62,1677,900,1680,1050,8-20-2022,9-16-19,95,depth_duration_stimuli/002414_2014-06-28_20-24-58_260595134347_rgbf000067-resize_4/002414_2014-06-28_20-24-58_260595134347_rgbf000067-resize_4-target.png,250,4.363,5,2205,263,feet,jsons/v1_VE250_randls_59_rotated.json,478966,627675,44,Man
95,273030,DepthScenes,duration_manipulation_targetAtFixation,jsons/v1_VE250_randls_59_rotated.json,http://54.235.29.9/FacialAge/BNav_EC2/DepthDuration/v2_depth_duration_MTurk/v2_DepthDuration_HTML.html#62,62,1677,900,1680,1050,8-20-2022,9-16-19,96,depth_duration_stimuli/000773_2014-06-08_22-24-54_260595134347_rgbf000093-resize_1/000773_2014-06-08_22-24-54_260595134347_rgbf000093-resize_1-target.png,250,4.973,10,2182,248,feet,jsons/v1_VE250_randls_59_rotated.json,478966,627675,44,Man
96,273030,DepthScenes,duration_manipulation_targetAtFixation,jsons/v1_VE250_randls_59_rotated.json,http://54.235.29.9/FacialAge/BNav_EC2/DepthDuration/v2_depth_duration_MTurk/v2_DepthDuration_HTML.html#62,62,1677,900,1680,1050,8-20-2022,9-16-19,97,depth_duration_stimuli/001584_2014-06-20_11-07-43_260595134347_rgbf000002-resize_1/001584_2014-06-20_11-07-43_260595134347_rgbf000002-resize_1-target.png,250,3.53,6,2488,252,feet,jsons/v1_VE250_randls_59_rotated.json,478966,627675,44,Man
97,273030,DepthScenes,duration_manipulation_targetAtFixation,jsons/v1_VE250_randls_59_rotated.json,http://54.235.29.9/FacialAge/BNav_EC2/DepthDuration/v2_depth_duration_MTurk/v2_DepthDuration_HTML.html#62,62,1677,900,1680,1050,8-20-2022,9-16-19,98,depth_duration_stimuli/003621_2014-05-23_18-06-08_094959634447_rgbf000101-resize_1/003621_2014-05-23_18-06-08_094959634447_rgbf000101-resize_1-target.png,250,3.9835,6,2508,247,feet,jsons/v1_VE250_randls_59_rotated.json,478966,627675,44,Man
98,273030,DepthScenes,duration_manipulation_targetAtFixation,jsons/v1_VE250_randls_59_rotated.json,http://54.235.29.9/FacialAge/BNav_EC2/DepthDuration/v2_depth_duration_MTurk/v2_DepthDuration_HTML.html#62,62,1677,900,1680,1050,8-20-2022,9-16-19,99,depth_duration_stimuli/001222_2014-06-17_16-24-06_260595134347_rgbf000073-resize_0/001222_2014-06-17_16-24-06_260595134347_rgbf000073-resize-original.jpg,250,1.4385,0,2531,247,feet,jsons/v1_VE250_randls_59_rotated.json,478966,627675,44,Man
99,273030,DepthScenes,duration_manipulation_targetAtFixation,jsons/v1_VE250_randls_59_rotated.json,http://54.235.29.9/FacialAge/BNav_EC2/DepthDuration/v2_depth_duration_MTurk/v2_DepthDuration_HTML.html#62,62,1677,900,1680,1050,8-20-2022,9-16-19,100,depth_duration_stimuli/002639_2014-06-24_14-51-37_094959634447_rgbf000074-resize_4/002639_2014-06-24_14-51-37_094959634447_rgbf000074-resize_4-target.png,250,4.0375,6,2517,246,feet,jsons/v1_VE250_randls_59_rotated.json,478966,627675,44,Man
100,273030,DepthScenes,duration_manipulation_targetAtFixation,jsons/v1_VE250_randls_59_rotated.json,http://54.235.29.9/FacialAge/BNav_EC2/DepthDuration/v2_depth_duration_MTurk/v2_DepthDuration_HTML.html#62,62,1677,900,1680,1050,8-20-2022,9-16-19,101,depth_duration_stimuli/003292_2014-05-14_21-53-49_094959634447_rgbf000100-resize_2/003292_2014-05-14_21-53-49_094959634447_rgbf000100-resize_2-target.png,250,3.4815,8,2198,254,feet,jsons/v1_VE250_randls_59_rotated.json,478966,627675,44,Man
101,273030,DepthScenes,duration_manipulation_targetAtFixation,jsons/v1_VE250_randls_59_rotated.json,http://54.235.29.9/FacialAge/BNav_EC2/DepthDuration/v2_depth_duration_MTurk/v2_DepthDuration_HTML.html#62,62,1677,900,1680,1050,8-20-2022,9-16-19,102,depth_duration_stimuli/002103_2014-06-25_20-00-40_260595134347_rgbf000049-resize_0/002103_2014-06-25_20-00-40_260595134347_rgbf000049-resize_0-target.png,250,4.105,6,2833,256,feet,jsons/v1_VE250_randls_59_rotated.json,478966,627675,44,Man
102,273030,DepthScenes,duration_manipulation_targetAtFixation,jsons/v1_VE250_randls_59_rotated.json,http://54.235.29.9/FacialAge/BNav_EC2/DepthDuration/v2_depth_duration_MTurk/v2_DepthDuration_HTML.html#62,62,1677,900,1680,1050,8-20-2022,9-16-19,103,depth_duration_stimuli/002039_2014-06-24_20-22-38_260595134347_rgbf000084-resize_1/002039_2014-06-24_20-22-38_260595134347_rgbf000084-resize_1-target.png,250,4.408,7,2334,247,feet,jsons/v1_VE250_randls_59_rotated.json,478966,627675,44,Man
103,273030,DepthScenes,duration_manipulation_targetAtFixation,jsons/v1_VE250_randls_59_rotated.json,http://54.235.29.9/FacialAge/BNav_EC2/DepthDuration/v2_depth_duration_MTurk/v2_DepthDuration_HTML.html#62,62,1677,900,1680,1050,8-20-2022,9-16-19,104,depth_duration_stimuli/001214_2014-06-17_16-13-55_260595134347_rgbf000111-resize_0/001214_2014-06-17_16-13-55_260595134347_rgbf000111-resize_0-target.png,250,2.6505,3,2127,248,feet,jsons/v1_VE250_randls_59_rotated.json,478966,627675,44,Man
104,273030,DepthScenes,duration_manipulation_targetAtFixation,jsons/v1_VE250_randls_59_rotated.json,http://54.235.29.9/FacialAge/BNav_EC2/DepthDuration/v2_depth_duration_MTurk/v2_DepthDuration_HTML.html#62,62,1677,900,1680,1050,8-20-2022,9-16-19,105,depth_duration_stimuli/000810_2014-06-08_17-20-01_260595134347_rgbf000105-resize_0/000810_2014-06-08_17-20-01_260595134347_rgbf000105-resize_0-target.png,250,1.4865,2,2225,246,feet,jsons/v1_VE250_randls_59_rotated.json,478966,627675,44,Man
105,273030,DepthScenes,duration_manipulation_targetAtFixation,jsons/v1_VE250_randls_59_rotated.json,http://54.235.29.9/FacialAge/BNav_EC2/DepthDuration/v2_depth_duration_MTurk/v2_DepthDuration_HTML.html#62,62,1677,900,1680,1050,8-20-2022,9-16-19,106,depth_duration_stimuli/002660_2014-06-13_15-44-18_094959634447_rgbf001878-resize_2/002660_2014-06-13_15-44-18_094959634447_rgbf001878-resize_2-target.png,250,3.576,6,2766,247,feet,jsons/v1_VE250_randls_59_rotated.json,478966,627675,44,Man
106,273030,DepthScenes,duration_manipulation_targetAtFixation,jsons/v1_VE250_randls_59_rotated.json,http://54.235.29.9/FacialAge/BNav_EC2/DepthDuration/v2_depth_duration_MTurk/v2_DepthDuration_HTML.html#62,62,1677,900,1680,1050,8-20-2022,9-16-19,107,depth_duration_stimuli/002153_2014-06-25_21-27-18_260595134347_rgbf000038-resize_5/002153_2014-06-25_21-27-18_260595134347_rgbf000038-resize_5-target.png,250,2.505,4,2055,232,feet,jsons/v1_VE250_randls_59_rotated.json,478966,627675,44,Man
107,273030,DepthScenes,duration_manipulation_targetAtFixation,jsons/v1_VE250_randls_59_rotated.json,http://54.235.29.9/FacialAge/BNav_EC2/DepthDuration/v2_depth_duration_MTurk/v2_DepthDuration_HTML.html#62,62,1677,900,1680,1050,8-20-2022,9-16-19,108,depth_duration_stimuli/001235_2014-06-17_16-37-36_260595134347_rgbf000084-resize_4/001235_2014-06-17_16-37-36_260595134347_rgbf000084-resize_4-target.png,250,3.6605,5,1964,238,feet,jsons/v1_VE250_randls_59_rotated.json,478966,627675,44,Man
108,273030,DepthScenes,duration_manipulation_targetAtFixation,jsons/v1_VE250_randls_59_rotated.json,http://54.235.29.9/FacialAge/BNav_EC2/DepthDuration/v2_depth_duration_MTurk/v2_DepthDuration_HTML.html#62,62,1677,900,1680,1050,8-20-2022,9-16-19,109,depth_duration_stimuli/000788_2014-06-08_22-34-36_260595134347_rgbf000131-resize_1/000788_2014-06-08_22-34-36_260595134347_rgbf000131-resize_1-target.png,250,3.359,4,2241,248,feet,jsons/v1_VE250_randls_59_rotated.json,478966,627675,44,Man
109,273030,DepthScenes,duration_manipulation_targetAtFixation,jsons/v1_VE250_randls_59_rotated.json,http://54.235.29.9/FacialAge/BNav_EC2/DepthDuration/v2_depth_duration_MTurk/v2_DepthDuration_HTML.html#62,62,1677,900,1680,1050,8-20-2022,9-16-19,110,depth_duration_stimuli/000556_2014-06-09_22-42-56_260595134347_rgbf000214-resize_1/000556_2014-06-09_22-42-56_260595134347_rgbf000214-resize_1-target.png,250,4.8415,7,1954,245,feet,jsons/v1_VE250_randls_59_rotated.json,478966,627675,44,Man
110,273030,DepthScenes,duration_manipulation_targetAtFixation,jsons/v1_VE250_randls_59_rotated.json,http://54.235.29.9/FacialAge/BNav_EC2/DepthDuration/v2_depth_duration_MTurk/v2_DepthDuration_HTML.html#62,62,1677,900,1680,1050,8-20-2022,9-16-19,111,depth_duration_stimuli/001158_2014-06-17_15-32-16_260595134347_rgbf000138-resize_2/001158_2014-06-17_15-32-16_260595134347_rgbf000138-resize_2-target.png,250,4.5315,10,6615,252,feet,jsons/v1_VE250_randls_59_rotated.json,478966,627675,44,Man
111,273030,DepthScenes,duration_manipulation_targetAtFixation,jsons/v1_VE250_randls_59_rotated.json,http://54.235.29.9/FacialAge/BNav_EC2/DepthDuration/v2_depth_duration_MTurk/v2_DepthDuration_HTML.html#62,62,1677,900,1680,1050,8-20-2022,9-16-19,112,depth_duration_stimuli/003338_2014-05-20_11-01-23_094959634447_rgbf000051-resize_6/003338_2014-05-20_11-01-23_094959634447_rgbf000051-resize_6-target.png,250,1.693,0,2746,263,feet,jsons/v1_VE250_randls_59_rotated.json,478966,627675,44,Man
112,273030,DepthScenes,duration_manipulation_targetAtFixation,jsons/v1_VE250_randls_59_rotated.json,http://54.235.29.9/FacialAge/BNav_EC2/DepthDuration/v2_depth_duration_MTurk/v2_DepthDuration_HTML.html#62,62,1677,900,1680,1050,8-20-2022,9-16-19,113,depth_duration_stimuli/002509_2014-06-24_13-19-22_094959634447_rgbf000077-resize_0/002509_2014-06-24_13-19-22_094959634447_rgbf000077-resize_0-target.png,250,1.3065,3,4115,249,feet,jsons/v1_VE250_randls_59_rotated.json,478966,627675,44,Man
113,273030,DepthScenes,duration_manipulation_targetAtFixation,jsons/v1_VE250_randls_59_rotated.json,http://54.235.29.9/FacialAge/BNav_EC2/DepthDuration/v2_depth_duration_MTurk/v2_DepthDuration_HTML.html#62,62,1677,900,1680,1050,8-20-2022,9-16-19,114,depth_duration_stimuli/003079_2014-06-15_15-18-20_094959634447_rgbf000152-resize_8/003079_2014-06-15_15-18-20_094959634447_rgbf000152-resize_8-target.png,250,2.8775,5,2936,253,feet,jsons/v1_VE250_randls_59_rotated.json,478966,627675,44,Man
114,273030,DepthScenes,duration_manipulation_targetAtFixation,jsons/v1_VE250_randls_59_rotated.json,http://54.235.29.9/FacialAge/BNav_EC2/DepthDuration/v2_depth_duration_MTurk/v2_DepthDuration_HTML.html#62,62,1677,900,1680,1050,8-20-2022,9-16-19,115,depth_duration_stimuli/000506_2014-06-08_23-21-00_260595134347_rgbf000070-resize_7/000506_2014-06-08_23-21-00_260595134347_rgbf000070-resize_7-target.png,250,4.0585,6,1821,242,feet,jsons/v1_VE250_randls_59_rotated.json,478966,627675,44,Man
115,273030,DepthScenes,duration_manipulation_targetAtFixation,jsons/v1_VE250_randls_59_rotated.json,http://54.235.29.9/FacialAge/BNav_EC2/DepthDuration/v2_depth_duration_MTurk/v2_DepthDuration_HTML.html#62,62,1677,900,1680,1050,8-20-2022,9-16-19,116,depth_duration_stimuli/002805_2014-06-22_19-54-03_094959634447_rgbf000079-resize_1/002805_2014-06-22_19-54-03_094959634447_rgbf000079-resize_1-target.png,250,3.1439999999999997,8,2105,248,feet,jsons/v1_VE250_randls_59_rotated.json,478966,627675,44,Man
116,273030,DepthScenes,duration_manipulation_targetAtFixation,jsons/v1_VE250_randls_59_rotated.json,http://54.235.29.9/FacialAge/BNav_EC2/DepthDuration/v2_depth_duration_MTurk/v2_DepthDuration_HTML.html#62,62,1677,900,1680,1050,8-20-2022,9-16-19,117,depth_duration_stimuli/000906_2014-06-08_13-35-43_260595134347_rgbf000155-resize_1/000906_2014-06-08_13-35-43_260595134347_rgbf000155-resize_1-target.png,250,2.8489999999999998,10,1940,253,feet,jsons/v1_VE250_randls_59_rotated.json,478966,627675,44,Man
117,273030,DepthScenes,duration_manipulation_targetAtFixation,jsons/v1_VE250_randls_59_rotated.json,http://54.235.29.9/FacialAge/BNav_EC2/DepthDuration/v2_depth_duration_MTurk/v2_DepthDuration_HTML.html#62,62,1677,900,1680,1050,8-20-2022,9-16-19,118,depth_duration_stimuli/000866_2014-06-09_20-45-42_260595134347_rgbf000139-resize_1/000866_2014-06-09_20-45-42_260595134347_rgbf000139-resize_1-target.png,250,3.2155,5,2023,246,feet,jsons/v1_VE250_randls_59_rotated.json,478966,627675,44,Man
118,273030,DepthScenes,duration_manipulation_targetAtFixation,jsons/v1_VE250_randls_59_rotated.json,http://54.235.29.9/FacialAge/BNav_EC2/DepthDuration/v2_depth_duration_MTurk/v2_DepthDuration_HTML.html#62,62,1677,900,1680,1050,8-20-2022,9-16-19,119,depth_duration_stimuli/002989_2014-06-15_12-25-03_094959634447_rgbf000150-resize_3/002989_2014-06-15_12-25-03_094959634447_rgbf000150-resize_3-target.png,250,4.1975,10,1978,236,feet,jsons/v1_VE250_randls_59_rotated.json,478966,627675,44,Man
119,273030,DepthScenes,duration_manipulation_targetAtFixation,jsons/v1_VE250_randls_59_rotated.json,http://54.235.29.9/FacialAge/BNav_EC2/DepthDuration/v2_depth_duration_MTurk/v2_DepthDuration_HTML.html#62,62,1677,900,1680,1050,8-20-2022,9-16-19,120,depth_duration_stimuli/000787_2014-06-08_22-33-53_260595134347_rgbf000175-resize_1/000787_2014-06-08_22-33-53_260595134347_rgbf000175-resize-original.jpg,250,4.784,0,2404,254,feet,jsons/v1_VE250_randls_59_rotated.json,478966,627675,44,Man
120,273030,DepthScenes,duration_manipulation_targetAtFixation,jsons/v1_VE250_randls_59_rotated.json,http://54.235.29.9/FacialAge/BNav_EC2/DepthDuration/v2_depth_duration_MTurk/v2_DepthDuration_HTML.html#62,62,1677,900,1680,1050,8-20-2022,9-16-19,121,depth_duration_stimuli/000483_2014-06-09_20-41-45_260595134347_rgbf000116-resize_4/000483_2014-06-09_20-41-45_260595134347_rgbf000116-resize_4-target.png,250,1.337,2,2150,253,feet,jsons/v1_VE250_randls_59_rotated.json,478966,627675,44,Man
121,273030,DepthScenes,duration_manipulation_targetAtFixation,jsons/v1_VE250_randls_59_rotated.json,http://54.235.29.9/FacialAge/BNav_EC2/DepthDuration/v2_depth_duration_MTurk/v2_DepthDuration_HTML.html#62,62,1677,900,1680,1050,8-20-2022,9-16-19,122,depth_duration_stimuli/000469_2014-06-09_19-42-10_260595134347_rgbf000081-resize_1/000469_2014-06-09_19-42-10_260595134347_rgbf000081-resize_1-target.png,250,1.652,1,1958,253,feet,jsons/v1_VE250_randls_59_rotated.json,478966,627675,44,Man
122,273030,DepthScenes,duration_manipulation_targetAtFixation,jsons/v1_VE250_randls_59_rotated.json,http://54.235.29.9/FacialAge/BNav_EC2/DepthDuration/v2_depth_duration_MTurk/v2_DepthDuration_HTML.html#62,62,1677,900,1680,1050,8-20-2022,9-16-19,123,depth_duration_stimuli/000709_2014-06-08_13-51-55_260595134347_rgbf000068-resize_3/000709_2014-06-08_13-51-55_260595134347_rgbf000068-resize_3-target.png,250,1.8030000000000002,3,1978,262,feet,jsons/v1_VE250_randls_59_rotated.json,478966,627675,44,Man
123,273030,DepthScenes,duration_manipulation_targetAtFixation,jsons/v1_VE250_randls_59_rotated.json,http://54.235.29.9/FacialAge/BNav_EC2/DepthDuration/v2_depth_duration_MTurk/v2_DepthDuration_HTML.html#62,62,1677,900,1680,1050,8-20-2022,9-16-19,124,depth_duration_stimuli/002057_2014-06-24_21-00-13_260595134347_rgbf000120-resize_1/002057_2014-06-24_21-00-13_260595134347_rgbf000120-resize_1-target.png,250,2.967,5,2051,247,feet,jsons/v1_VE250_randls_59_rotated.json,478966,627675,44,Man
124,273030,DepthScenes,duration_manipulation_targetAtFixation,jsons/v1_VE250_randls_59_rotated.json,http://54.235.29.9/FacialAge/BNav_EC2/DepthDuration/v2_depth_duration_MTurk/v2_DepthDuration_HTML.html#62,62,1677,900,1680,1050,8-20-2022,9-16-19,125,depth_duration_stimuli/003423_2014-05-21_10-23-26_094959634447_rgbf002665-resize_2/003423_2014-05-21_10-23-26_094959634447_rgbf002665-resize_2-target.png,250,3.2575,10,2591,248,feet,jsons/v1_VE250_randls_59_rotated.json,478966,627675,44,Man
125,273030,DepthScenes,duration_manipulation_targetAtFixation,jsons/v1_VE250_randls_59_rotated.json,http://54.235.29.9/FacialAge/BNav_EC2/DepthDuration/v2_depth_duration_MTurk/v2_DepthDuration_HTML.html#62,62,1677,900,1680,1050,8-20-2022,9-16-19,126,depth_duration_stimuli/002905_2014-06-03_18-04-43_094959634447_rgbf000151-resize_2/002905_2014-06-03_18-04-43_094959634447_rgbf000151-resize_2-target.png,250,2.0295,3,2118,247,feet,jsons/v1_VE250_randls_59_rotated.json,478966,627675,44,Man
126,273030,DepthScenes,duration_manipulation_targetAtFixation,jsons/v1_VE250_randls_59_rotated.json,http://54.235.29.9/FacialAge/BNav_EC2/DepthDuration/v2_depth_duration_MTurk/v2_DepthDuration_HTML.html#62,62,1677,900,1680,1050,8-20-2022,9-16-19,127,depth_duration_stimuli/000665_2014-06-09_20-42-35_260595134347_rgbf000110-resize_1/000665_2014-06-09_20-42-35_260595134347_rgbf000110-resize_1-target.png,250,3.057,4,2127,238,feet,jsons/v1_VE250_randls_59_rotated.json,478966,627675,44,Man
127,273030,DepthScenes,duration_manipulation_targetAtFixation,jsons/v1_VE250_randls_59_rotated.json,http://54.235.29.9/FacialAge/BNav_EC2/DepthDuration/v2_depth_duration_MTurk/v2_DepthDuration_HTML.html#62,62,1677,900,1680,1050,8-20-2022,9-16-19,128,depth_duration_stimuli/001150_2014-06-17_15-27-34_260595134347_rgbf000108-resize_2/001150_2014-06-17_15-27-34_260595134347_rgbf000108-resize_2-target.png,250,4.0325,6,1920,238,feet,jsons/v1_VE250_randls_59_rotated.json,478966,627675,44,Man
128,273030,DepthScenes,duration_manipulation_targetAtFixation,jsons/v1_VE250_randls_59_rotated.json,http://54.235.29.9/FacialAge/BNav_EC2/DepthDuration/v2_depth_duration_MTurk/v2_DepthDuration_HTML.html#62,62,1677,900,1680,1050,8-20-2022,9-16-19,129,depth_duration_stimuli/001450_2014-06-19_17-02-03_260595134347_rgbf000203-resize_4/001450_2014-06-19_17-02-03_260595134347_rgbf000203-resize_4-target.png,250,4.0106666666667,10,2199,248,feet,jsons/v1_VE250_randls_59_rotated.json,478966,627675,44,Man
129,273030,DepthScenes,duration_manipulation_targetAtFixation,jsons/v1_VE250_randls_59_rotated.json,http://54.235.29.9/FacialAge/BNav_EC2/DepthDuration/v2_depth_duration_MTurk/v2_DepthDuration_HTML.html#62,62,1677,900,1680,1050,8-20-2022,9-16-19,130,depth_duration_stimuli/001449_2014-06-19_17-01-27_260595134347_rgbf000116-resize_2/001449_2014-06-19_17-01-27_260595134347_rgbf000116-resize_2-target.png,250,3.452,3,2251,247,feet,jsons/v1_VE250_randls_59_rotated.json,478966,627675,44,Man
130,273030,DepthScenes,duration_manipulation_targetAtFixation,jsons/v1_VE250_randls_59_rotated.json,http://54.235.29.9/FacialAge/BNav_EC2/DepthDuration/v2_depth_duration_MTurk/v2_DepthDuration_HTML.html#62,62,1677,900,1680,1050,8-20-2022,9-16-19,131,depth_duration_stimuli/000943_2014-06-09_19-31-07_260595134347_rgbf000128-resize_1/000943_2014-06-09_19-31-07_260595134347_rgbf000128-resize_1-target.png,250,1.9765,4,2394,264,feet,jsons/v1_VE250_randls_59_rotated.json,478966,627675,44,Man
131,273030,DepthScenes,duration_manipulation_targetAtFixation,jsons/v1_VE250_randls_59_rotated.json,http://54.235.29.9/FacialAge/BNav_EC2/DepthDuration/v2_depth_duration_MTurk/v2_DepthDuration_HTML.html#62,62,1677,900,1680,1050,8-20-2022,9-16-19,132,depth_duration_stimuli/003070_2014-06-15_14-58-27_094959634447_rgbf000150-resize_3/003070_2014-06-15_14-58-27_094959634447_rgbf000150-resize_3-target.png,250,2.9415,6,1934,252,feet,jsons/v1_VE250_randls_59_rotated.json,478966,627675,44,Man
132,273030,DepthScenes,duration_manipulation_targetAtFixation,jsons/v1_VE250_randls_59_rotated.json,http://54.235.29.9/FacialAge/BNav_EC2/DepthDuration/v2_depth_duration_MTurk/v2_DepthDuration_HTML.html#62,62,1677,900,1680,1050,8-20-2022,9-16-19,133,depth_duration_stimuli/000927_2014-06-09_16-32-30_260595134347_rgbf000123-resize_3/000927_2014-06-09_16-32-30_260595134347_rgbf000123-resize_3-target.png,250,2.6785,7,2474,260,feet,jsons/v1_VE250_randls_59_rotated.json,478966,627675,44,Man
133,273030,DepthScenes,duration_manipulation_targetAtFixation,jsons/v1_VE250_randls_59_rotated.json,http://54.235.29.9/FacialAge/BNav_EC2/DepthDuration/v2_depth_duration_MTurk/v2_DepthDuration_HTML.html#62,62,1677,900,1680,1050,8-20-2022,9-16-19,134,depth_duration_stimuli/001110_2014-06-15_17-25-28_260595134347_rgbf000150-resize_1/001110_2014-06-15_17-25-28_260595134347_rgbf000150-resize_1-target.png,250,1.7115,5,2745,253,feet,jsons/v1_VE250_randls_59_rotated.json,478966,627675,44,Man
134,273030,DepthScenes,duration_manipulation_targetAtFixation,jsons/v1_VE250_randls_59_rotated.json,http://54.235.29.9/FacialAge/BNav_EC2/DepthDuration/v2_depth_duration_MTurk/v2_DepthDuration_HTML.html#62,62,1677,900,1680,1050,8-20-2022,9-16-19,135,depth_duration_stimuli/000375_2014-06-08_11-17-29_260595134347_rgbf000133-resize_2/000375_2014-06-08_11-17-29_260595134347_rgbf000133-resize-original.jpg,250,4.718,0,2218,262,feet,jsons/v1_VE250_randls_59_rotated.json,478966,627675,44,Man
135,273030,DepthScenes,duration_manipulation_targetAtFixation,jsons/v1_VE250_randls_59_rotated.json,http://54.235.29.9/FacialAge/BNav_EC2/DepthDuration/v2_depth_duration_MTurk/v2_DepthDuration_HTML.html#62,62,1677,900,1680,1050,8-20-2022,9-16-19,136,depth_duration_stimuli/000691_2014-06-08_13-08-50_260595134347_rgbf000132-resize_3/000691_2014-06-08_13-08-50_260595134347_rgbf000132-resize_3-target.png,250,4.1530000000000005,6,1970,254,feet,jsons/v1_VE250_randls_59_rotated.json,478966,627675,44,Man
136,273030,DepthScenes,duration_manipulation_targetAtFixation,jsons/v1_VE250_randls_59_rotated.json,http://54.235.29.9/FacialAge/BNav_EC2/DepthDuration/v2_depth_duration_MTurk/v2_DepthDuration_HTML.html#62,62,1677,900,1680,1050,8-20-2022,9-16-19,137,depth_duration_stimuli/002213_2014-06-28_18-37-58_260595134347_rgbf000055-resize_1/002213_2014-06-28_18-37-58_260595134347_rgbf000055-resize_1-target.png,250,3.62,10,4175,248,feet,jsons/v1_VE250_randls_59_rotated.json,478966,627675,44,Man
137,273030,DepthScenes,duration_manipulation_targetAtFixation,jsons/v1_VE250_randls_59_rotated.json,http://54.235.29.9/FacialAge/BNav_EC2/DepthDuration/v2_depth_duration_MTurk/v2_DepthDuration_HTML.html#62,62,1677,900,1680,1050,8-20-2022,9-16-19,138,depth_duration_stimuli/001136_2014-06-17_15-19-41_260595134347_rgbf000076-resize_3/001136_2014-06-17_15-19-41_260595134347_rgbf000076-resize_3-target.png,250,1.8655,4,2170,252,feet,jsons/v1_VE250_randls_59_rotated.json,478966,627675,44,Man
138,273030,DepthScenes,duration_manipulation_targetAtFixation,jsons/v1_VE250_randls_59_rotated.json,http://54.235.29.9/FacialAge/BNav_EC2/DepthDuration/v2_depth_duration_MTurk/v2_DepthDuration_HTML.html#62,62,1677,900,1680,1050,8-20-2022,9-16-19,139,depth_duration_stimuli/001164_2014-06-17_15-35-46_260595134347_rgbf000085-resize_3/001164_2014-06-17_15-35-46_260595134347_rgbf000085-resize_3-target.png,250,2.354,4,2140,253,feet,jsons/v1_VE250_randls_59_rotated.json,478966,627675,44,Man
139,273030,DepthScenes,duration_manipulation_targetAtFixation,jsons/v1_VE250_randls_59_rotated.json,http://54.235.29.9/FacialAge/BNav_EC2/DepthDuration/v2_depth_duration_MTurk/v2_DepthDuration_HTML.html#62,62,1677,900,1680,1050,8-20-2022,9-16-19,140,depth_duration_stimuli/000502_2014-06-08_23-02-32_260595134347_rgbf000063-resize_4/000502_2014-06-08_23-02-32_260595134347_rgbf000063-resize_4-target.png,250,2.431,3,1903,248,feet,jsons/v1_VE250_randls_59_rotated.json,478966,627675,44,Man
140,273030,DepthScenes,duration_manipulation_targetAtFixation,jsons/v1_VE250_randls_59_rotated.json,http://54.235.29.9/FacialAge/BNav_EC2/DepthDuration/v2_depth_duration_MTurk/v2_DepthDuration_HTML.html#62,62,1677,900,1680,1050,8-20-2022,9-16-19,141,depth_duration_stimuli/001199_2014-06-17_16-03-48_260595134347_rgbf000077-resize_0/001199_2014-06-17_16-03-48_260595134347_rgbf000077-resize_0-target.png,250,3.4375,6,2184,267,feet,jsons/v1_VE250_randls_59_rotated.json,478966,627675,44,Man
141,273030,DepthScenes,duration_manipulation_targetAtFixation,jsons/v1_VE250_randls_59_rotated.json,http://54.235.29.9/FacialAge/BNav_EC2/DepthDuration/v2_depth_duration_MTurk/v2_DepthDuration_HTML.html#62,62,1677,900,1680,1050,8-20-2022,9-16-19,142,depth_duration_stimuli/002657_2014-06-13_15-29-54_094959634447_rgbf000150-resize_1/002657_2014-06-13_15-29-54_094959634447_rgbf000150-resize_1-target.png,250,4.919,10,2415,237,feet,jsons/v1_VE250_randls_59_rotated.json,478966,627675,44,Man
142,273030,DepthScenes,duration_manipulation_targetAtFixation,jsons/v1_VE250_randls_59_rotated.json,http://54.235.29.9/FacialAge/BNav_EC2/DepthDuration/v2_depth_duration_MTurk/v2_DepthDuration_HTML.html#62,62,1677,900,1680,1050,8-20-2022,9-16-19,143,depth_duration_stimuli/002375_2014-06-28_20-13-44_260595134347_rgbf000032-resize_1/002375_2014-06-28_20-13-44_260595134347_rgbf000032-resize_1-target.png,250,4.0175,4,3327,248,feet,jsons/v1_VE250_randls_59_rotated.json,478966,627675,44,Man
143,273030,DepthScenes,duration_manipulation_targetAtFixation,jsons/v1_VE250_randls_59_rotated.json,http://54.235.29.9/FacialAge/BNav_EC2/DepthDuration/v2_depth_duration_MTurk/v2_DepthDuration_HTML.html#62,62,1677,900,1680,1050,8-20-2022,9-16-19,144,depth_duration_stimuli/003587_2014-05-23_16-48-02_094959634447_rgbf002384-resize_2/003587_2014-05-23_16-48-02_094959634447_rgbf002384-resize_2-target.png,250,1.357,2,4085,251,feet,jsons/v1_VE250_randls_59_rotated.json,478966,627675,44,Man
144,273030,DepthScenes,duration_manipulation_targetAtFixation,jsons/v1_VE250_randls_59_rotated.json,http://54.235.29.9/FacialAge/BNav_EC2/DepthDuration/v2_depth_duration_MTurk/v2_DepthDuration_HTML.html#62,62,1677,900,1680,1050,8-20-2022,9-16-19,145,depth_duration_stimuli/001167_2014-06-17_15-38-07_260595134347_rgbf000108-resize_0/001167_2014-06-17_15-38-07_260595134347_rgbf000108-resize_0-target.png,250,1.8505,3,2420,253,feet,jsons/v1_VE250_randls_59_rotated.json,478966,627675,44,Man
145,273030,DepthScenes,duration_manipulation_targetAtFixation,jsons/v1_VE250_randls_59_rotated.json,http://54.235.29.9/FacialAge/BNav_EC2/DepthDuration/v2_depth_duration_MTurk/v2_DepthDuration_HTML.html#62,62,1677,900,1680,1050,8-20-2022,9-16-19,146,depth_duration_stimuli/001650_2014-06-20_12-09-00_260595134347_rgbf000087-resize_3/001650_2014-06-20_12-09-00_260595134347_rgbf000087-resize_3-target.png,250,1.9505,1,1871,247,feet,jsons/v1_VE250_randls_59_rotated.json,478966,627675,44,Man
146,273030,DepthScenes,duration_manipulation_targetAtFixation,jsons/v1_VE250_randls_59_rotated.json,http://54.235.29.9/FacialAge/BNav_EC2/DepthDuration/v2_depth_duration_MTurk/v2_DepthDuration_HTML.html#62,62,1677,900,1680,1050,8-20-2022,9-16-19,147,depth_duration_stimuli/000682_2014-06-08_23-14-58_260595134347_rgbf000041-resize_5/000682_2014-06-08_23-14-58_260595134347_rgbf000041-resize_5-target.png,250,2.7239999999999998,3,1998,247,feet,jsons/v1_VE250_randls_59_rotated.json,478966,627675,44,Man
147,273030,DepthScenes,duration_manipulation_targetAtFixation,jsons/v1_VE250_randls_59_rotated.json,http://54.235.29.9/FacialAge/BNav_EC2/DepthDuration/v2_depth_duration_MTurk/v2_DepthDuration_HTML.html#62,62,1677,900,1680,1050,8-20-2022,9-16-19,148,depth_duration_stimuli/002995_2014-06-15_12-31-26_094959634447_rgbf000150-resize_1/002995_2014-06-15_12-31-26_094959634447_rgbf000150-resize_1-target.png,250,3.8360000000000003,9,2107,262,feet,jsons/v1_VE250_randls_59_rotated.json,478966,627675,44,Man
148,273030,DepthScenes,duration_manipulation_targetAtFixation,jsons/v1_VE250_randls_59_rotated.json,http://54.235.29.9/FacialAge/BNav_EC2/DepthDuration/v2_depth_duration_MTurk/v2_DepthDuration_HTML.html#62,62,1677,900,1680,1050,8-20-2022,9-16-19,149,depth_duration_stimuli/002748_2014-06-22_19-07-22_094959634447_rgbf000078-resize_1/002748_2014-06-22_19-07-22_094959634447_rgbf000078-resize_1-target.png,250,4.6705,12,2094,246,feet,jsons/v1_VE250_randls_59_rotated.json,478966,627675,44,Man
149,273030,DepthScenes,duration_manipulation_targetAtFixation,jsons/v1_VE250_randls_59_rotated.json,http://54.235.29.9/FacialAge/BNav_EC2/DepthDuration/v2_depth_duration_MTurk/v2_DepthDuration_HTML.html#62,62,1677,900,1680,1050,8-20-2022,9-16-19,150,depth_duration_stimuli/002340_2014-06-28_20-05-46_260595134347_rgbf000113-resize_0/002340_2014-06-28_20-05-46_260595134347_rgbf000113-resize_0-target.png,250,2.4735,10,2690,246,feet,jsons/v1_VE250_randls_59_rotated.json,478966,627675,44,Man
150,273030,DepthScenes,duration_manipulation_targetAtFixation,jsons/v1_VE250_randls_59_rotated.json,http://54.235.29.9/FacialAge/BNav_EC2/DepthDuration/v2_depth_duration_MTurk/v2_DepthDuration_HTML.html#62,62,1677,900,1680,1050,8-20-2022,9-16-19,151,depth_duration_stimuli/001016_2014-06-09_16-16-10_260595134347_rgbf000112-resize_5/001016_2014-06-09_16-16-10_260595134347_rgbf000112-resize_5-target.png,250,1.6565,4,1918,238,feet,jsons/v1_VE250_randls_59_rotated.json,478966,627675,44,Man
151,273030,DepthScenes,duration_manipulation_targetAtFixation,jsons/v1_VE250_randls_59_rotated.json,http://54.235.29.9/FacialAge/BNav_EC2/DepthDuration/v2_depth_duration_MTurk/v2_DepthDuration_HTML.html#62,62,1677,900,1680,1050,8-20-2022,9-16-19,152,depth_duration_stimuli/000569_2014-06-09_22-51-47_260595134347_rgbf000141-resize_3/000569_2014-06-09_22-51-47_260595134347_rgbf000141-resize-original.jpg,250,4.512,0,2600,263,feet,jsons/v1_VE250_randls_59_rotated.json,478966,627675,44,Man
152,273030,DepthScenes,duration_manipulation_targetAtFixation,jsons/v1_VE250_randls_59_rotated.json,http://54.235.29.9/FacialAge/BNav_EC2/DepthDuration/v2_depth_duration_MTurk/v2_DepthDuration_HTML.html#62,62,1677,900,1680,1050,8-20-2022,9-16-19,153,depth_duration_stimuli/001815_2014-06-26_20-52-55_260595134347_rgbf000020-resize_0/001815_2014-06-26_20-52-55_260595134347_rgbf000020-resize_0-target.png,250,3.3865,7,2494,246,feet,jsons/v1_VE250_randls_59_rotated.json,478966,627675,44,Man
153,273030,DepthScenes,duration_manipulation_targetAtFixation,jsons/v1_VE250_randls_59_rotated.json,http://54.235.29.9/FacialAge/BNav_EC2/DepthDuration/v2_depth_duration_MTurk/v2_DepthDuration_HTML.html#62,62,1677,900,1680,1050,8-20-2022,9-16-19,154,depth_duration_stimuli/001808_2014-06-26_20-50-58_260595134347_rgbf000029-resize_1/001808_2014-06-26_20-50-58_260595134347_rgbf000029-resize_1-target.png,250,4.249,6,2542,238,feet,jsons/v1_VE250_randls_59_rotated.json,478966,627675,44,Man
154,273030,DepthScenes,duration_manipulation_targetAtFixation,jsons/v1_VE250_randls_59_rotated.json,http://54.235.29.9/FacialAge/BNav_EC2/DepthDuration/v2_depth_duration_MTurk/v2_DepthDuration_HTML.html#62,62,1677,900,1680,1050,8-20-2022,9-16-19,155,depth_duration_stimuli/000742_2014-06-08_18-48-09_260595134347_rgbf000164-resize_4/000742_2014-06-08_18-48-09_260595134347_rgbf000164-resize_4-target.png,250,4.632,10,2796,237,feet,jsons/v1_VE250_randls_59_rotated.json,478966,627675,44,Man
155,273030,DepthScenes,duration_manipulation_targetAtFixation,jsons/v1_VE250_randls_59_rotated.json,http://54.235.29.9/FacialAge/BNav_EC2/DepthDuration/v2_depth_duration_MTurk/v2_DepthDuration_HTML.html#62,62,1677,900,1680,1050,8-20-2022,9-16-19,156,depth_duration_stimuli/001066_2014-06-08_22-03-20_260595134347_rgbf000066-resize_4/001066_2014-06-08_22-03-20_260595134347_rgbf000066-resize_4-target.png,250,4.2330000000000005,9,1976,247,feet,jsons/v1_VE250_randls_59_rotated.json,478966,627675,44,Man
156,273030,DepthScenes,duration_manipulation_targetAtFixation,jsons/v1_VE250_randls_59_rotated.json,http://54.235.29.9/FacialAge/BNav_EC2/DepthDuration/v2_depth_duration_MTurk/v2_DepthDuration_HTML.html#62,62,1677,900,1680,1050,8-20-2022,9-16-19,157,depth_duration_stimuli/002444_2014-06-28_20-32-08_260595134347_rgbf000027-resize_0/002444_2014-06-28_20-32-08_260595134347_rgbf000027-resize_0-target.png,250,4.388999999999999,10,2197,254,feet,jsons/v1_VE250_randls_59_rotated.json,478966,627675,44,Man
157,273030,DepthScenes,duration_manipulation_targetAtFixation,jsons/v1_VE250_randls_59_rotated.json,http://54.235.29.9/FacialAge/BNav_EC2/DepthDuration/v2_depth_duration_MTurk/v2_DepthDuration_HTML.html#62,62,1677,900,1680,1050,8-20-2022,9-16-19,158,depth_duration_stimuli/000436_2014-06-09_22-25-11_260595134347_rgbf000137-resize_1/000436_2014-06-09_22-25-11_260595134347_rgbf000137-resize_1-target.png,250,4.0705,12,2058,257,feet,jsons/v1_VE250_randls_59_rotated.json,478966,627675,44,Man
158,273030,DepthScenes,duration_manipulation_targetAtFixation,jsons/v1_VE250_randls_59_rotated.json,http://54.235.29.9/FacialAge/BNav_EC2/DepthDuration/v2_depth_duration_MTurk/v2_DepthDuration_HTML.html#62,62,1677,900,1680,1050,8-20-2022,9-16-19,159,depth_duration_stimuli/002953_2014-06-08_17-32-18_094959634447_rgbf000059-resize_5/002953_2014-06-08_17-32-18_094959634447_rgbf000059-resize_5-target.png,250,1.551,2,2132,245,feet,jsons/v1_VE250_randls_59_rotated.json,478966,627675,44,Man
159,273030,DepthScenes,duration_manipulation_targetAtFixation,jsons/v1_VE250_randls_59_rotated.json,http://54.235.29.9/FacialAge/BNav_EC2/DepthDuration/v2_depth_duration_MTurk/v2_DepthDuration_HTML.html#62,62,1677,900,1680,1050,8-20-2022,9-16-19,160,depth_duration_stimuli/000878_2014-06-08_22-52-45_260595134347_rgbf000045-resize_2/000878_2014-06-08_22-52-45_260595134347_rgbf000045-resize_2-target.png,250,2.092,3,2086,247,feet,jsons/v1_VE250_randls_59_rotated.json,478966,627675,44,Man
160,273030,DepthScenes,duration_manipulation_targetAtFixation,jsons/v1_VE250_randls_59_rotated.json,http://54.235.29.9/FacialAge/BNav_EC2/DepthDuration/v2_depth_duration_MTurk/v2_DepthDuration_HTML.html#62,62,1677,900,1680,1050,8-20-2022,9-16-19,161,depth_duration_stimuli/002637_2014-06-24_14-51-13_094959634447_rgbf000066-resize_4/002637_2014-06-24_14-51-13_094959634447_rgbf000066-resize_4-target.png,250,1.9955,5,1856,240,feet,jsons/v1_VE250_randls_59_rotated.json,478966,627675,44,Man
161,273030,DepthScenes,duration_manipulation_targetAtFixation,jsons/v1_VE250_randls_59_rotated.json,http://54.235.29.9/FacialAge/BNav_EC2/DepthDuration/v2_depth_duration_MTurk/v2_DepthDuration_HTML.html#62,62,1677,900,1680,1050,8-20-2022,9-16-19,162,depth_duration_stimuli/003534_2014-05-22_15-06-10_094959634447_rgbf000102-resize_4/003534_2014-05-22_15-06-10_094959634447_rgbf000102-resize_4-target.png,250,1.426,1,1816,252,feet,jsons/v1_VE250_randls_59_rotated.json,478966,627675,44,Man
162,273030,DepthScenes,duration_manipulation_targetAtFixation,jsons/v1_VE250_randls_59_rotated.json,http://54.235.29.9/FacialAge/BNav_EC2/DepthDuration/v2_depth_duration_MTurk/v2_DepthDuration_HTML.html#62,62,1677,900,1680,1050,8-20-2022,9-16-19,163,depth_duration_stimuli/000137_2014-05-20_17-04-49_260595134347_rgbf000120-resize_1/000137_2014-05-20_17-04-49_260595134347_rgbf000120-resize_1-target.png,250,3.786,8,2648,254,feet,jsons/v1_VE250_randls_59_rotated.json,478966,627675,44,Man
163,273030,DepthScenes,duration_manipulation_targetAtFixation,jsons/v1_VE250_randls_59_rotated.json,http://54.235.29.9/FacialAge/BNav_EC2/DepthDuration/v2_depth_duration_MTurk/v2_DepthDuration_HTML.html#62,62,1677,900,1680,1050,8-20-2022,9-16-19,164,depth_duration_stimuli/000736_2014-06-08_18-24-15_260595134347_rgbf000206-resize_3/000736_2014-06-08_18-24-15_260595134347_rgbf000206-resize_3-target.png,250,3.515,9,2217,253,feet,jsons/v1_VE250_randls_59_rotated.json,478966,627675,44,Man
