,subjID,experimentName,versionName,sequenceName,url,selected_row,windowWidth,windowHeight,screenWidth,screenHeight,startDate,startTime,trial,stimulus,duration,actual_depth,depth_estimate,trial_RT,log_sceneDuration,unitSelection,seq_filepath,experimentTime,totalTime,age,gender
0,273184,DepthScenes,duration_manipulation_targetAtFixation,jsons/v1_VE1000_randls_25.json,http://54.235.29.9/FacialAge/BNav_EC2/DepthDuration/v2_depth_duration_MTurk/v2_DepthDuration_HTML.html#279,279,1536,864,1536,864,8-30-2022,6-7-3,1,depth_duration_stimuli/001059_2014-06-08_21-53-27_260595134347_rgbf000061-resize_4/001059_2014-06-08_21-53-27_260595134347_rgbf000061-resize_4-target.png,1000,2.4185,1,4059,1013,feet,jsons/v1_VE1000_randls_25.json,661641,837241,39,Man
1,273184,DepthScenes,duration_manipulation_targetAtFixation,jsons/v1_VE1000_randls_25.json,http://54.235.29.9/FacialAge/BNav_EC2/DepthDuration/v2_depth_duration_MTurk/v2_DepthDuration_HTML.html#279,279,1536,864,1536,864,8-30-2022,6-7-3,2,depth_duration_stimuli/001032_2014-06-08_13-23-17_260595134347_rgbf000021-resize_3/001032_2014-06-08_13-23-17_260595134347_rgbf000021-resize_3-target.png,1000,3.2725,1,3342,1014,feet,jsons/v1_VE1000_randls_25.json,661641,837241,39,Man
2,273184,DepthScenes,duration_manipulation_targetAtFixation,jsons/v1_VE1000_randls_25.json,http://54.235.29.9/FacialAge/BNav_EC2/DepthDuration/v2_depth_duration_MTurk/v2_DepthDuration_HTML.html#279,279,1536,864,1536,864,8-30-2022,6-7-3,3,depth_duration_stimuli/001066_2014-06-08_22-03-20_260595134347_rgbf000066-resize_4/001066_2014-06-08_22-03-20_260595134347_rgbf000066-resize_4-target.png,1000,4.2330000000000005,5,4632,1013,feet,jsons/v1_VE1000_randls_25.json,661641,837241,39,Man
3,273184,DepthScenes,duration_manipulation_targetAtFixation,jsons/v1_VE1000_randls_25.json,http://54.235.29.9/FacialAge/BNav_EC2/DepthDuration/v2_depth_duration_MTurk/v2_DepthDuration_HTML.html#279,279,1536,864,1536,864,8-30-2022,6-7-3,4,depth_duration_stimuli/000742_2014-06-08_18-48-09_260595134347_rgbf000164-resize_4/000742_2014-06-08_18-48-09_260595134347_rgbf000164-resize_4-target.png,1000,4.632,5,5266,1001,feet,jsons/v1_VE1000_randls_25.json,661641,837241,39,Man
4,273184,DepthScenes,duration_manipulation_targetAtFixation,jsons/v1_VE1000_randls_25.json,http://54.235.29.9/FacialAge/BNav_EC2/DepthDuration/v2_depth_duration_MTurk/v2_DepthDuration_HTML.html#279,279,1536,864,1536,864,8-30-2022,6-7-3,5,depth_duration_stimuli/002663_2014-06-13_15-50-26_094959634447_rgbf000075-resize_1/002663_2014-06-13_15-50-26_094959634447_rgbf000075-resize_1-target.png,1000,4.7495,4,8160,1009,feet,jsons/v1_VE1000_randls_25.json,661641,837241,39,Man
5,273184,DepthScenes,duration_manipulation_targetAtFixation,jsons/v1_VE1000_randls_25.json,http://54.235.29.9/FacialAge/BNav_EC2/DepthDuration/v2_depth_duration_MTurk/v2_DepthDuration_HTML.html#279,279,1536,864,1536,864,8-30-2022,6-7-3,6,depth_duration_stimuli/000409_2014-06-04_19-23-33_260595134347_rgbf000067-resize_0/000409_2014-06-04_19-23-33_260595134347_rgbf000067-resize_0-target.png,1000,3.7335,1,2862,1005,feet,jsons/v1_VE1000_randls_25.json,661641,837241,39,Man
6,273184,DepthScenes,duration_manipulation_targetAtFixation,jsons/v1_VE1000_randls_25.json,http://54.235.29.9/FacialAge/BNav_EC2/DepthDuration/v2_depth_duration_MTurk/v2_DepthDuration_HTML.html#279,279,1536,864,1536,864,8-30-2022,6-7-3,7,depth_duration_stimuli/000642_2014-06-08_16-59-25_260595134347_rgbf000098-resize_2/000642_2014-06-08_16-59-25_260595134347_rgbf000098-resize_2-target.png,1000,2.8815,1,2780,988,feet,jsons/v1_VE1000_randls_25.json,661641,837241,39,Man
7,273184,DepthScenes,duration_manipulation_targetAtFixation,jsons/v1_VE1000_randls_25.json,http://54.235.29.9/FacialAge/BNav_EC2/DepthDuration/v2_depth_duration_MTurk/v2_DepthDuration_HTML.html#279,279,1536,864,1536,864,8-30-2022,6-7-3,8,depth_duration_stimuli/002425_2014-06-28_20-27-29_260595134347_rgbf000031-resize_8/002425_2014-06-28_20-27-29_260595134347_rgbf000031-resize_8-target.png,1000,3.8960000000000004,5,4051,1002,feet,jsons/v1_VE1000_randls_25.json,661641,837241,39,Man
8,273184,DepthScenes,duration_manipulation_targetAtFixation,jsons/v1_VE1000_randls_25.json,http://54.235.29.9/FacialAge/BNav_EC2/DepthDuration/v2_depth_duration_MTurk/v2_DepthDuration_HTML.html#279,279,1536,864,1536,864,8-30-2022,6-7-3,9,depth_duration_stimuli/001810_2014-06-26_20-51-35_260595134347_rgbf000040-resize_3/001810_2014-06-26_20-51-35_260595134347_rgbf000040-resize_3-target.png,1000,2.2525,1,3135,999,feet,jsons/v1_VE1000_randls_25.json,661641,837241,39,Man
9,273184,DepthScenes,duration_manipulation_targetAtFixation,jsons/v1_VE1000_randls_25.json,http://54.235.29.9/FacialAge/BNav_EC2/DepthDuration/v2_depth_duration_MTurk/v2_DepthDuration_HTML.html#279,279,1536,864,1536,864,8-30-2022,6-7-3,10,depth_duration_stimuli/003010_2014-06-15_12-54-35_094959634447_rgbf000112-resize_0/003010_2014-06-15_12-54-35_094959634447_rgbf000112-resize_0-target.png,1000,3.1185,1,2990,1005,feet,jsons/v1_VE1000_randls_25.json,661641,837241,39,Man
10,273184,DepthScenes,duration_manipulation_targetAtFixation,jsons/v1_VE1000_randls_25.json,http://54.235.29.9/FacialAge/BNav_EC2/DepthDuration/v2_depth_duration_MTurk/v2_DepthDuration_HTML.html#279,279,1536,864,1536,864,8-30-2022,6-7-3,11,depth_duration_stimuli/002445_2014-06-28_20-32-16_260595134347_rgbf000029-resize_4/002445_2014-06-28_20-32-16_260595134347_rgbf000029-resize_4-target.png,1000,2.5315,1,2732,1009,feet,jsons/v1_VE1000_randls_25.json,661641,837241,39,Man
11,273184,DepthScenes,duration_manipulation_targetAtFixation,jsons/v1_VE1000_randls_25.json,http://54.235.29.9/FacialAge/BNav_EC2/DepthDuration/v2_depth_duration_MTurk/v2_DepthDuration_HTML.html#279,279,1536,864,1536,864,8-30-2022,6-7-3,12,depth_duration_stimuli/000780_2014-06-08_22-28-29_260595134347_rgbf000126-resize_1/000780_2014-06-08_22-28-29_260595134347_rgbf000126-resize_1-target.png,1000,3.3825,2,2784,1002,feet,jsons/v1_VE1000_randls_25.json,661641,837241,39,Man
12,273184,DepthScenes,duration_manipulation_targetAtFixation,jsons/v1_VE1000_randls_25.json,http://54.235.29.9/FacialAge/BNav_EC2/DepthDuration/v2_depth_duration_MTurk/v2_DepthDuration_HTML.html#279,279,1536,864,1536,864,8-30-2022,6-7-3,13,depth_duration_stimuli/000569_2014-06-09_22-51-47_260595134347_rgbf000141-resize_3/000569_2014-06-09_22-51-47_260595134347_rgbf000141-resize-original.jpg,1000,4.512,4,6531,1006,feet,jsons/v1_VE1000_randls_25.json,661641,837241,39,Man
13,273184,DepthScenes,duration_manipulation_targetAtFixation,jsons/v1_VE1000_randls_25.json,http://54.235.29.9/FacialAge/BNav_EC2/DepthDuration/v2_depth_duration_MTurk/v2_DepthDuration_HTML.html#279,279,1536,864,1536,864,8-30-2022,6-7-3,14,depth_duration_stimuli/001244_2014-06-17_16-47-45_260595134347_rgbf000030-resize_4/001244_2014-06-17_16-47-45_260595134347_rgbf000030-resize_4-target.png,1000,2.0425,1,4377,999,feet,jsons/v1_VE1000_randls_25.json,661641,837241,39,Man
14,273184,DepthScenes,duration_manipulation_targetAtFixation,jsons/v1_VE1000_randls_25.json,http://54.235.29.9/FacialAge/BNav_EC2/DepthDuration/v2_depth_duration_MTurk/v2_DepthDuration_HTML.html#279,279,1536,864,1536,864,8-30-2022,6-7-3,15,depth_duration_stimuli/003495_2014-05-21_16-01-51_094959634447_rgbf000100-resize_3/003495_2014-05-21_16-01-51_094959634447_rgbf000100-resize_3-target.png,1000,1.6255,1,2604,1014,feet,jsons/v1_VE1000_randls_25.json,661641,837241,39,Man
15,273184,DepthScenes,duration_manipulation_targetAtFixation,jsons/v1_VE1000_randls_25.json,http://54.235.29.9/FacialAge/BNav_EC2/DepthDuration/v2_depth_duration_MTurk/v2_DepthDuration_HTML.html#279,279,1536,864,1536,864,8-30-2022,6-7-3,16,depth_duration_stimuli/003292_2014-05-14_21-53-49_094959634447_rgbf000100-resize_2/003292_2014-05-14_21-53-49_094959634447_rgbf000100-resize_2-target.png,1000,3.4815,1,2516,1001,feet,jsons/v1_VE1000_randls_25.json,661641,837241,39,Man
16,273184,DepthScenes,duration_manipulation_targetAtFixation,jsons/v1_VE1000_randls_25.json,http://54.235.29.9/FacialAge/BNav_EC2/DepthDuration/v2_depth_duration_MTurk/v2_DepthDuration_HTML.html#279,279,1536,864,1536,864,8-30-2022,6-7-3,17,depth_duration_stimuli/002639_2014-06-24_14-51-37_094959634447_rgbf000074-resize_4/002639_2014-06-24_14-51-37_094959634447_rgbf000074-resize_4-target.png,1000,4.0375,2,6096,1010,feet,jsons/v1_VE1000_randls_25.json,661641,837241,39,Man
17,273184,DepthScenes,duration_manipulation_targetAtFixation,jsons/v1_VE1000_randls_25.json,http://54.235.29.9/FacialAge/BNav_EC2/DepthDuration/v2_depth_duration_MTurk/v2_DepthDuration_HTML.html#279,279,1536,864,1536,864,8-30-2022,6-7-3,18,depth_duration_stimuli/000368_2014-06-09_15-53-01_260595134347_rgbf000155-resize_2/000368_2014-06-09_15-53-01_260595134347_rgbf000155-resize_2-target.png,1000,2.4859999999999998,1,4089,1000,feet,jsons/v1_VE1000_randls_25.json,661641,837241,39,Man
18,273184,DepthScenes,duration_manipulation_targetAtFixation,jsons/v1_VE1000_randls_25.json,http://54.235.29.9/FacialAge/BNav_EC2/DepthDuration/v2_depth_duration_MTurk/v2_DepthDuration_HTML.html#279,279,1536,864,1536,864,8-30-2022,6-7-3,19,depth_duration_stimuli/002678_2014-06-13_16-15-32_094959634447_rgbf000151-resize_6/002678_2014-06-13_16-15-32_094959634447_rgbf000151-resize_6-target.png,1000,2.1830000000000003,1,7231,999,feet,jsons/v1_VE1000_randls_25.json,661641,837241,39,Man
19,273184,DepthScenes,duration_manipulation_targetAtFixation,jsons/v1_VE1000_randls_25.json,http://54.235.29.9/FacialAge/BNav_EC2/DepthDuration/v2_depth_duration_MTurk/v2_DepthDuration_HTML.html#279,279,1536,864,1536,864,8-30-2022,6-7-3,20,depth_duration_stimuli/002784_2014-06-22_19-26-30_094959634447_rgbf000083-resize_3/002784_2014-06-22_19-26-30_094959634447_rgbf000083-resize_3-target.png,1000,1.8046666666667,2,6927,999,feet,jsons/v1_VE1000_randls_25.json,661641,837241,39,Man
20,273184,DepthScenes,duration_manipulation_targetAtFixation,jsons/v1_VE1000_randls_25.json,http://54.235.29.9/FacialAge/BNav_EC2/DepthDuration/v2_depth_duration_MTurk/v2_DepthDuration_HTML.html#279,279,1536,864,1536,864,8-30-2022,6-7-3,21,depth_duration_stimuli/001100_2014-06-15_17-46-26_260595134347_rgbf000225-resize_2/001100_2014-06-15_17-46-26_260595134347_rgbf000225-resize_2-target.png,1000,2.24,1,3631,1000,feet,jsons/v1_VE1000_randls_25.json,661641,837241,39,Man
21,273184,DepthScenes,duration_manipulation_targetAtFixation,jsons/v1_VE1000_randls_25.json,http://54.235.29.9/FacialAge/BNav_EC2/DepthDuration/v2_depth_duration_MTurk/v2_DepthDuration_HTML.html#279,279,1536,864,1536,864,8-30-2022,6-7-3,22,depth_duration_stimuli/002630_2014-06-24_14-47-50_094959634447_rgbf000055-resize_1/002630_2014-06-24_14-47-50_094959634447_rgbf000055-resize_1-target.png,1000,3.0095,5,4113,996,feet,jsons/v1_VE1000_randls_25.json,661641,837241,39,Man
22,273184,DepthScenes,duration_manipulation_targetAtFixation,jsons/v1_VE1000_randls_25.json,http://54.235.29.9/FacialAge/BNav_EC2/DepthDuration/v2_depth_duration_MTurk/v2_DepthDuration_HTML.html#279,279,1536,864,1536,864,8-30-2022,6-7-3,23,depth_duration_stimuli/002758_2014-06-22_19-11-20_094959634447_rgbf000128-resize_1/002758_2014-06-22_19-11-20_094959634447_rgbf000128-resize_1-target.png,1000,2.555,1,2649,998,feet,jsons/v1_VE1000_randls_25.json,661641,837241,39,Man
23,273184,DepthScenes,duration_manipulation_targetAtFixation,jsons/v1_VE1000_randls_25.json,http://54.235.29.9/FacialAge/BNav_EC2/DepthDuration/v2_depth_duration_MTurk/v2_DepthDuration_HTML.html#279,279,1536,864,1536,864,8-30-2022,6-7-3,24,depth_duration_stimuli/001449_2014-06-19_17-01-27_260595134347_rgbf000116-resize_2/001449_2014-06-19_17-01-27_260595134347_rgbf000116-resize_2-target.png,1000,3.452,1,4232,999,feet,jsons/v1_VE1000_randls_25.json,661641,837241,39,Man
24,273184,DepthScenes,duration_manipulation_targetAtFixation,jsons/v1_VE1000_randls_25.json,http://54.235.29.9/FacialAge/BNav_EC2/DepthDuration/v2_depth_duration_MTurk/v2_DepthDuration_HTML.html#279,279,1536,864,1536,864,8-30-2022,6-7-3,25,depth_duration_stimuli/001450_2014-06-19_17-02-03_260595134347_rgbf000203-resize_4/001450_2014-06-19_17-02-03_260595134347_rgbf000203-resize_4-target.png,1000,4.0106666666667,2,3312,1005,feet,jsons/v1_VE1000_randls_25.json,661641,837241,39,Man
25,273184,DepthScenes,duration_manipulation_targetAtFixation,jsons/v1_VE1000_randls_25.json,http://54.235.29.9/FacialAge/BNav_EC2/DepthDuration/v2_depth_duration_MTurk/v2_DepthDuration_HTML.html#279,279,1536,864,1536,864,8-30-2022,6-7-3,26,depth_duration_stimuli/002905_2014-06-03_18-04-43_094959634447_rgbf000151-resize_2/002905_2014-06-03_18-04-43_094959634447_rgbf000151-resize_2-target.png,1000,2.0295,1,2525,1000,feet,jsons/v1_VE1000_randls_25.json,661641,837241,39,Man
26,273184,DepthScenes,duration_manipulation_targetAtFixation,jsons/v1_VE1000_randls_25.json,http://54.235.29.9/FacialAge/BNav_EC2/DepthDuration/v2_depth_duration_MTurk/v2_DepthDuration_HTML.html#279,279,1536,864,1536,864,8-30-2022,6-7-3,27,depth_duration_stimuli/003423_2014-05-21_10-23-26_094959634447_rgbf002665-resize_2/003423_2014-05-21_10-23-26_094959634447_rgbf002665-resize_2-target.png,1000,3.2575,7,3901,1001,feet,jsons/v1_VE1000_randls_25.json,661641,837241,39,Man
27,273184,DepthScenes,duration_manipulation_targetAtFixation,jsons/v1_VE1000_randls_25.json,http://54.235.29.9/FacialAge/BNav_EC2/DepthDuration/v2_depth_duration_MTurk/v2_DepthDuration_HTML.html#279,279,1536,864,1536,864,8-30-2022,6-7-3,28,depth_duration_stimuli/000788_2014-06-08_22-34-36_260595134347_rgbf000131-resize_1/000788_2014-06-08_22-34-36_260595134347_rgbf000131-resize_1-target.png,1000,3.359,4,4166,1015,feet,jsons/v1_VE1000_randls_25.json,661641,837241,39,Man
28,273184,DepthScenes,duration_manipulation_targetAtFixation,jsons/v1_VE1000_randls_25.json,http://54.235.29.9/FacialAge/BNav_EC2/DepthDuration/v2_depth_duration_MTurk/v2_DepthDuration_HTML.html#279,279,1536,864,1536,864,8-30-2022,6-7-3,29,depth_duration_stimuli/001235_2014-06-17_16-37-36_260595134347_rgbf000084-resize_4/001235_2014-06-17_16-37-36_260595134347_rgbf000084-resize_4-target.png,1000,3.6605,2,3104,1005,feet,jsons/v1_VE1000_randls_25.json,661641,837241,39,Man
29,273184,DepthScenes,duration_manipulation_targetAtFixation,jsons/v1_VE1000_randls_25.json,http://54.235.29.9/FacialAge/BNav_EC2/DepthDuration/v2_depth_duration_MTurk/v2_DepthDuration_HTML.html#279,279,1536,864,1536,864,8-30-2022,6-7-3,30,depth_duration_stimuli/000375_2014-06-08_11-17-29_260595134347_rgbf000133-resize_2/000375_2014-06-08_11-17-29_260595134347_rgbf000133-resize-original.jpg,1000,4.718,0,3419,1011,feet,jsons/v1_VE1000_randls_25.json,661641,837241,39,Man
30,273184,DepthScenes,duration_manipulation_targetAtFixation,jsons/v1_VE1000_randls_25.json,http://54.235.29.9/FacialAge/BNav_EC2/DepthDuration/v2_depth_duration_MTurk/v2_DepthDuration_HTML.html#279,279,1536,864,1536,864,8-30-2022,6-7-3,31,depth_duration_stimuli/000447_2014-06-08_16-15-46_260595134347_rgbf000130-resize_1/000447_2014-06-08_16-15-46_260595134347_rgbf000130-resize_1-target.png,1000,4.479,7,3884,999,feet,jsons/v1_VE1000_randls_25.json,661641,837241,39,Man
31,273184,DepthScenes,duration_manipulation_targetAtFixation,jsons/v1_VE1000_randls_25.json,http://54.235.29.9/FacialAge/BNav_EC2/DepthDuration/v2_depth_duration_MTurk/v2_DepthDuration_HTML.html#279,279,1536,864,1536,864,8-30-2022,6-7-3,32,depth_duration_stimuli/001447_2014-06-19_17-00-32_260595134347_rgbf000082-resize_5/001447_2014-06-19_17-00-32_260595134347_rgbf000082-resize_5-target.png,1000,4.13775,1,2744,995,feet,jsons/v1_VE1000_randls_25.json,661641,837241,39,Man
32,273184,DepthScenes,duration_manipulation_targetAtFixation,jsons/v1_VE1000_randls_25.json,http://54.235.29.9/FacialAge/BNav_EC2/DepthDuration/v2_depth_duration_MTurk/v2_DepthDuration_HTML.html#279,279,1536,864,1536,864,8-30-2022,6-7-3,33,depth_duration_stimuli/000906_2014-06-08_13-35-43_260595134347_rgbf000155-resize_1/000906_2014-06-08_13-35-43_260595134347_rgbf000155-resize_1-target.png,1000,2.8489999999999998,4,2685,1000,feet,jsons/v1_VE1000_randls_25.json,661641,837241,39,Man
33,273184,DepthScenes,duration_manipulation_targetAtFixation,jsons/v1_VE1000_randls_25.json,http://54.235.29.9/FacialAge/BNav_EC2/DepthDuration/v2_depth_duration_MTurk/v2_DepthDuration_HTML.html#279,279,1536,864,1536,864,8-30-2022,6-7-3,34,depth_duration_stimuli/002805_2014-06-22_19-54-03_094959634447_rgbf000079-resize_1/002805_2014-06-22_19-54-03_094959634447_rgbf000079-resize_1-target.png,1000,3.1439999999999997,6,4086,1000,feet,jsons/v1_VE1000_randls_25.json,661641,837241,39,Man
34,273184,DepthScenes,duration_manipulation_targetAtFixation,jsons/v1_VE1000_randls_25.json,http://54.235.29.9/FacialAge/BNav_EC2/DepthDuration/v2_depth_duration_MTurk/v2_DepthDuration_HTML.html#279,279,1536,864,1536,864,8-30-2022,6-7-3,35,depth_duration_stimuli/002043_2014-06-24_20-29-38_260595134347_rgbf000039-resize_4/002043_2014-06-24_20-29-38_260595134347_rgbf000039-resize_4-target.png,1000,2.8435,1,3101,998,feet,jsons/v1_VE1000_randls_25.json,661641,837241,39,Man
35,273184,DepthScenes,duration_manipulation_targetAtFixation,jsons/v1_VE1000_randls_25.json,http://54.235.29.9/FacialAge/BNav_EC2/DepthDuration/v2_depth_duration_MTurk/v2_DepthDuration_HTML.html#279,279,1536,864,1536,864,8-30-2022,6-7-3,36,depth_duration_stimuli/003048_2014-06-15_13-49-43_094959634447_rgbf000150-resize_1/003048_2014-06-15_13-49-43_094959634447_rgbf000150-resize_1-target.png,1000,4.0035,5,3059,1000,feet,jsons/v1_VE1000_randls_25.json,661641,837241,39,Man
36,273184,DepthScenes,duration_manipulation_targetAtFixation,jsons/v1_VE1000_randls_25.json,http://54.235.29.9/FacialAge/BNav_EC2/DepthDuration/v2_depth_duration_MTurk/v2_DepthDuration_HTML.html#279,279,1536,864,1536,864,8-30-2022,6-7-3,37,depth_duration_stimuli/002725_2014-06-22_11-47-51_094959634447_rgbf000070-resize_1/002725_2014-06-22_11-47-51_094959634447_rgbf000070-resize_1-target.png,1000,2.195,3,2512,1012,feet,jsons/v1_VE1000_randls_25.json,661641,837241,39,Man
37,273184,DepthScenes,duration_manipulation_targetAtFixation,jsons/v1_VE1000_randls_25.json,http://54.235.29.9/FacialAge/BNav_EC2/DepthDuration/v2_depth_duration_MTurk/v2_DepthDuration_HTML.html#279,279,1536,864,1536,864,8-30-2022,6-7-3,38,depth_duration_stimuli/002344_2014-06-28_20-06-29_260595134347_rgbf000030-resize_1/002344_2014-06-28_20-06-29_260595134347_rgbf000030-resize_1-target.png,1000,1.5795,1,2751,1005,feet,jsons/v1_VE1000_randls_25.json,661641,837241,39,Man
38,273184,DepthScenes,duration_manipulation_targetAtFixation,jsons/v1_VE1000_randls_25.json,http://54.235.29.9/FacialAge/BNav_EC2/DepthDuration/v2_depth_duration_MTurk/v2_DepthDuration_HTML.html#279,279,1536,864,1536,864,8-30-2022,6-7-3,39,depth_duration_stimuli/001158_2014-06-17_15-32-16_260595134347_rgbf000138-resize_2/001158_2014-06-17_15-32-16_260595134347_rgbf000138-resize_2-target.png,1000,4.5315,7,3462,1007,feet,jsons/v1_VE1000_randls_25.json,661641,837241,39,Man
39,273184,DepthScenes,duration_manipulation_targetAtFixation,jsons/v1_VE1000_randls_25.json,http://54.235.29.9/FacialAge/BNav_EC2/DepthDuration/v2_depth_duration_MTurk/v2_DepthDuration_HTML.html#279,279,1536,864,1536,864,8-30-2022,6-7-3,40,depth_duration_stimuli/000556_2014-06-09_22-42-56_260595134347_rgbf000214-resize_1/000556_2014-06-09_22-42-56_260595134347_rgbf000214-resize_1-target.png,1000,4.8415,3,3081,1011,feet,jsons/v1_VE1000_randls_25.json,661641,837241,39,Man
40,273184,DepthScenes,duration_manipulation_targetAtFixation,jsons/v1_VE1000_randls_25.json,http://54.235.29.9/FacialAge/BNav_EC2/DepthDuration/v2_depth_duration_MTurk/v2_DepthDuration_HTML.html#279,279,1536,864,1536,864,8-30-2022,6-7-3,41,depth_duration_stimuli/003534_2014-05-22_15-06-10_094959634447_rgbf000102-resize_4/003534_2014-05-22_15-06-10_094959634447_rgbf000102-resize_4-target.png,1000,1.426,2,2758,998,feet,jsons/v1_VE1000_randls_25.json,661641,837241,39,Man
41,273184,DepthScenes,duration_manipulation_targetAtFixation,jsons/v1_VE1000_randls_25.json,http://54.235.29.9/FacialAge/BNav_EC2/DepthDuration/v2_depth_duration_MTurk/v2_DepthDuration_HTML.html#279,279,1536,864,1536,864,8-30-2022,6-7-3,42,depth_duration_stimuli/002637_2014-06-24_14-51-13_094959634447_rgbf000066-resize_4/002637_2014-06-24_14-51-13_094959634447_rgbf000066-resize_4-target.png,1000,1.9955,4,4506,1006,feet,jsons/v1_VE1000_randls_25.json,661641,837241,39,Man
42,273184,DepthScenes,duration_manipulation_targetAtFixation,jsons/v1_VE1000_randls_25.json,http://54.235.29.9/FacialAge/BNav_EC2/DepthDuration/v2_depth_duration_MTurk/v2_DepthDuration_HTML.html#279,279,1536,864,1536,864,8-30-2022,6-7-3,43,depth_duration_stimuli/000522_2014-06-08_13-35-06_260595134347_rgbf000244-resize_1/000522_2014-06-08_13-35-06_260595134347_rgbf000244-resize_1-target.png,1000,2.3715,2,2467,1000,feet,jsons/v1_VE1000_randls_25.json,661641,837241,39,Man
43,273184,DepthScenes,duration_manipulation_targetAtFixation,jsons/v1_VE1000_randls_25.json,http://54.235.29.9/FacialAge/BNav_EC2/DepthDuration/v2_depth_duration_MTurk/v2_DepthDuration_HTML.html#279,279,1536,864,1536,864,8-30-2022,6-7-3,44,depth_duration_stimuli/002949_2014-06-26_15-57-42_094959634447_rgbf000079-resize_1/002949_2014-06-26_15-57-42_094959634447_rgbf000079-resize_1-target.png,1000,1.8915,2,2665,1007,feet,jsons/v1_VE1000_randls_25.json,661641,837241,39,Man
44,273184,DepthScenes,duration_manipulation_targetAtFixation,jsons/v1_VE1000_randls_25.json,http://54.235.29.9/FacialAge/BNav_EC2/DepthDuration/v2_depth_duration_MTurk/v2_DepthDuration_HTML.html#279,279,1536,864,1536,864,8-30-2022,6-7-3,45,depth_duration_stimuli/000787_2014-06-08_22-33-53_260595134347_rgbf000175-resize_1/000787_2014-06-08_22-33-53_260595134347_rgbf000175-resize-original.jpg,1000,4.784,0,3824,1010,feet,jsons/v1_VE1000_randls_25.json,661641,837241,39,Man
45,273184,DepthScenes,duration_manipulation_targetAtFixation,jsons/v1_VE1000_randls_25.json,http://54.235.29.9/FacialAge/BNav_EC2/DepthDuration/v2_depth_duration_MTurk/v2_DepthDuration_HTML.html#279,279,1536,864,1536,864,8-30-2022,6-7-3,46,depth_duration_stimuli/000810_2014-06-08_17-20-01_260595134347_rgbf000105-resize_0/000810_2014-06-08_17-20-01_260595134347_rgbf000105-resize_0-target.png,1000,1.4865,4,5375,1000,feet,jsons/v1_VE1000_randls_25.json,661641,837241,39,Man
46,273184,DepthScenes,duration_manipulation_targetAtFixation,jsons/v1_VE1000_randls_25.json,http://54.235.29.9/FacialAge/BNav_EC2/DepthDuration/v2_depth_duration_MTurk/v2_DepthDuration_HTML.html#279,279,1536,864,1536,864,8-30-2022,6-7-3,47,depth_duration_stimuli/001214_2014-06-17_16-13-55_260595134347_rgbf000111-resize_0/001214_2014-06-17_16-13-55_260595134347_rgbf000111-resize_0-target.png,1000,2.6505,3,2718,1010,feet,jsons/v1_VE1000_randls_25.json,661641,837241,39,Man
47,273184,DepthScenes,duration_manipulation_targetAtFixation,jsons/v1_VE1000_randls_25.json,http://54.235.29.9/FacialAge/BNav_EC2/DepthDuration/v2_depth_duration_MTurk/v2_DepthDuration_HTML.html#279,279,1536,864,1536,864,8-30-2022,6-7-3,48,depth_duration_stimuli/000758_2014-06-08_22-05-08_260595134347_rgbf000085-resize_0/000758_2014-06-08_22-05-08_260595134347_rgbf000085-resize_0-target.png,1000,3.3810000000000002,6,2838,1000,feet,jsons/v1_VE1000_randls_25.json,661641,837241,39,Man
48,273184,DepthScenes,duration_manipulation_targetAtFixation,jsons/v1_VE1000_randls_25.json,http://54.235.29.9/FacialAge/BNav_EC2/DepthDuration/v2_depth_duration_MTurk/v2_DepthDuration_HTML.html#279,279,1536,864,1536,864,8-30-2022,6-7-3,49,depth_duration_stimuli/000854_2014-06-09_19-43-13_260595134347_rgbf000066-resize_0/000854_2014-06-09_19-43-13_260595134347_rgbf000066-resize_0-target.png,1000,3.068,2,2356,1005,feet,jsons/v1_VE1000_randls_25.json,661641,837241,39,Man
49,273184,DepthScenes,duration_manipulation_targetAtFixation,jsons/v1_VE1000_randls_25.json,http://54.235.29.9/FacialAge/BNav_EC2/DepthDuration/v2_depth_duration_MTurk/v2_DepthDuration_HTML.html#279,279,1536,864,1536,864,8-30-2022,6-7-3,50,depth_duration_stimuli/000692_2014-06-08_13-09-42_260595134347_rgbf000199-resize_2/000692_2014-06-08_13-09-42_260595134347_rgbf000199-resize_2-target.png,1000,3.661,5,2806,1001,feet,jsons/v1_VE1000_randls_25.json,661641,837241,39,Man
50,273184,DepthScenes,duration_manipulation_targetAtFixation,jsons/v1_VE1000_randls_25.json,http://54.235.29.9/FacialAge/BNav_EC2/DepthDuration/v2_depth_duration_MTurk/v2_DepthDuration_HTML.html#279,279,1536,864,1536,864,8-30-2022,6-7-3,51,depth_duration_stimuli/001094_2014-06-15_17-36-00_260595134347_rgbf000205-resize_0/001094_2014-06-15_17-36-00_260595134347_rgbf000205-resize_0-target.png,1000,4.2175,8,4139,1008,feet,jsons/v1_VE1000_randls_25.json,661641,837241,39,Man
51,273184,DepthScenes,duration_manipulation_targetAtFixation,jsons/v1_VE1000_randls_25.json,http://54.235.29.9/FacialAge/BNav_EC2/DepthDuration/v2_depth_duration_MTurk/v2_DepthDuration_HTML.html#279,279,1536,864,1536,864,8-30-2022,6-7-3,52,depth_duration_stimuli/001133_2014-06-17_14-49-16_260595134347_rgbf000100-resize_0/001133_2014-06-17_14-49-16_260595134347_rgbf000100-resize_0-target.png,1000,4.2115,5,3987,1009,feet,jsons/v1_VE1000_randls_25.json,661641,837241,39,Man
52,273184,DepthScenes,duration_manipulation_targetAtFixation,jsons/v1_VE1000_randls_25.json,http://54.235.29.9/FacialAge/BNav_EC2/DepthDuration/v2_depth_duration_MTurk/v2_DepthDuration_HTML.html#279,279,1536,864,1536,864,8-30-2022,6-7-3,53,depth_duration_stimuli/001132_2014-06-17_14-48-54_260595134347_rgbf000100-resize_2/001132_2014-06-17_14-48-54_260595134347_rgbf000100-resize_2-target.png,1000,3.753,5,3076,1011,feet,jsons/v1_VE1000_randls_25.json,661641,837241,39,Man
53,273184,DepthScenes,duration_manipulation_targetAtFixation,jsons/v1_VE1000_randls_25.json,http://54.235.29.9/FacialAge/BNav_EC2/DepthDuration/v2_depth_duration_MTurk/v2_DepthDuration_HTML.html#279,279,1536,864,1536,864,8-30-2022,6-7-3,54,depth_duration_stimuli/001555_2014-06-20_17-12-10_260595134347_rgbf000065-resize_4/001555_2014-06-20_17-12-10_260595134347_rgbf000065-resize_4-target.png,1000,1.633,2,2976,1008,feet,jsons/v1_VE1000_randls_25.json,661641,837241,39,Man
54,273184,DepthScenes,duration_manipulation_targetAtFixation,jsons/v1_VE1000_randls_25.json,http://54.235.29.9/FacialAge/BNav_EC2/DepthDuration/v2_depth_duration_MTurk/v2_DepthDuration_HTML.html#279,279,1536,864,1536,864,8-30-2022,6-7-3,55,depth_duration_stimuli/000103_2014-05-14_22-01-17_260595134347_rgbf000152-resize_5/000103_2014-05-14_22-01-17_260595134347_rgbf000152-resize_5-target.png,1000,1.993,3,2719,1000,feet,jsons/v1_VE1000_randls_25.json,661641,837241,39,Man
55,273184,DepthScenes,duration_manipulation_targetAtFixation,jsons/v1_VE1000_randls_25.json,http://54.235.29.9/FacialAge/BNav_EC2/DepthDuration/v2_depth_duration_MTurk/v2_DepthDuration_HTML.html#279,279,1536,864,1536,864,8-30-2022,6-7-3,56,depth_duration_stimuli/002570_2014-06-24_13-59-54_094959634447_rgbf000059-resize_0/002570_2014-06-24_13-59-54_094959634447_rgbf000059-resize_0-target.png,1000,4.037,5,3440,1003,feet,jsons/v1_VE1000_randls_25.json,661641,837241,39,Man
56,273184,DepthScenes,duration_manipulation_targetAtFixation,jsons/v1_VE1000_randls_25.json,http://54.235.29.9/FacialAge/BNav_EC2/DepthDuration/v2_depth_duration_MTurk/v2_DepthDuration_HTML.html#279,279,1536,864,1536,864,8-30-2022,6-7-3,57,depth_duration_stimuli/002467_2014-06-28_20-38-07_260595134347_rgbf000026-resize_2/002467_2014-06-28_20-38-07_260595134347_rgbf000026-resize_2-target.png,1000,4.742,8,3150,1005,feet,jsons/v1_VE1000_randls_25.json,661641,837241,39,Man
57,273184,DepthScenes,duration_manipulation_targetAtFixation,jsons/v1_VE1000_randls_25.json,http://54.235.29.9/FacialAge/BNav_EC2/DepthDuration/v2_depth_duration_MTurk/v2_DepthDuration_HTML.html#279,279,1536,864,1536,864,8-30-2022,6-7-3,58,depth_duration_stimuli/001570_2014-06-20_17-21-09_260595134347_rgbf000135-resize_4/001570_2014-06-20_17-21-09_260595134347_rgbf000135-resize_4-target.png,1000,4.467,6,4716,1014,feet,jsons/v1_VE1000_randls_25.json,661641,837241,39,Man
58,273184,DepthScenes,duration_manipulation_targetAtFixation,jsons/v1_VE1000_randls_25.json,http://54.235.29.9/FacialAge/BNav_EC2/DepthDuration/v2_depth_duration_MTurk/v2_DepthDuration_HTML.html#279,279,1536,864,1536,864,8-30-2022,6-7-3,59,depth_duration_stimuli/001392_2014-06-19_16-07-59_260595134347_rgbf000046-resize_1/001392_2014-06-19_16-07-59_260595134347_rgbf000046-resize_1-target.png,1000,4.135,6,2692,1004,feet,jsons/v1_VE1000_randls_25.json,661641,837241,39,Man
59,273184,DepthScenes,duration_manipulation_targetAtFixation,jsons/v1_VE1000_randls_25.json,http://54.235.29.9/FacialAge/BNav_EC2/DepthDuration/v2_depth_duration_MTurk/v2_DepthDuration_HTML.html#279,279,1536,864,1536,864,8-30-2022,6-7-3,60,depth_duration_stimuli/002549_2014-06-24_13-41-39_094959634447_rgbf000022-resize_3/002549_2014-06-24_13-41-39_094959634447_rgbf000022-resize_3-target.png,1000,1.476,2,4371,1008,feet,jsons/v1_VE1000_randls_25.json,661641,837241,39,Man
60,273184,DepthScenes,duration_manipulation_targetAtFixation,jsons/v1_VE1000_randls_25.json,http://54.235.29.9/FacialAge/BNav_EC2/DepthDuration/v2_depth_duration_MTurk/v2_DepthDuration_HTML.html#279,279,1536,864,1536,864,8-30-2022,6-7-3,61,depth_duration_stimuli/002750_2014-06-22_19-08-03_094959634447_rgbf000094-resize_4/002750_2014-06-22_19-08-03_094959634447_rgbf000094-resize_4-target.png,1000,2.354,5,3915,1010,feet,jsons/v1_VE1000_randls_25.json,661641,837241,39,Man
61,273184,DepthScenes,duration_manipulation_targetAtFixation,jsons/v1_VE1000_randls_25.json,http://54.235.29.9/FacialAge/BNav_EC2/DepthDuration/v2_depth_duration_MTurk/v2_DepthDuration_HTML.html#279,279,1536,864,1536,864,8-30-2022,6-7-3,62,depth_duration_stimuli/001110_2014-06-15_17-25-28_260595134347_rgbf000150-resize_1/001110_2014-06-15_17-25-28_260595134347_rgbf000150-resize_1-target.png,1000,1.7115,4,3062,1006,feet,jsons/v1_VE1000_randls_25.json,661641,837241,39,Man
62,273184,DepthScenes,duration_manipulation_targetAtFixation,jsons/v1_VE1000_randls_25.json,http://54.235.29.9/FacialAge/BNav_EC2/DepthDuration/v2_depth_duration_MTurk/v2_DepthDuration_HTML.html#279,279,1536,864,1536,864,8-30-2022,6-7-3,63,depth_duration_stimuli/000927_2014-06-09_16-32-30_260595134347_rgbf000123-resize_3/000927_2014-06-09_16-32-30_260595134347_rgbf000123-resize_3-target.png,1000,2.6785,5,3687,1002,feet,jsons/v1_VE1000_randls_25.json,661641,837241,39,Man
63,273184,DepthScenes,duration_manipulation_targetAtFixation,jsons/v1_VE1000_randls_25.json,http://54.235.29.9/FacialAge/BNav_EC2/DepthDuration/v2_depth_duration_MTurk/v2_DepthDuration_HTML.html#279,279,1536,864,1536,864,8-30-2022,6-7-3,64,depth_duration_stimuli/002763_2014-06-22_19-13-10_094959634447_rgbf000075-resize_4/002763_2014-06-22_19-13-10_094959634447_rgbf000075-resize_4-target.png,1000,1.68375,4,5040,1004,feet,jsons/v1_VE1000_randls_25.json,661641,837241,39,Man
64,273184,DepthScenes,duration_manipulation_targetAtFixation,jsons/v1_VE1000_randls_25.json,http://54.235.29.9/FacialAge/BNav_EC2/DepthDuration/v2_depth_duration_MTurk/v2_DepthDuration_HTML.html#279,279,1536,864,1536,864,8-30-2022,6-7-3,65,depth_duration_stimuli/002209_2014-06-28_18-36-10_260595134347_rgbf000051-resize_1/002209_2014-06-28_18-36-10_260595134347_rgbf000051-resize_1-target.png,1000,2.057,4,4061,1006,feet,jsons/v1_VE1000_randls_25.json,661641,837241,39,Man
65,273184,DepthScenes,duration_manipulation_targetAtFixation,jsons/v1_VE1000_randls_25.json,http://54.235.29.9/FacialAge/BNav_EC2/DepthDuration/v2_depth_duration_MTurk/v2_DepthDuration_HTML.html#279,279,1536,864,1536,864,8-30-2022,6-7-3,66,depth_duration_stimuli/001222_2014-06-17_16-24-06_260595134347_rgbf000073-resize_0/001222_2014-06-17_16-24-06_260595134347_rgbf000073-resize-original.jpg,1000,1.4385,0,7915,1000,feet,jsons/v1_VE1000_randls_25.json,661641,837241,39,Man
66,273184,DepthScenes,duration_manipulation_targetAtFixation,jsons/v1_VE1000_randls_25.json,http://54.235.29.9/FacialAge/BNav_EC2/DepthDuration/v2_depth_duration_MTurk/v2_DepthDuration_HTML.html#279,279,1536,864,1536,864,8-30-2022,6-7-3,67,depth_duration_stimuli/000436_2014-06-09_22-25-11_260595134347_rgbf000137-resize_1/000436_2014-06-09_22-25-11_260595134347_rgbf000137-resize_1-target.png,1000,4.0705,6,3410,1003,feet,jsons/v1_VE1000_randls_25.json,661641,837241,39,Man
67,273184,DepthScenes,duration_manipulation_targetAtFixation,jsons/v1_VE1000_randls_25.json,http://54.235.29.9/FacialAge/BNav_EC2/DepthDuration/v2_depth_duration_MTurk/v2_DepthDuration_HTML.html#279,279,1536,864,1536,864,8-30-2022,6-7-3,68,depth_duration_stimuli/002444_2014-06-28_20-32-08_260595134347_rgbf000027-resize_0/002444_2014-06-28_20-32-08_260595134347_rgbf000027-resize_0-target.png,1000,4.388999999999999,7,3112,1011,feet,jsons/v1_VE1000_randls_25.json,661641,837241,39,Man
68,273184,DepthScenes,duration_manipulation_targetAtFixation,jsons/v1_VE1000_randls_25.json,http://54.235.29.9/FacialAge/BNav_EC2/DepthDuration/v2_depth_duration_MTurk/v2_DepthDuration_HTML.html#279,279,1536,864,1536,864,8-30-2022,6-7-3,69,depth_duration_stimuli/002988_2014-06-15_12-24-20_094959634447_rgbf000150-resize_1/002988_2014-06-15_12-24-20_094959634447_rgbf000150-resize_1-target.png,1000,4.7669999999999995,7,3336,999,feet,jsons/v1_VE1000_randls_25.json,661641,837241,39,Man
69,273184,DepthScenes,duration_manipulation_targetAtFixation,jsons/v1_VE1000_randls_25.json,http://54.235.29.9/FacialAge/BNav_EC2/DepthDuration/v2_depth_duration_MTurk/v2_DepthDuration_HTML.html#279,279,1536,864,1536,864,8-30-2022,6-7-3,70,depth_duration_stimuli/001052_2014-06-08_18-24-54_260595134347_rgbf000130-resize_1/001052_2014-06-08_18-24-54_260595134347_rgbf000130-resize_1-target.png,1000,4.1045,6,2692,999,feet,jsons/v1_VE1000_randls_25.json,661641,837241,39,Man
70,273184,DepthScenes,duration_manipulation_targetAtFixation,jsons/v1_VE1000_randls_25.json,http://54.235.29.9/FacialAge/BNav_EC2/DepthDuration/v2_depth_duration_MTurk/v2_DepthDuration_HTML.html#279,279,1536,864,1536,864,8-30-2022,6-7-3,71,depth_duration_stimuli/001150_2014-06-17_15-27-34_260595134347_rgbf000108-resize_2/001150_2014-06-17_15-27-34_260595134347_rgbf000108-resize_2-target.png,1000,4.0325,5,2673,1002,feet,jsons/v1_VE1000_randls_25.json,661641,837241,39,Man
71,273184,DepthScenes,duration_manipulation_targetAtFixation,jsons/v1_VE1000_randls_25.json,http://54.235.29.9/FacialAge/BNav_EC2/DepthDuration/v2_depth_duration_MTurk/v2_DepthDuration_HTML.html#279,279,1536,864,1536,864,8-30-2022,6-7-3,72,depth_duration_stimuli/000665_2014-06-09_20-42-35_260595134347_rgbf000110-resize_1/000665_2014-06-09_20-42-35_260595134347_rgbf000110-resize_1-target.png,1000,3.057,4,2840,1014,feet,jsons/v1_VE1000_randls_25.json,661641,837241,39,Man
72,273184,DepthScenes,duration_manipulation_targetAtFixation,jsons/v1_VE1000_randls_25.json,http://54.235.29.9/FacialAge/BNav_EC2/DepthDuration/v2_depth_duration_MTurk/v2_DepthDuration_HTML.html#279,279,1536,864,1536,864,8-30-2022,6-7-3,73,depth_duration_stimuli/001055_2014-06-08_18-45-35_260595134347_rgbf000111-resize_4/001055_2014-06-08_18-45-35_260595134347_rgbf000111-resize_4-target.png,1000,2.4290000000000003,4,3614,1007,feet,jsons/v1_VE1000_randls_25.json,661641,837241,39,Man
73,273184,DepthScenes,duration_manipulation_targetAtFixation,jsons/v1_VE1000_randls_25.json,http://54.235.29.9/FacialAge/BNav_EC2/DepthDuration/v2_depth_duration_MTurk/v2_DepthDuration_HTML.html#279,279,1536,864,1536,864,8-30-2022,6-7-3,74,depth_duration_stimuli/000549_2014-06-08_22-10-24_260595134347_rgbf000247-resize_3/000549_2014-06-08_22-10-24_260595134347_rgbf000247-resize_3-target.png,1000,1.841,2,3109,987,feet,jsons/v1_VE1000_randls_25.json,661641,837241,39,Man
74,273184,DepthScenes,duration_manipulation_targetAtFixation,jsons/v1_VE1000_randls_25.json,http://54.235.29.9/FacialAge/BNav_EC2/DepthDuration/v2_depth_duration_MTurk/v2_DepthDuration_HTML.html#279,279,1536,864,1536,864,8-30-2022,6-7-3,75,depth_duration_stimuli/000917_2014-06-09_22-45-29_260595134347_rgbf000149-resize_3/000917_2014-06-09_22-45-29_260595134347_rgbf000149-resize_3-target.png,1000,4.1865,5,2895,1011,feet,jsons/v1_VE1000_randls_25.json,661641,837241,39,Man
75,273184,DepthScenes,duration_manipulation_targetAtFixation,jsons/v1_VE1000_randls_25.json,http://54.235.29.9/FacialAge/BNav_EC2/DepthDuration/v2_depth_duration_MTurk/v2_DepthDuration_HTML.html#279,279,1536,864,1536,864,8-30-2022,6-7-3,76,depth_duration_stimuli/002323_2014-06-28_20-01-54_260595134347_rgbf000051-resize_4/002323_2014-06-28_20-01-54_260595134347_rgbf000051-resize_4-target.png,1000,3.7310000000000003,6,4544,1014,feet,jsons/v1_VE1000_randls_25.json,661641,837241,39,Man
76,273184,DepthScenes,duration_manipulation_targetAtFixation,jsons/v1_VE1000_randls_25.json,http://54.235.29.9/FacialAge/BNav_EC2/DepthDuration/v2_depth_duration_MTurk/v2_DepthDuration_HTML.html#279,279,1536,864,1536,864,8-30-2022,6-7-3,77,depth_duration_stimuli/003621_2014-05-23_18-06-08_094959634447_rgbf000101-resize_1/003621_2014-05-23_18-06-08_094959634447_rgbf000101-resize_1-target.png,1000,3.9835,7,3440,1005,feet,jsons/v1_VE1000_randls_25.json,661641,837241,39,Man
77,273184,DepthScenes,duration_manipulation_targetAtFixation,jsons/v1_VE1000_randls_25.json,http://54.235.29.9/FacialAge/BNav_EC2/DepthDuration/v2_depth_duration_MTurk/v2_DepthDuration_HTML.html#279,279,1536,864,1536,864,8-30-2022,6-7-3,78,depth_duration_stimuli/001584_2014-06-20_11-07-43_260595134347_rgbf000002-resize_1/001584_2014-06-20_11-07-43_260595134347_rgbf000002-resize_1-target.png,1000,3.53,6,2561,990,feet,jsons/v1_VE1000_randls_25.json,661641,837241,39,Man
78,273184,DepthScenes,duration_manipulation_targetAtFixation,jsons/v1_VE1000_randls_25.json,http://54.235.29.9/FacialAge/BNav_EC2/DepthDuration/v2_depth_duration_MTurk/v2_DepthDuration_HTML.html#279,279,1536,864,1536,864,8-30-2022,6-7-3,79,depth_duration_stimuli/001417_2014-06-19_16-25-36_260595134347_rgbf000115-resize_5/001417_2014-06-19_16-25-36_260595134347_rgbf000115-resize_5-target.png,1000,4.6255,6,3296,1002,feet,jsons/v1_VE1000_randls_25.json,661641,837241,39,Man
79,273184,DepthScenes,duration_manipulation_targetAtFixation,jsons/v1_VE1000_randls_25.json,http://54.235.29.9/FacialAge/BNav_EC2/DepthDuration/v2_depth_duration_MTurk/v2_DepthDuration_HTML.html#279,279,1536,864,1536,864,8-30-2022,6-7-3,80,depth_duration_stimuli/003081_2014-06-15_15-19-16_094959634447_rgbf000150-resize_1/003081_2014-06-15_15-19-16_094959634447_rgbf000150-resize_1-target.png,1000,3.9125,6,3356,999,feet,jsons/v1_VE1000_randls_25.json,661641,837241,39,Man
80,273184,DepthScenes,duration_manipulation_targetAtFixation,jsons/v1_VE1000_randls_25.json,http://54.235.29.9/FacialAge/BNav_EC2/DepthDuration/v2_depth_duration_MTurk/v2_DepthDuration_HTML.html#279,279,1536,864,1536,864,8-30-2022,6-7-3,81,depth_duration_stimuli/001011_2014-06-08_23-18-54_260595134347_rgbf000044-resize_4/001011_2014-06-08_23-18-54_260595134347_rgbf000044-resize_4-target.png,1000,2.4730000000000003,5,2827,1003,feet,jsons/v1_VE1000_randls_25.json,661641,837241,39,Man
81,273184,DepthScenes,duration_manipulation_targetAtFixation,jsons/v1_VE1000_randls_25.json,http://54.235.29.9/FacialAge/BNav_EC2/DepthDuration/v2_depth_duration_MTurk/v2_DepthDuration_HTML.html#279,279,1536,864,1536,864,8-30-2022,6-7-3,82,depth_duration_stimuli/002875_2014-06-01_15-19-00_094959634447_rgbf000151-resize_1/002875_2014-06-01_15-19-00_094959634447_rgbf000151-resize_1-target.png,1000,1.9675,4,3024,1009,feet,jsons/v1_VE1000_randls_25.json,661641,837241,39,Man
82,273184,DepthScenes,duration_manipulation_targetAtFixation,jsons/v1_VE1000_randls_25.json,http://54.235.29.9/FacialAge/BNav_EC2/DepthDuration/v2_depth_duration_MTurk/v2_DepthDuration_HTML.html#279,279,1536,864,1536,864,8-30-2022,6-7-3,83,depth_duration_stimuli/001199_2014-06-17_16-03-48_260595134347_rgbf000077-resize_0/001199_2014-06-17_16-03-48_260595134347_rgbf000077-resize_0-target.png,1000,3.4375,8,3834,1010,feet,jsons/v1_VE1000_randls_25.json,661641,837241,39,Man
83,273184,DepthScenes,duration_manipulation_targetAtFixation,jsons/v1_VE1000_randls_25.json,http://54.235.29.9/FacialAge/BNav_EC2/DepthDuration/v2_depth_duration_MTurk/v2_DepthDuration_HTML.html#279,279,1536,864,1536,864,8-30-2022,6-7-3,84,depth_duration_stimuli/000502_2014-06-08_23-02-32_260595134347_rgbf000063-resize_4/000502_2014-06-08_23-02-32_260595134347_rgbf000063-resize_4-target.png,1000,2.431,4,2848,1000,feet,jsons/v1_VE1000_randls_25.json,661641,837241,39,Man
84,273184,DepthScenes,duration_manipulation_targetAtFixation,jsons/v1_VE1000_randls_25.json,http://54.235.29.9/FacialAge/BNav_EC2/DepthDuration/v2_depth_duration_MTurk/v2_DepthDuration_HTML.html#279,279,1536,864,1536,864,8-30-2022,6-7-3,85,depth_duration_stimuli/000506_2014-06-08_23-21-00_260595134347_rgbf000070-resize_7/000506_2014-06-08_23-21-00_260595134347_rgbf000070-resize_7-target.png,1000,4.0585,6,5644,999,feet,jsons/v1_VE1000_randls_25.json,661641,837241,39,Man
85,273184,DepthScenes,duration_manipulation_targetAtFixation,jsons/v1_VE1000_randls_25.json,http://54.235.29.9/FacialAge/BNav_EC2/DepthDuration/v2_depth_duration_MTurk/v2_DepthDuration_HTML.html#279,279,1536,864,1536,864,8-30-2022,6-7-3,86,depth_duration_stimuli/003079_2014-06-15_15-18-20_094959634447_rgbf000152-resize_8/003079_2014-06-15_15-18-20_094959634447_rgbf000152-resize_8-target.png,1000,2.8775,6,3386,1012,feet,jsons/v1_VE1000_randls_25.json,661641,837241,39,Man
86,273184,DepthScenes,duration_manipulation_targetAtFixation,jsons/v1_VE1000_randls_25.json,http://54.235.29.9/FacialAge/BNav_EC2/DepthDuration/v2_depth_duration_MTurk/v2_DepthDuration_HTML.html#279,279,1536,864,1536,864,8-30-2022,6-7-3,87,depth_duration_stimuli/003492_2014-05-21_15-50-55_094959634447_rgbf000828-resize_1/003492_2014-05-21_15-50-55_094959634447_rgbf000828-resize_1-target.png,1000,4.06875,5,3185,1000,feet,jsons/v1_VE1000_randls_25.json,661641,837241,39,Man
87,273184,DepthScenes,duration_manipulation_targetAtFixation,jsons/v1_VE1000_randls_25.json,http://54.235.29.9/FacialAge/BNav_EC2/DepthDuration/v2_depth_duration_MTurk/v2_DepthDuration_HTML.html#279,279,1536,864,1536,864,8-30-2022,6-7-3,88,depth_duration_stimuli/002568_2014-06-24_13-59-21_094959634447_rgbf000062-resize_4/002568_2014-06-24_13-59-21_094959634447_rgbf000062-resize_4-target.png,1000,3.015,4,4206,1007,feet,jsons/v1_VE1000_randls_25.json,661641,837241,39,Man
88,273184,DepthScenes,duration_manipulation_targetAtFixation,jsons/v1_VE1000_randls_25.json,http://54.235.29.9/FacialAge/BNav_EC2/DepthDuration/v2_depth_duration_MTurk/v2_DepthDuration_HTML.html#279,279,1536,864,1536,864,8-30-2022,6-7-3,89,depth_duration_stimuli/001806_2014-06-26_20-50-20_260595134347_rgbf000091-resize_1/001806_2014-06-26_20-50-20_260595134347_rgbf000091-resize_1-target.png,1000,2.7305,3,2964,994,feet,jsons/v1_VE1000_randls_25.json,661641,837241,39,Man
89,273184,DepthScenes,duration_manipulation_targetAtFixation,jsons/v1_VE1000_randls_25.json,http://54.235.29.9/FacialAge/BNav_EC2/DepthDuration/v2_depth_duration_MTurk/v2_DepthDuration_HTML.html#279,279,1536,864,1536,864,8-30-2022,6-7-3,90,depth_duration_stimuli/001617_2014-06-20_11-35-32_260595134347_rgbf000066-resize_1/001617_2014-06-20_11-35-32_260595134347_rgbf000066-resize_1-target.png,1000,3.7910000000000004,5,3046,1010,feet,jsons/v1_VE1000_randls_25.json,661641,837241,39,Man
90,273184,DepthScenes,duration_manipulation_targetAtFixation,jsons/v1_VE1000_randls_25.json,http://54.235.29.9/FacialAge/BNav_EC2/DepthDuration/v2_depth_duration_MTurk/v2_DepthDuration_HTML.html#279,279,1536,864,1536,864,8-30-2022,6-7-3,91,depth_duration_stimuli/000493_2014-06-09_21-01-18_260595134347_rgbf000196-resize_3/000493_2014-06-09_21-01-18_260595134347_rgbf000196-resize_3-target.png,1000,3.44,4,3045,1001,feet,jsons/v1_VE1000_randls_25.json,661641,837241,39,Man
91,273184,DepthScenes,duration_manipulation_targetAtFixation,jsons/v1_VE1000_randls_25.json,http://54.235.29.9/FacialAge/BNav_EC2/DepthDuration/v2_depth_duration_MTurk/v2_DepthDuration_HTML.html#279,279,1536,864,1536,864,8-30-2022,6-7-3,92,depth_duration_stimuli/000191_2014-05-12_17-07-38_260595134347_rgbf000199-resize_0/000191_2014-05-12_17-07-38_260595134347_rgbf000199-resize_0-target.png,1000,3.7995,8,3910,1008,feet,jsons/v1_VE1000_randls_25.json,661641,837241,39,Man
92,273184,DepthScenes,duration_manipulation_targetAtFixation,jsons/v1_VE1000_randls_25.json,http://54.235.29.9/FacialAge/BNav_EC2/DepthDuration/v2_depth_duration_MTurk/v2_DepthDuration_HTML.html#279,279,1536,864,1536,864,8-30-2022,6-7-3,93,depth_duration_stimuli/002039_2014-06-24_20-22-38_260595134347_rgbf000084-resize_1/002039_2014-06-24_20-22-38_260595134347_rgbf000084-resize_1-target.png,1000,4.408,6,4365,1006,feet,jsons/v1_VE1000_randls_25.json,661641,837241,39,Man
93,273184,DepthScenes,duration_manipulation_targetAtFixation,jsons/v1_VE1000_randls_25.json,http://54.235.29.9/FacialAge/BNav_EC2/DepthDuration/v2_depth_duration_MTurk/v2_DepthDuration_HTML.html#279,279,1536,864,1536,864,8-30-2022,6-7-3,94,depth_duration_stimuli/002103_2014-06-25_20-00-40_260595134347_rgbf000049-resize_0/002103_2014-06-25_20-00-40_260595134347_rgbf000049-resize_0-target.png,1000,4.105,5,3113,1006,feet,jsons/v1_VE1000_randls_25.json,661641,837241,39,Man
94,273184,DepthScenes,duration_manipulation_targetAtFixation,jsons/v1_VE1000_randls_25.json,http://54.235.29.9/FacialAge/BNav_EC2/DepthDuration/v2_depth_duration_MTurk/v2_DepthDuration_HTML.html#279,279,1536,864,1536,864,8-30-2022,6-7-3,95,depth_duration_stimuli/002989_2014-06-15_12-25-03_094959634447_rgbf000150-resize_3/002989_2014-06-15_12-25-03_094959634447_rgbf000150-resize_3-target.png,1000,4.1975,8,2900,1011,feet,jsons/v1_VE1000_randls_25.json,661641,837241,39,Man
95,273184,DepthScenes,duration_manipulation_targetAtFixation,jsons/v1_VE1000_randls_25.json,http://54.235.29.9/FacialAge/BNav_EC2/DepthDuration/v2_depth_duration_MTurk/v2_DepthDuration_HTML.html#279,279,1536,864,1536,864,8-30-2022,6-7-3,96,depth_duration_stimuli/000866_2014-06-09_20-45-42_260595134347_rgbf000139-resize_1/000866_2014-06-09_20-45-42_260595134347_rgbf000139-resize_1-target.png,1000,3.2155,5,3506,1003,feet,jsons/v1_VE1000_randls_25.json,661641,837241,39,Man
96,273184,DepthScenes,duration_manipulation_targetAtFixation,jsons/v1_VE1000_randls_25.json,http://54.235.29.9/FacialAge/BNav_EC2/DepthDuration/v2_depth_duration_MTurk/v2_DepthDuration_HTML.html#279,279,1536,864,1536,864,8-30-2022,6-7-3,97,depth_duration_stimuli/001164_2014-06-17_15-35-46_260595134347_rgbf000085-resize_3/001164_2014-06-17_15-35-46_260595134347_rgbf000085-resize_3-target.png,1000,2.354,5,3176,1000,feet,jsons/v1_VE1000_randls_25.json,661641,837241,39,Man
97,273184,DepthScenes,duration_manipulation_targetAtFixation,jsons/v1_VE1000_randls_25.json,http://54.235.29.9/FacialAge/BNav_EC2/DepthDuration/v2_depth_duration_MTurk/v2_DepthDuration_HTML.html#279,279,1536,864,1536,864,8-30-2022,6-7-3,98,depth_duration_stimuli/001136_2014-06-17_15-19-41_260595134347_rgbf000076-resize_3/001136_2014-06-17_15-19-41_260595134347_rgbf000076-resize_3-target.png,1000,1.8655,4,2843,1002,feet,jsons/v1_VE1000_randls_25.json,661641,837241,39,Man
98,273184,DepthScenes,duration_manipulation_targetAtFixation,jsons/v1_VE1000_randls_25.json,http://54.235.29.9/FacialAge/BNav_EC2/DepthDuration/v2_depth_duration_MTurk/v2_DepthDuration_HTML.html#279,279,1536,864,1536,864,8-30-2022,6-7-3,99,depth_duration_stimuli/001540_2014-06-20_17-01-05_260595134347_rgbf000086-resize_2/001540_2014-06-20_17-01-05_260595134347_rgbf000086-resize-original.jpg,1000,1.459,0,5977,999,feet,jsons/v1_VE1000_randls_25.json,661641,837241,39,Man
99,273184,DepthScenes,duration_manipulation_targetAtFixation,jsons/v1_VE1000_randls_25.json,http://54.235.29.9/FacialAge/BNav_EC2/DepthDuration/v2_depth_duration_MTurk/v2_DepthDuration_HTML.html#279,279,1536,864,1536,864,8-30-2022,6-7-3,100,depth_duration_stimuli/002118_2014-06-25_20-32-08_260595134347_rgbf000078-resize_1/002118_2014-06-25_20-32-08_260595134347_rgbf000078-resize_1-target.png,1000,2.6460000000000004,4,2777,1005,feet,jsons/v1_VE1000_randls_25.json,661641,837241,39,Man
100,273184,DepthScenes,duration_manipulation_targetAtFixation,jsons/v1_VE1000_randls_25.json,http://54.235.29.9/FacialAge/BNav_EC2/DepthDuration/v2_depth_duration_MTurk/v2_DepthDuration_HTML.html#279,279,1536,864,1536,864,8-30-2022,6-7-3,101,depth_duration_stimuli/001516_2014-06-20_16-25-09_260595134347_rgbf000076-resize_2/001516_2014-06-20_16-25-09_260595134347_rgbf000076-resize_2-target.png,1000,1.7445,3,3859,997,feet,jsons/v1_VE1000_randls_25.json,661641,837241,39,Man
101,273184,DepthScenes,duration_manipulation_targetAtFixation,jsons/v1_VE1000_randls_25.json,http://54.235.29.9/FacialAge/BNav_EC2/DepthDuration/v2_depth_duration_MTurk/v2_DepthDuration_HTML.html#279,279,1536,864,1536,864,8-30-2022,6-7-3,102,depth_duration_stimuli/002788_2014-06-22_19-36-03_094959634447_rgbf000088-resize_2/002788_2014-06-22_19-36-03_094959634447_rgbf000088-resize_2-target.png,1000,1.6465,5,2619,990,feet,jsons/v1_VE1000_randls_25.json,661641,837241,39,Man
102,273184,DepthScenes,duration_manipulation_targetAtFixation,jsons/v1_VE1000_randls_25.json,http://54.235.29.9/FacialAge/BNav_EC2/DepthDuration/v2_depth_duration_MTurk/v2_DepthDuration_HTML.html#279,279,1536,864,1536,864,8-30-2022,6-7-3,103,depth_duration_stimuli/000749_2014-06-08_21-55-06_260595134347_rgbf000070-resize_2/000749_2014-06-08_21-55-06_260595134347_rgbf000070-resize_2-target.png,1000,2.331,4,2511,1001,feet,jsons/v1_VE1000_randls_25.json,661641,837241,39,Man
103,273184,DepthScenes,duration_manipulation_targetAtFixation,jsons/v1_VE1000_randls_25.json,http://54.235.29.9/FacialAge/BNav_EC2/DepthDuration/v2_depth_duration_MTurk/v2_DepthDuration_HTML.html#279,279,1536,864,1536,864,8-30-2022,6-7-3,104,depth_duration_stimuli/001016_2014-06-09_16-16-10_260595134347_rgbf000112-resize_5/001016_2014-06-09_16-16-10_260595134347_rgbf000112-resize_5-target.png,1000,1.6565,3,2581,1010,feet,jsons/v1_VE1000_randls_25.json,661641,837241,39,Man
104,273184,DepthScenes,duration_manipulation_targetAtFixation,jsons/v1_VE1000_randls_25.json,http://54.235.29.9/FacialAge/BNav_EC2/DepthDuration/v2_depth_duration_MTurk/v2_DepthDuration_HTML.html#279,279,1536,864,1536,864,8-30-2022,6-7-3,105,depth_duration_stimuli/002340_2014-06-28_20-05-46_260595134347_rgbf000113-resize_0/002340_2014-06-28_20-05-46_260595134347_rgbf000113-resize_0-target.png,1000,2.4735,6,3900,1014,feet,jsons/v1_VE1000_randls_25.json,661641,837241,39,Man
105,273184,DepthScenes,duration_manipulation_targetAtFixation,jsons/v1_VE1000_randls_25.json,http://54.235.29.9/FacialAge/BNav_EC2/DepthDuration/v2_depth_duration_MTurk/v2_DepthDuration_HTML.html#279,279,1536,864,1536,864,8-30-2022,6-7-3,106,depth_duration_stimuli/000009_2014-05-26_14-32-05_260595134347_rgbf000034-resize_3/000009_2014-05-26_14-32-05_260595134347_rgbf000034-resize_3-target.png,1000,3.8715,8,5023,991,feet,jsons/v1_VE1000_randls_25.json,661641,837241,39,Man
106,273184,DepthScenes,duration_manipulation_targetAtFixation,jsons/v1_VE1000_randls_25.json,http://54.235.29.9/FacialAge/BNav_EC2/DepthDuration/v2_depth_duration_MTurk/v2_DepthDuration_HTML.html#279,279,1536,864,1536,864,8-30-2022,6-7-3,107,depth_duration_stimuli/001828_2014-06-26_21-40-03_260595134347_rgbf000024-resize_0/001828_2014-06-26_21-40-03_260595134347_rgbf000024-resize_0-target.png,1000,4.8260000000000005,7,3126,1005,feet,jsons/v1_VE1000_randls_25.json,661641,837241,39,Man
107,273184,DepthScenes,duration_manipulation_targetAtFixation,jsons/v1_VE1000_randls_25.json,http://54.235.29.9/FacialAge/BNav_EC2/DepthDuration/v2_depth_duration_MTurk/v2_DepthDuration_HTML.html#279,279,1536,864,1536,864,8-30-2022,6-7-3,108,depth_duration_stimuli/002153_2014-06-25_21-27-18_260595134347_rgbf000038-resize_5/002153_2014-06-25_21-27-18_260595134347_rgbf000038-resize_5-target.png,1000,2.505,3,3037,1007,feet,jsons/v1_VE1000_randls_25.json,661641,837241,39,Man
108,273184,DepthScenes,duration_manipulation_targetAtFixation,jsons/v1_VE1000_randls_25.json,http://54.235.29.9/FacialAge/BNav_EC2/DepthDuration/v2_depth_duration_MTurk/v2_DepthDuration_HTML.html#279,279,1536,864,1536,864,8-30-2022,6-7-3,109,depth_duration_stimuli/002660_2014-06-13_15-44-18_094959634447_rgbf001878-resize_2/002660_2014-06-13_15-44-18_094959634447_rgbf001878-resize_2-target.png,1000,3.576,5,3078,1001,feet,jsons/v1_VE1000_randls_25.json,661641,837241,39,Man
109,273184,DepthScenes,duration_manipulation_targetAtFixation,jsons/v1_VE1000_randls_25.json,http://54.235.29.9/FacialAge/BNav_EC2/DepthDuration/v2_depth_duration_MTurk/v2_DepthDuration_HTML.html#279,279,1536,864,1536,864,8-30-2022,6-7-3,110,depth_duration_stimuli/000469_2014-06-09_19-42-10_260595134347_rgbf000081-resize_1/000469_2014-06-09_19-42-10_260595134347_rgbf000081-resize_1-target.png,1000,1.652,2,2485,1014,feet,jsons/v1_VE1000_randls_25.json,661641,837241,39,Man
110,273184,DepthScenes,duration_manipulation_targetAtFixation,jsons/v1_VE1000_randls_25.json,http://54.235.29.9/FacialAge/BNav_EC2/DepthDuration/v2_depth_duration_MTurk/v2_DepthDuration_HTML.html#279,279,1536,864,1536,864,8-30-2022,6-7-3,111,depth_duration_stimuli/000483_2014-06-09_20-41-45_260595134347_rgbf000116-resize_4/000483_2014-06-09_20-41-45_260595134347_rgbf000116-resize_4-target.png,1000,1.337,1,4257,989,feet,jsons/v1_VE1000_randls_25.json,661641,837241,39,Man
111,273184,DepthScenes,duration_manipulation_targetAtFixation,jsons/v1_VE1000_randls_25.json,http://54.235.29.9/FacialAge/BNav_EC2/DepthDuration/v2_depth_duration_MTurk/v2_DepthDuration_HTML.html#279,279,1536,864,1536,864,8-30-2022,6-7-3,112,depth_duration_stimuli/001056_2014-06-08_18-46-44_260595134347_rgbf000068-resize_0/001056_2014-06-08_18-46-44_260595134347_rgbf000068-resize_0-target.png,1000,2.6625,4,2558,1011,feet,jsons/v1_VE1000_randls_25.json,661641,837241,39,Man
112,273184,DepthScenes,duration_manipulation_targetAtFixation,jsons/v1_VE1000_randls_25.json,http://54.235.29.9/FacialAge/BNav_EC2/DepthDuration/v2_depth_duration_MTurk/v2_DepthDuration_HTML.html#279,279,1536,864,1536,864,8-30-2022,6-7-3,113,depth_duration_stimuli/002199_2014-06-28_18-33-56_260595134347_rgbf000074-resize_0/002199_2014-06-28_18-33-56_260595134347_rgbf000074-resize_0-target.png,1000,1.996,2,2376,993,feet,jsons/v1_VE1000_randls_25.json,661641,837241,39,Man
113,273184,DepthScenes,duration_manipulation_targetAtFixation,jsons/v1_VE1000_randls_25.json,http://54.235.29.9/FacialAge/BNav_EC2/DepthDuration/v2_depth_duration_MTurk/v2_DepthDuration_HTML.html#279,279,1536,864,1536,864,8-30-2022,6-7-3,114,depth_duration_stimuli/001092_2014-06-15_17-34-58_260595134347_rgbf000171-resize_3/001092_2014-06-15_17-34-58_260595134347_rgbf000171-resize_3-target.png,1000,2.6935,3,2515,1009,feet,jsons/v1_VE1000_randls_25.json,661641,837241,39,Man
114,273184,DepthScenes,duration_manipulation_targetAtFixation,jsons/v1_VE1000_randls_25.json,http://54.235.29.9/FacialAge/BNav_EC2/DepthDuration/v2_depth_duration_MTurk/v2_DepthDuration_HTML.html#279,279,1536,864,1536,864,8-30-2022,6-7-3,115,depth_duration_stimuli/002545_2014-06-24_13-38-53_094959634447_rgbf000080-resize_4/002545_2014-06-24_13-38-53_094959634447_rgbf000080-resize_4-target.png,1000,1.9205,3,2739,1007,feet,jsons/v1_VE1000_randls_25.json,661641,837241,39,Man
115,273184,DepthScenes,duration_manipulation_targetAtFixation,jsons/v1_VE1000_randls_25.json,http://54.235.29.9/FacialAge/BNav_EC2/DepthDuration/v2_depth_duration_MTurk/v2_DepthDuration_HTML.html#279,279,1536,864,1536,864,8-30-2022,6-7-3,116,depth_duration_stimuli/001170_2014-06-17_15-43-44_260595134347_rgbf000096-resize_6/001170_2014-06-17_15-43-44_260595134347_rgbf000096-resize-original.jpg,1000,1.1909999999999998,0,3925,1008,feet,jsons/v1_VE1000_randls_25.json,661641,837241,39,Man
116,273184,DepthScenes,duration_manipulation_targetAtFixation,jsons/v1_VE1000_randls_25.json,http://54.235.29.9/FacialAge/BNav_EC2/DepthDuration/v2_depth_duration_MTurk/v2_DepthDuration_HTML.html#279,279,1536,864,1536,864,8-30-2022,6-7-3,117,depth_duration_stimuli/000878_2014-06-08_22-52-45_260595134347_rgbf000045-resize_2/000878_2014-06-08_22-52-45_260595134347_rgbf000045-resize_2-target.png,1000,2.092,3,3490,1000,feet,jsons/v1_VE1000_randls_25.json,661641,837241,39,Man
117,273184,DepthScenes,duration_manipulation_targetAtFixation,jsons/v1_VE1000_randls_25.json,http://54.235.29.9/FacialAge/BNav_EC2/DepthDuration/v2_depth_duration_MTurk/v2_DepthDuration_HTML.html#279,279,1536,864,1536,864,8-30-2022,6-7-3,118,depth_duration_stimuli/002953_2014-06-08_17-32-18_094959634447_rgbf000059-resize_5/002953_2014-06-08_17-32-18_094959634447_rgbf000059-resize_5-target.png,1000,1.551,1,2994,998,feet,jsons/v1_VE1000_randls_25.json,661641,837241,39,Man
118,273184,DepthScenes,duration_manipulation_targetAtFixation,jsons/v1_VE1000_randls_25.json,http://54.235.29.9/FacialAge/BNav_EC2/DepthDuration/v2_depth_duration_MTurk/v2_DepthDuration_HTML.html#279,279,1536,864,1536,864,8-30-2022,6-7-3,119,depth_duration_stimuli/002600_2014-06-24_14-27-04_094959634447_rgbf000074-resize_2/002600_2014-06-24_14-27-04_094959634447_rgbf000074-resize_2-target.png,1000,2.7575,3,3132,999,feet,jsons/v1_VE1000_randls_25.json,661641,837241,39,Man
119,273184,DepthScenes,duration_manipulation_targetAtFixation,jsons/v1_VE1000_randls_25.json,http://54.235.29.9/FacialAge/BNav_EC2/DepthDuration/v2_depth_duration_MTurk/v2_DepthDuration_HTML.html#279,279,1536,864,1536,864,8-30-2022,6-7-3,120,depth_duration_stimuli/003228_2014-05-14_13-42-35_094959634447_rgbf000101-resize_1/003228_2014-05-14_13-42-35_094959634447_rgbf000101-resize_1-target.png,1000,1.9680000000000002,2,2503,1000,feet,jsons/v1_VE1000_randls_25.json,661641,837241,39,Man
120,273184,DepthScenes,duration_manipulation_targetAtFixation,jsons/v1_VE1000_randls_25.json,http://54.235.29.9/FacialAge/BNav_EC2/DepthDuration/v2_depth_duration_MTurk/v2_DepthDuration_HTML.html#279,279,1536,864,1536,864,8-30-2022,6-7-3,121,depth_duration_stimuli/002375_2014-06-28_20-13-44_260595134347_rgbf000032-resize_1/002375_2014-06-28_20-13-44_260595134347_rgbf000032-resize_1-target.png,1000,4.0175,3,2826,1011,feet,jsons/v1_VE1000_randls_25.json,661641,837241,39,Man
121,273184,DepthScenes,duration_manipulation_targetAtFixation,jsons/v1_VE1000_randls_25.json,http://54.235.29.9/FacialAge/BNav_EC2/DepthDuration/v2_depth_duration_MTurk/v2_DepthDuration_HTML.html#279,279,1536,864,1536,864,8-30-2022,6-7-3,122,depth_duration_stimuli/002657_2014-06-13_15-29-54_094959634447_rgbf000150-resize_1/002657_2014-06-13_15-29-54_094959634447_rgbf000150-resize_1-target.png,1000,4.919,5,3572,1004,feet,jsons/v1_VE1000_randls_25.json,661641,837241,39,Man
122,273184,DepthScenes,duration_manipulation_targetAtFixation,jsons/v1_VE1000_randls_25.json,http://54.235.29.9/FacialAge/BNav_EC2/DepthDuration/v2_depth_duration_MTurk/v2_DepthDuration_HTML.html#279,279,1536,864,1536,864,8-30-2022,6-7-3,123,depth_duration_stimuli/002509_2014-06-24_13-19-22_094959634447_rgbf000077-resize_0/002509_2014-06-24_13-19-22_094959634447_rgbf000077-resize_0-target.png,1000,1.3065,1,2743,999,feet,jsons/v1_VE1000_randls_25.json,661641,837241,39,Man
123,273184,DepthScenes,duration_manipulation_targetAtFixation,jsons/v1_VE1000_randls_25.json,http://54.235.29.9/FacialAge/BNav_EC2/DepthDuration/v2_depth_duration_MTurk/v2_DepthDuration_HTML.html#279,279,1536,864,1536,864,8-30-2022,6-7-3,124,depth_duration_stimuli/003338_2014-05-20_11-01-23_094959634447_rgbf000051-resize_6/003338_2014-05-20_11-01-23_094959634447_rgbf000051-resize_6-target.png,1000,1.693,1,2512,1012,feet,jsons/v1_VE1000_randls_25.json,661641,837241,39,Man
124,273184,DepthScenes,duration_manipulation_targetAtFixation,jsons/v1_VE1000_randls_25.json,http://54.235.29.9/FacialAge/BNav_EC2/DepthDuration/v2_depth_duration_MTurk/v2_DepthDuration_HTML.html#279,279,1536,864,1536,864,8-30-2022,6-7-3,125,depth_duration_stimuli/000470_2014-06-09_19-42-40_260595134347_rgbf000094-resize_1/000470_2014-06-09_19-42-40_260595134347_rgbf000094-resize_1-target.png,1000,1.831,1,2699,1010,feet,jsons/v1_VE1000_randls_25.json,661641,837241,39,Man
125,273184,DepthScenes,duration_manipulation_targetAtFixation,jsons/v1_VE1000_randls_25.json,http://54.235.29.9/FacialAge/BNav_EC2/DepthDuration/v2_depth_duration_MTurk/v2_DepthDuration_HTML.html#279,279,1536,864,1536,864,8-30-2022,6-7-3,126,depth_duration_stimuli/000109_2014-05-14_23-41-52_260595134347_rgbf000035-resize_9/000109_2014-05-14_23-41-52_260595134347_rgbf000035-resize_9-target.png,1000,1.3545,1,2514,1000,feet,jsons/v1_VE1000_randls_25.json,661641,837241,39,Man
126,273184,DepthScenes,duration_manipulation_targetAtFixation,jsons/v1_VE1000_randls_25.json,http://54.235.29.9/FacialAge/BNav_EC2/DepthDuration/v2_depth_duration_MTurk/v2_DepthDuration_HTML.html#279,279,1536,864,1536,864,8-30-2022,6-7-3,127,depth_duration_stimuli/001175_2014-06-17_15-45-55_260595134347_rgbf000129-resize_4/001175_2014-06-17_15-45-55_260595134347_rgbf000129-resize_4-target.png,1000,4.255,6,3276,1000,feet,jsons/v1_VE1000_randls_25.json,661641,837241,39,Man
127,273184,DepthScenes,duration_manipulation_targetAtFixation,jsons/v1_VE1000_randls_25.json,http://54.235.29.9/FacialAge/BNav_EC2/DepthDuration/v2_depth_duration_MTurk/v2_DepthDuration_HTML.html#279,279,1536,864,1536,864,8-30-2022,6-7-3,128,depth_duration_stimuli/003490_2014-05-21_15-50-11_094959634447_rgbf000101-resize_3/003490_2014-05-21_15-50-11_094959634447_rgbf000101-resize_3-target.png,1000,3.6445,4,3741,1002,feet,jsons/v1_VE1000_randls_25.json,661641,837241,39,Man
128,273184,DepthScenes,duration_manipulation_targetAtFixation,jsons/v1_VE1000_randls_25.json,http://54.235.29.9/FacialAge/BNav_EC2/DepthDuration/v2_depth_duration_MTurk/v2_DepthDuration_HTML.html#279,279,1536,864,1536,864,8-30-2022,6-7-3,129,depth_duration_stimuli/002057_2014-06-24_21-00-13_260595134347_rgbf000120-resize_1/002057_2014-06-24_21-00-13_260595134347_rgbf000120-resize_1-target.png,1000,2.967,4,4488,994,feet,jsons/v1_VE1000_randls_25.json,661641,837241,39,Man
129,273184,DepthScenes,duration_manipulation_targetAtFixation,jsons/v1_VE1000_randls_25.json,http://54.235.29.9/FacialAge/BNav_EC2/DepthDuration/v2_depth_duration_MTurk/v2_DepthDuration_HTML.html#279,279,1536,864,1536,864,8-30-2022,6-7-3,130,depth_duration_stimuli/000709_2014-06-08_13-51-55_260595134347_rgbf000068-resize_3/000709_2014-06-08_13-51-55_260595134347_rgbf000068-resize_3-target.png,1000,1.8030000000000002,2,3859,1009,feet,jsons/v1_VE1000_randls_25.json,661641,837241,39,Man
130,273184,DepthScenes,duration_manipulation_targetAtFixation,jsons/v1_VE1000_randls_25.json,http://54.235.29.9/FacialAge/BNav_EC2/DepthDuration/v2_depth_duration_MTurk/v2_DepthDuration_HTML.html#279,279,1536,864,1536,864,8-30-2022,6-7-3,131,depth_duration_stimuli/002748_2014-06-22_19-07-22_094959634447_rgbf000078-resize_1/002748_2014-06-22_19-07-22_094959634447_rgbf000078-resize_1-target.png,1000,4.6705,9,3764,1002,feet,jsons/v1_VE1000_randls_25.json,661641,837241,39,Man
131,273184,DepthScenes,duration_manipulation_targetAtFixation,jsons/v1_VE1000_randls_25.json,http://54.235.29.9/FacialAge/BNav_EC2/DepthDuration/v2_depth_duration_MTurk/v2_DepthDuration_HTML.html#279,279,1536,864,1536,864,8-30-2022,6-7-3,132,depth_duration_stimuli/002995_2014-06-15_12-31-26_094959634447_rgbf000150-resize_1/002995_2014-06-15_12-31-26_094959634447_rgbf000150-resize_1-target.png,1000,3.8360000000000003,7,6032,1000,feet,jsons/v1_VE1000_randls_25.json,661641,837241,39,Man
132,273184,DepthScenes,duration_manipulation_targetAtFixation,jsons/v1_VE1000_randls_25.json,http://54.235.29.9/FacialAge/BNav_EC2/DepthDuration/v2_depth_duration_MTurk/v2_DepthDuration_HTML.html#279,279,1536,864,1536,864,8-30-2022,6-7-3,133,depth_duration_stimuli/000736_2014-06-08_18-24-15_260595134347_rgbf000206-resize_3/000736_2014-06-08_18-24-15_260595134347_rgbf000206-resize_3-target.png,1000,3.515,4,3691,1007,feet,jsons/v1_VE1000_randls_25.json,661641,837241,39,Man
133,273184,DepthScenes,duration_manipulation_targetAtFixation,jsons/v1_VE1000_randls_25.json,http://54.235.29.9/FacialAge/BNav_EC2/DepthDuration/v2_depth_duration_MTurk/v2_DepthDuration_HTML.html#279,279,1536,864,1536,864,8-30-2022,6-7-3,134,depth_duration_stimuli/000137_2014-05-20_17-04-49_260595134347_rgbf000120-resize_1/000137_2014-05-20_17-04-49_260595134347_rgbf000120-resize_1-target.png,1000,3.786,7,4669,1008,feet,jsons/v1_VE1000_randls_25.json,661641,837241,39,Man
134,273184,DepthScenes,duration_manipulation_targetAtFixation,jsons/v1_VE1000_randls_25.json,http://54.235.29.9/FacialAge/BNav_EC2/DepthDuration/v2_depth_duration_MTurk/v2_DepthDuration_HTML.html#279,279,1536,864,1536,864,8-30-2022,6-7-3,135,depth_duration_stimuli/002072_2014-06-24_21-48-06_260595134347_rgbf000115-resize_0/002072_2014-06-24_21-48-06_260595134347_rgbf000115-resize-original.jpg,1000,4.702,0,3484,1010,feet,jsons/v1_VE1000_randls_25.json,661641,837241,39,Man
135,273184,DepthScenes,duration_manipulation_targetAtFixation,jsons/v1_VE1000_randls_25.json,http://54.235.29.9/FacialAge/BNav_EC2/DepthDuration/v2_depth_duration_MTurk/v2_DepthDuration_HTML.html#279,279,1536,864,1536,864,8-30-2022,6-7-3,136,depth_duration_stimuli/002279_2014-06-28_18-55-32_260595134347_rgbf000040-resize_5/002279_2014-06-28_18-55-32_260595134347_rgbf000040-resize_5-target.png,1000,1.5043333333333,2,2919,1004,feet,jsons/v1_VE1000_randls_25.json,661641,837241,39,Man
136,273184,DepthScenes,duration_manipulation_targetAtFixation,jsons/v1_VE1000_randls_25.json,http://54.235.29.9/FacialAge/BNav_EC2/DepthDuration/v2_depth_duration_MTurk/v2_DepthDuration_HTML.html#279,279,1536,864,1536,864,8-30-2022,6-7-3,137,depth_duration_stimuli/000635_2014-06-08_16-38-42_260595134347_rgbf000106-resize_1/000635_2014-06-08_16-38-42_260595134347_rgbf000106-resize_1-target.png,1000,2.074,5,4016,1001,feet,jsons/v1_VE1000_randls_25.json,661641,837241,39,Man
137,273184,DepthScenes,duration_manipulation_targetAtFixation,jsons/v1_VE1000_randls_25.json,http://54.235.29.9/FacialAge/BNav_EC2/DepthDuration/v2_depth_duration_MTurk/v2_DepthDuration_HTML.html#279,279,1536,864,1536,864,8-30-2022,6-7-3,138,depth_duration_stimuli/000414_2014-06-04_19-49-13_260595134347_rgbf000044-resize_0/000414_2014-06-04_19-49-13_260595134347_rgbf000044-resize_0-target.png,1000,4.329,8,2757,992,feet,jsons/v1_VE1000_randls_25.json,661641,837241,39,Man
138,273184,DepthScenes,duration_manipulation_targetAtFixation,jsons/v1_VE1000_randls_25.json,http://54.235.29.9/FacialAge/BNav_EC2/DepthDuration/v2_depth_duration_MTurk/v2_DepthDuration_HTML.html#279,279,1536,864,1536,864,8-30-2022,6-7-3,139,depth_duration_stimuli/003129_2014-05-12_10-48-10_094959634447_rgbf000100-resize_0/003129_2014-05-12_10-48-10_094959634447_rgbf000100-resize_0-target.png,1000,4.9305,7,4285,1014,feet,jsons/v1_VE1000_randls_25.json,661641,837241,39,Man
139,273184,DepthScenes,duration_manipulation_targetAtFixation,jsons/v1_VE1000_randls_25.json,http://54.235.29.9/FacialAge/BNav_EC2/DepthDuration/v2_depth_duration_MTurk/v2_DepthDuration_HTML.html#279,279,1536,864,1536,864,8-30-2022,6-7-3,140,depth_duration_stimuli/001808_2014-06-26_20-50-58_260595134347_rgbf000029-resize_1/001808_2014-06-26_20-50-58_260595134347_rgbf000029-resize_1-target.png,1000,4.249,7,2750,1004,feet,jsons/v1_VE1000_randls_25.json,661641,837241,39,Man
140,273184,DepthScenes,duration_manipulation_targetAtFixation,jsons/v1_VE1000_randls_25.json,http://54.235.29.9/FacialAge/BNav_EC2/DepthDuration/v2_depth_duration_MTurk/v2_DepthDuration_HTML.html#279,279,1536,864,1536,864,8-30-2022,6-7-3,141,depth_duration_stimuli/001815_2014-06-26_20-52-55_260595134347_rgbf000020-resize_0/001815_2014-06-26_20-52-55_260595134347_rgbf000020-resize_0-target.png,1000,3.3865,7,4103,994,feet,jsons/v1_VE1000_randls_25.json,661641,837241,39,Man
141,273184,DepthScenes,duration_manipulation_targetAtFixation,jsons/v1_VE1000_randls_25.json,http://54.235.29.9/FacialAge/BNav_EC2/DepthDuration/v2_depth_duration_MTurk/v2_DepthDuration_HTML.html#279,279,1536,864,1536,864,8-30-2022,6-7-3,142,depth_duration_stimuli/000486_2014-06-09_20-47-20_260595134347_rgbf000143-resize_2/000486_2014-06-09_20-47-20_260595134347_rgbf000143-resize_2-target.png,1000,4.8325,8,3852,1004,feet,jsons/v1_VE1000_randls_25.json,661641,837241,39,Man
142,273184,DepthScenes,duration_manipulation_targetAtFixation,jsons/v1_VE1000_randls_25.json,http://54.235.29.9/FacialAge/BNav_EC2/DepthDuration/v2_depth_duration_MTurk/v2_DepthDuration_HTML.html#279,279,1536,864,1536,864,8-30-2022,6-7-3,143,depth_duration_stimuli/003083_2014-06-15_15-21-03_094959634447_rgbf000063-resize_1/003083_2014-06-15_15-21-03_094959634447_rgbf000063-resize_1-target.png,1000,4.1405,7,3793,1006,feet,jsons/v1_VE1000_randls_25.json,661641,837241,39,Man
143,273184,DepthScenes,duration_manipulation_targetAtFixation,jsons/v1_VE1000_randls_25.json,http://54.235.29.9/FacialAge/BNav_EC2/DepthDuration/v2_depth_duration_MTurk/v2_DepthDuration_HTML.html#279,279,1536,864,1536,864,8-30-2022,6-7-3,144,depth_duration_stimuli/002213_2014-06-28_18-37-58_260595134347_rgbf000055-resize_1/002213_2014-06-28_18-37-58_260595134347_rgbf000055-resize_1-target.png,1000,3.62,9,3768,1001,feet,jsons/v1_VE1000_randls_25.json,661641,837241,39,Man
144,273184,DepthScenes,duration_manipulation_targetAtFixation,jsons/v1_VE1000_randls_25.json,http://54.235.29.9/FacialAge/BNav_EC2/DepthDuration/v2_depth_duration_MTurk/v2_DepthDuration_HTML.html#279,279,1536,864,1536,864,8-30-2022,6-7-3,145,depth_duration_stimuli/000691_2014-06-08_13-08-50_260595134347_rgbf000132-resize_3/000691_2014-06-08_13-08-50_260595134347_rgbf000132-resize_3-target.png,1000,4.1530000000000005,6,3258,1010,feet,jsons/v1_VE1000_randls_25.json,661641,837241,39,Man
145,273184,DepthScenes,duration_manipulation_targetAtFixation,jsons/v1_VE1000_randls_25.json,http://54.235.29.9/FacialAge/BNav_EC2/DepthDuration/v2_depth_duration_MTurk/v2_DepthDuration_HTML.html#279,279,1536,864,1536,864,8-30-2022,6-7-3,146,depth_duration_stimuli/001498_2014-06-19_17-45-14_260595134347_rgbf000129-resize_4/001498_2014-06-19_17-45-14_260595134347_rgbf000129-resize-original.jpg,1000,1.4075,0,3218,1006,feet,jsons/v1_VE1000_randls_25.json,661641,837241,39,Man
146,273184,DepthScenes,duration_manipulation_targetAtFixation,jsons/v1_VE1000_randls_25.json,http://54.235.29.9/FacialAge/BNav_EC2/DepthDuration/v2_depth_duration_MTurk/v2_DepthDuration_HTML.html#279,279,1536,864,1536,864,8-30-2022,6-7-3,147,depth_duration_stimuli/000739_2014-06-08_18-45-58_260595134347_rgbf000068-resize_1/000739_2014-06-08_18-45-58_260595134347_rgbf000068-resize_1-target.png,1000,3.534,5,3054,1004,feet,jsons/v1_VE1000_randls_25.json,661641,837241,39,Man
147,273184,DepthScenes,duration_manipulation_targetAtFixation,jsons/v1_VE1000_randls_25.json,http://54.235.29.9/FacialAge/BNav_EC2/DepthDuration/v2_depth_duration_MTurk/v2_DepthDuration_HTML.html#279,279,1536,864,1536,864,8-30-2022,6-7-3,148,depth_duration_stimuli/000734_2014-06-08_17-39-11_260595134347_rgbf000128-resize_2/000734_2014-06-08_17-39-11_260595134347_rgbf000128-resize_2-target.png,1000,4.098,4,2943,1001,feet,jsons/v1_VE1000_randls_25.json,661641,837241,39,Man
148,273184,DepthScenes,duration_manipulation_targetAtFixation,jsons/v1_VE1000_randls_25.json,http://54.235.29.9/FacialAge/BNav_EC2/DepthDuration/v2_depth_duration_MTurk/v2_DepthDuration_HTML.html#279,279,1536,864,1536,864,8-30-2022,6-7-3,149,depth_duration_stimuli/002964_2014-06-08_17-46-11_094959634447_rgbf000091-resize_4/002964_2014-06-08_17-46-11_094959634447_rgbf000091-resize_4-target.png,1000,1.6909999999999998,3,6234,986,feet,jsons/v1_VE1000_randls_25.json,661641,837241,39,Man
149,273184,DepthScenes,duration_manipulation_targetAtFixation,jsons/v1_VE1000_randls_25.json,http://54.235.29.9/FacialAge/BNav_EC2/DepthDuration/v2_depth_duration_MTurk/v2_DepthDuration_HTML.html#279,279,1536,864,1536,864,8-30-2022,6-7-3,150,depth_duration_stimuli/002136_2014-06-25_21-18-03_260595134347_rgbf000109-resize_3/002136_2014-06-25_21-18-03_260595134347_rgbf000109-resize_3-target.png,1000,1.9569999999999999,2,5226,1007,feet,jsons/v1_VE1000_randls_25.json,661641,837241,39,Man
150,273184,DepthScenes,duration_manipulation_targetAtFixation,jsons/v1_VE1000_randls_25.json,http://54.235.29.9/FacialAge/BNav_EC2/DepthDuration/v2_depth_duration_MTurk/v2_DepthDuration_HTML.html#279,279,1536,864,1536,864,8-30-2022,6-7-3,151,depth_duration_stimuli/000929_2014-06-09_16-33-19_260595134347_rgbf000139-resize_0/000929_2014-06-09_16-33-19_260595134347_rgbf000139-resize_0-target.png,1000,2.8680000000000003,4,2665,1006,feet,jsons/v1_VE1000_randls_25.json,661641,837241,39,Man
151,273184,DepthScenes,duration_manipulation_targetAtFixation,jsons/v1_VE1000_randls_25.json,http://54.235.29.9/FacialAge/BNav_EC2/DepthDuration/v2_depth_duration_MTurk/v2_DepthDuration_HTML.html#279,279,1536,864,1536,864,8-30-2022,6-7-3,152,depth_duration_stimuli/000457_2014-06-08_16-52-43_260595134347_rgbf000199-resize_1/000457_2014-06-08_16-52-43_260595134347_rgbf000199-resize_1-target.png,1000,3.6489999999999996,6,2735,1007,feet,jsons/v1_VE1000_randls_25.json,661641,837241,39,Man
152,273184,DepthScenes,duration_manipulation_targetAtFixation,jsons/v1_VE1000_randls_25.json,http://54.235.29.9/FacialAge/BNav_EC2/DepthDuration/v2_depth_duration_MTurk/v2_DepthDuration_HTML.html#279,279,1536,864,1536,864,8-30-2022,6-7-3,153,depth_duration_stimuli/001029_2014-06-08_13-17-57_260595134347_rgbf000065-resize_1/001029_2014-06-08_13-17-57_260595134347_rgbf000065-resize_1-target.png,1000,3.0835,4,3701,1015,feet,jsons/v1_VE1000_randls_25.json,661641,837241,39,Man
153,273184,DepthScenes,duration_manipulation_targetAtFixation,jsons/v1_VE1000_randls_25.json,http://54.235.29.9/FacialAge/BNav_EC2/DepthDuration/v2_depth_duration_MTurk/v2_DepthDuration_HTML.html#279,279,1536,864,1536,864,8-30-2022,6-7-3,154,depth_duration_stimuli/000677_2014-06-08_23-10-32_260595134347_rgbf000158-resize_6/000677_2014-06-08_23-10-32_260595134347_rgbf000158-resize_6-target.png,1000,3.556,5,3227,1000,feet,jsons/v1_VE1000_randls_25.json,661641,837241,39,Man
154,273184,DepthScenes,duration_manipulation_targetAtFixation,jsons/v1_VE1000_randls_25.json,http://54.235.29.9/FacialAge/BNav_EC2/DepthDuration/v2_depth_duration_MTurk/v2_DepthDuration_HTML.html#279,279,1536,864,1536,864,8-30-2022,6-7-3,155,depth_duration_stimuli/001167_2014-06-17_15-38-07_260595134347_rgbf000108-resize_0/001167_2014-06-17_15-38-07_260595134347_rgbf000108-resize_0-target.png,1000,1.8505,2,3248,1000,feet,jsons/v1_VE1000_randls_25.json,661641,837241,39,Man
155,273184,DepthScenes,duration_manipulation_targetAtFixation,jsons/v1_VE1000_randls_25.json,http://54.235.29.9/FacialAge/BNav_EC2/DepthDuration/v2_depth_duration_MTurk/v2_DepthDuration_HTML.html#279,279,1536,864,1536,864,8-30-2022,6-7-3,156,depth_duration_stimuli/003587_2014-05-23_16-48-02_094959634447_rgbf002384-resize_2/003587_2014-05-23_16-48-02_094959634447_rgbf002384-resize_2-target.png,1000,1.357,2,3450,1015,feet,jsons/v1_VE1000_randls_25.json,661641,837241,39,Man
156,273184,DepthScenes,duration_manipulation_targetAtFixation,jsons/v1_VE1000_randls_25.json,http://54.235.29.9/FacialAge/BNav_EC2/DepthDuration/v2_depth_duration_MTurk/v2_DepthDuration_HTML.html#279,279,1536,864,1536,864,8-30-2022,6-7-3,157,depth_duration_stimuli/003070_2014-06-15_14-58-27_094959634447_rgbf000150-resize_3/003070_2014-06-15_14-58-27_094959634447_rgbf000150-resize_3-target.png,1000,2.9415,4,3006,1002,feet,jsons/v1_VE1000_randls_25.json,661641,837241,39,Man
157,273184,DepthScenes,duration_manipulation_targetAtFixation,jsons/v1_VE1000_randls_25.json,http://54.235.29.9/FacialAge/BNav_EC2/DepthDuration/v2_depth_duration_MTurk/v2_DepthDuration_HTML.html#279,279,1536,864,1536,864,8-30-2022,6-7-3,158,depth_duration_stimuli/000943_2014-06-09_19-31-07_260595134347_rgbf000128-resize_1/000943_2014-06-09_19-31-07_260595134347_rgbf000128-resize_1-target.png,1000,1.9765,3,2653,1000,feet,jsons/v1_VE1000_randls_25.json,661641,837241,39,Man
158,273184,DepthScenes,duration_manipulation_targetAtFixation,jsons/v1_VE1000_randls_25.json,http://54.235.29.9/FacialAge/BNav_EC2/DepthDuration/v2_depth_duration_MTurk/v2_DepthDuration_HTML.html#279,279,1536,864,1536,864,8-30-2022,6-7-3,159,depth_duration_stimuli/000773_2014-06-08_22-24-54_260595134347_rgbf000093-resize_1/000773_2014-06-08_22-24-54_260595134347_rgbf000093-resize_1-target.png,1000,4.973,5,3125,993,feet,jsons/v1_VE1000_randls_25.json,661641,837241,39,Man
159,273184,DepthScenes,duration_manipulation_targetAtFixation,jsons/v1_VE1000_randls_25.json,http://54.235.29.9/FacialAge/BNav_EC2/DepthDuration/v2_depth_duration_MTurk/v2_DepthDuration_HTML.html#279,279,1536,864,1536,864,8-30-2022,6-7-3,160,depth_duration_stimuli/002414_2014-06-28_20-24-58_260595134347_rgbf000067-resize_4/002414_2014-06-28_20-24-58_260595134347_rgbf000067-resize_4-target.png,1000,4.363,8,2674,1002,feet,jsons/v1_VE1000_randls_25.json,661641,837241,39,Man
160,273184,DepthScenes,duration_manipulation_targetAtFixation,jsons/v1_VE1000_randls_25.json,http://54.235.29.9/FacialAge/BNav_EC2/DepthDuration/v2_depth_duration_MTurk/v2_DepthDuration_HTML.html#279,279,1536,864,1536,864,8-30-2022,6-7-3,161,depth_duration_stimuli/000682_2014-06-08_23-14-58_260595134347_rgbf000041-resize_5/000682_2014-06-08_23-14-58_260595134347_rgbf000041-resize_5-target.png,1000,2.7239999999999998,4,2747,1005,feet,jsons/v1_VE1000_randls_25.json,661641,837241,39,Man
161,273184,DepthScenes,duration_manipulation_targetAtFixation,jsons/v1_VE1000_randls_25.json,http://54.235.29.9/FacialAge/BNav_EC2/DepthDuration/v2_depth_duration_MTurk/v2_DepthDuration_HTML.html#279,279,1536,864,1536,864,8-30-2022,6-7-3,162,depth_duration_stimuli/001650_2014-06-20_12-09-00_260595134347_rgbf000087-resize_3/001650_2014-06-20_12-09-00_260595134347_rgbf000087-resize_3-target.png,1000,1.9505,1,2569,986,feet,jsons/v1_VE1000_randls_25.json,661641,837241,39,Man
162,273184,DepthScenes,duration_manipulation_targetAtFixation,jsons/v1_VE1000_randls_25.json,http://54.235.29.9/FacialAge/BNav_EC2/DepthDuration/v2_depth_duration_MTurk/v2_DepthDuration_HTML.html#279,279,1536,864,1536,864,8-30-2022,6-7-3,163,depth_duration_stimuli/002272_2014-06-28_18-53-56_260595134347_rgbf000067-resize_2/002272_2014-06-28_18-53-56_260595134347_rgbf000067-resize_2-target.png,1000,1.138,1,3325,1009,feet,jsons/v1_VE1000_randls_25.json,661641,837241,39,Man
163,273184,DepthScenes,duration_manipulation_targetAtFixation,jsons/v1_VE1000_randls_25.json,http://54.235.29.9/FacialAge/BNav_EC2/DepthDuration/v2_depth_duration_MTurk/v2_DepthDuration_HTML.html#279,279,1536,864,1536,864,8-30-2022,6-7-3,164,depth_duration_stimuli/001571_2014-06-20_17-21-32_260595134347_rgbf000089-resize_1/001571_2014-06-20_17-21-32_260595134347_rgbf000089-resize_1-target.png,1000,1.86,2,3033,1004,feet,jsons/v1_VE1000_randls_25.json,661641,837241,39,Man
