,subjID,experimentName,versionName,sequenceName,url,selected_row,windowWidth,windowHeight,screenWidth,screenHeight,startDate,startTime,trial,stimulus,duration,actual_depth,depth_estimate,trial_RT,log_sceneDuration,unitSelection,seq_filepath,experimentTime,totalTime,age,gender
0,276028,DepthScenes,duration_manipulation_targetAtFixation,jsons/VE125_randls_48_rotated.json,http://54.235.29.9/FacialAge/BNav_EC2/DepthDuration/v2_depth_duration_MTurk/v2_DepthDuration_HTML.html#148,148,1536,711,1536,864,8-21-2022,10-36-35,1,depth_duration_stimuli/000709_2014-06-08_13-51-55_260595134347_rgbf000068-resize_3/000709_2014-06-08_13-51-55_260595134347_rgbf000068-resize_3-target.png,125,1.8030000000000002,10,3573,121,feet,jsons/VE125_randls_48_rotated.json,720803,841779,33,Man
1,276028,DepthScenes,duration_manipulation_targetAtFixation,jsons/VE125_randls_48_rotated.json,http://54.235.29.9/FacialAge/BNav_EC2/DepthDuration/v2_depth_duration_MTurk/v2_DepthDuration_HTML.html#148,148,1536,711,1536,864,8-21-2022,10-36-35,2,depth_duration_stimuli/002057_2014-06-24_21-00-13_260595134347_rgbf000120-resize_1/002057_2014-06-24_21-00-13_260595134347_rgbf000120-resize_1-target.png,125,2.967,19,3216,115,feet,jsons/VE125_randls_48_rotated.json,720803,841779,33,Man
2,276028,DepthScenes,duration_manipulation_targetAtFixation,jsons/VE125_randls_48_rotated.json,http://54.235.29.9/FacialAge/BNav_EC2/DepthDuration/v2_depth_duration_MTurk/v2_DepthDuration_HTML.html#148,148,1536,711,1536,864,8-21-2022,10-36-35,3,depth_duration_stimuli/000635_2014-06-08_16-38-42_260595134347_rgbf000106-resize_1/000635_2014-06-08_16-38-42_260595134347_rgbf000106-resize_1-target.png,125,2.074,15,3661,129,feet,jsons/VE125_randls_48_rotated.json,720803,841779,33,Man
3,276028,DepthScenes,duration_manipulation_targetAtFixation,jsons/VE125_randls_48_rotated.json,http://54.235.29.9/FacialAge/BNav_EC2/DepthDuration/v2_depth_duration_MTurk/v2_DepthDuration_HTML.html#148,148,1536,711,1536,864,8-21-2022,10-36-35,4,depth_duration_stimuli/002279_2014-06-28_18-55-32_260595134347_rgbf000040-resize_5/002279_2014-06-28_18-55-32_260595134347_rgbf000040-resize_5-target.png,125,1.5043333333333,9,2637,132,feet,jsons/VE125_randls_48_rotated.json,720803,841779,33,Man
4,276028,DepthScenes,duration_manipulation_targetAtFixation,jsons/VE125_randls_48_rotated.json,http://54.235.29.9/FacialAge/BNav_EC2/DepthDuration/v2_depth_duration_MTurk/v2_DepthDuration_HTML.html#148,148,1536,711,1536,864,8-21-2022,10-36-35,5,depth_duration_stimuli/002758_2014-06-22_19-11-20_094959634447_rgbf000128-resize_1/002758_2014-06-22_19-11-20_094959634447_rgbf000128-resize_1-target.png,125,2.555,12,2439,112,feet,jsons/VE125_randls_48_rotated.json,720803,841779,33,Man
5,276028,DepthScenes,duration_manipulation_targetAtFixation,jsons/VE125_randls_48_rotated.json,http://54.235.29.9/FacialAge/BNav_EC2/DepthDuration/v2_depth_duration_MTurk/v2_DepthDuration_HTML.html#148,148,1536,711,1536,864,8-21-2022,10-36-35,6,depth_duration_stimuli/002630_2014-06-24_14-47-50_094959634447_rgbf000055-resize_1/002630_2014-06-24_14-47-50_094959634447_rgbf000055-resize_1-target.png,125,3.0095,22,4678,119,feet,jsons/VE125_randls_48_rotated.json,720803,841779,33,Man
6,276028,DepthScenes,duration_manipulation_targetAtFixation,jsons/VE125_randls_48_rotated.json,http://54.235.29.9/FacialAge/BNav_EC2/DepthDuration/v2_depth_duration_MTurk/v2_DepthDuration_HTML.html#148,148,1536,711,1536,864,8-21-2022,10-36-35,7,depth_duration_stimuli/003228_2014-05-14_13-42-35_094959634447_rgbf000101-resize_1/003228_2014-05-14_13-42-35_094959634447_rgbf000101-resize_1-target.png,125,1.9680000000000002,8,5030,138,feet,jsons/VE125_randls_48_rotated.json,720803,841779,33,Man
7,276028,DepthScenes,duration_manipulation_targetAtFixation,jsons/VE125_randls_48_rotated.json,http://54.235.29.9/FacialAge/BNav_EC2/DepthDuration/v2_depth_duration_MTurk/v2_DepthDuration_HTML.html#148,148,1536,711,1536,864,8-21-2022,10-36-35,8,depth_duration_stimuli/002600_2014-06-24_14-27-04_094959634447_rgbf000074-resize_2/002600_2014-06-24_14-27-04_094959634447_rgbf000074-resize_2-target.png,125,2.7575,14,2996,130,feet,jsons/VE125_randls_48_rotated.json,720803,841779,33,Man
8,276028,DepthScenes,duration_manipulation_targetAtFixation,jsons/VE125_randls_48_rotated.json,http://54.235.29.9/FacialAge/BNav_EC2/DepthDuration/v2_depth_duration_MTurk/v2_DepthDuration_HTML.html#148,148,1536,711,1536,864,8-21-2022,10-36-35,9,depth_duration_stimuli/001447_2014-06-19_17-00-32_260595134347_rgbf000082-resize_5/001447_2014-06-19_17-00-32_260595134347_rgbf000082-resize_5-target.png,125,4.13775,12,2658,120,feet,jsons/VE125_randls_48_rotated.json,720803,841779,33,Man
9,276028,DepthScenes,duration_manipulation_targetAtFixation,jsons/VE125_randls_48_rotated.json,http://54.235.29.9/FacialAge/BNav_EC2/DepthDuration/v2_depth_duration_MTurk/v2_DepthDuration_HTML.html#148,148,1536,711,1536,864,8-21-2022,10-36-35,10,depth_duration_stimuli/000447_2014-06-08_16-15-46_260595134347_rgbf000130-resize_1/000447_2014-06-08_16-15-46_260595134347_rgbf000130-resize_1-target.png,125,4.479,30,3369,123,feet,jsons/VE125_randls_48_rotated.json,720803,841779,33,Man
10,276028,DepthScenes,duration_manipulation_targetAtFixation,jsons/VE125_randls_48_rotated.json,http://54.235.29.9/FacialAge/BNav_EC2/DepthDuration/v2_depth_duration_MTurk/v2_DepthDuration_HTML.html#148,148,1536,711,1536,864,8-21-2022,10-36-35,11,depth_duration_stimuli/000691_2014-06-08_13-08-50_260595134347_rgbf000132-resize_3/000691_2014-06-08_13-08-50_260595134347_rgbf000132-resize_3-target.png,125,4.1530000000000005,19,3344,130,feet,jsons/VE125_randls_48_rotated.json,720803,841779,33,Man
11,276028,DepthScenes,duration_manipulation_targetAtFixation,jsons/VE125_randls_48_rotated.json,http://54.235.29.9/FacialAge/BNav_EC2/DepthDuration/v2_depth_duration_MTurk/v2_DepthDuration_HTML.html#148,148,1536,711,1536,864,8-21-2022,10-36-35,12,depth_duration_stimuli/002213_2014-06-28_18-37-58_260595134347_rgbf000055-resize_1/002213_2014-06-28_18-37-58_260595134347_rgbf000055-resize_1-target.png,125,3.62,17,2976,120,feet,jsons/VE125_randls_48_rotated.json,720803,841779,33,Man
12,276028,DepthScenes,duration_manipulation_targetAtFixation,jsons/VE125_randls_48_rotated.json,http://54.235.29.9/FacialAge/BNav_EC2/DepthDuration/v2_depth_duration_MTurk/v2_DepthDuration_HTML.html#148,148,1536,711,1536,864,8-21-2022,10-36-35,13,depth_duration_stimuli/003423_2014-05-21_10-23-26_094959634447_rgbf002665-resize_2/003423_2014-05-21_10-23-26_094959634447_rgbf002665-resize_2-target.png,125,3.2575,21,4378,114,feet,jsons/VE125_randls_48_rotated.json,720803,841779,33,Man
13,276028,DepthScenes,duration_manipulation_targetAtFixation,jsons/VE125_randls_48_rotated.json,http://54.235.29.9/FacialAge/BNav_EC2/DepthDuration/v2_depth_duration_MTurk/v2_DepthDuration_HTML.html#148,148,1536,711,1536,864,8-21-2022,10-36-35,14,depth_duration_stimuli/002905_2014-06-03_18-04-43_094959634447_rgbf000151-resize_2/002905_2014-06-03_18-04-43_094959634447_rgbf000151-resize_2-target.png,125,2.0295,8,6887,116,feet,jsons/VE125_randls_48_rotated.json,720803,841779,33,Man
14,276028,DepthScenes,duration_manipulation_targetAtFixation,jsons/VE125_randls_48_rotated.json,http://54.235.29.9/FacialAge/BNav_EC2/DepthDuration/v2_depth_duration_MTurk/v2_DepthDuration_HTML.html#148,148,1536,711,1536,864,8-21-2022,10-36-35,15,depth_duration_stimuli/001052_2014-06-08_18-24-54_260595134347_rgbf000130-resize_1/001052_2014-06-08_18-24-54_260595134347_rgbf000130-resize_1-target.png,125,4.1045,24,4044,131,feet,jsons/VE125_randls_48_rotated.json,720803,841779,33,Man
15,276028,DepthScenes,duration_manipulation_targetAtFixation,jsons/VE125_randls_48_rotated.json,http://54.235.29.9/FacialAge/BNav_EC2/DepthDuration/v2_depth_duration_MTurk/v2_DepthDuration_HTML.html#148,148,1536,711,1536,864,8-21-2022,10-36-35,16,depth_duration_stimuli/002988_2014-06-15_12-24-20_094959634447_rgbf000150-resize_1/002988_2014-06-15_12-24-20_094959634447_rgbf000150-resize_1-target.png,125,4.7669999999999995,18,7828,122,feet,jsons/VE125_randls_48_rotated.json,720803,841779,33,Man
16,276028,DepthScenes,duration_manipulation_targetAtFixation,jsons/VE125_randls_48_rotated.json,http://54.235.29.9/FacialAge/BNav_EC2/DepthDuration/v2_depth_duration_MTurk/v2_DepthDuration_HTML.html#148,148,1536,711,1536,864,8-21-2022,10-36-35,17,depth_duration_stimuli/001450_2014-06-19_17-02-03_260595134347_rgbf000203-resize_4/001450_2014-06-19_17-02-03_260595134347_rgbf000203-resize_4-target.png,125,4.0106666666667,20,3841,130,feet,jsons/VE125_randls_48_rotated.json,720803,841779,33,Man
17,276028,DepthScenes,duration_manipulation_targetAtFixation,jsons/VE125_randls_48_rotated.json,http://54.235.29.9/FacialAge/BNav_EC2/DepthDuration/v2_depth_duration_MTurk/v2_DepthDuration_HTML.html#148,148,1536,711,1536,864,8-21-2022,10-36-35,18,depth_duration_stimuli/001449_2014-06-19_17-01-27_260595134347_rgbf000116-resize_2/001449_2014-06-19_17-01-27_260595134347_rgbf000116-resize_2-target.png,125,3.452,0,3432,115,feet,jsons/VE125_randls_48_rotated.json,720803,841779,33,Man
18,276028,DepthScenes,duration_manipulation_targetAtFixation,jsons/VE125_randls_48_rotated.json,http://54.235.29.9/FacialAge/BNav_EC2/DepthDuration/v2_depth_duration_MTurk/v2_DepthDuration_HTML.html#148,148,1536,711,1536,864,8-21-2022,10-36-35,19,depth_duration_stimuli/001498_2014-06-19_17-45-14_260595134347_rgbf000129-resize_4/001498_2014-06-19_17-45-14_260595134347_rgbf000129-resize-original.jpg,125,1.4075,0,2090,122,feet,jsons/VE125_randls_48_rotated.json,720803,841779,33,Man
19,276028,DepthScenes,duration_manipulation_targetAtFixation,jsons/VE125_randls_48_rotated.json,http://54.235.29.9/FacialAge/BNav_EC2/DepthDuration/v2_depth_duration_MTurk/v2_DepthDuration_HTML.html#148,148,1536,711,1536,864,8-21-2022,10-36-35,20,depth_duration_stimuli/002805_2014-06-22_19-54-03_094959634447_rgbf000079-resize_1/002805_2014-06-22_19-54-03_094959634447_rgbf000079-resize_1-target.png,125,3.1439999999999997,21,5358,120,feet,jsons/VE125_randls_48_rotated.json,720803,841779,33,Man
20,276028,DepthScenes,duration_manipulation_targetAtFixation,jsons/VE125_randls_48_rotated.json,http://54.235.29.9/FacialAge/BNav_EC2/DepthDuration/v2_depth_duration_MTurk/v2_DepthDuration_HTML.html#148,148,1536,711,1536,864,8-21-2022,10-36-35,21,depth_duration_stimuli/000906_2014-06-08_13-35-43_260595134347_rgbf000155-resize_1/000906_2014-06-08_13-35-43_260595134347_rgbf000155-resize_1-target.png,125,2.8489999999999998,19,2952,130,feet,jsons/VE125_randls_48_rotated.json,720803,841779,33,Man
21,276028,DepthScenes,duration_manipulation_targetAtFixation,jsons/VE125_randls_48_rotated.json,http://54.235.29.9/FacialAge/BNav_EC2/DepthDuration/v2_depth_duration_MTurk/v2_DepthDuration_HTML.html#148,148,1536,711,1536,864,8-21-2022,10-36-35,22,depth_duration_stimuli/002949_2014-06-26_15-57-42_094959634447_rgbf000079-resize_1/002949_2014-06-26_15-57-42_094959634447_rgbf000079-resize_1-target.png,125,1.8915,13,4739,137,feet,jsons/VE125_randls_48_rotated.json,720803,841779,33,Man
22,276028,DepthScenes,duration_manipulation_targetAtFixation,jsons/VE125_randls_48_rotated.json,http://54.235.29.9/FacialAge/BNav_EC2/DepthDuration/v2_depth_duration_MTurk/v2_DepthDuration_HTML.html#148,148,1536,711,1536,864,8-21-2022,10-36-35,23,depth_duration_stimuli/000522_2014-06-08_13-35-06_260595134347_rgbf000244-resize_1/000522_2014-06-08_13-35-06_260595134347_rgbf000244-resize_1-target.png,125,2.3715,3,3261,131,feet,jsons/VE125_randls_48_rotated.json,720803,841779,33,Man
23,276028,DepthScenes,duration_manipulation_targetAtFixation,jsons/VE125_randls_48_rotated.json,http://54.235.29.9/FacialAge/BNav_EC2/DepthDuration/v2_depth_duration_MTurk/v2_DepthDuration_HTML.html#148,148,1536,711,1536,864,8-21-2022,10-36-35,24,depth_duration_stimuli/000665_2014-06-09_20-42-35_260595134347_rgbf000110-resize_1/000665_2014-06-09_20-42-35_260595134347_rgbf000110-resize_1-target.png,125,3.057,9,3754,121,feet,jsons/VE125_randls_48_rotated.json,720803,841779,33,Man
24,276028,DepthScenes,duration_manipulation_targetAtFixation,jsons/VE125_randls_48_rotated.json,http://54.235.29.9/FacialAge/BNav_EC2/DepthDuration/v2_depth_duration_MTurk/v2_DepthDuration_HTML.html#148,148,1536,711,1536,864,8-21-2022,10-36-35,25,depth_duration_stimuli/001150_2014-06-17_15-27-34_260595134347_rgbf000108-resize_2/001150_2014-06-17_15-27-34_260595134347_rgbf000108-resize_2-target.png,125,4.0325,17,3320,130,feet,jsons/VE125_randls_48_rotated.json,720803,841779,33,Man
25,276028,DepthScenes,duration_manipulation_targetAtFixation,jsons/VE125_randls_48_rotated.json,http://54.235.29.9/FacialAge/BNav_EC2/DepthDuration/v2_depth_duration_MTurk/v2_DepthDuration_HTML.html#148,148,1536,711,1536,864,8-21-2022,10-36-35,26,depth_duration_stimuli/001617_2014-06-20_11-35-32_260595134347_rgbf000066-resize_1/001617_2014-06-20_11-35-32_260595134347_rgbf000066-resize_1-target.png,125,3.7910000000000004,16,3784,131,feet,jsons/VE125_randls_48_rotated.json,720803,841779,33,Man
26,276028,DepthScenes,duration_manipulation_targetAtFixation,jsons/VE125_randls_48_rotated.json,http://54.235.29.9/FacialAge/BNav_EC2/DepthDuration/v2_depth_duration_MTurk/v2_DepthDuration_HTML.html#148,148,1536,711,1536,864,8-21-2022,10-36-35,27,depth_duration_stimuli/001806_2014-06-26_20-50-20_260595134347_rgbf000091-resize_1/001806_2014-06-26_20-50-20_260595134347_rgbf000091-resize_1-target.png,125,2.7305,8,2535,128,feet,jsons/VE125_randls_48_rotated.json,720803,841779,33,Man
27,276028,DepthScenes,duration_manipulation_targetAtFixation,jsons/VE125_randls_48_rotated.json,http://54.235.29.9/FacialAge/BNav_EC2/DepthDuration/v2_depth_duration_MTurk/v2_DepthDuration_HTML.html#148,148,1536,711,1536,864,8-21-2022,10-36-35,28,depth_duration_stimuli/003495_2014-05-21_16-01-51_094959634447_rgbf000100-resize_3/003495_2014-05-21_16-01-51_094959634447_rgbf000100-resize_3-target.png,125,1.6255,4,3135,121,feet,jsons/VE125_randls_48_rotated.json,720803,841779,33,Man
28,276028,DepthScenes,duration_manipulation_targetAtFixation,jsons/VE125_randls_48_rotated.json,http://54.235.29.9/FacialAge/BNav_EC2/DepthDuration/v2_depth_duration_MTurk/v2_DepthDuration_HTML.html#148,148,1536,711,1536,864,8-21-2022,10-36-35,29,depth_duration_stimuli/001244_2014-06-17_16-47-45_260595134347_rgbf000030-resize_4/001244_2014-06-17_16-47-45_260595134347_rgbf000030-resize_4-target.png,125,2.0425,8,2228,135,feet,jsons/VE125_randls_48_rotated.json,720803,841779,33,Man
29,276028,DepthScenes,duration_manipulation_targetAtFixation,jsons/VE125_randls_48_rotated.json,http://54.235.29.9/FacialAge/BNav_EC2/DepthDuration/v2_depth_duration_MTurk/v2_DepthDuration_HTML.html#148,148,1536,711,1536,864,8-21-2022,10-36-35,30,depth_duration_stimuli/002072_2014-06-24_21-48-06_260595134347_rgbf000115-resize_0/002072_2014-06-24_21-48-06_260595134347_rgbf000115-resize-original.jpg,125,4.702,0,2323,127,feet,jsons/VE125_randls_48_rotated.json,720803,841779,33,Man
30,276028,DepthScenes,duration_manipulation_targetAtFixation,jsons/VE125_randls_48_rotated.json,http://54.235.29.9/FacialAge/BNav_EC2/DepthDuration/v2_depth_duration_MTurk/v2_DepthDuration_HTML.html#148,148,1536,711,1536,864,8-21-2022,10-36-35,31,depth_duration_stimuli/002657_2014-06-13_15-29-54_094959634447_rgbf000150-resize_1/002657_2014-06-13_15-29-54_094959634447_rgbf000150-resize_1-target.png,125,4.919,20,6685,127,feet,jsons/VE125_randls_48_rotated.json,720803,841779,33,Man
31,276028,DepthScenes,duration_manipulation_targetAtFixation,jsons/VE125_randls_48_rotated.json,http://54.235.29.9/FacialAge/BNav_EC2/DepthDuration/v2_depth_duration_MTurk/v2_DepthDuration_HTML.html#148,148,1536,711,1536,864,8-21-2022,10-36-35,32,depth_duration_stimuli/002375_2014-06-28_20-13-44_260595134347_rgbf000032-resize_1/002375_2014-06-28_20-13-44_260595134347_rgbf000032-resize_1-target.png,125,4.0175,15,5900,133,feet,jsons/VE125_randls_48_rotated.json,720803,841779,33,Man
32,276028,DepthScenes,duration_manipulation_targetAtFixation,jsons/VE125_randls_48_rotated.json,http://54.235.29.9/FacialAge/BNav_EC2/DepthDuration/v2_depth_duration_MTurk/v2_DepthDuration_HTML.html#148,148,1536,711,1536,864,8-21-2022,10-36-35,33,depth_duration_stimuli/003010_2014-06-15_12-54-35_094959634447_rgbf000112-resize_0/003010_2014-06-15_12-54-35_094959634447_rgbf000112-resize_0-target.png,125,3.1185,16,2397,117,feet,jsons/VE125_randls_48_rotated.json,720803,841779,33,Man
33,276028,DepthScenes,duration_manipulation_targetAtFixation,jsons/VE125_randls_48_rotated.json,http://54.235.29.9/FacialAge/BNav_EC2/DepthDuration/v2_depth_duration_MTurk/v2_DepthDuration_HTML.html#148,148,1536,711,1536,864,8-21-2022,10-36-35,34,depth_duration_stimuli/001810_2014-06-26_20-51-35_260595134347_rgbf000040-resize_3/001810_2014-06-26_20-51-35_260595134347_rgbf000040-resize_3-target.png,125,2.2525,10,2626,128,feet,jsons/VE125_randls_48_rotated.json,720803,841779,33,Man
34,276028,DepthScenes,duration_manipulation_targetAtFixation,jsons/VE125_randls_48_rotated.json,http://54.235.29.9/FacialAge/BNav_EC2/DepthDuration/v2_depth_duration_MTurk/v2_DepthDuration_HTML.html#148,148,1536,711,1536,864,8-21-2022,10-36-35,35,depth_duration_stimuli/001516_2014-06-20_16-25-09_260595134347_rgbf000076-resize_2/001516_2014-06-20_16-25-09_260595134347_rgbf000076-resize_2-target.png,125,1.7445,8,3733,128,feet,jsons/VE125_randls_48_rotated.json,720803,841779,33,Man
35,276028,DepthScenes,duration_manipulation_targetAtFixation,jsons/VE125_randls_48_rotated.json,http://54.235.29.9/FacialAge/BNav_EC2/DepthDuration/v2_depth_duration_MTurk/v2_DepthDuration_HTML.html#148,148,1536,711,1536,864,8-21-2022,10-36-35,36,depth_duration_stimuli/002118_2014-06-25_20-32-08_260595134347_rgbf000078-resize_1/002118_2014-06-25_20-32-08_260595134347_rgbf000078-resize_1-target.png,125,2.6460000000000004,12,2117,127,feet,jsons/VE125_randls_48_rotated.json,720803,841779,33,Man
36,276028,DepthScenes,duration_manipulation_targetAtFixation,jsons/VE125_randls_48_rotated.json,http://54.235.29.9/FacialAge/BNav_EC2/DepthDuration/v2_depth_duration_MTurk/v2_DepthDuration_HTML.html#148,148,1536,711,1536,864,8-21-2022,10-36-35,37,depth_duration_stimuli/000854_2014-06-09_19-43-13_260595134347_rgbf000066-resize_0/000854_2014-06-09_19-43-13_260595134347_rgbf000066-resize_0-target.png,125,3.068,9,2525,127,feet,jsons/VE125_randls_48_rotated.json,720803,841779,33,Man
37,276028,DepthScenes,duration_manipulation_targetAtFixation,jsons/VE125_randls_48_rotated.json,http://54.235.29.9/FacialAge/BNav_EC2/DepthDuration/v2_depth_duration_MTurk/v2_DepthDuration_HTML.html#148,148,1536,711,1536,864,8-21-2022,10-36-35,38,depth_duration_stimuli/000758_2014-06-08_22-05-08_260595134347_rgbf000085-resize_0/000758_2014-06-08_22-05-08_260595134347_rgbf000085-resize_0-target.png,125,3.3810000000000002,13,4053,125,feet,jsons/VE125_randls_48_rotated.json,720803,841779,33,Man
38,276028,DepthScenes,duration_manipulation_targetAtFixation,jsons/VE125_randls_48_rotated.json,http://54.235.29.9/FacialAge/BNav_EC2/DepthDuration/v2_depth_duration_MTurk/v2_DepthDuration_HTML.html#148,148,1536,711,1536,864,8-21-2022,10-36-35,39,depth_duration_stimuli/000483_2014-06-09_20-41-45_260595134347_rgbf000116-resize_4/000483_2014-06-09_20-41-45_260595134347_rgbf000116-resize_4-target.png,125,1.337,7,2496,130,feet,jsons/VE125_randls_48_rotated.json,720803,841779,33,Man
39,276028,DepthScenes,duration_manipulation_targetAtFixation,jsons/VE125_randls_48_rotated.json,http://54.235.29.9/FacialAge/BNav_EC2/DepthDuration/v2_depth_duration_MTurk/v2_DepthDuration_HTML.html#148,148,1536,711,1536,864,8-21-2022,10-36-35,40,depth_duration_stimuli/000469_2014-06-09_19-42-10_260595134347_rgbf000081-resize_1/000469_2014-06-09_19-42-10_260595134347_rgbf000081-resize_1-target.png,125,1.652,9,2084,131,feet,jsons/VE125_randls_48_rotated.json,720803,841779,33,Man
40,276028,DepthScenes,duration_manipulation_targetAtFixation,jsons/VE125_randls_48_rotated.json,http://54.235.29.9/FacialAge/BNav_EC2/DepthDuration/v2_depth_duration_MTurk/v2_DepthDuration_HTML.html#148,148,1536,711,1536,864,8-21-2022,10-36-35,41,depth_duration_stimuli/000502_2014-06-08_23-02-32_260595134347_rgbf000063-resize_4/000502_2014-06-08_23-02-32_260595134347_rgbf000063-resize_4-target.png,125,2.431,12,3639,132,feet,jsons/VE125_randls_48_rotated.json,720803,841779,33,Man
41,276028,DepthScenes,duration_manipulation_targetAtFixation,jsons/VE125_randls_48_rotated.json,http://54.235.29.9/FacialAge/BNav_EC2/DepthDuration/v2_depth_duration_MTurk/v2_DepthDuration_HTML.html#148,148,1536,711,1536,864,8-21-2022,10-36-35,42,depth_duration_stimuli/001199_2014-06-17_16-03-48_260595134347_rgbf000077-resize_0/001199_2014-06-17_16-03-48_260595134347_rgbf000077-resize_0-target.png,125,3.4375,20,5299,114,feet,jsons/VE125_randls_48_rotated.json,720803,841779,33,Man
42,276028,DepthScenes,duration_manipulation_targetAtFixation,jsons/VE125_randls_48_rotated.json,http://54.235.29.9/FacialAge/BNav_EC2/DepthDuration/v2_depth_duration_MTurk/v2_DepthDuration_HTML.html#148,148,1536,711,1536,864,8-21-2022,10-36-35,43,depth_duration_stimuli/002637_2014-06-24_14-51-13_094959634447_rgbf000066-resize_4/002637_2014-06-24_14-51-13_094959634447_rgbf000066-resize_4-target.png,125,1.9955,16,3509,138,feet,jsons/VE125_randls_48_rotated.json,720803,841779,33,Man
43,276028,DepthScenes,duration_manipulation_targetAtFixation,jsons/VE125_randls_48_rotated.json,http://54.235.29.9/FacialAge/BNav_EC2/DepthDuration/v2_depth_duration_MTurk/v2_DepthDuration_HTML.html#148,148,1536,711,1536,864,8-21-2022,10-36-35,44,depth_duration_stimuli/003534_2014-05-22_15-06-10_094959634447_rgbf000102-resize_4/003534_2014-05-22_15-06-10_094959634447_rgbf000102-resize_4-target.png,125,1.426,10,3086,122,feet,jsons/VE125_randls_48_rotated.json,720803,841779,33,Man
44,276028,DepthScenes,duration_manipulation_targetAtFixation,jsons/VE125_randls_48_rotated.json,http://54.235.29.9/FacialAge/BNav_EC2/DepthDuration/v2_depth_duration_MTurk/v2_DepthDuration_HTML.html#148,148,1536,711,1536,864,8-21-2022,10-36-35,45,depth_duration_stimuli/002103_2014-06-25_20-00-40_260595134347_rgbf000049-resize_0/002103_2014-06-25_20-00-40_260595134347_rgbf000049-resize_0-target.png,125,4.105,14,3387,137,feet,jsons/VE125_randls_48_rotated.json,720803,841779,33,Man
45,276028,DepthScenes,duration_manipulation_targetAtFixation,jsons/VE125_randls_48_rotated.json,http://54.235.29.9/FacialAge/BNav_EC2/DepthDuration/v2_depth_duration_MTurk/v2_DepthDuration_HTML.html#148,148,1536,711,1536,864,8-21-2022,10-36-35,46,depth_duration_stimuli/002039_2014-06-24_20-22-38_260595134347_rgbf000084-resize_1/002039_2014-06-24_20-22-38_260595134347_rgbf000084-resize_1-target.png,125,4.408,16,3540,132,feet,jsons/VE125_randls_48_rotated.json,720803,841779,33,Man
46,276028,DepthScenes,duration_manipulation_targetAtFixation,jsons/VE125_randls_48_rotated.json,http://54.235.29.9/FacialAge/BNav_EC2/DepthDuration/v2_depth_duration_MTurk/v2_DepthDuration_HTML.html#148,148,1536,711,1536,864,8-21-2022,10-36-35,47,depth_duration_stimuli/003048_2014-06-15_13-49-43_094959634447_rgbf000150-resize_1/003048_2014-06-15_13-49-43_094959634447_rgbf000150-resize_1-target.png,125,4.0035,12,8265,115,feet,jsons/VE125_randls_48_rotated.json,720803,841779,33,Man
47,276028,DepthScenes,duration_manipulation_targetAtFixation,jsons/VE125_randls_48_rotated.json,http://54.235.29.9/FacialAge/BNav_EC2/DepthDuration/v2_depth_duration_MTurk/v2_DepthDuration_HTML.html#148,148,1536,711,1536,864,8-21-2022,10-36-35,48,depth_duration_stimuli/002043_2014-06-24_20-29-38_260595134347_rgbf000039-resize_4/002043_2014-06-24_20-29-38_260595134347_rgbf000039-resize_4-target.png,125,2.8435,14,3632,115,feet,jsons/VE125_randls_48_rotated.json,720803,841779,33,Man
48,276028,DepthScenes,duration_manipulation_targetAtFixation,jsons/VE125_randls_48_rotated.json,http://54.235.29.9/FacialAge/BNav_EC2/DepthDuration/v2_depth_duration_MTurk/v2_DepthDuration_HTML.html#148,148,1536,711,1536,864,8-21-2022,10-36-35,49,depth_duration_stimuli/001170_2014-06-17_15-43-44_260595134347_rgbf000096-resize_6/001170_2014-06-17_15-43-44_260595134347_rgbf000096-resize-original.jpg,125,1.1909999999999998,0,3226,124,feet,jsons/VE125_randls_48_rotated.json,720803,841779,33,Man
49,276028,DepthScenes,duration_manipulation_targetAtFixation,jsons/VE125_randls_48_rotated.json,http://54.235.29.9/FacialAge/BNav_EC2/DepthDuration/v2_depth_duration_MTurk/v2_DepthDuration_HTML.html#148,148,1536,711,1536,864,8-21-2022,10-36-35,50,depth_duration_stimuli/002136_2014-06-25_21-18-03_260595134347_rgbf000109-resize_3/002136_2014-06-25_21-18-03_260595134347_rgbf000109-resize_3-target.png,125,1.9569999999999999,9,6738,112,feet,jsons/VE125_randls_48_rotated.json,720803,841779,33,Man
50,276028,DepthScenes,duration_manipulation_targetAtFixation,jsons/VE125_randls_48_rotated.json,http://54.235.29.9/FacialAge/BNav_EC2/DepthDuration/v2_depth_duration_MTurk/v2_DepthDuration_HTML.html#148,148,1536,711,1536,864,8-21-2022,10-36-35,51,depth_duration_stimuli/002964_2014-06-08_17-46-11_094959634447_rgbf000091-resize_4/002964_2014-06-08_17-46-11_094959634447_rgbf000091-resize_4-target.png,125,1.6909999999999998,6,2629,133,feet,jsons/VE125_randls_48_rotated.json,720803,841779,33,Man
51,276028,DepthScenes,duration_manipulation_targetAtFixation,jsons/VE125_randls_48_rotated.json,http://54.235.29.9/FacialAge/BNav_EC2/DepthDuration/v2_depth_duration_MTurk/v2_DepthDuration_HTML.html#148,148,1536,711,1536,864,8-21-2022,10-36-35,52,depth_duration_stimuli/002425_2014-06-28_20-27-29_260595134347_rgbf000031-resize_8/002425_2014-06-28_20-27-29_260595134347_rgbf000031-resize_8-target.png,125,3.8960000000000004,12,8791,128,feet,jsons/VE125_randls_48_rotated.json,720803,841779,33,Man
52,276028,DepthScenes,duration_manipulation_targetAtFixation,jsons/VE125_randls_48_rotated.json,http://54.235.29.9/FacialAge/BNav_EC2/DepthDuration/v2_depth_duration_MTurk/v2_DepthDuration_HTML.html#148,148,1536,711,1536,864,8-21-2022,10-36-35,53,depth_duration_stimuli/000642_2014-06-08_16-59-25_260595134347_rgbf000098-resize_2/000642_2014-06-08_16-59-25_260595134347_rgbf000098-resize_2-target.png,125,2.8815,16,4292,128,feet,jsons/VE125_randls_48_rotated.json,720803,841779,33,Man
53,276028,DepthScenes,duration_manipulation_targetAtFixation,jsons/VE125_randls_48_rotated.json,http://54.235.29.9/FacialAge/BNav_EC2/DepthDuration/v2_depth_duration_MTurk/v2_DepthDuration_HTML.html#148,148,1536,711,1536,864,8-21-2022,10-36-35,54,depth_duration_stimuli/000109_2014-05-14_23-41-52_260595134347_rgbf000035-resize_9/000109_2014-05-14_23-41-52_260595134347_rgbf000035-resize_9-target.png,125,1.3545,9,3003,122,feet,jsons/VE125_randls_48_rotated.json,720803,841779,33,Man
54,276028,DepthScenes,duration_manipulation_targetAtFixation,jsons/VE125_randls_48_rotated.json,http://54.235.29.9/FacialAge/BNav_EC2/DepthDuration/v2_depth_duration_MTurk/v2_DepthDuration_HTML.html#148,148,1536,711,1536,864,8-21-2022,10-36-35,55,depth_duration_stimuli/000470_2014-06-09_19-42-40_260595134347_rgbf000094-resize_1/000470_2014-06-09_19-42-40_260595134347_rgbf000094-resize_1-target.png,125,1.831,8,3251,125,feet,jsons/VE125_randls_48_rotated.json,720803,841779,33,Man
55,276028,DepthScenes,duration_manipulation_targetAtFixation,jsons/VE125_randls_48_rotated.json,http://54.235.29.9/FacialAge/BNav_EC2/DepthDuration/v2_depth_duration_MTurk/v2_DepthDuration_HTML.html#148,148,1536,711,1536,864,8-21-2022,10-36-35,56,depth_duration_stimuli/002953_2014-06-08_17-32-18_094959634447_rgbf000059-resize_5/002953_2014-06-08_17-32-18_094959634447_rgbf000059-resize_5-target.png,125,1.551,9,10057,131,feet,jsons/VE125_randls_48_rotated.json,720803,841779,33,Man
56,276028,DepthScenes,duration_manipulation_targetAtFixation,jsons/VE125_randls_48_rotated.json,http://54.235.29.9/FacialAge/BNav_EC2/DepthDuration/v2_depth_duration_MTurk/v2_DepthDuration_HTML.html#148,148,1536,711,1536,864,8-21-2022,10-36-35,57,depth_duration_stimuli/000878_2014-06-08_22-52-45_260595134347_rgbf000045-resize_2/000878_2014-06-08_22-52-45_260595134347_rgbf000045-resize_2-target.png,125,2.092,11,2523,129,feet,jsons/VE125_randls_48_rotated.json,720803,841779,33,Man
57,276028,DepthScenes,duration_manipulation_targetAtFixation,jsons/VE125_randls_48_rotated.json,http://54.235.29.9/FacialAge/BNav_EC2/DepthDuration/v2_depth_duration_MTurk/v2_DepthDuration_HTML.html#148,148,1536,711,1536,864,8-21-2022,10-36-35,58,depth_duration_stimuli/003079_2014-06-15_15-18-20_094959634447_rgbf000152-resize_8/003079_2014-06-15_15-18-20_094959634447_rgbf000152-resize_8-target.png,125,2.8775,12,4135,137,feet,jsons/VE125_randls_48_rotated.json,720803,841779,33,Man
58,276028,DepthScenes,duration_manipulation_targetAtFixation,jsons/VE125_randls_48_rotated.json,http://54.235.29.9/FacialAge/BNav_EC2/DepthDuration/v2_depth_duration_MTurk/v2_DepthDuration_HTML.html#148,148,1536,711,1536,864,8-21-2022,10-36-35,59,depth_duration_stimuli/000506_2014-06-08_23-21-00_260595134347_rgbf000070-resize_7/000506_2014-06-08_23-21-00_260595134347_rgbf000070-resize_7-target.png,125,4.0585,16,2414,122,feet,jsons/VE125_randls_48_rotated.json,720803,841779,33,Man
59,276028,DepthScenes,duration_manipulation_targetAtFixation,jsons/VE125_randls_48_rotated.json,http://54.235.29.9/FacialAge/BNav_EC2/DepthDuration/v2_depth_duration_MTurk/v2_DepthDuration_HTML.html#148,148,1536,711,1536,864,8-21-2022,10-36-35,60,depth_duration_stimuli/001828_2014-06-26_21-40-03_260595134347_rgbf000024-resize_0/001828_2014-06-26_21-40-03_260595134347_rgbf000024-resize_0-target.png,125,4.8260000000000005,15,24313,125,feet,jsons/VE125_randls_48_rotated.json,720803,841779,33,Man
60,276028,DepthScenes,duration_manipulation_targetAtFixation,jsons/VE125_randls_48_rotated.json,http://54.235.29.9/FacialAge/BNav_EC2/DepthDuration/v2_depth_duration_MTurk/v2_DepthDuration_HTML.html#148,148,1536,711,1536,864,8-21-2022,10-36-35,61,depth_duration_stimuli/000009_2014-05-26_14-32-05_260595134347_rgbf000034-resize_3/000009_2014-05-26_14-32-05_260595134347_rgbf000034-resize_3-target.png,125,3.8715,14,6642,124,feet,jsons/VE125_randls_48_rotated.json,720803,841779,33,Man
61,276028,DepthScenes,duration_manipulation_targetAtFixation,jsons/VE125_randls_48_rotated.json,http://54.235.29.9/FacialAge/BNav_EC2/DepthDuration/v2_depth_duration_MTurk/v2_DepthDuration_HTML.html#148,148,1536,711,1536,864,8-21-2022,10-36-35,62,depth_duration_stimuli/000734_2014-06-08_17-39-11_260595134347_rgbf000128-resize_2/000734_2014-06-08_17-39-11_260595134347_rgbf000128-resize_2-target.png,125,4.098,13,2406,117,feet,jsons/VE125_randls_48_rotated.json,720803,841779,33,Man
62,276028,DepthScenes,duration_manipulation_targetAtFixation,jsons/VE125_randls_48_rotated.json,http://54.235.29.9/FacialAge/BNav_EC2/DepthDuration/v2_depth_duration_MTurk/v2_DepthDuration_HTML.html#148,148,1536,711,1536,864,8-21-2022,10-36-35,63,depth_duration_stimuli/000739_2014-06-08_18-45-58_260595134347_rgbf000068-resize_1/000739_2014-06-08_18-45-58_260595134347_rgbf000068-resize_1-target.png,125,3.534,14,2195,116,feet,jsons/VE125_randls_48_rotated.json,720803,841779,33,Man
63,276028,DepthScenes,duration_manipulation_targetAtFixation,jsons/VE125_randls_48_rotated.json,http://54.235.29.9/FacialAge/BNav_EC2/DepthDuration/v2_depth_duration_MTurk/v2_DepthDuration_HTML.html#148,148,1536,711,1536,864,8-21-2022,10-36-35,64,depth_duration_stimuli/002340_2014-06-28_20-05-46_260595134347_rgbf000113-resize_0/002340_2014-06-28_20-05-46_260595134347_rgbf000113-resize_0-target.png,125,2.4735,14,2535,130,feet,jsons/VE125_randls_48_rotated.json,720803,841779,33,Man
64,276028,DepthScenes,duration_manipulation_targetAtFixation,jsons/VE125_randls_48_rotated.json,http://54.235.29.9/FacialAge/BNav_EC2/DepthDuration/v2_depth_duration_MTurk/v2_DepthDuration_HTML.html#148,148,1536,711,1536,864,8-21-2022,10-36-35,65,depth_duration_stimuli/001016_2014-06-09_16-16-10_260595134347_rgbf000112-resize_5/001016_2014-06-09_16-16-10_260595134347_rgbf000112-resize_5-target.png,125,1.6565,12,6206,137,feet,jsons/VE125_randls_48_rotated.json,720803,841779,33,Man
65,276028,DepthScenes,duration_manipulation_targetAtFixation,jsons/VE125_randls_48_rotated.json,http://54.235.29.9/FacialAge/BNav_EC2/DepthDuration/v2_depth_duration_MTurk/v2_DepthDuration_HTML.html#148,148,1536,711,1536,864,8-21-2022,10-36-35,66,depth_duration_stimuli/001540_2014-06-20_17-01-05_260595134347_rgbf000086-resize_2/001540_2014-06-20_17-01-05_260595134347_rgbf000086-resize-original.jpg,125,1.459,0,3160,137,feet,jsons/VE125_randls_48_rotated.json,720803,841779,33,Man
66,276028,DepthScenes,duration_manipulation_targetAtFixation,jsons/VE125_randls_48_rotated.json,http://54.235.29.9/FacialAge/BNav_EC2/DepthDuration/v2_depth_duration_MTurk/v2_DepthDuration_HTML.html#148,148,1536,711,1536,864,8-21-2022,10-36-35,67,depth_duration_stimuli/001214_2014-06-17_16-13-55_260595134347_rgbf000111-resize_0/001214_2014-06-17_16-13-55_260595134347_rgbf000111-resize_0-target.png,125,2.6505,10,3971,115,feet,jsons/VE125_randls_48_rotated.json,720803,841779,33,Man
67,276028,DepthScenes,duration_manipulation_targetAtFixation,jsons/VE125_randls_48_rotated.json,http://54.235.29.9/FacialAge/BNav_EC2/DepthDuration/v2_depth_duration_MTurk/v2_DepthDuration_HTML.html#148,148,1536,711,1536,864,8-21-2022,10-36-35,68,depth_duration_stimuli/000810_2014-06-08_17-20-01_260595134347_rgbf000105-resize_0/000810_2014-06-08_17-20-01_260595134347_rgbf000105-resize_0-target.png,125,1.4865,9,3758,131,feet,jsons/VE125_randls_48_rotated.json,720803,841779,33,Man
68,276028,DepthScenes,duration_manipulation_targetAtFixation,jsons/VE125_randls_48_rotated.json,http://54.235.29.9/FacialAge/BNav_EC2/DepthDuration/v2_depth_duration_MTurk/v2_DepthDuration_HTML.html#148,148,1536,711,1536,864,8-21-2022,10-36-35,69,depth_duration_stimuli/001094_2014-06-15_17-36-00_260595134347_rgbf000205-resize_0/001094_2014-06-15_17-36-00_260595134347_rgbf000205-resize_0-target.png,125,4.2175,10,3229,121,feet,jsons/VE125_randls_48_rotated.json,720803,841779,33,Man
69,276028,DepthScenes,duration_manipulation_targetAtFixation,jsons/VE125_randls_48_rotated.json,http://54.235.29.9/FacialAge/BNav_EC2/DepthDuration/v2_depth_duration_MTurk/v2_DepthDuration_HTML.html#148,148,1536,711,1536,864,8-21-2022,10-36-35,70,depth_duration_stimuli/000692_2014-06-08_13-09-42_260595134347_rgbf000199-resize_2/000692_2014-06-08_13-09-42_260595134347_rgbf000199-resize_2-target.png,125,3.661,18,5670,115,feet,jsons/VE125_randls_48_rotated.json,720803,841779,33,Man
70,276028,DepthScenes,duration_manipulation_targetAtFixation,jsons/VE125_randls_48_rotated.json,http://54.235.29.9/FacialAge/BNav_EC2/DepthDuration/v2_depth_duration_MTurk/v2_DepthDuration_HTML.html#148,148,1536,711,1536,864,8-21-2022,10-36-35,71,depth_duration_stimuli/003490_2014-05-21_15-50-11_094959634447_rgbf000101-resize_3/003490_2014-05-21_15-50-11_094959634447_rgbf000101-resize_3-target.png,125,3.6445,16,3769,129,feet,jsons/VE125_randls_48_rotated.json,720803,841779,33,Man
71,276028,DepthScenes,duration_manipulation_targetAtFixation,jsons/VE125_randls_48_rotated.json,http://54.235.29.9/FacialAge/BNav_EC2/DepthDuration/v2_depth_duration_MTurk/v2_DepthDuration_HTML.html#148,148,1536,711,1536,864,8-21-2022,10-36-35,72,depth_duration_stimuli/001175_2014-06-17_15-45-55_260595134347_rgbf000129-resize_4/001175_2014-06-17_15-45-55_260595134347_rgbf000129-resize_4-target.png,125,4.255,22,3181,120,feet,jsons/VE125_randls_48_rotated.json,720803,841779,33,Man
72,276028,DepthScenes,duration_manipulation_targetAtFixation,jsons/VE125_randls_48_rotated.json,http://54.235.29.9/FacialAge/BNav_EC2/DepthDuration/v2_depth_duration_MTurk/v2_DepthDuration_HTML.html#148,148,1536,711,1536,864,8-21-2022,10-36-35,73,depth_duration_stimuli/001392_2014-06-19_16-07-59_260595134347_rgbf000046-resize_1/001392_2014-06-19_16-07-59_260595134347_rgbf000046-resize_1-target.png,125,4.135,14,4489,120,feet,jsons/VE125_randls_48_rotated.json,720803,841779,33,Man
73,276028,DepthScenes,duration_manipulation_targetAtFixation,jsons/VE125_randls_48_rotated.json,http://54.235.29.9/FacialAge/BNav_EC2/DepthDuration/v2_depth_duration_MTurk/v2_DepthDuration_HTML.html#148,148,1536,711,1536,864,8-21-2022,10-36-35,74,depth_duration_stimuli/001570_2014-06-20_17-21-09_260595134347_rgbf000135-resize_4/001570_2014-06-20_17-21-09_260595134347_rgbf000135-resize_4-target.png,125,4.467,17,8563,126,feet,jsons/VE125_randls_48_rotated.json,720803,841779,33,Man
74,276028,DepthScenes,duration_manipulation_targetAtFixation,jsons/VE125_randls_48_rotated.json,http://54.235.29.9/FacialAge/BNav_EC2/DepthDuration/v2_depth_duration_MTurk/v2_DepthDuration_HTML.html#148,148,1536,711,1536,864,8-21-2022,10-36-35,75,depth_duration_stimuli/002209_2014-06-28_18-36-10_260595134347_rgbf000051-resize_1/002209_2014-06-28_18-36-10_260595134347_rgbf000051-resize_1-target.png,125,2.057,8,3821,115,feet,jsons/VE125_randls_48_rotated.json,720803,841779,33,Man
75,276028,DepthScenes,duration_manipulation_targetAtFixation,jsons/VE125_randls_48_rotated.json,http://54.235.29.9/FacialAge/BNav_EC2/DepthDuration/v2_depth_duration_MTurk/v2_DepthDuration_HTML.html#148,148,1536,711,1536,864,8-21-2022,10-36-35,76,depth_duration_stimuli/002763_2014-06-22_19-13-10_094959634447_rgbf000075-resize_4/002763_2014-06-22_19-13-10_094959634447_rgbf000075-resize_4-target.png,125,1.68375,10,3591,124,feet,jsons/VE125_randls_48_rotated.json,720803,841779,33,Man
76,276028,DepthScenes,duration_manipulation_targetAtFixation,jsons/VE125_randls_48_rotated.json,http://54.235.29.9/FacialAge/BNav_EC2/DepthDuration/v2_depth_duration_MTurk/v2_DepthDuration_HTML.html#148,148,1536,711,1536,864,8-21-2022,10-36-35,77,depth_duration_stimuli/000780_2014-06-08_22-28-29_260595134347_rgbf000126-resize_1/000780_2014-06-08_22-28-29_260595134347_rgbf000126-resize_1-target.png,125,3.3825,15,5309,123,feet,jsons/VE125_randls_48_rotated.json,720803,841779,33,Man
77,276028,DepthScenes,duration_manipulation_targetAtFixation,jsons/VE125_randls_48_rotated.json,http://54.235.29.9/FacialAge/BNav_EC2/DepthDuration/v2_depth_duration_MTurk/v2_DepthDuration_HTML.html#148,148,1536,711,1536,864,8-21-2022,10-36-35,78,depth_duration_stimuli/002445_2014-06-28_20-32-16_260595134347_rgbf000029-resize_4/002445_2014-06-28_20-32-16_260595134347_rgbf000029-resize_4-target.png,125,2.5315,13,4123,124,feet,jsons/VE125_randls_48_rotated.json,720803,841779,33,Man
78,276028,DepthScenes,duration_manipulation_targetAtFixation,jsons/VE125_randls_48_rotated.json,http://54.235.29.9/FacialAge/BNav_EC2/DepthDuration/v2_depth_duration_MTurk/v2_DepthDuration_HTML.html#148,148,1536,711,1536,864,8-21-2022,10-36-35,79,depth_duration_stimuli/003083_2014-06-15_15-21-03_094959634447_rgbf000063-resize_1/003083_2014-06-15_15-21-03_094959634447_rgbf000063-resize_1-target.png,125,4.1405,19,2298,131,feet,jsons/VE125_randls_48_rotated.json,720803,841779,33,Man
79,276028,DepthScenes,duration_manipulation_targetAtFixation,jsons/VE125_randls_48_rotated.json,http://54.235.29.9/FacialAge/BNav_EC2/DepthDuration/v2_depth_duration_MTurk/v2_DepthDuration_HTML.html#148,148,1536,711,1536,864,8-21-2022,10-36-35,80,depth_duration_stimuli/000486_2014-06-09_20-47-20_260595134347_rgbf000143-resize_2/000486_2014-06-09_20-47-20_260595134347_rgbf000143-resize_2-target.png,125,4.8325,15,3583,129,feet,jsons/VE125_randls_48_rotated.json,720803,841779,33,Man
80,276028,DepthScenes,duration_manipulation_targetAtFixation,jsons/VE125_randls_48_rotated.json,http://54.235.29.9/FacialAge/BNav_EC2/DepthDuration/v2_depth_duration_MTurk/v2_DepthDuration_HTML.html#148,148,1536,711,1536,864,8-21-2022,10-36-35,81,depth_duration_stimuli/002545_2014-06-24_13-38-53_094959634447_rgbf000080-resize_4/002545_2014-06-24_13-38-53_094959634447_rgbf000080-resize_4-target.png,125,1.9205,14,5237,112,feet,jsons/VE125_randls_48_rotated.json,720803,841779,33,Man
81,276028,DepthScenes,duration_manipulation_targetAtFixation,jsons/VE125_randls_48_rotated.json,http://54.235.29.9/FacialAge/BNav_EC2/DepthDuration/v2_depth_duration_MTurk/v2_DepthDuration_HTML.html#148,148,1536,711,1536,864,8-21-2022,10-36-35,82,depth_duration_stimuli/001092_2014-06-15_17-34-58_260595134347_rgbf000171-resize_3/001092_2014-06-15_17-34-58_260595134347_rgbf000171-resize_3-target.png,125,2.6935,12,2811,120,feet,jsons/VE125_randls_48_rotated.json,720803,841779,33,Man
82,276028,DepthScenes,duration_manipulation_targetAtFixation,jsons/VE125_randls_48_rotated.json,http://54.235.29.9/FacialAge/BNav_EC2/DepthDuration/v2_depth_duration_MTurk/v2_DepthDuration_HTML.html#148,148,1536,711,1536,864,8-21-2022,10-36-35,83,depth_duration_stimuli/001650_2014-06-20_12-09-00_260595134347_rgbf000087-resize_3/001650_2014-06-20_12-09-00_260595134347_rgbf000087-resize_3-target.png,125,1.9505,3,2457,136,feet,jsons/VE125_randls_48_rotated.json,720803,841779,33,Man
83,276028,DepthScenes,duration_manipulation_targetAtFixation,jsons/VE125_randls_48_rotated.json,http://54.235.29.9/FacialAge/BNav_EC2/DepthDuration/v2_depth_duration_MTurk/v2_DepthDuration_HTML.html#148,148,1536,711,1536,864,8-21-2022,10-36-35,84,depth_duration_stimuli/000682_2014-06-08_23-14-58_260595134347_rgbf000041-resize_5/000682_2014-06-08_23-14-58_260595134347_rgbf000041-resize_5-target.png,125,2.7239999999999998,6,3557,116,feet,jsons/VE125_randls_48_rotated.json,720803,841779,33,Man
84,276028,DepthScenes,duration_manipulation_targetAtFixation,jsons/VE125_randls_48_rotated.json,http://54.235.29.9/FacialAge/BNav_EC2/DepthDuration/v2_depth_duration_MTurk/v2_DepthDuration_HTML.html#148,148,1536,711,1536,864,8-21-2022,10-36-35,85,depth_duration_stimuli/002444_2014-06-28_20-32-08_260595134347_rgbf000027-resize_0/002444_2014-06-28_20-32-08_260595134347_rgbf000027-resize_0-target.png,125,4.388999999999999,11,3078,121,feet,jsons/VE125_randls_48_rotated.json,720803,841779,33,Man
85,276028,DepthScenes,duration_manipulation_targetAtFixation,jsons/VE125_randls_48_rotated.json,http://54.235.29.9/FacialAge/BNav_EC2/DepthDuration/v2_depth_duration_MTurk/v2_DepthDuration_HTML.html#148,148,1536,711,1536,864,8-21-2022,10-36-35,86,depth_duration_stimuli/000436_2014-06-09_22-25-11_260595134347_rgbf000137-resize_1/000436_2014-06-09_22-25-11_260595134347_rgbf000137-resize_1-target.png,125,4.0705,18,3850,111,feet,jsons/VE125_randls_48_rotated.json,720803,841779,33,Man
86,276028,DepthScenes,duration_manipulation_targetAtFixation,jsons/VE125_randls_48_rotated.json,http://54.235.29.9/FacialAge/BNav_EC2/DepthDuration/v2_depth_duration_MTurk/v2_DepthDuration_HTML.html#148,148,1536,711,1536,864,8-21-2022,10-36-35,87,depth_duration_stimuli/000742_2014-06-08_18-48-09_260595134347_rgbf000164-resize_4/000742_2014-06-08_18-48-09_260595134347_rgbf000164-resize_4-target.png,125,4.632,20,4813,126,feet,jsons/VE125_randls_48_rotated.json,720803,841779,33,Man
87,276028,DepthScenes,duration_manipulation_targetAtFixation,jsons/VE125_randls_48_rotated.json,http://54.235.29.9/FacialAge/BNav_EC2/DepthDuration/v2_depth_duration_MTurk/v2_DepthDuration_HTML.html#148,148,1536,711,1536,864,8-21-2022,10-36-35,88,depth_duration_stimuli/001066_2014-06-08_22-03-20_260595134347_rgbf000066-resize_4/001066_2014-06-08_22-03-20_260595134347_rgbf000066-resize_4-target.png,125,4.2330000000000005,16,3721,129,feet,jsons/VE125_randls_48_rotated.json,720803,841779,33,Man
88,276028,DepthScenes,duration_manipulation_targetAtFixation,jsons/VE125_randls_48_rotated.json,http://54.235.29.9/FacialAge/BNav_EC2/DepthDuration/v2_depth_duration_MTurk/v2_DepthDuration_HTML.html#148,148,1536,711,1536,864,8-21-2022,10-36-35,89,depth_duration_stimuli/002467_2014-06-28_20-38-07_260595134347_rgbf000026-resize_2/002467_2014-06-28_20-38-07_260595134347_rgbf000026-resize_2-target.png,125,4.742,14,2599,118,feet,jsons/VE125_randls_48_rotated.json,720803,841779,33,Man
89,276028,DepthScenes,duration_manipulation_targetAtFixation,jsons/VE125_randls_48_rotated.json,http://54.235.29.9/FacialAge/BNav_EC2/DepthDuration/v2_depth_duration_MTurk/v2_DepthDuration_HTML.html#148,148,1536,711,1536,864,8-21-2022,10-36-35,90,depth_duration_stimuli/002570_2014-06-24_13-59-54_094959634447_rgbf000059-resize_0/002570_2014-06-24_13-59-54_094959634447_rgbf000059-resize_0-target.png,125,4.037,18,5315,117,feet,jsons/VE125_randls_48_rotated.json,720803,841779,33,Man
90,276028,DepthScenes,duration_manipulation_targetAtFixation,jsons/VE125_randls_48_rotated.json,http://54.235.29.9/FacialAge/BNav_EC2/DepthDuration/v2_depth_duration_MTurk/v2_DepthDuration_HTML.html#148,148,1536,711,1536,864,8-21-2022,10-36-35,91,depth_duration_stimuli/002660_2014-06-13_15-44-18_094959634447_rgbf001878-resize_2/002660_2014-06-13_15-44-18_094959634447_rgbf001878-resize_2-target.png,125,3.576,12,4327,139,feet,jsons/VE125_randls_48_rotated.json,720803,841779,33,Man
91,276028,DepthScenes,duration_manipulation_targetAtFixation,jsons/VE125_randls_48_rotated.json,http://54.235.29.9/FacialAge/BNav_EC2/DepthDuration/v2_depth_duration_MTurk/v2_DepthDuration_HTML.html#148,148,1536,711,1536,864,8-21-2022,10-36-35,92,depth_duration_stimuli/002153_2014-06-25_21-27-18_260595134347_rgbf000038-resize_5/002153_2014-06-25_21-27-18_260595134347_rgbf000038-resize_5-target.png,125,2.505,11,7038,124,feet,jsons/VE125_randls_48_rotated.json,720803,841779,33,Man
92,276028,DepthScenes,duration_manipulation_targetAtFixation,jsons/VE125_randls_48_rotated.json,http://54.235.29.9/FacialAge/BNav_EC2/DepthDuration/v2_depth_duration_MTurk/v2_DepthDuration_HTML.html#148,148,1536,711,1536,864,8-21-2022,10-36-35,93,depth_duration_stimuli/002875_2014-06-01_15-19-00_094959634447_rgbf000151-resize_1/002875_2014-06-01_15-19-00_094959634447_rgbf000151-resize_1-target.png,125,1.9675,10,3778,129,feet,jsons/VE125_randls_48_rotated.json,720803,841779,33,Man
93,276028,DepthScenes,duration_manipulation_targetAtFixation,jsons/VE125_randls_48_rotated.json,http://54.235.29.9/FacialAge/BNav_EC2/DepthDuration/v2_depth_duration_MTurk/v2_DepthDuration_HTML.html#148,148,1536,711,1536,864,8-21-2022,10-36-35,94,depth_duration_stimuli/001011_2014-06-08_23-18-54_260595134347_rgbf000044-resize_4/001011_2014-06-08_23-18-54_260595134347_rgbf000044-resize_4-target.png,125,2.4730000000000003,14,3795,130,feet,jsons/VE125_randls_48_rotated.json,720803,841779,33,Man
94,276028,DepthScenes,duration_manipulation_targetAtFixation,jsons/VE125_randls_48_rotated.json,http://54.235.29.9/FacialAge/BNav_EC2/DepthDuration/v2_depth_duration_MTurk/v2_DepthDuration_HTML.html#148,148,1536,711,1536,864,8-21-2022,10-36-35,95,depth_duration_stimuli/000749_2014-06-08_21-55-06_260595134347_rgbf000070-resize_2/000749_2014-06-08_21-55-06_260595134347_rgbf000070-resize_2-target.png,125,2.331,12,2376,114,feet,jsons/VE125_randls_48_rotated.json,720803,841779,33,Man
95,276028,DepthScenes,duration_manipulation_targetAtFixation,jsons/VE125_randls_48_rotated.json,http://54.235.29.9/FacialAge/BNav_EC2/DepthDuration/v2_depth_duration_MTurk/v2_DepthDuration_HTML.html#148,148,1536,711,1536,864,8-21-2022,10-36-35,96,depth_duration_stimuli/002788_2014-06-22_19-36-03_094959634447_rgbf000088-resize_2/002788_2014-06-22_19-36-03_094959634447_rgbf000088-resize_2-target.png,125,1.6465,16,2466,125,feet,jsons/VE125_randls_48_rotated.json,720803,841779,33,Man
96,276028,DepthScenes,duration_manipulation_targetAtFixation,jsons/VE125_randls_48_rotated.json,http://54.235.29.9/FacialAge/BNav_EC2/DepthDuration/v2_depth_duration_MTurk/v2_DepthDuration_HTML.html#148,148,1536,711,1536,864,8-21-2022,10-36-35,97,depth_duration_stimuli/002750_2014-06-22_19-08-03_094959634447_rgbf000094-resize_4/002750_2014-06-22_19-08-03_094959634447_rgbf000094-resize_4-target.png,125,2.354,12,2527,114,feet,jsons/VE125_randls_48_rotated.json,720803,841779,33,Man
97,276028,DepthScenes,duration_manipulation_targetAtFixation,jsons/VE125_randls_48_rotated.json,http://54.235.29.9/FacialAge/BNav_EC2/DepthDuration/v2_depth_duration_MTurk/v2_DepthDuration_HTML.html#148,148,1536,711,1536,864,8-21-2022,10-36-35,98,depth_duration_stimuli/002549_2014-06-24_13-41-39_094959634447_rgbf000022-resize_3/002549_2014-06-24_13-41-39_094959634447_rgbf000022-resize_3-target.png,125,1.476,9,3869,122,feet,jsons/VE125_randls_48_rotated.json,720803,841779,33,Man
98,276028,DepthScenes,duration_manipulation_targetAtFixation,jsons/VE125_randls_48_rotated.json,http://54.235.29.9/FacialAge/BNav_EC2/DepthDuration/v2_depth_duration_MTurk/v2_DepthDuration_HTML.html#148,148,1536,711,1536,864,8-21-2022,10-36-35,99,depth_duration_stimuli/001222_2014-06-17_16-24-06_260595134347_rgbf000073-resize_0/001222_2014-06-17_16-24-06_260595134347_rgbf000073-resize-original.jpg,125,1.4385,0,2130,130,feet,jsons/VE125_randls_48_rotated.json,720803,841779,33,Man
99,276028,DepthScenes,duration_manipulation_targetAtFixation,jsons/VE125_randls_48_rotated.json,http://54.235.29.9/FacialAge/BNav_EC2/DepthDuration/v2_depth_duration_MTurk/v2_DepthDuration_HTML.html#148,148,1536,711,1536,864,8-21-2022,10-36-35,100,depth_duration_stimuli/000677_2014-06-08_23-10-32_260595134347_rgbf000158-resize_6/000677_2014-06-08_23-10-32_260595134347_rgbf000158-resize_6-target.png,125,3.556,11,6105,122,feet,jsons/VE125_randls_48_rotated.json,720803,841779,33,Man
100,276028,DepthScenes,duration_manipulation_targetAtFixation,jsons/VE125_randls_48_rotated.json,http://54.235.29.9/FacialAge/BNav_EC2/DepthDuration/v2_depth_duration_MTurk/v2_DepthDuration_HTML.html#148,148,1536,711,1536,864,8-21-2022,10-36-35,101,depth_duration_stimuli/001029_2014-06-08_13-17-57_260595134347_rgbf000065-resize_1/001029_2014-06-08_13-17-57_260595134347_rgbf000065-resize_1-target.png,125,3.0835,12,2877,121,feet,jsons/VE125_randls_48_rotated.json,720803,841779,33,Man
101,276028,DepthScenes,duration_manipulation_targetAtFixation,jsons/VE125_randls_48_rotated.json,http://54.235.29.9/FacialAge/BNav_EC2/DepthDuration/v2_depth_duration_MTurk/v2_DepthDuration_HTML.html#148,148,1536,711,1536,864,8-21-2022,10-36-35,102,depth_duration_stimuli/002323_2014-06-28_20-01-54_260595134347_rgbf000051-resize_4/002323_2014-06-28_20-01-54_260595134347_rgbf000051-resize_4-target.png,125,3.7310000000000003,20,2650,115,feet,jsons/VE125_randls_48_rotated.json,720803,841779,33,Man
102,276028,DepthScenes,duration_manipulation_targetAtFixation,jsons/VE125_randls_48_rotated.json,http://54.235.29.9/FacialAge/BNav_EC2/DepthDuration/v2_depth_duration_MTurk/v2_DepthDuration_HTML.html#148,148,1536,711,1536,864,8-21-2022,10-36-35,103,depth_duration_stimuli/000917_2014-06-09_22-45-29_260595134347_rgbf000149-resize_3/000917_2014-06-09_22-45-29_260595134347_rgbf000149-resize_3-target.png,125,4.1865,16,6825,130,feet,jsons/VE125_randls_48_rotated.json,720803,841779,33,Man
103,276028,DepthScenes,duration_manipulation_targetAtFixation,jsons/VE125_randls_48_rotated.json,http://54.235.29.9/FacialAge/BNav_EC2/DepthDuration/v2_depth_duration_MTurk/v2_DepthDuration_HTML.html#148,148,1536,711,1536,864,8-21-2022,10-36-35,104,depth_duration_stimuli/002639_2014-06-24_14-51-37_094959634447_rgbf000074-resize_4/002639_2014-06-24_14-51-37_094959634447_rgbf000074-resize_4-target.png,125,4.0375,15,2314,115,feet,jsons/VE125_randls_48_rotated.json,720803,841779,33,Man
104,276028,DepthScenes,duration_manipulation_targetAtFixation,jsons/VE125_randls_48_rotated.json,http://54.235.29.9/FacialAge/BNav_EC2/DepthDuration/v2_depth_duration_MTurk/v2_DepthDuration_HTML.html#148,148,1536,711,1536,864,8-21-2022,10-36-35,105,depth_duration_stimuli/003292_2014-05-14_21-53-49_094959634447_rgbf000100-resize_2/003292_2014-05-14_21-53-49_094959634447_rgbf000100-resize_2-target.png,125,3.4815,16,3548,142,feet,jsons/VE125_randls_48_rotated.json,720803,841779,33,Man
105,276028,DepthScenes,duration_manipulation_targetAtFixation,jsons/VE125_randls_48_rotated.json,http://54.235.29.9/FacialAge/BNav_EC2/DepthDuration/v2_depth_duration_MTurk/v2_DepthDuration_HTML.html#148,148,1536,711,1536,864,8-21-2022,10-36-35,106,depth_duration_stimuli/003587_2014-05-23_16-48-02_094959634447_rgbf002384-resize_2/003587_2014-05-23_16-48-02_094959634447_rgbf002384-resize_2-target.png,125,1.357,3,2289,129,feet,jsons/VE125_randls_48_rotated.json,720803,841779,33,Man
106,276028,DepthScenes,duration_manipulation_targetAtFixation,jsons/VE125_randls_48_rotated.json,http://54.235.29.9/FacialAge/BNav_EC2/DepthDuration/v2_depth_duration_MTurk/v2_DepthDuration_HTML.html#148,148,1536,711,1536,864,8-21-2022,10-36-35,107,depth_duration_stimuli/001167_2014-06-17_15-38-07_260595134347_rgbf000108-resize_0/001167_2014-06-17_15-38-07_260595134347_rgbf000108-resize_0-target.png,125,1.8505,6,2147,114,feet,jsons/VE125_randls_48_rotated.json,720803,841779,33,Man
107,276028,DepthScenes,duration_manipulation_targetAtFixation,jsons/VE125_randls_48_rotated.json,http://54.235.29.9/FacialAge/BNav_EC2/DepthDuration/v2_depth_duration_MTurk/v2_DepthDuration_HTML.html#148,148,1536,711,1536,864,8-21-2022,10-36-35,108,depth_duration_stimuli/001100_2014-06-15_17-46-26_260595134347_rgbf000225-resize_2/001100_2014-06-15_17-46-26_260595134347_rgbf000225-resize_2-target.png,125,2.24,7,3941,123,feet,jsons/VE125_randls_48_rotated.json,720803,841779,33,Man
108,276028,DepthScenes,duration_manipulation_targetAtFixation,jsons/VE125_randls_48_rotated.json,http://54.235.29.9/FacialAge/BNav_EC2/DepthDuration/v2_depth_duration_MTurk/v2_DepthDuration_HTML.html#148,148,1536,711,1536,864,8-21-2022,10-36-35,109,depth_duration_stimuli/002784_2014-06-22_19-26-30_094959634447_rgbf000083-resize_3/002784_2014-06-22_19-26-30_094959634447_rgbf000083-resize_3-target.png,125,1.8046666666667,8,2216,131,feet,jsons/VE125_randls_48_rotated.json,720803,841779,33,Man
109,276028,DepthScenes,duration_manipulation_targetAtFixation,jsons/VE125_randls_48_rotated.json,http://54.235.29.9/FacialAge/BNav_EC2/DepthDuration/v2_depth_duration_MTurk/v2_DepthDuration_HTML.html#148,148,1536,711,1536,864,8-21-2022,10-36-35,110,depth_duration_stimuli/002199_2014-06-28_18-33-56_260595134347_rgbf000074-resize_0/002199_2014-06-28_18-33-56_260595134347_rgbf000074-resize_0-target.png,125,1.996,6,1984,136,feet,jsons/VE125_randls_48_rotated.json,720803,841779,33,Man
110,276028,DepthScenes,duration_manipulation_targetAtFixation,jsons/VE125_randls_48_rotated.json,http://54.235.29.9/FacialAge/BNav_EC2/DepthDuration/v2_depth_duration_MTurk/v2_DepthDuration_HTML.html#148,148,1536,711,1536,864,8-21-2022,10-36-35,111,depth_duration_stimuli/001056_2014-06-08_18-46-44_260595134347_rgbf000068-resize_0/001056_2014-06-08_18-46-44_260595134347_rgbf000068-resize_0-target.png,125,2.6625,14,3797,132,feet,jsons/VE125_randls_48_rotated.json,720803,841779,33,Man
111,276028,DepthScenes,duration_manipulation_targetAtFixation,jsons/VE125_randls_48_rotated.json,http://54.235.29.9/FacialAge/BNav_EC2/DepthDuration/v2_depth_duration_MTurk/v2_DepthDuration_HTML.html#148,148,1536,711,1536,864,8-21-2022,10-36-35,112,depth_duration_stimuli/000927_2014-06-09_16-32-30_260595134347_rgbf000123-resize_3/000927_2014-06-09_16-32-30_260595134347_rgbf000123-resize_3-target.png,125,2.6785,13,2514,130,feet,jsons/VE125_randls_48_rotated.json,720803,841779,33,Man
112,276028,DepthScenes,duration_manipulation_targetAtFixation,jsons/VE125_randls_48_rotated.json,http://54.235.29.9/FacialAge/BNav_EC2/DepthDuration/v2_depth_duration_MTurk/v2_DepthDuration_HTML.html#148,148,1536,711,1536,864,8-21-2022,10-36-35,113,depth_duration_stimuli/001110_2014-06-15_17-25-28_260595134347_rgbf000150-resize_1/001110_2014-06-15_17-25-28_260595134347_rgbf000150-resize_1-target.png,125,1.7115,12,1803,125,feet,jsons/VE125_randls_48_rotated.json,720803,841779,33,Man
113,276028,DepthScenes,duration_manipulation_targetAtFixation,jsons/VE125_randls_48_rotated.json,http://54.235.29.9/FacialAge/BNav_EC2/DepthDuration/v2_depth_duration_MTurk/v2_DepthDuration_HTML.html#148,148,1536,711,1536,864,8-21-2022,10-36-35,114,depth_duration_stimuli/001571_2014-06-20_17-21-32_260595134347_rgbf000089-resize_1/001571_2014-06-20_17-21-32_260595134347_rgbf000089-resize_1-target.png,125,1.86,10,1808,127,feet,jsons/VE125_randls_48_rotated.json,720803,841779,33,Man
114,276028,DepthScenes,duration_manipulation_targetAtFixation,jsons/VE125_randls_48_rotated.json,http://54.235.29.9/FacialAge/BNav_EC2/DepthDuration/v2_depth_duration_MTurk/v2_DepthDuration_HTML.html#148,148,1536,711,1536,864,8-21-2022,10-36-35,115,depth_duration_stimuli/002272_2014-06-28_18-53-56_260595134347_rgbf000067-resize_2/002272_2014-06-28_18-53-56_260595134347_rgbf000067-resize_2-target.png,125,1.138,8,2719,119,feet,jsons/VE125_randls_48_rotated.json,720803,841779,33,Man
115,276028,DepthScenes,duration_manipulation_targetAtFixation,jsons/VE125_randls_48_rotated.json,http://54.235.29.9/FacialAge/BNav_EC2/DepthDuration/v2_depth_duration_MTurk/v2_DepthDuration_HTML.html#148,148,1536,711,1536,864,8-21-2022,10-36-35,116,depth_duration_stimuli/000137_2014-05-20_17-04-49_260595134347_rgbf000120-resize_1/000137_2014-05-20_17-04-49_260595134347_rgbf000120-resize_1-target.png,125,3.786,14,3190,132,feet,jsons/VE125_randls_48_rotated.json,720803,841779,33,Man
116,276028,DepthScenes,duration_manipulation_targetAtFixation,jsons/VE125_randls_48_rotated.json,http://54.235.29.9/FacialAge/BNav_EC2/DepthDuration/v2_depth_duration_MTurk/v2_DepthDuration_HTML.html#148,148,1536,711,1536,864,8-21-2022,10-36-35,117,depth_duration_stimuli/000736_2014-06-08_18-24-15_260595134347_rgbf000206-resize_3/000736_2014-06-08_18-24-15_260595134347_rgbf000206-resize_3-target.png,125,3.515,18,2288,133,feet,jsons/VE125_randls_48_rotated.json,720803,841779,33,Man
117,276028,DepthScenes,duration_manipulation_targetAtFixation,jsons/VE125_randls_48_rotated.json,http://54.235.29.9/FacialAge/BNav_EC2/DepthDuration/v2_depth_duration_MTurk/v2_DepthDuration_HTML.html#148,148,1536,711,1536,864,8-21-2022,10-36-35,118,depth_duration_stimuli/002995_2014-06-15_12-31-26_094959634447_rgbf000150-resize_1/002995_2014-06-15_12-31-26_094959634447_rgbf000150-resize_1-target.png,125,3.8360000000000003,16,3155,115,feet,jsons/VE125_randls_48_rotated.json,720803,841779,33,Man
118,276028,DepthScenes,duration_manipulation_targetAtFixation,jsons/VE125_randls_48_rotated.json,http://54.235.29.9/FacialAge/BNav_EC2/DepthDuration/v2_depth_duration_MTurk/v2_DepthDuration_HTML.html#148,148,1536,711,1536,864,8-21-2022,10-36-35,119,depth_duration_stimuli/002748_2014-06-22_19-07-22_094959634447_rgbf000078-resize_1/002748_2014-06-22_19-07-22_094959634447_rgbf000078-resize_1-target.png,125,4.6705,21,4272,127,feet,jsons/VE125_randls_48_rotated.json,720803,841779,33,Man
119,276028,DepthScenes,duration_manipulation_targetAtFixation,jsons/VE125_randls_48_rotated.json,http://54.235.29.9/FacialAge/BNav_EC2/DepthDuration/v2_depth_duration_MTurk/v2_DepthDuration_HTML.html#148,148,1536,711,1536,864,8-21-2022,10-36-35,120,depth_duration_stimuli/000787_2014-06-08_22-33-53_260595134347_rgbf000175-resize_1/000787_2014-06-08_22-33-53_260595134347_rgbf000175-resize-original.jpg,125,4.784,0,1894,130,feet,jsons/VE125_randls_48_rotated.json,720803,841779,33,Man
120,276028,DepthScenes,duration_manipulation_targetAtFixation,jsons/VE125_randls_48_rotated.json,http://54.235.29.9/FacialAge/BNav_EC2/DepthDuration/v2_depth_duration_MTurk/v2_DepthDuration_HTML.html#148,148,1536,711,1536,864,8-21-2022,10-36-35,121,depth_duration_stimuli/000191_2014-05-12_17-07-38_260595134347_rgbf000199-resize_0/000191_2014-05-12_17-07-38_260595134347_rgbf000199-resize_0-target.png,125,3.7995,14,4428,130,feet,jsons/VE125_randls_48_rotated.json,720803,841779,33,Man
121,276028,DepthScenes,duration_manipulation_targetAtFixation,jsons/VE125_randls_48_rotated.json,http://54.235.29.9/FacialAge/BNav_EC2/DepthDuration/v2_depth_duration_MTurk/v2_DepthDuration_HTML.html#148,148,1536,711,1536,864,8-21-2022,10-36-35,122,depth_duration_stimuli/000493_2014-06-09_21-01-18_260595134347_rgbf000196-resize_3/000493_2014-06-09_21-01-18_260595134347_rgbf000196-resize_3-target.png,125,3.44,13,3633,130,feet,jsons/VE125_randls_48_rotated.json,720803,841779,33,Man
122,276028,DepthScenes,duration_manipulation_targetAtFixation,jsons/VE125_randls_48_rotated.json,http://54.235.29.9/FacialAge/BNav_EC2/DepthDuration/v2_depth_duration_MTurk/v2_DepthDuration_HTML.html#148,148,1536,711,1536,864,8-21-2022,10-36-35,123,depth_duration_stimuli/001136_2014-06-17_15-19-41_260595134347_rgbf000076-resize_3/001136_2014-06-17_15-19-41_260595134347_rgbf000076-resize_3-target.png,125,1.8655,12,2946,115,feet,jsons/VE125_randls_48_rotated.json,720803,841779,33,Man
123,276028,DepthScenes,duration_manipulation_targetAtFixation,jsons/VE125_randls_48_rotated.json,http://54.235.29.9/FacialAge/BNav_EC2/DepthDuration/v2_depth_duration_MTurk/v2_DepthDuration_HTML.html#148,148,1536,711,1536,864,8-21-2022,10-36-35,124,depth_duration_stimuli/001164_2014-06-17_15-35-46_260595134347_rgbf000085-resize_3/001164_2014-06-17_15-35-46_260595134347_rgbf000085-resize_3-target.png,125,2.354,14,1990,114,feet,jsons/VE125_randls_48_rotated.json,720803,841779,33,Man
124,276028,DepthScenes,duration_manipulation_targetAtFixation,jsons/VE125_randls_48_rotated.json,http://54.235.29.9/FacialAge/BNav_EC2/DepthDuration/v2_depth_duration_MTurk/v2_DepthDuration_HTML.html#148,148,1536,711,1536,864,8-21-2022,10-36-35,125,depth_duration_stimuli/001815_2014-06-26_20-52-55_260595134347_rgbf000020-resize_0/001815_2014-06-26_20-52-55_260595134347_rgbf000020-resize_0-target.png,125,3.3865,17,3208,115,feet,jsons/VE125_randls_48_rotated.json,720803,841779,33,Man
125,276028,DepthScenes,duration_manipulation_targetAtFixation,jsons/VE125_randls_48_rotated.json,http://54.235.29.9/FacialAge/BNav_EC2/DepthDuration/v2_depth_duration_MTurk/v2_DepthDuration_HTML.html#148,148,1536,711,1536,864,8-21-2022,10-36-35,126,depth_duration_stimuli/001808_2014-06-26_20-50-58_260595134347_rgbf000029-resize_1/001808_2014-06-26_20-50-58_260595134347_rgbf000029-resize_1-target.png,125,4.249,19,3755,115,feet,jsons/VE125_randls_48_rotated.json,720803,841779,33,Man
126,276028,DepthScenes,duration_manipulation_targetAtFixation,jsons/VE125_randls_48_rotated.json,http://54.235.29.9/FacialAge/BNav_EC2/DepthDuration/v2_depth_duration_MTurk/v2_DepthDuration_HTML.html#148,148,1536,711,1536,864,8-21-2022,10-36-35,127,depth_duration_stimuli/002678_2014-06-13_16-15-32_094959634447_rgbf000151-resize_6/002678_2014-06-13_16-15-32_094959634447_rgbf000151-resize_6-target.png,125,2.1830000000000003,14,3371,116,feet,jsons/VE125_randls_48_rotated.json,720803,841779,33,Man
127,276028,DepthScenes,duration_manipulation_targetAtFixation,jsons/VE125_randls_48_rotated.json,http://54.235.29.9/FacialAge/BNav_EC2/DepthDuration/v2_depth_duration_MTurk/v2_DepthDuration_HTML.html#148,148,1536,711,1536,864,8-21-2022,10-36-35,128,depth_duration_stimuli/000368_2014-06-09_15-53-01_260595134347_rgbf000155-resize_2/000368_2014-06-09_15-53-01_260595134347_rgbf000155-resize_2-target.png,125,2.4859999999999998,17,7563,122,feet,jsons/VE125_randls_48_rotated.json,720803,841779,33,Man
128,276028,DepthScenes,duration_manipulation_targetAtFixation,jsons/VE125_randls_48_rotated.json,http://54.235.29.9/FacialAge/BNav_EC2/DepthDuration/v2_depth_duration_MTurk/v2_DepthDuration_HTML.html#148,148,1536,711,1536,864,8-21-2022,10-36-35,129,depth_duration_stimuli/001584_2014-06-20_11-07-43_260595134347_rgbf000002-resize_1/001584_2014-06-20_11-07-43_260595134347_rgbf000002-resize_1-target.png,125,3.53,12,4420,138,feet,jsons/VE125_randls_48_rotated.json,720803,841779,33,Man
129,276028,DepthScenes,duration_manipulation_targetAtFixation,jsons/VE125_randls_48_rotated.json,http://54.235.29.9/FacialAge/BNav_EC2/DepthDuration/v2_depth_duration_MTurk/v2_DepthDuration_HTML.html#148,148,1536,711,1536,864,8-21-2022,10-36-35,130,depth_duration_stimuli/003621_2014-05-23_18-06-08_094959634447_rgbf000101-resize_1/003621_2014-05-23_18-06-08_094959634447_rgbf000101-resize_1-target.png,125,3.9835,17,2426,126,feet,jsons/VE125_randls_48_rotated.json,720803,841779,33,Man
130,276028,DepthScenes,duration_manipulation_targetAtFixation,jsons/VE125_randls_48_rotated.json,http://54.235.29.9/FacialAge/BNav_EC2/DepthDuration/v2_depth_duration_MTurk/v2_DepthDuration_HTML.html#148,148,1536,711,1536,864,8-21-2022,10-36-35,131,depth_duration_stimuli/002568_2014-06-24_13-59-21_094959634447_rgbf000062-resize_4/002568_2014-06-24_13-59-21_094959634447_rgbf000062-resize_4-target.png,125,3.015,13,3524,129,feet,jsons/VE125_randls_48_rotated.json,720803,841779,33,Man
131,276028,DepthScenes,duration_manipulation_targetAtFixation,jsons/VE125_randls_48_rotated.json,http://54.235.29.9/FacialAge/BNav_EC2/DepthDuration/v2_depth_duration_MTurk/v2_DepthDuration_HTML.html#148,148,1536,711,1536,864,8-21-2022,10-36-35,132,depth_duration_stimuli/003492_2014-05-21_15-50-55_094959634447_rgbf000828-resize_1/003492_2014-05-21_15-50-55_094959634447_rgbf000828-resize_1-target.png,125,4.06875,18,2256,128,feet,jsons/VE125_randls_48_rotated.json,720803,841779,33,Man
132,276028,DepthScenes,duration_manipulation_targetAtFixation,jsons/VE125_randls_48_rotated.json,http://54.235.29.9/FacialAge/BNav_EC2/DepthDuration/v2_depth_duration_MTurk/v2_DepthDuration_HTML.html#148,148,1536,711,1536,864,8-21-2022,10-36-35,133,depth_duration_stimuli/001235_2014-06-17_16-37-36_260595134347_rgbf000084-resize_4/001235_2014-06-17_16-37-36_260595134347_rgbf000084-resize_4-target.png,125,3.6605,16,5427,129,feet,jsons/VE125_randls_48_rotated.json,720803,841779,33,Man
133,276028,DepthScenes,duration_manipulation_targetAtFixation,jsons/VE125_randls_48_rotated.json,http://54.235.29.9/FacialAge/BNav_EC2/DepthDuration/v2_depth_duration_MTurk/v2_DepthDuration_HTML.html#148,148,1536,711,1536,864,8-21-2022,10-36-35,134,depth_duration_stimuli/000788_2014-06-08_22-34-36_260595134347_rgbf000131-resize_1/000788_2014-06-08_22-34-36_260595134347_rgbf000131-resize_1-target.png,125,3.359,16,3663,113,feet,jsons/VE125_randls_48_rotated.json,720803,841779,33,Man
134,276028,DepthScenes,duration_manipulation_targetAtFixation,jsons/VE125_randls_48_rotated.json,http://54.235.29.9/FacialAge/BNav_EC2/DepthDuration/v2_depth_duration_MTurk/v2_DepthDuration_HTML.html#148,148,1536,711,1536,864,8-21-2022,10-36-35,135,depth_duration_stimuli/000375_2014-06-08_11-17-29_260595134347_rgbf000133-resize_2/000375_2014-06-08_11-17-29_260595134347_rgbf000133-resize-original.jpg,125,4.718,0,2334,123,feet,jsons/VE125_randls_48_rotated.json,720803,841779,33,Man
135,276028,DepthScenes,duration_manipulation_targetAtFixation,jsons/VE125_randls_48_rotated.json,http://54.235.29.9/FacialAge/BNav_EC2/DepthDuration/v2_depth_duration_MTurk/v2_DepthDuration_HTML.html#148,148,1536,711,1536,864,8-21-2022,10-36-35,136,depth_duration_stimuli/000457_2014-06-08_16-52-43_260595134347_rgbf000199-resize_1/000457_2014-06-08_16-52-43_260595134347_rgbf000199-resize_1-target.png,125,3.6489999999999996,16,3863,120,feet,jsons/VE125_randls_48_rotated.json,720803,841779,33,Man
136,276028,DepthScenes,duration_manipulation_targetAtFixation,jsons/VE125_randls_48_rotated.json,http://54.235.29.9/FacialAge/BNav_EC2/DepthDuration/v2_depth_duration_MTurk/v2_DepthDuration_HTML.html#148,148,1536,711,1536,864,8-21-2022,10-36-35,137,depth_duration_stimuli/000929_2014-06-09_16-33-19_260595134347_rgbf000139-resize_0/000929_2014-06-09_16-33-19_260595134347_rgbf000139-resize_0-target.png,125,2.8680000000000003,14,6080,124,feet,jsons/VE125_randls_48_rotated.json,720803,841779,33,Man
137,276028,DepthScenes,duration_manipulation_targetAtFixation,jsons/VE125_randls_48_rotated.json,http://54.235.29.9/FacialAge/BNav_EC2/DepthDuration/v2_depth_duration_MTurk/v2_DepthDuration_HTML.html#148,148,1536,711,1536,864,8-21-2022,10-36-35,138,depth_duration_stimuli/002414_2014-06-28_20-24-58_260595134347_rgbf000067-resize_4/002414_2014-06-28_20-24-58_260595134347_rgbf000067-resize_4-target.png,125,4.363,16,6391,131,feet,jsons/VE125_randls_48_rotated.json,720803,841779,33,Man
138,276028,DepthScenes,duration_manipulation_targetAtFixation,jsons/VE125_randls_48_rotated.json,http://54.235.29.9/FacialAge/BNav_EC2/DepthDuration/v2_depth_duration_MTurk/v2_DepthDuration_HTML.html#148,148,1536,711,1536,864,8-21-2022,10-36-35,139,depth_duration_stimuli/000773_2014-06-08_22-24-54_260595134347_rgbf000093-resize_1/000773_2014-06-08_22-24-54_260595134347_rgbf000093-resize_1-target.png,125,4.973,22,3298,126,feet,jsons/VE125_randls_48_rotated.json,720803,841779,33,Man
139,276028,DepthScenes,duration_manipulation_targetAtFixation,jsons/VE125_randls_48_rotated.json,http://54.235.29.9/FacialAge/BNav_EC2/DepthDuration/v2_depth_duration_MTurk/v2_DepthDuration_HTML.html#148,148,1536,711,1536,864,8-21-2022,10-36-35,140,depth_duration_stimuli/000866_2014-06-09_20-45-42_260595134347_rgbf000139-resize_1/000866_2014-06-09_20-45-42_260595134347_rgbf000139-resize_1-target.png,125,3.2155,14,4400,127,feet,jsons/VE125_randls_48_rotated.json,720803,841779,33,Man
140,276028,DepthScenes,duration_manipulation_targetAtFixation,jsons/VE125_randls_48_rotated.json,http://54.235.29.9/FacialAge/BNav_EC2/DepthDuration/v2_depth_duration_MTurk/v2_DepthDuration_HTML.html#148,148,1536,711,1536,864,8-21-2022,10-36-35,141,depth_duration_stimuli/002989_2014-06-15_12-25-03_094959634447_rgbf000150-resize_3/002989_2014-06-15_12-25-03_094959634447_rgbf000150-resize_3-target.png,125,4.1975,20,5157,123,feet,jsons/VE125_randls_48_rotated.json,720803,841779,33,Man
141,276028,DepthScenes,duration_manipulation_targetAtFixation,jsons/VE125_randls_48_rotated.json,http://54.235.29.9/FacialAge/BNav_EC2/DepthDuration/v2_depth_duration_MTurk/v2_DepthDuration_HTML.html#148,148,1536,711,1536,864,8-21-2022,10-36-35,142,depth_duration_stimuli/001132_2014-06-17_14-48-54_260595134347_rgbf000100-resize_2/001132_2014-06-17_14-48-54_260595134347_rgbf000100-resize_2-target.png,125,3.753,18,6005,117,feet,jsons/VE125_randls_48_rotated.json,720803,841779,33,Man
142,276028,DepthScenes,duration_manipulation_targetAtFixation,jsons/VE125_randls_48_rotated.json,http://54.235.29.9/FacialAge/BNav_EC2/DepthDuration/v2_depth_duration_MTurk/v2_DepthDuration_HTML.html#148,148,1536,711,1536,864,8-21-2022,10-36-35,143,depth_duration_stimuli/001133_2014-06-17_14-49-16_260595134347_rgbf000100-resize_0/001133_2014-06-17_14-49-16_260595134347_rgbf000100-resize_0-target.png,125,4.2115,21,3502,124,feet,jsons/VE125_randls_48_rotated.json,720803,841779,33,Man
143,276028,DepthScenes,duration_manipulation_targetAtFixation,jsons/VE125_randls_48_rotated.json,http://54.235.29.9/FacialAge/BNav_EC2/DepthDuration/v2_depth_duration_MTurk/v2_DepthDuration_HTML.html#148,148,1536,711,1536,864,8-21-2022,10-36-35,144,depth_duration_stimuli/003338_2014-05-20_11-01-23_094959634447_rgbf000051-resize_6/003338_2014-05-20_11-01-23_094959634447_rgbf000051-resize_6-target.png,125,1.693,12,2685,120,feet,jsons/VE125_randls_48_rotated.json,720803,841779,33,Man
144,276028,DepthScenes,duration_manipulation_targetAtFixation,jsons/VE125_randls_48_rotated.json,http://54.235.29.9/FacialAge/BNav_EC2/DepthDuration/v2_depth_duration_MTurk/v2_DepthDuration_HTML.html#148,148,1536,711,1536,864,8-21-2022,10-36-35,145,depth_duration_stimuli/002509_2014-06-24_13-19-22_094959634447_rgbf000077-resize_0/002509_2014-06-24_13-19-22_094959634447_rgbf000077-resize_0-target.png,125,1.3065,10,2721,124,feet,jsons/VE125_randls_48_rotated.json,720803,841779,33,Man
145,276028,DepthScenes,duration_manipulation_targetAtFixation,jsons/VE125_randls_48_rotated.json,http://54.235.29.9/FacialAge/BNav_EC2/DepthDuration/v2_depth_duration_MTurk/v2_DepthDuration_HTML.html#148,148,1536,711,1536,864,8-21-2022,10-36-35,146,depth_duration_stimuli/000549_2014-06-08_22-10-24_260595134347_rgbf000247-resize_3/000549_2014-06-08_22-10-24_260595134347_rgbf000247-resize_3-target.png,125,1.841,9,3198,127,feet,jsons/VE125_randls_48_rotated.json,720803,841779,33,Man
146,276028,DepthScenes,duration_manipulation_targetAtFixation,jsons/VE125_randls_48_rotated.json,http://54.235.29.9/FacialAge/BNav_EC2/DepthDuration/v2_depth_duration_MTurk/v2_DepthDuration_HTML.html#148,148,1536,711,1536,864,8-21-2022,10-36-35,147,depth_duration_stimuli/001055_2014-06-08_18-45-35_260595134347_rgbf000111-resize_4/001055_2014-06-08_18-45-35_260595134347_rgbf000111-resize_4-target.png,125,2.4290000000000003,15,4279,123,feet,jsons/VE125_randls_48_rotated.json,720803,841779,33,Man
147,276028,DepthScenes,duration_manipulation_targetAtFixation,jsons/VE125_randls_48_rotated.json,http://54.235.29.9/FacialAge/BNav_EC2/DepthDuration/v2_depth_duration_MTurk/v2_DepthDuration_HTML.html#148,148,1536,711,1536,864,8-21-2022,10-36-35,148,depth_duration_stimuli/000943_2014-06-09_19-31-07_260595134347_rgbf000128-resize_1/000943_2014-06-09_19-31-07_260595134347_rgbf000128-resize_1-target.png,125,1.9765,9,6864,123,feet,jsons/VE125_randls_48_rotated.json,720803,841779,33,Man
148,276028,DepthScenes,duration_manipulation_targetAtFixation,jsons/VE125_randls_48_rotated.json,http://54.235.29.9/FacialAge/BNav_EC2/DepthDuration/v2_depth_duration_MTurk/v2_DepthDuration_HTML.html#148,148,1536,711,1536,864,8-21-2022,10-36-35,149,depth_duration_stimuli/003070_2014-06-15_14-58-27_094959634447_rgbf000150-resize_3/003070_2014-06-15_14-58-27_094959634447_rgbf000150-resize_3-target.png,125,2.9415,14,2847,110,feet,jsons/VE125_randls_48_rotated.json,720803,841779,33,Man
149,276028,DepthScenes,duration_manipulation_targetAtFixation,jsons/VE125_randls_48_rotated.json,http://54.235.29.9/FacialAge/BNav_EC2/DepthDuration/v2_depth_duration_MTurk/v2_DepthDuration_HTML.html#148,148,1536,711,1536,864,8-21-2022,10-36-35,150,depth_duration_stimuli/001032_2014-06-08_13-23-17_260595134347_rgbf000021-resize_3/001032_2014-06-08_13-23-17_260595134347_rgbf000021-resize_3-target.png,125,3.2725,16,2628,128,feet,jsons/VE125_randls_48_rotated.json,720803,841779,33,Man
150,276028,DepthScenes,duration_manipulation_targetAtFixation,jsons/VE125_randls_48_rotated.json,http://54.235.29.9/FacialAge/BNav_EC2/DepthDuration/v2_depth_duration_MTurk/v2_DepthDuration_HTML.html#148,148,1536,711,1536,864,8-21-2022,10-36-35,151,depth_duration_stimuli/001059_2014-06-08_21-53-27_260595134347_rgbf000061-resize_4/001059_2014-06-08_21-53-27_260595134347_rgbf000061-resize_4-target.png,125,2.4185,11,5438,131,feet,jsons/VE125_randls_48_rotated.json,720803,841779,33,Man
151,276028,DepthScenes,duration_manipulation_targetAtFixation,jsons/VE125_randls_48_rotated.json,http://54.235.29.9/FacialAge/BNav_EC2/DepthDuration/v2_depth_duration_MTurk/v2_DepthDuration_HTML.html#148,148,1536,711,1536,864,8-21-2022,10-36-35,152,depth_duration_stimuli/000569_2014-06-09_22-51-47_260595134347_rgbf000141-resize_3/000569_2014-06-09_22-51-47_260595134347_rgbf000141-resize-original.jpg,125,4.512,0,1492,130,feet,jsons/VE125_randls_48_rotated.json,720803,841779,33,Man
152,276028,DepthScenes,duration_manipulation_targetAtFixation,jsons/VE125_randls_48_rotated.json,http://54.235.29.9/FacialAge/BNav_EC2/DepthDuration/v2_depth_duration_MTurk/v2_DepthDuration_HTML.html#148,148,1536,711,1536,864,8-21-2022,10-36-35,153,depth_duration_stimuli/000556_2014-06-09_22-42-56_260595134347_rgbf000214-resize_1/000556_2014-06-09_22-42-56_260595134347_rgbf000214-resize_1-target.png,125,4.8415,18,2614,130,feet,jsons/VE125_randls_48_rotated.json,720803,841779,33,Man
153,276028,DepthScenes,duration_manipulation_targetAtFixation,jsons/VE125_randls_48_rotated.json,http://54.235.29.9/FacialAge/BNav_EC2/DepthDuration/v2_depth_duration_MTurk/v2_DepthDuration_HTML.html#148,148,1536,711,1536,864,8-21-2022,10-36-35,154,depth_duration_stimuli/001158_2014-06-17_15-32-16_260595134347_rgbf000138-resize_2/001158_2014-06-17_15-32-16_260595134347_rgbf000138-resize_2-target.png,125,4.5315,20,2071,131,feet,jsons/VE125_randls_48_rotated.json,720803,841779,33,Man
154,276028,DepthScenes,duration_manipulation_targetAtFixation,jsons/VE125_randls_48_rotated.json,http://54.235.29.9/FacialAge/BNav_EC2/DepthDuration/v2_depth_duration_MTurk/v2_DepthDuration_HTML.html#148,148,1536,711,1536,864,8-21-2022,10-36-35,155,depth_duration_stimuli/002344_2014-06-28_20-06-29_260595134347_rgbf000030-resize_1/002344_2014-06-28_20-06-29_260595134347_rgbf000030-resize_1-target.png,125,1.5795,8,7615,119,feet,jsons/VE125_randls_48_rotated.json,720803,841779,33,Man
155,276028,DepthScenes,duration_manipulation_targetAtFixation,jsons/VE125_randls_48_rotated.json,http://54.235.29.9/FacialAge/BNav_EC2/DepthDuration/v2_depth_duration_MTurk/v2_DepthDuration_HTML.html#148,148,1536,711,1536,864,8-21-2022,10-36-35,156,depth_duration_stimuli/002725_2014-06-22_11-47-51_094959634447_rgbf000070-resize_1/002725_2014-06-22_11-47-51_094959634447_rgbf000070-resize_1-target.png,125,2.195,12,2376,128,feet,jsons/VE125_randls_48_rotated.json,720803,841779,33,Man
156,276028,DepthScenes,duration_manipulation_targetAtFixation,jsons/VE125_randls_48_rotated.json,http://54.235.29.9/FacialAge/BNav_EC2/DepthDuration/v2_depth_duration_MTurk/v2_DepthDuration_HTML.html#148,148,1536,711,1536,864,8-21-2022,10-36-35,157,depth_duration_stimuli/000409_2014-06-04_19-23-33_260595134347_rgbf000067-resize_0/000409_2014-06-04_19-23-33_260595134347_rgbf000067-resize_0-target.png,125,3.7335,12,2416,116,feet,jsons/VE125_randls_48_rotated.json,720803,841779,33,Man
157,276028,DepthScenes,duration_manipulation_targetAtFixation,jsons/VE125_randls_48_rotated.json,http://54.235.29.9/FacialAge/BNav_EC2/DepthDuration/v2_depth_duration_MTurk/v2_DepthDuration_HTML.html#148,148,1536,711,1536,864,8-21-2022,10-36-35,158,depth_duration_stimuli/002663_2014-06-13_15-50-26_094959634447_rgbf000075-resize_1/002663_2014-06-13_15-50-26_094959634447_rgbf000075-resize_1-target.png,125,4.7495,24,4490,130,feet,jsons/VE125_randls_48_rotated.json,720803,841779,33,Man
158,276028,DepthScenes,duration_manipulation_targetAtFixation,jsons/VE125_randls_48_rotated.json,http://54.235.29.9/FacialAge/BNav_EC2/DepthDuration/v2_depth_duration_MTurk/v2_DepthDuration_HTML.html#148,148,1536,711,1536,864,8-21-2022,10-36-35,159,depth_duration_stimuli/003129_2014-05-12_10-48-10_094959634447_rgbf000100-resize_0/003129_2014-05-12_10-48-10_094959634447_rgbf000100-resize_0-target.png,125,4.9305,10,3106,130,feet,jsons/VE125_randls_48_rotated.json,720803,841779,33,Man
159,276028,DepthScenes,duration_manipulation_targetAtFixation,jsons/VE125_randls_48_rotated.json,http://54.235.29.9/FacialAge/BNav_EC2/DepthDuration/v2_depth_duration_MTurk/v2_DepthDuration_HTML.html#148,148,1536,711,1536,864,8-21-2022,10-36-35,160,depth_duration_stimuli/000414_2014-06-04_19-49-13_260595134347_rgbf000044-resize_0/000414_2014-06-04_19-49-13_260595134347_rgbf000044-resize_0-target.png,125,4.329,12,1808,115,feet,jsons/VE125_randls_48_rotated.json,720803,841779,33,Man
160,276028,DepthScenes,duration_manipulation_targetAtFixation,jsons/VE125_randls_48_rotated.json,http://54.235.29.9/FacialAge/BNav_EC2/DepthDuration/v2_depth_duration_MTurk/v2_DepthDuration_HTML.html#148,148,1536,711,1536,864,8-21-2022,10-36-35,161,depth_duration_stimuli/000103_2014-05-14_22-01-17_260595134347_rgbf000152-resize_5/000103_2014-05-14_22-01-17_260595134347_rgbf000152-resize_5-target.png,125,1.993,12,2591,116,feet,jsons/VE125_randls_48_rotated.json,720803,841779,33,Man
161,276028,DepthScenes,duration_manipulation_targetAtFixation,jsons/VE125_randls_48_rotated.json,http://54.235.29.9/FacialAge/BNav_EC2/DepthDuration/v2_depth_duration_MTurk/v2_DepthDuration_HTML.html#148,148,1536,711,1536,864,8-21-2022,10-36-35,162,depth_duration_stimuli/001555_2014-06-20_17-12-10_260595134347_rgbf000065-resize_4/001555_2014-06-20_17-12-10_260595134347_rgbf000065-resize_4-target.png,125,1.633,9,2499,114,feet,jsons/VE125_randls_48_rotated.json,720803,841779,33,Man
162,276028,DepthScenes,duration_manipulation_targetAtFixation,jsons/VE125_randls_48_rotated.json,http://54.235.29.9/FacialAge/BNav_EC2/DepthDuration/v2_depth_duration_MTurk/v2_DepthDuration_HTML.html#148,148,1536,711,1536,864,8-21-2022,10-36-35,163,depth_duration_stimuli/003081_2014-06-15_15-19-16_094959634447_rgbf000150-resize_1/003081_2014-06-15_15-19-16_094959634447_rgbf000150-resize_1-target.png,125,3.9125,12,2301,130,feet,jsons/VE125_randls_48_rotated.json,720803,841779,33,Man
163,276028,DepthScenes,duration_manipulation_targetAtFixation,jsons/VE125_randls_48_rotated.json,http://54.235.29.9/FacialAge/BNav_EC2/DepthDuration/v2_depth_duration_MTurk/v2_DepthDuration_HTML.html#148,148,1536,711,1536,864,8-21-2022,10-36-35,164,depth_duration_stimuli/001417_2014-06-19_16-25-36_260595134347_rgbf000115-resize_5/001417_2014-06-19_16-25-36_260595134347_rgbf000115-resize_5-target.png,125,4.6255,20,6313,131,feet,jsons/VE125_randls_48_rotated.json,720803,841779,33,Man
