,subjID,experimentName,versionName,sequenceName,url,selected_row,windowWidth,windowHeight,screenWidth,screenHeight,startDate,startTime,trial,stimulus,duration,actual_depth,depth_estimate,trial_RT,log_sceneDuration,unitSelection,seq_filepath,experimentTime,totalTime,age,gender
0,276191,DepthScenes,duration_manipulation_targetAtFixation,jsons/v1_VE1000_randls_72.json,http://54.235.29.9/FacialAge/BNav_EC2/DepthDuration/v2_depth_duration_MTurk/v2_DepthDuration_HTML.html#274,274,1364,625,1364,768,8-30-2022,7-55-53,1,depth_duration_stimuli/001449_2014-06-19_17-01-27_260595134347_rgbf000116-resize_2/001449_2014-06-19_17-01-27_260595134347_rgbf000116-resize_2-target.png,1000,3.452,3,8435,1011,feet,jsons/v1_VE1000_randls_72.json,1241664,1362477,26,Woman
1,276191,DepthScenes,duration_manipulation_targetAtFixation,jsons/v1_VE1000_randls_72.json,http://54.235.29.9/FacialAge/BNav_EC2/DepthDuration/v2_depth_duration_MTurk/v2_DepthDuration_HTML.html#274,274,1364,625,1364,768,8-30-2022,7-55-53,2,depth_duration_stimuli/001450_2014-06-19_17-02-03_260595134347_rgbf000203-resize_4/001450_2014-06-19_17-02-03_260595134347_rgbf000203-resize_4-target.png,1000,4.0106666666667,5,6883,999,feet,jsons/v1_VE1000_randls_72.json,1241664,1362477,26,Woman
2,276191,DepthScenes,duration_manipulation_targetAtFixation,jsons/v1_VE1000_randls_72.json,http://54.235.29.9/FacialAge/BNav_EC2/DepthDuration/v2_depth_duration_MTurk/v2_DepthDuration_HTML.html#274,274,1364,625,1364,768,8-30-2022,7-55-53,3,depth_duration_stimuli/001199_2014-06-17_16-03-48_260595134347_rgbf000077-resize_0/001199_2014-06-17_16-03-48_260595134347_rgbf000077-resize_0-target.png,1000,3.4375,4,7955,1011,feet,jsons/v1_VE1000_randls_72.json,1241664,1362477,26,Woman
3,276191,DepthScenes,duration_manipulation_targetAtFixation,jsons/v1_VE1000_randls_72.json,http://54.235.29.9/FacialAge/BNav_EC2/DepthDuration/v2_depth_duration_MTurk/v2_DepthDuration_HTML.html#274,274,1364,625,1364,768,8-30-2022,7-55-53,4,depth_duration_stimuli/000502_2014-06-08_23-02-32_260595134347_rgbf000063-resize_4/000502_2014-06-08_23-02-32_260595134347_rgbf000063-resize_4-target.png,1000,2.431,2,8635,998,feet,jsons/v1_VE1000_randls_72.json,1241664,1362477,26,Woman
4,276191,DepthScenes,duration_manipulation_targetAtFixation,jsons/v1_VE1000_randls_72.json,http://54.235.29.9/FacialAge/BNav_EC2/DepthDuration/v2_depth_duration_MTurk/v2_DepthDuration_HTML.html#274,274,1364,625,1364,768,8-30-2022,7-55-53,5,depth_duration_stimuli/000929_2014-06-09_16-33-19_260595134347_rgbf000139-resize_0/000929_2014-06-09_16-33-19_260595134347_rgbf000139-resize_0-target.png,1000,2.8680000000000003,1,7305,1006,feet,jsons/v1_VE1000_randls_72.json,1241664,1362477,26,Woman
5,276191,DepthScenes,duration_manipulation_targetAtFixation,jsons/v1_VE1000_randls_72.json,http://54.235.29.9/FacialAge/BNav_EC2/DepthDuration/v2_depth_duration_MTurk/v2_DepthDuration_HTML.html#274,274,1364,625,1364,768,8-30-2022,7-55-53,6,depth_duration_stimuli/000457_2014-06-08_16-52-43_260595134347_rgbf000199-resize_1/000457_2014-06-08_16-52-43_260595134347_rgbf000199-resize_1-target.png,1000,3.6489999999999996,2,7566,1000,feet,jsons/v1_VE1000_randls_72.json,1241664,1362477,26,Woman
6,276191,DepthScenes,duration_manipulation_targetAtFixation,jsons/v1_VE1000_randls_72.json,http://54.235.29.9/FacialAge/BNav_EC2/DepthDuration/v2_depth_duration_MTurk/v2_DepthDuration_HTML.html#274,274,1364,625,1364,768,8-30-2022,7-55-53,7,depth_duration_stimuli/000470_2014-06-09_19-42-40_260595134347_rgbf000094-resize_1/000470_2014-06-09_19-42-40_260595134347_rgbf000094-resize_1-target.png,1000,1.831,3,6874,995,feet,jsons/v1_VE1000_randls_72.json,1241664,1362477,26,Woman
7,276191,DepthScenes,duration_manipulation_targetAtFixation,jsons/v1_VE1000_randls_72.json,http://54.235.29.9/FacialAge/BNav_EC2/DepthDuration/v2_depth_duration_MTurk/v2_DepthDuration_HTML.html#274,274,1364,625,1364,768,8-30-2022,7-55-53,8,depth_duration_stimuli/000109_2014-05-14_23-41-52_260595134347_rgbf000035-resize_9/000109_2014-05-14_23-41-52_260595134347_rgbf000035-resize_9-target.png,1000,1.3545,3,7984,1001,feet,jsons/v1_VE1000_randls_72.json,1241664,1362477,26,Woman
8,276191,DepthScenes,duration_manipulation_targetAtFixation,jsons/v1_VE1000_randls_72.json,http://54.235.29.9/FacialAge/BNav_EC2/DepthDuration/v2_depth_duration_MTurk/v2_DepthDuration_HTML.html#274,274,1364,625,1364,768,8-30-2022,7-55-53,9,depth_duration_stimuli/001150_2014-06-17_15-27-34_260595134347_rgbf000108-resize_2/001150_2014-06-17_15-27-34_260595134347_rgbf000108-resize_2-target.png,1000,4.0325,2,8903,1000,feet,jsons/v1_VE1000_randls_72.json,1241664,1362477,26,Woman
9,276191,DepthScenes,duration_manipulation_targetAtFixation,jsons/v1_VE1000_randls_72.json,http://54.235.29.9/FacialAge/BNav_EC2/DepthDuration/v2_depth_duration_MTurk/v2_DepthDuration_HTML.html#274,274,1364,625,1364,768,8-30-2022,7-55-53,10,depth_duration_stimuli/000665_2014-06-09_20-42-35_260595134347_rgbf000110-resize_1/000665_2014-06-09_20-42-35_260595134347_rgbf000110-resize_1-target.png,1000,3.057,6,6260,1000,feet,jsons/v1_VE1000_randls_72.json,1241664,1362477,26,Woman
10,276191,DepthScenes,duration_manipulation_targetAtFixation,jsons/v1_VE1000_randls_72.json,http://54.235.29.9/FacialAge/BNav_EC2/DepthDuration/v2_depth_duration_MTurk/v2_DepthDuration_HTML.html#274,274,1364,625,1364,768,8-30-2022,7-55-53,11,depth_duration_stimuli/001016_2014-06-09_16-16-10_260595134347_rgbf000112-resize_5/001016_2014-06-09_16-16-10_260595134347_rgbf000112-resize_5-target.png,1000,1.6565,3,6446,1000,feet,jsons/v1_VE1000_randls_72.json,1241664,1362477,26,Woman
11,276191,DepthScenes,duration_manipulation_targetAtFixation,jsons/v1_VE1000_randls_72.json,http://54.235.29.9/FacialAge/BNav_EC2/DepthDuration/v2_depth_duration_MTurk/v2_DepthDuration_HTML.html#274,274,1364,625,1364,768,8-30-2022,7-55-53,12,depth_duration_stimuli/002340_2014-06-28_20-05-46_260595134347_rgbf000113-resize_0/002340_2014-06-28_20-05-46_260595134347_rgbf000113-resize_0-target.png,1000,2.4735,3,7859,999,feet,jsons/v1_VE1000_randls_72.json,1241664,1362477,26,Woman
12,276191,DepthScenes,duration_manipulation_targetAtFixation,jsons/v1_VE1000_randls_72.json,http://54.235.29.9/FacialAge/BNav_EC2/DepthDuration/v2_depth_duration_MTurk/v2_DepthDuration_HTML.html#274,274,1364,625,1364,768,8-30-2022,7-55-53,13,depth_duration_stimuli/000569_2014-06-09_22-51-47_260595134347_rgbf000141-resize_3/000569_2014-06-09_22-51-47_260595134347_rgbf000141-resize-original.jpg,1000,4.512,3,6842,997,feet,jsons/v1_VE1000_randls_72.json,1241664,1362477,26,Woman
13,276191,DepthScenes,duration_manipulation_targetAtFixation,jsons/v1_VE1000_randls_72.json,http://54.235.29.9/FacialAge/BNav_EC2/DepthDuration/v2_depth_duration_MTurk/v2_DepthDuration_HTML.html#274,274,1364,625,1364,768,8-30-2022,7-55-53,14,depth_duration_stimuli/003492_2014-05-21_15-50-55_094959634447_rgbf000828-resize_1/003492_2014-05-21_15-50-55_094959634447_rgbf000828-resize_1-target.png,1000,4.06875,1,6760,1001,feet,jsons/v1_VE1000_randls_72.json,1241664,1362477,26,Woman
14,276191,DepthScenes,duration_manipulation_targetAtFixation,jsons/v1_VE1000_randls_72.json,http://54.235.29.9/FacialAge/BNav_EC2/DepthDuration/v2_depth_duration_MTurk/v2_DepthDuration_HTML.html#274,274,1364,625,1364,768,8-30-2022,7-55-53,15,depth_duration_stimuli/002568_2014-06-24_13-59-21_094959634447_rgbf000062-resize_4/002568_2014-06-24_13-59-21_094959634447_rgbf000062-resize_4-target.png,1000,3.015,3,6991,1006,feet,jsons/v1_VE1000_randls_72.json,1241664,1362477,26,Woman
15,276191,DepthScenes,duration_manipulation_targetAtFixation,jsons/v1_VE1000_randls_72.json,http://54.235.29.9/FacialAge/BNav_EC2/DepthDuration/v2_depth_duration_MTurk/v2_DepthDuration_HTML.html#274,274,1364,625,1364,768,8-30-2022,7-55-53,16,depth_duration_stimuli/002784_2014-06-22_19-26-30_094959634447_rgbf000083-resize_3/002784_2014-06-22_19-26-30_094959634447_rgbf000083-resize_3-target.png,1000,1.8046666666667,3,7083,997,feet,jsons/v1_VE1000_randls_72.json,1241664,1362477,26,Woman
16,276191,DepthScenes,duration_manipulation_targetAtFixation,jsons/v1_VE1000_randls_72.json,http://54.235.29.9/FacialAge/BNav_EC2/DepthDuration/v2_depth_duration_MTurk/v2_DepthDuration_HTML.html#274,274,1364,625,1364,768,8-30-2022,7-55-53,17,depth_duration_stimuli/001100_2014-06-15_17-46-26_260595134347_rgbf000225-resize_2/001100_2014-06-15_17-46-26_260595134347_rgbf000225-resize_2-target.png,1000,2.24,4,334888,999,feet,jsons/v1_VE1000_randls_72.json,1241664,1362477,26,Woman
17,276191,DepthScenes,duration_manipulation_targetAtFixation,jsons/v1_VE1000_randls_72.json,http://54.235.29.9/FacialAge/BNav_EC2/DepthDuration/v2_depth_duration_MTurk/v2_DepthDuration_HTML.html#274,274,1364,625,1364,768,8-30-2022,7-55-53,18,depth_duration_stimuli/001175_2014-06-17_15-45-55_260595134347_rgbf000129-resize_4/001175_2014-06-17_15-45-55_260595134347_rgbf000129-resize_4-target.png,1000,4.255,5,9376,988,feet,jsons/v1_VE1000_randls_72.json,1241664,1362477,26,Woman
18,276191,DepthScenes,duration_manipulation_targetAtFixation,jsons/v1_VE1000_randls_72.json,http://54.235.29.9/FacialAge/BNav_EC2/DepthDuration/v2_depth_duration_MTurk/v2_DepthDuration_HTML.html#274,274,1364,625,1364,768,8-30-2022,7-55-53,19,depth_duration_stimuli/003490_2014-05-21_15-50-11_094959634447_rgbf000101-resize_3/003490_2014-05-21_15-50-11_094959634447_rgbf000101-resize_3-target.png,1000,3.6445,3,18369,991,feet,jsons/v1_VE1000_randls_72.json,1241664,1362477,26,Woman
19,276191,DepthScenes,duration_manipulation_targetAtFixation,jsons/v1_VE1000_randls_72.json,http://54.235.29.9/FacialAge/BNav_EC2/DepthDuration/v2_depth_duration_MTurk/v2_DepthDuration_HTML.html#274,274,1364,625,1364,768,8-30-2022,7-55-53,20,depth_duration_stimuli/001110_2014-06-15_17-25-28_260595134347_rgbf000150-resize_1/001110_2014-06-15_17-25-28_260595134347_rgbf000150-resize_1-target.png,1000,1.7115,1,5573,985,feet,jsons/v1_VE1000_randls_72.json,1241664,1362477,26,Woman
20,276191,DepthScenes,duration_manipulation_targetAtFixation,jsons/v1_VE1000_randls_72.json,http://54.235.29.9/FacialAge/BNav_EC2/DepthDuration/v2_depth_duration_MTurk/v2_DepthDuration_HTML.html#274,274,1364,625,1364,768,8-30-2022,7-55-53,21,depth_duration_stimuli/000927_2014-06-09_16-32-30_260595134347_rgbf000123-resize_3/000927_2014-06-09_16-32-30_260595134347_rgbf000123-resize_3-target.png,1000,2.6785,3,6030,998,feet,jsons/v1_VE1000_randls_72.json,1241664,1362477,26,Woman
21,276191,DepthScenes,duration_manipulation_targetAtFixation,jsons/v1_VE1000_randls_72.json,http://54.235.29.9/FacialAge/BNav_EC2/DepthDuration/v2_depth_duration_MTurk/v2_DepthDuration_HTML.html#274,274,1364,625,1364,768,8-30-2022,7-55-53,22,depth_duration_stimuli/002663_2014-06-13_15-50-26_094959634447_rgbf000075-resize_1/002663_2014-06-13_15-50-26_094959634447_rgbf000075-resize_1-target.png,1000,4.7495,3,5703,1000,feet,jsons/v1_VE1000_randls_72.json,1241664,1362477,26,Woman
22,276191,DepthScenes,duration_manipulation_targetAtFixation,jsons/v1_VE1000_randls_72.json,http://54.235.29.9/FacialAge/BNav_EC2/DepthDuration/v2_depth_duration_MTurk/v2_DepthDuration_HTML.html#274,274,1364,625,1364,768,8-30-2022,7-55-53,23,depth_duration_stimuli/000409_2014-06-04_19-23-33_260595134347_rgbf000067-resize_0/000409_2014-06-04_19-23-33_260595134347_rgbf000067-resize_0-target.png,1000,3.7335,3,5819,1001,feet,jsons/v1_VE1000_randls_72.json,1241664,1362477,26,Woman
23,276191,DepthScenes,duration_manipulation_targetAtFixation,jsons/v1_VE1000_randls_72.json,http://54.235.29.9/FacialAge/BNav_EC2/DepthDuration/v2_depth_duration_MTurk/v2_DepthDuration_HTML.html#274,274,1364,625,1364,768,8-30-2022,7-55-53,24,depth_duration_stimuli/000522_2014-06-08_13-35-06_260595134347_rgbf000244-resize_1/000522_2014-06-08_13-35-06_260595134347_rgbf000244-resize_1-target.png,1000,2.3715,1,8027,998,feet,jsons/v1_VE1000_randls_72.json,1241664,1362477,26,Woman
24,276191,DepthScenes,duration_manipulation_targetAtFixation,jsons/v1_VE1000_randls_72.json,http://54.235.29.9/FacialAge/BNav_EC2/DepthDuration/v2_depth_duration_MTurk/v2_DepthDuration_HTML.html#274,274,1364,625,1364,768,8-30-2022,7-55-53,25,depth_duration_stimuli/002949_2014-06-26_15-57-42_094959634447_rgbf000079-resize_1/002949_2014-06-26_15-57-42_094959634447_rgbf000079-resize_1-target.png,1000,1.8915,2,4992,989,feet,jsons/v1_VE1000_randls_72.json,1241664,1362477,26,Woman
25,276191,DepthScenes,duration_manipulation_targetAtFixation,jsons/v1_VE1000_randls_72.json,http://54.235.29.9/FacialAge/BNav_EC2/DepthDuration/v2_depth_duration_MTurk/v2_DepthDuration_HTML.html#274,274,1364,625,1364,768,8-30-2022,7-55-53,26,depth_duration_stimuli/001806_2014-06-26_20-50-20_260595134347_rgbf000091-resize_1/001806_2014-06-26_20-50-20_260595134347_rgbf000091-resize_1-target.png,1000,2.7305,1,5887,1012,feet,jsons/v1_VE1000_randls_72.json,1241664,1362477,26,Woman
26,276191,DepthScenes,duration_manipulation_targetAtFixation,jsons/v1_VE1000_randls_72.json,http://54.235.29.9/FacialAge/BNav_EC2/DepthDuration/v2_depth_duration_MTurk/v2_DepthDuration_HTML.html#274,274,1364,625,1364,768,8-30-2022,7-55-53,27,depth_duration_stimuli/001617_2014-06-20_11-35-32_260595134347_rgbf000066-resize_1/001617_2014-06-20_11-35-32_260595134347_rgbf000066-resize_1-target.png,1000,3.7910000000000004,2,6529,989,feet,jsons/v1_VE1000_randls_72.json,1241664,1362477,26,Woman
27,276191,DepthScenes,duration_manipulation_targetAtFixation,jsons/v1_VE1000_randls_72.json,http://54.235.29.9/FacialAge/BNav_EC2/DepthDuration/v2_depth_duration_MTurk/v2_DepthDuration_HTML.html#274,274,1364,625,1364,768,8-30-2022,7-55-53,28,depth_duration_stimuli/000414_2014-06-04_19-49-13_260595134347_rgbf000044-resize_0/000414_2014-06-04_19-49-13_260595134347_rgbf000044-resize_0-target.png,1000,4.329,4,6823,1001,feet,jsons/v1_VE1000_randls_72.json,1241664,1362477,26,Woman
28,276191,DepthScenes,duration_manipulation_targetAtFixation,jsons/v1_VE1000_randls_72.json,http://54.235.29.9/FacialAge/BNav_EC2/DepthDuration/v2_depth_duration_MTurk/v2_DepthDuration_HTML.html#274,274,1364,625,1364,768,8-30-2022,7-55-53,29,depth_duration_stimuli/003129_2014-05-12_10-48-10_094959634447_rgbf000100-resize_0/003129_2014-05-12_10-48-10_094959634447_rgbf000100-resize_0-target.png,1000,4.9305,3,5515,1001,feet,jsons/v1_VE1000_randls_72.json,1241664,1362477,26,Woman
29,276191,DepthScenes,duration_manipulation_targetAtFixation,jsons/v1_VE1000_randls_72.json,http://54.235.29.9/FacialAge/BNav_EC2/DepthDuration/v2_depth_duration_MTurk/v2_DepthDuration_HTML.html#274,274,1364,625,1364,768,8-30-2022,7-55-53,30,depth_duration_stimuli/000375_2014-06-08_11-17-29_260595134347_rgbf000133-resize_2/000375_2014-06-08_11-17-29_260595134347_rgbf000133-resize-original.jpg,1000,4.718,0,9923,1000,feet,jsons/v1_VE1000_randls_72.json,1241664,1362477,26,Woman
30,276191,DepthScenes,duration_manipulation_targetAtFixation,jsons/v1_VE1000_randls_72.json,http://54.235.29.9/FacialAge/BNav_EC2/DepthDuration/v2_depth_duration_MTurk/v2_DepthDuration_HTML.html#274,274,1364,625,1364,768,8-30-2022,7-55-53,31,depth_duration_stimuli/001164_2014-06-17_15-35-46_260595134347_rgbf000085-resize_3/001164_2014-06-17_15-35-46_260595134347_rgbf000085-resize_3-target.png,1000,2.354,1,4889,999,feet,jsons/v1_VE1000_randls_72.json,1241664,1362477,26,Woman
31,276191,DepthScenes,duration_manipulation_targetAtFixation,jsons/v1_VE1000_randls_72.json,http://54.235.29.9/FacialAge/BNav_EC2/DepthDuration/v2_depth_duration_MTurk/v2_DepthDuration_HTML.html#274,274,1364,625,1364,768,8-30-2022,7-55-53,32,depth_duration_stimuli/001136_2014-06-17_15-19-41_260595134347_rgbf000076-resize_3/001136_2014-06-17_15-19-41_260595134347_rgbf000076-resize_3-target.png,1000,1.8655,3,4714,1001,feet,jsons/v1_VE1000_randls_72.json,1241664,1362477,26,Woman
32,276191,DepthScenes,duration_manipulation_targetAtFixation,jsons/v1_VE1000_randls_72.json,http://54.235.29.9/FacialAge/BNav_EC2/DepthDuration/v2_depth_duration_MTurk/v2_DepthDuration_HTML.html#274,274,1364,625,1364,768,8-30-2022,7-55-53,33,depth_duration_stimuli/001808_2014-06-26_20-50-58_260595134347_rgbf000029-resize_1/001808_2014-06-26_20-50-58_260595134347_rgbf000029-resize_1-target.png,1000,4.249,2,4659,1000,feet,jsons/v1_VE1000_randls_72.json,1241664,1362477,26,Woman
33,276191,DepthScenes,duration_manipulation_targetAtFixation,jsons/v1_VE1000_randls_72.json,http://54.235.29.9/FacialAge/BNav_EC2/DepthDuration/v2_depth_duration_MTurk/v2_DepthDuration_HTML.html#274,274,1364,625,1364,768,8-30-2022,7-55-53,34,depth_duration_stimuli/001815_2014-06-26_20-52-55_260595134347_rgbf000020-resize_0/001815_2014-06-26_20-52-55_260595134347_rgbf000020-resize_0-target.png,1000,3.3865,3,4241,1008,feet,jsons/v1_VE1000_randls_72.json,1241664,1362477,26,Woman
34,276191,DepthScenes,duration_manipulation_targetAtFixation,jsons/v1_VE1000_randls_72.json,http://54.235.29.9/FacialAge/BNav_EC2/DepthDuration/v2_depth_duration_MTurk/v2_DepthDuration_HTML.html#274,274,1364,625,1364,768,8-30-2022,7-55-53,35,depth_duration_stimuli/000486_2014-06-09_20-47-20_260595134347_rgbf000143-resize_2/000486_2014-06-09_20-47-20_260595134347_rgbf000143-resize_2-target.png,1000,4.8325,2,4615,999,feet,jsons/v1_VE1000_randls_72.json,1241664,1362477,26,Woman
35,276191,DepthScenes,duration_manipulation_targetAtFixation,jsons/v1_VE1000_randls_72.json,http://54.235.29.9/FacialAge/BNav_EC2/DepthDuration/v2_depth_duration_MTurk/v2_DepthDuration_HTML.html#274,274,1364,625,1364,768,8-30-2022,7-55-53,36,depth_duration_stimuli/003083_2014-06-15_15-21-03_094959634447_rgbf000063-resize_1/003083_2014-06-15_15-21-03_094959634447_rgbf000063-resize_1-target.png,1000,4.1405,3,3893,1000,feet,jsons/v1_VE1000_randls_72.json,1241664,1362477,26,Woman
36,276191,DepthScenes,duration_manipulation_targetAtFixation,jsons/v1_VE1000_randls_72.json,http://54.235.29.9/FacialAge/BNav_EC2/DepthDuration/v2_depth_duration_MTurk/v2_DepthDuration_HTML.html#274,274,1364,625,1364,768,8-30-2022,7-55-53,37,depth_duration_stimuli/001092_2014-06-15_17-34-58_260595134347_rgbf000171-resize_3/001092_2014-06-15_17-34-58_260595134347_rgbf000171-resize_3-target.png,1000,2.6935,1,4723,997,feet,jsons/v1_VE1000_randls_72.json,1241664,1362477,26,Woman
37,276191,DepthScenes,duration_manipulation_targetAtFixation,jsons/v1_VE1000_randls_72.json,http://54.235.29.9/FacialAge/BNav_EC2/DepthDuration/v2_depth_duration_MTurk/v2_DepthDuration_HTML.html#274,274,1364,625,1364,768,8-30-2022,7-55-53,38,depth_duration_stimuli/002545_2014-06-24_13-38-53_094959634447_rgbf000080-resize_4/002545_2014-06-24_13-38-53_094959634447_rgbf000080-resize_4-target.png,1000,1.9205,2,4146,1012,feet,jsons/v1_VE1000_randls_72.json,1241664,1362477,26,Woman
38,276191,DepthScenes,duration_manipulation_targetAtFixation,jsons/v1_VE1000_randls_72.json,http://54.235.29.9/FacialAge/BNav_EC2/DepthDuration/v2_depth_duration_MTurk/v2_DepthDuration_HTML.html#274,274,1364,625,1364,768,8-30-2022,7-55-53,39,depth_duration_stimuli/000739_2014-06-08_18-45-58_260595134347_rgbf000068-resize_1/000739_2014-06-08_18-45-58_260595134347_rgbf000068-resize_1-target.png,1000,3.534,3,4443,1000,feet,jsons/v1_VE1000_randls_72.json,1241664,1362477,26,Woman
39,276191,DepthScenes,duration_manipulation_targetAtFixation,jsons/v1_VE1000_randls_72.json,http://54.235.29.9/FacialAge/BNav_EC2/DepthDuration/v2_depth_duration_MTurk/v2_DepthDuration_HTML.html#274,274,1364,625,1364,768,8-30-2022,7-55-53,40,depth_duration_stimuli/000734_2014-06-08_17-39-11_260595134347_rgbf000128-resize_2/000734_2014-06-08_17-39-11_260595134347_rgbf000128-resize_2-target.png,1000,4.098,0,16113,1008,feet,jsons/v1_VE1000_randls_72.json,1241664,1362477,26,Woman
40,276191,DepthScenes,duration_manipulation_targetAtFixation,jsons/v1_VE1000_randls_72.json,http://54.235.29.9/FacialAge/BNav_EC2/DepthDuration/v2_depth_duration_MTurk/v2_DepthDuration_HTML.html#274,274,1364,625,1364,768,8-30-2022,7-55-53,41,depth_duration_stimuli/001167_2014-06-17_15-38-07_260595134347_rgbf000108-resize_0/001167_2014-06-17_15-38-07_260595134347_rgbf000108-resize_0-target.png,1000,1.8505,1,5430,999,feet,jsons/v1_VE1000_randls_72.json,1241664,1362477,26,Woman
41,276191,DepthScenes,duration_manipulation_targetAtFixation,jsons/v1_VE1000_randls_72.json,http://54.235.29.9/FacialAge/BNav_EC2/DepthDuration/v2_depth_duration_MTurk/v2_DepthDuration_HTML.html#274,274,1364,625,1364,768,8-30-2022,7-55-53,42,depth_duration_stimuli/003587_2014-05-23_16-48-02_094959634447_rgbf002384-resize_2/003587_2014-05-23_16-48-02_094959634447_rgbf002384-resize_2-target.png,1000,1.357,1,4012,1008,feet,jsons/v1_VE1000_randls_72.json,1241664,1362477,26,Woman
42,276191,DepthScenes,duration_manipulation_targetAtFixation,jsons/v1_VE1000_randls_72.json,http://54.235.29.9/FacialAge/BNav_EC2/DepthDuration/v2_depth_duration_MTurk/v2_DepthDuration_HTML.html#274,274,1364,625,1364,768,8-30-2022,7-55-53,43,depth_duration_stimuli/002213_2014-06-28_18-37-58_260595134347_rgbf000055-resize_1/002213_2014-06-28_18-37-58_260595134347_rgbf000055-resize_1-target.png,1000,3.62,3,5013,1003,feet,jsons/v1_VE1000_randls_72.json,1241664,1362477,26,Woman
43,276191,DepthScenes,duration_manipulation_targetAtFixation,jsons/v1_VE1000_randls_72.json,http://54.235.29.9/FacialAge/BNav_EC2/DepthDuration/v2_depth_duration_MTurk/v2_DepthDuration_HTML.html#274,274,1364,625,1364,768,8-30-2022,7-55-53,44,depth_duration_stimuli/000691_2014-06-08_13-08-50_260595134347_rgbf000132-resize_3/000691_2014-06-08_13-08-50_260595134347_rgbf000132-resize_3-target.png,1000,4.1530000000000005,2,4124,999,feet,jsons/v1_VE1000_randls_72.json,1241664,1362477,26,Woman
44,276191,DepthScenes,duration_manipulation_targetAtFixation,jsons/v1_VE1000_randls_72.json,http://54.235.29.9/FacialAge/BNav_EC2/DepthDuration/v2_depth_duration_MTurk/v2_DepthDuration_HTML.html#274,274,1364,625,1364,768,8-30-2022,7-55-53,45,depth_duration_stimuli/000787_2014-06-08_22-33-53_260595134347_rgbf000175-resize_1/000787_2014-06-08_22-33-53_260595134347_rgbf000175-resize-original.jpg,1000,4.784,0,7321,986,feet,jsons/v1_VE1000_randls_72.json,1241664,1362477,26,Woman
45,276191,DepthScenes,duration_manipulation_targetAtFixation,jsons/v1_VE1000_randls_72.json,http://54.235.29.9/FacialAge/BNav_EC2/DepthDuration/v2_depth_duration_MTurk/v2_DepthDuration_HTML.html#274,274,1364,625,1364,768,8-30-2022,7-55-53,46,depth_duration_stimuli/000788_2014-06-08_22-34-36_260595134347_rgbf000131-resize_1/000788_2014-06-08_22-34-36_260595134347_rgbf000131-resize_1-target.png,1000,3.359,2,6329,1005,feet,jsons/v1_VE1000_randls_72.json,1241664,1362477,26,Woman
46,276191,DepthScenes,duration_manipulation_targetAtFixation,jsons/v1_VE1000_randls_72.json,http://54.235.29.9/FacialAge/BNav_EC2/DepthDuration/v2_depth_duration_MTurk/v2_DepthDuration_HTML.html#274,274,1364,625,1364,768,8-30-2022,7-55-53,47,depth_duration_stimuli/001235_2014-06-17_16-37-36_260595134347_rgbf000084-resize_4/001235_2014-06-17_16-37-36_260595134347_rgbf000084-resize_4-target.png,1000,3.6605,2,4103,1002,feet,jsons/v1_VE1000_randls_72.json,1241664,1362477,26,Woman
47,276191,DepthScenes,duration_manipulation_targetAtFixation,jsons/v1_VE1000_randls_72.json,http://54.235.29.9/FacialAge/BNav_EC2/DepthDuration/v2_depth_duration_MTurk/v2_DepthDuration_HTML.html#274,274,1364,625,1364,768,8-30-2022,7-55-53,48,depth_duration_stimuli/001056_2014-06-08_18-46-44_260595134347_rgbf000068-resize_0/001056_2014-06-08_18-46-44_260595134347_rgbf000068-resize_0-target.png,1000,2.6625,2,5149,1005,feet,jsons/v1_VE1000_randls_72.json,1241664,1362477,26,Woman
48,276191,DepthScenes,duration_manipulation_targetAtFixation,jsons/v1_VE1000_randls_72.json,http://54.235.29.9/FacialAge/BNav_EC2/DepthDuration/v2_depth_duration_MTurk/v2_DepthDuration_HTML.html#274,274,1364,625,1364,768,8-30-2022,7-55-53,49,depth_duration_stimuli/002199_2014-06-28_18-33-56_260595134347_rgbf000074-resize_0/002199_2014-06-28_18-33-56_260595134347_rgbf000074-resize_0-target.png,1000,1.996,1,4290,1000,feet,jsons/v1_VE1000_randls_72.json,1241664,1362477,26,Woman
49,276191,DepthScenes,duration_manipulation_targetAtFixation,jsons/v1_VE1000_randls_72.json,http://54.235.29.9/FacialAge/BNav_EC2/DepthDuration/v2_depth_duration_MTurk/v2_DepthDuration_HTML.html#274,274,1364,625,1364,768,8-30-2022,7-55-53,50,depth_duration_stimuli/000878_2014-06-08_22-52-45_260595134347_rgbf000045-resize_2/000878_2014-06-08_22-52-45_260595134347_rgbf000045-resize_2-target.png,1000,2.092,2,4784,1001,feet,jsons/v1_VE1000_randls_72.json,1241664,1362477,26,Woman
50,276191,DepthScenes,duration_manipulation_targetAtFixation,jsons/v1_VE1000_randls_72.json,http://54.235.29.9/FacialAge/BNav_EC2/DepthDuration/v2_depth_duration_MTurk/v2_DepthDuration_HTML.html#274,274,1364,625,1364,768,8-30-2022,7-55-53,51,depth_duration_stimuli/002953_2014-06-08_17-32-18_094959634447_rgbf000059-resize_5/002953_2014-06-08_17-32-18_094959634447_rgbf000059-resize_5-target.png,1000,1.551,1,3732,1000,feet,jsons/v1_VE1000_randls_72.json,1241664,1362477,26,Woman
51,276191,DepthScenes,duration_manipulation_targetAtFixation,jsons/v1_VE1000_randls_72.json,http://54.235.29.9/FacialAge/BNav_EC2/DepthDuration/v2_depth_duration_MTurk/v2_DepthDuration_HTML.html#274,274,1364,625,1364,768,8-30-2022,7-55-53,52,depth_duration_stimuli/000493_2014-06-09_21-01-18_260595134347_rgbf000196-resize_3/000493_2014-06-09_21-01-18_260595134347_rgbf000196-resize_3-target.png,1000,3.44,2,4141,999,feet,jsons/v1_VE1000_randls_72.json,1241664,1362477,26,Woman
52,276191,DepthScenes,duration_manipulation_targetAtFixation,jsons/v1_VE1000_randls_72.json,http://54.235.29.9/FacialAge/BNav_EC2/DepthDuration/v2_depth_duration_MTurk/v2_DepthDuration_HTML.html#274,274,1364,625,1364,768,8-30-2022,7-55-53,53,depth_duration_stimuli/000191_2014-05-12_17-07-38_260595134347_rgbf000199-resize_0/000191_2014-05-12_17-07-38_260595134347_rgbf000199-resize_0-target.png,1000,3.7995,3,4015,999,feet,jsons/v1_VE1000_randls_72.json,1241664,1362477,26,Woman
53,276191,DepthScenes,duration_manipulation_targetAtFixation,jsons/v1_VE1000_randls_72.json,http://54.235.29.9/FacialAge/BNav_EC2/DepthDuration/v2_depth_duration_MTurk/v2_DepthDuration_HTML.html#274,274,1364,625,1364,768,8-30-2022,7-55-53,54,depth_duration_stimuli/002549_2014-06-24_13-41-39_094959634447_rgbf000022-resize_3/002549_2014-06-24_13-41-39_094959634447_rgbf000022-resize_3-target.png,1000,1.476,1,4075,989,feet,jsons/v1_VE1000_randls_72.json,1241664,1362477,26,Woman
54,276191,DepthScenes,duration_manipulation_targetAtFixation,jsons/v1_VE1000_randls_72.json,http://54.235.29.9/FacialAge/BNav_EC2/DepthDuration/v2_depth_duration_MTurk/v2_DepthDuration_HTML.html#274,274,1364,625,1364,768,8-30-2022,7-55-53,55,depth_duration_stimuli/002750_2014-06-22_19-08-03_094959634447_rgbf000094-resize_4/002750_2014-06-22_19-08-03_094959634447_rgbf000094-resize_4-target.png,1000,2.354,2,4900,1004,feet,jsons/v1_VE1000_randls_72.json,1241664,1362477,26,Woman
55,276191,DepthScenes,duration_manipulation_targetAtFixation,jsons/v1_VE1000_randls_72.json,http://54.235.29.9/FacialAge/BNav_EC2/DepthDuration/v2_depth_duration_MTurk/v2_DepthDuration_HTML.html#274,274,1364,625,1364,768,8-30-2022,7-55-53,56,depth_duration_stimuli/002964_2014-06-08_17-46-11_094959634447_rgbf000091-resize_4/002964_2014-06-08_17-46-11_094959634447_rgbf000091-resize_4-target.png,1000,1.6909999999999998,1,3709,1004,feet,jsons/v1_VE1000_randls_72.json,1241664,1362477,26,Woman
56,276191,DepthScenes,duration_manipulation_targetAtFixation,jsons/v1_VE1000_randls_72.json,http://54.235.29.9/FacialAge/BNav_EC2/DepthDuration/v2_depth_duration_MTurk/v2_DepthDuration_HTML.html#274,274,1364,625,1364,768,8-30-2022,7-55-53,57,depth_duration_stimuli/002136_2014-06-25_21-18-03_260595134347_rgbf000109-resize_3/002136_2014-06-25_21-18-03_260595134347_rgbf000109-resize_3-target.png,1000,1.9569999999999999,1,3622,1000,feet,jsons/v1_VE1000_randls_72.json,1241664,1362477,26,Woman
57,276191,DepthScenes,duration_manipulation_targetAtFixation,jsons/v1_VE1000_randls_72.json,http://54.235.29.9/FacialAge/BNav_EC2/DepthDuration/v2_depth_duration_MTurk/v2_DepthDuration_HTML.html#274,274,1364,625,1364,768,8-30-2022,7-55-53,58,depth_duration_stimuli/000682_2014-06-08_23-14-58_260595134347_rgbf000041-resize_5/000682_2014-06-08_23-14-58_260595134347_rgbf000041-resize_5-target.png,1000,2.7239999999999998,2,5737,1000,feet,jsons/v1_VE1000_randls_72.json,1241664,1362477,26,Woman
58,276191,DepthScenes,duration_manipulation_targetAtFixation,jsons/v1_VE1000_randls_72.json,http://54.235.29.9/FacialAge/BNav_EC2/DepthDuration/v2_depth_duration_MTurk/v2_DepthDuration_HTML.html#274,274,1364,625,1364,768,8-30-2022,7-55-53,59,depth_duration_stimuli/001650_2014-06-20_12-09-00_260595134347_rgbf000087-resize_3/001650_2014-06-20_12-09-00_260595134347_rgbf000087-resize_3-target.png,1000,1.9505,1,4337,999,feet,jsons/v1_VE1000_randls_72.json,1241664,1362477,26,Woman
59,276191,DepthScenes,duration_manipulation_targetAtFixation,jsons/v1_VE1000_randls_72.json,http://54.235.29.9/FacialAge/BNav_EC2/DepthDuration/v2_depth_duration_MTurk/v2_DepthDuration_HTML.html#274,274,1364,625,1364,768,8-30-2022,7-55-53,60,depth_duration_stimuli/001570_2014-06-20_17-21-09_260595134347_rgbf000135-resize_4/001570_2014-06-20_17-21-09_260595134347_rgbf000135-resize_4-target.png,1000,4.467,2,6047,1015,feet,jsons/v1_VE1000_randls_72.json,1241664,1362477,26,Woman
60,276191,DepthScenes,duration_manipulation_targetAtFixation,jsons/v1_VE1000_randls_72.json,http://54.235.29.9/FacialAge/BNav_EC2/DepthDuration/v2_depth_duration_MTurk/v2_DepthDuration_HTML.html#274,274,1364,625,1364,768,8-30-2022,7-55-53,61,depth_duration_stimuli/001392_2014-06-19_16-07-59_260595134347_rgbf000046-resize_1/001392_2014-06-19_16-07-59_260595134347_rgbf000046-resize_1-target.png,1000,4.135,3,3855,986,feet,jsons/v1_VE1000_randls_72.json,1241664,1362477,26,Woman
61,276191,DepthScenes,duration_manipulation_targetAtFixation,jsons/v1_VE1000_randls_72.json,http://54.235.29.9/FacialAge/BNav_EC2/DepthDuration/v2_depth_duration_MTurk/v2_DepthDuration_HTML.html#274,274,1364,625,1364,768,8-30-2022,7-55-53,62,depth_duration_stimuli/002988_2014-06-15_12-24-20_094959634447_rgbf000150-resize_1/002988_2014-06-15_12-24-20_094959634447_rgbf000150-resize_1-target.png,1000,4.7669999999999995,5,4541,997,feet,jsons/v1_VE1000_randls_72.json,1241664,1362477,26,Woman
62,276191,DepthScenes,duration_manipulation_targetAtFixation,jsons/v1_VE1000_randls_72.json,http://54.235.29.9/FacialAge/BNav_EC2/DepthDuration/v2_depth_duration_MTurk/v2_DepthDuration_HTML.html#274,274,1364,625,1364,768,8-30-2022,7-55-53,63,depth_duration_stimuli/001052_2014-06-08_18-24-54_260595134347_rgbf000130-resize_1/001052_2014-06-08_18-24-54_260595134347_rgbf000130-resize_1-target.png,1000,4.1045,4,4663,998,feet,jsons/v1_VE1000_randls_72.json,1241664,1362477,26,Woman
63,276191,DepthScenes,duration_manipulation_targetAtFixation,jsons/v1_VE1000_randls_72.json,http://54.235.29.9/FacialAge/BNav_EC2/DepthDuration/v2_depth_duration_MTurk/v2_DepthDuration_HTML.html#274,274,1364,625,1364,768,8-30-2022,7-55-53,64,depth_duration_stimuli/002748_2014-06-22_19-07-22_094959634447_rgbf000078-resize_1/002748_2014-06-22_19-07-22_094959634447_rgbf000078-resize_1-target.png,1000,4.6705,6,4797,1013,feet,jsons/v1_VE1000_randls_72.json,1241664,1362477,26,Woman
64,276191,DepthScenes,duration_manipulation_targetAtFixation,jsons/v1_VE1000_randls_72.json,http://54.235.29.9/FacialAge/BNav_EC2/DepthDuration/v2_depth_duration_MTurk/v2_DepthDuration_HTML.html#274,274,1364,625,1364,768,8-30-2022,7-55-53,65,depth_duration_stimuli/002995_2014-06-15_12-31-26_094959634447_rgbf000150-resize_1/002995_2014-06-15_12-31-26_094959634447_rgbf000150-resize_1-target.png,1000,3.8360000000000003,3,5319,996,feet,jsons/v1_VE1000_randls_72.json,1241664,1362477,26,Woman
65,276191,DepthScenes,duration_manipulation_targetAtFixation,jsons/v1_VE1000_randls_72.json,http://54.235.29.9/FacialAge/BNav_EC2/DepthDuration/v2_depth_duration_MTurk/v2_DepthDuration_HTML.html#274,274,1364,625,1364,768,8-30-2022,7-55-53,66,depth_duration_stimuli/001222_2014-06-17_16-24-06_260595134347_rgbf000073-resize_0/001222_2014-06-17_16-24-06_260595134347_rgbf000073-resize-original.jpg,1000,1.4385,0,4463,1001,feet,jsons/v1_VE1000_randls_72.json,1241664,1362477,26,Woman
66,276191,DepthScenes,duration_manipulation_targetAtFixation,jsons/v1_VE1000_randls_72.json,http://54.235.29.9/FacialAge/BNav_EC2/DepthDuration/v2_depth_duration_MTurk/v2_DepthDuration_HTML.html#274,274,1364,625,1364,768,8-30-2022,7-55-53,67,depth_duration_stimuli/002725_2014-06-22_11-47-51_094959634447_rgbf000070-resize_1/002725_2014-06-22_11-47-51_094959634447_rgbf000070-resize_1-target.png,1000,2.195,2,4518,995,feet,jsons/v1_VE1000_randls_72.json,1241664,1362477,26,Woman
67,276191,DepthScenes,duration_manipulation_targetAtFixation,jsons/v1_VE1000_randls_72.json,http://54.235.29.9/FacialAge/BNav_EC2/DepthDuration/v2_depth_duration_MTurk/v2_DepthDuration_HTML.html#274,274,1364,625,1364,768,8-30-2022,7-55-53,68,depth_duration_stimuli/002344_2014-06-28_20-06-29_260595134347_rgbf000030-resize_1/002344_2014-06-28_20-06-29_260595134347_rgbf000030-resize_1-target.png,1000,1.5795,1,4179,999,feet,jsons/v1_VE1000_randls_72.json,1241664,1362477,26,Woman
68,276191,DepthScenes,duration_manipulation_targetAtFixation,jsons/v1_VE1000_randls_72.json,http://54.235.29.9/FacialAge/BNav_EC2/DepthDuration/v2_depth_duration_MTurk/v2_DepthDuration_HTML.html#274,274,1364,625,1364,768,8-30-2022,7-55-53,69,depth_duration_stimuli/003621_2014-05-23_18-06-08_094959634447_rgbf000101-resize_1/003621_2014-05-23_18-06-08_094959634447_rgbf000101-resize_1-target.png,1000,3.9835,4,4511,1000,feet,jsons/v1_VE1000_randls_72.json,1241664,1362477,26,Woman
69,276191,DepthScenes,duration_manipulation_targetAtFixation,jsons/v1_VE1000_randls_72.json,http://54.235.29.9/FacialAge/BNav_EC2/DepthDuration/v2_depth_duration_MTurk/v2_DepthDuration_HTML.html#274,274,1364,625,1364,768,8-30-2022,7-55-53,70,depth_duration_stimuli/001584_2014-06-20_11-07-43_260595134347_rgbf000002-resize_1/001584_2014-06-20_11-07-43_260595134347_rgbf000002-resize_1-target.png,1000,3.53,2,4162,999,feet,jsons/v1_VE1000_randls_72.json,1241664,1362477,26,Woman
70,276191,DepthScenes,duration_manipulation_targetAtFixation,jsons/v1_VE1000_randls_72.json,http://54.235.29.9/FacialAge/BNav_EC2/DepthDuration/v2_depth_duration_MTurk/v2_DepthDuration_HTML.html#274,274,1364,625,1364,768,8-30-2022,7-55-53,71,depth_duration_stimuli/001059_2014-06-08_21-53-27_260595134347_rgbf000061-resize_4/001059_2014-06-08_21-53-27_260595134347_rgbf000061-resize_4-target.png,1000,2.4185,2,4871,1000,feet,jsons/v1_VE1000_randls_72.json,1241664,1362477,26,Woman
71,276191,DepthScenes,duration_manipulation_targetAtFixation,jsons/v1_VE1000_randls_72.json,http://54.235.29.9/FacialAge/BNav_EC2/DepthDuration/v2_depth_duration_MTurk/v2_DepthDuration_HTML.html#274,274,1364,625,1364,768,8-30-2022,7-55-53,72,depth_duration_stimuli/001032_2014-06-08_13-23-17_260595134347_rgbf000021-resize_3/001032_2014-06-08_13-23-17_260595134347_rgbf000021-resize_3-target.png,1000,3.2725,1,3597,1000,feet,jsons/v1_VE1000_randls_72.json,1241664,1362477,26,Woman
72,276191,DepthScenes,duration_manipulation_targetAtFixation,jsons/v1_VE1000_randls_72.json,http://54.235.29.9/FacialAge/BNav_EC2/DepthDuration/v2_depth_duration_MTurk/v2_DepthDuration_HTML.html#274,274,1364,625,1364,768,8-30-2022,7-55-53,73,depth_duration_stimuli/000009_2014-05-26_14-32-05_260595134347_rgbf000034-resize_3/000009_2014-05-26_14-32-05_260595134347_rgbf000034-resize_3-target.png,1000,3.8715,4,5013,987,feet,jsons/v1_VE1000_randls_72.json,1241664,1362477,26,Woman
73,276191,DepthScenes,duration_manipulation_targetAtFixation,jsons/v1_VE1000_randls_72.json,http://54.235.29.9/FacialAge/BNav_EC2/DepthDuration/v2_depth_duration_MTurk/v2_DepthDuration_HTML.html#274,274,1364,625,1364,768,8-30-2022,7-55-53,74,depth_duration_stimuli/001828_2014-06-26_21-40-03_260595134347_rgbf000024-resize_0/001828_2014-06-26_21-40-03_260595134347_rgbf000024-resize_0-target.png,1000,4.8260000000000005,2,4083,1000,feet,jsons/v1_VE1000_randls_72.json,1241664,1362477,26,Woman
74,276191,DepthScenes,duration_manipulation_targetAtFixation,jsons/v1_VE1000_randls_72.json,http://54.235.29.9/FacialAge/BNav_EC2/DepthDuration/v2_depth_duration_MTurk/v2_DepthDuration_HTML.html#274,274,1364,625,1364,768,8-30-2022,7-55-53,75,depth_duration_stimuli/000642_2014-06-08_16-59-25_260595134347_rgbf000098-resize_2/000642_2014-06-08_16-59-25_260595134347_rgbf000098-resize_2-target.png,1000,2.8815,3,4861,998,feet,jsons/v1_VE1000_randls_72.json,1241664,1362477,26,Woman
75,276191,DepthScenes,duration_manipulation_targetAtFixation,jsons/v1_VE1000_randls_72.json,http://54.235.29.9/FacialAge/BNav_EC2/DepthDuration/v2_depth_duration_MTurk/v2_DepthDuration_HTML.html#274,274,1364,625,1364,768,8-30-2022,7-55-53,76,depth_duration_stimuli/002425_2014-06-28_20-27-29_260595134347_rgbf000031-resize_8/002425_2014-06-28_20-27-29_260595134347_rgbf000031-resize_8-target.png,1000,3.8960000000000004,3,4481,990,feet,jsons/v1_VE1000_randls_72.json,1241664,1362477,26,Woman
76,276191,DepthScenes,duration_manipulation_targetAtFixation,jsons/v1_VE1000_randls_72.json,http://54.235.29.9/FacialAge/BNav_EC2/DepthDuration/v2_depth_duration_MTurk/v2_DepthDuration_HTML.html#274,274,1364,625,1364,768,8-30-2022,7-55-53,77,depth_duration_stimuli/002630_2014-06-24_14-47-50_094959634447_rgbf000055-resize_1/002630_2014-06-24_14-47-50_094959634447_rgbf000055-resize_1-target.png,1000,3.0095,4,7050,998,feet,jsons/v1_VE1000_randls_72.json,1241664,1362477,26,Woman
77,276191,DepthScenes,duration_manipulation_targetAtFixation,jsons/v1_VE1000_randls_72.json,http://54.235.29.9/FacialAge/BNav_EC2/DepthDuration/v2_depth_duration_MTurk/v2_DepthDuration_HTML.html#274,274,1364,625,1364,768,8-30-2022,7-55-53,78,depth_duration_stimuli/002758_2014-06-22_19-11-20_094959634447_rgbf000128-resize_1/002758_2014-06-22_19-11-20_094959634447_rgbf000128-resize_1-target.png,1000,2.555,3,5192,1000,feet,jsons/v1_VE1000_randls_72.json,1241664,1362477,26,Woman
78,276191,DepthScenes,duration_manipulation_targetAtFixation,jsons/v1_VE1000_randls_72.json,http://54.235.29.9/FacialAge/BNav_EC2/DepthDuration/v2_depth_duration_MTurk/v2_DepthDuration_HTML.html#274,274,1364,625,1364,768,8-30-2022,7-55-53,79,depth_duration_stimuli/002118_2014-06-25_20-32-08_260595134347_rgbf000078-resize_1/002118_2014-06-25_20-32-08_260595134347_rgbf000078-resize_1-target.png,1000,2.6460000000000004,3,5775,999,feet,jsons/v1_VE1000_randls_72.json,1241664,1362477,26,Woman
79,276191,DepthScenes,duration_manipulation_targetAtFixation,jsons/v1_VE1000_randls_72.json,http://54.235.29.9/FacialAge/BNav_EC2/DepthDuration/v2_depth_duration_MTurk/v2_DepthDuration_HTML.html#274,274,1364,625,1364,768,8-30-2022,7-55-53,80,depth_duration_stimuli/001516_2014-06-20_16-25-09_260595134347_rgbf000076-resize_2/001516_2014-06-20_16-25-09_260595134347_rgbf000076-resize_2-target.png,1000,1.7445,3,4062,996,feet,jsons/v1_VE1000_randls_72.json,1241664,1362477,26,Woman
80,276191,DepthScenes,duration_manipulation_targetAtFixation,jsons/v1_VE1000_randls_72.json,http://54.235.29.9/FacialAge/BNav_EC2/DepthDuration/v2_depth_duration_MTurk/v2_DepthDuration_HTML.html#274,274,1364,625,1364,768,8-30-2022,7-55-53,81,depth_duration_stimuli/001555_2014-06-20_17-12-10_260595134347_rgbf000065-resize_4/001555_2014-06-20_17-12-10_260595134347_rgbf000065-resize_4-target.png,1000,1.633,2,4263,1013,feet,jsons/v1_VE1000_randls_72.json,1241664,1362477,26,Woman
81,276191,DepthScenes,duration_manipulation_targetAtFixation,jsons/v1_VE1000_randls_72.json,http://54.235.29.9/FacialAge/BNav_EC2/DepthDuration/v2_depth_duration_MTurk/v2_DepthDuration_HTML.html#274,274,1364,625,1364,768,8-30-2022,7-55-53,82,depth_duration_stimuli/000103_2014-05-14_22-01-17_260595134347_rgbf000152-resize_5/000103_2014-05-14_22-01-17_260595134347_rgbf000152-resize_5-target.png,1000,1.993,2,3715,1001,feet,jsons/v1_VE1000_randls_72.json,1241664,1362477,26,Woman
82,276191,DepthScenes,duration_manipulation_targetAtFixation,jsons/v1_VE1000_randls_72.json,http://54.235.29.9/FacialAge/BNav_EC2/DepthDuration/v2_depth_duration_MTurk/v2_DepthDuration_HTML.html#274,274,1364,625,1364,768,8-30-2022,7-55-53,83,depth_duration_stimuli/001029_2014-06-08_13-17-57_260595134347_rgbf000065-resize_1/001029_2014-06-08_13-17-57_260595134347_rgbf000065-resize_1-target.png,1000,3.0835,2,3601,999,feet,jsons/v1_VE1000_randls_72.json,1241664,1362477,26,Woman
83,276191,DepthScenes,duration_manipulation_targetAtFixation,jsons/v1_VE1000_randls_72.json,http://54.235.29.9/FacialAge/BNav_EC2/DepthDuration/v2_depth_duration_MTurk/v2_DepthDuration_HTML.html#274,274,1364,625,1364,768,8-30-2022,7-55-53,84,depth_duration_stimuli/000677_2014-06-08_23-10-32_260595134347_rgbf000158-resize_6/000677_2014-06-08_23-10-32_260595134347_rgbf000158-resize_6-target.png,1000,3.556,2,3381,1000,feet,jsons/v1_VE1000_randls_72.json,1241664,1362477,26,Woman
84,276191,DepthScenes,duration_manipulation_targetAtFixation,jsons/v1_VE1000_randls_72.json,http://54.235.29.9/FacialAge/BNav_EC2/DepthDuration/v2_depth_duration_MTurk/v2_DepthDuration_HTML.html#274,274,1364,625,1364,768,8-30-2022,7-55-53,85,depth_duration_stimuli/003070_2014-06-15_14-58-27_094959634447_rgbf000150-resize_3/003070_2014-06-15_14-58-27_094959634447_rgbf000150-resize_3-target.png,1000,2.9415,2,3860,999,feet,jsons/v1_VE1000_randls_72.json,1241664,1362477,26,Woman
85,276191,DepthScenes,duration_manipulation_targetAtFixation,jsons/v1_VE1000_randls_72.json,http://54.235.29.9/FacialAge/BNav_EC2/DepthDuration/v2_depth_duration_MTurk/v2_DepthDuration_HTML.html#274,274,1364,625,1364,768,8-30-2022,7-55-53,86,depth_duration_stimuli/000943_2014-06-09_19-31-07_260595134347_rgbf000128-resize_1/000943_2014-06-09_19-31-07_260595134347_rgbf000128-resize_1-target.png,1000,1.9765,1,3812,1001,feet,jsons/v1_VE1000_randls_72.json,1241664,1362477,26,Woman
86,276191,DepthScenes,duration_manipulation_targetAtFixation,jsons/v1_VE1000_randls_72.json,http://54.235.29.9/FacialAge/BNav_EC2/DepthDuration/v2_depth_duration_MTurk/v2_DepthDuration_HTML.html#274,274,1364,625,1364,768,8-30-2022,7-55-53,87,depth_duration_stimuli/000506_2014-06-08_23-21-00_260595134347_rgbf000070-resize_7/000506_2014-06-08_23-21-00_260595134347_rgbf000070-resize_7-target.png,1000,4.0585,3,4268,1014,feet,jsons/v1_VE1000_randls_72.json,1241664,1362477,26,Woman
87,276191,DepthScenes,duration_manipulation_targetAtFixation,jsons/v1_VE1000_randls_72.json,http://54.235.29.9/FacialAge/BNav_EC2/DepthDuration/v2_depth_duration_MTurk/v2_DepthDuration_HTML.html#274,274,1364,625,1364,768,8-30-2022,7-55-53,88,depth_duration_stimuli/003079_2014-06-15_15-18-20_094959634447_rgbf000152-resize_8/003079_2014-06-15_15-18-20_094959634447_rgbf000152-resize_8-target.png,1000,2.8775,5,4007,1000,feet,jsons/v1_VE1000_randls_72.json,1241664,1362477,26,Woman
88,276191,DepthScenes,duration_manipulation_targetAtFixation,jsons/v1_VE1000_randls_72.json,http://54.235.29.9/FacialAge/BNav_EC2/DepthDuration/v2_depth_duration_MTurk/v2_DepthDuration_HTML.html#274,274,1364,625,1364,768,8-30-2022,7-55-53,89,depth_duration_stimuli/001158_2014-06-17_15-32-16_260595134347_rgbf000138-resize_2/001158_2014-06-17_15-32-16_260595134347_rgbf000138-resize_2-target.png,1000,4.5315,5,5362,999,feet,jsons/v1_VE1000_randls_72.json,1241664,1362477,26,Woman
89,276191,DepthScenes,duration_manipulation_targetAtFixation,jsons/v1_VE1000_randls_72.json,http://54.235.29.9/FacialAge/BNav_EC2/DepthDuration/v2_depth_duration_MTurk/v2_DepthDuration_HTML.html#274,274,1364,625,1364,768,8-30-2022,7-55-53,90,depth_duration_stimuli/000556_2014-06-09_22-42-56_260595134347_rgbf000214-resize_1/000556_2014-06-09_22-42-56_260595134347_rgbf000214-resize_1-target.png,1000,4.8415,4,5037,1011,feet,jsons/v1_VE1000_randls_72.json,1241664,1362477,26,Woman
90,276191,DepthScenes,duration_manipulation_targetAtFixation,jsons/v1_VE1000_randls_72.json,http://54.235.29.9/FacialAge/BNav_EC2/DepthDuration/v2_depth_duration_MTurk/v2_DepthDuration_HTML.html#274,274,1364,625,1364,768,8-30-2022,7-55-53,91,depth_duration_stimuli/002153_2014-06-25_21-27-18_260595134347_rgbf000038-resize_5/002153_2014-06-25_21-27-18_260595134347_rgbf000038-resize_5-target.png,1000,2.505,2,4296,1000,feet,jsons/v1_VE1000_randls_72.json,1241664,1362477,26,Woman
91,276191,DepthScenes,duration_manipulation_targetAtFixation,jsons/v1_VE1000_randls_72.json,http://54.235.29.9/FacialAge/BNav_EC2/DepthDuration/v2_depth_duration_MTurk/v2_DepthDuration_HTML.html#274,274,1364,625,1364,768,8-30-2022,7-55-53,92,depth_duration_stimuli/002660_2014-06-13_15-44-18_094959634447_rgbf001878-resize_2/002660_2014-06-13_15-44-18_094959634447_rgbf001878-resize_2-target.png,1000,3.576,4,3943,1000,feet,jsons/v1_VE1000_randls_72.json,1241664,1362477,26,Woman
92,276191,DepthScenes,duration_manipulation_targetAtFixation,jsons/v1_VE1000_randls_72.json,http://54.235.29.9/FacialAge/BNav_EC2/DepthDuration/v2_depth_duration_MTurk/v2_DepthDuration_HTML.html#274,274,1364,625,1364,768,8-30-2022,7-55-53,93,depth_duration_stimuli/002905_2014-06-03_18-04-43_094959634447_rgbf000151-resize_2/002905_2014-06-03_18-04-43_094959634447_rgbf000151-resize_2-target.png,1000,2.0295,3,4870,1000,feet,jsons/v1_VE1000_randls_72.json,1241664,1362477,26,Woman
93,276191,DepthScenes,duration_manipulation_targetAtFixation,jsons/v1_VE1000_randls_72.json,http://54.235.29.9/FacialAge/BNav_EC2/DepthDuration/v2_depth_duration_MTurk/v2_DepthDuration_HTML.html#274,274,1364,625,1364,768,8-30-2022,7-55-53,94,depth_duration_stimuli/003423_2014-05-21_10-23-26_094959634447_rgbf002665-resize_2/003423_2014-05-21_10-23-26_094959634447_rgbf002665-resize_2-target.png,1000,3.2575,4,3829,1003,feet,jsons/v1_VE1000_randls_72.json,1241664,1362477,26,Woman
94,276191,DepthScenes,duration_manipulation_targetAtFixation,jsons/v1_VE1000_randls_72.json,http://54.235.29.9/FacialAge/BNav_EC2/DepthDuration/v2_depth_duration_MTurk/v2_DepthDuration_HTML.html#274,274,1364,625,1364,768,8-30-2022,7-55-53,95,depth_duration_stimuli/000736_2014-06-08_18-24-15_260595134347_rgbf000206-resize_3/000736_2014-06-08_18-24-15_260595134347_rgbf000206-resize_3-target.png,1000,3.515,3,4482,1000,feet,jsons/v1_VE1000_randls_72.json,1241664,1362477,26,Woman
95,276191,DepthScenes,duration_manipulation_targetAtFixation,jsons/v1_VE1000_randls_72.json,http://54.235.29.9/FacialAge/BNav_EC2/DepthDuration/v2_depth_duration_MTurk/v2_DepthDuration_HTML.html#274,274,1364,625,1364,768,8-30-2022,7-55-53,96,depth_duration_stimuli/000137_2014-05-20_17-04-49_260595134347_rgbf000120-resize_1/000137_2014-05-20_17-04-49_260595134347_rgbf000120-resize_1-target.png,1000,3.786,4,3762,999,feet,jsons/v1_VE1000_randls_72.json,1241664,1362477,26,Woman
96,276191,DepthScenes,duration_manipulation_targetAtFixation,jsons/v1_VE1000_randls_72.json,http://54.235.29.9/FacialAge/BNav_EC2/DepthDuration/v2_depth_duration_MTurk/v2_DepthDuration_HTML.html#274,274,1364,625,1364,768,8-30-2022,7-55-53,97,depth_duration_stimuli/002043_2014-06-24_20-29-38_260595134347_rgbf000039-resize_4/002043_2014-06-24_20-29-38_260595134347_rgbf000039-resize_4-target.png,1000,2.8435,5,6948,1001,feet,jsons/v1_VE1000_randls_72.json,1241664,1362477,26,Woman
97,276191,DepthScenes,duration_manipulation_targetAtFixation,jsons/v1_VE1000_randls_72.json,http://54.235.29.9/FacialAge/BNav_EC2/DepthDuration/v2_depth_duration_MTurk/v2_DepthDuration_HTML.html#274,274,1364,625,1364,768,8-30-2022,7-55-53,98,depth_duration_stimuli/003048_2014-06-15_13-49-43_094959634447_rgbf000150-resize_1/003048_2014-06-15_13-49-43_094959634447_rgbf000150-resize_1-target.png,1000,4.0035,5,4244,998,feet,jsons/v1_VE1000_randls_72.json,1241664,1362477,26,Woman
98,276191,DepthScenes,duration_manipulation_targetAtFixation,jsons/v1_VE1000_randls_72.json,http://54.235.29.9/FacialAge/BNav_EC2/DepthDuration/v2_depth_duration_MTurk/v2_DepthDuration_HTML.html#274,274,1364,625,1364,768,8-30-2022,7-55-53,99,depth_duration_stimuli/001540_2014-06-20_17-01-05_260595134347_rgbf000086-resize_2/001540_2014-06-20_17-01-05_260595134347_rgbf000086-resize-original.jpg,1000,1.459,0,4187,999,feet,jsons/v1_VE1000_randls_72.json,1241664,1362477,26,Woman
99,276191,DepthScenes,duration_manipulation_targetAtFixation,jsons/v1_VE1000_randls_72.json,http://54.235.29.9/FacialAge/BNav_EC2/DepthDuration/v2_depth_duration_MTurk/v2_DepthDuration_HTML.html#274,274,1364,625,1364,768,8-30-2022,7-55-53,100,depth_duration_stimuli/002600_2014-06-24_14-27-04_094959634447_rgbf000074-resize_2/002600_2014-06-24_14-27-04_094959634447_rgbf000074-resize_2-target.png,1000,2.7575,2,4237,999,feet,jsons/v1_VE1000_randls_72.json,1241664,1362477,26,Woman
100,276191,DepthScenes,duration_manipulation_targetAtFixation,jsons/v1_VE1000_randls_72.json,http://54.235.29.9/FacialAge/BNav_EC2/DepthDuration/v2_depth_duration_MTurk/v2_DepthDuration_HTML.html#274,274,1364,625,1364,768,8-30-2022,7-55-53,101,depth_duration_stimuli/003228_2014-05-14_13-42-35_094959634447_rgbf000101-resize_1/003228_2014-05-14_13-42-35_094959634447_rgbf000101-resize_1-target.png,1000,1.9680000000000002,1,3677,1000,feet,jsons/v1_VE1000_randls_72.json,1241664,1362477,26,Woman
101,276191,DepthScenes,duration_manipulation_targetAtFixation,jsons/v1_VE1000_randls_72.json,http://54.235.29.9/FacialAge/BNav_EC2/DepthDuration/v2_depth_duration_MTurk/v2_DepthDuration_HTML.html#274,274,1364,625,1364,768,8-30-2022,7-55-53,102,depth_duration_stimuli/002445_2014-06-28_20-32-16_260595134347_rgbf000029-resize_4/002445_2014-06-28_20-32-16_260595134347_rgbf000029-resize_4-target.png,1000,2.5315,1,3689,998,feet,jsons/v1_VE1000_randls_72.json,1241664,1362477,26,Woman
102,276191,DepthScenes,duration_manipulation_targetAtFixation,jsons/v1_VE1000_randls_72.json,http://54.235.29.9/FacialAge/BNav_EC2/DepthDuration/v2_depth_duration_MTurk/v2_DepthDuration_HTML.html#274,274,1364,625,1364,768,8-30-2022,7-55-53,103,depth_duration_stimuli/000780_2014-06-08_22-28-29_260595134347_rgbf000126-resize_1/000780_2014-06-08_22-28-29_260595134347_rgbf000126-resize_1-target.png,1000,3.3825,3,3890,1001,feet,jsons/v1_VE1000_randls_72.json,1241664,1362477,26,Woman
103,276191,DepthScenes,duration_manipulation_targetAtFixation,jsons/v1_VE1000_randls_72.json,http://54.235.29.9/FacialAge/BNav_EC2/DepthDuration/v2_depth_duration_MTurk/v2_DepthDuration_HTML.html#274,274,1364,625,1364,768,8-30-2022,7-55-53,104,depth_duration_stimuli/002039_2014-06-24_20-22-38_260595134347_rgbf000084-resize_1/002039_2014-06-24_20-22-38_260595134347_rgbf000084-resize_1-target.png,1000,4.408,4,3834,1014,feet,jsons/v1_VE1000_randls_72.json,1241664,1362477,26,Woman
104,276191,DepthScenes,duration_manipulation_targetAtFixation,jsons/v1_VE1000_randls_72.json,http://54.235.29.9/FacialAge/BNav_EC2/DepthDuration/v2_depth_duration_MTurk/v2_DepthDuration_HTML.html#274,274,1364,625,1364,768,8-30-2022,7-55-53,105,depth_duration_stimuli/002103_2014-06-25_20-00-40_260595134347_rgbf000049-resize_0/002103_2014-06-25_20-00-40_260595134347_rgbf000049-resize_0-target.png,1000,4.105,3,4213,1001,feet,jsons/v1_VE1000_randls_72.json,1241664,1362477,26,Woman
105,276191,DepthScenes,duration_manipulation_targetAtFixation,jsons/v1_VE1000_randls_72.json,http://54.235.29.9/FacialAge/BNav_EC2/DepthDuration/v2_depth_duration_MTurk/v2_DepthDuration_HTML.html#274,274,1364,625,1364,768,8-30-2022,7-55-53,106,depth_duration_stimuli/002788_2014-06-22_19-36-03_094959634447_rgbf000088-resize_2/002788_2014-06-22_19-36-03_094959634447_rgbf000088-resize_2-target.png,1000,1.6465,2,3748,1001,feet,jsons/v1_VE1000_randls_72.json,1241664,1362477,26,Woman
106,276191,DepthScenes,duration_manipulation_targetAtFixation,jsons/v1_VE1000_randls_72.json,http://54.235.29.9/FacialAge/BNav_EC2/DepthDuration/v2_depth_duration_MTurk/v2_DepthDuration_HTML.html#274,274,1364,625,1364,768,8-30-2022,7-55-53,107,depth_duration_stimuli/000749_2014-06-08_21-55-06_260595134347_rgbf000070-resize_2/000749_2014-06-08_21-55-06_260595134347_rgbf000070-resize_2-target.png,1000,2.331,1,3732,1000,feet,jsons/v1_VE1000_randls_72.json,1241664,1362477,26,Woman
107,276191,DepthScenes,duration_manipulation_targetAtFixation,jsons/v1_VE1000_randls_72.json,http://54.235.29.9/FacialAge/BNav_EC2/DepthDuration/v2_depth_duration_MTurk/v2_DepthDuration_HTML.html#274,274,1364,625,1364,768,8-30-2022,7-55-53,108,depth_duration_stimuli/000692_2014-06-08_13-09-42_260595134347_rgbf000199-resize_2/000692_2014-06-08_13-09-42_260595134347_rgbf000199-resize_2-target.png,1000,3.661,4,3902,1001,feet,jsons/v1_VE1000_randls_72.json,1241664,1362477,26,Woman
108,276191,DepthScenes,duration_manipulation_targetAtFixation,jsons/v1_VE1000_randls_72.json,http://54.235.29.9/FacialAge/BNav_EC2/DepthDuration/v2_depth_duration_MTurk/v2_DepthDuration_HTML.html#274,274,1364,625,1364,768,8-30-2022,7-55-53,109,depth_duration_stimuli/001094_2014-06-15_17-36-00_260595134347_rgbf000205-resize_0/001094_2014-06-15_17-36-00_260595134347_rgbf000205-resize_0-target.png,1000,4.2175,3,3567,1000,feet,jsons/v1_VE1000_randls_72.json,1241664,1362477,26,Woman
109,276191,DepthScenes,duration_manipulation_targetAtFixation,jsons/v1_VE1000_randls_72.json,http://54.235.29.9/FacialAge/BNav_EC2/DepthDuration/v2_depth_duration_MTurk/v2_DepthDuration_HTML.html#274,274,1364,625,1364,768,8-30-2022,7-55-53,110,depth_duration_stimuli/002509_2014-06-24_13-19-22_094959634447_rgbf000077-resize_0/002509_2014-06-24_13-19-22_094959634447_rgbf000077-resize_0-target.png,1000,1.3065,1,3489,991,feet,jsons/v1_VE1000_randls_72.json,1241664,1362477,26,Woman
110,276191,DepthScenes,duration_manipulation_targetAtFixation,jsons/v1_VE1000_randls_72.json,http://54.235.29.9/FacialAge/BNav_EC2/DepthDuration/v2_depth_duration_MTurk/v2_DepthDuration_HTML.html#274,274,1364,625,1364,768,8-30-2022,7-55-53,111,depth_duration_stimuli/003338_2014-05-20_11-01-23_094959634447_rgbf000051-resize_6/003338_2014-05-20_11-01-23_094959634447_rgbf000051-resize_6-target.png,1000,1.693,1,3018,1000,feet,jsons/v1_VE1000_randls_72.json,1241664,1362477,26,Woman
111,276191,DepthScenes,duration_manipulation_targetAtFixation,jsons/v1_VE1000_randls_72.json,http://54.235.29.9/FacialAge/BNav_EC2/DepthDuration/v2_depth_duration_MTurk/v2_DepthDuration_HTML.html#274,274,1364,625,1364,768,8-30-2022,7-55-53,112,depth_duration_stimuli/000906_2014-06-08_13-35-43_260595134347_rgbf000155-resize_1/000906_2014-06-08_13-35-43_260595134347_rgbf000155-resize_1-target.png,1000,2.8489999999999998,4,3772,999,feet,jsons/v1_VE1000_randls_72.json,1241664,1362477,26,Woman
112,276191,DepthScenes,duration_manipulation_targetAtFixation,jsons/v1_VE1000_randls_72.json,http://54.235.29.9/FacialAge/BNav_EC2/DepthDuration/v2_depth_duration_MTurk/v2_DepthDuration_HTML.html#274,274,1364,625,1364,768,8-30-2022,7-55-53,113,depth_duration_stimuli/002805_2014-06-22_19-54-03_094959634447_rgbf000079-resize_1/002805_2014-06-22_19-54-03_094959634447_rgbf000079-resize_1-target.png,1000,3.1439999999999997,4,3875,999,feet,jsons/v1_VE1000_randls_72.json,1241664,1362477,26,Woman
113,276191,DepthScenes,duration_manipulation_targetAtFixation,jsons/v1_VE1000_randls_72.json,http://54.235.29.9/FacialAge/BNav_EC2/DepthDuration/v2_depth_duration_MTurk/v2_DepthDuration_HTML.html#274,274,1364,625,1364,768,8-30-2022,7-55-53,114,depth_duration_stimuli/001244_2014-06-17_16-47-45_260595134347_rgbf000030-resize_4/001244_2014-06-17_16-47-45_260595134347_rgbf000030-resize_4-target.png,1000,2.0425,2,3795,987,feet,jsons/v1_VE1000_randls_72.json,1241664,1362477,26,Woman
114,276191,DepthScenes,duration_manipulation_targetAtFixation,jsons/v1_VE1000_randls_72.json,http://54.235.29.9/FacialAge/BNav_EC2/DepthDuration/v2_depth_duration_MTurk/v2_DepthDuration_HTML.html#274,274,1364,625,1364,768,8-30-2022,7-55-53,115,depth_duration_stimuli/003495_2014-05-21_16-01-51_094959634447_rgbf000100-resize_3/003495_2014-05-21_16-01-51_094959634447_rgbf000100-resize_3-target.png,1000,1.6255,1,3562,1000,feet,jsons/v1_VE1000_randls_72.json,1241664,1362477,26,Woman
115,276191,DepthScenes,duration_manipulation_targetAtFixation,jsons/v1_VE1000_randls_72.json,http://54.235.29.9/FacialAge/BNav_EC2/DepthDuration/v2_depth_duration_MTurk/v2_DepthDuration_HTML.html#274,274,1364,625,1364,768,8-30-2022,7-55-53,116,depth_duration_stimuli/001170_2014-06-17_15-43-44_260595134347_rgbf000096-resize_6/001170_2014-06-17_15-43-44_260595134347_rgbf000096-resize-original.jpg,1000,1.1909999999999998,0,4440,1000,feet,jsons/v1_VE1000_randls_72.json,1241664,1362477,26,Woman
116,276191,DepthScenes,duration_manipulation_targetAtFixation,jsons/v1_VE1000_randls_72.json,http://54.235.29.9/FacialAge/BNav_EC2/DepthDuration/v2_depth_duration_MTurk/v2_DepthDuration_HTML.html#274,274,1364,625,1364,768,8-30-2022,7-55-53,117,depth_duration_stimuli/003534_2014-05-22_15-06-10_094959634447_rgbf000102-resize_4/003534_2014-05-22_15-06-10_094959634447_rgbf000102-resize_4-target.png,1000,1.426,1,4535,989,feet,jsons/v1_VE1000_randls_72.json,1241664,1362477,26,Woman
117,276191,DepthScenes,duration_manipulation_targetAtFixation,jsons/v1_VE1000_randls_72.json,http://54.235.29.9/FacialAge/BNav_EC2/DepthDuration/v2_depth_duration_MTurk/v2_DepthDuration_HTML.html#274,274,1364,625,1364,768,8-30-2022,7-55-53,118,depth_duration_stimuli/002637_2014-06-24_14-51-13_094959634447_rgbf000066-resize_4/002637_2014-06-24_14-51-13_094959634447_rgbf000066-resize_4-target.png,1000,1.9955,1,3523,1000,feet,jsons/v1_VE1000_randls_72.json,1241664,1362477,26,Woman
118,276191,DepthScenes,duration_manipulation_targetAtFixation,jsons/v1_VE1000_randls_72.json,http://54.235.29.9/FacialAge/BNav_EC2/DepthDuration/v2_depth_duration_MTurk/v2_DepthDuration_HTML.html#274,274,1364,625,1364,768,8-30-2022,7-55-53,119,depth_duration_stimuli/002279_2014-06-28_18-55-32_260595134347_rgbf000040-resize_5/002279_2014-06-28_18-55-32_260595134347_rgbf000040-resize_5-target.png,1000,1.5043333333333,1,3749,999,feet,jsons/v1_VE1000_randls_72.json,1241664,1362477,26,Woman
119,276191,DepthScenes,duration_manipulation_targetAtFixation,jsons/v1_VE1000_randls_72.json,http://54.235.29.9/FacialAge/BNav_EC2/DepthDuration/v2_depth_duration_MTurk/v2_DepthDuration_HTML.html#274,274,1364,625,1364,768,8-30-2022,7-55-53,120,depth_duration_stimuli/000635_2014-06-08_16-38-42_260595134347_rgbf000106-resize_1/000635_2014-06-08_16-38-42_260595134347_rgbf000106-resize_1-target.png,1000,2.074,2,4763,1000,feet,jsons/v1_VE1000_randls_72.json,1241664,1362477,26,Woman
120,276191,DepthScenes,duration_manipulation_targetAtFixation,jsons/v1_VE1000_randls_72.json,http://54.235.29.9/FacialAge/BNav_EC2/DepthDuration/v2_depth_duration_MTurk/v2_DepthDuration_HTML.html#274,274,1364,625,1364,768,8-30-2022,7-55-53,121,depth_duration_stimuli/002272_2014-06-28_18-53-56_260595134347_rgbf000067-resize_2/002272_2014-06-28_18-53-56_260595134347_rgbf000067-resize_2-target.png,1000,1.138,1,10332,999,feet,jsons/v1_VE1000_randls_72.json,1241664,1362477,26,Woman
121,276191,DepthScenes,duration_manipulation_targetAtFixation,jsons/v1_VE1000_randls_72.json,http://54.235.29.9/FacialAge/BNav_EC2/DepthDuration/v2_depth_duration_MTurk/v2_DepthDuration_HTML.html#274,274,1364,625,1364,768,8-30-2022,7-55-53,122,depth_duration_stimuli/001571_2014-06-20_17-21-32_260595134347_rgbf000089-resize_1/001571_2014-06-20_17-21-32_260595134347_rgbf000089-resize_1-target.png,1000,1.86,2,4119,1001,feet,jsons/v1_VE1000_randls_72.json,1241664,1362477,26,Woman
122,276191,DepthScenes,duration_manipulation_targetAtFixation,jsons/v1_VE1000_randls_72.json,http://54.235.29.9/FacialAge/BNav_EC2/DepthDuration/v2_depth_duration_MTurk/v2_DepthDuration_HTML.html#274,274,1364,625,1364,768,8-30-2022,7-55-53,123,depth_duration_stimuli/001011_2014-06-08_23-18-54_260595134347_rgbf000044-resize_4/001011_2014-06-08_23-18-54_260595134347_rgbf000044-resize_4-target.png,1000,2.4730000000000003,4,4389,1000,feet,jsons/v1_VE1000_randls_72.json,1241664,1362477,26,Woman
123,276191,DepthScenes,duration_manipulation_targetAtFixation,jsons/v1_VE1000_randls_72.json,http://54.235.29.9/FacialAge/BNav_EC2/DepthDuration/v2_depth_duration_MTurk/v2_DepthDuration_HTML.html#274,274,1364,625,1364,768,8-30-2022,7-55-53,124,depth_duration_stimuli/002875_2014-06-01_15-19-00_094959634447_rgbf000151-resize_1/002875_2014-06-01_15-19-00_094959634447_rgbf000151-resize_1-target.png,1000,1.9675,2,4127,1000,feet,jsons/v1_VE1000_randls_72.json,1241664,1362477,26,Woman
124,276191,DepthScenes,duration_manipulation_targetAtFixation,jsons/v1_VE1000_randls_72.json,http://54.235.29.9/FacialAge/BNav_EC2/DepthDuration/v2_depth_duration_MTurk/v2_DepthDuration_HTML.html#274,274,1364,625,1364,768,8-30-2022,7-55-53,125,depth_duration_stimuli/000773_2014-06-08_22-24-54_260595134347_rgbf000093-resize_1/000773_2014-06-08_22-24-54_260595134347_rgbf000093-resize_1-target.png,1000,4.973,4,4431,988,feet,jsons/v1_VE1000_randls_72.json,1241664,1362477,26,Woman
125,276191,DepthScenes,duration_manipulation_targetAtFixation,jsons/v1_VE1000_randls_72.json,http://54.235.29.9/FacialAge/BNav_EC2/DepthDuration/v2_depth_duration_MTurk/v2_DepthDuration_HTML.html#274,274,1364,625,1364,768,8-30-2022,7-55-53,126,depth_duration_stimuli/002414_2014-06-28_20-24-58_260595134347_rgbf000067-resize_4/002414_2014-06-28_20-24-58_260595134347_rgbf000067-resize_4-target.png,1000,4.363,4,4029,1000,feet,jsons/v1_VE1000_randls_72.json,1241664,1362477,26,Woman
126,276191,DepthScenes,duration_manipulation_targetAtFixation,jsons/v1_VE1000_randls_72.json,http://54.235.29.9/FacialAge/BNav_EC2/DepthDuration/v2_depth_duration_MTurk/v2_DepthDuration_HTML.html#274,274,1364,625,1364,768,8-30-2022,7-55-53,127,depth_duration_stimuli/001055_2014-06-08_18-45-35_260595134347_rgbf000111-resize_4/001055_2014-06-08_18-45-35_260595134347_rgbf000111-resize_4-target.png,1000,2.4290000000000003,4,4301,1000,feet,jsons/v1_VE1000_randls_72.json,1241664,1362477,26,Woman
127,276191,DepthScenes,duration_manipulation_targetAtFixation,jsons/v1_VE1000_randls_72.json,http://54.235.29.9/FacialAge/BNav_EC2/DepthDuration/v2_depth_duration_MTurk/v2_DepthDuration_HTML.html#274,274,1364,625,1364,768,8-30-2022,7-55-53,128,depth_duration_stimuli/000549_2014-06-08_22-10-24_260595134347_rgbf000247-resize_3/000549_2014-06-08_22-10-24_260595134347_rgbf000247-resize_3-target.png,1000,1.841,1,3599,1009,feet,jsons/v1_VE1000_randls_72.json,1241664,1362477,26,Woman
128,276191,DepthScenes,duration_manipulation_targetAtFixation,jsons/v1_VE1000_randls_72.json,http://54.235.29.9/FacialAge/BNav_EC2/DepthDuration/v2_depth_duration_MTurk/v2_DepthDuration_HTML.html#274,274,1364,625,1364,768,8-30-2022,7-55-53,129,depth_duration_stimuli/000917_2014-06-09_22-45-29_260595134347_rgbf000149-resize_3/000917_2014-06-09_22-45-29_260595134347_rgbf000149-resize_3-target.png,1000,4.1865,4,4070,998,feet,jsons/v1_VE1000_randls_72.json,1241664,1362477,26,Woman
129,276191,DepthScenes,duration_manipulation_targetAtFixation,jsons/v1_VE1000_randls_72.json,http://54.235.29.9/FacialAge/BNav_EC2/DepthDuration/v2_depth_duration_MTurk/v2_DepthDuration_HTML.html#274,274,1364,625,1364,768,8-30-2022,7-55-53,130,depth_duration_stimuli/002323_2014-06-28_20-01-54_260595134347_rgbf000051-resize_4/002323_2014-06-28_20-01-54_260595134347_rgbf000051-resize_4-target.png,1000,3.7310000000000003,1,4991,1000,feet,jsons/v1_VE1000_randls_72.json,1241664,1362477,26,Woman
130,276191,DepthScenes,duration_manipulation_targetAtFixation,jsons/v1_VE1000_randls_72.json,http://54.235.29.9/FacialAge/BNav_EC2/DepthDuration/v2_depth_duration_MTurk/v2_DepthDuration_HTML.html#274,274,1364,625,1364,768,8-30-2022,7-55-53,131,depth_duration_stimuli/002057_2014-06-24_21-00-13_260595134347_rgbf000120-resize_1/002057_2014-06-24_21-00-13_260595134347_rgbf000120-resize_1-target.png,1000,2.967,4,4108,1000,feet,jsons/v1_VE1000_randls_72.json,1241664,1362477,26,Woman
131,276191,DepthScenes,duration_manipulation_targetAtFixation,jsons/v1_VE1000_randls_72.json,http://54.235.29.9/FacialAge/BNav_EC2/DepthDuration/v2_depth_duration_MTurk/v2_DepthDuration_HTML.html#274,274,1364,625,1364,768,8-30-2022,7-55-53,132,depth_duration_stimuli/000709_2014-06-08_13-51-55_260595134347_rgbf000068-resize_3/000709_2014-06-08_13-51-55_260595134347_rgbf000068-resize_3-target.png,1000,1.8030000000000002,4,3650,999,feet,jsons/v1_VE1000_randls_72.json,1241664,1362477,26,Woman
132,276191,DepthScenes,duration_manipulation_targetAtFixation,jsons/v1_VE1000_randls_72.json,http://54.235.29.9/FacialAge/BNav_EC2/DepthDuration/v2_depth_duration_MTurk/v2_DepthDuration_HTML.html#274,274,1364,625,1364,768,8-30-2022,7-55-53,133,depth_duration_stimuli/002989_2014-06-15_12-25-03_094959634447_rgbf000150-resize_3/002989_2014-06-15_12-25-03_094959634447_rgbf000150-resize_3-target.png,1000,4.1975,3,4625,998,feet,jsons/v1_VE1000_randls_72.json,1241664,1362477,26,Woman
133,276191,DepthScenes,duration_manipulation_targetAtFixation,jsons/v1_VE1000_randls_72.json,http://54.235.29.9/FacialAge/BNav_EC2/DepthDuration/v2_depth_duration_MTurk/v2_DepthDuration_HTML.html#274,274,1364,625,1364,768,8-30-2022,7-55-53,134,depth_duration_stimuli/000866_2014-06-09_20-45-42_260595134347_rgbf000139-resize_1/000866_2014-06-09_20-45-42_260595134347_rgbf000139-resize_1-target.png,1000,3.2155,4,3851,999,feet,jsons/v1_VE1000_randls_72.json,1241664,1362477,26,Woman
134,276191,DepthScenes,duration_manipulation_targetAtFixation,jsons/v1_VE1000_randls_72.json,http://54.235.29.9/FacialAge/BNav_EC2/DepthDuration/v2_depth_duration_MTurk/v2_DepthDuration_HTML.html#274,274,1364,625,1364,768,8-30-2022,7-55-53,135,depth_duration_stimuli/002072_2014-06-24_21-48-06_260595134347_rgbf000115-resize_0/002072_2014-06-24_21-48-06_260595134347_rgbf000115-resize-original.jpg,1000,4.702,0,9935,993,feet,jsons/v1_VE1000_randls_72.json,1241664,1362477,26,Woman
135,276191,DepthScenes,duration_manipulation_targetAtFixation,jsons/v1_VE1000_randls_72.json,http://54.235.29.9/FacialAge/BNav_EC2/DepthDuration/v2_depth_duration_MTurk/v2_DepthDuration_HTML.html#274,274,1364,625,1364,768,8-30-2022,7-55-53,136,depth_duration_stimuli/001133_2014-06-17_14-49-16_260595134347_rgbf000100-resize_0/001133_2014-06-17_14-49-16_260595134347_rgbf000100-resize_0-target.png,1000,4.2115,3,5967,1001,feet,jsons/v1_VE1000_randls_72.json,1241664,1362477,26,Woman
136,276191,DepthScenes,duration_manipulation_targetAtFixation,jsons/v1_VE1000_randls_72.json,http://54.235.29.9/FacialAge/BNav_EC2/DepthDuration/v2_depth_duration_MTurk/v2_DepthDuration_HTML.html#274,274,1364,625,1364,768,8-30-2022,7-55-53,137,depth_duration_stimuli/001132_2014-06-17_14-48-54_260595134347_rgbf000100-resize_2/001132_2014-06-17_14-48-54_260595134347_rgbf000100-resize_2-target.png,1000,3.753,1,4692,1000,feet,jsons/v1_VE1000_randls_72.json,1241664,1362477,26,Woman
137,276191,DepthScenes,duration_manipulation_targetAtFixation,jsons/v1_VE1000_randls_72.json,http://54.235.29.9/FacialAge/BNav_EC2/DepthDuration/v2_depth_duration_MTurk/v2_DepthDuration_HTML.html#274,274,1364,625,1364,768,8-30-2022,7-55-53,138,depth_duration_stimuli/000469_2014-06-09_19-42-10_260595134347_rgbf000081-resize_1/000469_2014-06-09_19-42-10_260595134347_rgbf000081-resize_1-target.png,1000,1.652,1,6669,1001,feet,jsons/v1_VE1000_randls_72.json,1241664,1362477,26,Woman
138,276191,DepthScenes,duration_manipulation_targetAtFixation,jsons/v1_VE1000_randls_72.json,http://54.235.29.9/FacialAge/BNav_EC2/DepthDuration/v2_depth_duration_MTurk/v2_DepthDuration_HTML.html#274,274,1364,625,1364,768,8-30-2022,7-55-53,139,depth_duration_stimuli/000483_2014-06-09_20-41-45_260595134347_rgbf000116-resize_4/000483_2014-06-09_20-41-45_260595134347_rgbf000116-resize_4-target.png,1000,1.337,1,3534,1001,feet,jsons/v1_VE1000_randls_72.json,1241664,1362477,26,Woman
139,276191,DepthScenes,duration_manipulation_targetAtFixation,jsons/v1_VE1000_randls_72.json,http://54.235.29.9/FacialAge/BNav_EC2/DepthDuration/v2_depth_duration_MTurk/v2_DepthDuration_HTML.html#274,274,1364,625,1364,768,8-30-2022,7-55-53,140,depth_duration_stimuli/001417_2014-06-19_16-25-36_260595134347_rgbf000115-resize_5/001417_2014-06-19_16-25-36_260595134347_rgbf000115-resize_5-target.png,1000,4.6255,3,5531,1012,feet,jsons/v1_VE1000_randls_72.json,1241664,1362477,26,Woman
140,276191,DepthScenes,duration_manipulation_targetAtFixation,jsons/v1_VE1000_randls_72.json,http://54.235.29.9/FacialAge/BNav_EC2/DepthDuration/v2_depth_duration_MTurk/v2_DepthDuration_HTML.html#274,274,1364,625,1364,768,8-30-2022,7-55-53,141,depth_duration_stimuli/003081_2014-06-15_15-19-16_094959634447_rgbf000150-resize_1/003081_2014-06-15_15-19-16_094959634447_rgbf000150-resize_1-target.png,1000,3.9125,2,3431,1000,feet,jsons/v1_VE1000_randls_72.json,1241664,1362477,26,Woman
141,276191,DepthScenes,duration_manipulation_targetAtFixation,jsons/v1_VE1000_randls_72.json,http://54.235.29.9/FacialAge/BNav_EC2/DepthDuration/v2_depth_duration_MTurk/v2_DepthDuration_HTML.html#274,274,1364,625,1364,768,8-30-2022,7-55-53,142,depth_duration_stimuli/002375_2014-06-28_20-13-44_260595134347_rgbf000032-resize_1/002375_2014-06-28_20-13-44_260595134347_rgbf000032-resize_1-target.png,1000,4.0175,2,4107,1003,feet,jsons/v1_VE1000_randls_72.json,1241664,1362477,26,Woman
142,276191,DepthScenes,duration_manipulation_targetAtFixation,jsons/v1_VE1000_randls_72.json,http://54.235.29.9/FacialAge/BNav_EC2/DepthDuration/v2_depth_duration_MTurk/v2_DepthDuration_HTML.html#274,274,1364,625,1364,768,8-30-2022,7-55-53,143,depth_duration_stimuli/002657_2014-06-13_15-29-54_094959634447_rgbf000150-resize_1/002657_2014-06-13_15-29-54_094959634447_rgbf000150-resize_1-target.png,1000,4.919,4,3942,1001,feet,jsons/v1_VE1000_randls_72.json,1241664,1362477,26,Woman
143,276191,DepthScenes,duration_manipulation_targetAtFixation,jsons/v1_VE1000_randls_72.json,http://54.235.29.9/FacialAge/BNav_EC2/DepthDuration/v2_depth_duration_MTurk/v2_DepthDuration_HTML.html#274,274,1364,625,1364,768,8-30-2022,7-55-53,144,depth_duration_stimuli/000810_2014-06-08_17-20-01_260595134347_rgbf000105-resize_0/000810_2014-06-08_17-20-01_260595134347_rgbf000105-resize_0-target.png,1000,1.4865,2,3978,999,feet,jsons/v1_VE1000_randls_72.json,1241664,1362477,26,Woman
144,276191,DepthScenes,duration_manipulation_targetAtFixation,jsons/v1_VE1000_randls_72.json,http://54.235.29.9/FacialAge/BNav_EC2/DepthDuration/v2_depth_duration_MTurk/v2_DepthDuration_HTML.html#274,274,1364,625,1364,768,8-30-2022,7-55-53,145,depth_duration_stimuli/001214_2014-06-17_16-13-55_260595134347_rgbf000111-resize_0/001214_2014-06-17_16-13-55_260595134347_rgbf000111-resize_0-target.png,1000,2.6505,2,3393,1000,feet,jsons/v1_VE1000_randls_72.json,1241664,1362477,26,Woman
145,276191,DepthScenes,duration_manipulation_targetAtFixation,jsons/v1_VE1000_randls_72.json,http://54.235.29.9/FacialAge/BNav_EC2/DepthDuration/v2_depth_duration_MTurk/v2_DepthDuration_HTML.html#274,274,1364,625,1364,768,8-30-2022,7-55-53,146,depth_duration_stimuli/001498_2014-06-19_17-45-14_260595134347_rgbf000129-resize_4/001498_2014-06-19_17-45-14_260595134347_rgbf000129-resize-original.jpg,1000,1.4075,0,3904,1000,feet,jsons/v1_VE1000_randls_72.json,1241664,1362477,26,Woman
146,276191,DepthScenes,duration_manipulation_targetAtFixation,jsons/v1_VE1000_randls_72.json,http://54.235.29.9/FacialAge/BNav_EC2/DepthDuration/v2_depth_duration_MTurk/v2_DepthDuration_HTML.html#274,274,1364,625,1364,768,8-30-2022,7-55-53,147,depth_duration_stimuli/002570_2014-06-24_13-59-54_094959634447_rgbf000059-resize_0/002570_2014-06-24_13-59-54_094959634447_rgbf000059-resize_0-target.png,1000,4.037,2,3752,1000,feet,jsons/v1_VE1000_randls_72.json,1241664,1362477,26,Woman
147,276191,DepthScenes,duration_manipulation_targetAtFixation,jsons/v1_VE1000_randls_72.json,http://54.235.29.9/FacialAge/BNav_EC2/DepthDuration/v2_depth_duration_MTurk/v2_DepthDuration_HTML.html#274,274,1364,625,1364,768,8-30-2022,7-55-53,148,depth_duration_stimuli/002467_2014-06-28_20-38-07_260595134347_rgbf000026-resize_2/002467_2014-06-28_20-38-07_260595134347_rgbf000026-resize_2-target.png,1000,4.742,2,3555,987,feet,jsons/v1_VE1000_randls_72.json,1241664,1362477,26,Woman
148,276191,DepthScenes,duration_manipulation_targetAtFixation,jsons/v1_VE1000_randls_72.json,http://54.235.29.9/FacialAge/BNav_EC2/DepthDuration/v2_depth_duration_MTurk/v2_DepthDuration_HTML.html#274,274,1364,625,1364,768,8-30-2022,7-55-53,149,depth_duration_stimuli/001066_2014-06-08_22-03-20_260595134347_rgbf000066-resize_4/001066_2014-06-08_22-03-20_260595134347_rgbf000066-resize_4-target.png,1000,4.2330000000000005,4,4368,1004,feet,jsons/v1_VE1000_randls_72.json,1241664,1362477,26,Woman
149,276191,DepthScenes,duration_manipulation_targetAtFixation,jsons/v1_VE1000_randls_72.json,http://54.235.29.9/FacialAge/BNav_EC2/DepthDuration/v2_depth_duration_MTurk/v2_DepthDuration_HTML.html#274,274,1364,625,1364,768,8-30-2022,7-55-53,150,depth_duration_stimuli/000742_2014-06-08_18-48-09_260595134347_rgbf000164-resize_4/000742_2014-06-08_18-48-09_260595134347_rgbf000164-resize_4-target.png,1000,4.632,4,3683,1000,feet,jsons/v1_VE1000_randls_72.json,1241664,1362477,26,Woman
150,276191,DepthScenes,duration_manipulation_targetAtFixation,jsons/v1_VE1000_randls_72.json,http://54.235.29.9/FacialAge/BNav_EC2/DepthDuration/v2_depth_duration_MTurk/v2_DepthDuration_HTML.html#274,274,1364,625,1364,768,8-30-2022,7-55-53,151,depth_duration_stimuli/000436_2014-06-09_22-25-11_260595134347_rgbf000137-resize_1/000436_2014-06-09_22-25-11_260595134347_rgbf000137-resize_1-target.png,1000,4.0705,3,5451,998,feet,jsons/v1_VE1000_randls_72.json,1241664,1362477,26,Woman
151,276191,DepthScenes,duration_manipulation_targetAtFixation,jsons/v1_VE1000_randls_72.json,http://54.235.29.9/FacialAge/BNav_EC2/DepthDuration/v2_depth_duration_MTurk/v2_DepthDuration_HTML.html#274,274,1364,625,1364,768,8-30-2022,7-55-53,152,depth_duration_stimuli/002444_2014-06-28_20-32-08_260595134347_rgbf000027-resize_0/002444_2014-06-28_20-32-08_260595134347_rgbf000027-resize_0-target.png,1000,4.388999999999999,4,3892,1001,feet,jsons/v1_VE1000_randls_72.json,1241664,1362477,26,Woman
152,276191,DepthScenes,duration_manipulation_targetAtFixation,jsons/v1_VE1000_randls_72.json,http://54.235.29.9/FacialAge/BNav_EC2/DepthDuration/v2_depth_duration_MTurk/v2_DepthDuration_HTML.html#274,274,1364,625,1364,768,8-30-2022,7-55-53,153,depth_duration_stimuli/000447_2014-06-08_16-15-46_260595134347_rgbf000130-resize_1/000447_2014-06-08_16-15-46_260595134347_rgbf000130-resize_1-target.png,1000,4.479,4,4152,1001,feet,jsons/v1_VE1000_randls_72.json,1241664,1362477,26,Woman
153,276191,DepthScenes,duration_manipulation_targetAtFixation,jsons/v1_VE1000_randls_72.json,http://54.235.29.9/FacialAge/BNav_EC2/DepthDuration/v2_depth_duration_MTurk/v2_DepthDuration_HTML.html#274,274,1364,625,1364,768,8-30-2022,7-55-53,154,depth_duration_stimuli/001447_2014-06-19_17-00-32_260595134347_rgbf000082-resize_5/001447_2014-06-19_17-00-32_260595134347_rgbf000082-resize_5-target.png,1000,4.13775,4,4064,1003,feet,jsons/v1_VE1000_randls_72.json,1241664,1362477,26,Woman
154,276191,DepthScenes,duration_manipulation_targetAtFixation,jsons/v1_VE1000_randls_72.json,http://54.235.29.9/FacialAge/BNav_EC2/DepthDuration/v2_depth_duration_MTurk/v2_DepthDuration_HTML.html#274,274,1364,625,1364,768,8-30-2022,7-55-53,155,depth_duration_stimuli/002763_2014-06-22_19-13-10_094959634447_rgbf000075-resize_4/002763_2014-06-22_19-13-10_094959634447_rgbf000075-resize_4-target.png,1000,1.68375,3,4792,999,feet,jsons/v1_VE1000_randls_72.json,1241664,1362477,26,Woman
155,276191,DepthScenes,duration_manipulation_targetAtFixation,jsons/v1_VE1000_randls_72.json,http://54.235.29.9/FacialAge/BNav_EC2/DepthDuration/v2_depth_duration_MTurk/v2_DepthDuration_HTML.html#274,274,1364,625,1364,768,8-30-2022,7-55-53,156,depth_duration_stimuli/002209_2014-06-28_18-36-10_260595134347_rgbf000051-resize_1/002209_2014-06-28_18-36-10_260595134347_rgbf000051-resize_1-target.png,1000,2.057,2,3576,1001,feet,jsons/v1_VE1000_randls_72.json,1241664,1362477,26,Woman
156,276191,DepthScenes,duration_manipulation_targetAtFixation,jsons/v1_VE1000_randls_72.json,http://54.235.29.9/FacialAge/BNav_EC2/DepthDuration/v2_depth_duration_MTurk/v2_DepthDuration_HTML.html#274,274,1364,625,1364,768,8-30-2022,7-55-53,157,depth_duration_stimuli/000368_2014-06-09_15-53-01_260595134347_rgbf000155-resize_2/000368_2014-06-09_15-53-01_260595134347_rgbf000155-resize_2-target.png,1000,2.4859999999999998,1,4260,1003,feet,jsons/v1_VE1000_randls_72.json,1241664,1362477,26,Woman
157,276191,DepthScenes,duration_manipulation_targetAtFixation,jsons/v1_VE1000_randls_72.json,http://54.235.29.9/FacialAge/BNav_EC2/DepthDuration/v2_depth_duration_MTurk/v2_DepthDuration_HTML.html#274,274,1364,625,1364,768,8-30-2022,7-55-53,158,depth_duration_stimuli/002678_2014-06-13_16-15-32_094959634447_rgbf000151-resize_6/002678_2014-06-13_16-15-32_094959634447_rgbf000151-resize_6-target.png,1000,2.1830000000000003,4,4136,999,feet,jsons/v1_VE1000_randls_72.json,1241664,1362477,26,Woman
158,276191,DepthScenes,duration_manipulation_targetAtFixation,jsons/v1_VE1000_randls_72.json,http://54.235.29.9/FacialAge/BNav_EC2/DepthDuration/v2_depth_duration_MTurk/v2_DepthDuration_HTML.html#274,274,1364,625,1364,768,8-30-2022,7-55-53,159,depth_duration_stimuli/001810_2014-06-26_20-51-35_260595134347_rgbf000040-resize_3/001810_2014-06-26_20-51-35_260595134347_rgbf000040-resize_3-target.png,1000,2.2525,2,4442,1001,feet,jsons/v1_VE1000_randls_72.json,1241664,1362477,26,Woman
159,276191,DepthScenes,duration_manipulation_targetAtFixation,jsons/v1_VE1000_randls_72.json,http://54.235.29.9/FacialAge/BNav_EC2/DepthDuration/v2_depth_duration_MTurk/v2_DepthDuration_HTML.html#274,274,1364,625,1364,768,8-30-2022,7-55-53,160,depth_duration_stimuli/003010_2014-06-15_12-54-35_094959634447_rgbf000112-resize_0/003010_2014-06-15_12-54-35_094959634447_rgbf000112-resize_0-target.png,1000,3.1185,6,4689,1000,feet,jsons/v1_VE1000_randls_72.json,1241664,1362477,26,Woman
160,276191,DepthScenes,duration_manipulation_targetAtFixation,jsons/v1_VE1000_randls_72.json,http://54.235.29.9/FacialAge/BNav_EC2/DepthDuration/v2_depth_duration_MTurk/v2_DepthDuration_HTML.html#274,274,1364,625,1364,768,8-30-2022,7-55-53,161,depth_duration_stimuli/000758_2014-06-08_22-05-08_260595134347_rgbf000085-resize_0/000758_2014-06-08_22-05-08_260595134347_rgbf000085-resize_0-target.png,1000,3.3810000000000002,4,4121,1000,feet,jsons/v1_VE1000_randls_72.json,1241664,1362477,26,Woman
161,276191,DepthScenes,duration_manipulation_targetAtFixation,jsons/v1_VE1000_randls_72.json,http://54.235.29.9/FacialAge/BNav_EC2/DepthDuration/v2_depth_duration_MTurk/v2_DepthDuration_HTML.html#274,274,1364,625,1364,768,8-30-2022,7-55-53,162,depth_duration_stimuli/000854_2014-06-09_19-43-13_260595134347_rgbf000066-resize_0/000854_2014-06-09_19-43-13_260595134347_rgbf000066-resize_0-target.png,1000,3.068,2,3884,1007,feet,jsons/v1_VE1000_randls_72.json,1241664,1362477,26,Woman
162,276191,DepthScenes,duration_manipulation_targetAtFixation,jsons/v1_VE1000_randls_72.json,http://54.235.29.9/FacialAge/BNav_EC2/DepthDuration/v2_depth_duration_MTurk/v2_DepthDuration_HTML.html#274,274,1364,625,1364,768,8-30-2022,7-55-53,163,depth_duration_stimuli/003292_2014-05-14_21-53-49_094959634447_rgbf000100-resize_2/003292_2014-05-14_21-53-49_094959634447_rgbf000100-resize_2-target.png,1000,3.4815,2,4009,991,feet,jsons/v1_VE1000_randls_72.json,1241664,1362477,26,Woman
163,276191,DepthScenes,duration_manipulation_targetAtFixation,jsons/v1_VE1000_randls_72.json,http://54.235.29.9/FacialAge/BNav_EC2/DepthDuration/v2_depth_duration_MTurk/v2_DepthDuration_HTML.html#274,274,1364,625,1364,768,8-30-2022,7-55-53,164,depth_duration_stimuli/002639_2014-06-24_14-51-37_094959634447_rgbf000074-resize_4/002639_2014-06-24_14-51-37_094959634447_rgbf000074-resize_4-target.png,1000,4.0375,4,3469,1005,feet,jsons/v1_VE1000_randls_72.json,1241664,1362477,26,Woman
