,subjID,experimentName,versionName,sequenceName,url,selected_row,windowWidth,windowHeight,screenWidth,screenHeight,startDate,startTime,trial,stimulus,duration,actual_depth,depth_estimate,trial_RT,log_sceneDuration,unitSelection,seq_filepath,experimentTime,totalTime,age,gender
0,278226,DepthScenes,duration_manipulation_targetAtFixation,jsons/VE125_randls_23.json,http://54.235.29.9/FacialAge/BNav_EC2/DepthDuration/v2_depth_duration_MTurk/v2_DepthDuration_HTML.html#41,41,1366,625,1366,768,8-29-2022,9-42-24,1,depth_duration_stimuli/000682_2014-06-08_23-14-58_260595134347_rgbf000041-resize_5/000682_2014-06-08_23-14-58_260595134347_rgbf000041-resize_5-target.png,125,2.7239999999999998,0,4701,123,meters,jsons/VE125_randls_23.json,783039,938258,48,Woman
1,278226,DepthScenes,duration_manipulation_targetAtFixation,jsons/VE125_randls_23.json,http://54.235.29.9/FacialAge/BNav_EC2/DepthDuration/v2_depth_duration_MTurk/v2_DepthDuration_HTML.html#41,41,1366,625,1366,768,8-29-2022,9-42-24,2,depth_duration_stimuli/001650_2014-06-20_12-09-00_260595134347_rgbf000087-resize_3/001650_2014-06-20_12-09-00_260595134347_rgbf000087-resize_3-target.png,125,1.9505,0,4470,116,meters,jsons/VE125_randls_23.json,783039,938258,48,Woman
2,278226,DepthScenes,duration_manipulation_targetAtFixation,jsons/VE125_randls_23.json,http://54.235.29.9/FacialAge/BNav_EC2/DepthDuration/v2_depth_duration_MTurk/v2_DepthDuration_HTML.html#41,41,1366,625,1366,768,8-29-2022,9-42-24,3,depth_duration_stimuli/000436_2014-06-09_22-25-11_260595134347_rgbf000137-resize_1/000436_2014-06-09_22-25-11_260595134347_rgbf000137-resize_1-target.png,125,4.0705,0,4245,121,meters,jsons/VE125_randls_23.json,783039,938258,48,Woman
3,278226,DepthScenes,duration_manipulation_targetAtFixation,jsons/VE125_randls_23.json,http://54.235.29.9/FacialAge/BNav_EC2/DepthDuration/v2_depth_duration_MTurk/v2_DepthDuration_HTML.html#41,41,1366,625,1366,768,8-29-2022,9-42-24,4,depth_duration_stimuli/002444_2014-06-28_20-32-08_260595134347_rgbf000027-resize_0/002444_2014-06-28_20-32-08_260595134347_rgbf000027-resize_0-target.png,125,4.388999999999999,0,4841,115,meters,jsons/VE125_randls_23.json,783039,938258,48,Woman
4,278226,DepthScenes,duration_manipulation_targetAtFixation,jsons/VE125_randls_23.json,http://54.235.29.9/FacialAge/BNav_EC2/DepthDuration/v2_depth_duration_MTurk/v2_DepthDuration_HTML.html#41,41,1366,625,1366,768,8-29-2022,9-42-24,5,depth_duration_stimuli/001449_2014-06-19_17-01-27_260595134347_rgbf000116-resize_2/001449_2014-06-19_17-01-27_260595134347_rgbf000116-resize_2-target.png,125,3.452,0,2592,133,meters,jsons/VE125_randls_23.json,783039,938258,48,Woman
5,278226,DepthScenes,duration_manipulation_targetAtFixation,jsons/VE125_randls_23.json,http://54.235.29.9/FacialAge/BNav_EC2/DepthDuration/v2_depth_duration_MTurk/v2_DepthDuration_HTML.html#41,41,1366,625,1366,768,8-29-2022,9-42-24,6,depth_duration_stimuli/001450_2014-06-19_17-02-03_260595134347_rgbf000203-resize_4/001450_2014-06-19_17-02-03_260595134347_rgbf000203-resize_4-target.png,125,4.0106666666667,0,2124,132,meters,jsons/VE125_randls_23.json,783039,938258,48,Woman
6,278226,DepthScenes,duration_manipulation_targetAtFixation,jsons/VE125_randls_23.json,http://54.235.29.9/FacialAge/BNav_EC2/DepthDuration/v2_depth_duration_MTurk/v2_DepthDuration_HTML.html#41,41,1366,625,1366,768,8-29-2022,9-42-24,7,depth_duration_stimuli/001150_2014-06-17_15-27-34_260595134347_rgbf000108-resize_2/001150_2014-06-17_15-27-34_260595134347_rgbf000108-resize_2-target.png,125,4.0325,0,2371,116,meters,jsons/VE125_randls_23.json,783039,938258,48,Woman
7,278226,DepthScenes,duration_manipulation_targetAtFixation,jsons/VE125_randls_23.json,http://54.235.29.9/FacialAge/BNav_EC2/DepthDuration/v2_depth_duration_MTurk/v2_DepthDuration_HTML.html#41,41,1366,625,1366,768,8-29-2022,9-42-24,8,depth_duration_stimuli/000665_2014-06-09_20-42-35_260595134347_rgbf000110-resize_1/000665_2014-06-09_20-42-35_260595134347_rgbf000110-resize_1-target.png,125,3.057,0,2175,125,meters,jsons/VE125_randls_23.json,783039,938258,48,Woman
8,278226,DepthScenes,duration_manipulation_targetAtFixation,jsons/VE125_randls_23.json,http://54.235.29.9/FacialAge/BNav_EC2/DepthDuration/v2_depth_duration_MTurk/v2_DepthDuration_HTML.html#41,41,1366,625,1366,768,8-29-2022,9-42-24,9,depth_duration_stimuli/000642_2014-06-08_16-59-25_260595134347_rgbf000098-resize_2/000642_2014-06-08_16-59-25_260595134347_rgbf000098-resize_2-target.png,125,2.8815,0,2186,123,meters,jsons/VE125_randls_23.json,783039,938258,48,Woman
9,278226,DepthScenes,duration_manipulation_targetAtFixation,jsons/VE125_randls_23.json,http://54.235.29.9/FacialAge/BNav_EC2/DepthDuration/v2_depth_duration_MTurk/v2_DepthDuration_HTML.html#41,41,1366,625,1366,768,8-29-2022,9-42-24,10,depth_duration_stimuli/002425_2014-06-28_20-27-29_260595134347_rgbf000031-resize_8/002425_2014-06-28_20-27-29_260595134347_rgbf000031-resize_8-target.png,125,3.8960000000000004,0,2063,119,meters,jsons/VE125_randls_23.json,783039,938258,48,Woman
10,278226,DepthScenes,duration_manipulation_targetAtFixation,jsons/VE125_randls_23.json,http://54.235.29.9/FacialAge/BNav_EC2/DepthDuration/v2_depth_duration_MTurk/v2_DepthDuration_HTML.html#41,41,1366,625,1366,768,8-29-2022,9-42-24,11,depth_duration_stimuli/001056_2014-06-08_18-46-44_260595134347_rgbf000068-resize_0/001056_2014-06-08_18-46-44_260595134347_rgbf000068-resize_0-target.png,125,2.6625,0,2084,136,meters,jsons/VE125_randls_23.json,783039,938258,48,Woman
11,278226,DepthScenes,duration_manipulation_targetAtFixation,jsons/VE125_randls_23.json,http://54.235.29.9/FacialAge/BNav_EC2/DepthDuration/v2_depth_duration_MTurk/v2_DepthDuration_HTML.html#41,41,1366,625,1366,768,8-29-2022,9-42-24,12,depth_duration_stimuli/002199_2014-06-28_18-33-56_260595134347_rgbf000074-resize_0/002199_2014-06-28_18-33-56_260595134347_rgbf000074-resize_0-target.png,125,1.996,0,2143,115,meters,jsons/VE125_randls_23.json,783039,938258,48,Woman
12,278226,DepthScenes,duration_manipulation_targetAtFixation,jsons/VE125_randls_23.json,http://54.235.29.9/FacialAge/BNav_EC2/DepthDuration/v2_depth_duration_MTurk/v2_DepthDuration_HTML.html#41,41,1366,625,1366,768,8-29-2022,9-42-24,13,depth_duration_stimuli/000569_2014-06-09_22-51-47_260595134347_rgbf000141-resize_3/000569_2014-06-09_22-51-47_260595134347_rgbf000141-resize-original.jpg,125,4.512,0,2151,110,meters,jsons/VE125_randls_23.json,783039,938258,48,Woman
13,278226,DepthScenes,duration_manipulation_targetAtFixation,jsons/VE125_randls_23.json,http://54.235.29.9/FacialAge/BNav_EC2/DepthDuration/v2_depth_duration_MTurk/v2_DepthDuration_HTML.html#41,41,1366,625,1366,768,8-29-2022,9-42-24,14,depth_duration_stimuli/001092_2014-06-15_17-34-58_260595134347_rgbf000171-resize_3/001092_2014-06-15_17-34-58_260595134347_rgbf000171-resize_3-target.png,125,2.6935,0,2178,115,meters,jsons/VE125_randls_23.json,783039,938258,48,Woman
14,278226,DepthScenes,duration_manipulation_targetAtFixation,jsons/VE125_randls_23.json,http://54.235.29.9/FacialAge/BNav_EC2/DepthDuration/v2_depth_duration_MTurk/v2_DepthDuration_HTML.html#41,41,1366,625,1366,768,8-29-2022,9-42-24,15,depth_duration_stimuli/002545_2014-06-24_13-38-53_094959634447_rgbf000080-resize_4/002545_2014-06-24_13-38-53_094959634447_rgbf000080-resize_4-target.png,125,1.9205,0,2791,124,meters,jsons/VE125_randls_23.json,783039,938258,48,Woman
15,278226,DepthScenes,duration_manipulation_targetAtFixation,jsons/VE125_randls_23.json,http://54.235.29.9/FacialAge/BNav_EC2/DepthDuration/v2_depth_duration_MTurk/v2_DepthDuration_HTML.html#41,41,1366,625,1366,768,8-29-2022,9-42-24,16,depth_duration_stimuli/000414_2014-06-04_19-49-13_260595134347_rgbf000044-resize_0/000414_2014-06-04_19-49-13_260595134347_rgbf000044-resize_0-target.png,125,4.329,0,2358,117,meters,jsons/VE125_randls_23.json,783039,938258,48,Woman
16,278226,DepthScenes,duration_manipulation_targetAtFixation,jsons/VE125_randls_23.json,http://54.235.29.9/FacialAge/BNav_EC2/DepthDuration/v2_depth_duration_MTurk/v2_DepthDuration_HTML.html#41,41,1366,625,1366,768,8-29-2022,9-42-24,17,depth_duration_stimuli/003129_2014-05-12_10-48-10_094959634447_rgbf000100-resize_0/003129_2014-05-12_10-48-10_094959634447_rgbf000100-resize_0-target.png,125,4.9305,0,2154,124,meters,jsons/VE125_randls_23.json,783039,938258,48,Woman
17,278226,DepthScenes,duration_manipulation_targetAtFixation,jsons/VE125_randls_23.json,http://54.235.29.9/FacialAge/BNav_EC2/DepthDuration/v2_depth_duration_MTurk/v2_DepthDuration_HTML.html#41,41,1366,625,1366,768,8-29-2022,9-42-24,18,depth_duration_stimuli/003070_2014-06-15_14-58-27_094959634447_rgbf000150-resize_3/003070_2014-06-15_14-58-27_094959634447_rgbf000150-resize_3-target.png,125,2.9415,0,1968,122,meters,jsons/VE125_randls_23.json,783039,938258,48,Woman
18,278226,DepthScenes,duration_manipulation_targetAtFixation,jsons/VE125_randls_23.json,http://54.235.29.9/FacialAge/BNav_EC2/DepthDuration/v2_depth_duration_MTurk/v2_DepthDuration_HTML.html#41,41,1366,625,1366,768,8-29-2022,9-42-24,19,depth_duration_stimuli/000943_2014-06-09_19-31-07_260595134347_rgbf000128-resize_1/000943_2014-06-09_19-31-07_260595134347_rgbf000128-resize_1-target.png,125,1.9765,0,2128,120,meters,jsons/VE125_randls_23.json,783039,938258,48,Woman
19,278226,DepthScenes,duration_manipulation_targetAtFixation,jsons/VE125_randls_23.json,http://54.235.29.9/FacialAge/BNav_EC2/DepthDuration/v2_depth_duration_MTurk/v2_DepthDuration_HTML.html#41,41,1366,625,1366,768,8-29-2022,9-42-24,20,depth_duration_stimuli/002905_2014-06-03_18-04-43_094959634447_rgbf000151-resize_2/002905_2014-06-03_18-04-43_094959634447_rgbf000151-resize_2-target.png,125,2.0295,0,2089,126,meters,jsons/VE125_randls_23.json,783039,938258,48,Woman
20,278226,DepthScenes,duration_manipulation_targetAtFixation,jsons/VE125_randls_23.json,http://54.235.29.9/FacialAge/BNav_EC2/DepthDuration/v2_depth_duration_MTurk/v2_DepthDuration_HTML.html#41,41,1366,625,1366,768,8-29-2022,9-42-24,21,depth_duration_stimuli/003423_2014-05-21_10-23-26_094959634447_rgbf002665-resize_2/003423_2014-05-21_10-23-26_094959634447_rgbf002665-resize_2-target.png,125,3.2575,0,3038,123,meters,jsons/VE125_randls_23.json,783039,938258,48,Woman
21,278226,DepthScenes,duration_manipulation_targetAtFixation,jsons/VE125_randls_23.json,http://54.235.29.9/FacialAge/BNav_EC2/DepthDuration/v2_depth_duration_MTurk/v2_DepthDuration_HTML.html#41,41,1366,625,1366,768,8-29-2022,9-42-24,22,depth_duration_stimuli/000486_2014-06-09_20-47-20_260595134347_rgbf000143-resize_2/000486_2014-06-09_20-47-20_260595134347_rgbf000143-resize_2-target.png,125,4.8325,0,2331,116,meters,jsons/VE125_randls_23.json,783039,938258,48,Woman
22,278226,DepthScenes,duration_manipulation_targetAtFixation,jsons/VE125_randls_23.json,http://54.235.29.9/FacialAge/BNav_EC2/DepthDuration/v2_depth_duration_MTurk/v2_DepthDuration_HTML.html#41,41,1366,625,1366,768,8-29-2022,9-42-24,23,depth_duration_stimuli/003083_2014-06-15_15-21-03_094959634447_rgbf000063-resize_1/003083_2014-06-15_15-21-03_094959634447_rgbf000063-resize_1-target.png,125,4.1405,0,2083,122,meters,jsons/VE125_randls_23.json,783039,938258,48,Woman
23,278226,DepthScenes,duration_manipulation_targetAtFixation,jsons/VE125_randls_23.json,http://54.235.29.9/FacialAge/BNav_EC2/DepthDuration/v2_depth_duration_MTurk/v2_DepthDuration_HTML.html#41,41,1366,625,1366,768,8-29-2022,9-42-24,24,depth_duration_stimuli/002153_2014-06-25_21-27-18_260595134347_rgbf000038-resize_5/002153_2014-06-25_21-27-18_260595134347_rgbf000038-resize_5-target.png,125,2.505,0,2091,126,meters,jsons/VE125_randls_23.json,783039,938258,48,Woman
24,278226,DepthScenes,duration_manipulation_targetAtFixation,jsons/VE125_randls_23.json,http://54.235.29.9/FacialAge/BNav_EC2/DepthDuration/v2_depth_duration_MTurk/v2_DepthDuration_HTML.html#41,41,1366,625,1366,768,8-29-2022,9-42-24,25,depth_duration_stimuli/002660_2014-06-13_15-44-18_094959634447_rgbf001878-resize_2/002660_2014-06-13_15-44-18_094959634447_rgbf001878-resize_2-target.png,125,3.576,0,2596,136,meters,jsons/VE125_randls_23.json,783039,938258,48,Woman
25,278226,DepthScenes,duration_manipulation_targetAtFixation,jsons/VE125_randls_23.json,http://54.235.29.9/FacialAge/BNav_EC2/DepthDuration/v2_depth_duration_MTurk/v2_DepthDuration_HTML.html#41,41,1366,625,1366,768,8-29-2022,9-42-24,26,depth_duration_stimuli/001011_2014-06-08_23-18-54_260595134347_rgbf000044-resize_4/001011_2014-06-08_23-18-54_260595134347_rgbf000044-resize_4-target.png,125,2.4730000000000003,0,1998,124,meters,jsons/VE125_randls_23.json,783039,938258,48,Woman
26,278226,DepthScenes,duration_manipulation_targetAtFixation,jsons/VE125_randls_23.json,http://54.235.29.9/FacialAge/BNav_EC2/DepthDuration/v2_depth_duration_MTurk/v2_DepthDuration_HTML.html#41,41,1366,625,1366,768,8-29-2022,9-42-24,27,depth_duration_stimuli/002875_2014-06-01_15-19-00_094959634447_rgbf000151-resize_1/002875_2014-06-01_15-19-00_094959634447_rgbf000151-resize_1-target.png,125,1.9675,0,2218,125,meters,jsons/VE125_randls_23.json,783039,938258,48,Woman
27,278226,DepthScenes,duration_manipulation_targetAtFixation,jsons/VE125_randls_23.json,http://54.235.29.9/FacialAge/BNav_EC2/DepthDuration/v2_depth_duration_MTurk/v2_DepthDuration_HTML.html#41,41,1366,625,1366,768,8-29-2022,9-42-24,28,depth_duration_stimuli/002988_2014-06-15_12-24-20_094959634447_rgbf000150-resize_1/002988_2014-06-15_12-24-20_094959634447_rgbf000150-resize_1-target.png,125,4.7669999999999995,0,2065,117,meters,jsons/VE125_randls_23.json,783039,938258,48,Woman
28,278226,DepthScenes,duration_manipulation_targetAtFixation,jsons/VE125_randls_23.json,http://54.235.29.9/FacialAge/BNav_EC2/DepthDuration/v2_depth_duration_MTurk/v2_DepthDuration_HTML.html#41,41,1366,625,1366,768,8-29-2022,9-42-24,29,depth_duration_stimuli/001052_2014-06-08_18-24-54_260595134347_rgbf000130-resize_1/001052_2014-06-08_18-24-54_260595134347_rgbf000130-resize_1-target.png,125,4.1045,0,2117,134,meters,jsons/VE125_randls_23.json,783039,938258,48,Woman
29,278226,DepthScenes,duration_manipulation_targetAtFixation,jsons/VE125_randls_23.json,http://54.235.29.9/FacialAge/BNav_EC2/DepthDuration/v2_depth_duration_MTurk/v2_DepthDuration_HTML.html#41,41,1366,625,1366,768,8-29-2022,9-42-24,30,depth_duration_stimuli/000375_2014-06-08_11-17-29_260595134347_rgbf000133-resize_2/000375_2014-06-08_11-17-29_260595134347_rgbf000133-resize-original.jpg,125,4.718,0,2203,116,meters,jsons/VE125_randls_23.json,783039,938258,48,Woman
30,278226,DepthScenes,duration_manipulation_targetAtFixation,jsons/VE125_randls_23.json,http://54.235.29.9/FacialAge/BNav_EC2/DepthDuration/v2_depth_duration_MTurk/v2_DepthDuration_HTML.html#41,41,1366,625,1366,768,8-29-2022,9-42-24,31,depth_duration_stimuli/002043_2014-06-24_20-29-38_260595134347_rgbf000039-resize_4/002043_2014-06-24_20-29-38_260595134347_rgbf000039-resize_4-target.png,125,2.8435,0,2250,125,meters,jsons/VE125_randls_23.json,783039,938258,48,Woman
31,278226,DepthScenes,duration_manipulation_targetAtFixation,jsons/VE125_randls_23.json,http://54.235.29.9/FacialAge/BNav_EC2/DepthDuration/v2_depth_duration_MTurk/v2_DepthDuration_HTML.html#41,41,1366,625,1366,768,8-29-2022,9-42-24,32,depth_duration_stimuli/003048_2014-06-15_13-49-43_094959634447_rgbf000150-resize_1/003048_2014-06-15_13-49-43_094959634447_rgbf000150-resize_1-target.png,125,4.0035,0,1991,124,meters,jsons/VE125_randls_23.json,783039,938258,48,Woman
32,278226,DepthScenes,duration_manipulation_targetAtFixation,jsons/VE125_randls_23.json,http://54.235.29.9/FacialAge/BNav_EC2/DepthDuration/v2_depth_duration_MTurk/v2_DepthDuration_HTML.html#41,41,1366,625,1366,768,8-29-2022,9-42-24,33,depth_duration_stimuli/002763_2014-06-22_19-13-10_094959634447_rgbf000075-resize_4/002763_2014-06-22_19-13-10_094959634447_rgbf000075-resize_4-target.png,125,1.68375,0,2004,110,meters,jsons/VE125_randls_23.json,783039,938258,48,Woman
33,278226,DepthScenes,duration_manipulation_targetAtFixation,jsons/VE125_randls_23.json,http://54.235.29.9/FacialAge/BNav_EC2/DepthDuration/v2_depth_duration_MTurk/v2_DepthDuration_HTML.html#41,41,1366,625,1366,768,8-29-2022,9-42-24,34,depth_duration_stimuli/002209_2014-06-28_18-36-10_260595134347_rgbf000051-resize_1/002209_2014-06-28_18-36-10_260595134347_rgbf000051-resize_1-target.png,125,2.057,0,2044,125,meters,jsons/VE125_randls_23.json,783039,938258,48,Woman
34,278226,DepthScenes,duration_manipulation_targetAtFixation,jsons/VE125_randls_23.json,http://54.235.29.9/FacialAge/BNav_EC2/DepthDuration/v2_depth_duration_MTurk/v2_DepthDuration_HTML.html#41,41,1366,625,1366,768,8-29-2022,9-42-24,35,depth_duration_stimuli/000522_2014-06-08_13-35-06_260595134347_rgbf000244-resize_1/000522_2014-06-08_13-35-06_260595134347_rgbf000244-resize_1-target.png,125,2.3715,0,2017,165,meters,jsons/VE125_randls_23.json,783039,938258,48,Woman
35,278226,DepthScenes,duration_manipulation_targetAtFixation,jsons/VE125_randls_23.json,http://54.235.29.9/FacialAge/BNav_EC2/DepthDuration/v2_depth_duration_MTurk/v2_DepthDuration_HTML.html#41,41,1366,625,1366,768,8-29-2022,9-42-24,36,depth_duration_stimuli/002949_2014-06-26_15-57-42_094959634447_rgbf000079-resize_1/002949_2014-06-26_15-57-42_094959634447_rgbf000079-resize_1-target.png,125,1.8915,0,9005,130,meters,jsons/VE125_randls_23.json,783039,938258,48,Woman
36,278226,DepthScenes,duration_manipulation_targetAtFixation,jsons/VE125_randls_23.json,http://54.235.29.9/FacialAge/BNav_EC2/DepthDuration/v2_depth_duration_MTurk/v2_DepthDuration_HTML.html#41,41,1366,625,1366,768,8-29-2022,9-42-24,37,depth_duration_stimuli/000917_2014-06-09_22-45-29_260595134347_rgbf000149-resize_3/000917_2014-06-09_22-45-29_260595134347_rgbf000149-resize_3-target.png,125,4.1865,0,7156,110,meters,jsons/VE125_randls_23.json,783039,938258,48,Woman
37,278226,DepthScenes,duration_manipulation_targetAtFixation,jsons/VE125_randls_23.json,http://54.235.29.9/FacialAge/BNav_EC2/DepthDuration/v2_depth_duration_MTurk/v2_DepthDuration_HTML.html#41,41,1366,625,1366,768,8-29-2022,9-42-24,38,depth_duration_stimuli/002323_2014-06-28_20-01-54_260595134347_rgbf000051-resize_4/002323_2014-06-28_20-01-54_260595134347_rgbf000051-resize_4-target.png,125,3.7310000000000003,0,2839,128,meters,jsons/VE125_randls_23.json,783039,938258,48,Woman
38,278226,DepthScenes,duration_manipulation_targetAtFixation,jsons/VE125_randls_23.json,http://54.235.29.9/FacialAge/BNav_EC2/DepthDuration/v2_depth_duration_MTurk/v2_DepthDuration_HTML.html#41,41,1366,625,1366,768,8-29-2022,9-42-24,39,depth_duration_stimuli/002549_2014-06-24_13-41-39_094959634447_rgbf000022-resize_3/002549_2014-06-24_13-41-39_094959634447_rgbf000022-resize_3-target.png,125,1.476,0,2600,118,meters,jsons/VE125_randls_23.json,783039,938258,48,Woman
39,278226,DepthScenes,duration_manipulation_targetAtFixation,jsons/VE125_randls_23.json,http://54.235.29.9/FacialAge/BNav_EC2/DepthDuration/v2_depth_duration_MTurk/v2_DepthDuration_HTML.html#41,41,1366,625,1366,768,8-29-2022,9-42-24,40,depth_duration_stimuli/002750_2014-06-22_19-08-03_094959634447_rgbf000094-resize_4/002750_2014-06-22_19-08-03_094959634447_rgbf000094-resize_4-target.png,125,2.354,0,2408,111,meters,jsons/VE125_randls_23.json,783039,938258,48,Woman
40,278226,DepthScenes,duration_manipulation_targetAtFixation,jsons/VE125_randls_23.json,http://54.235.29.9/FacialAge/BNav_EC2/DepthDuration/v2_depth_duration_MTurk/v2_DepthDuration_HTML.html#41,41,1366,625,1366,768,8-29-2022,9-42-24,41,depth_duration_stimuli/002600_2014-06-24_14-27-04_094959634447_rgbf000074-resize_2/002600_2014-06-24_14-27-04_094959634447_rgbf000074-resize_2-target.png,125,2.7575,0,2236,137,meters,jsons/VE125_randls_23.json,783039,938258,48,Woman
41,278226,DepthScenes,duration_manipulation_targetAtFixation,jsons/VE125_randls_23.json,http://54.235.29.9/FacialAge/BNav_EC2/DepthDuration/v2_depth_duration_MTurk/v2_DepthDuration_HTML.html#41,41,1366,625,1366,768,8-29-2022,9-42-24,42,depth_duration_stimuli/003228_2014-05-14_13-42-35_094959634447_rgbf000101-resize_1/003228_2014-05-14_13-42-35_094959634447_rgbf000101-resize_1-target.png,125,1.9680000000000002,0,2266,118,meters,jsons/VE125_randls_23.json,783039,938258,48,Woman
42,278226,DepthScenes,duration_manipulation_targetAtFixation,jsons/VE125_randls_23.json,http://54.235.29.9/FacialAge/BNav_EC2/DepthDuration/v2_depth_duration_MTurk/v2_DepthDuration_HTML.html#41,41,1366,625,1366,768,8-29-2022,9-42-24,43,depth_duration_stimuli/001029_2014-06-08_13-17-57_260595134347_rgbf000065-resize_1/001029_2014-06-08_13-17-57_260595134347_rgbf000065-resize_1-target.png,125,3.0835,0,2235,125,meters,jsons/VE125_randls_23.json,783039,938258,48,Woman
43,278226,DepthScenes,duration_manipulation_targetAtFixation,jsons/VE125_randls_23.json,http://54.235.29.9/FacialAge/BNav_EC2/DepthDuration/v2_depth_duration_MTurk/v2_DepthDuration_HTML.html#41,41,1366,625,1366,768,8-29-2022,9-42-24,44,depth_duration_stimuli/000677_2014-06-08_23-10-32_260595134347_rgbf000158-resize_6/000677_2014-06-08_23-10-32_260595134347_rgbf000158-resize_6-target.png,125,3.556,0,2174,138,meters,jsons/VE125_randls_23.json,783039,938258,48,Woman
44,278226,DepthScenes,duration_manipulation_targetAtFixation,jsons/VE125_randls_23.json,http://54.235.29.9/FacialAge/BNav_EC2/DepthDuration/v2_depth_duration_MTurk/v2_DepthDuration_HTML.html#41,41,1366,625,1366,768,8-29-2022,9-42-24,45,depth_duration_stimuli/000787_2014-06-08_22-33-53_260595134347_rgbf000175-resize_1/000787_2014-06-08_22-33-53_260595134347_rgbf000175-resize-original.jpg,125,4.784,0,2184,123,meters,jsons/VE125_randls_23.json,783039,938258,48,Woman
45,278226,DepthScenes,duration_manipulation_targetAtFixation,jsons/VE125_randls_23.json,http://54.235.29.9/FacialAge/BNav_EC2/DepthDuration/v2_depth_duration_MTurk/v2_DepthDuration_HTML.html#41,41,1366,625,1366,768,8-29-2022,9-42-24,46,depth_duration_stimuli/001110_2014-06-15_17-25-28_260595134347_rgbf000150-resize_1/001110_2014-06-15_17-25-28_260595134347_rgbf000150-resize_1-target.png,125,1.7115,0,2081,124,meters,jsons/VE125_randls_23.json,783039,938258,48,Woman
46,278226,DepthScenes,duration_manipulation_targetAtFixation,jsons/VE125_randls_23.json,http://54.235.29.9/FacialAge/BNav_EC2/DepthDuration/v2_depth_duration_MTurk/v2_DepthDuration_HTML.html#41,41,1366,625,1366,768,8-29-2022,9-42-24,47,depth_duration_stimuli/000927_2014-06-09_16-32-30_260595134347_rgbf000123-resize_3/000927_2014-06-09_16-32-30_260595134347_rgbf000123-resize_3-target.png,125,2.6785,0,3971,125,meters,jsons/VE125_randls_23.json,783039,938258,48,Woman
47,278226,DepthScenes,duration_manipulation_targetAtFixation,jsons/VE125_randls_23.json,http://54.235.29.9/FacialAge/BNav_EC2/DepthDuration/v2_depth_duration_MTurk/v2_DepthDuration_HTML.html#41,41,1366,625,1366,768,8-29-2022,9-42-24,48,depth_duration_stimuli/002663_2014-06-13_15-50-26_094959634447_rgbf000075-resize_1/002663_2014-06-13_15-50-26_094959634447_rgbf000075-resize_1-target.png,125,4.7495,0,136511,125,meters,jsons/VE125_randls_23.json,783039,938258,48,Woman
48,278226,DepthScenes,duration_manipulation_targetAtFixation,jsons/VE125_randls_23.json,http://54.235.29.9/FacialAge/BNav_EC2/DepthDuration/v2_depth_duration_MTurk/v2_DepthDuration_HTML.html#41,41,1366,625,1366,768,8-29-2022,9-42-24,49,depth_duration_stimuli/000409_2014-06-04_19-23-33_260595134347_rgbf000067-resize_0/000409_2014-06-04_19-23-33_260595134347_rgbf000067-resize_0-target.png,125,3.7335,0,2468,120,meters,jsons/VE125_randls_23.json,783039,938258,48,Woman
49,278226,DepthScenes,duration_manipulation_targetAtFixation,jsons/VE125_randls_23.json,http://54.235.29.9/FacialAge/BNav_EC2/DepthDuration/v2_depth_duration_MTurk/v2_DepthDuration_HTML.html#41,41,1366,625,1366,768,8-29-2022,9-42-24,50,depth_duration_stimuli/001417_2014-06-19_16-25-36_260595134347_rgbf000115-resize_5/001417_2014-06-19_16-25-36_260595134347_rgbf000115-resize_5-target.png,125,4.6255,0,15086,119,meters,jsons/VE125_randls_23.json,783039,938258,48,Woman
50,278226,DepthScenes,duration_manipulation_targetAtFixation,jsons/VE125_randls_23.json,http://54.235.29.9/FacialAge/BNav_EC2/DepthDuration/v2_depth_duration_MTurk/v2_DepthDuration_HTML.html#41,41,1366,625,1366,768,8-29-2022,9-42-24,51,depth_duration_stimuli/003081_2014-06-15_15-19-16_094959634447_rgbf000150-resize_1/003081_2014-06-15_15-19-16_094959634447_rgbf000150-resize_1-target.png,125,3.9125,0,19965,127,meters,jsons/VE125_randls_23.json,783039,938258,48,Woman
51,278226,DepthScenes,duration_manipulation_targetAtFixation,jsons/VE125_randls_23.json,http://54.235.29.9/FacialAge/BNav_EC2/DepthDuration/v2_depth_duration_MTurk/v2_DepthDuration_HTML.html#41,41,1366,625,1366,768,8-29-2022,9-42-24,52,depth_duration_stimuli/002057_2014-06-24_21-00-13_260595134347_rgbf000120-resize_1/002057_2014-06-24_21-00-13_260595134347_rgbf000120-resize_1-target.png,125,2.967,0,3121,125,meters,jsons/VE125_randls_23.json,783039,938258,48,Woman
52,278226,DepthScenes,duration_manipulation_targetAtFixation,jsons/VE125_randls_23.json,http://54.235.29.9/FacialAge/BNav_EC2/DepthDuration/v2_depth_duration_MTurk/v2_DepthDuration_HTML.html#41,41,1366,625,1366,768,8-29-2022,9-42-24,53,depth_duration_stimuli/000709_2014-06-08_13-51-55_260595134347_rgbf000068-resize_3/000709_2014-06-08_13-51-55_260595134347_rgbf000068-resize_3-target.png,125,1.8030000000000002,0,2684,127,meters,jsons/VE125_randls_23.json,783039,938258,48,Woman
53,278226,DepthScenes,duration_manipulation_targetAtFixation,jsons/VE125_randls_23.json,http://54.235.29.9/FacialAge/BNav_EC2/DepthDuration/v2_depth_duration_MTurk/v2_DepthDuration_HTML.html#41,41,1366,625,1366,768,8-29-2022,9-42-24,54,depth_duration_stimuli/000788_2014-06-08_22-34-36_260595134347_rgbf000131-resize_1/000788_2014-06-08_22-34-36_260595134347_rgbf000131-resize_1-target.png,125,3.359,0,2779,125,meters,jsons/VE125_randls_23.json,783039,938258,48,Woman
54,278226,DepthScenes,duration_manipulation_targetAtFixation,jsons/VE125_randls_23.json,http://54.235.29.9/FacialAge/BNav_EC2/DepthDuration/v2_depth_duration_MTurk/v2_DepthDuration_HTML.html#41,41,1366,625,1366,768,8-29-2022,9-42-24,55,depth_duration_stimuli/001235_2014-06-17_16-37-36_260595134347_rgbf000084-resize_4/001235_2014-06-17_16-37-36_260595134347_rgbf000084-resize_4-target.png,125,3.6605,0,2471,137,meters,jsons/VE125_randls_23.json,783039,938258,48,Woman
55,278226,DepthScenes,duration_manipulation_targetAtFixation,jsons/VE125_randls_23.json,http://54.235.29.9/FacialAge/BNav_EC2/DepthDuration/v2_depth_duration_MTurk/v2_DepthDuration_HTML.html#41,41,1366,625,1366,768,8-29-2022,9-42-24,56,depth_duration_stimuli/000736_2014-06-08_18-24-15_260595134347_rgbf000206-resize_3/000736_2014-06-08_18-24-15_260595134347_rgbf000206-resize_3-target.png,125,3.515,0,2319,126,meters,jsons/VE125_randls_23.json,783039,938258,48,Woman
56,278226,DepthScenes,duration_manipulation_targetAtFixation,jsons/VE125_randls_23.json,http://54.235.29.9/FacialAge/BNav_EC2/DepthDuration/v2_depth_duration_MTurk/v2_DepthDuration_HTML.html#41,41,1366,625,1366,768,8-29-2022,9-42-24,57,depth_duration_stimuli/000137_2014-05-20_17-04-49_260595134347_rgbf000120-resize_1/000137_2014-05-20_17-04-49_260595134347_rgbf000120-resize_1-target.png,125,3.786,0,2021,125,meters,jsons/VE125_randls_23.json,783039,938258,48,Woman
57,278226,DepthScenes,duration_manipulation_targetAtFixation,jsons/VE125_randls_23.json,http://54.235.29.9/FacialAge/BNav_EC2/DepthDuration/v2_depth_duration_MTurk/v2_DepthDuration_HTML.html#41,41,1366,625,1366,768,8-29-2022,9-42-24,58,depth_duration_stimuli/000009_2014-05-26_14-32-05_260595134347_rgbf000034-resize_3/000009_2014-05-26_14-32-05_260595134347_rgbf000034-resize_3-target.png,125,3.8715,0,19479,137,meters,jsons/VE125_randls_23.json,783039,938258,48,Woman
58,278226,DepthScenes,duration_manipulation_targetAtFixation,jsons/VE125_randls_23.json,http://54.235.29.9/FacialAge/BNav_EC2/DepthDuration/v2_depth_duration_MTurk/v2_DepthDuration_HTML.html#41,41,1366,625,1366,768,8-29-2022,9-42-24,59,depth_duration_stimuli/001828_2014-06-26_21-40-03_260595134347_rgbf000024-resize_0/001828_2014-06-26_21-40-03_260595134347_rgbf000024-resize_0-target.png,125,4.8260000000000005,0,2381,125,meters,jsons/VE125_randls_23.json,783039,938258,48,Woman
59,278226,DepthScenes,duration_manipulation_targetAtFixation,jsons/VE125_randls_23.json,http://54.235.29.9/FacialAge/BNav_EC2/DepthDuration/v2_depth_duration_MTurk/v2_DepthDuration_HTML.html#41,41,1366,625,1366,768,8-29-2022,9-42-24,60,depth_duration_stimuli/002630_2014-06-24_14-47-50_094959634447_rgbf000055-resize_1/002630_2014-06-24_14-47-50_094959634447_rgbf000055-resize_1-target.png,125,3.0095,0,8481,145,meters,jsons/VE125_randls_23.json,783039,938258,48,Woman
60,278226,DepthScenes,duration_manipulation_targetAtFixation,jsons/VE125_randls_23.json,http://54.235.29.9/FacialAge/BNav_EC2/DepthDuration/v2_depth_duration_MTurk/v2_DepthDuration_HTML.html#41,41,1366,625,1366,768,8-29-2022,9-42-24,61,depth_duration_stimuli/002758_2014-06-22_19-11-20_094959634447_rgbf000128-resize_1/002758_2014-06-22_19-11-20_094959634447_rgbf000128-resize_1-target.png,125,2.555,0,2615,124,meters,jsons/VE125_randls_23.json,783039,938258,48,Woman
61,278226,DepthScenes,duration_manipulation_targetAtFixation,jsons/VE125_randls_23.json,http://54.235.29.9/FacialAge/BNav_EC2/DepthDuration/v2_depth_duration_MTurk/v2_DepthDuration_HTML.html#41,41,1366,625,1366,768,8-29-2022,9-42-24,62,depth_duration_stimuli/001167_2014-06-17_15-38-07_260595134347_rgbf000108-resize_0/001167_2014-06-17_15-38-07_260595134347_rgbf000108-resize_0-target.png,125,1.8505,0,2563,117,meters,jsons/VE125_randls_23.json,783039,938258,48,Woman
62,278226,DepthScenes,duration_manipulation_targetAtFixation,jsons/VE125_randls_23.json,http://54.235.29.9/FacialAge/BNav_EC2/DepthDuration/v2_depth_duration_MTurk/v2_DepthDuration_HTML.html#41,41,1366,625,1366,768,8-29-2022,9-42-24,63,depth_duration_stimuli/003587_2014-05-23_16-48-02_094959634447_rgbf002384-resize_2/003587_2014-05-23_16-48-02_094959634447_rgbf002384-resize_2-target.png,125,1.357,0,2284,117,meters,jsons/VE125_randls_23.json,783039,938258,48,Woman
63,278226,DepthScenes,duration_manipulation_targetAtFixation,jsons/VE125_randls_23.json,http://54.235.29.9/FacialAge/BNav_EC2/DepthDuration/v2_depth_duration_MTurk/v2_DepthDuration_HTML.html#41,41,1366,625,1366,768,8-29-2022,9-42-24,64,depth_duration_stimuli/000506_2014-06-08_23-21-00_260595134347_rgbf000070-resize_7/000506_2014-06-08_23-21-00_260595134347_rgbf000070-resize_7-target.png,125,4.0585,0,2720,125,meters,jsons/VE125_randls_23.json,783039,938258,48,Woman
64,278226,DepthScenes,duration_manipulation_targetAtFixation,jsons/VE125_randls_23.json,http://54.235.29.9/FacialAge/BNav_EC2/DepthDuration/v2_depth_duration_MTurk/v2_DepthDuration_HTML.html#41,41,1366,625,1366,768,8-29-2022,9-42-24,65,depth_duration_stimuli/003079_2014-06-15_15-18-20_094959634447_rgbf000152-resize_8/003079_2014-06-15_15-18-20_094959634447_rgbf000152-resize_8-target.png,125,2.8775,0,2486,124,meters,jsons/VE125_randls_23.json,783039,938258,48,Woman
65,278226,DepthScenes,duration_manipulation_targetAtFixation,jsons/VE125_randls_23.json,http://54.235.29.9/FacialAge/BNav_EC2/DepthDuration/v2_depth_duration_MTurk/v2_DepthDuration_HTML.html#41,41,1366,625,1366,768,8-29-2022,9-42-24,66,depth_duration_stimuli/001222_2014-06-17_16-24-06_260595134347_rgbf000073-resize_0/001222_2014-06-17_16-24-06_260595134347_rgbf000073-resize-original.jpg,125,1.4385,0,3199,124,meters,jsons/VE125_randls_23.json,783039,938258,48,Woman
66,278226,DepthScenes,duration_manipulation_targetAtFixation,jsons/VE125_randls_23.json,http://54.235.29.9/FacialAge/BNav_EC2/DepthDuration/v2_depth_duration_MTurk/v2_DepthDuration_HTML.html#41,41,1366,625,1366,768,8-29-2022,9-42-24,67,depth_duration_stimuli/003292_2014-05-14_21-53-49_094959634447_rgbf000100-resize_2/003292_2014-05-14_21-53-49_094959634447_rgbf000100-resize_2-target.png,125,3.4815,0,2319,143,meters,jsons/VE125_randls_23.json,783039,938258,48,Woman
67,278226,DepthScenes,duration_manipulation_targetAtFixation,jsons/VE125_randls_23.json,http://54.235.29.9/FacialAge/BNav_EC2/DepthDuration/v2_depth_duration_MTurk/v2_DepthDuration_HTML.html#41,41,1366,625,1366,768,8-29-2022,9-42-24,68,depth_duration_stimuli/002639_2014-06-24_14-51-37_094959634447_rgbf000074-resize_4/002639_2014-06-24_14-51-37_094959634447_rgbf000074-resize_4-target.png,125,4.0375,0,2297,124,meters,jsons/VE125_randls_23.json,783039,938258,48,Woman
68,278226,DepthScenes,duration_manipulation_targetAtFixation,jsons/VE125_randls_23.json,http://54.235.29.9/FacialAge/BNav_EC2/DepthDuration/v2_depth_duration_MTurk/v2_DepthDuration_HTML.html#41,41,1366,625,1366,768,8-29-2022,9-42-24,69,depth_duration_stimuli/000470_2014-06-09_19-42-40_260595134347_rgbf000094-resize_1/000470_2014-06-09_19-42-40_260595134347_rgbf000094-resize_1-target.png,125,1.831,0,2318,126,meters,jsons/VE125_randls_23.json,783039,938258,48,Woman
69,278226,DepthScenes,duration_manipulation_targetAtFixation,jsons/VE125_randls_23.json,http://54.235.29.9/FacialAge/BNav_EC2/DepthDuration/v2_depth_duration_MTurk/v2_DepthDuration_HTML.html#41,41,1366,625,1366,768,8-29-2022,9-42-24,70,depth_duration_stimuli/000109_2014-05-14_23-41-52_260595134347_rgbf000035-resize_9/000109_2014-05-14_23-41-52_260595134347_rgbf000035-resize_9-target.png,125,1.3545,0,2329,125,meters,jsons/VE125_randls_23.json,783039,938258,48,Woman
70,278226,DepthScenes,duration_manipulation_targetAtFixation,jsons/VE125_randls_23.json,http://54.235.29.9/FacialAge/BNav_EC2/DepthDuration/v2_depth_duration_MTurk/v2_DepthDuration_HTML.html#41,41,1366,625,1366,768,8-29-2022,9-42-24,71,depth_duration_stimuli/002964_2014-06-08_17-46-11_094959634447_rgbf000091-resize_4/002964_2014-06-08_17-46-11_094959634447_rgbf000091-resize_4-target.png,125,1.6909999999999998,0,2516,138,meters,jsons/VE125_randls_23.json,783039,938258,48,Woman
71,278226,DepthScenes,duration_manipulation_targetAtFixation,jsons/VE125_randls_23.json,http://54.235.29.9/FacialAge/BNav_EC2/DepthDuration/v2_depth_duration_MTurk/v2_DepthDuration_HTML.html#41,41,1366,625,1366,768,8-29-2022,9-42-24,72,depth_duration_stimuli/002136_2014-06-25_21-18-03_260595134347_rgbf000109-resize_3/002136_2014-06-25_21-18-03_260595134347_rgbf000109-resize_3-target.png,125,1.9569999999999999,0,2270,126,meters,jsons/VE125_randls_23.json,783039,938258,48,Woman
72,278226,DepthScenes,duration_manipulation_targetAtFixation,jsons/VE125_randls_23.json,http://54.235.29.9/FacialAge/BNav_EC2/DepthDuration/v2_depth_duration_MTurk/v2_DepthDuration_HTML.html#41,41,1366,625,1366,768,8-29-2022,9-42-24,73,depth_duration_stimuli/000739_2014-06-08_18-45-58_260595134347_rgbf000068-resize_1/000739_2014-06-08_18-45-58_260595134347_rgbf000068-resize_1-target.png,125,3.534,0,2283,141,meters,jsons/VE125_randls_23.json,783039,938258,48,Woman
73,278226,DepthScenes,duration_manipulation_targetAtFixation,jsons/VE125_randls_23.json,http://54.235.29.9/FacialAge/BNav_EC2/DepthDuration/v2_depth_duration_MTurk/v2_DepthDuration_HTML.html#41,41,1366,625,1366,768,8-29-2022,9-42-24,74,depth_duration_stimuli/000734_2014-06-08_17-39-11_260595134347_rgbf000128-resize_2/000734_2014-06-08_17-39-11_260595134347_rgbf000128-resize_2-target.png,125,4.098,0,2129,136,meters,jsons/VE125_randls_23.json,783039,938258,48,Woman
74,278226,DepthScenes,duration_manipulation_targetAtFixation,jsons/VE125_randls_23.json,http://54.235.29.9/FacialAge/BNav_EC2/DepthDuration/v2_depth_duration_MTurk/v2_DepthDuration_HTML.html#41,41,1366,625,1366,768,8-29-2022,9-42-24,75,depth_duration_stimuli/000906_2014-06-08_13-35-43_260595134347_rgbf000155-resize_1/000906_2014-06-08_13-35-43_260595134347_rgbf000155-resize_1-target.png,125,2.8489999999999998,0,2458,126,meters,jsons/VE125_randls_23.json,783039,938258,48,Woman
75,278226,DepthScenes,duration_manipulation_targetAtFixation,jsons/VE125_randls_23.json,http://54.235.29.9/FacialAge/BNav_EC2/DepthDuration/v2_depth_duration_MTurk/v2_DepthDuration_HTML.html#41,41,1366,625,1366,768,8-29-2022,9-42-24,76,depth_duration_stimuli/002805_2014-06-22_19-54-03_094959634447_rgbf000079-resize_1/002805_2014-06-22_19-54-03_094959634447_rgbf000079-resize_1-target.png,125,3.1439999999999997,0,2287,123,meters,jsons/VE125_randls_23.json,783039,938258,48,Woman
76,278226,DepthScenes,duration_manipulation_targetAtFixation,jsons/VE125_randls_23.json,http://54.235.29.9/FacialAge/BNav_EC2/DepthDuration/v2_depth_duration_MTurk/v2_DepthDuration_HTML.html#41,41,1366,625,1366,768,8-29-2022,9-42-24,77,depth_duration_stimuli/001244_2014-06-17_16-47-45_260595134347_rgbf000030-resize_4/001244_2014-06-17_16-47-45_260595134347_rgbf000030-resize_4-target.png,125,2.0425,0,6708,125,meters,jsons/VE125_randls_23.json,783039,938258,48,Woman
77,278226,DepthScenes,duration_manipulation_targetAtFixation,jsons/VE125_randls_23.json,http://54.235.29.9/FacialAge/BNav_EC2/DepthDuration/v2_depth_duration_MTurk/v2_DepthDuration_HTML.html#41,41,1366,625,1366,768,8-29-2022,9-42-24,78,depth_duration_stimuli/003495_2014-05-21_16-01-51_094959634447_rgbf000100-resize_3/003495_2014-05-21_16-01-51_094959634447_rgbf000100-resize_3-target.png,125,1.6255,0,4790,128,meters,jsons/VE125_randls_23.json,783039,938258,48,Woman
78,278226,DepthScenes,duration_manipulation_targetAtFixation,jsons/VE125_randls_23.json,http://54.235.29.9/FacialAge/BNav_EC2/DepthDuration/v2_depth_duration_MTurk/v2_DepthDuration_HTML.html#41,41,1366,625,1366,768,8-29-2022,9-42-24,79,depth_duration_stimuli/001806_2014-06-26_20-50-20_260595134347_rgbf000091-resize_1/001806_2014-06-26_20-50-20_260595134347_rgbf000091-resize_1-target.png,125,2.7305,0,2666,114,meters,jsons/VE125_randls_23.json,783039,938258,48,Woman
79,278226,DepthScenes,duration_manipulation_targetAtFixation,jsons/VE125_randls_23.json,http://54.235.29.9/FacialAge/BNav_EC2/DepthDuration/v2_depth_duration_MTurk/v2_DepthDuration_HTML.html#41,41,1366,625,1366,768,8-29-2022,9-42-24,80,depth_duration_stimuli/001617_2014-06-20_11-35-32_260595134347_rgbf000066-resize_1/001617_2014-06-20_11-35-32_260595134347_rgbf000066-resize_1-target.png,125,3.7910000000000004,0,2397,116,meters,jsons/VE125_randls_23.json,783039,938258,48,Woman
80,278226,DepthScenes,duration_manipulation_targetAtFixation,jsons/VE125_randls_23.json,http://54.235.29.9/FacialAge/BNav_EC2/DepthDuration/v2_depth_duration_MTurk/v2_DepthDuration_HTML.html#41,41,1366,625,1366,768,8-29-2022,9-42-24,81,depth_duration_stimuli/000878_2014-06-08_22-52-45_260595134347_rgbf000045-resize_2/000878_2014-06-08_22-52-45_260595134347_rgbf000045-resize_2-target.png,125,2.092,0,2239,125,meters,jsons/VE125_randls_23.json,783039,938258,48,Woman
81,278226,DepthScenes,duration_manipulation_targetAtFixation,jsons/VE125_randls_23.json,http://54.235.29.9/FacialAge/BNav_EC2/DepthDuration/v2_depth_duration_MTurk/v2_DepthDuration_HTML.html#41,41,1366,625,1366,768,8-29-2022,9-42-24,82,depth_duration_stimuli/002953_2014-06-08_17-32-18_094959634447_rgbf000059-resize_5/002953_2014-06-08_17-32-18_094959634447_rgbf000059-resize_5-target.png,125,1.551,0,3019,125,meters,jsons/VE125_randls_23.json,783039,938258,48,Woman
82,278226,DepthScenes,duration_manipulation_targetAtFixation,jsons/VE125_randls_23.json,http://54.235.29.9/FacialAge/BNav_EC2/DepthDuration/v2_depth_duration_MTurk/v2_DepthDuration_HTML.html#41,41,1366,625,1366,768,8-29-2022,9-42-24,83,depth_duration_stimuli/000773_2014-06-08_22-24-54_260595134347_rgbf000093-resize_1/000773_2014-06-08_22-24-54_260595134347_rgbf000093-resize_1-target.png,125,4.973,0,2114,111,meters,jsons/VE125_randls_23.json,783039,938258,48,Woman
83,278226,DepthScenes,duration_manipulation_targetAtFixation,jsons/VE125_randls_23.json,http://54.235.29.9/FacialAge/BNav_EC2/DepthDuration/v2_depth_duration_MTurk/v2_DepthDuration_HTML.html#41,41,1366,625,1366,768,8-29-2022,9-42-24,84,depth_duration_stimuli/002414_2014-06-28_20-24-58_260595134347_rgbf000067-resize_4/002414_2014-06-28_20-24-58_260595134347_rgbf000067-resize_4-target.png,125,4.363,0,2455,126,meters,jsons/VE125_randls_23.json,783039,938258,48,Woman
84,278226,DepthScenes,duration_manipulation_targetAtFixation,jsons/VE125_randls_23.json,http://54.235.29.9/FacialAge/BNav_EC2/DepthDuration/v2_depth_duration_MTurk/v2_DepthDuration_HTML.html#41,41,1366,625,1366,768,8-29-2022,9-42-24,85,depth_duration_stimuli/002039_2014-06-24_20-22-38_260595134347_rgbf000084-resize_1/002039_2014-06-24_20-22-38_260595134347_rgbf000084-resize_1-target.png,125,4.408,0,2283,125,meters,jsons/VE125_randls_23.json,783039,938258,48,Woman
85,278226,DepthScenes,duration_manipulation_targetAtFixation,jsons/VE125_randls_23.json,http://54.235.29.9/FacialAge/BNav_EC2/DepthDuration/v2_depth_duration_MTurk/v2_DepthDuration_HTML.html#41,41,1366,625,1366,768,8-29-2022,9-42-24,86,depth_duration_stimuli/002103_2014-06-25_20-00-40_260595134347_rgbf000049-resize_0/002103_2014-06-25_20-00-40_260595134347_rgbf000049-resize_0-target.png,125,4.105,0,2199,125,meters,jsons/VE125_randls_23.json,783039,938258,48,Woman
86,278226,DepthScenes,duration_manipulation_targetAtFixation,jsons/VE125_randls_23.json,http://54.235.29.9/FacialAge/BNav_EC2/DepthDuration/v2_depth_duration_MTurk/v2_DepthDuration_HTML.html#41,41,1366,625,1366,768,8-29-2022,9-42-24,87,depth_duration_stimuli/002509_2014-06-24_13-19-22_094959634447_rgbf000077-resize_0/002509_2014-06-24_13-19-22_094959634447_rgbf000077-resize_0-target.png,125,1.3065,0,2194,131,meters,jsons/VE125_randls_23.json,783039,938258,48,Woman
87,278226,DepthScenes,duration_manipulation_targetAtFixation,jsons/VE125_randls_23.json,http://54.235.29.9/FacialAge/BNav_EC2/DepthDuration/v2_depth_duration_MTurk/v2_DepthDuration_HTML.html#41,41,1366,625,1366,768,8-29-2022,9-42-24,88,depth_duration_stimuli/003338_2014-05-20_11-01-23_094959634447_rgbf000051-resize_6/003338_2014-05-20_11-01-23_094959634447_rgbf000051-resize_6-target.png,125,1.693,0,2091,122,meters,jsons/VE125_randls_23.json,783039,938258,48,Woman
88,278226,DepthScenes,duration_manipulation_targetAtFixation,jsons/VE125_randls_23.json,http://54.235.29.9/FacialAge/BNav_EC2/DepthDuration/v2_depth_duration_MTurk/v2_DepthDuration_HTML.html#41,41,1366,625,1366,768,8-29-2022,9-42-24,89,depth_duration_stimuli/002725_2014-06-22_11-47-51_094959634447_rgbf000070-resize_1/002725_2014-06-22_11-47-51_094959634447_rgbf000070-resize_1-target.png,125,2.195,0,2160,124,meters,jsons/VE125_randls_23.json,783039,938258,48,Woman
89,278226,DepthScenes,duration_manipulation_targetAtFixation,jsons/VE125_randls_23.json,http://54.235.29.9/FacialAge/BNav_EC2/DepthDuration/v2_depth_duration_MTurk/v2_DepthDuration_HTML.html#41,41,1366,625,1366,768,8-29-2022,9-42-24,90,depth_duration_stimuli/002344_2014-06-28_20-06-29_260595134347_rgbf000030-resize_1/002344_2014-06-28_20-06-29_260595134347_rgbf000030-resize_1-target.png,125,1.5795,0,7700,136,meters,jsons/VE125_randls_23.json,783039,938258,48,Woman
90,278226,DepthScenes,duration_manipulation_targetAtFixation,jsons/VE125_randls_23.json,http://54.235.29.9/FacialAge/BNav_EC2/DepthDuration/v2_depth_duration_MTurk/v2_DepthDuration_HTML.html#41,41,1366,625,1366,768,8-29-2022,9-42-24,91,depth_duration_stimuli/002445_2014-06-28_20-32-16_260595134347_rgbf000029-resize_4/002445_2014-06-28_20-32-16_260595134347_rgbf000029-resize_4-target.png,125,2.5315,0,2279,124,meters,jsons/VE125_randls_23.json,783039,938258,48,Woman
91,278226,DepthScenes,duration_manipulation_targetAtFixation,jsons/VE125_randls_23.json,http://54.235.29.9/FacialAge/BNav_EC2/DepthDuration/v2_depth_duration_MTurk/v2_DepthDuration_HTML.html#41,41,1366,625,1366,768,8-29-2022,9-42-24,92,depth_duration_stimuli/000780_2014-06-08_22-28-29_260595134347_rgbf000126-resize_1/000780_2014-06-08_22-28-29_260595134347_rgbf000126-resize_1-target.png,125,3.3825,0,2508,65,meters,jsons/VE125_randls_23.json,783039,938258,48,Woman
92,278226,DepthScenes,duration_manipulation_targetAtFixation,jsons/VE125_randls_23.json,http://54.235.29.9/FacialAge/BNav_EC2/DepthDuration/v2_depth_duration_MTurk/v2_DepthDuration_HTML.html#41,41,1366,625,1366,768,8-29-2022,9-42-24,93,depth_duration_stimuli/001158_2014-06-17_15-32-16_260595134347_rgbf000138-resize_2/001158_2014-06-17_15-32-16_260595134347_rgbf000138-resize_2-target.png,125,4.5315,0,2450,125,meters,jsons/VE125_randls_23.json,783039,938258,48,Woman
93,278226,DepthScenes,duration_manipulation_targetAtFixation,jsons/VE125_randls_23.json,http://54.235.29.9/FacialAge/BNav_EC2/DepthDuration/v2_depth_duration_MTurk/v2_DepthDuration_HTML.html#41,41,1366,625,1366,768,8-29-2022,9-42-24,94,depth_duration_stimuli/000556_2014-06-09_22-42-56_260595134347_rgbf000214-resize_1/000556_2014-06-09_22-42-56_260595134347_rgbf000214-resize_1-target.png,125,4.8415,0,2238,123,meters,jsons/VE125_randls_23.json,783039,938258,48,Woman
94,278226,DepthScenes,duration_manipulation_targetAtFixation,jsons/VE125_randls_23.json,http://54.235.29.9/FacialAge/BNav_EC2/DepthDuration/v2_depth_duration_MTurk/v2_DepthDuration_HTML.html#41,41,1366,625,1366,768,8-29-2022,9-42-24,95,depth_duration_stimuli/002375_2014-06-28_20-13-44_260595134347_rgbf000032-resize_1/002375_2014-06-28_20-13-44_260595134347_rgbf000032-resize_1-target.png,125,4.0175,0,2412,86,meters,jsons/VE125_randls_23.json,783039,938258,48,Woman
95,278226,DepthScenes,duration_manipulation_targetAtFixation,jsons/VE125_randls_23.json,http://54.235.29.9/FacialAge/BNav_EC2/DepthDuration/v2_depth_duration_MTurk/v2_DepthDuration_HTML.html#41,41,1366,625,1366,768,8-29-2022,9-42-24,96,depth_duration_stimuli/002657_2014-06-13_15-29-54_094959634447_rgbf000150-resize_1/002657_2014-06-13_15-29-54_094959634447_rgbf000150-resize_1-target.png,125,4.919,0,2413,125,meters,jsons/VE125_randls_23.json,783039,938258,48,Woman
96,278226,DepthScenes,duration_manipulation_targetAtFixation,jsons/VE125_randls_23.json,http://54.235.29.9/FacialAge/BNav_EC2/DepthDuration/v2_depth_duration_MTurk/v2_DepthDuration_HTML.html#41,41,1366,625,1366,768,8-29-2022,9-42-24,97,depth_duration_stimuli/000493_2014-06-09_21-01-18_260595134347_rgbf000196-resize_3/000493_2014-06-09_21-01-18_260595134347_rgbf000196-resize_3-target.png,125,3.44,0,2300,124,meters,jsons/VE125_randls_23.json,783039,938258,48,Woman
97,278226,DepthScenes,duration_manipulation_targetAtFixation,jsons/VE125_randls_23.json,http://54.235.29.9/FacialAge/BNav_EC2/DepthDuration/v2_depth_duration_MTurk/v2_DepthDuration_HTML.html#41,41,1366,625,1366,768,8-29-2022,9-42-24,98,depth_duration_stimuli/000191_2014-05-12_17-07-38_260595134347_rgbf000199-resize_0/000191_2014-05-12_17-07-38_260595134347_rgbf000199-resize_0-target.png,125,3.7995,0,2691,131,meters,jsons/VE125_randls_23.json,783039,938258,48,Woman
98,278226,DepthScenes,duration_manipulation_targetAtFixation,jsons/VE125_randls_23.json,http://54.235.29.9/FacialAge/BNav_EC2/DepthDuration/v2_depth_duration_MTurk/v2_DepthDuration_HTML.html#41,41,1366,625,1366,768,8-29-2022,9-42-24,99,depth_duration_stimuli/001540_2014-06-20_17-01-05_260595134347_rgbf000086-resize_2/001540_2014-06-20_17-01-05_260595134347_rgbf000086-resize-original.jpg,125,1.459,0,2459,135,meters,jsons/VE125_randls_23.json,783039,938258,48,Woman
99,278226,DepthScenes,duration_manipulation_targetAtFixation,jsons/VE125_randls_23.json,http://54.235.29.9/FacialAge/BNav_EC2/DepthDuration/v2_depth_duration_MTurk/v2_DepthDuration_HTML.html#41,41,1366,625,1366,768,8-29-2022,9-42-24,100,depth_duration_stimuli/001175_2014-06-17_15-45-55_260595134347_rgbf000129-resize_4/001175_2014-06-17_15-45-55_260595134347_rgbf000129-resize_4-target.png,125,4.255,0,2447,119,meters,jsons/VE125_randls_23.json,783039,938258,48,Woman
100,278226,DepthScenes,duration_manipulation_targetAtFixation,jsons/VE125_randls_23.json,http://54.235.29.9/FacialAge/BNav_EC2/DepthDuration/v2_depth_duration_MTurk/v2_DepthDuration_HTML.html#41,41,1366,625,1366,768,8-29-2022,9-42-24,101,depth_duration_stimuli/003490_2014-05-21_15-50-11_094959634447_rgbf000101-resize_3/003490_2014-05-21_15-50-11_094959634447_rgbf000101-resize_3-target.png,125,3.6445,0,2780,124,meters,jsons/VE125_randls_23.json,783039,938258,48,Woman
101,278226,DepthScenes,duration_manipulation_targetAtFixation,jsons/VE125_randls_23.json,http://54.235.29.9/FacialAge/BNav_EC2/DepthDuration/v2_depth_duration_MTurk/v2_DepthDuration_HTML.html#41,41,1366,625,1366,768,8-29-2022,9-42-24,102,depth_duration_stimuli/000469_2014-06-09_19-42-10_260595134347_rgbf000081-resize_1/000469_2014-06-09_19-42-10_260595134347_rgbf000081-resize_1-target.png,125,1.652,0,2759,129,meters,jsons/VE125_randls_23.json,783039,938258,48,Woman
102,278226,DepthScenes,duration_manipulation_targetAtFixation,jsons/VE125_randls_23.json,http://54.235.29.9/FacialAge/BNav_EC2/DepthDuration/v2_depth_duration_MTurk/v2_DepthDuration_HTML.html#41,41,1366,625,1366,768,8-29-2022,9-42-24,103,depth_duration_stimuli/000483_2014-06-09_20-41-45_260595134347_rgbf000116-resize_4/000483_2014-06-09_20-41-45_260595134347_rgbf000116-resize_4-target.png,125,1.337,0,2291,124,meters,jsons/VE125_randls_23.json,783039,938258,48,Woman
103,278226,DepthScenes,duration_manipulation_targetAtFixation,jsons/VE125_randls_23.json,http://54.235.29.9/FacialAge/BNav_EC2/DepthDuration/v2_depth_duration_MTurk/v2_DepthDuration_HTML.html#41,41,1366,625,1366,768,8-29-2022,9-42-24,104,depth_duration_stimuli/000447_2014-06-08_16-15-46_260595134347_rgbf000130-resize_1/000447_2014-06-08_16-15-46_260595134347_rgbf000130-resize_1-target.png,125,4.479,0,2465,123,meters,jsons/VE125_randls_23.json,783039,938258,48,Woman
104,278226,DepthScenes,duration_manipulation_targetAtFixation,jsons/VE125_randls_23.json,http://54.235.29.9/FacialAge/BNav_EC2/DepthDuration/v2_depth_duration_MTurk/v2_DepthDuration_HTML.html#41,41,1366,625,1366,768,8-29-2022,9-42-24,105,depth_duration_stimuli/001447_2014-06-19_17-00-32_260595134347_rgbf000082-resize_5/001447_2014-06-19_17-00-32_260595134347_rgbf000082-resize_5-target.png,125,4.13775,0,2456,133,meters,jsons/VE125_randls_23.json,783039,938258,48,Woman
105,278226,DepthScenes,duration_manipulation_targetAtFixation,jsons/VE125_randls_23.json,http://54.235.29.9/FacialAge/BNav_EC2/DepthDuration/v2_depth_duration_MTurk/v2_DepthDuration_HTML.html#41,41,1366,625,1366,768,8-29-2022,9-42-24,106,depth_duration_stimuli/000929_2014-06-09_16-33-19_260595134347_rgbf000139-resize_0/000929_2014-06-09_16-33-19_260595134347_rgbf000139-resize_0-target.png,125,2.8680000000000003,0,2235,124,meters,jsons/VE125_randls_23.json,783039,938258,48,Woman
106,278226,DepthScenes,duration_manipulation_targetAtFixation,jsons/VE125_randls_23.json,http://54.235.29.9/FacialAge/BNav_EC2/DepthDuration/v2_depth_duration_MTurk/v2_DepthDuration_HTML.html#41,41,1366,625,1366,768,8-29-2022,9-42-24,107,depth_duration_stimuli/000457_2014-06-08_16-52-43_260595134347_rgbf000199-resize_1/000457_2014-06-08_16-52-43_260595134347_rgbf000199-resize_1-target.png,125,3.6489999999999996,0,2293,128,meters,jsons/VE125_randls_23.json,783039,938258,48,Woman
107,278226,DepthScenes,duration_manipulation_targetAtFixation,jsons/VE125_randls_23.json,http://54.235.29.9/FacialAge/BNav_EC2/DepthDuration/v2_depth_duration_MTurk/v2_DepthDuration_HTML.html#41,41,1366,625,1366,768,8-29-2022,9-42-24,108,depth_duration_stimuli/001810_2014-06-26_20-51-35_260595134347_rgbf000040-resize_3/001810_2014-06-26_20-51-35_260595134347_rgbf000040-resize_3-target.png,125,2.2525,0,2167,113,meters,jsons/VE125_randls_23.json,783039,938258,48,Woman
108,278226,DepthScenes,duration_manipulation_targetAtFixation,jsons/VE125_randls_23.json,http://54.235.29.9/FacialAge/BNav_EC2/DepthDuration/v2_depth_duration_MTurk/v2_DepthDuration_HTML.html#41,41,1366,625,1366,768,8-29-2022,9-42-24,109,depth_duration_stimuli/003010_2014-06-15_12-54-35_094959634447_rgbf000112-resize_0/003010_2014-06-15_12-54-35_094959634447_rgbf000112-resize_0-target.png,125,3.1185,0,3860,124,meters,jsons/VE125_randls_23.json,783039,938258,48,Woman
109,278226,DepthScenes,duration_manipulation_targetAtFixation,jsons/VE125_randls_23.json,http://54.235.29.9/FacialAge/BNav_EC2/DepthDuration/v2_depth_duration_MTurk/v2_DepthDuration_HTML.html#41,41,1366,625,1366,768,8-29-2022,9-42-24,110,depth_duration_stimuli/002784_2014-06-22_19-26-30_094959634447_rgbf000083-resize_3/002784_2014-06-22_19-26-30_094959634447_rgbf000083-resize_3-target.png,125,1.8046666666667,0,2488,127,meters,jsons/VE125_randls_23.json,783039,938258,48,Woman
110,278226,DepthScenes,duration_manipulation_targetAtFixation,jsons/VE125_randls_23.json,http://54.235.29.9/FacialAge/BNav_EC2/DepthDuration/v2_depth_duration_MTurk/v2_DepthDuration_HTML.html#41,41,1366,625,1366,768,8-29-2022,9-42-24,111,depth_duration_stimuli/001100_2014-06-15_17-46-26_260595134347_rgbf000225-resize_2/001100_2014-06-15_17-46-26_260595134347_rgbf000225-resize_2-target.png,125,2.24,0,2031,130,meters,jsons/VE125_randls_23.json,783039,938258,48,Woman
111,278226,DepthScenes,duration_manipulation_targetAtFixation,jsons/VE125_randls_23.json,http://54.235.29.9/FacialAge/BNav_EC2/DepthDuration/v2_depth_duration_MTurk/v2_DepthDuration_HTML.html#41,41,1366,625,1366,768,8-29-2022,9-42-24,112,depth_duration_stimuli/000810_2014-06-08_17-20-01_260595134347_rgbf000105-resize_0/000810_2014-06-08_17-20-01_260595134347_rgbf000105-resize_0-target.png,125,1.4865,0,2136,122,meters,jsons/VE125_randls_23.json,783039,938258,48,Woman
112,278226,DepthScenes,duration_manipulation_targetAtFixation,jsons/VE125_randls_23.json,http://54.235.29.9/FacialAge/BNav_EC2/DepthDuration/v2_depth_duration_MTurk/v2_DepthDuration_HTML.html#41,41,1366,625,1366,768,8-29-2022,9-42-24,113,depth_duration_stimuli/001214_2014-06-17_16-13-55_260595134347_rgbf000111-resize_0/001214_2014-06-17_16-13-55_260595134347_rgbf000111-resize_0-target.png,125,2.6505,0,1989,135,meters,jsons/VE125_randls_23.json,783039,938258,48,Woman
113,278226,DepthScenes,duration_manipulation_targetAtFixation,jsons/VE125_randls_23.json,http://54.235.29.9/FacialAge/BNav_EC2/DepthDuration/v2_depth_duration_MTurk/v2_DepthDuration_HTML.html#41,41,1366,625,1366,768,8-29-2022,9-42-24,114,depth_duration_stimuli/000692_2014-06-08_13-09-42_260595134347_rgbf000199-resize_2/000692_2014-06-08_13-09-42_260595134347_rgbf000199-resize_2-target.png,125,3.661,0,2006,130,meters,jsons/VE125_randls_23.json,783039,938258,48,Woman
114,278226,DepthScenes,duration_manipulation_targetAtFixation,jsons/VE125_randls_23.json,http://54.235.29.9/FacialAge/BNav_EC2/DepthDuration/v2_depth_duration_MTurk/v2_DepthDuration_HTML.html#41,41,1366,625,1366,768,8-29-2022,9-42-24,115,depth_duration_stimuli/001094_2014-06-15_17-36-00_260595134347_rgbf000205-resize_0/001094_2014-06-15_17-36-00_260595134347_rgbf000205-resize_0-target.png,125,4.2175,0,1970,125,meters,jsons/VE125_randls_23.json,783039,938258,48,Woman
115,278226,DepthScenes,duration_manipulation_targetAtFixation,jsons/VE125_randls_23.json,http://54.235.29.9/FacialAge/BNav_EC2/DepthDuration/v2_depth_duration_MTurk/v2_DepthDuration_HTML.html#41,41,1366,625,1366,768,8-29-2022,9-42-24,116,depth_duration_stimuli/001170_2014-06-17_15-43-44_260595134347_rgbf000096-resize_6/001170_2014-06-17_15-43-44_260595134347_rgbf000096-resize-original.jpg,125,1.1909999999999998,0,2176,143,meters,jsons/VE125_randls_23.json,783039,938258,48,Woman
116,278226,DepthScenes,duration_manipulation_targetAtFixation,jsons/VE125_randls_23.json,http://54.235.29.9/FacialAge/BNav_EC2/DepthDuration/v2_depth_duration_MTurk/v2_DepthDuration_HTML.html#41,41,1366,625,1366,768,8-29-2022,9-42-24,117,depth_duration_stimuli/001133_2014-06-17_14-49-16_260595134347_rgbf000100-resize_0/001133_2014-06-17_14-49-16_260595134347_rgbf000100-resize_0-target.png,125,4.2115,0,4098,126,meters,jsons/VE125_randls_23.json,783039,938258,48,Woman
117,278226,DepthScenes,duration_manipulation_targetAtFixation,jsons/VE125_randls_23.json,http://54.235.29.9/FacialAge/BNav_EC2/DepthDuration/v2_depth_duration_MTurk/v2_DepthDuration_HTML.html#41,41,1366,625,1366,768,8-29-2022,9-42-24,118,depth_duration_stimuli/001132_2014-06-17_14-48-54_260595134347_rgbf000100-resize_2/001132_2014-06-17_14-48-54_260595134347_rgbf000100-resize_2-target.png,125,3.753,0,2884,125,meters,jsons/VE125_randls_23.json,783039,938258,48,Woman
118,278226,DepthScenes,duration_manipulation_targetAtFixation,jsons/VE125_randls_23.json,http://54.235.29.9/FacialAge/BNav_EC2/DepthDuration/v2_depth_duration_MTurk/v2_DepthDuration_HTML.html#41,41,1366,625,1366,768,8-29-2022,9-42-24,119,depth_duration_stimuli/001016_2014-06-09_16-16-10_260595134347_rgbf000112-resize_5/001016_2014-06-09_16-16-10_260595134347_rgbf000112-resize_5-target.png,125,1.6565,0,2690,125,meters,jsons/VE125_randls_23.json,783039,938258,48,Woman
119,278226,DepthScenes,duration_manipulation_targetAtFixation,jsons/VE125_randls_23.json,http://54.235.29.9/FacialAge/BNav_EC2/DepthDuration/v2_depth_duration_MTurk/v2_DepthDuration_HTML.html#41,41,1366,625,1366,768,8-29-2022,9-42-24,120,depth_duration_stimuli/002340_2014-06-28_20-05-46_260595134347_rgbf000113-resize_0/002340_2014-06-28_20-05-46_260595134347_rgbf000113-resize_0-target.png,125,2.4735,0,2712,122,meters,jsons/VE125_randls_23.json,783039,938258,48,Woman
120,278226,DepthScenes,duration_manipulation_targetAtFixation,jsons/VE125_randls_23.json,http://54.235.29.9/FacialAge/BNav_EC2/DepthDuration/v2_depth_duration_MTurk/v2_DepthDuration_HTML.html#41,41,1366,625,1366,768,8-29-2022,9-42-24,121,depth_duration_stimuli/002279_2014-06-28_18-55-32_260595134347_rgbf000040-resize_5/002279_2014-06-28_18-55-32_260595134347_rgbf000040-resize_5-target.png,125,1.5043333333333,0,2685,124,meters,jsons/VE125_randls_23.json,783039,938258,48,Woman
121,278226,DepthScenes,duration_manipulation_targetAtFixation,jsons/VE125_randls_23.json,http://54.235.29.9/FacialAge/BNav_EC2/DepthDuration/v2_depth_duration_MTurk/v2_DepthDuration_HTML.html#41,41,1366,625,1366,768,8-29-2022,9-42-24,122,depth_duration_stimuli/000635_2014-06-08_16-38-42_260595134347_rgbf000106-resize_1/000635_2014-06-08_16-38-42_260595134347_rgbf000106-resize_1-target.png,125,2.074,0,2510,126,meters,jsons/VE125_randls_23.json,783039,938258,48,Woman
122,278226,DepthScenes,duration_manipulation_targetAtFixation,jsons/VE125_randls_23.json,http://54.235.29.9/FacialAge/BNav_EC2/DepthDuration/v2_depth_duration_MTurk/v2_DepthDuration_HTML.html#41,41,1366,625,1366,768,8-29-2022,9-42-24,123,depth_duration_stimuli/001059_2014-06-08_21-53-27_260595134347_rgbf000061-resize_4/001059_2014-06-08_21-53-27_260595134347_rgbf000061-resize_4-target.png,125,2.4185,0,2120,125,meters,jsons/VE125_randls_23.json,783039,938258,48,Woman
123,278226,DepthScenes,duration_manipulation_targetAtFixation,jsons/VE125_randls_23.json,http://54.235.29.9/FacialAge/BNav_EC2/DepthDuration/v2_depth_duration_MTurk/v2_DepthDuration_HTML.html#41,41,1366,625,1366,768,8-29-2022,9-42-24,124,depth_duration_stimuli/001032_2014-06-08_13-23-17_260595134347_rgbf000021-resize_3/001032_2014-06-08_13-23-17_260595134347_rgbf000021-resize_3-target.png,125,3.2725,0,2026,125,meters,jsons/VE125_randls_23.json,783039,938258,48,Woman
124,278226,DepthScenes,duration_manipulation_targetAtFixation,jsons/VE125_randls_23.json,http://54.235.29.9/FacialAge/BNav_EC2/DepthDuration/v2_depth_duration_MTurk/v2_DepthDuration_HTML.html#41,41,1366,625,1366,768,8-29-2022,9-42-24,125,depth_duration_stimuli/001066_2014-06-08_22-03-20_260595134347_rgbf000066-resize_4/001066_2014-06-08_22-03-20_260595134347_rgbf000066-resize_4-target.png,125,4.2330000000000005,0,2451,125,meters,jsons/VE125_randls_23.json,783039,938258,48,Woman
125,278226,DepthScenes,duration_manipulation_targetAtFixation,jsons/VE125_randls_23.json,http://54.235.29.9/FacialAge/BNav_EC2/DepthDuration/v2_depth_duration_MTurk/v2_DepthDuration_HTML.html#41,41,1366,625,1366,768,8-29-2022,9-42-24,126,depth_duration_stimuli/000742_2014-06-08_18-48-09_260595134347_rgbf000164-resize_4/000742_2014-06-08_18-48-09_260595134347_rgbf000164-resize_4-target.png,125,4.632,0,2140,124,meters,jsons/VE125_randls_23.json,783039,938258,48,Woman
126,278226,DepthScenes,duration_manipulation_targetAtFixation,jsons/VE125_randls_23.json,http://54.235.29.9/FacialAge/BNav_EC2/DepthDuration/v2_depth_duration_MTurk/v2_DepthDuration_HTML.html#41,41,1366,625,1366,768,8-29-2022,9-42-24,127,depth_duration_stimuli/000368_2014-06-09_15-53-01_260595134347_rgbf000155-resize_2/000368_2014-06-09_15-53-01_260595134347_rgbf000155-resize_2-target.png,125,2.4859999999999998,0,2363,107,meters,jsons/VE125_randls_23.json,783039,938258,48,Woman
127,278226,DepthScenes,duration_manipulation_targetAtFixation,jsons/VE125_randls_23.json,http://54.235.29.9/FacialAge/BNav_EC2/DepthDuration/v2_depth_duration_MTurk/v2_DepthDuration_HTML.html#41,41,1366,625,1366,768,8-29-2022,9-42-24,128,depth_duration_stimuli/002678_2014-06-13_16-15-32_094959634447_rgbf000151-resize_6/002678_2014-06-13_16-15-32_094959634447_rgbf000151-resize_6-target.png,125,2.1830000000000003,0,2777,115,meters,jsons/VE125_randls_23.json,783039,938258,48,Woman
128,278226,DepthScenes,duration_manipulation_targetAtFixation,jsons/VE125_randls_23.json,http://54.235.29.9/FacialAge/BNav_EC2/DepthDuration/v2_depth_duration_MTurk/v2_DepthDuration_HTML.html#41,41,1366,625,1366,768,8-29-2022,9-42-24,129,depth_duration_stimuli/000758_2014-06-08_22-05-08_260595134347_rgbf000085-resize_0/000758_2014-06-08_22-05-08_260595134347_rgbf000085-resize_0-target.png,125,3.3810000000000002,0,2198,123,meters,jsons/VE125_randls_23.json,783039,938258,48,Woman
129,278226,DepthScenes,duration_manipulation_targetAtFixation,jsons/VE125_randls_23.json,http://54.235.29.9/FacialAge/BNav_EC2/DepthDuration/v2_depth_duration_MTurk/v2_DepthDuration_HTML.html#41,41,1366,625,1366,768,8-29-2022,9-42-24,130,depth_duration_stimuli/000854_2014-06-09_19-43-13_260595134347_rgbf000066-resize_0/000854_2014-06-09_19-43-13_260595134347_rgbf000066-resize_0-target.png,125,3.068,0,46029,116,meters,jsons/VE125_randls_23.json,783039,938258,48,Woman
130,278226,DepthScenes,duration_manipulation_targetAtFixation,jsons/VE125_randls_23.json,http://54.235.29.9/FacialAge/BNav_EC2/DepthDuration/v2_depth_duration_MTurk/v2_DepthDuration_HTML.html#41,41,1366,625,1366,768,8-29-2022,9-42-24,131,depth_duration_stimuli/003492_2014-05-21_15-50-55_094959634447_rgbf000828-resize_1/003492_2014-05-21_15-50-55_094959634447_rgbf000828-resize_1-target.png,125,4.06875,0,2498,124,meters,jsons/VE125_randls_23.json,783039,938258,48,Woman
131,278226,DepthScenes,duration_manipulation_targetAtFixation,jsons/VE125_randls_23.json,http://54.235.29.9/FacialAge/BNav_EC2/DepthDuration/v2_depth_duration_MTurk/v2_DepthDuration_HTML.html#41,41,1366,625,1366,768,8-29-2022,9-42-24,132,depth_duration_stimuli/002568_2014-06-24_13-59-21_094959634447_rgbf000062-resize_4/002568_2014-06-24_13-59-21_094959634447_rgbf000062-resize_4-target.png,125,3.015,0,2767,124,meters,jsons/VE125_randls_23.json,783039,938258,48,Woman
132,278226,DepthScenes,duration_manipulation_targetAtFixation,jsons/VE125_randls_23.json,http://54.235.29.9/FacialAge/BNav_EC2/DepthDuration/v2_depth_duration_MTurk/v2_DepthDuration_HTML.html#41,41,1366,625,1366,768,8-29-2022,9-42-24,133,depth_duration_stimuli/002788_2014-06-22_19-36-03_094959634447_rgbf000088-resize_2/002788_2014-06-22_19-36-03_094959634447_rgbf000088-resize_2-target.png,125,1.6465,0,2650,125,meters,jsons/VE125_randls_23.json,783039,938258,48,Woman
133,278226,DepthScenes,duration_manipulation_targetAtFixation,jsons/VE125_randls_23.json,http://54.235.29.9/FacialAge/BNav_EC2/DepthDuration/v2_depth_duration_MTurk/v2_DepthDuration_HTML.html#41,41,1366,625,1366,768,8-29-2022,9-42-24,134,depth_duration_stimuli/000749_2014-06-08_21-55-06_260595134347_rgbf000070-resize_2/000749_2014-06-08_21-55-06_260595134347_rgbf000070-resize_2-target.png,125,2.331,0,2619,132,meters,jsons/VE125_randls_23.json,783039,938258,48,Woman
134,278226,DepthScenes,duration_manipulation_targetAtFixation,jsons/VE125_randls_23.json,http://54.235.29.9/FacialAge/BNav_EC2/DepthDuration/v2_depth_duration_MTurk/v2_DepthDuration_HTML.html#41,41,1366,625,1366,768,8-29-2022,9-42-24,135,depth_duration_stimuli/002072_2014-06-24_21-48-06_260595134347_rgbf000115-resize_0/002072_2014-06-24_21-48-06_260595134347_rgbf000115-resize-original.jpg,125,4.702,0,2730,125,meters,jsons/VE125_randls_23.json,783039,938258,48,Woman
135,278226,DepthScenes,duration_manipulation_targetAtFixation,jsons/VE125_randls_23.json,http://54.235.29.9/FacialAge/BNav_EC2/DepthDuration/v2_depth_duration_MTurk/v2_DepthDuration_HTML.html#41,41,1366,625,1366,768,8-29-2022,9-42-24,136,depth_duration_stimuli/002570_2014-06-24_13-59-54_094959634447_rgbf000059-resize_0/002570_2014-06-24_13-59-54_094959634447_rgbf000059-resize_0-target.png,125,4.037,0,2728,124,meters,jsons/VE125_randls_23.json,783039,938258,48,Woman
136,278226,DepthScenes,duration_manipulation_targetAtFixation,jsons/VE125_randls_23.json,http://54.235.29.9/FacialAge/BNav_EC2/DepthDuration/v2_depth_duration_MTurk/v2_DepthDuration_HTML.html#41,41,1366,625,1366,768,8-29-2022,9-42-24,137,depth_duration_stimuli/002467_2014-06-28_20-38-07_260595134347_rgbf000026-resize_2/002467_2014-06-28_20-38-07_260595134347_rgbf000026-resize_2-target.png,125,4.742,0,2655,80,meters,jsons/VE125_randls_23.json,783039,938258,48,Woman
137,278226,DepthScenes,duration_manipulation_targetAtFixation,jsons/VE125_randls_23.json,http://54.235.29.9/FacialAge/BNav_EC2/DepthDuration/v2_depth_duration_MTurk/v2_DepthDuration_HTML.html#41,41,1366,625,1366,768,8-29-2022,9-42-24,138,depth_duration_stimuli/001555_2014-06-20_17-12-10_260595134347_rgbf000065-resize_4/001555_2014-06-20_17-12-10_260595134347_rgbf000065-resize_4-target.png,125,1.633,0,3461,143,meters,jsons/VE125_randls_23.json,783039,938258,48,Woman
138,278226,DepthScenes,duration_manipulation_targetAtFixation,jsons/VE125_randls_23.json,http://54.235.29.9/FacialAge/BNav_EC2/DepthDuration/v2_depth_duration_MTurk/v2_DepthDuration_HTML.html#41,41,1366,625,1366,768,8-29-2022,9-42-24,139,depth_duration_stimuli/000103_2014-05-14_22-01-17_260595134347_rgbf000152-resize_5/000103_2014-05-14_22-01-17_260595134347_rgbf000152-resize_5-target.png,125,1.993,0,2735,126,meters,jsons/VE125_randls_23.json,783039,938258,48,Woman
139,278226,DepthScenes,duration_manipulation_targetAtFixation,jsons/VE125_randls_23.json,http://54.235.29.9/FacialAge/BNav_EC2/DepthDuration/v2_depth_duration_MTurk/v2_DepthDuration_HTML.html#41,41,1366,625,1366,768,8-29-2022,9-42-24,140,depth_duration_stimuli/001164_2014-06-17_15-35-46_260595134347_rgbf000085-resize_3/001164_2014-06-17_15-35-46_260595134347_rgbf000085-resize_3-target.png,125,2.354,0,9185,123,meters,jsons/VE125_randls_23.json,783039,938258,48,Woman
140,278226,DepthScenes,duration_manipulation_targetAtFixation,jsons/VE125_randls_23.json,http://54.235.29.9/FacialAge/BNav_EC2/DepthDuration/v2_depth_duration_MTurk/v2_DepthDuration_HTML.html#41,41,1366,625,1366,768,8-29-2022,9-42-24,141,depth_duration_stimuli/001136_2014-06-17_15-19-41_260595134347_rgbf000076-resize_3/001136_2014-06-17_15-19-41_260595134347_rgbf000076-resize_3-target.png,125,1.8655,0,5193,108,meters,jsons/VE125_randls_23.json,783039,938258,48,Woman
141,278226,DepthScenes,duration_manipulation_targetAtFixation,jsons/VE125_randls_23.json,http://54.235.29.9/FacialAge/BNav_EC2/DepthDuration/v2_depth_duration_MTurk/v2_DepthDuration_HTML.html#41,41,1366,625,1366,768,8-29-2022,9-42-24,142,depth_duration_stimuli/002213_2014-06-28_18-37-58_260595134347_rgbf000055-resize_1/002213_2014-06-28_18-37-58_260595134347_rgbf000055-resize_1-target.png,125,3.62,0,2419,125,meters,jsons/VE125_randls_23.json,783039,938258,48,Woman
142,278226,DepthScenes,duration_manipulation_targetAtFixation,jsons/VE125_randls_23.json,http://54.235.29.9/FacialAge/BNav_EC2/DepthDuration/v2_depth_duration_MTurk/v2_DepthDuration_HTML.html#41,41,1366,625,1366,768,8-29-2022,9-42-24,143,depth_duration_stimuli/000691_2014-06-08_13-08-50_260595134347_rgbf000132-resize_3/000691_2014-06-08_13-08-50_260595134347_rgbf000132-resize_3-target.png,125,4.1530000000000005,0,2426,127,meters,jsons/VE125_randls_23.json,783039,938258,48,Woman
143,278226,DepthScenes,duration_manipulation_targetAtFixation,jsons/VE125_randls_23.json,http://54.235.29.9/FacialAge/BNav_EC2/DepthDuration/v2_depth_duration_MTurk/v2_DepthDuration_HTML.html#41,41,1366,625,1366,768,8-29-2022,9-42-24,144,depth_duration_stimuli/002989_2014-06-15_12-25-03_094959634447_rgbf000150-resize_3/002989_2014-06-15_12-25-03_094959634447_rgbf000150-resize_3-target.png,125,4.1975,0,2192,126,meters,jsons/VE125_randls_23.json,783039,938258,48,Woman
144,278226,DepthScenes,duration_manipulation_targetAtFixation,jsons/VE125_randls_23.json,http://54.235.29.9/FacialAge/BNav_EC2/DepthDuration/v2_depth_duration_MTurk/v2_DepthDuration_HTML.html#41,41,1366,625,1366,768,8-29-2022,9-42-24,145,depth_duration_stimuli/000866_2014-06-09_20-45-42_260595134347_rgbf000139-resize_1/000866_2014-06-09_20-45-42_260595134347_rgbf000139-resize_1-target.png,125,3.2155,0,2498,124,meters,jsons/VE125_randls_23.json,783039,938258,48,Woman
145,278226,DepthScenes,duration_manipulation_targetAtFixation,jsons/VE125_randls_23.json,http://54.235.29.9/FacialAge/BNav_EC2/DepthDuration/v2_depth_duration_MTurk/v2_DepthDuration_HTML.html#41,41,1366,625,1366,768,8-29-2022,9-42-24,146,depth_duration_stimuli/001498_2014-06-19_17-45-14_260595134347_rgbf000129-resize_4/001498_2014-06-19_17-45-14_260595134347_rgbf000129-resize-original.jpg,125,1.4075,0,2426,123,meters,jsons/VE125_randls_23.json,783039,938258,48,Woman
146,278226,DepthScenes,duration_manipulation_targetAtFixation,jsons/VE125_randls_23.json,http://54.235.29.9/FacialAge/BNav_EC2/DepthDuration/v2_depth_duration_MTurk/v2_DepthDuration_HTML.html#41,41,1366,625,1366,768,8-29-2022,9-42-24,147,depth_duration_stimuli/002118_2014-06-25_20-32-08_260595134347_rgbf000078-resize_1/002118_2014-06-25_20-32-08_260595134347_rgbf000078-resize_1-target.png,125,2.6460000000000004,0,3155,126,meters,jsons/VE125_randls_23.json,783039,938258,48,Woman
147,278226,DepthScenes,duration_manipulation_targetAtFixation,jsons/VE125_randls_23.json,http://54.235.29.9/FacialAge/BNav_EC2/DepthDuration/v2_depth_duration_MTurk/v2_DepthDuration_HTML.html#41,41,1366,625,1366,768,8-29-2022,9-42-24,148,depth_duration_stimuli/001516_2014-06-20_16-25-09_260595134347_rgbf000076-resize_2/001516_2014-06-20_16-25-09_260595134347_rgbf000076-resize_2-target.png,125,1.7445,0,2221,128,meters,jsons/VE125_randls_23.json,783039,938258,48,Woman
148,278226,DepthScenes,duration_manipulation_targetAtFixation,jsons/VE125_randls_23.json,http://54.235.29.9/FacialAge/BNav_EC2/DepthDuration/v2_depth_duration_MTurk/v2_DepthDuration_HTML.html#41,41,1366,625,1366,768,8-29-2022,9-42-24,149,depth_duration_stimuli/002272_2014-06-28_18-53-56_260595134347_rgbf000067-resize_2/002272_2014-06-28_18-53-56_260595134347_rgbf000067-resize_2-target.png,125,1.138,0,4728,120,meters,jsons/VE125_randls_23.json,783039,938258,48,Woman
149,278226,DepthScenes,duration_manipulation_targetAtFixation,jsons/VE125_randls_23.json,http://54.235.29.9/FacialAge/BNav_EC2/DepthDuration/v2_depth_duration_MTurk/v2_DepthDuration_HTML.html#41,41,1366,625,1366,768,8-29-2022,9-42-24,150,depth_duration_stimuli/001571_2014-06-20_17-21-32_260595134347_rgbf000089-resize_1/001571_2014-06-20_17-21-32_260595134347_rgbf000089-resize_1-target.png,125,1.86,0,2159,126,meters,jsons/VE125_randls_23.json,783039,938258,48,Woman
150,278226,DepthScenes,duration_manipulation_targetAtFixation,jsons/VE125_randls_23.json,http://54.235.29.9/FacialAge/BNav_EC2/DepthDuration/v2_depth_duration_MTurk/v2_DepthDuration_HTML.html#41,41,1366,625,1366,768,8-29-2022,9-42-24,151,depth_duration_stimuli/001055_2014-06-08_18-45-35_260595134347_rgbf000111-resize_4/001055_2014-06-08_18-45-35_260595134347_rgbf000111-resize_4-target.png,125,2.4290000000000003,0,2348,130,meters,jsons/VE125_randls_23.json,783039,938258,48,Woman
151,278226,DepthScenes,duration_manipulation_targetAtFixation,jsons/VE125_randls_23.json,http://54.235.29.9/FacialAge/BNav_EC2/DepthDuration/v2_depth_duration_MTurk/v2_DepthDuration_HTML.html#41,41,1366,625,1366,768,8-29-2022,9-42-24,152,depth_duration_stimuli/000549_2014-06-08_22-10-24_260595134347_rgbf000247-resize_3/000549_2014-06-08_22-10-24_260595134347_rgbf000247-resize_3-target.png,125,1.841,0,2343,125,meters,jsons/VE125_randls_23.json,783039,938258,48,Woman
152,278226,DepthScenes,duration_manipulation_targetAtFixation,jsons/VE125_randls_23.json,http://54.235.29.9/FacialAge/BNav_EC2/DepthDuration/v2_depth_duration_MTurk/v2_DepthDuration_HTML.html#41,41,1366,625,1366,768,8-29-2022,9-42-24,153,depth_duration_stimuli/002748_2014-06-22_19-07-22_094959634447_rgbf000078-resize_1/002748_2014-06-22_19-07-22_094959634447_rgbf000078-resize_1-target.png,125,4.6705,0,2385,123,meters,jsons/VE125_randls_23.json,783039,938258,48,Woman
153,278226,DepthScenes,duration_manipulation_targetAtFixation,jsons/VE125_randls_23.json,http://54.235.29.9/FacialAge/BNav_EC2/DepthDuration/v2_depth_duration_MTurk/v2_DepthDuration_HTML.html#41,41,1366,625,1366,768,8-29-2022,9-42-24,154,depth_duration_stimuli/002995_2014-06-15_12-31-26_094959634447_rgbf000150-resize_1/002995_2014-06-15_12-31-26_094959634447_rgbf000150-resize_1-target.png,125,3.8360000000000003,0,2512,124,meters,jsons/VE125_randls_23.json,783039,938258,48,Woman
154,278226,DepthScenes,duration_manipulation_targetAtFixation,jsons/VE125_randls_23.json,http://54.235.29.9/FacialAge/BNav_EC2/DepthDuration/v2_depth_duration_MTurk/v2_DepthDuration_HTML.html#41,41,1366,625,1366,768,8-29-2022,9-42-24,155,depth_duration_stimuli/001808_2014-06-26_20-50-58_260595134347_rgbf000029-resize_1/001808_2014-06-26_20-50-58_260595134347_rgbf000029-resize_1-target.png,125,4.249,0,2497,127,meters,jsons/VE125_randls_23.json,783039,938258,48,Woman
155,278226,DepthScenes,duration_manipulation_targetAtFixation,jsons/VE125_randls_23.json,http://54.235.29.9/FacialAge/BNav_EC2/DepthDuration/v2_depth_duration_MTurk/v2_DepthDuration_HTML.html#41,41,1366,625,1366,768,8-29-2022,9-42-24,156,depth_duration_stimuli/001815_2014-06-26_20-52-55_260595134347_rgbf000020-resize_0/001815_2014-06-26_20-52-55_260595134347_rgbf000020-resize_0-target.png,125,3.3865,0,2380,124,meters,jsons/VE125_randls_23.json,783039,938258,48,Woman
156,278226,DepthScenes,duration_manipulation_targetAtFixation,jsons/VE125_randls_23.json,http://54.235.29.9/FacialAge/BNav_EC2/DepthDuration/v2_depth_duration_MTurk/v2_DepthDuration_HTML.html#41,41,1366,625,1366,768,8-29-2022,9-42-24,157,depth_duration_stimuli/001570_2014-06-20_17-21-09_260595134347_rgbf000135-resize_4/001570_2014-06-20_17-21-09_260595134347_rgbf000135-resize_4-target.png,125,4.467,0,2319,117,meters,jsons/VE125_randls_23.json,783039,938258,48,Woman
157,278226,DepthScenes,duration_manipulation_targetAtFixation,jsons/VE125_randls_23.json,http://54.235.29.9/FacialAge/BNav_EC2/DepthDuration/v2_depth_duration_MTurk/v2_DepthDuration_HTML.html#41,41,1366,625,1366,768,8-29-2022,9-42-24,158,depth_duration_stimuli/001392_2014-06-19_16-07-59_260595134347_rgbf000046-resize_1/001392_2014-06-19_16-07-59_260595134347_rgbf000046-resize_1-target.png,125,4.135,0,2271,124,meters,jsons/VE125_randls_23.json,783039,938258,48,Woman
158,278226,DepthScenes,duration_manipulation_targetAtFixation,jsons/VE125_randls_23.json,http://54.235.29.9/FacialAge/BNav_EC2/DepthDuration/v2_depth_duration_MTurk/v2_DepthDuration_HTML.html#41,41,1366,625,1366,768,8-29-2022,9-42-24,159,depth_duration_stimuli/003621_2014-05-23_18-06-08_094959634447_rgbf000101-resize_1/003621_2014-05-23_18-06-08_094959634447_rgbf000101-resize_1-target.png,125,3.9835,0,2300,125,meters,jsons/VE125_randls_23.json,783039,938258,48,Woman
159,278226,DepthScenes,duration_manipulation_targetAtFixation,jsons/VE125_randls_23.json,http://54.235.29.9/FacialAge/BNav_EC2/DepthDuration/v2_depth_duration_MTurk/v2_DepthDuration_HTML.html#41,41,1366,625,1366,768,8-29-2022,9-42-24,160,depth_duration_stimuli/001584_2014-06-20_11-07-43_260595134347_rgbf000002-resize_1/001584_2014-06-20_11-07-43_260595134347_rgbf000002-resize_1-target.png,125,3.53,0,2559,127,meters,jsons/VE125_randls_23.json,783039,938258,48,Woman
160,278226,DepthScenes,duration_manipulation_targetAtFixation,jsons/VE125_randls_23.json,http://54.235.29.9/FacialAge/BNav_EC2/DepthDuration/v2_depth_duration_MTurk/v2_DepthDuration_HTML.html#41,41,1366,625,1366,768,8-29-2022,9-42-24,161,depth_duration_stimuli/001199_2014-06-17_16-03-48_260595134347_rgbf000077-resize_0/001199_2014-06-17_16-03-48_260595134347_rgbf000077-resize_0-target.png,125,3.4375,0,2189,98,meters,jsons/VE125_randls_23.json,783039,938258,48,Woman
161,278226,DepthScenes,duration_manipulation_targetAtFixation,jsons/VE125_randls_23.json,http://54.235.29.9/FacialAge/BNav_EC2/DepthDuration/v2_depth_duration_MTurk/v2_DepthDuration_HTML.html#41,41,1366,625,1366,768,8-29-2022,9-42-24,162,depth_duration_stimuli/000502_2014-06-08_23-02-32_260595134347_rgbf000063-resize_4/000502_2014-06-08_23-02-32_260595134347_rgbf000063-resize_4-target.png,125,2.431,0,2002,125,meters,jsons/VE125_randls_23.json,783039,938258,48,Woman
162,278226,DepthScenes,duration_manipulation_targetAtFixation,jsons/VE125_randls_23.json,http://54.235.29.9/FacialAge/BNav_EC2/DepthDuration/v2_depth_duration_MTurk/v2_DepthDuration_HTML.html#41,41,1366,625,1366,768,8-29-2022,9-42-24,163,depth_duration_stimuli/003534_2014-05-22_15-06-10_094959634447_rgbf000102-resize_4/003534_2014-05-22_15-06-10_094959634447_rgbf000102-resize_4-target.png,125,1.426,0,29507,125,meters,jsons/VE125_randls_23.json,783039,938258,48,Woman
163,278226,DepthScenes,duration_manipulation_targetAtFixation,jsons/VE125_randls_23.json,http://54.235.29.9/FacialAge/BNav_EC2/DepthDuration/v2_depth_duration_MTurk/v2_DepthDuration_HTML.html#41,41,1366,625,1366,768,8-29-2022,9-42-24,164,depth_duration_stimuli/002637_2014-06-24_14-51-13_094959634447_rgbf000066-resize_4/002637_2014-06-24_14-51-13_094959634447_rgbf000066-resize_4-target.png,125,1.9955,0,5249,133,meters,jsons/VE125_randls_23.json,783039,938258,48,Woman
