,subjID,experimentName,versionName,sequenceName,url,selected_row,windowWidth,windowHeight,screenWidth,screenHeight,startDate,startTime,trial,stimulus,duration,actual_depth,depth_estimate,trial_RT,log_sceneDuration,unitSelection,seq_filepath,experimentTime,totalTime,age,gender
0,284099,DepthScenes,duration_manipulation_targetAtFixation,jsons/v1_VE1000_randls_8.json,http://54.235.29.9/FacialAge/BNav_EC2/DepthDuration/v2_depth_duration_MTurk/v2_DepthDuration_HTML.html#85,85,1366,768,1366,768,8-22-2022,7-0-12,1,depth_duration_stimuli/000788_2014-06-08_22-34-36_260595134347_rgbf000131-resize_1/000788_2014-06-08_22-34-36_260595134347_rgbf000131-resize_1-target.png,1000,3.359,6,5755,991,feet,jsons/v1_VE1000_randls_8.json,823971,1177475,25,Man
1,284099,DepthScenes,duration_manipulation_targetAtFixation,jsons/v1_VE1000_randls_8.json,http://54.235.29.9/FacialAge/BNav_EC2/DepthDuration/v2_depth_duration_MTurk/v2_DepthDuration_HTML.html#85,85,1366,768,1366,768,8-22-2022,7-0-12,2,depth_duration_stimuli/001235_2014-06-17_16-37-36_260595134347_rgbf000084-resize_4/001235_2014-06-17_16-37-36_260595134347_rgbf000084-resize_4-target.png,1000,3.6605,8,4135,993,feet,jsons/v1_VE1000_randls_8.json,823971,1177475,25,Man
2,284099,DepthScenes,duration_manipulation_targetAtFixation,jsons/v1_VE1000_randls_8.json,http://54.235.29.9/FacialAge/BNav_EC2/DepthDuration/v2_depth_duration_MTurk/v2_DepthDuration_HTML.html#85,85,1366,768,1366,768,8-22-2022,7-0-12,3,depth_duration_stimuli/001175_2014-06-17_15-45-55_260595134347_rgbf000129-resize_4/001175_2014-06-17_15-45-55_260595134347_rgbf000129-resize_4-target.png,1000,4.255,9,4286,997,feet,jsons/v1_VE1000_randls_8.json,823971,1177475,25,Man
3,284099,DepthScenes,duration_manipulation_targetAtFixation,jsons/v1_VE1000_randls_8.json,http://54.235.29.9/FacialAge/BNav_EC2/DepthDuration/v2_depth_duration_MTurk/v2_DepthDuration_HTML.html#85,85,1366,768,1366,768,8-22-2022,7-0-12,4,depth_duration_stimuli/003490_2014-05-21_15-50-11_094959634447_rgbf000101-resize_3/003490_2014-05-21_15-50-11_094959634447_rgbf000101-resize_3-target.png,1000,3.6445,7,4022,995,feet,jsons/v1_VE1000_randls_8.json,823971,1177475,25,Man
4,284099,DepthScenes,duration_manipulation_targetAtFixation,jsons/v1_VE1000_randls_8.json,http://54.235.29.9/FacialAge/BNav_EC2/DepthDuration/v2_depth_duration_MTurk/v2_DepthDuration_HTML.html#85,85,1366,768,1366,768,8-22-2022,7-0-12,5,depth_duration_stimuli/000810_2014-06-08_17-20-01_260595134347_rgbf000105-resize_0/000810_2014-06-08_17-20-01_260595134347_rgbf000105-resize_0-target.png,1000,1.4865,5,3975,1003,feet,jsons/v1_VE1000_randls_8.json,823971,1177475,25,Man
5,284099,DepthScenes,duration_manipulation_targetAtFixation,jsons/v1_VE1000_randls_8.json,http://54.235.29.9/FacialAge/BNav_EC2/DepthDuration/v2_depth_duration_MTurk/v2_DepthDuration_HTML.html#85,85,1366,768,1366,768,8-22-2022,7-0-12,6,depth_duration_stimuli/001214_2014-06-17_16-13-55_260595134347_rgbf000111-resize_0/001214_2014-06-17_16-13-55_260595134347_rgbf000111-resize_0-target.png,1000,2.6505,4,3662,1011,feet,jsons/v1_VE1000_randls_8.json,823971,1177475,25,Man
6,284099,DepthScenes,duration_manipulation_targetAtFixation,jsons/v1_VE1000_randls_8.json,http://54.235.29.9/FacialAge/BNav_EC2/DepthDuration/v2_depth_duration_MTurk/v2_DepthDuration_HTML.html#85,85,1366,768,1366,768,8-22-2022,7-0-12,7,depth_duration_stimuli/003070_2014-06-15_14-58-27_094959634447_rgbf000150-resize_3/003070_2014-06-15_14-58-27_094959634447_rgbf000150-resize_3-target.png,1000,2.9415,6,3962,998,feet,jsons/v1_VE1000_randls_8.json,823971,1177475,25,Man
7,284099,DepthScenes,duration_manipulation_targetAtFixation,jsons/v1_VE1000_randls_8.json,http://54.235.29.9/FacialAge/BNav_EC2/DepthDuration/v2_depth_duration_MTurk/v2_DepthDuration_HTML.html#85,85,1366,768,1366,768,8-22-2022,7-0-12,8,depth_duration_stimuli/000943_2014-06-09_19-31-07_260595134347_rgbf000128-resize_1/000943_2014-06-09_19-31-07_260595134347_rgbf000128-resize_1-target.png,1000,1.9765,5,3922,993,feet,jsons/v1_VE1000_randls_8.json,823971,1177475,25,Man
8,284099,DepthScenes,duration_manipulation_targetAtFixation,jsons/v1_VE1000_randls_8.json,http://54.235.29.9/FacialAge/BNav_EC2/DepthDuration/v2_depth_duration_MTurk/v2_DepthDuration_HTML.html#85,85,1366,768,1366,768,8-22-2022,7-0-12,9,depth_duration_stimuli/000469_2014-06-09_19-42-10_260595134347_rgbf000081-resize_1/000469_2014-06-09_19-42-10_260595134347_rgbf000081-resize_1-target.png,1000,1.652,4,5083,1007,feet,jsons/v1_VE1000_randls_8.json,823971,1177475,25,Man
9,284099,DepthScenes,duration_manipulation_targetAtFixation,jsons/v1_VE1000_randls_8.json,http://54.235.29.9/FacialAge/BNav_EC2/DepthDuration/v2_depth_duration_MTurk/v2_DepthDuration_HTML.html#85,85,1366,768,1366,768,8-22-2022,7-0-12,10,depth_duration_stimuli/000483_2014-06-09_20-41-45_260595134347_rgbf000116-resize_4/000483_2014-06-09_20-41-45_260595134347_rgbf000116-resize_4-target.png,1000,1.337,3,4225,987,feet,jsons/v1_VE1000_randls_8.json,823971,1177475,25,Man
10,284099,DepthScenes,duration_manipulation_targetAtFixation,jsons/v1_VE1000_randls_8.json,http://54.235.29.9/FacialAge/BNav_EC2/DepthDuration/v2_depth_duration_MTurk/v2_DepthDuration_HTML.html#85,85,1366,768,1366,768,8-22-2022,7-0-12,11,depth_duration_stimuli/001810_2014-06-26_20-51-35_260595134347_rgbf000040-resize_3/001810_2014-06-26_20-51-35_260595134347_rgbf000040-resize_3-target.png,1000,2.2525,6,9774,999,feet,jsons/v1_VE1000_randls_8.json,823971,1177475,25,Man
11,284099,DepthScenes,duration_manipulation_targetAtFixation,jsons/v1_VE1000_randls_8.json,http://54.235.29.9/FacialAge/BNav_EC2/DepthDuration/v2_depth_duration_MTurk/v2_DepthDuration_HTML.html#85,85,1366,768,1366,768,8-22-2022,7-0-12,12,depth_duration_stimuli/003010_2014-06-15_12-54-35_094959634447_rgbf000112-resize_0/003010_2014-06-15_12-54-35_094959634447_rgbf000112-resize_0-target.png,1000,3.1185,9,4173,998,feet,jsons/v1_VE1000_randls_8.json,823971,1177475,25,Man
12,284099,DepthScenes,duration_manipulation_targetAtFixation,jsons/v1_VE1000_randls_8.json,http://54.235.29.9/FacialAge/BNav_EC2/DepthDuration/v2_depth_duration_MTurk/v2_DepthDuration_HTML.html#85,85,1366,768,1366,768,8-22-2022,7-0-12,13,depth_duration_stimuli/000569_2014-06-09_22-51-47_260595134347_rgbf000141-resize_3/000569_2014-06-09_22-51-47_260595134347_rgbf000141-resize-original.jpg,1000,4.512,0,4681,986,feet,jsons/v1_VE1000_randls_8.json,823971,1177475,25,Man
13,284099,DepthScenes,duration_manipulation_targetAtFixation,jsons/v1_VE1000_randls_8.json,http://54.235.29.9/FacialAge/BNav_EC2/DepthDuration/v2_depth_duration_MTurk/v2_DepthDuration_HTML.html#85,85,1366,768,1366,768,8-22-2022,7-0-12,14,depth_duration_stimuli/000682_2014-06-08_23-14-58_260595134347_rgbf000041-resize_5/000682_2014-06-08_23-14-58_260595134347_rgbf000041-resize_5-target.png,1000,2.7239999999999998,5,3926,999,feet,jsons/v1_VE1000_randls_8.json,823971,1177475,25,Man
14,284099,DepthScenes,duration_manipulation_targetAtFixation,jsons/v1_VE1000_randls_8.json,http://54.235.29.9/FacialAge/BNav_EC2/DepthDuration/v2_depth_duration_MTurk/v2_DepthDuration_HTML.html#85,85,1366,768,1366,768,8-22-2022,7-0-12,15,depth_duration_stimuli/001650_2014-06-20_12-09-00_260595134347_rgbf000087-resize_3/001650_2014-06-20_12-09-00_260595134347_rgbf000087-resize_3-target.png,1000,1.9505,3,4069,985,feet,jsons/v1_VE1000_randls_8.json,823971,1177475,25,Man
15,284099,DepthScenes,duration_manipulation_targetAtFixation,jsons/v1_VE1000_randls_8.json,http://54.235.29.9/FacialAge/BNav_EC2/DepthDuration/v2_depth_duration_MTurk/v2_DepthDuration_HTML.html#85,85,1366,768,1366,768,8-22-2022,7-0-12,16,depth_duration_stimuli/002630_2014-06-24_14-47-50_094959634447_rgbf000055-resize_1/002630_2014-06-24_14-47-50_094959634447_rgbf000055-resize_1-target.png,1000,3.0095,8,3855,1003,feet,jsons/v1_VE1000_randls_8.json,823971,1177475,25,Man
16,284099,DepthScenes,duration_manipulation_targetAtFixation,jsons/v1_VE1000_randls_8.json,http://54.235.29.9/FacialAge/BNav_EC2/DepthDuration/v2_depth_duration_MTurk/v2_DepthDuration_HTML.html#85,85,1366,768,1366,768,8-22-2022,7-0-12,17,depth_duration_stimuli/002758_2014-06-22_19-11-20_094959634447_rgbf000128-resize_1/002758_2014-06-22_19-11-20_094959634447_rgbf000128-resize_1-target.png,1000,2.555,5,6895,998,feet,jsons/v1_VE1000_randls_8.json,823971,1177475,25,Man
17,284099,DepthScenes,duration_manipulation_targetAtFixation,jsons/v1_VE1000_randls_8.json,http://54.235.29.9/FacialAge/BNav_EC2/DepthDuration/v2_depth_duration_MTurk/v2_DepthDuration_HTML.html#85,85,1366,768,1366,768,8-22-2022,7-0-12,18,depth_duration_stimuli/001133_2014-06-17_14-49-16_260595134347_rgbf000100-resize_0/001133_2014-06-17_14-49-16_260595134347_rgbf000100-resize_0-target.png,1000,4.2115,7,5836,999,feet,jsons/v1_VE1000_randls_8.json,823971,1177475,25,Man
18,284099,DepthScenes,duration_manipulation_targetAtFixation,jsons/v1_VE1000_randls_8.json,http://54.235.29.9/FacialAge/BNav_EC2/DepthDuration/v2_depth_duration_MTurk/v2_DepthDuration_HTML.html#85,85,1366,768,1366,768,8-22-2022,7-0-12,19,depth_duration_stimuli/001132_2014-06-17_14-48-54_260595134347_rgbf000100-resize_2/001132_2014-06-17_14-48-54_260595134347_rgbf000100-resize_2-target.png,1000,3.753,5,5066,1000,feet,jsons/v1_VE1000_randls_8.json,823971,1177475,25,Man
19,284099,DepthScenes,duration_manipulation_targetAtFixation,jsons/v1_VE1000_randls_8.json,http://54.235.29.9/FacialAge/BNav_EC2/DepthDuration/v2_depth_duration_MTurk/v2_DepthDuration_HTML.html#85,85,1366,768,1366,768,8-22-2022,7-0-12,20,depth_duration_stimuli/001059_2014-06-08_21-53-27_260595134347_rgbf000061-resize_4/001059_2014-06-08_21-53-27_260595134347_rgbf000061-resize_4-target.png,1000,2.4185,5,4926,1026,feet,jsons/v1_VE1000_randls_8.json,823971,1177475,25,Man
20,284099,DepthScenes,duration_manipulation_targetAtFixation,jsons/v1_VE1000_randls_8.json,http://54.235.29.9/FacialAge/BNav_EC2/DepthDuration/v2_depth_duration_MTurk/v2_DepthDuration_HTML.html#85,85,1366,768,1366,768,8-22-2022,7-0-12,21,depth_duration_stimuli/001032_2014-06-08_13-23-17_260595134347_rgbf000021-resize_3/001032_2014-06-08_13-23-17_260595134347_rgbf000021-resize_3-target.png,1000,3.2725,6,5719,1000,feet,jsons/v1_VE1000_randls_8.json,823971,1177475,25,Man
21,284099,DepthScenes,duration_manipulation_targetAtFixation,jsons/v1_VE1000_randls_8.json,http://54.235.29.9/FacialAge/BNav_EC2/DepthDuration/v2_depth_duration_MTurk/v2_DepthDuration_HTML.html#85,85,1366,768,1366,768,8-22-2022,7-0-12,22,depth_duration_stimuli/000736_2014-06-08_18-24-15_260595134347_rgbf000206-resize_3/000736_2014-06-08_18-24-15_260595134347_rgbf000206-resize_3-target.png,1000,3.515,5,3852,1001,feet,jsons/v1_VE1000_randls_8.json,823971,1177475,25,Man
22,284099,DepthScenes,duration_manipulation_targetAtFixation,jsons/v1_VE1000_randls_8.json,http://54.235.29.9/FacialAge/BNav_EC2/DepthDuration/v2_depth_duration_MTurk/v2_DepthDuration_HTML.html#85,85,1366,768,1366,768,8-22-2022,7-0-12,23,depth_duration_stimuli/000137_2014-05-20_17-04-49_260595134347_rgbf000120-resize_1/000137_2014-05-20_17-04-49_260595134347_rgbf000120-resize_1-target.png,1000,3.786,9,3881,997,feet,jsons/v1_VE1000_randls_8.json,823971,1177475,25,Man
23,284099,DepthScenes,duration_manipulation_targetAtFixation,jsons/v1_VE1000_randls_8.json,http://54.235.29.9/FacialAge/BNav_EC2/DepthDuration/v2_depth_duration_MTurk/v2_DepthDuration_HTML.html#85,85,1366,768,1366,768,8-22-2022,7-0-12,24,depth_duration_stimuli/000493_2014-06-09_21-01-18_260595134347_rgbf000196-resize_3/000493_2014-06-09_21-01-18_260595134347_rgbf000196-resize_3-target.png,1000,3.44,7,4660,999,feet,jsons/v1_VE1000_randls_8.json,823971,1177475,25,Man
24,284099,DepthScenes,duration_manipulation_targetAtFixation,jsons/v1_VE1000_randls_8.json,http://54.235.29.9/FacialAge/BNav_EC2/DepthDuration/v2_depth_duration_MTurk/v2_DepthDuration_HTML.html#85,85,1366,768,1366,768,8-22-2022,7-0-12,25,depth_duration_stimuli/000191_2014-05-12_17-07-38_260595134347_rgbf000199-resize_0/000191_2014-05-12_17-07-38_260595134347_rgbf000199-resize_0-target.png,1000,3.7995,10,4178,1008,feet,jsons/v1_VE1000_randls_8.json,823971,1177475,25,Man
25,284099,DepthScenes,duration_manipulation_targetAtFixation,jsons/v1_VE1000_randls_8.json,http://54.235.29.9/FacialAge/BNav_EC2/DepthDuration/v2_depth_duration_MTurk/v2_DepthDuration_HTML.html#85,85,1366,768,1366,768,8-22-2022,7-0-12,26,depth_duration_stimuli/001244_2014-06-17_16-47-45_260595134347_rgbf000030-resize_4/001244_2014-06-17_16-47-45_260595134347_rgbf000030-resize_4-target.png,1000,2.0425,8,3911,997,feet,jsons/v1_VE1000_randls_8.json,823971,1177475,25,Man
26,284099,DepthScenes,duration_manipulation_targetAtFixation,jsons/v1_VE1000_randls_8.json,http://54.235.29.9/FacialAge/BNav_EC2/DepthDuration/v2_depth_duration_MTurk/v2_DepthDuration_HTML.html#85,85,1366,768,1366,768,8-22-2022,7-0-12,27,depth_duration_stimuli/003495_2014-05-21_16-01-51_094959634447_rgbf000100-resize_3/003495_2014-05-21_16-01-51_094959634447_rgbf000100-resize_3-target.png,1000,1.6255,3,4424,998,feet,jsons/v1_VE1000_randls_8.json,823971,1177475,25,Man
27,284099,DepthScenes,duration_manipulation_targetAtFixation,jsons/v1_VE1000_randls_8.json,http://54.235.29.9/FacialAge/BNav_EC2/DepthDuration/v2_depth_duration_MTurk/v2_DepthDuration_HTML.html#85,85,1366,768,1366,768,8-22-2022,7-0-12,28,depth_duration_stimuli/002763_2014-06-22_19-13-10_094959634447_rgbf000075-resize_4/002763_2014-06-22_19-13-10_094959634447_rgbf000075-resize_4-target.png,1000,1.68375,7,3772,1006,feet,jsons/v1_VE1000_randls_8.json,823971,1177475,25,Man
28,284099,DepthScenes,duration_manipulation_targetAtFixation,jsons/v1_VE1000_randls_8.json,http://54.235.29.9/FacialAge/BNav_EC2/DepthDuration/v2_depth_duration_MTurk/v2_DepthDuration_HTML.html#85,85,1366,768,1366,768,8-22-2022,7-0-12,29,depth_duration_stimuli/002209_2014-06-28_18-36-10_260595134347_rgbf000051-resize_1/002209_2014-06-28_18-36-10_260595134347_rgbf000051-resize_1-target.png,1000,2.057,5,4596,998,feet,jsons/v1_VE1000_randls_8.json,823971,1177475,25,Man
29,284099,DepthScenes,duration_manipulation_targetAtFixation,jsons/v1_VE1000_randls_8.json,http://54.235.29.9/FacialAge/BNav_EC2/DepthDuration/v2_depth_duration_MTurk/v2_DepthDuration_HTML.html#85,85,1366,768,1366,768,8-22-2022,7-0-12,30,depth_duration_stimuli/000375_2014-06-08_11-17-29_260595134347_rgbf000133-resize_2/000375_2014-06-08_11-17-29_260595134347_rgbf000133-resize-original.jpg,1000,4.718,0,4729,993,feet,jsons/v1_VE1000_randls_8.json,823971,1177475,25,Man
30,284099,DepthScenes,duration_manipulation_targetAtFixation,jsons/v1_VE1000_randls_8.json,http://54.235.29.9/FacialAge/BNav_EC2/DepthDuration/v2_depth_duration_MTurk/v2_DepthDuration_HTML.html#85,85,1366,768,1366,768,8-22-2022,7-0-12,31,depth_duration_stimuli/001570_2014-06-20_17-21-09_260595134347_rgbf000135-resize_4/001570_2014-06-20_17-21-09_260595134347_rgbf000135-resize_4-target.png,1000,4.467,9,5183,996,feet,jsons/v1_VE1000_randls_8.json,823971,1177475,25,Man
31,284099,DepthScenes,duration_manipulation_targetAtFixation,jsons/v1_VE1000_randls_8.json,http://54.235.29.9/FacialAge/BNav_EC2/DepthDuration/v2_depth_duration_MTurk/v2_DepthDuration_HTML.html#85,85,1366,768,1366,768,8-22-2022,7-0-12,32,depth_duration_stimuli/001392_2014-06-19_16-07-59_260595134347_rgbf000046-resize_1/001392_2014-06-19_16-07-59_260595134347_rgbf000046-resize_1-target.png,1000,4.135,8,4526,999,feet,jsons/v1_VE1000_randls_8.json,823971,1177475,25,Man
32,284099,DepthScenes,duration_manipulation_targetAtFixation,jsons/v1_VE1000_randls_8.json,http://54.235.29.9/FacialAge/BNav_EC2/DepthDuration/v2_depth_duration_MTurk/v2_DepthDuration_HTML.html#85,85,1366,768,1366,768,8-22-2022,7-0-12,33,depth_duration_stimuli/000414_2014-06-04_19-49-13_260595134347_rgbf000044-resize_0/000414_2014-06-04_19-49-13_260595134347_rgbf000044-resize_0-target.png,1000,4.329,9,3892,1002,feet,jsons/v1_VE1000_randls_8.json,823971,1177475,25,Man
33,284099,DepthScenes,duration_manipulation_targetAtFixation,jsons/v1_VE1000_randls_8.json,http://54.235.29.9/FacialAge/BNav_EC2/DepthDuration/v2_depth_duration_MTurk/v2_DepthDuration_HTML.html#85,85,1366,768,1366,768,8-22-2022,7-0-12,34,depth_duration_stimuli/003129_2014-05-12_10-48-10_094959634447_rgbf000100-resize_0/003129_2014-05-12_10-48-10_094959634447_rgbf000100-resize_0-target.png,1000,4.9305,6,5086,944,feet,jsons/v1_VE1000_randls_8.json,823971,1177475,25,Man
34,284099,DepthScenes,duration_manipulation_targetAtFixation,jsons/v1_VE1000_randls_8.json,http://54.235.29.9/FacialAge/BNav_EC2/DepthDuration/v2_depth_duration_MTurk/v2_DepthDuration_HTML.html#85,85,1366,768,1366,768,8-22-2022,7-0-12,35,depth_duration_stimuli/001417_2014-06-19_16-25-36_260595134347_rgbf000115-resize_5/001417_2014-06-19_16-25-36_260595134347_rgbf000115-resize_5-target.png,1000,4.6255,5,3991,999,feet,jsons/v1_VE1000_randls_8.json,823971,1177475,25,Man
35,284099,DepthScenes,duration_manipulation_targetAtFixation,jsons/v1_VE1000_randls_8.json,http://54.235.29.9/FacialAge/BNav_EC2/DepthDuration/v2_depth_duration_MTurk/v2_DepthDuration_HTML.html#85,85,1366,768,1366,768,8-22-2022,7-0-12,36,depth_duration_stimuli/003081_2014-06-15_15-19-16_094959634447_rgbf000150-resize_1/003081_2014-06-15_15-19-16_094959634447_rgbf000150-resize_1-target.png,1000,3.9125,6,3955,999,feet,jsons/v1_VE1000_randls_8.json,823971,1177475,25,Man
36,284099,DepthScenes,duration_manipulation_targetAtFixation,jsons/v1_VE1000_randls_8.json,http://54.235.29.9/FacialAge/BNav_EC2/DepthDuration/v2_depth_duration_MTurk/v2_DepthDuration_HTML.html#85,85,1366,768,1366,768,8-22-2022,7-0-12,37,depth_duration_stimuli/000929_2014-06-09_16-33-19_260595134347_rgbf000139-resize_0/000929_2014-06-09_16-33-19_260595134347_rgbf000139-resize_0-target.png,1000,2.8680000000000003,5,6493,997,feet,jsons/v1_VE1000_randls_8.json,823971,1177475,25,Man
37,284099,DepthScenes,duration_manipulation_targetAtFixation,jsons/v1_VE1000_randls_8.json,http://54.235.29.9/FacialAge/BNav_EC2/DepthDuration/v2_depth_duration_MTurk/v2_DepthDuration_HTML.html#85,85,1366,768,1366,768,8-22-2022,7-0-12,38,depth_duration_stimuli/000457_2014-06-08_16-52-43_260595134347_rgbf000199-resize_1/000457_2014-06-08_16-52-43_260595134347_rgbf000199-resize_1-target.png,1000,3.6489999999999996,7,4835,992,feet,jsons/v1_VE1000_randls_8.json,823971,1177475,25,Man
38,284099,DepthScenes,duration_manipulation_targetAtFixation,jsons/v1_VE1000_randls_8.json,http://54.235.29.9/FacialAge/BNav_EC2/DepthDuration/v2_depth_duration_MTurk/v2_DepthDuration_HTML.html#85,85,1366,768,1366,768,8-22-2022,7-0-12,39,depth_duration_stimuli/001066_2014-06-08_22-03-20_260595134347_rgbf000066-resize_4/001066_2014-06-08_22-03-20_260595134347_rgbf000066-resize_4-target.png,1000,4.2330000000000005,8,3850,1002,feet,jsons/v1_VE1000_randls_8.json,823971,1177475,25,Man
39,284099,DepthScenes,duration_manipulation_targetAtFixation,jsons/v1_VE1000_randls_8.json,http://54.235.29.9/FacialAge/BNav_EC2/DepthDuration/v2_depth_duration_MTurk/v2_DepthDuration_HTML.html#85,85,1366,768,1366,768,8-22-2022,7-0-12,40,depth_duration_stimuli/000742_2014-06-08_18-48-09_260595134347_rgbf000164-resize_4/000742_2014-06-08_18-48-09_260595134347_rgbf000164-resize_4-target.png,1000,4.632,8,4913,999,feet,jsons/v1_VE1000_randls_8.json,823971,1177475,25,Man
40,284099,DepthScenes,duration_manipulation_targetAtFixation,jsons/v1_VE1000_randls_8.json,http://54.235.29.9/FacialAge/BNav_EC2/DepthDuration/v2_depth_duration_MTurk/v2_DepthDuration_HTML.html#85,85,1366,768,1366,768,8-22-2022,7-0-12,41,depth_duration_stimuli/000773_2014-06-08_22-24-54_260595134347_rgbf000093-resize_1/000773_2014-06-08_22-24-54_260595134347_rgbf000093-resize_1-target.png,1000,4.973,7,4441,992,feet,jsons/v1_VE1000_randls_8.json,823971,1177475,25,Man
41,284099,DepthScenes,duration_manipulation_targetAtFixation,jsons/v1_VE1000_randls_8.json,http://54.235.29.9/FacialAge/BNav_EC2/DepthDuration/v2_depth_duration_MTurk/v2_DepthDuration_HTML.html#85,85,1366,768,1366,768,8-22-2022,7-0-12,42,depth_duration_stimuli/002414_2014-06-28_20-24-58_260595134347_rgbf000067-resize_4/002414_2014-06-28_20-24-58_260595134347_rgbf000067-resize_4-target.png,1000,4.363,7,4232,985,feet,jsons/v1_VE1000_randls_8.json,823971,1177475,25,Man
42,284099,DepthScenes,duration_manipulation_targetAtFixation,jsons/v1_VE1000_randls_8.json,http://54.235.29.9/FacialAge/BNav_EC2/DepthDuration/v2_depth_duration_MTurk/v2_DepthDuration_HTML.html#85,85,1366,768,1366,768,8-22-2022,7-0-12,43,depth_duration_stimuli/002663_2014-06-13_15-50-26_094959634447_rgbf000075-resize_1/002663_2014-06-13_15-50-26_094959634447_rgbf000075-resize_1-target.png,1000,4.7495,8,3827,1000,feet,jsons/v1_VE1000_randls_8.json,823971,1177475,25,Man
43,284099,DepthScenes,duration_manipulation_targetAtFixation,jsons/v1_VE1000_randls_8.json,http://54.235.29.9/FacialAge/BNav_EC2/DepthDuration/v2_depth_duration_MTurk/v2_DepthDuration_HTML.html#85,85,1366,768,1366,768,8-22-2022,7-0-12,44,depth_duration_stimuli/000409_2014-06-04_19-23-33_260595134347_rgbf000067-resize_0/000409_2014-06-04_19-23-33_260595134347_rgbf000067-resize_0-target.png,1000,3.7335,5,4004,1000,feet,jsons/v1_VE1000_randls_8.json,823971,1177475,25,Man
44,284099,DepthScenes,duration_manipulation_targetAtFixation,jsons/v1_VE1000_randls_8.json,http://54.235.29.9/FacialAge/BNav_EC2/DepthDuration/v2_depth_duration_MTurk/v2_DepthDuration_HTML.html#85,85,1366,768,1366,768,8-22-2022,7-0-12,45,depth_duration_stimuli/000787_2014-06-08_22-33-53_260595134347_rgbf000175-resize_1/000787_2014-06-08_22-33-53_260595134347_rgbf000175-resize-original.jpg,1000,4.784,0,4105,995,feet,jsons/v1_VE1000_randls_8.json,823971,1177475,25,Man
45,284099,DepthScenes,duration_manipulation_targetAtFixation,jsons/v1_VE1000_randls_8.json,http://54.235.29.9/FacialAge/BNav_EC2/DepthDuration/v2_depth_duration_MTurk/v2_DepthDuration_HTML.html#85,85,1366,768,1366,768,8-22-2022,7-0-12,46,depth_duration_stimuli/002788_2014-06-22_19-36-03_094959634447_rgbf000088-resize_2/002788_2014-06-22_19-36-03_094959634447_rgbf000088-resize_2-target.png,1000,1.6465,5,4422,1000,feet,jsons/v1_VE1000_randls_8.json,823971,1177475,25,Man
46,284099,DepthScenes,duration_manipulation_targetAtFixation,jsons/v1_VE1000_randls_8.json,http://54.235.29.9/FacialAge/BNav_EC2/DepthDuration/v2_depth_duration_MTurk/v2_DepthDuration_HTML.html#85,85,1366,768,1366,768,8-22-2022,7-0-12,47,depth_duration_stimuli/000749_2014-06-08_21-55-06_260595134347_rgbf000070-resize_2/000749_2014-06-08_21-55-06_260595134347_rgbf000070-resize_2-target.png,1000,2.331,7,3710,999,feet,jsons/v1_VE1000_randls_8.json,823971,1177475,25,Man
47,284099,DepthScenes,duration_manipulation_targetAtFixation,jsons/v1_VE1000_randls_8.json,http://54.235.29.9/FacialAge/BNav_EC2/DepthDuration/v2_depth_duration_MTurk/v2_DepthDuration_HTML.html#85,85,1366,768,1366,768,8-22-2022,7-0-12,48,depth_duration_stimuli/002509_2014-06-24_13-19-22_094959634447_rgbf000077-resize_0/002509_2014-06-24_13-19-22_094959634447_rgbf000077-resize_0-target.png,1000,1.3065,4,3555,1014,feet,jsons/v1_VE1000_randls_8.json,823971,1177475,25,Man
48,284099,DepthScenes,duration_manipulation_targetAtFixation,jsons/v1_VE1000_randls_8.json,http://54.235.29.9/FacialAge/BNav_EC2/DepthDuration/v2_depth_duration_MTurk/v2_DepthDuration_HTML.html#85,85,1366,768,1366,768,8-22-2022,7-0-12,49,depth_duration_stimuli/003338_2014-05-20_11-01-23_094959634447_rgbf000051-resize_6/003338_2014-05-20_11-01-23_094959634447_rgbf000051-resize_6-target.png,1000,1.693,5,3925,997,feet,jsons/v1_VE1000_randls_8.json,823971,1177475,25,Man
49,284099,DepthScenes,duration_manipulation_targetAtFixation,jsons/v1_VE1000_randls_8.json,http://54.235.29.9/FacialAge/BNav_EC2/DepthDuration/v2_depth_duration_MTurk/v2_DepthDuration_HTML.html#85,85,1366,768,1366,768,8-22-2022,7-0-12,50,depth_duration_stimuli/003492_2014-05-21_15-50-55_094959634447_rgbf000828-resize_1/003492_2014-05-21_15-50-55_094959634447_rgbf000828-resize_1-target.png,1000,4.06875,7,4069,998,feet,jsons/v1_VE1000_randls_8.json,823971,1177475,25,Man
50,284099,DepthScenes,duration_manipulation_targetAtFixation,jsons/v1_VE1000_randls_8.json,http://54.235.29.9/FacialAge/BNav_EC2/DepthDuration/v2_depth_duration_MTurk/v2_DepthDuration_HTML.html#85,85,1366,768,1366,768,8-22-2022,7-0-12,51,depth_duration_stimuli/002568_2014-06-24_13-59-21_094959634447_rgbf000062-resize_4/002568_2014-06-24_13-59-21_094959634447_rgbf000062-resize_4-target.png,1000,3.015,8,3740,1006,feet,jsons/v1_VE1000_randls_8.json,823971,1177475,25,Man
51,284099,DepthScenes,duration_manipulation_targetAtFixation,jsons/v1_VE1000_randls_8.json,http://54.235.29.9/FacialAge/BNav_EC2/DepthDuration/v2_depth_duration_MTurk/v2_DepthDuration_HTML.html#85,85,1366,768,1366,768,8-22-2022,7-0-12,52,depth_duration_stimuli/000368_2014-06-09_15-53-01_260595134347_rgbf000155-resize_2/000368_2014-06-09_15-53-01_260595134347_rgbf000155-resize_2-target.png,1000,2.4859999999999998,3,4000,999,feet,jsons/v1_VE1000_randls_8.json,823971,1177475,25,Man
52,284099,DepthScenes,duration_manipulation_targetAtFixation,jsons/v1_VE1000_randls_8.json,http://54.235.29.9/FacialAge/BNav_EC2/DepthDuration/v2_depth_duration_MTurk/v2_DepthDuration_HTML.html#85,85,1366,768,1366,768,8-22-2022,7-0-12,53,depth_duration_stimuli/002678_2014-06-13_16-15-32_094959634447_rgbf000151-resize_6/002678_2014-06-13_16-15-32_094959634447_rgbf000151-resize_6-target.png,1000,2.1830000000000003,7,4243,1006,feet,jsons/v1_VE1000_randls_8.json,823971,1177475,25,Man
53,284099,DepthScenes,duration_manipulation_targetAtFixation,jsons/v1_VE1000_randls_8.json,http://54.235.29.9/FacialAge/BNav_EC2/DepthDuration/v2_depth_duration_MTurk/v2_DepthDuration_HTML.html#85,85,1366,768,1366,768,8-22-2022,7-0-12,54,depth_duration_stimuli/003621_2014-05-23_18-06-08_094959634447_rgbf000101-resize_1/003621_2014-05-23_18-06-08_094959634447_rgbf000101-resize_1-target.png,1000,3.9835,8,3970,997,feet,jsons/v1_VE1000_randls_8.json,823971,1177475,25,Man
54,284099,DepthScenes,duration_manipulation_targetAtFixation,jsons/v1_VE1000_randls_8.json,http://54.235.29.9/FacialAge/BNav_EC2/DepthDuration/v2_depth_duration_MTurk/v2_DepthDuration_HTML.html#85,85,1366,768,1366,768,8-22-2022,7-0-12,55,depth_duration_stimuli/001584_2014-06-20_11-07-43_260595134347_rgbf000002-resize_1/001584_2014-06-20_11-07-43_260595134347_rgbf000002-resize_1-target.png,1000,3.53,8,5508,1001,feet,jsons/v1_VE1000_randls_8.json,823971,1177475,25,Man
55,284099,DepthScenes,duration_manipulation_targetAtFixation,jsons/v1_VE1000_randls_8.json,http://54.235.29.9/FacialAge/BNav_EC2/DepthDuration/v2_depth_duration_MTurk/v2_DepthDuration_HTML.html#85,85,1366,768,1366,768,8-22-2022,7-0-12,56,depth_duration_stimuli/002989_2014-06-15_12-25-03_094959634447_rgbf000150-resize_3/002989_2014-06-15_12-25-03_094959634447_rgbf000150-resize_3-target.png,1000,4.1975,9,3948,996,feet,jsons/v1_VE1000_randls_8.json,823971,1177475,25,Man
56,284099,DepthScenes,duration_manipulation_targetAtFixation,jsons/v1_VE1000_randls_8.json,http://54.235.29.9/FacialAge/BNav_EC2/DepthDuration/v2_depth_duration_MTurk/v2_DepthDuration_HTML.html#85,85,1366,768,1366,768,8-22-2022,7-0-12,57,depth_duration_stimuli/000866_2014-06-09_20-45-42_260595134347_rgbf000139-resize_1/000866_2014-06-09_20-45-42_260595134347_rgbf000139-resize_1-target.png,1000,3.2155,10,4873,999,feet,jsons/v1_VE1000_randls_8.json,823971,1177475,25,Man
57,284099,DepthScenes,duration_manipulation_targetAtFixation,jsons/v1_VE1000_randls_8.json,http://54.235.29.9/FacialAge/BNav_EC2/DepthDuration/v2_depth_duration_MTurk/v2_DepthDuration_HTML.html#85,85,1366,768,1366,768,8-22-2022,7-0-12,58,depth_duration_stimuli/003292_2014-05-14_21-53-49_094959634447_rgbf000100-resize_2/003292_2014-05-14_21-53-49_094959634447_rgbf000100-resize_2-target.png,1000,3.4815,7,3955,1002,feet,jsons/v1_VE1000_randls_8.json,823971,1177475,25,Man
58,284099,DepthScenes,duration_manipulation_targetAtFixation,jsons/v1_VE1000_randls_8.json,http://54.235.29.9/FacialAge/BNav_EC2/DepthDuration/v2_depth_duration_MTurk/v2_DepthDuration_HTML.html#85,85,1366,768,1366,768,8-22-2022,7-0-12,59,depth_duration_stimuli/002639_2014-06-24_14-51-37_094959634447_rgbf000074-resize_4/002639_2014-06-24_14-51-37_094959634447_rgbf000074-resize_4-target.png,1000,4.0375,8,3499,1013,feet,jsons/v1_VE1000_randls_8.json,823971,1177475,25,Man
59,284099,DepthScenes,duration_manipulation_targetAtFixation,jsons/v1_VE1000_randls_8.json,http://54.235.29.9/FacialAge/BNav_EC2/DepthDuration/v2_depth_duration_MTurk/v2_DepthDuration_HTML.html#85,85,1366,768,1366,768,8-22-2022,7-0-12,60,depth_duration_stimuli/001449_2014-06-19_17-01-27_260595134347_rgbf000116-resize_2/001449_2014-06-19_17-01-27_260595134347_rgbf000116-resize_2-target.png,1000,3.452,7,3871,999,feet,jsons/v1_VE1000_randls_8.json,823971,1177475,25,Man
60,284099,DepthScenes,duration_manipulation_targetAtFixation,jsons/v1_VE1000_randls_8.json,http://54.235.29.9/FacialAge/BNav_EC2/DepthDuration/v2_depth_duration_MTurk/v2_DepthDuration_HTML.html#85,85,1366,768,1366,768,8-22-2022,7-0-12,61,depth_duration_stimuli/001450_2014-06-19_17-02-03_260595134347_rgbf000203-resize_4/001450_2014-06-19_17-02-03_260595134347_rgbf000203-resize_4-target.png,1000,4.0106666666667,9,4302,1000,feet,jsons/v1_VE1000_randls_8.json,823971,1177475,25,Man
61,284099,DepthScenes,duration_manipulation_targetAtFixation,jsons/v1_VE1000_randls_8.json,http://54.235.29.9/FacialAge/BNav_EC2/DepthDuration/v2_depth_duration_MTurk/v2_DepthDuration_HTML.html#85,85,1366,768,1366,768,8-22-2022,7-0-12,62,depth_duration_stimuli/000506_2014-06-08_23-21-00_260595134347_rgbf000070-resize_7/000506_2014-06-08_23-21-00_260595134347_rgbf000070-resize_7-target.png,1000,4.0585,5,4241,997,feet,jsons/v1_VE1000_randls_8.json,823971,1177475,25,Man
62,284099,DepthScenes,duration_manipulation_targetAtFixation,jsons/v1_VE1000_randls_8.json,http://54.235.29.9/FacialAge/BNav_EC2/DepthDuration/v2_depth_duration_MTurk/v2_DepthDuration_HTML.html#85,85,1366,768,1366,768,8-22-2022,7-0-12,63,depth_duration_stimuli/003079_2014-06-15_15-18-20_094959634447_rgbf000152-resize_8/003079_2014-06-15_15-18-20_094959634447_rgbf000152-resize_8-target.png,1000,2.8775,8,3584,1004,feet,jsons/v1_VE1000_randls_8.json,823971,1177475,25,Man
63,284099,DepthScenes,duration_manipulation_targetAtFixation,jsons/v1_VE1000_randls_8.json,http://54.235.29.9/FacialAge/BNav_EC2/DepthDuration/v2_depth_duration_MTurk/v2_DepthDuration_HTML.html#85,85,1366,768,1366,768,8-22-2022,7-0-12,64,depth_duration_stimuli/001110_2014-06-15_17-25-28_260595134347_rgbf000150-resize_1/001110_2014-06-15_17-25-28_260595134347_rgbf000150-resize_1-target.png,1000,1.7115,8,3957,998,feet,jsons/v1_VE1000_randls_8.json,823971,1177475,25,Man
64,284099,DepthScenes,duration_manipulation_targetAtFixation,jsons/v1_VE1000_randls_8.json,http://54.235.29.9/FacialAge/BNav_EC2/DepthDuration/v2_depth_duration_MTurk/v2_DepthDuration_HTML.html#85,85,1366,768,1366,768,8-22-2022,7-0-12,65,depth_duration_stimuli/000927_2014-06-09_16-32-30_260595134347_rgbf000123-resize_3/000927_2014-06-09_16-32-30_260595134347_rgbf000123-resize_3-target.png,1000,2.6785,8,3983,998,feet,jsons/v1_VE1000_randls_8.json,823971,1177475,25,Man
65,284099,DepthScenes,duration_manipulation_targetAtFixation,jsons/v1_VE1000_randls_8.json,http://54.235.29.9/FacialAge/BNav_EC2/DepthDuration/v2_depth_duration_MTurk/v2_DepthDuration_HTML.html#85,85,1366,768,1366,768,8-22-2022,7-0-12,66,depth_duration_stimuli/001222_2014-06-17_16-24-06_260595134347_rgbf000073-resize_0/001222_2014-06-17_16-24-06_260595134347_rgbf000073-resize-original.jpg,1000,1.4385,0,4508,997,feet,jsons/v1_VE1000_randls_8.json,823971,1177475,25,Man
66,284099,DepthScenes,duration_manipulation_targetAtFixation,jsons/v1_VE1000_randls_8.json,http://54.235.29.9/FacialAge/BNav_EC2/DepthDuration/v2_depth_duration_MTurk/v2_DepthDuration_HTML.html#85,85,1366,768,1366,768,8-22-2022,7-0-12,67,depth_duration_stimuli/002784_2014-06-22_19-26-30_094959634447_rgbf000083-resize_3/002784_2014-06-22_19-26-30_094959634447_rgbf000083-resize_3-target.png,1000,1.8046666666667,4,3424,995,feet,jsons/v1_VE1000_randls_8.json,823971,1177475,25,Man
67,284099,DepthScenes,duration_manipulation_targetAtFixation,jsons/v1_VE1000_randls_8.json,http://54.235.29.9/FacialAge/BNav_EC2/DepthDuration/v2_depth_duration_MTurk/v2_DepthDuration_HTML.html#85,85,1366,768,1366,768,8-22-2022,7-0-12,68,depth_duration_stimuli/001100_2014-06-15_17-46-26_260595134347_rgbf000225-resize_2/001100_2014-06-15_17-46-26_260595134347_rgbf000225-resize_2-target.png,1000,2.24,3,3782,1010,feet,jsons/v1_VE1000_randls_8.json,823971,1177475,25,Man
68,284099,DepthScenes,duration_manipulation_targetAtFixation,jsons/v1_VE1000_randls_8.json,http://54.235.29.9/FacialAge/BNav_EC2/DepthDuration/v2_depth_duration_MTurk/v2_DepthDuration_HTML.html#85,85,1366,768,1366,768,8-22-2022,7-0-12,69,depth_duration_stimuli/001167_2014-06-17_15-38-07_260595134347_rgbf000108-resize_0/001167_2014-06-17_15-38-07_260595134347_rgbf000108-resize_0-target.png,1000,1.8505,5,3915,1007,feet,jsons/v1_VE1000_randls_8.json,823971,1177475,25,Man
69,284099,DepthScenes,duration_manipulation_targetAtFixation,jsons/v1_VE1000_randls_8.json,http://54.235.29.9/FacialAge/BNav_EC2/DepthDuration/v2_depth_duration_MTurk/v2_DepthDuration_HTML.html#85,85,1366,768,1366,768,8-22-2022,7-0-12,70,depth_duration_stimuli/003587_2014-05-23_16-48-02_094959634447_rgbf002384-resize_2/003587_2014-05-23_16-48-02_094959634447_rgbf002384-resize_2-target.png,1000,1.357,3,4241,1013,feet,jsons/v1_VE1000_randls_8.json,823971,1177475,25,Man
70,284099,DepthScenes,duration_manipulation_targetAtFixation,jsons/v1_VE1000_randls_8.json,http://54.235.29.9/FacialAge/BNav_EC2/DepthDuration/v2_depth_duration_MTurk/v2_DepthDuration_HTML.html#85,85,1366,768,1366,768,8-22-2022,7-0-12,71,depth_duration_stimuli/000906_2014-06-08_13-35-43_260595134347_rgbf000155-resize_1/000906_2014-06-08_13-35-43_260595134347_rgbf000155-resize_1-target.png,1000,2.8489999999999998,8,3899,1001,feet,jsons/v1_VE1000_randls_8.json,823971,1177475,25,Man
71,284099,DepthScenes,duration_manipulation_targetAtFixation,jsons/v1_VE1000_randls_8.json,http://54.235.29.9/FacialAge/BNav_EC2/DepthDuration/v2_depth_duration_MTurk/v2_DepthDuration_HTML.html#85,85,1366,768,1366,768,8-22-2022,7-0-12,72,depth_duration_stimuli/002805_2014-06-22_19-54-03_094959634447_rgbf000079-resize_1/002805_2014-06-22_19-54-03_094959634447_rgbf000079-resize_1-target.png,1000,3.1439999999999997,7,3701,997,feet,jsons/v1_VE1000_randls_8.json,823971,1177475,25,Man
72,284099,DepthScenes,duration_manipulation_targetAtFixation,jsons/v1_VE1000_randls_8.json,http://54.235.29.9/FacialAge/BNav_EC2/DepthDuration/v2_depth_duration_MTurk/v2_DepthDuration_HTML.html#85,85,1366,768,1366,768,8-22-2022,7-0-12,73,depth_duration_stimuli/001199_2014-06-17_16-03-48_260595134347_rgbf000077-resize_0/001199_2014-06-17_16-03-48_260595134347_rgbf000077-resize_0-target.png,1000,3.4375,9,4462,997,feet,jsons/v1_VE1000_randls_8.json,823971,1177475,25,Man
73,284099,DepthScenes,duration_manipulation_targetAtFixation,jsons/v1_VE1000_randls_8.json,http://54.235.29.9/FacialAge/BNav_EC2/DepthDuration/v2_depth_duration_MTurk/v2_DepthDuration_HTML.html#85,85,1366,768,1366,768,8-22-2022,7-0-12,74,depth_duration_stimuli/000502_2014-06-08_23-02-32_260595134347_rgbf000063-resize_4/000502_2014-06-08_23-02-32_260595134347_rgbf000063-resize_4-target.png,1000,2.431,5,4182,1001,feet,jsons/v1_VE1000_randls_8.json,823971,1177475,25,Man
74,284099,DepthScenes,duration_manipulation_targetAtFixation,jsons/v1_VE1000_randls_8.json,http://54.235.29.9/FacialAge/BNav_EC2/DepthDuration/v2_depth_duration_MTurk/v2_DepthDuration_HTML.html#85,85,1366,768,1366,768,8-22-2022,7-0-12,75,depth_duration_stimuli/001056_2014-06-08_18-46-44_260595134347_rgbf000068-resize_0/001056_2014-06-08_18-46-44_260595134347_rgbf000068-resize_0-target.png,1000,2.6625,6,5982,989,feet,jsons/v1_VE1000_randls_8.json,823971,1177475,25,Man
75,284099,DepthScenes,duration_manipulation_targetAtFixation,jsons/v1_VE1000_randls_8.json,http://54.235.29.9/FacialAge/BNav_EC2/DepthDuration/v2_depth_duration_MTurk/v2_DepthDuration_HTML.html#85,85,1366,768,1366,768,8-22-2022,7-0-12,76,depth_duration_stimuli/002199_2014-06-28_18-33-56_260595134347_rgbf000074-resize_0/002199_2014-06-28_18-33-56_260595134347_rgbf000074-resize_0-target.png,1000,1.996,4,3833,1003,feet,jsons/v1_VE1000_randls_8.json,823971,1177475,25,Man
76,284099,DepthScenes,duration_manipulation_targetAtFixation,jsons/v1_VE1000_randls_8.json,http://54.235.29.9/FacialAge/BNav_EC2/DepthDuration/v2_depth_duration_MTurk/v2_DepthDuration_HTML.html#85,85,1366,768,1366,768,8-22-2022,7-0-12,77,depth_duration_stimuli/001158_2014-06-17_15-32-16_260595134347_rgbf000138-resize_2/001158_2014-06-17_15-32-16_260595134347_rgbf000138-resize_2-target.png,1000,4.5315,6,4745,1008,feet,jsons/v1_VE1000_randls_8.json,823971,1177475,25,Man
77,284099,DepthScenes,duration_manipulation_targetAtFixation,jsons/v1_VE1000_randls_8.json,http://54.235.29.9/FacialAge/BNav_EC2/DepthDuration/v2_depth_duration_MTurk/v2_DepthDuration_HTML.html#85,85,1366,768,1366,768,8-22-2022,7-0-12,78,depth_duration_stimuli/000556_2014-06-09_22-42-56_260595134347_rgbf000214-resize_1/000556_2014-06-09_22-42-56_260595134347_rgbf000214-resize_1-target.png,1000,4.8415,5,4072,988,feet,jsons/v1_VE1000_randls_8.json,823971,1177475,25,Man
78,284099,DepthScenes,duration_manipulation_targetAtFixation,jsons/v1_VE1000_randls_8.json,http://54.235.29.9/FacialAge/BNav_EC2/DepthDuration/v2_depth_duration_MTurk/v2_DepthDuration_HTML.html#85,85,1366,768,1366,768,8-22-2022,7-0-12,79,depth_duration_stimuli/002748_2014-06-22_19-07-22_094959634447_rgbf000078-resize_1/002748_2014-06-22_19-07-22_094959634447_rgbf000078-resize_1-target.png,1000,4.6705,10,4009,997,feet,jsons/v1_VE1000_randls_8.json,823971,1177475,25,Man
79,284099,DepthScenes,duration_manipulation_targetAtFixation,jsons/v1_VE1000_randls_8.json,http://54.235.29.9/FacialAge/BNav_EC2/DepthDuration/v2_depth_duration_MTurk/v2_DepthDuration_HTML.html#85,85,1366,768,1366,768,8-22-2022,7-0-12,80,depth_duration_stimuli/002995_2014-06-15_12-31-26_094959634447_rgbf000150-resize_1/002995_2014-06-15_12-31-26_094959634447_rgbf000150-resize_1-target.png,1000,3.8360000000000003,7,3953,1003,feet,jsons/v1_VE1000_randls_8.json,823971,1177475,25,Man
80,284099,DepthScenes,duration_manipulation_targetAtFixation,jsons/v1_VE1000_randls_8.json,http://54.235.29.9/FacialAge/BNav_EC2/DepthDuration/v2_depth_duration_MTurk/v2_DepthDuration_HTML.html#85,85,1366,768,1366,768,8-22-2022,7-0-12,81,depth_duration_stimuli/000436_2014-06-09_22-25-11_260595134347_rgbf000137-resize_1/000436_2014-06-09_22-25-11_260595134347_rgbf000137-resize_1-target.png,1000,4.0705,8,3532,1001,feet,jsons/v1_VE1000_randls_8.json,823971,1177475,25,Man
81,284099,DepthScenes,duration_manipulation_targetAtFixation,jsons/v1_VE1000_randls_8.json,http://54.235.29.9/FacialAge/BNav_EC2/DepthDuration/v2_depth_duration_MTurk/v2_DepthDuration_HTML.html#85,85,1366,768,1366,768,8-22-2022,7-0-12,82,depth_duration_stimuli/002444_2014-06-28_20-32-08_260595134347_rgbf000027-resize_0/002444_2014-06-28_20-32-08_260595134347_rgbf000027-resize_0-target.png,1000,4.388999999999999,7,4698,1000,feet,jsons/v1_VE1000_randls_8.json,823971,1177475,25,Man
82,284099,DepthScenes,duration_manipulation_targetAtFixation,jsons/v1_VE1000_randls_8.json,http://54.235.29.9/FacialAge/BNav_EC2/DepthDuration/v2_depth_duration_MTurk/v2_DepthDuration_HTML.html#85,85,1366,768,1366,768,8-22-2022,7-0-12,83,depth_duration_stimuli/000758_2014-06-08_22-05-08_260595134347_rgbf000085-resize_0/000758_2014-06-08_22-05-08_260595134347_rgbf000085-resize_0-target.png,1000,3.3810000000000002,7,4368,986,feet,jsons/v1_VE1000_randls_8.json,823971,1177475,25,Man
83,284099,DepthScenes,duration_manipulation_targetAtFixation,jsons/v1_VE1000_randls_8.json,http://54.235.29.9/FacialAge/BNav_EC2/DepthDuration/v2_depth_duration_MTurk/v2_DepthDuration_HTML.html#85,85,1366,768,1366,768,8-22-2022,7-0-12,84,depth_duration_stimuli/000854_2014-06-09_19-43-13_260595134347_rgbf000066-resize_0/000854_2014-06-09_19-43-13_260595134347_rgbf000066-resize_0-target.png,1000,3.068,5,3565,986,feet,jsons/v1_VE1000_randls_8.json,823971,1177475,25,Man
84,284099,DepthScenes,duration_manipulation_targetAtFixation,jsons/v1_VE1000_randls_8.json,http://54.235.29.9/FacialAge/BNav_EC2/DepthDuration/v2_depth_duration_MTurk/v2_DepthDuration_HTML.html#85,85,1366,768,1366,768,8-22-2022,7-0-12,85,depth_duration_stimuli/000009_2014-05-26_14-32-05_260595134347_rgbf000034-resize_3/000009_2014-05-26_14-32-05_260595134347_rgbf000034-resize_3-target.png,1000,3.8715,9,4320,1003,feet,jsons/v1_VE1000_randls_8.json,823971,1177475,25,Man
85,284099,DepthScenes,duration_manipulation_targetAtFixation,jsons/v1_VE1000_randls_8.json,http://54.235.29.9/FacialAge/BNav_EC2/DepthDuration/v2_depth_duration_MTurk/v2_DepthDuration_HTML.html#85,85,1366,768,1366,768,8-22-2022,7-0-12,86,depth_duration_stimuli/001828_2014-06-26_21-40-03_260595134347_rgbf000024-resize_0/001828_2014-06-26_21-40-03_260595134347_rgbf000024-resize_0-target.png,1000,4.8260000000000005,8,4261,990,feet,jsons/v1_VE1000_randls_8.json,823971,1177475,25,Man
86,284099,DepthScenes,duration_manipulation_targetAtFixation,jsons/v1_VE1000_randls_8.json,http://54.235.29.9/FacialAge/BNav_EC2/DepthDuration/v2_depth_duration_MTurk/v2_DepthDuration_HTML.html#85,85,1366,768,1366,768,8-22-2022,7-0-12,87,depth_duration_stimuli/001029_2014-06-08_13-17-57_260595134347_rgbf000065-resize_1/001029_2014-06-08_13-17-57_260595134347_rgbf000065-resize_1-target.png,1000,3.0835,7,11192,1003,feet,jsons/v1_VE1000_randls_8.json,823971,1177475,25,Man
87,284099,DepthScenes,duration_manipulation_targetAtFixation,jsons/v1_VE1000_randls_8.json,http://54.235.29.9/FacialAge/BNav_EC2/DepthDuration/v2_depth_duration_MTurk/v2_DepthDuration_HTML.html#85,85,1366,768,1366,768,8-22-2022,7-0-12,88,depth_duration_stimuli/000677_2014-06-08_23-10-32_260595134347_rgbf000158-resize_6/000677_2014-06-08_23-10-32_260595134347_rgbf000158-resize_6-target.png,1000,3.556,5,4931,999,feet,jsons/v1_VE1000_randls_8.json,823971,1177475,25,Man
88,284099,DepthScenes,duration_manipulation_targetAtFixation,jsons/v1_VE1000_randls_8.json,http://54.235.29.9/FacialAge/BNav_EC2/DepthDuration/v2_depth_duration_MTurk/v2_DepthDuration_HTML.html#85,85,1366,768,1366,768,8-22-2022,7-0-12,89,depth_duration_stimuli/003534_2014-05-22_15-06-10_094959634447_rgbf000102-resize_4/003534_2014-05-22_15-06-10_094959634447_rgbf000102-resize_4-target.png,1000,1.426,3,4977,997,feet,jsons/v1_VE1000_randls_8.json,823971,1177475,25,Man
89,284099,DepthScenes,duration_manipulation_targetAtFixation,jsons/v1_VE1000_randls_8.json,http://54.235.29.9/FacialAge/BNav_EC2/DepthDuration/v2_depth_duration_MTurk/v2_DepthDuration_HTML.html#85,85,1366,768,1366,768,8-22-2022,7-0-12,90,depth_duration_stimuli/002637_2014-06-24_14-51-13_094959634447_rgbf000066-resize_4/002637_2014-06-24_14-51-13_094959634447_rgbf000066-resize_4-target.png,1000,1.9955,4,4917,1005,feet,jsons/v1_VE1000_randls_8.json,823971,1177475,25,Man
90,284099,DepthScenes,duration_manipulation_targetAtFixation,jsons/v1_VE1000_randls_8.json,http://54.235.29.9/FacialAge/BNav_EC2/DepthDuration/v2_depth_duration_MTurk/v2_DepthDuration_HTML.html#85,85,1366,768,1366,768,8-22-2022,7-0-12,91,depth_duration_stimuli/002118_2014-06-25_20-32-08_260595134347_rgbf000078-resize_1/002118_2014-06-25_20-32-08_260595134347_rgbf000078-resize_1-target.png,1000,2.6460000000000004,5,5762,1003,feet,jsons/v1_VE1000_randls_8.json,823971,1177475,25,Man
91,284099,DepthScenes,duration_manipulation_targetAtFixation,jsons/v1_VE1000_randls_8.json,http://54.235.29.9/FacialAge/BNav_EC2/DepthDuration/v2_depth_duration_MTurk/v2_DepthDuration_HTML.html#85,85,1366,768,1366,768,8-22-2022,7-0-12,92,depth_duration_stimuli/001516_2014-06-20_16-25-09_260595134347_rgbf000076-resize_2/001516_2014-06-20_16-25-09_260595134347_rgbf000076-resize_2-target.png,1000,1.7445,7,4278,1003,feet,jsons/v1_VE1000_randls_8.json,823971,1177475,25,Man
92,284099,DepthScenes,duration_manipulation_targetAtFixation,jsons/v1_VE1000_randls_8.json,http://54.235.29.9/FacialAge/BNav_EC2/DepthDuration/v2_depth_duration_MTurk/v2_DepthDuration_HTML.html#85,85,1366,768,1366,768,8-22-2022,7-0-12,93,depth_duration_stimuli/000917_2014-06-09_22-45-29_260595134347_rgbf000149-resize_3/000917_2014-06-09_22-45-29_260595134347_rgbf000149-resize_3-target.png,1000,4.1865,8,4966,998,feet,jsons/v1_VE1000_randls_8.json,823971,1177475,25,Man
93,284099,DepthScenes,duration_manipulation_targetAtFixation,jsons/v1_VE1000_randls_8.json,http://54.235.29.9/FacialAge/BNav_EC2/DepthDuration/v2_depth_duration_MTurk/v2_DepthDuration_HTML.html#85,85,1366,768,1366,768,8-22-2022,7-0-12,94,depth_duration_stimuli/002323_2014-06-28_20-01-54_260595134347_rgbf000051-resize_4/002323_2014-06-28_20-01-54_260595134347_rgbf000051-resize_4-target.png,1000,3.7310000000000003,9,4094,986,feet,jsons/v1_VE1000_randls_8.json,823971,1177475,25,Man
94,284099,DepthScenes,duration_manipulation_targetAtFixation,jsons/v1_VE1000_randls_8.json,http://54.235.29.9/FacialAge/BNav_EC2/DepthDuration/v2_depth_duration_MTurk/v2_DepthDuration_HTML.html#85,85,1366,768,1366,768,8-22-2022,7-0-12,95,depth_duration_stimuli/000642_2014-06-08_16-59-25_260595134347_rgbf000098-resize_2/000642_2014-06-08_16-59-25_260595134347_rgbf000098-resize_2-target.png,1000,2.8815,6,5549,998,feet,jsons/v1_VE1000_randls_8.json,823971,1177475,25,Man
95,284099,DepthScenes,duration_manipulation_targetAtFixation,jsons/v1_VE1000_randls_8.json,http://54.235.29.9/FacialAge/BNav_EC2/DepthDuration/v2_depth_duration_MTurk/v2_DepthDuration_HTML.html#85,85,1366,768,1366,768,8-22-2022,7-0-12,96,depth_duration_stimuli/002425_2014-06-28_20-27-29_260595134347_rgbf000031-resize_8/002425_2014-06-28_20-27-29_260595134347_rgbf000031-resize_8-target.png,1000,3.8960000000000004,5,44659,998,feet,jsons/v1_VE1000_randls_8.json,823971,1177475,25,Man
96,284099,DepthScenes,duration_manipulation_targetAtFixation,jsons/v1_VE1000_randls_8.json,http://54.235.29.9/FacialAge/BNav_EC2/DepthDuration/v2_depth_duration_MTurk/v2_DepthDuration_HTML.html#85,85,1366,768,1366,768,8-22-2022,7-0-12,97,depth_duration_stimuli/001150_2014-06-17_15-27-34_260595134347_rgbf000108-resize_2/001150_2014-06-17_15-27-34_260595134347_rgbf000108-resize_2-target.png,1000,4.0325,8,4519,996,feet,jsons/v1_VE1000_randls_8.json,823971,1177475,25,Man
97,284099,DepthScenes,duration_manipulation_targetAtFixation,jsons/v1_VE1000_randls_8.json,http://54.235.29.9/FacialAge/BNav_EC2/DepthDuration/v2_depth_duration_MTurk/v2_DepthDuration_HTML.html#85,85,1366,768,1366,768,8-22-2022,7-0-12,98,depth_duration_stimuli/000665_2014-06-09_20-42-35_260595134347_rgbf000110-resize_1/000665_2014-06-09_20-42-35_260595134347_rgbf000110-resize_1-target.png,1000,3.057,7,4000,1001,feet,jsons/v1_VE1000_randls_8.json,823971,1177475,25,Man
98,284099,DepthScenes,duration_manipulation_targetAtFixation,jsons/v1_VE1000_randls_8.json,http://54.235.29.9/FacialAge/BNav_EC2/DepthDuration/v2_depth_duration_MTurk/v2_DepthDuration_HTML.html#85,85,1366,768,1366,768,8-22-2022,7-0-12,99,depth_duration_stimuli/001540_2014-06-20_17-01-05_260595134347_rgbf000086-resize_2/001540_2014-06-20_17-01-05_260595134347_rgbf000086-resize-original.jpg,1000,1.459,0,5106,1012,feet,jsons/v1_VE1000_randls_8.json,823971,1177475,25,Man
99,284099,DepthScenes,duration_manipulation_targetAtFixation,jsons/v1_VE1000_randls_8.json,http://54.235.29.9/FacialAge/BNav_EC2/DepthDuration/v2_depth_duration_MTurk/v2_DepthDuration_HTML.html#85,85,1366,768,1366,768,8-22-2022,7-0-12,100,depth_duration_stimuli/001164_2014-06-17_15-35-46_260595134347_rgbf000085-resize_3/001164_2014-06-17_15-35-46_260595134347_rgbf000085-resize_3-target.png,1000,2.354,7,4872,984,feet,jsons/v1_VE1000_randls_8.json,823971,1177475,25,Man
100,284099,DepthScenes,duration_manipulation_targetAtFixation,jsons/v1_VE1000_randls_8.json,http://54.235.29.9/FacialAge/BNav_EC2/DepthDuration/v2_depth_duration_MTurk/v2_DepthDuration_HTML.html#85,85,1366,768,1366,768,8-22-2022,7-0-12,101,depth_duration_stimuli/001136_2014-06-17_15-19-41_260595134347_rgbf000076-resize_3/001136_2014-06-17_15-19-41_260595134347_rgbf000076-resize_3-target.png,1000,1.8655,8,4943,1002,feet,jsons/v1_VE1000_randls_8.json,823971,1177475,25,Man
101,284099,DepthScenes,duration_manipulation_targetAtFixation,jsons/v1_VE1000_randls_8.json,http://54.235.29.9/FacialAge/BNav_EC2/DepthDuration/v2_depth_duration_MTurk/v2_DepthDuration_HTML.html#85,85,1366,768,1366,768,8-22-2022,7-0-12,102,depth_duration_stimuli/002039_2014-06-24_20-22-38_260595134347_rgbf000084-resize_1/002039_2014-06-24_20-22-38_260595134347_rgbf000084-resize_1-target.png,1000,4.408,7,3999,978,feet,jsons/v1_VE1000_randls_8.json,823971,1177475,25,Man
102,284099,DepthScenes,duration_manipulation_targetAtFixation,jsons/v1_VE1000_randls_8.json,http://54.235.29.9/FacialAge/BNav_EC2/DepthDuration/v2_depth_duration_MTurk/v2_DepthDuration_HTML.html#85,85,1366,768,1366,768,8-22-2022,7-0-12,103,depth_duration_stimuli/002103_2014-06-25_20-00-40_260595134347_rgbf000049-resize_0/002103_2014-06-25_20-00-40_260595134347_rgbf000049-resize_0-target.png,1000,4.105,8,3998,997,feet,jsons/v1_VE1000_randls_8.json,823971,1177475,25,Man
103,284099,DepthScenes,duration_manipulation_targetAtFixation,jsons/v1_VE1000_randls_8.json,http://54.235.29.9/FacialAge/BNav_EC2/DepthDuration/v2_depth_duration_MTurk/v2_DepthDuration_HTML.html#85,85,1366,768,1366,768,8-22-2022,7-0-12,104,depth_duration_stimuli/001092_2014-06-15_17-34-58_260595134347_rgbf000171-resize_3/001092_2014-06-15_17-34-58_260595134347_rgbf000171-resize_3-target.png,1000,2.6935,5,4072,1000,feet,jsons/v1_VE1000_randls_8.json,823971,1177475,25,Man
104,284099,DepthScenes,duration_manipulation_targetAtFixation,jsons/v1_VE1000_randls_8.json,http://54.235.29.9/FacialAge/BNav_EC2/DepthDuration/v2_depth_duration_MTurk/v2_DepthDuration_HTML.html#85,85,1366,768,1366,768,8-22-2022,7-0-12,105,depth_duration_stimuli/002545_2014-06-24_13-38-53_094959634447_rgbf000080-resize_4/002545_2014-06-24_13-38-53_094959634447_rgbf000080-resize_4-target.png,1000,1.9205,7,4184,997,feet,jsons/v1_VE1000_randls_8.json,823971,1177475,25,Man
105,284099,DepthScenes,duration_manipulation_targetAtFixation,jsons/v1_VE1000_randls_8.json,http://54.235.29.9/FacialAge/BNav_EC2/DepthDuration/v2_depth_duration_MTurk/v2_DepthDuration_HTML.html#85,85,1366,768,1366,768,8-22-2022,7-0-12,106,depth_duration_stimuli/000486_2014-06-09_20-47-20_260595134347_rgbf000143-resize_2/000486_2014-06-09_20-47-20_260595134347_rgbf000143-resize_2-target.png,1000,4.8325,8,4103,999,feet,jsons/v1_VE1000_randls_8.json,823971,1177475,25,Man
106,284099,DepthScenes,duration_manipulation_targetAtFixation,jsons/v1_VE1000_randls_8.json,http://54.235.29.9/FacialAge/BNav_EC2/DepthDuration/v2_depth_duration_MTurk/v2_DepthDuration_HTML.html#85,85,1366,768,1366,768,8-22-2022,7-0-12,107,depth_duration_stimuli/003083_2014-06-15_15-21-03_094959634447_rgbf000063-resize_1/003083_2014-06-15_15-21-03_094959634447_rgbf000063-resize_1-target.png,1000,4.1405,7,3807,998,feet,jsons/v1_VE1000_randls_8.json,823971,1177475,25,Man
107,284099,DepthScenes,duration_manipulation_targetAtFixation,jsons/v1_VE1000_randls_8.json,http://54.235.29.9/FacialAge/BNav_EC2/DepthDuration/v2_depth_duration_MTurk/v2_DepthDuration_HTML.html#85,85,1366,768,1366,768,8-22-2022,7-0-12,108,depth_duration_stimuli/000739_2014-06-08_18-45-58_260595134347_rgbf000068-resize_1/000739_2014-06-08_18-45-58_260595134347_rgbf000068-resize_1-target.png,1000,3.534,7,3897,993,feet,jsons/v1_VE1000_randls_8.json,823971,1177475,25,Man
108,284099,DepthScenes,duration_manipulation_targetAtFixation,jsons/v1_VE1000_randls_8.json,http://54.235.29.9/FacialAge/BNav_EC2/DepthDuration/v2_depth_duration_MTurk/v2_DepthDuration_HTML.html#85,85,1366,768,1366,768,8-22-2022,7-0-12,109,depth_duration_stimuli/000734_2014-06-08_17-39-11_260595134347_rgbf000128-resize_2/000734_2014-06-08_17-39-11_260595134347_rgbf000128-resize_2-target.png,1000,4.098,6,3924,998,feet,jsons/v1_VE1000_randls_8.json,823971,1177475,25,Man
109,284099,DepthScenes,duration_manipulation_targetAtFixation,jsons/v1_VE1000_randls_8.json,http://54.235.29.9/FacialAge/BNav_EC2/DepthDuration/v2_depth_duration_MTurk/v2_DepthDuration_HTML.html#85,85,1366,768,1366,768,8-22-2022,7-0-12,110,depth_duration_stimuli/002905_2014-06-03_18-04-43_094959634447_rgbf000151-resize_2/002905_2014-06-03_18-04-43_094959634447_rgbf000151-resize_2-target.png,1000,2.0295,5,3939,998,feet,jsons/v1_VE1000_randls_8.json,823971,1177475,25,Man
110,284099,DepthScenes,duration_manipulation_targetAtFixation,jsons/v1_VE1000_randls_8.json,http://54.235.29.9/FacialAge/BNav_EC2/DepthDuration/v2_depth_duration_MTurk/v2_DepthDuration_HTML.html#85,85,1366,768,1366,768,8-22-2022,7-0-12,111,depth_duration_stimuli/003423_2014-05-21_10-23-26_094959634447_rgbf002665-resize_2/003423_2014-05-21_10-23-26_094959634447_rgbf002665-resize_2-target.png,1000,3.2575,5,3377,989,feet,jsons/v1_VE1000_randls_8.json,823971,1177475,25,Man
111,284099,DepthScenes,duration_manipulation_targetAtFixation,jsons/v1_VE1000_randls_8.json,http://54.235.29.9/FacialAge/BNav_EC2/DepthDuration/v2_depth_duration_MTurk/v2_DepthDuration_HTML.html#85,85,1366,768,1366,768,8-22-2022,7-0-12,112,depth_duration_stimuli/002279_2014-06-28_18-55-32_260595134347_rgbf000040-resize_5/002279_2014-06-28_18-55-32_260595134347_rgbf000040-resize_5-target.png,1000,1.5043333333333,4,3654,998,feet,jsons/v1_VE1000_randls_8.json,823971,1177475,25,Man
112,284099,DepthScenes,duration_manipulation_targetAtFixation,jsons/v1_VE1000_randls_8.json,http://54.235.29.9/FacialAge/BNav_EC2/DepthDuration/v2_depth_duration_MTurk/v2_DepthDuration_HTML.html#85,85,1366,768,1366,768,8-22-2022,7-0-12,113,depth_duration_stimuli/000635_2014-06-08_16-38-42_260595134347_rgbf000106-resize_1/000635_2014-06-08_16-38-42_260595134347_rgbf000106-resize_1-target.png,1000,2.074,8,3701,973,feet,jsons/v1_VE1000_randls_8.json,823971,1177475,25,Man
113,284099,DepthScenes,duration_manipulation_targetAtFixation,jsons/v1_VE1000_randls_8.json,http://54.235.29.9/FacialAge/BNav_EC2/DepthDuration/v2_depth_duration_MTurk/v2_DepthDuration_HTML.html#85,85,1366,768,1366,768,8-22-2022,7-0-12,114,depth_duration_stimuli/002153_2014-06-25_21-27-18_260595134347_rgbf000038-resize_5/002153_2014-06-25_21-27-18_260595134347_rgbf000038-resize_5-target.png,1000,2.505,5,4035,998,feet,jsons/v1_VE1000_randls_8.json,823971,1177475,25,Man
114,284099,DepthScenes,duration_manipulation_targetAtFixation,jsons/v1_VE1000_randls_8.json,http://54.235.29.9/FacialAge/BNav_EC2/DepthDuration/v2_depth_duration_MTurk/v2_DepthDuration_HTML.html#85,85,1366,768,1366,768,8-22-2022,7-0-12,115,depth_duration_stimuli/002660_2014-06-13_15-44-18_094959634447_rgbf001878-resize_2/002660_2014-06-13_15-44-18_094959634447_rgbf001878-resize_2-target.png,1000,3.576,6,3901,1004,feet,jsons/v1_VE1000_randls_8.json,823971,1177475,25,Man
115,284099,DepthScenes,duration_manipulation_targetAtFixation,jsons/v1_VE1000_randls_8.json,http://54.235.29.9/FacialAge/BNav_EC2/DepthDuration/v2_depth_duration_MTurk/v2_DepthDuration_HTML.html#85,85,1366,768,1366,768,8-22-2022,7-0-12,116,depth_duration_stimuli/001170_2014-06-17_15-43-44_260595134347_rgbf000096-resize_6/001170_2014-06-17_15-43-44_260595134347_rgbf000096-resize-original.jpg,1000,1.1909999999999998,0,4023,993,feet,jsons/v1_VE1000_randls_8.json,823971,1177475,25,Man
116,284099,DepthScenes,duration_manipulation_targetAtFixation,jsons/v1_VE1000_randls_8.json,http://54.235.29.9/FacialAge/BNav_EC2/DepthDuration/v2_depth_duration_MTurk/v2_DepthDuration_HTML.html#85,85,1366,768,1366,768,8-22-2022,7-0-12,117,depth_duration_stimuli/000522_2014-06-08_13-35-06_260595134347_rgbf000244-resize_1/000522_2014-06-08_13-35-06_260595134347_rgbf000244-resize_1-target.png,1000,2.3715,4,3869,989,feet,jsons/v1_VE1000_randls_8.json,823971,1177475,25,Man
117,284099,DepthScenes,duration_manipulation_targetAtFixation,jsons/v1_VE1000_randls_8.json,http://54.235.29.9/FacialAge/BNav_EC2/DepthDuration/v2_depth_duration_MTurk/v2_DepthDuration_HTML.html#85,85,1366,768,1366,768,8-22-2022,7-0-12,118,depth_duration_stimuli/002949_2014-06-26_15-57-42_094959634447_rgbf000079-resize_1/002949_2014-06-26_15-57-42_094959634447_rgbf000079-resize_1-target.png,1000,1.8915,6,3623,996,feet,jsons/v1_VE1000_randls_8.json,823971,1177475,25,Man
118,284099,DepthScenes,duration_manipulation_targetAtFixation,jsons/v1_VE1000_randls_8.json,http://54.235.29.9/FacialAge/BNav_EC2/DepthDuration/v2_depth_duration_MTurk/v2_DepthDuration_HTML.html#85,85,1366,768,1366,768,8-22-2022,7-0-12,119,depth_duration_stimuli/002272_2014-06-28_18-53-56_260595134347_rgbf000067-resize_2/002272_2014-06-28_18-53-56_260595134347_rgbf000067-resize_2-target.png,1000,1.138,5,3612,998,feet,jsons/v1_VE1000_randls_8.json,823971,1177475,25,Man
119,284099,DepthScenes,duration_manipulation_targetAtFixation,jsons/v1_VE1000_randls_8.json,http://54.235.29.9/FacialAge/BNav_EC2/DepthDuration/v2_depth_duration_MTurk/v2_DepthDuration_HTML.html#85,85,1366,768,1366,768,8-22-2022,7-0-12,120,depth_duration_stimuli/001571_2014-06-20_17-21-32_260595134347_rgbf000089-resize_1/001571_2014-06-20_17-21-32_260595134347_rgbf000089-resize_1-target.png,1000,1.86,5,3524,993,feet,jsons/v1_VE1000_randls_8.json,823971,1177475,25,Man
120,284099,DepthScenes,duration_manipulation_targetAtFixation,jsons/v1_VE1000_randls_8.json,http://54.235.29.9/FacialAge/BNav_EC2/DepthDuration/v2_depth_duration_MTurk/v2_DepthDuration_HTML.html#85,85,1366,768,1366,768,8-22-2022,7-0-12,121,depth_duration_stimuli/002213_2014-06-28_18-37-58_260595134347_rgbf000055-resize_1/002213_2014-06-28_18-37-58_260595134347_rgbf000055-resize_1-target.png,1000,3.62,9,3734,999,feet,jsons/v1_VE1000_randls_8.json,823971,1177475,25,Man
121,284099,DepthScenes,duration_manipulation_targetAtFixation,jsons/v1_VE1000_randls_8.json,http://54.235.29.9/FacialAge/BNav_EC2/DepthDuration/v2_depth_duration_MTurk/v2_DepthDuration_HTML.html#85,85,1366,768,1366,768,8-22-2022,7-0-12,122,depth_duration_stimuli/000691_2014-06-08_13-08-50_260595134347_rgbf000132-resize_3/000691_2014-06-08_13-08-50_260595134347_rgbf000132-resize_3-target.png,1000,4.1530000000000005,6,3605,995,feet,jsons/v1_VE1000_randls_8.json,823971,1177475,25,Man
122,284099,DepthScenes,duration_manipulation_targetAtFixation,jsons/v1_VE1000_randls_8.json,http://54.235.29.9/FacialAge/BNav_EC2/DepthDuration/v2_depth_duration_MTurk/v2_DepthDuration_HTML.html#85,85,1366,768,1366,768,8-22-2022,7-0-12,123,depth_duration_stimuli/002570_2014-06-24_13-59-54_094959634447_rgbf000059-resize_0/002570_2014-06-24_13-59-54_094959634447_rgbf000059-resize_0-target.png,1000,4.037,8,3779,1000,feet,jsons/v1_VE1000_randls_8.json,823971,1177475,25,Man
123,284099,DepthScenes,duration_manipulation_targetAtFixation,jsons/v1_VE1000_randls_8.json,http://54.235.29.9/FacialAge/BNav_EC2/DepthDuration/v2_depth_duration_MTurk/v2_DepthDuration_HTML.html#85,85,1366,768,1366,768,8-22-2022,7-0-12,124,depth_duration_stimuli/002467_2014-06-28_20-38-07_260595134347_rgbf000026-resize_2/002467_2014-06-28_20-38-07_260595134347_rgbf000026-resize_2-target.png,1000,4.742,5,4512,998,feet,jsons/v1_VE1000_randls_8.json,823971,1177475,25,Man
124,284099,DepthScenes,duration_manipulation_targetAtFixation,jsons/v1_VE1000_randls_8.json,http://54.235.29.9/FacialAge/BNav_EC2/DepthDuration/v2_depth_duration_MTurk/v2_DepthDuration_HTML.html#85,85,1366,768,1366,768,8-22-2022,7-0-12,125,depth_duration_stimuli/002043_2014-06-24_20-29-38_260595134347_rgbf000039-resize_4/002043_2014-06-24_20-29-38_260595134347_rgbf000039-resize_4-target.png,1000,2.8435,7,4485,998,feet,jsons/v1_VE1000_randls_8.json,823971,1177475,25,Man
125,284099,DepthScenes,duration_manipulation_targetAtFixation,jsons/v1_VE1000_randls_8.json,http://54.235.29.9/FacialAge/BNav_EC2/DepthDuration/v2_depth_duration_MTurk/v2_DepthDuration_HTML.html#85,85,1366,768,1366,768,8-22-2022,7-0-12,126,depth_duration_stimuli/003048_2014-06-15_13-49-43_094959634447_rgbf000150-resize_1/003048_2014-06-15_13-49-43_094959634447_rgbf000150-resize_1-target.png,1000,4.0035,8,3943,1000,feet,jsons/v1_VE1000_randls_8.json,823971,1177475,25,Man
126,284099,DepthScenes,duration_manipulation_targetAtFixation,jsons/v1_VE1000_randls_8.json,http://54.235.29.9/FacialAge/BNav_EC2/DepthDuration/v2_depth_duration_MTurk/v2_DepthDuration_HTML.html#85,85,1366,768,1366,768,8-22-2022,7-0-12,127,depth_duration_stimuli/002988_2014-06-15_12-24-20_094959634447_rgbf000150-resize_1/002988_2014-06-15_12-24-20_094959634447_rgbf000150-resize_1-target.png,1000,4.7669999999999995,10,3976,999,feet,jsons/v1_VE1000_randls_8.json,823971,1177475,25,Man
127,284099,DepthScenes,duration_manipulation_targetAtFixation,jsons/v1_VE1000_randls_8.json,http://54.235.29.9/FacialAge/BNav_EC2/DepthDuration/v2_depth_duration_MTurk/v2_DepthDuration_HTML.html#85,85,1366,768,1366,768,8-22-2022,7-0-12,128,depth_duration_stimuli/001052_2014-06-08_18-24-54_260595134347_rgbf000130-resize_1/001052_2014-06-08_18-24-54_260595134347_rgbf000130-resize_1-target.png,1000,4.1045,9,3819,996,feet,jsons/v1_VE1000_randls_8.json,823971,1177475,25,Man
128,284099,DepthScenes,duration_manipulation_targetAtFixation,jsons/v1_VE1000_randls_8.json,http://54.235.29.9/FacialAge/BNav_EC2/DepthDuration/v2_depth_duration_MTurk/v2_DepthDuration_HTML.html#85,85,1366,768,1366,768,8-22-2022,7-0-12,129,depth_duration_stimuli/000692_2014-06-08_13-09-42_260595134347_rgbf000199-resize_2/000692_2014-06-08_13-09-42_260595134347_rgbf000199-resize_2-target.png,1000,3.661,8,3788,997,feet,jsons/v1_VE1000_randls_8.json,823971,1177475,25,Man
129,284099,DepthScenes,duration_manipulation_targetAtFixation,jsons/v1_VE1000_randls_8.json,http://54.235.29.9/FacialAge/BNav_EC2/DepthDuration/v2_depth_duration_MTurk/v2_DepthDuration_HTML.html#85,85,1366,768,1366,768,8-22-2022,7-0-12,130,depth_duration_stimuli/001094_2014-06-15_17-36-00_260595134347_rgbf000205-resize_0/001094_2014-06-15_17-36-00_260595134347_rgbf000205-resize_0-target.png,1000,4.2175,9,3444,1013,feet,jsons/v1_VE1000_randls_8.json,823971,1177475,25,Man
130,284099,DepthScenes,duration_manipulation_targetAtFixation,jsons/v1_VE1000_randls_8.json,http://54.235.29.9/FacialAge/BNav_EC2/DepthDuration/v2_depth_duration_MTurk/v2_DepthDuration_HTML.html#85,85,1366,768,1366,768,8-22-2022,7-0-12,131,depth_duration_stimuli/001555_2014-06-20_17-12-10_260595134347_rgbf000065-resize_4/001555_2014-06-20_17-12-10_260595134347_rgbf000065-resize_4-target.png,1000,1.633,3,4962,995,feet,jsons/v1_VE1000_randls_8.json,823971,1177475,25,Man
131,284099,DepthScenes,duration_manipulation_targetAtFixation,jsons/v1_VE1000_randls_8.json,http://54.235.29.9/FacialAge/BNav_EC2/DepthDuration/v2_depth_duration_MTurk/v2_DepthDuration_HTML.html#85,85,1366,768,1366,768,8-22-2022,7-0-12,132,depth_duration_stimuli/000103_2014-05-14_22-01-17_260595134347_rgbf000152-resize_5/000103_2014-05-14_22-01-17_260595134347_rgbf000152-resize_5-target.png,1000,1.993,8,5982,1007,feet,jsons/v1_VE1000_randls_8.json,823971,1177475,25,Man
132,284099,DepthScenes,duration_manipulation_targetAtFixation,jsons/v1_VE1000_randls_8.json,http://54.235.29.9/FacialAge/BNav_EC2/DepthDuration/v2_depth_duration_MTurk/v2_DepthDuration_HTML.html#85,85,1366,768,1366,768,8-22-2022,7-0-12,133,depth_duration_stimuli/002057_2014-06-24_21-00-13_260595134347_rgbf000120-resize_1/002057_2014-06-24_21-00-13_260595134347_rgbf000120-resize_1-target.png,1000,2.967,9,4308,951,feet,jsons/v1_VE1000_randls_8.json,823971,1177475,25,Man
133,284099,DepthScenes,duration_manipulation_targetAtFixation,jsons/v1_VE1000_randls_8.json,http://54.235.29.9/FacialAge/BNav_EC2/DepthDuration/v2_depth_duration_MTurk/v2_DepthDuration_HTML.html#85,85,1366,768,1366,768,8-22-2022,7-0-12,134,depth_duration_stimuli/000709_2014-06-08_13-51-55_260595134347_rgbf000068-resize_3/000709_2014-06-08_13-51-55_260595134347_rgbf000068-resize_3-target.png,1000,1.8030000000000002,8,4413,1029,feet,jsons/v1_VE1000_randls_8.json,823971,1177475,25,Man
134,284099,DepthScenes,duration_manipulation_targetAtFixation,jsons/v1_VE1000_randls_8.json,http://54.235.29.9/FacialAge/BNav_EC2/DepthDuration/v2_depth_duration_MTurk/v2_DepthDuration_HTML.html#85,85,1366,768,1366,768,8-22-2022,7-0-12,135,depth_duration_stimuli/002072_2014-06-24_21-48-06_260595134347_rgbf000115-resize_0/002072_2014-06-24_21-48-06_260595134347_rgbf000115-resize-original.jpg,1000,4.702,0,4377,999,feet,jsons/v1_VE1000_randls_8.json,823971,1177475,25,Man
135,284099,DepthScenes,duration_manipulation_targetAtFixation,jsons/v1_VE1000_randls_8.json,http://54.235.29.9/FacialAge/BNav_EC2/DepthDuration/v2_depth_duration_MTurk/v2_DepthDuration_HTML.html#85,85,1366,768,1366,768,8-22-2022,7-0-12,136,depth_duration_stimuli/002600_2014-06-24_14-27-04_094959634447_rgbf000074-resize_2/002600_2014-06-24_14-27-04_094959634447_rgbf000074-resize_2-target.png,1000,2.7575,5,3544,997,feet,jsons/v1_VE1000_randls_8.json,823971,1177475,25,Man
136,284099,DepthScenes,duration_manipulation_targetAtFixation,jsons/v1_VE1000_randls_8.json,http://54.235.29.9/FacialAge/BNav_EC2/DepthDuration/v2_depth_duration_MTurk/v2_DepthDuration_HTML.html#85,85,1366,768,1366,768,8-22-2022,7-0-12,137,depth_duration_stimuli/003228_2014-05-14_13-42-35_094959634447_rgbf000101-resize_1/003228_2014-05-14_13-42-35_094959634447_rgbf000101-resize_1-target.png,1000,1.9680000000000002,5,3301,999,feet,jsons/v1_VE1000_randls_8.json,823971,1177475,25,Man
137,284099,DepthScenes,duration_manipulation_targetAtFixation,jsons/v1_VE1000_randls_8.json,http://54.235.29.9/FacialAge/BNav_EC2/DepthDuration/v2_depth_duration_MTurk/v2_DepthDuration_HTML.html#85,85,1366,768,1366,768,8-22-2022,7-0-12,138,depth_duration_stimuli/002445_2014-06-28_20-32-16_260595134347_rgbf000029-resize_4/002445_2014-06-28_20-32-16_260595134347_rgbf000029-resize_4-target.png,1000,2.5315,5,3626,990,feet,jsons/v1_VE1000_randls_8.json,823971,1177475,25,Man
138,284099,DepthScenes,duration_manipulation_targetAtFixation,jsons/v1_VE1000_randls_8.json,http://54.235.29.9/FacialAge/BNav_EC2/DepthDuration/v2_depth_duration_MTurk/v2_DepthDuration_HTML.html#85,85,1366,768,1366,768,8-22-2022,7-0-12,139,depth_duration_stimuli/000780_2014-06-08_22-28-29_260595134347_rgbf000126-resize_1/000780_2014-06-08_22-28-29_260595134347_rgbf000126-resize_1-target.png,1000,3.3825,8,3325,996,feet,jsons/v1_VE1000_randls_8.json,823971,1177475,25,Man
139,284099,DepthScenes,duration_manipulation_targetAtFixation,jsons/v1_VE1000_randls_8.json,http://54.235.29.9/FacialAge/BNav_EC2/DepthDuration/v2_depth_duration_MTurk/v2_DepthDuration_HTML.html#85,85,1366,768,1366,768,8-22-2022,7-0-12,140,depth_duration_stimuli/002549_2014-06-24_13-41-39_094959634447_rgbf000022-resize_3/002549_2014-06-24_13-41-39_094959634447_rgbf000022-resize_3-target.png,1000,1.476,4,4829,986,feet,jsons/v1_VE1000_randls_8.json,823971,1177475,25,Man
140,284099,DepthScenes,duration_manipulation_targetAtFixation,jsons/v1_VE1000_randls_8.json,http://54.235.29.9/FacialAge/BNav_EC2/DepthDuration/v2_depth_duration_MTurk/v2_DepthDuration_HTML.html#85,85,1366,768,1366,768,8-22-2022,7-0-12,141,depth_duration_stimuli/002750_2014-06-22_19-08-03_094959634447_rgbf000094-resize_4/002750_2014-06-22_19-08-03_094959634447_rgbf000094-resize_4-target.png,1000,2.354,7,4077,995,feet,jsons/v1_VE1000_randls_8.json,823971,1177475,25,Man
141,284099,DepthScenes,duration_manipulation_targetAtFixation,jsons/v1_VE1000_randls_8.json,http://54.235.29.9/FacialAge/BNav_EC2/DepthDuration/v2_depth_duration_MTurk/v2_DepthDuration_HTML.html#85,85,1366,768,1366,768,8-22-2022,7-0-12,142,depth_duration_stimuli/000878_2014-06-08_22-52-45_260595134347_rgbf000045-resize_2/000878_2014-06-08_22-52-45_260595134347_rgbf000045-resize_2-target.png,1000,2.092,7,4124,992,feet,jsons/v1_VE1000_randls_8.json,823971,1177475,25,Man
142,284099,DepthScenes,duration_manipulation_targetAtFixation,jsons/v1_VE1000_randls_8.json,http://54.235.29.9/FacialAge/BNav_EC2/DepthDuration/v2_depth_duration_MTurk/v2_DepthDuration_HTML.html#85,85,1366,768,1366,768,8-22-2022,7-0-12,143,depth_duration_stimuli/002953_2014-06-08_17-32-18_094959634447_rgbf000059-resize_5/002953_2014-06-08_17-32-18_094959634447_rgbf000059-resize_5-target.png,1000,1.551,4,3761,995,feet,jsons/v1_VE1000_randls_8.json,823971,1177475,25,Man
143,284099,DepthScenes,duration_manipulation_targetAtFixation,jsons/v1_VE1000_randls_8.json,http://54.235.29.9/FacialAge/BNav_EC2/DepthDuration/v2_depth_duration_MTurk/v2_DepthDuration_HTML.html#85,85,1366,768,1366,768,8-22-2022,7-0-12,144,depth_duration_stimuli/001016_2014-06-09_16-16-10_260595134347_rgbf000112-resize_5/001016_2014-06-09_16-16-10_260595134347_rgbf000112-resize_5-target.png,1000,1.6565,8,3730,985,feet,jsons/v1_VE1000_randls_8.json,823971,1177475,25,Man
144,284099,DepthScenes,duration_manipulation_targetAtFixation,jsons/v1_VE1000_randls_8.json,http://54.235.29.9/FacialAge/BNav_EC2/DepthDuration/v2_depth_duration_MTurk/v2_DepthDuration_HTML.html#85,85,1366,768,1366,768,8-22-2022,7-0-12,145,depth_duration_stimuli/002340_2014-06-28_20-05-46_260595134347_rgbf000113-resize_0/002340_2014-06-28_20-05-46_260595134347_rgbf000113-resize_0-target.png,1000,2.4735,9,3787,936,feet,jsons/v1_VE1000_randls_8.json,823971,1177475,25,Man
145,284099,DepthScenes,duration_manipulation_targetAtFixation,jsons/v1_VE1000_randls_8.json,http://54.235.29.9/FacialAge/BNav_EC2/DepthDuration/v2_depth_duration_MTurk/v2_DepthDuration_HTML.html#85,85,1366,768,1366,768,8-22-2022,7-0-12,146,depth_duration_stimuli/001498_2014-06-19_17-45-14_260595134347_rgbf000129-resize_4/001498_2014-06-19_17-45-14_260595134347_rgbf000129-resize-original.jpg,1000,1.4075,0,3781,997,feet,jsons/v1_VE1000_randls_8.json,823971,1177475,25,Man
146,284099,DepthScenes,duration_manipulation_targetAtFixation,jsons/v1_VE1000_randls_8.json,http://54.235.29.9/FacialAge/BNav_EC2/DepthDuration/v2_depth_duration_MTurk/v2_DepthDuration_HTML.html#85,85,1366,768,1366,768,8-22-2022,7-0-12,147,depth_duration_stimuli/001055_2014-06-08_18-45-35_260595134347_rgbf000111-resize_4/001055_2014-06-08_18-45-35_260595134347_rgbf000111-resize_4-target.png,1000,2.4290000000000003,9,4164,1005,feet,jsons/v1_VE1000_randls_8.json,823971,1177475,25,Man
147,284099,DepthScenes,duration_manipulation_targetAtFixation,jsons/v1_VE1000_randls_8.json,http://54.235.29.9/FacialAge/BNav_EC2/DepthDuration/v2_depth_duration_MTurk/v2_DepthDuration_HTML.html#85,85,1366,768,1366,768,8-22-2022,7-0-12,148,depth_duration_stimuli/000549_2014-06-08_22-10-24_260595134347_rgbf000247-resize_3/000549_2014-06-08_22-10-24_260595134347_rgbf000247-resize_3-target.png,1000,1.841,3,3518,999,feet,jsons/v1_VE1000_randls_8.json,823971,1177475,25,Man
148,284099,DepthScenes,duration_manipulation_targetAtFixation,jsons/v1_VE1000_randls_8.json,http://54.235.29.9/FacialAge/BNav_EC2/DepthDuration/v2_depth_duration_MTurk/v2_DepthDuration_HTML.html#85,85,1366,768,1366,768,8-22-2022,7-0-12,149,depth_duration_stimuli/001808_2014-06-26_20-50-58_260595134347_rgbf000029-resize_1/001808_2014-06-26_20-50-58_260595134347_rgbf000029-resize_1-target.png,1000,4.249,8,4844,997,feet,jsons/v1_VE1000_randls_8.json,823971,1177475,25,Man
149,284099,DepthScenes,duration_manipulation_targetAtFixation,jsons/v1_VE1000_randls_8.json,http://54.235.29.9/FacialAge/BNav_EC2/DepthDuration/v2_depth_duration_MTurk/v2_DepthDuration_HTML.html#85,85,1366,768,1366,768,8-22-2022,7-0-12,150,depth_duration_stimuli/001815_2014-06-26_20-52-55_260595134347_rgbf000020-resize_0/001815_2014-06-26_20-52-55_260595134347_rgbf000020-resize_0-target.png,1000,3.3865,9,3321,998,feet,jsons/v1_VE1000_randls_8.json,823971,1177475,25,Man
150,284099,DepthScenes,duration_manipulation_targetAtFixation,jsons/v1_VE1000_randls_8.json,http://54.235.29.9/FacialAge/BNav_EC2/DepthDuration/v2_depth_duration_MTurk/v2_DepthDuration_HTML.html#85,85,1366,768,1366,768,8-22-2022,7-0-12,151,depth_duration_stimuli/001011_2014-06-08_23-18-54_260595134347_rgbf000044-resize_4/001011_2014-06-08_23-18-54_260595134347_rgbf000044-resize_4-target.png,1000,2.4730000000000003,6,3880,979,feet,jsons/v1_VE1000_randls_8.json,823971,1177475,25,Man
151,284099,DepthScenes,duration_manipulation_targetAtFixation,jsons/v1_VE1000_randls_8.json,http://54.235.29.9/FacialAge/BNav_EC2/DepthDuration/v2_depth_duration_MTurk/v2_DepthDuration_HTML.html#85,85,1366,768,1366,768,8-22-2022,7-0-12,152,depth_duration_stimuli/002875_2014-06-01_15-19-00_094959634447_rgbf000151-resize_1/002875_2014-06-01_15-19-00_094959634447_rgbf000151-resize_1-target.png,1000,1.9675,9,3505,997,feet,jsons/v1_VE1000_randls_8.json,823971,1177475,25,Man
152,284099,DepthScenes,duration_manipulation_targetAtFixation,jsons/v1_VE1000_randls_8.json,http://54.235.29.9/FacialAge/BNav_EC2/DepthDuration/v2_depth_duration_MTurk/v2_DepthDuration_HTML.html#85,85,1366,768,1366,768,8-22-2022,7-0-12,153,depth_duration_stimuli/002725_2014-06-22_11-47-51_094959634447_rgbf000070-resize_1/002725_2014-06-22_11-47-51_094959634447_rgbf000070-resize_1-target.png,1000,2.195,7,3611,988,feet,jsons/v1_VE1000_randls_8.json,823971,1177475,25,Man
153,284099,DepthScenes,duration_manipulation_targetAtFixation,jsons/v1_VE1000_randls_8.json,http://54.235.29.9/FacialAge/BNav_EC2/DepthDuration/v2_depth_duration_MTurk/v2_DepthDuration_HTML.html#85,85,1366,768,1366,768,8-22-2022,7-0-12,154,depth_duration_stimuli/002344_2014-06-28_20-06-29_260595134347_rgbf000030-resize_1/002344_2014-06-28_20-06-29_260595134347_rgbf000030-resize_1-target.png,1000,1.5795,2,4169,988,feet,jsons/v1_VE1000_randls_8.json,823971,1177475,25,Man
154,284099,DepthScenes,duration_manipulation_targetAtFixation,jsons/v1_VE1000_randls_8.json,http://54.235.29.9/FacialAge/BNav_EC2/DepthDuration/v2_depth_duration_MTurk/v2_DepthDuration_HTML.html#85,85,1366,768,1366,768,8-22-2022,7-0-12,155,depth_duration_stimuli/001806_2014-06-26_20-50-20_260595134347_rgbf000091-resize_1/001806_2014-06-26_20-50-20_260595134347_rgbf000091-resize_1-target.png,1000,2.7305,5,3232,997,feet,jsons/v1_VE1000_randls_8.json,823971,1177475,25,Man
155,284099,DepthScenes,duration_manipulation_targetAtFixation,jsons/v1_VE1000_randls_8.json,http://54.235.29.9/FacialAge/BNav_EC2/DepthDuration/v2_depth_duration_MTurk/v2_DepthDuration_HTML.html#85,85,1366,768,1366,768,8-22-2022,7-0-12,156,depth_duration_stimuli/001617_2014-06-20_11-35-32_260595134347_rgbf000066-resize_1/001617_2014-06-20_11-35-32_260595134347_rgbf000066-resize_1-target.png,1000,3.7910000000000004,8,3362,999,feet,jsons/v1_VE1000_randls_8.json,823971,1177475,25,Man
156,284099,DepthScenes,duration_manipulation_targetAtFixation,jsons/v1_VE1000_randls_8.json,http://54.235.29.9/FacialAge/BNav_EC2/DepthDuration/v2_depth_duration_MTurk/v2_DepthDuration_HTML.html#85,85,1366,768,1366,768,8-22-2022,7-0-12,157,depth_duration_stimuli/002375_2014-06-28_20-13-44_260595134347_rgbf000032-resize_1/002375_2014-06-28_20-13-44_260595134347_rgbf000032-resize_1-target.png,1000,4.0175,6,3495,997,feet,jsons/v1_VE1000_randls_8.json,823971,1177475,25,Man
157,284099,DepthScenes,duration_manipulation_targetAtFixation,jsons/v1_VE1000_randls_8.json,http://54.235.29.9/FacialAge/BNav_EC2/DepthDuration/v2_depth_duration_MTurk/v2_DepthDuration_HTML.html#85,85,1366,768,1366,768,8-22-2022,7-0-12,158,depth_duration_stimuli/002657_2014-06-13_15-29-54_094959634447_rgbf000150-resize_1/002657_2014-06-13_15-29-54_094959634447_rgbf000150-resize_1-target.png,1000,4.919,7,3760,995,feet,jsons/v1_VE1000_randls_8.json,823971,1177475,25,Man
158,284099,DepthScenes,duration_manipulation_targetAtFixation,jsons/v1_VE1000_randls_8.json,http://54.235.29.9/FacialAge/BNav_EC2/DepthDuration/v2_depth_duration_MTurk/v2_DepthDuration_HTML.html#85,85,1366,768,1366,768,8-22-2022,7-0-12,159,depth_duration_stimuli/000470_2014-06-09_19-42-40_260595134347_rgbf000094-resize_1/000470_2014-06-09_19-42-40_260595134347_rgbf000094-resize_1-target.png,1000,1.831,5,3403,989,feet,jsons/v1_VE1000_randls_8.json,823971,1177475,25,Man
159,284099,DepthScenes,duration_manipulation_targetAtFixation,jsons/v1_VE1000_randls_8.json,http://54.235.29.9/FacialAge/BNav_EC2/DepthDuration/v2_depth_duration_MTurk/v2_DepthDuration_HTML.html#85,85,1366,768,1366,768,8-22-2022,7-0-12,160,depth_duration_stimuli/000109_2014-05-14_23-41-52_260595134347_rgbf000035-resize_9/000109_2014-05-14_23-41-52_260595134347_rgbf000035-resize_9-target.png,1000,1.3545,4,4352,999,feet,jsons/v1_VE1000_randls_8.json,823971,1177475,25,Man
160,284099,DepthScenes,duration_manipulation_targetAtFixation,jsons/v1_VE1000_randls_8.json,http://54.235.29.9/FacialAge/BNav_EC2/DepthDuration/v2_depth_duration_MTurk/v2_DepthDuration_HTML.html#85,85,1366,768,1366,768,8-22-2022,7-0-12,161,depth_duration_stimuli/002964_2014-06-08_17-46-11_094959634447_rgbf000091-resize_4/002964_2014-06-08_17-46-11_094959634447_rgbf000091-resize_4-target.png,1000,1.6909999999999998,3,3261,997,feet,jsons/v1_VE1000_randls_8.json,823971,1177475,25,Man
161,284099,DepthScenes,duration_manipulation_targetAtFixation,jsons/v1_VE1000_randls_8.json,http://54.235.29.9/FacialAge/BNav_EC2/DepthDuration/v2_depth_duration_MTurk/v2_DepthDuration_HTML.html#85,85,1366,768,1366,768,8-22-2022,7-0-12,162,depth_duration_stimuli/002136_2014-06-25_21-18-03_260595134347_rgbf000109-resize_3/002136_2014-06-25_21-18-03_260595134347_rgbf000109-resize_3-target.png,1000,1.9569999999999999,7,3698,997,feet,jsons/v1_VE1000_randls_8.json,823971,1177475,25,Man
162,284099,DepthScenes,duration_manipulation_targetAtFixation,jsons/v1_VE1000_randls_8.json,http://54.235.29.9/FacialAge/BNav_EC2/DepthDuration/v2_depth_duration_MTurk/v2_DepthDuration_HTML.html#85,85,1366,768,1366,768,8-22-2022,7-0-12,163,depth_duration_stimuli/000447_2014-06-08_16-15-46_260595134347_rgbf000130-resize_1/000447_2014-06-08_16-15-46_260595134347_rgbf000130-resize_1-target.png,1000,4.479,7,3816,1003,feet,jsons/v1_VE1000_randls_8.json,823971,1177475,25,Man
163,284099,DepthScenes,duration_manipulation_targetAtFixation,jsons/v1_VE1000_randls_8.json,http://54.235.29.9/FacialAge/BNav_EC2/DepthDuration/v2_depth_duration_MTurk/v2_DepthDuration_HTML.html#85,85,1366,768,1366,768,8-22-2022,7-0-12,164,depth_duration_stimuli/001447_2014-06-19_17-00-32_260595134347_rgbf000082-resize_5/001447_2014-06-19_17-00-32_260595134347_rgbf000082-resize_5-target.png,1000,4.13775,5,4043,998,feet,jsons/v1_VE1000_randls_8.json,823971,1177475,25,Man
