,subjID,experimentName,versionName,sequenceName,url,selected_row,windowWidth,windowHeight,screenWidth,screenHeight,startDate,startTime,trial,stimulus,duration,actual_depth,depth_estimate,trial_RT,log_sceneDuration,unitSelection,seq_filepath,experimentTime,totalTime,age,gender
0,285682,DepthScenes,duration_manipulation_targetAtFixation,jsons/v1_VE1000_randls_34_rotated.json,http://54.235.29.9/FacialAge/BNav_EC2/DepthDuration/v2_depth_duration_MTurk/v2_DepthDuration_HTML.html#250,250,1366,657,1366,768,8-29-2022,14-25-2,1,depth_duration_stimuli/000103_2014-05-14_22-01-17_260595134347_rgbf000152-resize_5/000103_2014-05-14_22-01-17_260595134347_rgbf000152-resize_5-target.png,1000,1.993,4.0,4339,985,feet,jsons/v1_VE1000_randls_34_rotated.json,872953,2096988,39,Woman
1,285682,DepthScenes,duration_manipulation_targetAtFixation,jsons/v1_VE1000_randls_34_rotated.json,http://54.235.29.9/FacialAge/BNav_EC2/DepthDuration/v2_depth_duration_MTurk/v2_DepthDuration_HTML.html#250,250,1366,657,1366,768,8-29-2022,14-25-2,2,depth_duration_stimuli/001555_2014-06-20_17-12-10_260595134347_rgbf000065-resize_4/001555_2014-06-20_17-12-10_260595134347_rgbf000065-resize_4-target.png,1000,1.633,1.5,9179,1006,feet,jsons/v1_VE1000_randls_34_rotated.json,872953,2096988,39,Woman
2,285682,DepthScenes,duration_manipulation_targetAtFixation,jsons/v1_VE1000_randls_34_rotated.json,http://54.235.29.9/FacialAge/BNav_EC2/DepthDuration/v2_depth_duration_MTurk/v2_DepthDuration_HTML.html#250,250,1366,657,1366,768,8-29-2022,14-25-2,3,depth_duration_stimuli/001617_2014-06-20_11-35-32_260595134347_rgbf000066-resize_1/001617_2014-06-20_11-35-32_260595134347_rgbf000066-resize_1-target.png,1000,3.7910000000000004,7.5,10683,1001,feet,jsons/v1_VE1000_randls_34_rotated.json,872953,2096988,39,Woman
3,285682,DepthScenes,duration_manipulation_targetAtFixation,jsons/v1_VE1000_randls_34_rotated.json,http://54.235.29.9/FacialAge/BNav_EC2/DepthDuration/v2_depth_duration_MTurk/v2_DepthDuration_HTML.html#250,250,1366,657,1366,768,8-29-2022,14-25-2,4,depth_duration_stimuli/001806_2014-06-26_20-50-20_260595134347_rgbf000091-resize_1/001806_2014-06-26_20-50-20_260595134347_rgbf000091-resize_1-target.png,1000,2.7305,3.0,5137,985,feet,jsons/v1_VE1000_randls_34_rotated.json,872953,2096988,39,Woman
4,285682,DepthScenes,duration_manipulation_targetAtFixation,jsons/v1_VE1000_randls_34_rotated.json,http://54.235.29.9/FacialAge/BNav_EC2/DepthDuration/v2_depth_duration_MTurk/v2_DepthDuration_HTML.html#250,250,1366,657,1366,768,8-29-2022,14-25-2,5,depth_duration_stimuli/003228_2014-05-14_13-42-35_094959634447_rgbf000101-resize_1/003228_2014-05-14_13-42-35_094959634447_rgbf000101-resize_1-target.png,1000,1.9680000000000002,3.0,3765,1001,feet,jsons/v1_VE1000_randls_34_rotated.json,872953,2096988,39,Woman
5,285682,DepthScenes,duration_manipulation_targetAtFixation,jsons/v1_VE1000_randls_34_rotated.json,http://54.235.29.9/FacialAge/BNav_EC2/DepthDuration/v2_depth_duration_MTurk/v2_DepthDuration_HTML.html#250,250,1366,657,1366,768,8-29-2022,14-25-2,6,depth_duration_stimuli/002600_2014-06-24_14-27-04_094959634447_rgbf000074-resize_2/002600_2014-06-24_14-27-04_094959634447_rgbf000074-resize_2-target.png,1000,2.7575,6.0,3984,1000,feet,jsons/v1_VE1000_randls_34_rotated.json,872953,2096988,39,Woman
6,285682,DepthScenes,duration_manipulation_targetAtFixation,jsons/v1_VE1000_randls_34_rotated.json,http://54.235.29.9/FacialAge/BNav_EC2/DepthDuration/v2_depth_duration_MTurk/v2_DepthDuration_HTML.html#250,250,1366,657,1366,768,8-29-2022,14-25-2,7,depth_duration_stimuli/001032_2014-06-08_13-23-17_260595134347_rgbf000021-resize_3/001032_2014-06-08_13-23-17_260595134347_rgbf000021-resize_3-target.png,1000,3.2725,5.5,5004,1001,feet,jsons/v1_VE1000_randls_34_rotated.json,872953,2096988,39,Woman
7,285682,DepthScenes,duration_manipulation_targetAtFixation,jsons/v1_VE1000_randls_34_rotated.json,http://54.235.29.9/FacialAge/BNav_EC2/DepthDuration/v2_depth_duration_MTurk/v2_DepthDuration_HTML.html#250,250,1366,657,1366,768,8-29-2022,14-25-2,8,depth_duration_stimuli/001059_2014-06-08_21-53-27_260595134347_rgbf000061-resize_4/001059_2014-06-08_21-53-27_260595134347_rgbf000061-resize_4-target.png,1000,2.4185,4.0,3748,1009,feet,jsons/v1_VE1000_randls_34_rotated.json,872953,2096988,39,Woman
8,285682,DepthScenes,duration_manipulation_targetAtFixation,jsons/v1_VE1000_randls_34_rotated.json,http://54.235.29.9/FacialAge/BNav_EC2/DepthDuration/v2_depth_duration_MTurk/v2_DepthDuration_HTML.html#250,250,1366,657,1366,768,8-29-2022,14-25-2,9,depth_duration_stimuli/003495_2014-05-21_16-01-51_094959634447_rgbf000100-resize_3/003495_2014-05-21_16-01-51_094959634447_rgbf000100-resize_3-target.png,1000,1.6255,2.0,4734,1001,feet,jsons/v1_VE1000_randls_34_rotated.json,872953,2096988,39,Woman
9,285682,DepthScenes,duration_manipulation_targetAtFixation,jsons/v1_VE1000_randls_34_rotated.json,http://54.235.29.9/FacialAge/BNav_EC2/DepthDuration/v2_depth_duration_MTurk/v2_DepthDuration_HTML.html#250,250,1366,657,1366,768,8-29-2022,14-25-2,10,depth_duration_stimuli/001244_2014-06-17_16-47-45_260595134347_rgbf000030-resize_4/001244_2014-06-17_16-47-45_260595134347_rgbf000030-resize_4-target.png,1000,2.0425,4.0,8473,1001,feet,jsons/v1_VE1000_randls_34_rotated.json,872953,2096988,39,Woman
10,285682,DepthScenes,duration_manipulation_targetAtFixation,jsons/v1_VE1000_randls_34_rotated.json,http://54.235.29.9/FacialAge/BNav_EC2/DepthDuration/v2_depth_duration_MTurk/v2_DepthDuration_HTML.html#250,250,1366,657,1366,768,8-29-2022,14-25-2,11,depth_duration_stimuli/002425_2014-06-28_20-27-29_260595134347_rgbf000031-resize_8/002425_2014-06-28_20-27-29_260595134347_rgbf000031-resize_8-target.png,1000,3.8960000000000004,7.0,4701,1002,feet,jsons/v1_VE1000_randls_34_rotated.json,872953,2096988,39,Woman
11,285682,DepthScenes,duration_manipulation_targetAtFixation,jsons/v1_VE1000_randls_34_rotated.json,http://54.235.29.9/FacialAge/BNav_EC2/DepthDuration/v2_depth_duration_MTurk/v2_DepthDuration_HTML.html#250,250,1366,657,1366,768,8-29-2022,14-25-2,12,depth_duration_stimuli/000642_2014-06-08_16-59-25_260595134347_rgbf000098-resize_2/000642_2014-06-08_16-59-25_260595134347_rgbf000098-resize_2-target.png,1000,2.8815,5.5,4935,989,feet,jsons/v1_VE1000_randls_34_rotated.json,872953,2096988,39,Woman
12,285682,DepthScenes,duration_manipulation_targetAtFixation,jsons/v1_VE1000_randls_34_rotated.json,http://54.235.29.9/FacialAge/BNav_EC2/DepthDuration/v2_depth_duration_MTurk/v2_DepthDuration_HTML.html#250,250,1366,657,1366,768,8-29-2022,14-25-2,13,depth_duration_stimuli/001571_2014-06-20_17-21-32_260595134347_rgbf000089-resize_1/001571_2014-06-20_17-21-32_260595134347_rgbf000089-resize_1-target.png,1000,1.86,3.0,3999,1000,feet,jsons/v1_VE1000_randls_34_rotated.json,872953,2096988,39,Woman
13,285682,DepthScenes,duration_manipulation_targetAtFixation,jsons/v1_VE1000_randls_34_rotated.json,http://54.235.29.9/FacialAge/BNav_EC2/DepthDuration/v2_depth_duration_MTurk/v2_DepthDuration_HTML.html#250,250,1366,657,1366,768,8-29-2022,14-25-2,14,depth_duration_stimuli/002272_2014-06-28_18-53-56_260595134347_rgbf000067-resize_2/002272_2014-06-28_18-53-56_260595134347_rgbf000067-resize_2-target.png,1000,1.138,2.5,5034,1009,feet,jsons/v1_VE1000_randls_34_rotated.json,872953,2096988,39,Woman
14,285682,DepthScenes,duration_manipulation_targetAtFixation,jsons/v1_VE1000_randls_34_rotated.json,http://54.235.29.9/FacialAge/BNav_EC2/DepthDuration/v2_depth_duration_MTurk/v2_DepthDuration_HTML.html#250,250,1366,657,1366,768,8-29-2022,14-25-2,15,depth_duration_stimuli/003048_2014-06-15_13-49-43_094959634447_rgbf000150-resize_1/003048_2014-06-15_13-49-43_094959634447_rgbf000150-resize_1-target.png,1000,4.0035,8.0,4466,999,feet,jsons/v1_VE1000_randls_34_rotated.json,872953,2096988,39,Woman
15,285682,DepthScenes,duration_manipulation_targetAtFixation,jsons/v1_VE1000_randls_34_rotated.json,http://54.235.29.9/FacialAge/BNav_EC2/DepthDuration/v2_depth_duration_MTurk/v2_DepthDuration_HTML.html#250,250,1366,657,1366,768,8-29-2022,14-25-2,16,depth_duration_stimuli/002043_2014-06-24_20-29-38_260595134347_rgbf000039-resize_4/002043_2014-06-24_20-29-38_260595134347_rgbf000039-resize_4-target.png,1000,2.8435,6.5,6021,985,feet,jsons/v1_VE1000_randls_34_rotated.json,872953,2096988,39,Woman
16,285682,DepthScenes,duration_manipulation_targetAtFixation,jsons/v1_VE1000_randls_34_rotated.json,http://54.235.29.9/FacialAge/BNav_EC2/DepthDuration/v2_depth_duration_MTurk/v2_DepthDuration_HTML.html#250,250,1366,657,1366,768,8-29-2022,14-25-2,17,depth_duration_stimuli/001214_2014-06-17_16-13-55_260595134347_rgbf000111-resize_0/001214_2014-06-17_16-13-55_260595134347_rgbf000111-resize_0-target.png,1000,2.6505,4.0,3817,1001,feet,jsons/v1_VE1000_randls_34_rotated.json,872953,2096988,39,Woman
17,285682,DepthScenes,duration_manipulation_targetAtFixation,jsons/v1_VE1000_randls_34_rotated.json,http://54.235.29.9/FacialAge/BNav_EC2/DepthDuration/v2_depth_duration_MTurk/v2_DepthDuration_HTML.html#250,250,1366,657,1366,768,8-29-2022,14-25-2,18,depth_duration_stimuli/000810_2014-06-08_17-20-01_260595134347_rgbf000105-resize_0/000810_2014-06-08_17-20-01_260595134347_rgbf000105-resize_0-target.png,1000,1.4865,4.0,3355,986,feet,jsons/v1_VE1000_randls_34_rotated.json,872953,2096988,39,Woman
18,285682,DepthScenes,duration_manipulation_targetAtFixation,jsons/v1_VE1000_randls_34_rotated.json,http://54.235.29.9/FacialAge/BNav_EC2/DepthDuration/v2_depth_duration_MTurk/v2_DepthDuration_HTML.html#250,250,1366,657,1366,768,8-29-2022,14-25-2,19,depth_duration_stimuli/001498_2014-06-19_17-45-14_260595134347_rgbf000129-resize_4/001498_2014-06-19_17-45-14_260595134347_rgbf000129-resize-original.jpg,1000,1.4075,0.0,3770,998,feet,jsons/v1_VE1000_randls_34_rotated.json,872953,2096988,39,Woman
19,285682,DepthScenes,duration_manipulation_targetAtFixation,jsons/v1_VE1000_randls_34_rotated.json,http://54.235.29.9/FacialAge/BNav_EC2/DepthDuration/v2_depth_duration_MTurk/v2_DepthDuration_HTML.html#250,250,1366,657,1366,768,8-29-2022,14-25-2,20,depth_duration_stimuli/002444_2014-06-28_20-32-08_260595134347_rgbf000027-resize_0/002444_2014-06-28_20-32-08_260595134347_rgbf000027-resize_0-target.png,1000,4.388999999999999,8.0,4395,1000,feet,jsons/v1_VE1000_randls_34_rotated.json,872953,2096988,39,Woman
20,285682,DepthScenes,duration_manipulation_targetAtFixation,jsons/v1_VE1000_randls_34_rotated.json,http://54.235.29.9/FacialAge/BNav_EC2/DepthDuration/v2_depth_duration_MTurk/v2_DepthDuration_HTML.html#250,250,1366,657,1366,768,8-29-2022,14-25-2,21,depth_duration_stimuli/000436_2014-06-09_22-25-11_260595134347_rgbf000137-resize_1/000436_2014-06-09_22-25-11_260595134347_rgbf000137-resize_1-target.png,1000,4.0705,9.5,7733,1000,feet,jsons/v1_VE1000_randls_34_rotated.json,872953,2096988,39,Woman
21,285682,DepthScenes,duration_manipulation_targetAtFixation,jsons/v1_VE1000_randls_34_rotated.json,http://54.235.29.9/FacialAge/BNav_EC2/DepthDuration/v2_depth_duration_MTurk/v2_DepthDuration_HTML.html#250,250,1366,657,1366,768,8-29-2022,14-25-2,22,depth_duration_stimuli/002637_2014-06-24_14-51-13_094959634447_rgbf000066-resize_4/002637_2014-06-24_14-51-13_094959634447_rgbf000066-resize_4-target.png,1000,1.9955,4.5,6673,1000,feet,jsons/v1_VE1000_randls_34_rotated.json,872953,2096988,39,Woman
22,285682,DepthScenes,duration_manipulation_targetAtFixation,jsons/v1_VE1000_randls_34_rotated.json,http://54.235.29.9/FacialAge/BNav_EC2/DepthDuration/v2_depth_duration_MTurk/v2_DepthDuration_HTML.html#250,250,1366,657,1366,768,8-29-2022,14-25-2,23,depth_duration_stimuli/003534_2014-05-22_15-06-10_094959634447_rgbf000102-resize_4/003534_2014-05-22_15-06-10_094959634447_rgbf000102-resize_4-target.png,1000,1.426,1.3,5646,999,feet,jsons/v1_VE1000_randls_34_rotated.json,872953,2096988,39,Woman
23,285682,DepthScenes,duration_manipulation_targetAtFixation,jsons/v1_VE1000_randls_34_rotated.json,http://54.235.29.9/FacialAge/BNav_EC2/DepthDuration/v2_depth_duration_MTurk/v2_DepthDuration_HTML.html#250,250,1366,657,1366,768,8-29-2022,14-25-2,24,depth_duration_stimuli/001447_2014-06-19_17-00-32_260595134347_rgbf000082-resize_5/001447_2014-06-19_17-00-32_260595134347_rgbf000082-resize_5-target.png,1000,4.13775,4.5,5337,994,feet,jsons/v1_VE1000_randls_34_rotated.json,872953,2096988,39,Woman
24,285682,DepthScenes,duration_manipulation_targetAtFixation,jsons/v1_VE1000_randls_34_rotated.json,http://54.235.29.9/FacialAge/BNav_EC2/DepthDuration/v2_depth_duration_MTurk/v2_DepthDuration_HTML.html#250,250,1366,657,1366,768,8-29-2022,14-25-2,25,depth_duration_stimuli/000447_2014-06-08_16-15-46_260595134347_rgbf000130-resize_1/000447_2014-06-08_16-15-46_260595134347_rgbf000130-resize_1-target.png,1000,4.479,8.0,3612,1005,feet,jsons/v1_VE1000_randls_34_rotated.json,872953,2096988,39,Woman
25,285682,DepthScenes,duration_manipulation_targetAtFixation,jsons/v1_VE1000_randls_34_rotated.json,http://54.235.29.9/FacialAge/BNav_EC2/DepthDuration/v2_depth_duration_MTurk/v2_DepthDuration_HTML.html#250,250,1366,657,1366,768,8-29-2022,14-25-2,26,depth_duration_stimuli/000854_2014-06-09_19-43-13_260595134347_rgbf000066-resize_0/000854_2014-06-09_19-43-13_260595134347_rgbf000066-resize_0-target.png,1000,3.068,4.5,6344,1001,feet,jsons/v1_VE1000_randls_34_rotated.json,872953,2096988,39,Woman
26,285682,DepthScenes,duration_manipulation_targetAtFixation,jsons/v1_VE1000_randls_34_rotated.json,http://54.235.29.9/FacialAge/BNav_EC2/DepthDuration/v2_depth_duration_MTurk/v2_DepthDuration_HTML.html#250,250,1366,657,1366,768,8-29-2022,14-25-2,27,depth_duration_stimuli/000758_2014-06-08_22-05-08_260595134347_rgbf000085-resize_0/000758_2014-06-08_22-05-08_260595134347_rgbf000085-resize_0-target.png,1000,3.3810000000000002,10.0,5472,1000,feet,jsons/v1_VE1000_randls_34_rotated.json,872953,2096988,39,Woman
27,285682,DepthScenes,duration_manipulation_targetAtFixation,jsons/v1_VE1000_randls_34_rotated.json,http://54.235.29.9/FacialAge/BNav_EC2/DepthDuration/v2_depth_duration_MTurk/v2_DepthDuration_HTML.html#250,250,1366,657,1366,768,8-29-2022,14-25-2,28,depth_duration_stimuli/001052_2014-06-08_18-24-54_260595134347_rgbf000130-resize_1/001052_2014-06-08_18-24-54_260595134347_rgbf000130-resize_1-target.png,1000,4.1045,9.5,7553,1000,feet,jsons/v1_VE1000_randls_34_rotated.json,872953,2096988,39,Woman
28,285682,DepthScenes,duration_manipulation_targetAtFixation,jsons/v1_VE1000_randls_34_rotated.json,http://54.235.29.9/FacialAge/BNav_EC2/DepthDuration/v2_depth_duration_MTurk/v2_DepthDuration_HTML.html#250,250,1366,657,1366,768,8-29-2022,14-25-2,29,depth_duration_stimuli/002988_2014-06-15_12-24-20_094959634447_rgbf000150-resize_1/002988_2014-06-15_12-24-20_094959634447_rgbf000150-resize_1-target.png,1000,4.7669999999999995,9.0,4186,1001,feet,jsons/v1_VE1000_randls_34_rotated.json,872953,2096988,39,Woman
29,285682,DepthScenes,duration_manipulation_targetAtFixation,jsons/v1_VE1000_randls_34_rotated.json,http://54.235.29.9/FacialAge/BNav_EC2/DepthDuration/v2_depth_duration_MTurk/v2_DepthDuration_HTML.html#250,250,1366,657,1366,768,8-29-2022,14-25-2,30,depth_duration_stimuli/002072_2014-06-24_21-48-06_260595134347_rgbf000115-resize_0/002072_2014-06-24_21-48-06_260595134347_rgbf000115-resize-original.jpg,1000,4.702,0.0,3613,1002,feet,jsons/v1_VE1000_randls_34_rotated.json,872953,2096988,39,Woman
30,285682,DepthScenes,duration_manipulation_targetAtFixation,jsons/v1_VE1000_randls_34_rotated.json,http://54.235.29.9/FacialAge/BNav_EC2/DepthDuration/v2_depth_duration_MTurk/v2_DepthDuration_HTML.html#250,250,1366,657,1366,768,8-29-2022,14-25-2,31,depth_duration_stimuli/002209_2014-06-28_18-36-10_260595134347_rgbf000051-resize_1/002209_2014-06-28_18-36-10_260595134347_rgbf000051-resize_1-target.png,1000,2.057,3.7,5290,1001,feet,jsons/v1_VE1000_randls_34_rotated.json,872953,2096988,39,Woman
31,285682,DepthScenes,duration_manipulation_targetAtFixation,jsons/v1_VE1000_randls_34_rotated.json,http://54.235.29.9/FacialAge/BNav_EC2/DepthDuration/v2_depth_duration_MTurk/v2_DepthDuration_HTML.html#250,250,1366,657,1366,768,8-29-2022,14-25-2,32,depth_duration_stimuli/002763_2014-06-22_19-13-10_094959634447_rgbf000075-resize_4/002763_2014-06-22_19-13-10_094959634447_rgbf000075-resize_4-target.png,1000,1.68375,4.0,5278,999,feet,jsons/v1_VE1000_randls_34_rotated.json,872953,2096988,39,Woman
32,285682,DepthScenes,duration_manipulation_targetAtFixation,jsons/v1_VE1000_randls_34_rotated.json,http://54.235.29.9/FacialAge/BNav_EC2/DepthDuration/v2_depth_duration_MTurk/v2_DepthDuration_HTML.html#250,250,1366,657,1366,768,8-29-2022,14-25-2,33,depth_duration_stimuli/002758_2014-06-22_19-11-20_094959634447_rgbf000128-resize_1/002758_2014-06-22_19-11-20_094959634447_rgbf000128-resize_1-target.png,1000,2.555,4.2,5417,1010,feet,jsons/v1_VE1000_randls_34_rotated.json,872953,2096988,39,Woman
33,285682,DepthScenes,duration_manipulation_targetAtFixation,jsons/v1_VE1000_randls_34_rotated.json,http://54.235.29.9/FacialAge/BNav_EC2/DepthDuration/v2_depth_duration_MTurk/v2_DepthDuration_HTML.html#250,250,1366,657,1366,768,8-29-2022,14-25-2,34,depth_duration_stimuli/002630_2014-06-24_14-47-50_094959634447_rgbf000055-resize_1/002630_2014-06-24_14-47-50_094959634447_rgbf000055-resize_1-target.png,1000,3.0095,7.0,3625,987,feet,jsons/v1_VE1000_randls_34_rotated.json,872953,2096988,39,Woman
34,285682,DepthScenes,duration_manipulation_targetAtFixation,jsons/v1_VE1000_randls_34_rotated.json,http://54.235.29.9/FacialAge/BNav_EC2/DepthDuration/v2_depth_duration_MTurk/v2_DepthDuration_HTML.html#250,250,1366,657,1366,768,8-29-2022,14-25-2,35,depth_duration_stimuli/002344_2014-06-28_20-06-29_260595134347_rgbf000030-resize_1/002344_2014-06-28_20-06-29_260595134347_rgbf000030-resize_1-target.png,1000,1.5795,1.5,6937,1002,feet,jsons/v1_VE1000_randls_34_rotated.json,872953,2096988,39,Woman
35,285682,DepthScenes,duration_manipulation_targetAtFixation,jsons/v1_VE1000_randls_34_rotated.json,http://54.235.29.9/FacialAge/BNav_EC2/DepthDuration/v2_depth_duration_MTurk/v2_DepthDuration_HTML.html#250,250,1366,657,1366,768,8-29-2022,14-25-2,36,depth_duration_stimuli/002725_2014-06-22_11-47-51_094959634447_rgbf000070-resize_1/002725_2014-06-22_11-47-51_094959634447_rgbf000070-resize_1-target.png,1000,2.195,5.0,3639,988,feet,jsons/v1_VE1000_randls_34_rotated.json,872953,2096988,39,Woman
36,285682,DepthScenes,duration_manipulation_targetAtFixation,jsons/v1_VE1000_randls_34_rotated.json,http://54.235.29.9/FacialAge/BNav_EC2/DepthDuration/v2_depth_duration_MTurk/v2_DepthDuration_HTML.html#250,250,1366,657,1366,768,8-29-2022,14-25-2,37,depth_duration_stimuli/003081_2014-06-15_15-19-16_094959634447_rgbf000150-resize_1/003081_2014-06-15_15-19-16_094959634447_rgbf000150-resize_1-target.png,1000,3.9125,7.0,3721,1002,feet,jsons/v1_VE1000_randls_34_rotated.json,872953,2096988,39,Woman
37,285682,DepthScenes,duration_manipulation_targetAtFixation,jsons/v1_VE1000_randls_34_rotated.json,http://54.235.29.9/FacialAge/BNav_EC2/DepthDuration/v2_depth_duration_MTurk/v2_DepthDuration_HTML.html#250,250,1366,657,1366,768,8-29-2022,14-25-2,38,depth_duration_stimuli/001417_2014-06-19_16-25-36_260595134347_rgbf000115-resize_5/001417_2014-06-19_16-25-36_260595134347_rgbf000115-resize_5-target.png,1000,4.6255,9.0,6493,1003,feet,jsons/v1_VE1000_randls_34_rotated.json,872953,2096988,39,Woman
38,285682,DepthScenes,duration_manipulation_targetAtFixation,jsons/v1_VE1000_randls_34_rotated.json,http://54.235.29.9/FacialAge/BNav_EC2/DepthDuration/v2_depth_duration_MTurk/v2_DepthDuration_HTML.html#250,250,1366,657,1366,768,8-29-2022,14-25-2,39,depth_duration_stimuli/000457_2014-06-08_16-52-43_260595134347_rgbf000199-resize_1/000457_2014-06-08_16-52-43_260595134347_rgbf000199-resize_1-target.png,1000,3.6489999999999996,6.0,3580,1002,feet,jsons/v1_VE1000_randls_34_rotated.json,872953,2096988,39,Woman
39,285682,DepthScenes,duration_manipulation_targetAtFixation,jsons/v1_VE1000_randls_34_rotated.json,http://54.235.29.9/FacialAge/BNav_EC2/DepthDuration/v2_depth_duration_MTurk/v2_DepthDuration_HTML.html#250,250,1366,657,1366,768,8-29-2022,14-25-2,40,depth_duration_stimuli/000929_2014-06-09_16-33-19_260595134347_rgbf000139-resize_0/000929_2014-06-09_16-33-19_260595134347_rgbf000139-resize_0-target.png,1000,2.8680000000000003,5.0,20252,990,feet,jsons/v1_VE1000_randls_34_rotated.json,872953,2096988,39,Woman
40,285682,DepthScenes,duration_manipulation_targetAtFixation,jsons/v1_VE1000_randls_34_rotated.json,http://54.235.29.9/FacialAge/BNav_EC2/DepthDuration/v2_depth_duration_MTurk/v2_DepthDuration_HTML.html#250,250,1366,657,1366,768,8-29-2022,14-25-2,41,depth_duration_stimuli/002953_2014-06-08_17-32-18_094959634447_rgbf000059-resize_5/002953_2014-06-08_17-32-18_094959634447_rgbf000059-resize_5-target.png,1000,1.551,2.2,6245,1000,feet,jsons/v1_VE1000_randls_34_rotated.json,872953,2096988,39,Woman
41,285682,DepthScenes,duration_manipulation_targetAtFixation,jsons/v1_VE1000_randls_34_rotated.json,http://54.235.29.9/FacialAge/BNav_EC2/DepthDuration/v2_depth_duration_MTurk/v2_DepthDuration_HTML.html#250,250,1366,657,1366,768,8-29-2022,14-25-2,42,depth_duration_stimuli/000878_2014-06-08_22-52-45_260595134347_rgbf000045-resize_2/000878_2014-06-08_22-52-45_260595134347_rgbf000045-resize_2-target.png,1000,2.092,4.0,3631,1001,feet,jsons/v1_VE1000_randls_34_rotated.json,872953,2096988,39,Woman
42,285682,DepthScenes,duration_manipulation_targetAtFixation,jsons/v1_VE1000_randls_34_rotated.json,http://54.235.29.9/FacialAge/BNav_EC2/DepthDuration/v2_depth_duration_MTurk/v2_DepthDuration_HTML.html#250,250,1366,657,1366,768,8-29-2022,14-25-2,43,depth_duration_stimuli/000677_2014-06-08_23-10-32_260595134347_rgbf000158-resize_6/000677_2014-06-08_23-10-32_260595134347_rgbf000158-resize_6-target.png,1000,3.556,6.5,5433,1001,feet,jsons/v1_VE1000_randls_34_rotated.json,872953,2096988,39,Woman
43,285682,DepthScenes,duration_manipulation_targetAtFixation,jsons/v1_VE1000_randls_34_rotated.json,http://54.235.29.9/FacialAge/BNav_EC2/DepthDuration/v2_depth_duration_MTurk/v2_DepthDuration_HTML.html#250,250,1366,657,1366,768,8-29-2022,14-25-2,44,depth_duration_stimuli/001029_2014-06-08_13-17-57_260595134347_rgbf000065-resize_1/001029_2014-06-08_13-17-57_260595134347_rgbf000065-resize_1-target.png,1000,3.0835,6.0,4070,985,feet,jsons/v1_VE1000_randls_34_rotated.json,872953,2096988,39,Woman
44,285682,DepthScenes,duration_manipulation_targetAtFixation,jsons/v1_VE1000_randls_34_rotated.json,http://54.235.29.9/FacialAge/BNav_EC2/DepthDuration/v2_depth_duration_MTurk/v2_DepthDuration_HTML.html#250,250,1366,657,1366,768,8-29-2022,14-25-2,45,depth_duration_stimuli/001094_2014-06-15_17-36-00_260595134347_rgbf000205-resize_0/001094_2014-06-15_17-36-00_260595134347_rgbf000205-resize_0-target.png,1000,4.2175,8.0,7052,1013,feet,jsons/v1_VE1000_randls_34_rotated.json,872953,2096988,39,Woman
45,285682,DepthScenes,duration_manipulation_targetAtFixation,jsons/v1_VE1000_randls_34_rotated.json,http://54.235.29.9/FacialAge/BNav_EC2/DepthDuration/v2_depth_duration_MTurk/v2_DepthDuration_HTML.html#250,250,1366,657,1366,768,8-29-2022,14-25-2,46,depth_duration_stimuli/000692_2014-06-08_13-09-42_260595134347_rgbf000199-resize_2/000692_2014-06-08_13-09-42_260595134347_rgbf000199-resize_2-target.png,1000,3.661,11.0,4229,1000,feet,jsons/v1_VE1000_randls_34_rotated.json,872953,2096988,39,Woman
46,285682,DepthScenes,duration_manipulation_targetAtFixation,jsons/v1_VE1000_randls_34_rotated.json,http://54.235.29.9/FacialAge/BNav_EC2/DepthDuration/v2_depth_duration_MTurk/v2_DepthDuration_HTML.html#250,250,1366,657,1366,768,8-29-2022,14-25-2,47,depth_duration_stimuli/000665_2014-06-09_20-42-35_260595134347_rgbf000110-resize_1/000665_2014-06-09_20-42-35_260595134347_rgbf000110-resize_1-target.png,1000,3.057,5.0,9603,1004,feet,jsons/v1_VE1000_randls_34_rotated.json,872953,2096988,39,Woman
47,285682,DepthScenes,duration_manipulation_targetAtFixation,jsons/v1_VE1000_randls_34_rotated.json,http://54.235.29.9/FacialAge/BNav_EC2/DepthDuration/v2_depth_duration_MTurk/v2_DepthDuration_HTML.html#250,250,1366,657,1366,768,8-29-2022,14-25-2,48,depth_duration_stimuli/001150_2014-06-17_15-27-34_260595134347_rgbf000108-resize_2/001150_2014-06-17_15-27-34_260595134347_rgbf000108-resize_2-target.png,1000,4.0325,6.5,5122,1001,feet,jsons/v1_VE1000_randls_34_rotated.json,872953,2096988,39,Woman
48,285682,DepthScenes,duration_manipulation_targetAtFixation,jsons/v1_VE1000_randls_34_rotated.json,http://54.235.29.9/FacialAge/BNav_EC2/DepthDuration/v2_depth_duration_MTurk/v2_DepthDuration_HTML.html#250,250,1366,657,1366,768,8-29-2022,14-25-2,49,depth_duration_stimuli/001170_2014-06-17_15-43-44_260595134347_rgbf000096-resize_6/001170_2014-06-17_15-43-44_260595134347_rgbf000096-resize-original.jpg,1000,1.1909999999999998,0.0,3887,993,feet,jsons/v1_VE1000_randls_34_rotated.json,872953,2096988,39,Woman
49,285682,DepthScenes,duration_manipulation_targetAtFixation,jsons/v1_VE1000_randls_34_rotated.json,http://54.235.29.9/FacialAge/BNav_EC2/DepthDuration/v2_depth_duration_MTurk/v2_DepthDuration_HTML.html#250,250,1366,657,1366,768,8-29-2022,14-25-2,50,depth_duration_stimuli/001136_2014-06-17_15-19-41_260595134347_rgbf000076-resize_3/001136_2014-06-17_15-19-41_260595134347_rgbf000076-resize_3-target.png,1000,1.8655,3.75,6639,1001,feet,jsons/v1_VE1000_randls_34_rotated.json,872953,2096988,39,Woman
50,285682,DepthScenes,duration_manipulation_targetAtFixation,jsons/v1_VE1000_randls_34_rotated.json,http://54.235.29.9/FacialAge/BNav_EC2/DepthDuration/v2_depth_duration_MTurk/v2_DepthDuration_HTML.html#250,250,1366,657,1366,768,8-29-2022,14-25-2,51,depth_duration_stimuli/001164_2014-06-17_15-35-46_260595134347_rgbf000085-resize_3/001164_2014-06-17_15-35-46_260595134347_rgbf000085-resize_3-target.png,1000,2.354,4.0,3726,1000,feet,jsons/v1_VE1000_randls_34_rotated.json,872953,2096988,39,Woman
51,285682,DepthScenes,duration_manipulation_targetAtFixation,jsons/v1_VE1000_randls_34_rotated.json,http://54.235.29.9/FacialAge/BNav_EC2/DepthDuration/v2_depth_duration_MTurk/v2_DepthDuration_HTML.html#250,250,1366,657,1366,768,8-29-2022,14-25-2,52,depth_duration_stimuli/002136_2014-06-25_21-18-03_260595134347_rgbf000109-resize_3/002136_2014-06-25_21-18-03_260595134347_rgbf000109-resize_3-target.png,1000,1.9569999999999999,3.5,5982,1000,feet,jsons/v1_VE1000_randls_34_rotated.json,872953,2096988,39,Woman
52,285682,DepthScenes,duration_manipulation_targetAtFixation,jsons/v1_VE1000_randls_34_rotated.json,http://54.235.29.9/FacialAge/BNav_EC2/DepthDuration/v2_depth_duration_MTurk/v2_DepthDuration_HTML.html#250,250,1366,657,1366,768,8-29-2022,14-25-2,53,depth_duration_stimuli/002964_2014-06-08_17-46-11_094959634447_rgbf000091-resize_4/002964_2014-06-08_17-46-11_094959634447_rgbf000091-resize_4-target.png,1000,1.6909999999999998,2.0,3838,1001,feet,jsons/v1_VE1000_randls_34_rotated.json,872953,2096988,39,Woman
53,285682,DepthScenes,duration_manipulation_targetAtFixation,jsons/v1_VE1000_randls_34_rotated.json,http://54.235.29.9/FacialAge/BNav_EC2/DepthDuration/v2_depth_duration_MTurk/v2_DepthDuration_HTML.html#250,250,1366,657,1366,768,8-29-2022,14-25-2,54,depth_duration_stimuli/000137_2014-05-20_17-04-49_260595134347_rgbf000120-resize_1/000137_2014-05-20_17-04-49_260595134347_rgbf000120-resize_1-target.png,1000,3.786,7.0,3622,1001,feet,jsons/v1_VE1000_randls_34_rotated.json,872953,2096988,39,Woman
54,285682,DepthScenes,duration_manipulation_targetAtFixation,jsons/v1_VE1000_randls_34_rotated.json,http://54.235.29.9/FacialAge/BNav_EC2/DepthDuration/v2_depth_duration_MTurk/v2_DepthDuration_HTML.html#250,250,1366,657,1366,768,8-29-2022,14-25-2,55,depth_duration_stimuli/000736_2014-06-08_18-24-15_260595134347_rgbf000206-resize_3/000736_2014-06-08_18-24-15_260595134347_rgbf000206-resize_3-target.png,1000,3.515,6.0,3590,1005,feet,jsons/v1_VE1000_randls_34_rotated.json,872953,2096988,39,Woman
55,285682,DepthScenes,duration_manipulation_targetAtFixation,jsons/v1_VE1000_randls_34_rotated.json,http://54.235.29.9/FacialAge/BNav_EC2/DepthDuration/v2_depth_duration_MTurk/v2_DepthDuration_HTML.html#250,250,1366,657,1366,768,8-29-2022,14-25-2,56,depth_duration_stimuli/002750_2014-06-22_19-08-03_094959634447_rgbf000094-resize_4/002750_2014-06-22_19-08-03_094959634447_rgbf000094-resize_4-target.png,1000,2.354,4.5,5414,1002,feet,jsons/v1_VE1000_randls_34_rotated.json,872953,2096988,39,Woman
56,285682,DepthScenes,duration_manipulation_targetAtFixation,jsons/v1_VE1000_randls_34_rotated.json,http://54.235.29.9/FacialAge/BNav_EC2/DepthDuration/v2_depth_duration_MTurk/v2_DepthDuration_HTML.html#250,250,1366,657,1366,768,8-29-2022,14-25-2,57,depth_duration_stimuli/002549_2014-06-24_13-41-39_094959634447_rgbf000022-resize_3/002549_2014-06-24_13-41-39_094959634447_rgbf000022-resize_3-target.png,1000,1.476,3.5,4603,1002,feet,jsons/v1_VE1000_randls_34_rotated.json,872953,2096988,39,Woman
57,285682,DepthScenes,duration_manipulation_targetAtFixation,jsons/v1_VE1000_randls_34_rotated.json,http://54.235.29.9/FacialAge/BNav_EC2/DepthDuration/v2_depth_duration_MTurk/v2_DepthDuration_HTML.html#250,250,1366,657,1366,768,8-29-2022,14-25-2,58,depth_duration_stimuli/000927_2014-06-09_16-32-30_260595134347_rgbf000123-resize_3/000927_2014-06-09_16-32-30_260595134347_rgbf000123-resize_3-target.png,1000,2.6785,6.0,3382,998,feet,jsons/v1_VE1000_randls_34_rotated.json,872953,2096988,39,Woman
58,285682,DepthScenes,duration_manipulation_targetAtFixation,jsons/v1_VE1000_randls_34_rotated.json,http://54.235.29.9/FacialAge/BNav_EC2/DepthDuration/v2_depth_duration_MTurk/v2_DepthDuration_HTML.html#250,250,1366,657,1366,768,8-29-2022,14-25-2,59,depth_duration_stimuli/001110_2014-06-15_17-25-28_260595134347_rgbf000150-resize_1/001110_2014-06-15_17-25-28_260595134347_rgbf000150-resize_1-target.png,1000,1.7115,3.5,4647,1000,feet,jsons/v1_VE1000_randls_34_rotated.json,872953,2096988,39,Woman
59,285682,DepthScenes,duration_manipulation_targetAtFixation,jsons/v1_VE1000_randls_34_rotated.json,http://54.235.29.9/FacialAge/BNav_EC2/DepthDuration/v2_depth_duration_MTurk/v2_DepthDuration_HTML.html#250,250,1366,657,1366,768,8-29-2022,14-25-2,60,depth_duration_stimuli/003010_2014-06-15_12-54-35_094959634447_rgbf000112-resize_0/003010_2014-06-15_12-54-35_094959634447_rgbf000112-resize_0-target.png,1000,3.1185,6.5,5469,1002,feet,jsons/v1_VE1000_randls_34_rotated.json,872953,2096988,39,Woman
60,285682,DepthScenes,duration_manipulation_targetAtFixation,jsons/v1_VE1000_randls_34_rotated.json,http://54.235.29.9/FacialAge/BNav_EC2/DepthDuration/v2_depth_duration_MTurk/v2_DepthDuration_HTML.html#250,250,1366,657,1366,768,8-29-2022,14-25-2,61,depth_duration_stimuli/001810_2014-06-26_20-51-35_260595134347_rgbf000040-resize_3/001810_2014-06-26_20-51-35_260595134347_rgbf000040-resize_3-target.png,1000,2.2525,3.5,5220,988,feet,jsons/v1_VE1000_randls_34_rotated.json,872953,2096988,39,Woman
61,285682,DepthScenes,duration_manipulation_targetAtFixation,jsons/v1_VE1000_randls_34_rotated.json,http://54.235.29.9/FacialAge/BNav_EC2/DepthDuration/v2_depth_duration_MTurk/v2_DepthDuration_HTML.html#250,250,1366,657,1366,768,8-29-2022,14-25-2,62,depth_duration_stimuli/002995_2014-06-15_12-31-26_094959634447_rgbf000150-resize_1/002995_2014-06-15_12-31-26_094959634447_rgbf000150-resize_1-target.png,1000,3.8360000000000003,8.0,4310,1001,feet,jsons/v1_VE1000_randls_34_rotated.json,872953,2096988,39,Woman
62,285682,DepthScenes,duration_manipulation_targetAtFixation,jsons/v1_VE1000_randls_34_rotated.json,http://54.235.29.9/FacialAge/BNav_EC2/DepthDuration/v2_depth_duration_MTurk/v2_DepthDuration_HTML.html#250,250,1366,657,1366,768,8-29-2022,14-25-2,63,depth_duration_stimuli/002748_2014-06-22_19-07-22_094959634447_rgbf000078-resize_1/002748_2014-06-22_19-07-22_094959634447_rgbf000078-resize_1-target.png,1000,4.6705,9.0,3906,999,feet,jsons/v1_VE1000_randls_34_rotated.json,872953,2096988,39,Woman
63,285682,DepthScenes,duration_manipulation_targetAtFixation,jsons/v1_VE1000_randls_34_rotated.json,http://54.235.29.9/FacialAge/BNav_EC2/DepthDuration/v2_depth_duration_MTurk/v2_DepthDuration_HTML.html#250,250,1366,657,1366,768,8-29-2022,14-25-2,64,depth_duration_stimuli/002103_2014-06-25_20-00-40_260595134347_rgbf000049-resize_0/002103_2014-06-25_20-00-40_260595134347_rgbf000049-resize_0-target.png,1000,4.105,8.0,4121,996,feet,jsons/v1_VE1000_randls_34_rotated.json,872953,2096988,39,Woman
64,285682,DepthScenes,duration_manipulation_targetAtFixation,jsons/v1_VE1000_randls_34_rotated.json,http://54.235.29.9/FacialAge/BNav_EC2/DepthDuration/v2_depth_duration_MTurk/v2_DepthDuration_HTML.html#250,250,1366,657,1366,768,8-29-2022,14-25-2,65,depth_duration_stimuli/002039_2014-06-24_20-22-38_260595134347_rgbf000084-resize_1/002039_2014-06-24_20-22-38_260595134347_rgbf000084-resize_1-target.png,1000,4.408,10.0,4804,1002,feet,jsons/v1_VE1000_randls_34_rotated.json,872953,2096988,39,Woman
65,285682,DepthScenes,duration_manipulation_targetAtFixation,jsons/v1_VE1000_randls_34_rotated.json,http://54.235.29.9/FacialAge/BNav_EC2/DepthDuration/v2_depth_duration_MTurk/v2_DepthDuration_HTML.html#250,250,1366,657,1366,768,8-29-2022,14-25-2,66,depth_duration_stimuli/001540_2014-06-20_17-01-05_260595134347_rgbf000086-resize_2/001540_2014-06-20_17-01-05_260595134347_rgbf000086-resize-original.jpg,1000,1.459,0.0,4014,1002,feet,jsons/v1_VE1000_randls_34_rotated.json,872953,2096988,39,Woman
66,285682,DepthScenes,duration_manipulation_targetAtFixation,jsons/v1_VE1000_randls_34_rotated.json,http://54.235.29.9/FacialAge/BNav_EC2/DepthDuration/v2_depth_duration_MTurk/v2_DepthDuration_HTML.html#250,250,1366,657,1366,768,8-29-2022,14-25-2,67,depth_duration_stimuli/000742_2014-06-08_18-48-09_260595134347_rgbf000164-resize_4/000742_2014-06-08_18-48-09_260595134347_rgbf000164-resize_4-target.png,1000,4.632,10.0,4163,1000,feet,jsons/v1_VE1000_randls_34_rotated.json,872953,2096988,39,Woman
67,285682,DepthScenes,duration_manipulation_targetAtFixation,jsons/v1_VE1000_randls_34_rotated.json,http://54.235.29.9/FacialAge/BNav_EC2/DepthDuration/v2_depth_duration_MTurk/v2_DepthDuration_HTML.html#250,250,1366,657,1366,768,8-29-2022,14-25-2,68,depth_duration_stimuli/001066_2014-06-08_22-03-20_260595134347_rgbf000066-resize_4/001066_2014-06-08_22-03-20_260595134347_rgbf000066-resize_4-target.png,1000,4.2330000000000005,11.0,5184,1001,feet,jsons/v1_VE1000_randls_34_rotated.json,872953,2096988,39,Woman
68,285682,DepthScenes,duration_manipulation_targetAtFixation,jsons/v1_VE1000_randls_34_rotated.json,http://54.235.29.9/FacialAge/BNav_EC2/DepthDuration/v2_depth_duration_MTurk/v2_DepthDuration_HTML.html#250,250,1366,657,1366,768,8-29-2022,14-25-2,69,depth_duration_stimuli/002199_2014-06-28_18-33-56_260595134347_rgbf000074-resize_0/002199_2014-06-28_18-33-56_260595134347_rgbf000074-resize_0-target.png,1000,1.996,2.0,3142,985,feet,jsons/v1_VE1000_randls_34_rotated.json,872953,2096988,39,Woman
69,285682,DepthScenes,duration_manipulation_targetAtFixation,jsons/v1_VE1000_randls_34_rotated.json,http://54.235.29.9/FacialAge/BNav_EC2/DepthDuration/v2_depth_duration_MTurk/v2_DepthDuration_HTML.html#250,250,1366,657,1366,768,8-29-2022,14-25-2,70,depth_duration_stimuli/001056_2014-06-08_18-46-44_260595134347_rgbf000068-resize_0/001056_2014-06-08_18-46-44_260595134347_rgbf000068-resize_0-target.png,1000,2.6625,6.5,4569,980,feet,jsons/v1_VE1000_randls_34_rotated.json,872953,2096988,39,Woman
70,285682,DepthScenes,duration_manipulation_targetAtFixation,jsons/v1_VE1000_randls_34_rotated.json,http://54.235.29.9/FacialAge/BNav_EC2/DepthDuration/v2_depth_duration_MTurk/v2_DepthDuration_HTML.html#250,250,1366,657,1366,768,8-29-2022,14-25-2,71,depth_duration_stimuli/002805_2014-06-22_19-54-03_094959634447_rgbf000079-resize_1/002805_2014-06-22_19-54-03_094959634447_rgbf000079-resize_1-target.png,1000,3.1439999999999997,7.5,4668,1000,feet,jsons/v1_VE1000_randls_34_rotated.json,872953,2096988,39,Woman
71,285682,DepthScenes,duration_manipulation_targetAtFixation,jsons/v1_VE1000_randls_34_rotated.json,http://54.235.29.9/FacialAge/BNav_EC2/DepthDuration/v2_depth_duration_MTurk/v2_DepthDuration_HTML.html#250,250,1366,657,1366,768,8-29-2022,14-25-2,72,depth_duration_stimuli/000906_2014-06-08_13-35-43_260595134347_rgbf000155-resize_1/000906_2014-06-08_13-35-43_260595134347_rgbf000155-resize_1-target.png,1000,2.8489999999999998,8.0,3515,986,feet,jsons/v1_VE1000_randls_34_rotated.json,872953,2096988,39,Woman
72,285682,DepthScenes,duration_manipulation_targetAtFixation,jsons/v1_VE1000_randls_34_rotated.json,http://54.235.29.9/FacialAge/BNav_EC2/DepthDuration/v2_depth_duration_MTurk/v2_DepthDuration_HTML.html#250,250,1366,657,1366,768,8-29-2022,14-25-2,73,depth_duration_stimuli/003338_2014-05-20_11-01-23_094959634447_rgbf000051-resize_6/003338_2014-05-20_11-01-23_094959634447_rgbf000051-resize_6-target.png,1000,1.693,3.0,3329,1000,feet,jsons/v1_VE1000_randls_34_rotated.json,872953,2096988,39,Woman
73,285682,DepthScenes,duration_manipulation_targetAtFixation,jsons/v1_VE1000_randls_34_rotated.json,http://54.235.29.9/FacialAge/BNav_EC2/DepthDuration/v2_depth_duration_MTurk/v2_DepthDuration_HTML.html#250,250,1366,657,1366,768,8-29-2022,14-25-2,74,depth_duration_stimuli/002509_2014-06-24_13-19-22_094959634447_rgbf000077-resize_0/002509_2014-06-24_13-19-22_094959634447_rgbf000077-resize_0-target.png,1000,1.3065,3.0,3211,991,feet,jsons/v1_VE1000_randls_34_rotated.json,872953,2096988,39,Woman
74,285682,DepthScenes,duration_manipulation_targetAtFixation,jsons/v1_VE1000_randls_34_rotated.json,http://54.235.29.9/FacialAge/BNav_EC2/DepthDuration/v2_depth_duration_MTurk/v2_DepthDuration_HTML.html#250,250,1366,657,1366,768,8-29-2022,14-25-2,75,depth_duration_stimuli/003490_2014-05-21_15-50-11_094959634447_rgbf000101-resize_3/003490_2014-05-21_15-50-11_094959634447_rgbf000101-resize_3-target.png,1000,3.6445,7.0,4302,1001,feet,jsons/v1_VE1000_randls_34_rotated.json,872953,2096988,39,Woman
75,285682,DepthScenes,duration_manipulation_targetAtFixation,jsons/v1_VE1000_randls_34_rotated.json,http://54.235.29.9/FacialAge/BNav_EC2/DepthDuration/v2_depth_duration_MTurk/v2_DepthDuration_HTML.html#250,250,1366,657,1366,768,8-29-2022,14-25-2,76,depth_duration_stimuli/001175_2014-06-17_15-45-55_260595134347_rgbf000129-resize_4/001175_2014-06-17_15-45-55_260595134347_rgbf000129-resize_4-target.png,1000,4.255,12.0,6859,986,feet,jsons/v1_VE1000_randls_34_rotated.json,872953,2096988,39,Woman
76,285682,DepthScenes,duration_manipulation_targetAtFixation,jsons/v1_VE1000_randls_34_rotated.json,http://54.235.29.9/FacialAge/BNav_EC2/DepthDuration/v2_depth_duration_MTurk/v2_DepthDuration_HTML.html#250,250,1366,657,1366,768,8-29-2022,14-25-2,77,depth_duration_stimuli/003423_2014-05-21_10-23-26_094959634447_rgbf002665-resize_2/003423_2014-05-21_10-23-26_094959634447_rgbf002665-resize_2-target.png,1000,3.2575,8.0,3357,1002,feet,jsons/v1_VE1000_randls_34_rotated.json,872953,2096988,39,Woman
77,285682,DepthScenes,duration_manipulation_targetAtFixation,jsons/v1_VE1000_randls_34_rotated.json,http://54.235.29.9/FacialAge/BNav_EC2/DepthDuration/v2_depth_duration_MTurk/v2_DepthDuration_HTML.html#250,250,1366,657,1366,768,8-29-2022,14-25-2,78,depth_duration_stimuli/002905_2014-06-03_18-04-43_094959634447_rgbf000151-resize_2/002905_2014-06-03_18-04-43_094959634447_rgbf000151-resize_2-target.png,1000,2.0295,5.0,4849,1000,feet,jsons/v1_VE1000_randls_34_rotated.json,872953,2096988,39,Woman
78,285682,DepthScenes,duration_manipulation_targetAtFixation,jsons/v1_VE1000_randls_34_rotated.json,http://54.235.29.9/FacialAge/BNav_EC2/DepthDuration/v2_depth_duration_MTurk/v2_DepthDuration_HTML.html#250,250,1366,657,1366,768,8-29-2022,14-25-2,79,depth_duration_stimuli/000635_2014-06-08_16-38-42_260595134347_rgbf000106-resize_1/000635_2014-06-08_16-38-42_260595134347_rgbf000106-resize_1-target.png,1000,2.074,6.0,3503,1000,feet,jsons/v1_VE1000_randls_34_rotated.json,872953,2096988,39,Woman
79,285682,DepthScenes,duration_manipulation_targetAtFixation,jsons/v1_VE1000_randls_34_rotated.json,http://54.235.29.9/FacialAge/BNav_EC2/DepthDuration/v2_depth_duration_MTurk/v2_DepthDuration_HTML.html#250,250,1366,657,1366,768,8-29-2022,14-25-2,80,depth_duration_stimuli/002279_2014-06-28_18-55-32_260595134347_rgbf000040-resize_5/002279_2014-06-28_18-55-32_260595134347_rgbf000040-resize_5-target.png,1000,1.5043333333333,2.5,4721,1002,feet,jsons/v1_VE1000_randls_34_rotated.json,872953,2096988,39,Woman
80,285682,DepthScenes,duration_manipulation_targetAtFixation,jsons/v1_VE1000_randls_34_rotated.json,http://54.235.29.9/FacialAge/BNav_EC2/DepthDuration/v2_depth_duration_MTurk/v2_DepthDuration_HTML.html#250,250,1366,657,1366,768,8-29-2022,14-25-2,81,depth_duration_stimuli/001828_2014-06-26_21-40-03_260595134347_rgbf000024-resize_0/001828_2014-06-26_21-40-03_260595134347_rgbf000024-resize_0-target.png,1000,4.8260000000000005,8.5,4448,1003,feet,jsons/v1_VE1000_randls_34_rotated.json,872953,2096988,39,Woman
81,285682,DepthScenes,duration_manipulation_targetAtFixation,jsons/v1_VE1000_randls_34_rotated.json,http://54.235.29.9/FacialAge/BNav_EC2/DepthDuration/v2_depth_duration_MTurk/v2_DepthDuration_HTML.html#250,250,1366,657,1366,768,8-29-2022,14-25-2,82,depth_duration_stimuli/000009_2014-05-26_14-32-05_260595134347_rgbf000034-resize_3/000009_2014-05-26_14-32-05_260595134347_rgbf000034-resize_3-target.png,1000,3.8715,12.0,5743,1002,feet,jsons/v1_VE1000_randls_34_rotated.json,872953,2096988,39,Woman
82,285682,DepthScenes,duration_manipulation_targetAtFixation,jsons/v1_VE1000_randls_34_rotated.json,http://54.235.29.9/FacialAge/BNav_EC2/DepthDuration/v2_depth_duration_MTurk/v2_DepthDuration_HTML.html#250,250,1366,657,1366,768,8-29-2022,14-25-2,83,depth_duration_stimuli/001584_2014-06-20_11-07-43_260595134347_rgbf000002-resize_1/001584_2014-06-20_11-07-43_260595134347_rgbf000002-resize_1-target.png,1000,3.53,6.5,5200,996,feet,jsons/v1_VE1000_randls_34_rotated.json,872953,2096988,39,Woman
83,285682,DepthScenes,duration_manipulation_targetAtFixation,jsons/v1_VE1000_randls_34_rotated.json,http://54.235.29.9/FacialAge/BNav_EC2/DepthDuration/v2_depth_duration_MTurk/v2_DepthDuration_HTML.html#250,250,1366,657,1366,768,8-29-2022,14-25-2,84,depth_duration_stimuli/003621_2014-05-23_18-06-08_094959634447_rgbf000101-resize_1/003621_2014-05-23_18-06-08_094959634447_rgbf000101-resize_1-target.png,1000,3.9835,9.0,3605,998,feet,jsons/v1_VE1000_randls_34_rotated.json,872953,2096988,39,Woman
84,285682,DepthScenes,duration_manipulation_targetAtFixation,jsons/v1_VE1000_randls_34_rotated.json,http://54.235.29.9/FacialAge/BNav_EC2/DepthDuration/v2_depth_duration_MTurk/v2_DepthDuration_HTML.html#250,250,1366,657,1366,768,8-29-2022,14-25-2,85,depth_duration_stimuli/001650_2014-06-20_12-09-00_260595134347_rgbf000087-resize_3/001650_2014-06-20_12-09-00_260595134347_rgbf000087-resize_3-target.png,1000,1.9505,1.7,4639,1001,feet,jsons/v1_VE1000_randls_34_rotated.json,872953,2096988,39,Woman
85,285682,DepthScenes,duration_manipulation_targetAtFixation,jsons/v1_VE1000_randls_34_rotated.json,http://54.235.29.9/FacialAge/BNav_EC2/DepthDuration/v2_depth_duration_MTurk/v2_DepthDuration_HTML.html#250,250,1366,657,1366,768,8-29-2022,14-25-2,86,depth_duration_stimuli/000682_2014-06-08_23-14-58_260595134347_rgbf000041-resize_5/000682_2014-06-08_23-14-58_260595134347_rgbf000041-resize_5-target.png,1000,2.7239999999999998,6.0,3433,994,feet,jsons/v1_VE1000_randls_34_rotated.json,872953,2096988,39,Woman
86,285682,DepthScenes,duration_manipulation_targetAtFixation,jsons/v1_VE1000_randls_34_rotated.json,http://54.235.29.9/FacialAge/BNav_EC2/DepthDuration/v2_depth_duration_MTurk/v2_DepthDuration_HTML.html#250,250,1366,657,1366,768,8-29-2022,14-25-2,87,depth_duration_stimuli/002660_2014-06-13_15-44-18_094959634447_rgbf001878-resize_2/002660_2014-06-13_15-44-18_094959634447_rgbf001878-resize_2-target.png,1000,3.576,8.5,4459,986,feet,jsons/v1_VE1000_randls_34_rotated.json,872953,2096988,39,Woman
87,285682,DepthScenes,duration_manipulation_targetAtFixation,jsons/v1_VE1000_randls_34_rotated.json,http://54.235.29.9/FacialAge/BNav_EC2/DepthDuration/v2_depth_duration_MTurk/v2_DepthDuration_HTML.html#250,250,1366,657,1366,768,8-29-2022,14-25-2,88,depth_duration_stimuli/002153_2014-06-25_21-27-18_260595134347_rgbf000038-resize_5/002153_2014-06-25_21-27-18_260595134347_rgbf000038-resize_5-target.png,1000,2.505,7.0,3960,1001,feet,jsons/v1_VE1000_randls_34_rotated.json,872953,2096988,39,Woman
88,285682,DepthScenes,duration_manipulation_targetAtFixation,jsons/v1_VE1000_randls_34_rotated.json,http://54.235.29.9/FacialAge/BNav_EC2/DepthDuration/v2_depth_duration_MTurk/v2_DepthDuration_HTML.html#250,250,1366,657,1366,768,8-29-2022,14-25-2,89,depth_duration_stimuli/000780_2014-06-08_22-28-29_260595134347_rgbf000126-resize_1/000780_2014-06-08_22-28-29_260595134347_rgbf000126-resize_1-target.png,1000,3.3825,9.0,3810,994,feet,jsons/v1_VE1000_randls_34_rotated.json,872953,2096988,39,Woman
89,285682,DepthScenes,duration_manipulation_targetAtFixation,jsons/v1_VE1000_randls_34_rotated.json,http://54.235.29.9/FacialAge/BNav_EC2/DepthDuration/v2_depth_duration_MTurk/v2_DepthDuration_HTML.html#250,250,1366,657,1366,768,8-29-2022,14-25-2,90,depth_duration_stimuli/002445_2014-06-28_20-32-16_260595134347_rgbf000029-resize_4/002445_2014-06-28_20-32-16_260595134347_rgbf000029-resize_4-target.png,1000,2.5315,5.0,3398,1000,feet,jsons/v1_VE1000_randls_34_rotated.json,872953,2096988,39,Woman
90,285682,DepthScenes,duration_manipulation_targetAtFixation,jsons/v1_VE1000_randls_34_rotated.json,http://54.235.29.9/FacialAge/BNav_EC2/DepthDuration/v2_depth_duration_MTurk/v2_DepthDuration_HTML.html#250,250,1366,657,1366,768,8-29-2022,14-25-2,91,depth_duration_stimuli/002678_2014-06-13_16-15-32_094959634447_rgbf000151-resize_6/002678_2014-06-13_16-15-32_094959634447_rgbf000151-resize_6-target.png,1000,2.1830000000000003,11.0,3413,1000,feet,jsons/v1_VE1000_randls_34_rotated.json,872953,2096988,39,Woman
91,285682,DepthScenes,duration_manipulation_targetAtFixation,jsons/v1_VE1000_randls_34_rotated.json,http://54.235.29.9/FacialAge/BNav_EC2/DepthDuration/v2_depth_duration_MTurk/v2_DepthDuration_HTML.html#250,250,1366,657,1366,768,8-29-2022,14-25-2,92,depth_duration_stimuli/000368_2014-06-09_15-53-01_260595134347_rgbf000155-resize_2/000368_2014-06-09_15-53-01_260595134347_rgbf000155-resize_2-target.png,1000,2.4859999999999998,3.3,4795,1000,feet,jsons/v1_VE1000_randls_34_rotated.json,872953,2096988,39,Woman
92,285682,DepthScenes,duration_manipulation_targetAtFixation,jsons/v1_VE1000_randls_34_rotated.json,http://54.235.29.9/FacialAge/BNav_EC2/DepthDuration/v2_depth_duration_MTurk/v2_DepthDuration_HTML.html#250,250,1366,657,1366,768,8-29-2022,14-25-2,93,depth_duration_stimuli/003079_2014-06-15_15-18-20_094959634447_rgbf000152-resize_8/003079_2014-06-15_15-18-20_094959634447_rgbf000152-resize_8-target.png,1000,2.8775,7.0,3759,1003,feet,jsons/v1_VE1000_randls_34_rotated.json,872953,2096988,39,Woman
93,285682,DepthScenes,duration_manipulation_targetAtFixation,jsons/v1_VE1000_randls_34_rotated.json,http://54.235.29.9/FacialAge/BNav_EC2/DepthDuration/v2_depth_duration_MTurk/v2_DepthDuration_HTML.html#250,250,1366,657,1366,768,8-29-2022,14-25-2,94,depth_duration_stimuli/000506_2014-06-08_23-21-00_260595134347_rgbf000070-resize_7/000506_2014-06-08_23-21-00_260595134347_rgbf000070-resize_7-target.png,1000,4.0585,9.0,3634,1005,feet,jsons/v1_VE1000_randls_34_rotated.json,872953,2096988,39,Woman
94,285682,DepthScenes,duration_manipulation_targetAtFixation,jsons/v1_VE1000_randls_34_rotated.json,http://54.235.29.9/FacialAge/BNav_EC2/DepthDuration/v2_depth_duration_MTurk/v2_DepthDuration_HTML.html#250,250,1366,657,1366,768,8-29-2022,14-25-2,95,depth_duration_stimuli/000549_2014-06-08_22-10-24_260595134347_rgbf000247-resize_3/000549_2014-06-08_22-10-24_260595134347_rgbf000247-resize_3-target.png,1000,1.841,2.5,4266,1002,feet,jsons/v1_VE1000_randls_34_rotated.json,872953,2096988,39,Woman
95,285682,DepthScenes,duration_manipulation_targetAtFixation,jsons/v1_VE1000_randls_34_rotated.json,http://54.235.29.9/FacialAge/BNav_EC2/DepthDuration/v2_depth_duration_MTurk/v2_DepthDuration_HTML.html#250,250,1366,657,1366,768,8-29-2022,14-25-2,96,depth_duration_stimuli/001055_2014-06-08_18-45-35_260595134347_rgbf000111-resize_4/001055_2014-06-08_18-45-35_260595134347_rgbf000111-resize_4-target.png,1000,2.4290000000000003,9.0,17414,985,feet,jsons/v1_VE1000_randls_34_rotated.json,872953,2096988,39,Woman
96,285682,DepthScenes,duration_manipulation_targetAtFixation,jsons/v1_VE1000_randls_34_rotated.json,http://54.235.29.9/FacialAge/BNav_EC2/DepthDuration/v2_depth_duration_MTurk/v2_DepthDuration_HTML.html#250,250,1366,657,1366,768,8-29-2022,14-25-2,97,depth_duration_stimuli/000749_2014-06-08_21-55-06_260595134347_rgbf000070-resize_2/000749_2014-06-08_21-55-06_260595134347_rgbf000070-resize_2-target.png,1000,2.331,7.0,4031,993,feet,jsons/v1_VE1000_randls_34_rotated.json,872953,2096988,39,Woman
97,285682,DepthScenes,duration_manipulation_targetAtFixation,jsons/v1_VE1000_randls_34_rotated.json,http://54.235.29.9/FacialAge/BNav_EC2/DepthDuration/v2_depth_duration_MTurk/v2_DepthDuration_HTML.html#250,250,1366,657,1366,768,8-29-2022,14-25-2,98,depth_duration_stimuli/002788_2014-06-22_19-36-03_094959634447_rgbf000088-resize_2/002788_2014-06-22_19-36-03_094959634447_rgbf000088-resize_2-target.png,1000,1.6465,8.0,3652,1000,feet,jsons/v1_VE1000_randls_34_rotated.json,872953,2096988,39,Woman
98,285682,DepthScenes,duration_manipulation_targetAtFixation,jsons/v1_VE1000_randls_34_rotated.json,http://54.235.29.9/FacialAge/BNav_EC2/DepthDuration/v2_depth_duration_MTurk/v2_DepthDuration_HTML.html#250,250,1366,657,1366,768,8-29-2022,14-25-2,99,depth_duration_stimuli/001222_2014-06-17_16-24-06_260595134347_rgbf000073-resize_0/001222_2014-06-17_16-24-06_260595134347_rgbf000073-resize-original.jpg,1000,1.4385,0.0,3657,988,feet,jsons/v1_VE1000_randls_34_rotated.json,872953,2096988,39,Woman
99,285682,DepthScenes,duration_manipulation_targetAtFixation,jsons/v1_VE1000_randls_34_rotated.json,http://54.235.29.9/FacialAge/BNav_EC2/DepthDuration/v2_depth_duration_MTurk/v2_DepthDuration_HTML.html#250,250,1366,657,1366,768,8-29-2022,14-25-2,100,depth_duration_stimuli/000502_2014-06-08_23-02-32_260595134347_rgbf000063-resize_4/000502_2014-06-08_23-02-32_260595134347_rgbf000063-resize_4-target.png,1000,2.431,4.0,4102,1002,feet,jsons/v1_VE1000_randls_34_rotated.json,872953,2096988,39,Woman
100,285682,DepthScenes,duration_manipulation_targetAtFixation,jsons/v1_VE1000_randls_34_rotated.json,http://54.235.29.9/FacialAge/BNav_EC2/DepthDuration/v2_depth_duration_MTurk/v2_DepthDuration_HTML.html#250,250,1366,657,1366,768,8-29-2022,14-25-2,101,depth_duration_stimuli/001199_2014-06-17_16-03-48_260595134347_rgbf000077-resize_0/001199_2014-06-17_16-03-48_260595134347_rgbf000077-resize_0-target.png,1000,3.4375,9.0,3681,1001,feet,jsons/v1_VE1000_randls_34_rotated.json,872953,2096988,39,Woman
101,285682,DepthScenes,duration_manipulation_targetAtFixation,jsons/v1_VE1000_randls_34_rotated.json,http://54.235.29.9/FacialAge/BNav_EC2/DepthDuration/v2_depth_duration_MTurk/v2_DepthDuration_HTML.html#250,250,1366,657,1366,768,8-29-2022,14-25-2,102,depth_duration_stimuli/002545_2014-06-24_13-38-53_094959634447_rgbf000080-resize_4/002545_2014-06-24_13-38-53_094959634447_rgbf000080-resize_4-target.png,1000,1.9205,5.0,4729,1015,feet,jsons/v1_VE1000_randls_34_rotated.json,872953,2096988,39,Woman
102,285682,DepthScenes,duration_manipulation_targetAtFixation,jsons/v1_VE1000_randls_34_rotated.json,http://54.235.29.9/FacialAge/BNav_EC2/DepthDuration/v2_depth_duration_MTurk/v2_DepthDuration_HTML.html#250,250,1366,657,1366,768,8-29-2022,14-25-2,103,depth_duration_stimuli/001092_2014-06-15_17-34-58_260595134347_rgbf000171-resize_3/001092_2014-06-15_17-34-58_260595134347_rgbf000171-resize_3-target.png,1000,2.6935,4.5,4476,1000,feet,jsons/v1_VE1000_randls_34_rotated.json,872953,2096988,39,Woman
103,285682,DepthScenes,duration_manipulation_targetAtFixation,jsons/v1_VE1000_randls_34_rotated.json,http://54.235.29.9/FacialAge/BNav_EC2/DepthDuration/v2_depth_duration_MTurk/v2_DepthDuration_HTML.html#250,250,1366,657,1366,768,8-29-2022,14-25-2,104,depth_duration_stimuli/001815_2014-06-26_20-52-55_260595134347_rgbf000020-resize_0/001815_2014-06-26_20-52-55_260595134347_rgbf000020-resize_0-target.png,1000,3.3865,8.3,5857,1000,feet,jsons/v1_VE1000_randls_34_rotated.json,872953,2096988,39,Woman
104,285682,DepthScenes,duration_manipulation_targetAtFixation,jsons/v1_VE1000_randls_34_rotated.json,http://54.235.29.9/FacialAge/BNav_EC2/DepthDuration/v2_depth_duration_MTurk/v2_DepthDuration_HTML.html#250,250,1366,657,1366,768,8-29-2022,14-25-2,105,depth_duration_stimuli/001808_2014-06-26_20-50-58_260595134347_rgbf000029-resize_1/001808_2014-06-26_20-50-58_260595134347_rgbf000029-resize_1-target.png,1000,4.249,11.0,4137,998,feet,jsons/v1_VE1000_randls_34_rotated.json,872953,2096988,39,Woman
105,285682,DepthScenes,duration_manipulation_targetAtFixation,jsons/v1_VE1000_randls_34_rotated.json,http://54.235.29.9/FacialAge/BNav_EC2/DepthDuration/v2_depth_duration_MTurk/v2_DepthDuration_HTML.html#250,250,1366,657,1366,768,8-29-2022,14-25-2,106,depth_duration_stimuli/002340_2014-06-28_20-05-46_260595134347_rgbf000113-resize_0/002340_2014-06-28_20-05-46_260595134347_rgbf000113-resize_0-target.png,1000,2.4735,10.0,4875,1001,feet,jsons/v1_VE1000_randls_34_rotated.json,872953,2096988,39,Woman
106,285682,DepthScenes,duration_manipulation_targetAtFixation,jsons/v1_VE1000_randls_34_rotated.json,http://54.235.29.9/FacialAge/BNav_EC2/DepthDuration/v2_depth_duration_MTurk/v2_DepthDuration_HTML.html#250,250,1366,657,1366,768,8-29-2022,14-25-2,107,depth_duration_stimuli/001016_2014-06-09_16-16-10_260595134347_rgbf000112-resize_5/001016_2014-06-09_16-16-10_260595134347_rgbf000112-resize_5-target.png,1000,1.6565,6.5,4808,1003,feet,jsons/v1_VE1000_randls_34_rotated.json,872953,2096988,39,Woman
107,285682,DepthScenes,duration_manipulation_targetAtFixation,jsons/v1_VE1000_randls_34_rotated.json,http://54.235.29.9/FacialAge/BNav_EC2/DepthDuration/v2_depth_duration_MTurk/v2_DepthDuration_HTML.html#250,250,1366,657,1366,768,8-29-2022,14-25-2,108,depth_duration_stimuli/002875_2014-06-01_15-19-00_094959634447_rgbf000151-resize_1/002875_2014-06-01_15-19-00_094959634447_rgbf000151-resize_1-target.png,1000,1.9675,5.0,3422,1001,feet,jsons/v1_VE1000_randls_34_rotated.json,872953,2096988,39,Woman
108,285682,DepthScenes,duration_manipulation_targetAtFixation,jsons/v1_VE1000_randls_34_rotated.json,http://54.235.29.9/FacialAge/BNav_EC2/DepthDuration/v2_depth_duration_MTurk/v2_DepthDuration_HTML.html#250,250,1366,657,1366,768,8-29-2022,14-25-2,109,depth_duration_stimuli/001011_2014-06-08_23-18-54_260595134347_rgbf000044-resize_4/001011_2014-06-08_23-18-54_260595134347_rgbf000044-resize_4-target.png,1000,2.4730000000000003,6.0,5657,1000,feet,jsons/v1_VE1000_randls_34_rotated.json,872953,2096988,39,Woman
109,285682,DepthScenes,duration_manipulation_targetAtFixation,jsons/v1_VE1000_randls_34_rotated.json,http://54.235.29.9/FacialAge/BNav_EC2/DepthDuration/v2_depth_duration_MTurk/v2_DepthDuration_HTML.html#250,250,1366,657,1366,768,8-29-2022,14-25-2,110,depth_duration_stimuli/002568_2014-06-24_13-59-21_094959634447_rgbf000062-resize_4/002568_2014-06-24_13-59-21_094959634447_rgbf000062-resize_4-target.png,1000,3.015,7.5,6767,999,feet,jsons/v1_VE1000_randls_34_rotated.json,872953,2096988,39,Woman
110,285682,DepthScenes,duration_manipulation_targetAtFixation,jsons/v1_VE1000_randls_34_rotated.json,http://54.235.29.9/FacialAge/BNav_EC2/DepthDuration/v2_depth_duration_MTurk/v2_DepthDuration_HTML.html#250,250,1366,657,1366,768,8-29-2022,14-25-2,111,depth_duration_stimuli/003492_2014-05-21_15-50-55_094959634447_rgbf000828-resize_1/003492_2014-05-21_15-50-55_094959634447_rgbf000828-resize_1-target.png,1000,4.06875,9.0,3983,986,feet,jsons/v1_VE1000_randls_34_rotated.json,872953,2096988,39,Woman
111,285682,DepthScenes,duration_manipulation_targetAtFixation,jsons/v1_VE1000_randls_34_rotated.json,http://54.235.29.9/FacialAge/BNav_EC2/DepthDuration/v2_depth_duration_MTurk/v2_DepthDuration_HTML.html#250,250,1366,657,1366,768,8-29-2022,14-25-2,112,depth_duration_stimuli/002323_2014-06-28_20-01-54_260595134347_rgbf000051-resize_4/002323_2014-06-28_20-01-54_260595134347_rgbf000051-resize_4-target.png,1000,3.7310000000000003,11.0,3799,993,feet,jsons/v1_VE1000_randls_34_rotated.json,872953,2096988,39,Woman
112,285682,DepthScenes,duration_manipulation_targetAtFixation,jsons/v1_VE1000_randls_34_rotated.json,http://54.235.29.9/FacialAge/BNav_EC2/DepthDuration/v2_depth_duration_MTurk/v2_DepthDuration_HTML.html#250,250,1366,657,1366,768,8-29-2022,14-25-2,113,depth_duration_stimuli/000917_2014-06-09_22-45-29_260595134347_rgbf000149-resize_3/000917_2014-06-09_22-45-29_260595134347_rgbf000149-resize_3-target.png,1000,4.1865,8.5,4951,999,feet,jsons/v1_VE1000_randls_34_rotated.json,872953,2096988,39,Woman
113,285682,DepthScenes,duration_manipulation_targetAtFixation,jsons/v1_VE1000_randls_34_rotated.json,http://54.235.29.9/FacialAge/BNav_EC2/DepthDuration/v2_depth_duration_MTurk/v2_DepthDuration_HTML.html#250,250,1366,657,1366,768,8-29-2022,14-25-2,114,depth_duration_stimuli/002467_2014-06-28_20-38-07_260595134347_rgbf000026-resize_2/002467_2014-06-28_20-38-07_260595134347_rgbf000026-resize_2-target.png,1000,4.742,10.0,5506,1001,feet,jsons/v1_VE1000_randls_34_rotated.json,872953,2096988,39,Woman
114,285682,DepthScenes,duration_manipulation_targetAtFixation,jsons/v1_VE1000_randls_34_rotated.json,http://54.235.29.9/FacialAge/BNav_EC2/DepthDuration/v2_depth_duration_MTurk/v2_DepthDuration_HTML.html#250,250,1366,657,1366,768,8-29-2022,14-25-2,115,depth_duration_stimuli/002570_2014-06-24_13-59-54_094959634447_rgbf000059-resize_0/002570_2014-06-24_13-59-54_094959634447_rgbf000059-resize_0-target.png,1000,4.037,8.0,3501,1000,feet,jsons/v1_VE1000_randls_34_rotated.json,872953,2096988,39,Woman
115,285682,DepthScenes,duration_manipulation_targetAtFixation,jsons/v1_VE1000_randls_34_rotated.json,http://54.235.29.9/FacialAge/BNav_EC2/DepthDuration/v2_depth_duration_MTurk/v2_DepthDuration_HTML.html#250,250,1366,657,1366,768,8-29-2022,14-25-2,116,depth_duration_stimuli/002639_2014-06-24_14-51-37_094959634447_rgbf000074-resize_4/002639_2014-06-24_14-51-37_094959634447_rgbf000074-resize_4-target.png,1000,4.0375,8.0,5145,985,feet,jsons/v1_VE1000_randls_34_rotated.json,872953,2096988,39,Woman
116,285682,DepthScenes,duration_manipulation_targetAtFixation,jsons/v1_VE1000_randls_34_rotated.json,http://54.235.29.9/FacialAge/BNav_EC2/DepthDuration/v2_depth_duration_MTurk/v2_DepthDuration_HTML.html#250,250,1366,657,1366,768,8-29-2022,14-25-2,117,depth_duration_stimuli/003292_2014-05-14_21-53-49_094959634447_rgbf000100-resize_2/003292_2014-05-14_21-53-49_094959634447_rgbf000100-resize_2-target.png,1000,3.4815,7.0,3576,1000,feet,jsons/v1_VE1000_randls_34_rotated.json,872953,2096988,39,Woman
117,285682,DepthScenes,duration_manipulation_targetAtFixation,jsons/v1_VE1000_randls_34_rotated.json,http://54.235.29.9/FacialAge/BNav_EC2/DepthDuration/v2_depth_duration_MTurk/v2_DepthDuration_HTML.html#250,250,1366,657,1366,768,8-29-2022,14-25-2,118,depth_duration_stimuli/000943_2014-06-09_19-31-07_260595134347_rgbf000128-resize_1/000943_2014-06-09_19-31-07_260595134347_rgbf000128-resize_1-target.png,1000,1.9765,4.5,4747,1001,feet,jsons/v1_VE1000_randls_34_rotated.json,872953,2096988,39,Woman
118,285682,DepthScenes,duration_manipulation_targetAtFixation,jsons/v1_VE1000_randls_34_rotated.json,http://54.235.29.9/FacialAge/BNav_EC2/DepthDuration/v2_depth_duration_MTurk/v2_DepthDuration_HTML.html#250,250,1366,657,1366,768,8-29-2022,14-25-2,119,depth_duration_stimuli/003070_2014-06-15_14-58-27_094959634447_rgbf000150-resize_3/003070_2014-06-15_14-58-27_094959634447_rgbf000150-resize_3-target.png,1000,2.9415,9.0,3963,1001,feet,jsons/v1_VE1000_randls_34_rotated.json,872953,2096988,39,Woman
119,285682,DepthScenes,duration_manipulation_targetAtFixation,jsons/v1_VE1000_randls_34_rotated.json,http://54.235.29.9/FacialAge/BNav_EC2/DepthDuration/v2_depth_duration_MTurk/v2_DepthDuration_HTML.html#250,250,1366,657,1366,768,8-29-2022,14-25-2,120,depth_duration_stimuli/000787_2014-06-08_22-33-53_260595134347_rgbf000175-resize_1/000787_2014-06-08_22-33-53_260595134347_rgbf000175-resize-original.jpg,1000,4.784,0.0,3485,1000,feet,jsons/v1_VE1000_randls_34_rotated.json,872953,2096988,39,Woman
120,285682,DepthScenes,duration_manipulation_targetAtFixation,jsons/v1_VE1000_randls_34_rotated.json,http://54.235.29.9/FacialAge/BNav_EC2/DepthDuration/v2_depth_duration_MTurk/v2_DepthDuration_HTML.html#250,250,1366,657,1366,768,8-29-2022,14-25-2,121,depth_duration_stimuli/000866_2014-06-09_20-45-42_260595134347_rgbf000139-resize_1/000866_2014-06-09_20-45-42_260595134347_rgbf000139-resize_1-target.png,1000,3.2155,7.0,3636,986,feet,jsons/v1_VE1000_randls_34_rotated.json,872953,2096988,39,Woman
121,285682,DepthScenes,duration_manipulation_targetAtFixation,jsons/v1_VE1000_randls_34_rotated.json,http://54.235.29.9/FacialAge/BNav_EC2/DepthDuration/v2_depth_duration_MTurk/v2_DepthDuration_HTML.html#250,250,1366,657,1366,768,8-29-2022,14-25-2,122,depth_duration_stimuli/002989_2014-06-15_12-25-03_094959634447_rgbf000150-resize_3/002989_2014-06-15_12-25-03_094959634447_rgbf000150-resize_3-target.png,1000,4.1975,10.0,4151,989,feet,jsons/v1_VE1000_randls_34_rotated.json,872953,2096988,39,Woman
122,285682,DepthScenes,duration_manipulation_targetAtFixation,jsons/v1_VE1000_randls_34_rotated.json,http://54.235.29.9/FacialAge/BNav_EC2/DepthDuration/v2_depth_duration_MTurk/v2_DepthDuration_HTML.html#250,250,1366,657,1366,768,8-29-2022,14-25-2,123,depth_duration_stimuli/001100_2014-06-15_17-46-26_260595134347_rgbf000225-resize_2/001100_2014-06-15_17-46-26_260595134347_rgbf000225-resize_2-target.png,1000,2.24,3.0,3703,987,feet,jsons/v1_VE1000_randls_34_rotated.json,872953,2096988,39,Woman
123,285682,DepthScenes,duration_manipulation_targetAtFixation,jsons/v1_VE1000_randls_34_rotated.json,http://54.235.29.9/FacialAge/BNav_EC2/DepthDuration/v2_depth_duration_MTurk/v2_DepthDuration_HTML.html#250,250,1366,657,1366,768,8-29-2022,14-25-2,124,depth_duration_stimuli/002784_2014-06-22_19-26-30_094959634447_rgbf000083-resize_3/002784_2014-06-22_19-26-30_094959634447_rgbf000083-resize_3-target.png,1000,1.8046666666667,2.8,4860,987,feet,jsons/v1_VE1000_randls_34_rotated.json,872953,2096988,39,Woman
124,285682,DepthScenes,duration_manipulation_targetAtFixation,jsons/v1_VE1000_randls_34_rotated.json,http://54.235.29.9/FacialAge/BNav_EC2/DepthDuration/v2_depth_duration_MTurk/v2_DepthDuration_HTML.html#250,250,1366,657,1366,768,8-29-2022,14-25-2,125,depth_duration_stimuli/000483_2014-06-09_20-41-45_260595134347_rgbf000116-resize_4/000483_2014-06-09_20-41-45_260595134347_rgbf000116-resize_4-target.png,1000,1.337,2.5,4653,1003,feet,jsons/v1_VE1000_randls_34_rotated.json,872953,2096988,39,Woman
125,285682,DepthScenes,duration_manipulation_targetAtFixation,jsons/v1_VE1000_randls_34_rotated.json,http://54.235.29.9/FacialAge/BNav_EC2/DepthDuration/v2_depth_duration_MTurk/v2_DepthDuration_HTML.html#250,250,1366,657,1366,768,8-29-2022,14-25-2,126,depth_duration_stimuli/000469_2014-06-09_19-42-10_260595134347_rgbf000081-resize_1/000469_2014-06-09_19-42-10_260595134347_rgbf000081-resize_1-target.png,1000,1.652,3.0,3510,1000,feet,jsons/v1_VE1000_randls_34_rotated.json,872953,2096988,39,Woman
126,285682,DepthScenes,duration_manipulation_targetAtFixation,jsons/v1_VE1000_randls_34_rotated.json,http://54.235.29.9/FacialAge/BNav_EC2/DepthDuration/v2_depth_duration_MTurk/v2_DepthDuration_HTML.html#250,250,1366,657,1366,768,8-29-2022,14-25-2,127,depth_duration_stimuli/000109_2014-05-14_23-41-52_260595134347_rgbf000035-resize_9/000109_2014-05-14_23-41-52_260595134347_rgbf000035-resize_9-target.png,1000,1.3545,2.2,5119,1001,feet,jsons/v1_VE1000_randls_34_rotated.json,872953,2096988,39,Woman
127,285682,DepthScenes,duration_manipulation_targetAtFixation,jsons/v1_VE1000_randls_34_rotated.json,http://54.235.29.9/FacialAge/BNav_EC2/DepthDuration/v2_depth_duration_MTurk/v2_DepthDuration_HTML.html#250,250,1366,657,1366,768,8-29-2022,14-25-2,128,depth_duration_stimuli/000470_2014-06-09_19-42-40_260595134347_rgbf000094-resize_1/000470_2014-06-09_19-42-40_260595134347_rgbf000094-resize_1-target.png,1000,1.831,2.75,5895,987,feet,jsons/v1_VE1000_randls_34_rotated.json,872953,2096988,39,Woman
128,285682,DepthScenes,duration_manipulation_targetAtFixation,jsons/v1_VE1000_randls_34_rotated.json,http://54.235.29.9/FacialAge/BNav_EC2/DepthDuration/v2_depth_duration_MTurk/v2_DepthDuration_HTML.html#250,250,1366,657,1366,768,8-29-2022,14-25-2,129,depth_duration_stimuli/001132_2014-06-17_14-48-54_260595134347_rgbf000100-resize_2/001132_2014-06-17_14-48-54_260595134347_rgbf000100-resize_2-target.png,1000,3.753,6.5,5350,1001,feet,jsons/v1_VE1000_randls_34_rotated.json,872953,2096988,39,Woman
129,285682,DepthScenes,duration_manipulation_targetAtFixation,jsons/v1_VE1000_randls_34_rotated.json,http://54.235.29.9/FacialAge/BNav_EC2/DepthDuration/v2_depth_duration_MTurk/v2_DepthDuration_HTML.html#250,250,1366,657,1366,768,8-29-2022,14-25-2,130,depth_duration_stimuli/001133_2014-06-17_14-49-16_260595134347_rgbf000100-resize_0/001133_2014-06-17_14-49-16_260595134347_rgbf000100-resize_0-target.png,1000,4.2115,8.5,5066,998,feet,jsons/v1_VE1000_randls_34_rotated.json,872953,2096988,39,Woman
130,285682,DepthScenes,duration_manipulation_targetAtFixation,jsons/v1_VE1000_randls_34_rotated.json,http://54.235.29.9/FacialAge/BNav_EC2/DepthDuration/v2_depth_duration_MTurk/v2_DepthDuration_HTML.html#250,250,1366,657,1366,768,8-29-2022,14-25-2,131,depth_duration_stimuli/001450_2014-06-19_17-02-03_260595134347_rgbf000203-resize_4/001450_2014-06-19_17-02-03_260595134347_rgbf000203-resize_4-target.png,1000,4.0106666666667,8.0,3593,1000,feet,jsons/v1_VE1000_randls_34_rotated.json,872953,2096988,39,Woman
131,285682,DepthScenes,duration_manipulation_targetAtFixation,jsons/v1_VE1000_randls_34_rotated.json,http://54.235.29.9/FacialAge/BNav_EC2/DepthDuration/v2_depth_duration_MTurk/v2_DepthDuration_HTML.html#250,250,1366,657,1366,768,8-29-2022,14-25-2,132,depth_duration_stimuli/001449_2014-06-19_17-01-27_260595134347_rgbf000116-resize_2/001449_2014-06-19_17-01-27_260595134347_rgbf000116-resize_2-target.png,1000,3.452,6.0,3631,992,feet,jsons/v1_VE1000_randls_34_rotated.json,872953,2096988,39,Woman
132,285682,DepthScenes,duration_manipulation_targetAtFixation,jsons/v1_VE1000_randls_34_rotated.json,http://54.235.29.9/FacialAge/BNav_EC2/DepthDuration/v2_depth_duration_MTurk/v2_DepthDuration_HTML.html#250,250,1366,657,1366,768,8-29-2022,14-25-2,133,depth_duration_stimuli/003129_2014-05-12_10-48-10_094959634447_rgbf000100-resize_0/003129_2014-05-12_10-48-10_094959634447_rgbf000100-resize_0-target.png,1000,4.9305,7.0,3966,1000,feet,jsons/v1_VE1000_randls_34_rotated.json,872953,2096988,39,Woman
133,285682,DepthScenes,duration_manipulation_targetAtFixation,jsons/v1_VE1000_randls_34_rotated.json,http://54.235.29.9/FacialAge/BNav_EC2/DepthDuration/v2_depth_duration_MTurk/v2_DepthDuration_HTML.html#250,250,1366,657,1366,768,8-29-2022,14-25-2,134,depth_duration_stimuli/000414_2014-06-04_19-49-13_260595134347_rgbf000044-resize_0/000414_2014-06-04_19-49-13_260595134347_rgbf000044-resize_0-target.png,1000,4.329,9.5,6555,995,feet,jsons/v1_VE1000_randls_34_rotated.json,872953,2096988,39,Woman
134,285682,DepthScenes,duration_manipulation_targetAtFixation,jsons/v1_VE1000_randls_34_rotated.json,http://54.235.29.9/FacialAge/BNav_EC2/DepthDuration/v2_depth_duration_MTurk/v2_DepthDuration_HTML.html#250,250,1366,657,1366,768,8-29-2022,14-25-2,135,depth_duration_stimuli/000375_2014-06-08_11-17-29_260595134347_rgbf000133-resize_2/000375_2014-06-08_11-17-29_260595134347_rgbf000133-resize-original.jpg,1000,4.718,0.0,3811,1004,feet,jsons/v1_VE1000_randls_34_rotated.json,872953,2096988,39,Woman
135,285682,DepthScenes,duration_manipulation_targetAtFixation,jsons/v1_VE1000_randls_34_rotated.json,http://54.235.29.9/FacialAge/BNav_EC2/DepthDuration/v2_depth_duration_MTurk/v2_DepthDuration_HTML.html#250,250,1366,657,1366,768,8-29-2022,14-25-2,136,depth_duration_stimuli/003587_2014-05-23_16-48-02_094959634447_rgbf002384-resize_2/003587_2014-05-23_16-48-02_094959634447_rgbf002384-resize_2-target.png,1000,1.357,1.3,4736,985,feet,jsons/v1_VE1000_randls_34_rotated.json,872953,2096988,39,Woman
136,285682,DepthScenes,duration_manipulation_targetAtFixation,jsons/v1_VE1000_randls_34_rotated.json,http://54.235.29.9/FacialAge/BNav_EC2/DepthDuration/v2_depth_duration_MTurk/v2_DepthDuration_HTML.html#250,250,1366,657,1366,768,8-29-2022,14-25-2,137,depth_duration_stimuli/001167_2014-06-17_15-38-07_260595134347_rgbf000108-resize_0/001167_2014-06-17_15-38-07_260595134347_rgbf000108-resize_0-target.png,1000,1.8505,3.0,4314,990,feet,jsons/v1_VE1000_randls_34_rotated.json,872953,2096988,39,Woman
137,285682,DepthScenes,duration_manipulation_targetAtFixation,jsons/v1_VE1000_randls_34_rotated.json,http://54.235.29.9/FacialAge/BNav_EC2/DepthDuration/v2_depth_duration_MTurk/v2_DepthDuration_HTML.html#250,250,1366,657,1366,768,8-29-2022,14-25-2,138,depth_duration_stimuli/000709_2014-06-08_13-51-55_260595134347_rgbf000068-resize_3/000709_2014-06-08_13-51-55_260595134347_rgbf000068-resize_3-target.png,1000,1.8030000000000002,4.0,3550,1001,feet,jsons/v1_VE1000_randls_34_rotated.json,872953,2096988,39,Woman
138,285682,DepthScenes,duration_manipulation_targetAtFixation,jsons/v1_VE1000_randls_34_rotated.json,http://54.235.29.9/FacialAge/BNav_EC2/DepthDuration/v2_depth_duration_MTurk/v2_DepthDuration_HTML.html#250,250,1366,657,1366,768,8-29-2022,14-25-2,139,depth_duration_stimuli/002057_2014-06-24_21-00-13_260595134347_rgbf000120-resize_1/002057_2014-06-24_21-00-13_260595134347_rgbf000120-resize_1-target.png,1000,2.967,7.0,3206,985,feet,jsons/v1_VE1000_randls_34_rotated.json,872953,2096988,39,Woman
139,285682,DepthScenes,duration_manipulation_targetAtFixation,jsons/v1_VE1000_randls_34_rotated.json,http://54.235.29.9/FacialAge/BNav_EC2/DepthDuration/v2_depth_duration_MTurk/v2_DepthDuration_HTML.html#250,250,1366,657,1366,768,8-29-2022,14-25-2,140,depth_duration_stimuli/002657_2014-06-13_15-29-54_094959634447_rgbf000150-resize_1/002657_2014-06-13_15-29-54_094959634447_rgbf000150-resize_1-target.png,1000,4.919,8.75,5063,1001,feet,jsons/v1_VE1000_randls_34_rotated.json,872953,2096988,39,Woman
140,285682,DepthScenes,duration_manipulation_targetAtFixation,jsons/v1_VE1000_randls_34_rotated.json,http://54.235.29.9/FacialAge/BNav_EC2/DepthDuration/v2_depth_duration_MTurk/v2_DepthDuration_HTML.html#250,250,1366,657,1366,768,8-29-2022,14-25-2,141,depth_duration_stimuli/002375_2014-06-28_20-13-44_260595134347_rgbf000032-resize_1/002375_2014-06-28_20-13-44_260595134347_rgbf000032-resize_1-target.png,1000,4.0175,6.5,4970,1000,feet,jsons/v1_VE1000_randls_34_rotated.json,872953,2096988,39,Woman
141,285682,DepthScenes,duration_manipulation_targetAtFixation,jsons/v1_VE1000_randls_34_rotated.json,http://54.235.29.9/FacialAge/BNav_EC2/DepthDuration/v2_depth_duration_MTurk/v2_DepthDuration_HTML.html#250,250,1366,657,1366,768,8-29-2022,14-25-2,142,depth_duration_stimuli/002414_2014-06-28_20-24-58_260595134347_rgbf000067-resize_4/002414_2014-06-28_20-24-58_260595134347_rgbf000067-resize_4-target.png,1000,4.363,9.5,5159,1001,feet,jsons/v1_VE1000_randls_34_rotated.json,872953,2096988,39,Woman
142,285682,DepthScenes,duration_manipulation_targetAtFixation,jsons/v1_VE1000_randls_34_rotated.json,http://54.235.29.9/FacialAge/BNav_EC2/DepthDuration/v2_depth_duration_MTurk/v2_DepthDuration_HTML.html#250,250,1366,657,1366,768,8-29-2022,14-25-2,143,depth_duration_stimuli/000773_2014-06-08_22-24-54_260595134347_rgbf000093-resize_1/000773_2014-06-08_22-24-54_260595134347_rgbf000093-resize_1-target.png,1000,4.973,9.0,3375,1000,feet,jsons/v1_VE1000_randls_34_rotated.json,872953,2096988,39,Woman
143,285682,DepthScenes,duration_manipulation_targetAtFixation,jsons/v1_VE1000_randls_34_rotated.json,http://54.235.29.9/FacialAge/BNav_EC2/DepthDuration/v2_depth_duration_MTurk/v2_DepthDuration_HTML.html#250,250,1366,657,1366,768,8-29-2022,14-25-2,144,depth_duration_stimuli/001516_2014-06-20_16-25-09_260595134347_rgbf000076-resize_2/001516_2014-06-20_16-25-09_260595134347_rgbf000076-resize_2-target.png,1000,1.7445,5.0,3214,1000,feet,jsons/v1_VE1000_randls_34_rotated.json,872953,2096988,39,Woman
144,285682,DepthScenes,duration_manipulation_targetAtFixation,jsons/v1_VE1000_randls_34_rotated.json,http://54.235.29.9/FacialAge/BNav_EC2/DepthDuration/v2_depth_duration_MTurk/v2_DepthDuration_HTML.html#250,250,1366,657,1366,768,8-29-2022,14-25-2,145,depth_duration_stimuli/002118_2014-06-25_20-32-08_260595134347_rgbf000078-resize_1/002118_2014-06-25_20-32-08_260595134347_rgbf000078-resize_1-target.png,1000,2.6460000000000004,6.0,3800,990,feet,jsons/v1_VE1000_randls_34_rotated.json,872953,2096988,39,Woman
145,285682,DepthScenes,duration_manipulation_targetAtFixation,jsons/v1_VE1000_randls_34_rotated.json,http://54.235.29.9/FacialAge/BNav_EC2/DepthDuration/v2_depth_duration_MTurk/v2_DepthDuration_HTML.html#250,250,1366,657,1366,768,8-29-2022,14-25-2,146,depth_duration_stimuli/000556_2014-06-09_22-42-56_260595134347_rgbf000214-resize_1/000556_2014-06-09_22-42-56_260595134347_rgbf000214-resize_1-target.png,1000,4.8415,8.0,4160,994,feet,jsons/v1_VE1000_randls_34_rotated.json,872953,2096988,39,Woman
146,285682,DepthScenes,duration_manipulation_targetAtFixation,jsons/v1_VE1000_randls_34_rotated.json,http://54.235.29.9/FacialAge/BNav_EC2/DepthDuration/v2_depth_duration_MTurk/v2_DepthDuration_HTML.html#250,250,1366,657,1366,768,8-29-2022,14-25-2,147,depth_duration_stimuli/001158_2014-06-17_15-32-16_260595134347_rgbf000138-resize_2/001158_2014-06-17_15-32-16_260595134347_rgbf000138-resize_2-target.png,1000,4.5315,10.0,4059,987,feet,jsons/v1_VE1000_randls_34_rotated.json,872953,2096988,39,Woman
147,285682,DepthScenes,duration_manipulation_targetAtFixation,jsons/v1_VE1000_randls_34_rotated.json,http://54.235.29.9/FacialAge/BNav_EC2/DepthDuration/v2_depth_duration_MTurk/v2_DepthDuration_HTML.html#250,250,1366,657,1366,768,8-29-2022,14-25-2,148,depth_duration_stimuli/001392_2014-06-19_16-07-59_260595134347_rgbf000046-resize_1/001392_2014-06-19_16-07-59_260595134347_rgbf000046-resize_1-target.png,1000,4.135,9.0,3308,1001,feet,jsons/v1_VE1000_randls_34_rotated.json,872953,2096988,39,Woman
148,285682,DepthScenes,duration_manipulation_targetAtFixation,jsons/v1_VE1000_randls_34_rotated.json,http://54.235.29.9/FacialAge/BNav_EC2/DepthDuration/v2_depth_duration_MTurk/v2_DepthDuration_HTML.html#250,250,1366,657,1366,768,8-29-2022,14-25-2,149,depth_duration_stimuli/001570_2014-06-20_17-21-09_260595134347_rgbf000135-resize_4/001570_2014-06-20_17-21-09_260595134347_rgbf000135-resize_4-target.png,1000,4.467,9.5,5792,1002,feet,jsons/v1_VE1000_randls_34_rotated.json,872953,2096988,39,Woman
149,285682,DepthScenes,duration_manipulation_targetAtFixation,jsons/v1_VE1000_randls_34_rotated.json,http://54.235.29.9/FacialAge/BNav_EC2/DepthDuration/v2_depth_duration_MTurk/v2_DepthDuration_HTML.html#250,250,1366,657,1366,768,8-29-2022,14-25-2,150,depth_duration_stimuli/002949_2014-06-26_15-57-42_094959634447_rgbf000079-resize_1/002949_2014-06-26_15-57-42_094959634447_rgbf000079-resize_1-target.png,1000,1.8915,3.5,4400,1001,feet,jsons/v1_VE1000_randls_34_rotated.json,872953,2096988,39,Woman
150,285682,DepthScenes,duration_manipulation_targetAtFixation,jsons/v1_VE1000_randls_34_rotated.json,http://54.235.29.9/FacialAge/BNav_EC2/DepthDuration/v2_depth_duration_MTurk/v2_DepthDuration_HTML.html#250,250,1366,657,1366,768,8-29-2022,14-25-2,151,depth_duration_stimuli/000522_2014-06-08_13-35-06_260595134347_rgbf000244-resize_1/000522_2014-06-08_13-35-06_260595134347_rgbf000244-resize_1-target.png,1000,2.3715,2.3,4945,985,feet,jsons/v1_VE1000_randls_34_rotated.json,872953,2096988,39,Woman
151,285682,DepthScenes,duration_manipulation_targetAtFixation,jsons/v1_VE1000_randls_34_rotated.json,http://54.235.29.9/FacialAge/BNav_EC2/DepthDuration/v2_depth_duration_MTurk/v2_DepthDuration_HTML.html#250,250,1366,657,1366,768,8-29-2022,14-25-2,152,depth_duration_stimuli/000569_2014-06-09_22-51-47_260595134347_rgbf000141-resize_3/000569_2014-06-09_22-51-47_260595134347_rgbf000141-resize-original.jpg,1000,4.512,0.0,4894,1006,feet,jsons/v1_VE1000_randls_34_rotated.json,872953,2096988,39,Woman
152,285682,DepthScenes,duration_manipulation_targetAtFixation,jsons/v1_VE1000_randls_34_rotated.json,http://54.235.29.9/FacialAge/BNav_EC2/DepthDuration/v2_depth_duration_MTurk/v2_DepthDuration_HTML.html#250,250,1366,657,1366,768,8-29-2022,14-25-2,153,depth_duration_stimuli/003083_2014-06-15_15-21-03_094959634447_rgbf000063-resize_1/003083_2014-06-15_15-21-03_094959634447_rgbf000063-resize_1-target.png,1000,4.1405,8.0,3589,1003,feet,jsons/v1_VE1000_randls_34_rotated.json,872953,2096988,39,Woman
153,285682,DepthScenes,duration_manipulation_targetAtFixation,jsons/v1_VE1000_randls_34_rotated.json,http://54.235.29.9/FacialAge/BNav_EC2/DepthDuration/v2_depth_duration_MTurk/v2_DepthDuration_HTML.html#250,250,1366,657,1366,768,8-29-2022,14-25-2,154,depth_duration_stimuli/000486_2014-06-09_20-47-20_260595134347_rgbf000143-resize_2/000486_2014-06-09_20-47-20_260595134347_rgbf000143-resize_2-target.png,1000,4.8325,7.0,3784,1002,feet,jsons/v1_VE1000_randls_34_rotated.json,872953,2096988,39,Woman
154,285682,DepthScenes,duration_manipulation_targetAtFixation,jsons/v1_VE1000_randls_34_rotated.json,http://54.235.29.9/FacialAge/BNav_EC2/DepthDuration/v2_depth_duration_MTurk/v2_DepthDuration_HTML.html#250,250,1366,657,1366,768,8-29-2022,14-25-2,155,depth_duration_stimuli/000409_2014-06-04_19-23-33_260595134347_rgbf000067-resize_0/000409_2014-06-04_19-23-33_260595134347_rgbf000067-resize_0-target.png,1000,3.7335,5.5,4516,984,feet,jsons/v1_VE1000_randls_34_rotated.json,872953,2096988,39,Woman
155,285682,DepthScenes,duration_manipulation_targetAtFixation,jsons/v1_VE1000_randls_34_rotated.json,http://54.235.29.9/FacialAge/BNav_EC2/DepthDuration/v2_depth_duration_MTurk/v2_DepthDuration_HTML.html#250,250,1366,657,1366,768,8-29-2022,14-25-2,156,depth_duration_stimuli/002663_2014-06-13_15-50-26_094959634447_rgbf000075-resize_1/002663_2014-06-13_15-50-26_094959634447_rgbf000075-resize_1-target.png,1000,4.7495,8.0,4238,1003,feet,jsons/v1_VE1000_randls_34_rotated.json,872953,2096988,39,Woman
156,285682,DepthScenes,duration_manipulation_targetAtFixation,jsons/v1_VE1000_randls_34_rotated.json,http://54.235.29.9/FacialAge/BNav_EC2/DepthDuration/v2_depth_duration_MTurk/v2_DepthDuration_HTML.html#250,250,1366,657,1366,768,8-29-2022,14-25-2,157,depth_duration_stimuli/000691_2014-06-08_13-08-50_260595134347_rgbf000132-resize_3/000691_2014-06-08_13-08-50_260595134347_rgbf000132-resize_3-target.png,1000,4.1530000000000005,7.7,4305,1000,feet,jsons/v1_VE1000_randls_34_rotated.json,872953,2096988,39,Woman
157,285682,DepthScenes,duration_manipulation_targetAtFixation,jsons/v1_VE1000_randls_34_rotated.json,http://54.235.29.9/FacialAge/BNav_EC2/DepthDuration/v2_depth_duration_MTurk/v2_DepthDuration_HTML.html#250,250,1366,657,1366,768,8-29-2022,14-25-2,158,depth_duration_stimuli/002213_2014-06-28_18-37-58_260595134347_rgbf000055-resize_1/002213_2014-06-28_18-37-58_260595134347_rgbf000055-resize_1-target.png,1000,3.62,9.0,3216,1002,feet,jsons/v1_VE1000_randls_34_rotated.json,872953,2096988,39,Woman
158,285682,DepthScenes,duration_manipulation_targetAtFixation,jsons/v1_VE1000_randls_34_rotated.json,http://54.235.29.9/FacialAge/BNav_EC2/DepthDuration/v2_depth_duration_MTurk/v2_DepthDuration_HTML.html#250,250,1366,657,1366,768,8-29-2022,14-25-2,159,depth_duration_stimuli/000191_2014-05-12_17-07-38_260595134347_rgbf000199-resize_0/000191_2014-05-12_17-07-38_260595134347_rgbf000199-resize_0-target.png,1000,3.7995,10.0,4074,1000,feet,jsons/v1_VE1000_randls_34_rotated.json,872953,2096988,39,Woman
159,285682,DepthScenes,duration_manipulation_targetAtFixation,jsons/v1_VE1000_randls_34_rotated.json,http://54.235.29.9/FacialAge/BNav_EC2/DepthDuration/v2_depth_duration_MTurk/v2_DepthDuration_HTML.html#250,250,1366,657,1366,768,8-29-2022,14-25-2,160,depth_duration_stimuli/000493_2014-06-09_21-01-18_260595134347_rgbf000196-resize_3/000493_2014-06-09_21-01-18_260595134347_rgbf000196-resize_3-target.png,1000,3.44,9.3,5970,998,feet,jsons/v1_VE1000_randls_34_rotated.json,872953,2096988,39,Woman
160,285682,DepthScenes,duration_manipulation_targetAtFixation,jsons/v1_VE1000_randls_34_rotated.json,http://54.235.29.9/FacialAge/BNav_EC2/DepthDuration/v2_depth_duration_MTurk/v2_DepthDuration_HTML.html#250,250,1366,657,1366,768,8-29-2022,14-25-2,161,depth_duration_stimuli/001235_2014-06-17_16-37-36_260595134347_rgbf000084-resize_4/001235_2014-06-17_16-37-36_260595134347_rgbf000084-resize_4-target.png,1000,3.6605,8.5,4582,1001,feet,jsons/v1_VE1000_randls_34_rotated.json,872953,2096988,39,Woman
161,285682,DepthScenes,duration_manipulation_targetAtFixation,jsons/v1_VE1000_randls_34_rotated.json,http://54.235.29.9/FacialAge/BNav_EC2/DepthDuration/v2_depth_duration_MTurk/v2_DepthDuration_HTML.html#250,250,1366,657,1366,768,8-29-2022,14-25-2,162,depth_duration_stimuli/000788_2014-06-08_22-34-36_260595134347_rgbf000131-resize_1/000788_2014-06-08_22-34-36_260595134347_rgbf000131-resize_1-target.png,1000,3.359,7.5,4816,1000,feet,jsons/v1_VE1000_randls_34_rotated.json,872953,2096988,39,Woman
162,285682,DepthScenes,duration_manipulation_targetAtFixation,jsons/v1_VE1000_randls_34_rotated.json,http://54.235.29.9/FacialAge/BNav_EC2/DepthDuration/v2_depth_duration_MTurk/v2_DepthDuration_HTML.html#250,250,1366,657,1366,768,8-29-2022,14-25-2,163,depth_duration_stimuli/000734_2014-06-08_17-39-11_260595134347_rgbf000128-resize_2/000734_2014-06-08_17-39-11_260595134347_rgbf000128-resize_2-target.png,1000,4.098,8.0,3701,999,feet,jsons/v1_VE1000_randls_34_rotated.json,872953,2096988,39,Woman
163,285682,DepthScenes,duration_manipulation_targetAtFixation,jsons/v1_VE1000_randls_34_rotated.json,http://54.235.29.9/FacialAge/BNav_EC2/DepthDuration/v2_depth_duration_MTurk/v2_DepthDuration_HTML.html#250,250,1366,657,1366,768,8-29-2022,14-25-2,164,depth_duration_stimuli/000739_2014-06-08_18-45-58_260595134347_rgbf000068-resize_1/000739_2014-06-08_18-45-58_260595134347_rgbf000068-resize_1-target.png,1000,3.534,8.2,5799,1001,feet,jsons/v1_VE1000_randls_34_rotated.json,872953,2096988,39,Woman
