,subjID,experimentName,versionName,sequenceName,url,selected_row,windowWidth,windowHeight,screenWidth,screenHeight,startDate,startTime,trial,stimulus,duration,actual_depth,depth_estimate,trial_RT,log_sceneDuration,unitSelection,seq_filepath,experimentTime,totalTime,age,gender
0,286959,DepthScenes,duration_manipulation_targetAtFixation,jsons/VE125_randls_57.json,http://54.235.29.9/FacialAge/BNav_EC2/DepthDuration/v2_depth_duration_MTurk/v2_DepthDuration_HTML.html#454,454,1517,772,1366,768,9-3-2022,9-9-43,1,depth_duration_stimuli/002118_2014-06-25_20-32-08_260595134347_rgbf000078-resize_1/002118_2014-06-25_20-32-08_260595134347_rgbf000078-resize_1-target.png,125,2.6460000000000004,3,4331,112,feet,jsons/VE125_randls_57.json,750428,992000,43,Woman
1,286959,DepthScenes,duration_manipulation_targetAtFixation,jsons/VE125_randls_57.json,http://54.235.29.9/FacialAge/BNav_EC2/DepthDuration/v2_depth_duration_MTurk/v2_DepthDuration_HTML.html#454,454,1517,772,1366,768,9-3-2022,9-9-43,2,depth_duration_stimuli/001516_2014-06-20_16-25-09_260595134347_rgbf000076-resize_2/001516_2014-06-20_16-25-09_260595134347_rgbf000076-resize_2-target.png,125,1.7445,3,6597,125,feet,jsons/VE125_randls_57.json,750428,992000,43,Woman
2,286959,DepthScenes,duration_manipulation_targetAtFixation,jsons/VE125_randls_57.json,http://54.235.29.9/FacialAge/BNav_EC2/DepthDuration/v2_depth_duration_MTurk/v2_DepthDuration_HTML.html#454,454,1517,772,1366,768,9-3-2022,9-9-43,3,depth_duration_stimuli/001150_2014-06-17_15-27-34_260595134347_rgbf000108-resize_2/001150_2014-06-17_15-27-34_260595134347_rgbf000108-resize_2-target.png,125,4.0325,6,5141,107,feet,jsons/VE125_randls_57.json,750428,992000,43,Woman
3,286959,DepthScenes,duration_manipulation_targetAtFixation,jsons/VE125_randls_57.json,http://54.235.29.9/FacialAge/BNav_EC2/DepthDuration/v2_depth_duration_MTurk/v2_DepthDuration_HTML.html#454,454,1517,772,1366,768,9-3-2022,9-9-43,4,depth_duration_stimuli/000665_2014-06-09_20-42-35_260595134347_rgbf000110-resize_1/000665_2014-06-09_20-42-35_260595134347_rgbf000110-resize_1-target.png,125,3.057,7,9342,128,feet,jsons/VE125_randls_57.json,750428,992000,43,Woman
4,286959,DepthScenes,duration_manipulation_targetAtFixation,jsons/VE125_randls_57.json,http://54.235.29.9/FacialAge/BNav_EC2/DepthDuration/v2_depth_duration_MTurk/v2_DepthDuration_HTML.html#454,454,1517,772,1366,768,9-3-2022,9-9-43,5,depth_duration_stimuli/000447_2014-06-08_16-15-46_260595134347_rgbf000130-resize_1/000447_2014-06-08_16-15-46_260595134347_rgbf000130-resize_1-target.png,125,4.479,15,6579,113,feet,jsons/VE125_randls_57.json,750428,992000,43,Woman
5,286959,DepthScenes,duration_manipulation_targetAtFixation,jsons/VE125_randls_57.json,http://54.235.29.9/FacialAge/BNav_EC2/DepthDuration/v2_depth_duration_MTurk/v2_DepthDuration_HTML.html#454,454,1517,772,1366,768,9-3-2022,9-9-43,6,depth_duration_stimuli/001447_2014-06-19_17-00-32_260595134347_rgbf000082-resize_5/001447_2014-06-19_17-00-32_260595134347_rgbf000082-resize_5-target.png,125,4.13775,5,5243,122,feet,jsons/VE125_randls_57.json,750428,992000,43,Woman
6,286959,DepthScenes,duration_manipulation_targetAtFixation,jsons/VE125_randls_57.json,http://54.235.29.9/FacialAge/BNav_EC2/DepthDuration/v2_depth_duration_MTurk/v2_DepthDuration_HTML.html#454,454,1517,772,1366,768,9-3-2022,9-9-43,7,depth_duration_stimuli/002763_2014-06-22_19-13-10_094959634447_rgbf000075-resize_4/002763_2014-06-22_19-13-10_094959634447_rgbf000075-resize_4-target.png,125,1.68375,3,6207,125,feet,jsons/VE125_randls_57.json,750428,992000,43,Woman
7,286959,DepthScenes,duration_manipulation_targetAtFixation,jsons/VE125_randls_57.json,http://54.235.29.9/FacialAge/BNav_EC2/DepthDuration/v2_depth_duration_MTurk/v2_DepthDuration_HTML.html#454,454,1517,772,1366,768,9-3-2022,9-9-43,8,depth_duration_stimuli/002209_2014-06-28_18-36-10_260595134347_rgbf000051-resize_1/002209_2014-06-28_18-36-10_260595134347_rgbf000051-resize_1-target.png,125,2.057,4,3451,115,feet,jsons/VE125_randls_57.json,750428,992000,43,Woman
8,286959,DepthScenes,duration_manipulation_targetAtFixation,jsons/VE125_randls_57.json,http://54.235.29.9/FacialAge/BNav_EC2/DepthDuration/v2_depth_duration_MTurk/v2_DepthDuration_HTML.html#454,454,1517,772,1366,768,9-3-2022,9-9-43,9,depth_duration_stimuli/002988_2014-06-15_12-24-20_094959634447_rgbf000150-resize_1/002988_2014-06-15_12-24-20_094959634447_rgbf000150-resize_1-target.png,125,4.7669999999999995,8,4121,118,feet,jsons/VE125_randls_57.json,750428,992000,43,Woman
9,286959,DepthScenes,duration_manipulation_targetAtFixation,jsons/VE125_randls_57.json,http://54.235.29.9/FacialAge/BNav_EC2/DepthDuration/v2_depth_duration_MTurk/v2_DepthDuration_HTML.html#454,454,1517,772,1366,768,9-3-2022,9-9-43,10,depth_duration_stimuli/001052_2014-06-08_18-24-54_260595134347_rgbf000130-resize_1/001052_2014-06-08_18-24-54_260595134347_rgbf000130-resize_1-target.png,125,4.1045,14,8547,114,feet,jsons/VE125_randls_57.json,750428,992000,43,Woman
10,286959,DepthScenes,duration_manipulation_targetAtFixation,jsons/VE125_randls_57.json,http://54.235.29.9/FacialAge/BNav_EC2/DepthDuration/v2_depth_duration_MTurk/v2_DepthDuration_HTML.html#454,454,1517,772,1366,768,9-3-2022,9-9-43,11,depth_duration_stimuli/003292_2014-05-14_21-53-49_094959634447_rgbf000100-resize_2/003292_2014-05-14_21-53-49_094959634447_rgbf000100-resize_2-target.png,125,3.4815,6,3886,120,feet,jsons/VE125_randls_57.json,750428,992000,43,Woman
11,286959,DepthScenes,duration_manipulation_targetAtFixation,jsons/VE125_randls_57.json,http://54.235.29.9/FacialAge/BNav_EC2/DepthDuration/v2_depth_duration_MTurk/v2_DepthDuration_HTML.html#454,454,1517,772,1366,768,9-3-2022,9-9-43,12,depth_duration_stimuli/002639_2014-06-24_14-51-37_094959634447_rgbf000074-resize_4/002639_2014-06-24_14-51-37_094959634447_rgbf000074-resize_4-target.png,125,4.0375,9,3978,124,feet,jsons/VE125_randls_57.json,750428,992000,43,Woman
12,286959,DepthScenes,duration_manipulation_targetAtFixation,jsons/VE125_randls_57.json,http://54.235.29.9/FacialAge/BNav_EC2/DepthDuration/v2_depth_duration_MTurk/v2_DepthDuration_HTML.html#454,454,1517,772,1366,768,9-3-2022,9-9-43,13,depth_duration_stimuli/000569_2014-06-09_22-51-47_260595134347_rgbf000141-resize_3/000569_2014-06-09_22-51-47_260595134347_rgbf000141-resize-original.jpg,125,4.512,0,4001,114,feet,jsons/VE125_randls_57.json,750428,992000,43,Woman
13,286959,DepthScenes,duration_manipulation_targetAtFixation,jsons/VE125_randls_57.json,http://54.235.29.9/FacialAge/BNav_EC2/DepthDuration/v2_depth_duration_MTurk/v2_DepthDuration_HTML.html#454,454,1517,772,1366,768,9-3-2022,9-9-43,14,depth_duration_stimuli/001570_2014-06-20_17-21-09_260595134347_rgbf000135-resize_4/001570_2014-06-20_17-21-09_260595134347_rgbf000135-resize_4-target.png,125,4.467,7,5669,110,feet,jsons/VE125_randls_57.json,750428,992000,43,Woman
14,286959,DepthScenes,duration_manipulation_targetAtFixation,jsons/VE125_randls_57.json,http://54.235.29.9/FacialAge/BNav_EC2/DepthDuration/v2_depth_duration_MTurk/v2_DepthDuration_HTML.html#454,454,1517,772,1366,768,9-3-2022,9-9-43,15,depth_duration_stimuli/001392_2014-06-19_16-07-59_260595134347_rgbf000046-resize_1/001392_2014-06-19_16-07-59_260595134347_rgbf000046-resize_1-target.png,125,4.135,15,4768,110,feet,jsons/VE125_randls_57.json,750428,992000,43,Woman
15,286959,DepthScenes,duration_manipulation_targetAtFixation,jsons/VE125_randls_57.json,http://54.235.29.9/FacialAge/BNav_EC2/DepthDuration/v2_depth_duration_MTurk/v2_DepthDuration_HTML.html#454,454,1517,772,1366,768,9-3-2022,9-9-43,16,depth_duration_stimuli/000506_2014-06-08_23-21-00_260595134347_rgbf000070-resize_7/000506_2014-06-08_23-21-00_260595134347_rgbf000070-resize_7-target.png,125,4.0585,8,4453,114,feet,jsons/VE125_randls_57.json,750428,992000,43,Woman
16,286959,DepthScenes,duration_manipulation_targetAtFixation,jsons/VE125_randls_57.json,http://54.235.29.9/FacialAge/BNav_EC2/DepthDuration/v2_depth_duration_MTurk/v2_DepthDuration_HTML.html#454,454,1517,772,1366,768,9-3-2022,9-9-43,17,depth_duration_stimuli/003079_2014-06-15_15-18-20_094959634447_rgbf000152-resize_8/003079_2014-06-15_15-18-20_094959634447_rgbf000152-resize_8-target.png,125,2.8775,6,4419,123,feet,jsons/VE125_randls_57.json,750428,992000,43,Woman
17,286959,DepthScenes,duration_manipulation_targetAtFixation,jsons/VE125_randls_57.json,http://54.235.29.9/FacialAge/BNav_EC2/DepthDuration/v2_depth_duration_MTurk/v2_DepthDuration_HTML.html#454,454,1517,772,1366,768,9-3-2022,9-9-43,18,depth_duration_stimuli/002784_2014-06-22_19-26-30_094959634447_rgbf000083-resize_3/002784_2014-06-22_19-26-30_094959634447_rgbf000083-resize_3-target.png,125,1.8046666666667,3,5151,137,feet,jsons/VE125_randls_57.json,750428,992000,43,Woman
18,286959,DepthScenes,duration_manipulation_targetAtFixation,jsons/VE125_randls_57.json,http://54.235.29.9/FacialAge/BNav_EC2/DepthDuration/v2_depth_duration_MTurk/v2_DepthDuration_HTML.html#454,454,1517,772,1366,768,9-3-2022,9-9-43,19,depth_duration_stimuli/001100_2014-06-15_17-46-26_260595134347_rgbf000225-resize_2/001100_2014-06-15_17-46-26_260595134347_rgbf000225-resize_2-target.png,125,2.24,2,3655,110,feet,jsons/VE125_randls_57.json,750428,992000,43,Woman
19,286959,DepthScenes,duration_manipulation_targetAtFixation,jsons/VE125_randls_57.json,http://54.235.29.9/FacialAge/BNav_EC2/DepthDuration/v2_depth_duration_MTurk/v2_DepthDuration_HTML.html#454,454,1517,772,1366,768,9-3-2022,9-9-43,20,depth_duration_stimuli/000906_2014-06-08_13-35-43_260595134347_rgbf000155-resize_1/000906_2014-06-08_13-35-43_260595134347_rgbf000155-resize_1-target.png,125,2.8489999999999998,8,5951,118,feet,jsons/VE125_randls_57.json,750428,992000,43,Woman
20,286959,DepthScenes,duration_manipulation_targetAtFixation,jsons/VE125_randls_57.json,http://54.235.29.9/FacialAge/BNav_EC2/DepthDuration/v2_depth_duration_MTurk/v2_DepthDuration_HTML.html#454,454,1517,772,1366,768,9-3-2022,9-9-43,21,depth_duration_stimuli/002805_2014-06-22_19-54-03_094959634447_rgbf000079-resize_1/002805_2014-06-22_19-54-03_094959634447_rgbf000079-resize_1-target.png,125,3.1439999999999997,6,6076,124,feet,jsons/VE125_randls_57.json,750428,992000,43,Woman
21,286959,DepthScenes,duration_manipulation_targetAtFixation,jsons/VE125_randls_57.json,http://54.235.29.9/FacialAge/BNav_EC2/DepthDuration/v2_depth_duration_MTurk/v2_DepthDuration_HTML.html#454,454,1517,772,1366,768,9-3-2022,9-9-43,22,depth_duration_stimuli/001806_2014-06-26_20-50-20_260595134347_rgbf000091-resize_1/001806_2014-06-26_20-50-20_260595134347_rgbf000091-resize_1-target.png,125,2.7305,3,4147,117,feet,jsons/VE125_randls_57.json,750428,992000,43,Woman
22,286959,DepthScenes,duration_manipulation_targetAtFixation,jsons/VE125_randls_57.json,http://54.235.29.9/FacialAge/BNav_EC2/DepthDuration/v2_depth_duration_MTurk/v2_DepthDuration_HTML.html#454,454,1517,772,1366,768,9-3-2022,9-9-43,23,depth_duration_stimuli/001617_2014-06-20_11-35-32_260595134347_rgbf000066-resize_1/001617_2014-06-20_11-35-32_260595134347_rgbf000066-resize_1-target.png,125,3.7910000000000004,10,6085,127,feet,jsons/VE125_randls_57.json,750428,992000,43,Woman
23,286959,DepthScenes,duration_manipulation_targetAtFixation,jsons/VE125_randls_57.json,http://54.235.29.9/FacialAge/BNav_EC2/DepthDuration/v2_depth_duration_MTurk/v2_DepthDuration_HTML.html#454,454,1517,772,1366,768,9-3-2022,9-9-43,24,depth_duration_stimuli/000009_2014-05-26_14-32-05_260595134347_rgbf000034-resize_3/000009_2014-05-26_14-32-05_260595134347_rgbf000034-resize_3-target.png,125,3.8715,9,3781,107,feet,jsons/VE125_randls_57.json,750428,992000,43,Woman
24,286959,DepthScenes,duration_manipulation_targetAtFixation,jsons/VE125_randls_57.json,http://54.235.29.9/FacialAge/BNav_EC2/DepthDuration/v2_depth_duration_MTurk/v2_DepthDuration_HTML.html#454,454,1517,772,1366,768,9-3-2022,9-9-43,25,depth_duration_stimuli/001828_2014-06-26_21-40-03_260595134347_rgbf000024-resize_0/001828_2014-06-26_21-40-03_260595134347_rgbf000024-resize_0-target.png,125,4.8260000000000005,8,5110,124,feet,jsons/VE125_randls_57.json,750428,992000,43,Woman
25,286959,DepthScenes,duration_manipulation_targetAtFixation,jsons/VE125_randls_57.json,http://54.235.29.9/FacialAge/BNav_EC2/DepthDuration/v2_depth_duration_MTurk/v2_DepthDuration_HTML.html#454,454,1517,772,1366,768,9-3-2022,9-9-43,26,depth_duration_stimuli/002272_2014-06-28_18-53-56_260595134347_rgbf000067-resize_2/002272_2014-06-28_18-53-56_260595134347_rgbf000067-resize_2-target.png,125,1.138,2,3529,124,feet,jsons/VE125_randls_57.json,750428,992000,43,Woman
26,286959,DepthScenes,duration_manipulation_targetAtFixation,jsons/VE125_randls_57.json,http://54.235.29.9/FacialAge/BNav_EC2/DepthDuration/v2_depth_duration_MTurk/v2_DepthDuration_HTML.html#454,454,1517,772,1366,768,9-3-2022,9-9-43,27,depth_duration_stimuli/001571_2014-06-20_17-21-32_260595134347_rgbf000089-resize_1/001571_2014-06-20_17-21-32_260595134347_rgbf000089-resize_1-target.png,125,1.86,4,3277,116,feet,jsons/VE125_randls_57.json,750428,992000,43,Woman
27,286959,DepthScenes,duration_manipulation_targetAtFixation,jsons/VE125_randls_57.json,http://54.235.29.9/FacialAge/BNav_EC2/DepthDuration/v2_depth_duration_MTurk/v2_DepthDuration_HTML.html#454,454,1517,772,1366,768,9-3-2022,9-9-43,28,depth_duration_stimuli/000773_2014-06-08_22-24-54_260595134347_rgbf000093-resize_1/000773_2014-06-08_22-24-54_260595134347_rgbf000093-resize_1-target.png,125,4.973,7,3718,107,feet,jsons/VE125_randls_57.json,750428,992000,43,Woman
28,286959,DepthScenes,duration_manipulation_targetAtFixation,jsons/VE125_randls_57.json,http://54.235.29.9/FacialAge/BNav_EC2/DepthDuration/v2_depth_duration_MTurk/v2_DepthDuration_HTML.html#454,454,1517,772,1366,768,9-3-2022,9-9-43,29,depth_duration_stimuli/002414_2014-06-28_20-24-58_260595134347_rgbf000067-resize_4/002414_2014-06-28_20-24-58_260595134347_rgbf000067-resize_4-target.png,125,4.363,6,3159,122,feet,jsons/VE125_randls_57.json,750428,992000,43,Woman
29,286959,DepthScenes,duration_manipulation_targetAtFixation,jsons/VE125_randls_57.json,http://54.235.29.9/FacialAge/BNav_EC2/DepthDuration/v2_depth_duration_MTurk/v2_DepthDuration_HTML.html#454,454,1517,772,1366,768,9-3-2022,9-9-43,30,depth_duration_stimuli/000375_2014-06-08_11-17-29_260595134347_rgbf000133-resize_2/000375_2014-06-08_11-17-29_260595134347_rgbf000133-resize-original.jpg,125,4.718,0,3127,123,feet,jsons/VE125_randls_57.json,750428,992000,43,Woman
30,286959,DepthScenes,duration_manipulation_targetAtFixation,jsons/VE125_randls_57.json,http://54.235.29.9/FacialAge/BNav_EC2/DepthDuration/v2_depth_duration_MTurk/v2_DepthDuration_HTML.html#454,454,1517,772,1366,768,9-3-2022,9-9-43,31,depth_duration_stimuli/001158_2014-06-17_15-32-16_260595134347_rgbf000138-resize_2/001158_2014-06-17_15-32-16_260595134347_rgbf000138-resize_2-target.png,125,4.5315,8,3703,124,feet,jsons/VE125_randls_57.json,750428,992000,43,Woman
31,286959,DepthScenes,duration_manipulation_targetAtFixation,jsons/VE125_randls_57.json,http://54.235.29.9/FacialAge/BNav_EC2/DepthDuration/v2_depth_duration_MTurk/v2_DepthDuration_HTML.html#454,454,1517,772,1366,768,9-3-2022,9-9-43,32,depth_duration_stimuli/000556_2014-06-09_22-42-56_260595134347_rgbf000214-resize_1/000556_2014-06-09_22-42-56_260595134347_rgbf000214-resize_1-target.png,125,4.8415,7,4401,112,feet,jsons/VE125_randls_57.json,750428,992000,43,Woman
32,286959,DepthScenes,duration_manipulation_targetAtFixation,jsons/VE125_randls_57.json,http://54.235.29.9/FacialAge/BNav_EC2/DepthDuration/v2_depth_duration_MTurk/v2_DepthDuration_HTML.html#454,454,1517,772,1366,768,9-3-2022,9-9-43,33,depth_duration_stimuli/002375_2014-06-28_20-13-44_260595134347_rgbf000032-resize_1/002375_2014-06-28_20-13-44_260595134347_rgbf000032-resize_1-target.png,125,4.0175,4,3432,138,feet,jsons/VE125_randls_57.json,750428,992000,43,Woman
33,286959,DepthScenes,duration_manipulation_targetAtFixation,jsons/VE125_randls_57.json,http://54.235.29.9/FacialAge/BNav_EC2/DepthDuration/v2_depth_duration_MTurk/v2_DepthDuration_HTML.html#454,454,1517,772,1366,768,9-3-2022,9-9-43,34,depth_duration_stimuli/002657_2014-06-13_15-29-54_094959634447_rgbf000150-resize_1/002657_2014-06-13_15-29-54_094959634447_rgbf000150-resize_1-target.png,125,4.919,6,3124,109,feet,jsons/VE125_randls_57.json,750428,992000,43,Woman
34,286959,DepthScenes,duration_manipulation_targetAtFixation,jsons/VE125_randls_57.json,http://54.235.29.9/FacialAge/BNav_EC2/DepthDuration/v2_depth_duration_MTurk/v2_DepthDuration_HTML.html#454,454,1517,772,1366,768,9-3-2022,9-9-43,35,depth_duration_stimuli/000470_2014-06-09_19-42-40_260595134347_rgbf000094-resize_1/000470_2014-06-09_19-42-40_260595134347_rgbf000094-resize_1-target.png,125,1.831,3,3865,117,feet,jsons/VE125_randls_57.json,750428,992000,43,Woman
35,286959,DepthScenes,duration_manipulation_targetAtFixation,jsons/VE125_randls_57.json,http://54.235.29.9/FacialAge/BNav_EC2/DepthDuration/v2_depth_duration_MTurk/v2_DepthDuration_HTML.html#454,454,1517,772,1366,768,9-3-2022,9-9-43,36,depth_duration_stimuli/000109_2014-05-14_23-41-52_260595134347_rgbf000035-resize_9/000109_2014-05-14_23-41-52_260595134347_rgbf000035-resize_9-target.png,125,1.3545,2,3339,124,feet,jsons/VE125_randls_57.json,750428,992000,43,Woman
36,286959,DepthScenes,duration_manipulation_targetAtFixation,jsons/VE125_randls_57.json,http://54.235.29.9/FacialAge/BNav_EC2/DepthDuration/v2_depth_duration_MTurk/v2_DepthDuration_HTML.html#454,454,1517,772,1366,768,9-3-2022,9-9-43,37,depth_duration_stimuli/002663_2014-06-13_15-50-26_094959634447_rgbf000075-resize_1/002663_2014-06-13_15-50-26_094959634447_rgbf000075-resize_1-target.png,125,4.7495,8,8509,124,feet,jsons/VE125_randls_57.json,750428,992000,43,Woman
37,286959,DepthScenes,duration_manipulation_targetAtFixation,jsons/VE125_randls_57.json,http://54.235.29.9/FacialAge/BNav_EC2/DepthDuration/v2_depth_duration_MTurk/v2_DepthDuration_HTML.html#454,454,1517,772,1366,768,9-3-2022,9-9-43,38,depth_duration_stimuli/000409_2014-06-04_19-23-33_260595134347_rgbf000067-resize_0/000409_2014-06-04_19-23-33_260595134347_rgbf000067-resize_0-target.png,125,3.7335,6,4083,125,feet,jsons/VE125_randls_57.json,750428,992000,43,Woman
38,286959,DepthScenes,duration_manipulation_targetAtFixation,jsons/VE125_randls_57.json,http://54.235.29.9/FacialAge/BNav_EC2/DepthDuration/v2_depth_duration_MTurk/v2_DepthDuration_HTML.html#454,454,1517,772,1366,768,9-3-2022,9-9-43,39,depth_duration_stimuli/002630_2014-06-24_14-47-50_094959634447_rgbf000055-resize_1/002630_2014-06-24_14-47-50_094959634447_rgbf000055-resize_1-target.png,125,3.0095,10,3692,112,feet,jsons/VE125_randls_57.json,750428,992000,43,Woman
39,286959,DepthScenes,duration_manipulation_targetAtFixation,jsons/VE125_randls_57.json,http://54.235.29.9/FacialAge/BNav_EC2/DepthDuration/v2_depth_duration_MTurk/v2_DepthDuration_HTML.html#454,454,1517,772,1366,768,9-3-2022,9-9-43,40,depth_duration_stimuli/002758_2014-06-22_19-11-20_094959634447_rgbf000128-resize_1/002758_2014-06-22_19-11-20_094959634447_rgbf000128-resize_1-target.png,125,2.555,5,3163,121,feet,jsons/VE125_randls_57.json,750428,992000,43,Woman
40,286959,DepthScenes,duration_manipulation_targetAtFixation,jsons/VE125_randls_57.json,http://54.235.29.9/FacialAge/BNav_EC2/DepthDuration/v2_depth_duration_MTurk/v2_DepthDuration_HTML.html#454,454,1517,772,1366,768,9-3-2022,9-9-43,41,depth_duration_stimuli/000436_2014-06-09_22-25-11_260595134347_rgbf000137-resize_1/000436_2014-06-09_22-25-11_260595134347_rgbf000137-resize_1-target.png,125,4.0705,12,3570,109,feet,jsons/VE125_randls_57.json,750428,992000,43,Woman
41,286959,DepthScenes,duration_manipulation_targetAtFixation,jsons/VE125_randls_57.json,http://54.235.29.9/FacialAge/BNav_EC2/DepthDuration/v2_depth_duration_MTurk/v2_DepthDuration_HTML.html#454,454,1517,772,1366,768,9-3-2022,9-9-43,42,depth_duration_stimuli/002444_2014-06-28_20-32-08_260595134347_rgbf000027-resize_0/002444_2014-06-28_20-32-08_260595134347_rgbf000027-resize_0-target.png,125,4.388999999999999,15,3915,124,feet,jsons/VE125_randls_57.json,750428,992000,43,Woman
42,286959,DepthScenes,duration_manipulation_targetAtFixation,jsons/VE125_randls_57.json,http://54.235.29.9/FacialAge/BNav_EC2/DepthDuration/v2_depth_duration_MTurk/v2_DepthDuration_HTML.html#454,454,1517,772,1366,768,9-3-2022,9-9-43,43,depth_duration_stimuli/002039_2014-06-24_20-22-38_260595134347_rgbf000084-resize_1/002039_2014-06-24_20-22-38_260595134347_rgbf000084-resize_1-target.png,125,4.408,8,3249,108,feet,jsons/VE125_randls_57.json,750428,992000,43,Woman
43,286959,DepthScenes,duration_manipulation_targetAtFixation,jsons/VE125_randls_57.json,http://54.235.29.9/FacialAge/BNav_EC2/DepthDuration/v2_depth_duration_MTurk/v2_DepthDuration_HTML.html#454,454,1517,772,1366,768,9-3-2022,9-9-43,44,depth_duration_stimuli/002103_2014-06-25_20-00-40_260595134347_rgbf000049-resize_0/002103_2014-06-25_20-00-40_260595134347_rgbf000049-resize_0-target.png,125,4.105,9,4371,122,feet,jsons/VE125_randls_57.json,750428,992000,43,Woman
44,286959,DepthScenes,duration_manipulation_targetAtFixation,jsons/VE125_randls_57.json,http://54.235.29.9/FacialAge/BNav_EC2/DepthDuration/v2_depth_duration_MTurk/v2_DepthDuration_HTML.html#454,454,1517,772,1366,768,9-3-2022,9-9-43,45,depth_duration_stimuli/000787_2014-06-08_22-33-53_260595134347_rgbf000175-resize_1/000787_2014-06-08_22-33-53_260595134347_rgbf000175-resize-original.jpg,125,4.784,0,3153,123,feet,jsons/VE125_randls_57.json,750428,992000,43,Woman
45,286959,DepthScenes,duration_manipulation_targetAtFixation,jsons/VE125_randls_57.json,http://54.235.29.9/FacialAge/BNav_EC2/DepthDuration/v2_depth_duration_MTurk/v2_DepthDuration_HTML.html#454,454,1517,772,1366,768,9-3-2022,9-9-43,46,depth_duration_stimuli/000739_2014-06-08_18-45-58_260595134347_rgbf000068-resize_1/000739_2014-06-08_18-45-58_260595134347_rgbf000068-resize_1-target.png,125,3.534,6,3563,125,feet,jsons/VE125_randls_57.json,750428,992000,43,Woman
46,286959,DepthScenes,duration_manipulation_targetAtFixation,jsons/VE125_randls_57.json,http://54.235.29.9/FacialAge/BNav_EC2/DepthDuration/v2_depth_duration_MTurk/v2_DepthDuration_HTML.html#454,454,1517,772,1366,768,9-3-2022,9-9-43,47,depth_duration_stimuli/000734_2014-06-08_17-39-11_260595134347_rgbf000128-resize_2/000734_2014-06-08_17-39-11_260595134347_rgbf000128-resize_2-target.png,125,4.098,10,4762,123,feet,jsons/VE125_randls_57.json,750428,992000,43,Woman
47,286959,DepthScenes,duration_manipulation_targetAtFixation,jsons/VE125_randls_57.json,http://54.235.29.9/FacialAge/BNav_EC2/DepthDuration/v2_depth_duration_MTurk/v2_DepthDuration_HTML.html#454,454,1517,772,1366,768,9-3-2022,9-9-43,48,depth_duration_stimuli/000878_2014-06-08_22-52-45_260595134347_rgbf000045-resize_2/000878_2014-06-08_22-52-45_260595134347_rgbf000045-resize_2-target.png,125,2.092,8,3230,138,feet,jsons/VE125_randls_57.json,750428,992000,43,Woman
48,286959,DepthScenes,duration_manipulation_targetAtFixation,jsons/VE125_randls_57.json,http://54.235.29.9/FacialAge/BNav_EC2/DepthDuration/v2_depth_duration_MTurk/v2_DepthDuration_HTML.html#454,454,1517,772,1366,768,9-3-2022,9-9-43,49,depth_duration_stimuli/002953_2014-06-08_17-32-18_094959634447_rgbf000059-resize_5/002953_2014-06-08_17-32-18_094959634447_rgbf000059-resize_5-target.png,125,1.551,2,4249,111,feet,jsons/VE125_randls_57.json,750428,992000,43,Woman
49,286959,DepthScenes,duration_manipulation_targetAtFixation,jsons/VE125_randls_57.json,http://54.235.29.9/FacialAge/BNav_EC2/DepthDuration/v2_depth_duration_MTurk/v2_DepthDuration_HTML.html#454,454,1517,772,1366,768,9-3-2022,9-9-43,50,depth_duration_stimuli/001055_2014-06-08_18-45-35_260595134347_rgbf000111-resize_4/001055_2014-06-08_18-45-35_260595134347_rgbf000111-resize_4-target.png,125,2.4290000000000003,7,3722,121,feet,jsons/VE125_randls_57.json,750428,992000,43,Woman
50,286959,DepthScenes,duration_manipulation_targetAtFixation,jsons/VE125_randls_57.json,http://54.235.29.9/FacialAge/BNav_EC2/DepthDuration/v2_depth_duration_MTurk/v2_DepthDuration_HTML.html#454,454,1517,772,1366,768,9-3-2022,9-9-43,51,depth_duration_stimuli/000549_2014-06-08_22-10-24_260595134347_rgbf000247-resize_3/000549_2014-06-08_22-10-24_260595134347_rgbf000247-resize_3-target.png,125,1.841,2,3458,126,feet,jsons/VE125_randls_57.json,750428,992000,43,Woman
51,286959,DepthScenes,duration_manipulation_targetAtFixation,jsons/VE125_randls_57.json,http://54.235.29.9/FacialAge/BNav_EC2/DepthDuration/v2_depth_duration_MTurk/v2_DepthDuration_HTML.html#454,454,1517,772,1366,768,9-3-2022,9-9-43,52,depth_duration_stimuli/002279_2014-06-28_18-55-32_260595134347_rgbf000040-resize_5/002279_2014-06-28_18-55-32_260595134347_rgbf000040-resize_5-target.png,125,1.5043333333333,3,3292,111,feet,jsons/VE125_randls_57.json,750428,992000,43,Woman
52,286959,DepthScenes,duration_manipulation_targetAtFixation,jsons/VE125_randls_57.json,http://54.235.29.9/FacialAge/BNav_EC2/DepthDuration/v2_depth_duration_MTurk/v2_DepthDuration_HTML.html#454,454,1517,772,1366,768,9-3-2022,9-9-43,53,depth_duration_stimuli/000635_2014-06-08_16-38-42_260595134347_rgbf000106-resize_1/000635_2014-06-08_16-38-42_260595134347_rgbf000106-resize_1-target.png,125,2.074,6,4129,122,feet,jsons/VE125_randls_57.json,750428,992000,43,Woman
53,286959,DepthScenes,duration_manipulation_targetAtFixation,jsons/VE125_randls_57.json,http://54.235.29.9/FacialAge/BNav_EC2/DepthDuration/v2_depth_duration_MTurk/v2_DepthDuration_HTML.html#454,454,1517,772,1366,768,9-3-2022,9-9-43,54,depth_duration_stimuli/000368_2014-06-09_15-53-01_260595134347_rgbf000155-resize_2/000368_2014-06-09_15-53-01_260595134347_rgbf000155-resize_2-target.png,125,2.4859999999999998,5,3377,97,feet,jsons/VE125_randls_57.json,750428,992000,43,Woman
54,286959,DepthScenes,duration_manipulation_targetAtFixation,jsons/VE125_randls_57.json,http://54.235.29.9/FacialAge/BNav_EC2/DepthDuration/v2_depth_duration_MTurk/v2_DepthDuration_HTML.html#454,454,1517,772,1366,768,9-3-2022,9-9-43,55,depth_duration_stimuli/002678_2014-06-13_16-15-32_094959634447_rgbf000151-resize_6/002678_2014-06-13_16-15-32_094959634447_rgbf000151-resize_6-target.png,125,2.1830000000000003,9,3354,119,feet,jsons/VE125_randls_57.json,750428,992000,43,Woman
55,286959,DepthScenes,duration_manipulation_targetAtFixation,jsons/VE125_randls_57.json,http://54.235.29.9/FacialAge/BNav_EC2/DepthDuration/v2_depth_duration_MTurk/v2_DepthDuration_HTML.html#454,454,1517,772,1366,768,9-3-2022,9-9-43,56,depth_duration_stimuli/001555_2014-06-20_17-12-10_260595134347_rgbf000065-resize_4/001555_2014-06-20_17-12-10_260595134347_rgbf000065-resize_4-target.png,125,1.633,3,4681,121,feet,jsons/VE125_randls_57.json,750428,992000,43,Woman
56,286959,DepthScenes,duration_manipulation_targetAtFixation,jsons/VE125_randls_57.json,http://54.235.29.9/FacialAge/BNav_EC2/DepthDuration/v2_depth_duration_MTurk/v2_DepthDuration_HTML.html#454,454,1517,772,1366,768,9-3-2022,9-9-43,57,depth_duration_stimuli/000103_2014-05-14_22-01-17_260595134347_rgbf000152-resize_5/000103_2014-05-14_22-01-17_260595134347_rgbf000152-resize_5-target.png,125,1.993,7,3599,142,feet,jsons/VE125_randls_57.json,750428,992000,43,Woman
57,286959,DepthScenes,duration_manipulation_targetAtFixation,jsons/VE125_randls_57.json,http://54.235.29.9/FacialAge/BNav_EC2/DepthDuration/v2_depth_duration_MTurk/v2_DepthDuration_HTML.html#454,454,1517,772,1366,768,9-3-2022,9-9-43,58,depth_duration_stimuli/002748_2014-06-22_19-07-22_094959634447_rgbf000078-resize_1/002748_2014-06-22_19-07-22_094959634447_rgbf000078-resize_1-target.png,125,4.6705,14,4664,96,feet,jsons/VE125_randls_57.json,750428,992000,43,Woman
58,286959,DepthScenes,duration_manipulation_targetAtFixation,jsons/VE125_randls_57.json,http://54.235.29.9/FacialAge/BNav_EC2/DepthDuration/v2_depth_duration_MTurk/v2_DepthDuration_HTML.html#454,454,1517,772,1366,768,9-3-2022,9-9-43,59,depth_duration_stimuli/002995_2014-06-15_12-31-26_094959634447_rgbf000150-resize_1/002995_2014-06-15_12-31-26_094959634447_rgbf000150-resize_1-target.png,125,3.8360000000000003,8,3297,122,feet,jsons/VE125_randls_57.json,750428,992000,43,Woman
59,286959,DepthScenes,duration_manipulation_targetAtFixation,jsons/VE125_randls_57.json,http://54.235.29.9/FacialAge/BNav_EC2/DepthDuration/v2_depth_duration_MTurk/v2_DepthDuration_HTML.html#454,454,1517,772,1366,768,9-3-2022,9-9-43,60,depth_duration_stimuli/000414_2014-06-04_19-49-13_260595134347_rgbf000044-resize_0/000414_2014-06-04_19-49-13_260595134347_rgbf000044-resize_0-target.png,125,4.329,12,6354,120,feet,jsons/VE125_randls_57.json,750428,992000,43,Woman
60,286959,DepthScenes,duration_manipulation_targetAtFixation,jsons/VE125_randls_57.json,http://54.235.29.9/FacialAge/BNav_EC2/DepthDuration/v2_depth_duration_MTurk/v2_DepthDuration_HTML.html#454,454,1517,772,1366,768,9-3-2022,9-9-43,61,depth_duration_stimuli/003129_2014-05-12_10-48-10_094959634447_rgbf000100-resize_0/003129_2014-05-12_10-48-10_094959634447_rgbf000100-resize_0-target.png,125,4.9305,9,3354,122,feet,jsons/VE125_randls_57.json,750428,992000,43,Woman
61,286959,DepthScenes,duration_manipulation_targetAtFixation,jsons/VE125_randls_57.json,http://54.235.29.9/FacialAge/BNav_EC2/DepthDuration/v2_depth_duration_MTurk/v2_DepthDuration_HTML.html#454,454,1517,772,1366,768,9-3-2022,9-9-43,62,depth_duration_stimuli/003492_2014-05-21_15-50-55_094959634447_rgbf000828-resize_1/003492_2014-05-21_15-50-55_094959634447_rgbf000828-resize_1-target.png,125,4.06875,8,4638,126,feet,jsons/VE125_randls_57.json,750428,992000,43,Woman
62,286959,DepthScenes,duration_manipulation_targetAtFixation,jsons/VE125_randls_57.json,http://54.235.29.9/FacialAge/BNav_EC2/DepthDuration/v2_depth_duration_MTurk/v2_DepthDuration_HTML.html#454,454,1517,772,1366,768,9-3-2022,9-9-43,63,depth_duration_stimuli/002568_2014-06-24_13-59-21_094959634447_rgbf000062-resize_4/002568_2014-06-24_13-59-21_094959634447_rgbf000062-resize_4-target.png,125,3.015,9,3531,125,feet,jsons/VE125_randls_57.json,750428,992000,43,Woman
63,286959,DepthScenes,duration_manipulation_targetAtFixation,jsons/VE125_randls_57.json,http://54.235.29.9/FacialAge/BNav_EC2/DepthDuration/v2_depth_duration_MTurk/v2_DepthDuration_HTML.html#454,454,1517,772,1366,768,9-3-2022,9-9-43,64,depth_duration_stimuli/000486_2014-06-09_20-47-20_260595134347_rgbf000143-resize_2/000486_2014-06-09_20-47-20_260595134347_rgbf000143-resize_2-target.png,125,4.8325,12,3504,110,feet,jsons/VE125_randls_57.json,750428,992000,43,Woman
64,286959,DepthScenes,duration_manipulation_targetAtFixation,jsons/VE125_randls_57.json,http://54.235.29.9/FacialAge/BNav_EC2/DepthDuration/v2_depth_duration_MTurk/v2_DepthDuration_HTML.html#454,454,1517,772,1366,768,9-3-2022,9-9-43,65,depth_duration_stimuli/003083_2014-06-15_15-21-03_094959634447_rgbf000063-resize_1/003083_2014-06-15_15-21-03_094959634447_rgbf000063-resize_1-target.png,125,4.1405,7,3926,117,feet,jsons/VE125_randls_57.json,750428,992000,43,Woman
65,286959,DepthScenes,duration_manipulation_targetAtFixation,jsons/VE125_randls_57.json,http://54.235.29.9/FacialAge/BNav_EC2/DepthDuration/v2_depth_duration_MTurk/v2_DepthDuration_HTML.html#454,454,1517,772,1366,768,9-3-2022,9-9-43,66,depth_duration_stimuli/001222_2014-06-17_16-24-06_260595134347_rgbf000073-resize_0/001222_2014-06-17_16-24-06_260595134347_rgbf000073-resize-original.jpg,125,1.4385,0,3246,121,feet,jsons/VE125_randls_57.json,750428,992000,43,Woman
66,286959,DepthScenes,duration_manipulation_targetAtFixation,jsons/VE125_randls_57.json,http://54.235.29.9/FacialAge/BNav_EC2/DepthDuration/v2_depth_duration_MTurk/v2_DepthDuration_HTML.html#454,454,1517,772,1366,768,9-3-2022,9-9-43,67,depth_duration_stimuli/001199_2014-06-17_16-03-48_260595134347_rgbf000077-resize_0/001199_2014-06-17_16-03-48_260595134347_rgbf000077-resize_0-target.png,125,3.4375,12,4972,107,feet,jsons/VE125_randls_57.json,750428,992000,43,Woman
67,286959,DepthScenes,duration_manipulation_targetAtFixation,jsons/VE125_randls_57.json,http://54.235.29.9/FacialAge/BNav_EC2/DepthDuration/v2_depth_duration_MTurk/v2_DepthDuration_HTML.html#454,454,1517,772,1366,768,9-3-2022,9-9-43,68,depth_duration_stimuli/000502_2014-06-08_23-02-32_260595134347_rgbf000063-resize_4/000502_2014-06-08_23-02-32_260595134347_rgbf000063-resize_4-target.png,125,2.431,8,5789,126,feet,jsons/VE125_randls_57.json,750428,992000,43,Woman
68,286959,DepthScenes,duration_manipulation_targetAtFixation,jsons/VE125_randls_57.json,http://54.235.29.9/FacialAge/BNav_EC2/DepthDuration/v2_depth_duration_MTurk/v2_DepthDuration_HTML.html#454,454,1517,772,1366,768,9-3-2022,9-9-43,69,depth_duration_stimuli/000810_2014-06-08_17-20-01_260595134347_rgbf000105-resize_0/000810_2014-06-08_17-20-01_260595134347_rgbf000105-resize_0-target.png,125,1.4865,4,3243,126,feet,jsons/VE125_randls_57.json,750428,992000,43,Woman
69,286959,DepthScenes,duration_manipulation_targetAtFixation,jsons/VE125_randls_57.json,http://54.235.29.9/FacialAge/BNav_EC2/DepthDuration/v2_depth_duration_MTurk/v2_DepthDuration_HTML.html#454,454,1517,772,1366,768,9-3-2022,9-9-43,70,depth_duration_stimuli/001214_2014-06-17_16-13-55_260595134347_rgbf000111-resize_0/001214_2014-06-17_16-13-55_260595134347_rgbf000111-resize_0-target.png,125,2.6505,5,3110,124,feet,jsons/VE125_randls_57.json,750428,992000,43,Woman
70,286959,DepthScenes,duration_manipulation_targetAtFixation,jsons/VE125_randls_57.json,http://54.235.29.9/FacialAge/BNav_EC2/DepthDuration/v2_depth_duration_MTurk/v2_DepthDuration_HTML.html#454,454,1517,772,1366,768,9-3-2022,9-9-43,71,depth_duration_stimuli/002509_2014-06-24_13-19-22_094959634447_rgbf000077-resize_0/002509_2014-06-24_13-19-22_094959634447_rgbf000077-resize_0-target.png,125,1.3065,5,5379,125,feet,jsons/VE125_randls_57.json,750428,992000,43,Woman
71,286959,DepthScenes,duration_manipulation_targetAtFixation,jsons/VE125_randls_57.json,http://54.235.29.9/FacialAge/BNav_EC2/DepthDuration/v2_depth_duration_MTurk/v2_DepthDuration_HTML.html#454,454,1517,772,1366,768,9-3-2022,9-9-43,72,depth_duration_stimuli/003338_2014-05-20_11-01-23_094959634447_rgbf000051-resize_6/003338_2014-05-20_11-01-23_094959634447_rgbf000051-resize_6-target.png,125,1.693,3,4058,124,feet,jsons/VE125_randls_57.json,750428,992000,43,Woman
72,286959,DepthScenes,duration_manipulation_targetAtFixation,jsons/VE125_randls_57.json,http://54.235.29.9/FacialAge/BNav_EC2/DepthDuration/v2_depth_duration_MTurk/v2_DepthDuration_HTML.html#454,454,1517,772,1366,768,9-3-2022,9-9-43,73,depth_duration_stimuli/000682_2014-06-08_23-14-58_260595134347_rgbf000041-resize_5/000682_2014-06-08_23-14-58_260595134347_rgbf000041-resize_5-target.png,125,2.7239999999999998,6,3201,115,feet,jsons/VE125_randls_57.json,750428,992000,43,Woman
73,286959,DepthScenes,duration_manipulation_targetAtFixation,jsons/VE125_randls_57.json,http://54.235.29.9/FacialAge/BNav_EC2/DepthDuration/v2_depth_duration_MTurk/v2_DepthDuration_HTML.html#454,454,1517,772,1366,768,9-3-2022,9-9-43,74,depth_duration_stimuli/001650_2014-06-20_12-09-00_260595134347_rgbf000087-resize_3/001650_2014-06-20_12-09-00_260595134347_rgbf000087-resize_3-target.png,125,1.9505,2,3591,131,feet,jsons/VE125_randls_57.json,750428,992000,43,Woman
74,286959,DepthScenes,duration_manipulation_targetAtFixation,jsons/VE125_randls_57.json,http://54.235.29.9/FacialAge/BNav_EC2/DepthDuration/v2_depth_duration_MTurk/v2_DepthDuration_HTML.html#454,454,1517,772,1366,768,9-3-2022,9-9-43,75,depth_duration_stimuli/001059_2014-06-08_21-53-27_260595134347_rgbf000061-resize_4/001059_2014-06-08_21-53-27_260595134347_rgbf000061-resize_4-target.png,125,2.4185,5,3636,136,feet,jsons/VE125_randls_57.json,750428,992000,43,Woman
75,286959,DepthScenes,duration_manipulation_targetAtFixation,jsons/VE125_randls_57.json,http://54.235.29.9/FacialAge/BNav_EC2/DepthDuration/v2_depth_duration_MTurk/v2_DepthDuration_HTML.html#454,454,1517,772,1366,768,9-3-2022,9-9-43,76,depth_duration_stimuli/001032_2014-06-08_13-23-17_260595134347_rgbf000021-resize_3/001032_2014-06-08_13-23-17_260595134347_rgbf000021-resize_3-target.png,125,3.2725,7,3058,120,feet,jsons/VE125_randls_57.json,750428,992000,43,Woman
76,286959,DepthScenes,duration_manipulation_targetAtFixation,jsons/VE125_randls_57.json,http://54.235.29.9/FacialAge/BNav_EC2/DepthDuration/v2_depth_duration_MTurk/v2_DepthDuration_HTML.html#454,454,1517,772,1366,768,9-3-2022,9-9-43,77,depth_duration_stimuli/000522_2014-06-08_13-35-06_260595134347_rgbf000244-resize_1/000522_2014-06-08_13-35-06_260595134347_rgbf000244-resize_1-target.png,125,2.3715,2,3637,123,feet,jsons/VE125_randls_57.json,750428,992000,43,Woman
77,286959,DepthScenes,duration_manipulation_targetAtFixation,jsons/VE125_randls_57.json,http://54.235.29.9/FacialAge/BNav_EC2/DepthDuration/v2_depth_duration_MTurk/v2_DepthDuration_HTML.html#454,454,1517,772,1366,768,9-3-2022,9-9-43,78,depth_duration_stimuli/002949_2014-06-26_15-57-42_094959634447_rgbf000079-resize_1/002949_2014-06-26_15-57-42_094959634447_rgbf000079-resize_1-target.png,125,1.8915,5,3184,121,feet,jsons/VE125_randls_57.json,750428,992000,43,Woman
78,286959,DepthScenes,duration_manipulation_targetAtFixation,jsons/VE125_randls_57.json,http://54.235.29.9/FacialAge/BNav_EC2/DepthDuration/v2_depth_duration_MTurk/v2_DepthDuration_HTML.html#454,454,1517,772,1366,768,9-3-2022,9-9-43,79,depth_duration_stimuli/001110_2014-06-15_17-25-28_260595134347_rgbf000150-resize_1/001110_2014-06-15_17-25-28_260595134347_rgbf000150-resize_1-target.png,125,1.7115,4,3051,123,feet,jsons/VE125_randls_57.json,750428,992000,43,Woman
79,286959,DepthScenes,duration_manipulation_targetAtFixation,jsons/VE125_randls_57.json,http://54.235.29.9/FacialAge/BNav_EC2/DepthDuration/v2_depth_duration_MTurk/v2_DepthDuration_HTML.html#454,454,1517,772,1366,768,9-3-2022,9-9-43,80,depth_duration_stimuli/000927_2014-06-09_16-32-30_260595134347_rgbf000123-resize_3/000927_2014-06-09_16-32-30_260595134347_rgbf000123-resize_3-target.png,125,2.6785,8,2985,109,feet,jsons/VE125_randls_57.json,750428,992000,43,Woman
80,286959,DepthScenes,duration_manipulation_targetAtFixation,jsons/VE125_randls_57.json,http://54.235.29.9/FacialAge/BNav_EC2/DepthDuration/v2_depth_duration_MTurk/v2_DepthDuration_HTML.html#454,454,1517,772,1366,768,9-3-2022,9-9-43,81,depth_duration_stimuli/001810_2014-06-26_20-51-35_260595134347_rgbf000040-resize_3/001810_2014-06-26_20-51-35_260595134347_rgbf000040-resize_3-target.png,125,2.2525,5,3222,126,feet,jsons/VE125_randls_57.json,750428,992000,43,Woman
81,286959,DepthScenes,duration_manipulation_targetAtFixation,jsons/VE125_randls_57.json,http://54.235.29.9/FacialAge/BNav_EC2/DepthDuration/v2_depth_duration_MTurk/v2_DepthDuration_HTML.html#454,454,1517,772,1366,768,9-3-2022,9-9-43,82,depth_duration_stimuli/003010_2014-06-15_12-54-35_094959634447_rgbf000112-resize_0/003010_2014-06-15_12-54-35_094959634447_rgbf000112-resize_0-target.png,125,3.1185,9,3460,123,feet,jsons/VE125_randls_57.json,750428,992000,43,Woman
82,286959,DepthScenes,duration_manipulation_targetAtFixation,jsons/VE125_randls_57.json,http://54.235.29.9/FacialAge/BNav_EC2/DepthDuration/v2_depth_duration_MTurk/v2_DepthDuration_HTML.html#454,454,1517,772,1366,768,9-3-2022,9-9-43,83,depth_duration_stimuli/000929_2014-06-09_16-33-19_260595134347_rgbf000139-resize_0/000929_2014-06-09_16-33-19_260595134347_rgbf000139-resize_0-target.png,125,2.8680000000000003,10,4647,124,feet,jsons/VE125_randls_57.json,750428,992000,43,Woman
83,286959,DepthScenes,duration_manipulation_targetAtFixation,jsons/VE125_randls_57.json,http://54.235.29.9/FacialAge/BNav_EC2/DepthDuration/v2_depth_duration_MTurk/v2_DepthDuration_HTML.html#454,454,1517,772,1366,768,9-3-2022,9-9-43,84,depth_duration_stimuli/000457_2014-06-08_16-52-43_260595134347_rgbf000199-resize_1/000457_2014-06-08_16-52-43_260595134347_rgbf000199-resize_1-target.png,125,3.6489999999999996,12,3295,124,feet,jsons/VE125_randls_57.json,750428,992000,43,Woman
84,286959,DepthScenes,duration_manipulation_targetAtFixation,jsons/VE125_randls_57.json,http://54.235.29.9/FacialAge/BNav_EC2/DepthDuration/v2_depth_duration_MTurk/v2_DepthDuration_HTML.html#454,454,1517,772,1366,768,9-3-2022,9-9-43,85,depth_duration_stimuli/002057_2014-06-24_21-00-13_260595134347_rgbf000120-resize_1/002057_2014-06-24_21-00-13_260595134347_rgbf000120-resize_1-target.png,125,2.967,7,3466,125,feet,jsons/VE125_randls_57.json,750428,992000,43,Woman
85,286959,DepthScenes,duration_manipulation_targetAtFixation,jsons/VE125_randls_57.json,http://54.235.29.9/FacialAge/BNav_EC2/DepthDuration/v2_depth_duration_MTurk/v2_DepthDuration_HTML.html#454,454,1517,772,1366,768,9-3-2022,9-9-43,86,depth_duration_stimuli/000709_2014-06-08_13-51-55_260595134347_rgbf000068-resize_3/000709_2014-06-08_13-51-55_260595134347_rgbf000068-resize_3-target.png,125,1.8030000000000002,6,5837,124,feet,jsons/VE125_randls_57.json,750428,992000,43,Woman
86,286959,DepthScenes,duration_manipulation_targetAtFixation,jsons/VE125_randls_57.json,http://54.235.29.9/FacialAge/BNav_EC2/DepthDuration/v2_depth_duration_MTurk/v2_DepthDuration_HTML.html#454,454,1517,772,1366,768,9-3-2022,9-9-43,87,depth_duration_stimuli/001175_2014-06-17_15-45-55_260595134347_rgbf000129-resize_4/001175_2014-06-17_15-45-55_260595134347_rgbf000129-resize_4-target.png,125,4.255,10,3739,122,feet,jsons/VE125_randls_57.json,750428,992000,43,Woman
87,286959,DepthScenes,duration_manipulation_targetAtFixation,jsons/VE125_randls_57.json,http://54.235.29.9/FacialAge/BNav_EC2/DepthDuration/v2_depth_duration_MTurk/v2_DepthDuration_HTML.html#454,454,1517,772,1366,768,9-3-2022,9-9-43,88,depth_duration_stimuli/003490_2014-05-21_15-50-11_094959634447_rgbf000101-resize_3/003490_2014-05-21_15-50-11_094959634447_rgbf000101-resize_3-target.png,125,3.6445,6,3738,125,feet,jsons/VE125_randls_57.json,750428,992000,43,Woman
88,286959,DepthScenes,duration_manipulation_targetAtFixation,jsons/VE125_randls_57.json,http://54.235.29.9/FacialAge/BNav_EC2/DepthDuration/v2_depth_duration_MTurk/v2_DepthDuration_HTML.html#454,454,1517,772,1366,768,9-3-2022,9-9-43,89,depth_duration_stimuli/001808_2014-06-26_20-50-58_260595134347_rgbf000029-resize_1/001808_2014-06-26_20-50-58_260595134347_rgbf000029-resize_1-target.png,125,4.249,10,4309,133,feet,jsons/VE125_randls_57.json,750428,992000,43,Woman
89,286959,DepthScenes,duration_manipulation_targetAtFixation,jsons/VE125_randls_57.json,http://54.235.29.9/FacialAge/BNav_EC2/DepthDuration/v2_depth_duration_MTurk/v2_DepthDuration_HTML.html#454,454,1517,772,1366,768,9-3-2022,9-9-43,90,depth_duration_stimuli/001815_2014-06-26_20-52-55_260595134347_rgbf000020-resize_0/001815_2014-06-26_20-52-55_260595134347_rgbf000020-resize_0-target.png,125,3.3865,11,6765,131,feet,jsons/VE125_randls_57.json,750428,992000,43,Woman
90,286959,DepthScenes,duration_manipulation_targetAtFixation,jsons/VE125_randls_57.json,http://54.235.29.9/FacialAge/BNav_EC2/DepthDuration/v2_depth_duration_MTurk/v2_DepthDuration_HTML.html#454,454,1517,772,1366,768,9-3-2022,9-9-43,91,depth_duration_stimuli/002905_2014-06-03_18-04-43_094959634447_rgbf000151-resize_2/002905_2014-06-03_18-04-43_094959634447_rgbf000151-resize_2-target.png,125,2.0295,3,3370,121,feet,jsons/VE125_randls_57.json,750428,992000,43,Woman
91,286959,DepthScenes,duration_manipulation_targetAtFixation,jsons/VE125_randls_57.json,http://54.235.29.9/FacialAge/BNav_EC2/DepthDuration/v2_depth_duration_MTurk/v2_DepthDuration_HTML.html#454,454,1517,772,1366,768,9-3-2022,9-9-43,92,depth_duration_stimuli/003423_2014-05-21_10-23-26_094959634447_rgbf002665-resize_2/003423_2014-05-21_10-23-26_094959634447_rgbf002665-resize_2-target.png,125,3.2575,8,10209,138,feet,jsons/VE125_randls_57.json,750428,992000,43,Woman
92,286959,DepthScenes,duration_manipulation_targetAtFixation,jsons/VE125_randls_57.json,http://54.235.29.9/FacialAge/BNav_EC2/DepthDuration/v2_depth_duration_MTurk/v2_DepthDuration_HTML.html#454,454,1517,772,1366,768,9-3-2022,9-9-43,93,depth_duration_stimuli/000493_2014-06-09_21-01-18_260595134347_rgbf000196-resize_3/000493_2014-06-09_21-01-18_260595134347_rgbf000196-resize_3-target.png,125,3.44,6,4893,110,feet,jsons/VE125_randls_57.json,750428,992000,43,Woman
93,286959,DepthScenes,duration_manipulation_targetAtFixation,jsons/VE125_randls_57.json,http://54.235.29.9/FacialAge/BNav_EC2/DepthDuration/v2_depth_duration_MTurk/v2_DepthDuration_HTML.html#454,454,1517,772,1366,768,9-3-2022,9-9-43,94,depth_duration_stimuli/000191_2014-05-12_17-07-38_260595134347_rgbf000199-resize_0/000191_2014-05-12_17-07-38_260595134347_rgbf000199-resize_0-target.png,125,3.7995,12,3573,127,feet,jsons/VE125_randls_57.json,750428,992000,43,Woman
94,286959,DepthScenes,duration_manipulation_targetAtFixation,jsons/VE125_randls_57.json,http://54.235.29.9/FacialAge/BNav_EC2/DepthDuration/v2_depth_duration_MTurk/v2_DepthDuration_HTML.html#454,454,1517,772,1366,768,9-3-2022,9-9-43,95,depth_duration_stimuli/001016_2014-06-09_16-16-10_260595134347_rgbf000112-resize_5/001016_2014-06-09_16-16-10_260595134347_rgbf000112-resize_5-target.png,125,1.6565,4,3456,135,feet,jsons/VE125_randls_57.json,750428,992000,43,Woman
95,286959,DepthScenes,duration_manipulation_targetAtFixation,jsons/VE125_randls_57.json,http://54.235.29.9/FacialAge/BNav_EC2/DepthDuration/v2_depth_duration_MTurk/v2_DepthDuration_HTML.html#454,454,1517,772,1366,768,9-3-2022,9-9-43,96,depth_duration_stimuli/002340_2014-06-28_20-05-46_260595134347_rgbf000113-resize_0/002340_2014-06-28_20-05-46_260595134347_rgbf000113-resize_0-target.png,125,2.4735,0,3165,126,feet,jsons/VE125_randls_57.json,750428,992000,43,Woman
96,286959,DepthScenes,duration_manipulation_targetAtFixation,jsons/VE125_randls_57.json,http://54.235.29.9/FacialAge/BNav_EC2/DepthDuration/v2_depth_duration_MTurk/v2_DepthDuration_HTML.html#454,454,1517,772,1366,768,9-3-2022,9-9-43,97,depth_duration_stimuli/001029_2014-06-08_13-17-57_260595134347_rgbf000065-resize_1/001029_2014-06-08_13-17-57_260595134347_rgbf000065-resize_1-target.png,125,3.0835,6,3926,132,feet,jsons/VE125_randls_57.json,750428,992000,43,Woman
97,286959,DepthScenes,duration_manipulation_targetAtFixation,jsons/VE125_randls_57.json,http://54.235.29.9/FacialAge/BNav_EC2/DepthDuration/v2_depth_duration_MTurk/v2_DepthDuration_HTML.html#454,454,1517,772,1366,768,9-3-2022,9-9-43,98,depth_duration_stimuli/000677_2014-06-08_23-10-32_260595134347_rgbf000158-resize_6/000677_2014-06-08_23-10-32_260595134347_rgbf000158-resize_6-target.png,125,3.556,8,3333,131,feet,jsons/VE125_randls_57.json,750428,992000,43,Woman
98,286959,DepthScenes,duration_manipulation_targetAtFixation,jsons/VE125_randls_57.json,http://54.235.29.9/FacialAge/BNav_EC2/DepthDuration/v2_depth_duration_MTurk/v2_DepthDuration_HTML.html#454,454,1517,772,1366,768,9-3-2022,9-9-43,99,depth_duration_stimuli/001540_2014-06-20_17-01-05_260595134347_rgbf000086-resize_2/001540_2014-06-20_17-01-05_260595134347_rgbf000086-resize-original.jpg,125,1.459,6,3662,113,feet,jsons/VE125_randls_57.json,750428,992000,43,Woman
99,286959,DepthScenes,duration_manipulation_targetAtFixation,jsons/VE125_randls_57.json,http://54.235.29.9/FacialAge/BNav_EC2/DepthDuration/v2_depth_duration_MTurk/v2_DepthDuration_HTML.html#454,454,1517,772,1366,768,9-3-2022,9-9-43,100,depth_duration_stimuli/003534_2014-05-22_15-06-10_094959634447_rgbf000102-resize_4/003534_2014-05-22_15-06-10_094959634447_rgbf000102-resize_4-target.png,125,1.426,3,3483,108,feet,jsons/VE125_randls_57.json,750428,992000,43,Woman
100,286959,DepthScenes,duration_manipulation_targetAtFixation,jsons/VE125_randls_57.json,http://54.235.29.9/FacialAge/BNav_EC2/DepthDuration/v2_depth_duration_MTurk/v2_DepthDuration_HTML.html#454,454,1517,772,1366,768,9-3-2022,9-9-43,101,depth_duration_stimuli/002637_2014-06-24_14-51-13_094959634447_rgbf000066-resize_4/002637_2014-06-24_14-51-13_094959634447_rgbf000066-resize_4-target.png,125,1.9955,0,3029,66,feet,jsons/VE125_randls_57.json,750428,992000,43,Woman
101,286959,DepthScenes,duration_manipulation_targetAtFixation,jsons/VE125_randls_57.json,http://54.235.29.9/FacialAge/BNav_EC2/DepthDuration/v2_depth_duration_MTurk/v2_DepthDuration_HTML.html#454,454,1517,772,1366,768,9-3-2022,9-9-43,102,depth_duration_stimuli/002153_2014-06-25_21-27-18_260595134347_rgbf000038-resize_5/002153_2014-06-25_21-27-18_260595134347_rgbf000038-resize_5-target.png,125,2.505,4,3143,127,feet,jsons/VE125_randls_57.json,750428,992000,43,Woman
102,286959,DepthScenes,duration_manipulation_targetAtFixation,jsons/VE125_randls_57.json,http://54.235.29.9/FacialAge/BNav_EC2/DepthDuration/v2_depth_duration_MTurk/v2_DepthDuration_HTML.html#454,454,1517,772,1366,768,9-3-2022,9-9-43,103,depth_duration_stimuli/002660_2014-06-13_15-44-18_094959634447_rgbf001878-resize_2/002660_2014-06-13_15-44-18_094959634447_rgbf001878-resize_2-target.png,125,3.576,8,3318,124,feet,jsons/VE125_randls_57.json,750428,992000,43,Woman
103,286959,DepthScenes,duration_manipulation_targetAtFixation,jsons/VE125_randls_57.json,http://54.235.29.9/FacialAge/BNav_EC2/DepthDuration/v2_depth_duration_MTurk/v2_DepthDuration_HTML.html#454,454,1517,772,1366,768,9-3-2022,9-9-43,104,depth_duration_stimuli/002600_2014-06-24_14-27-04_094959634447_rgbf000074-resize_2/002600_2014-06-24_14-27-04_094959634447_rgbf000074-resize_2-target.png,125,2.7575,9,3544,108,feet,jsons/VE125_randls_57.json,750428,992000,43,Woman
104,286959,DepthScenes,duration_manipulation_targetAtFixation,jsons/VE125_randls_57.json,http://54.235.29.9/FacialAge/BNav_EC2/DepthDuration/v2_depth_duration_MTurk/v2_DepthDuration_HTML.html#454,454,1517,772,1366,768,9-3-2022,9-9-43,105,depth_duration_stimuli/003228_2014-05-14_13-42-35_094959634447_rgbf000101-resize_1/003228_2014-05-14_13-42-35_094959634447_rgbf000101-resize_1-target.png,125,1.9680000000000002,4,3282,120,feet,jsons/VE125_randls_57.json,750428,992000,43,Woman
105,286959,DepthScenes,duration_manipulation_targetAtFixation,jsons/VE125_randls_57.json,http://54.235.29.9/FacialAge/BNav_EC2/DepthDuration/v2_depth_duration_MTurk/v2_DepthDuration_HTML.html#454,454,1517,772,1366,768,9-3-2022,9-9-43,106,depth_duration_stimuli/001011_2014-06-08_23-18-54_260595134347_rgbf000044-resize_4/001011_2014-06-08_23-18-54_260595134347_rgbf000044-resize_4-target.png,125,2.4730000000000003,6,3216,111,feet,jsons/VE125_randls_57.json,750428,992000,43,Woman
106,286959,DepthScenes,duration_manipulation_targetAtFixation,jsons/VE125_randls_57.json,http://54.235.29.9/FacialAge/BNav_EC2/DepthDuration/v2_depth_duration_MTurk/v2_DepthDuration_HTML.html#454,454,1517,772,1366,768,9-3-2022,9-9-43,107,depth_duration_stimuli/002875_2014-06-01_15-19-00_094959634447_rgbf000151-resize_1/002875_2014-06-01_15-19-00_094959634447_rgbf000151-resize_1-target.png,125,1.9675,8,3011,125,feet,jsons/VE125_randls_57.json,750428,992000,43,Woman
107,286959,DepthScenes,duration_manipulation_targetAtFixation,jsons/VE125_randls_57.json,http://54.235.29.9/FacialAge/BNav_EC2/DepthDuration/v2_depth_duration_MTurk/v2_DepthDuration_HTML.html#454,454,1517,772,1366,768,9-3-2022,9-9-43,108,depth_duration_stimuli/001417_2014-06-19_16-25-36_260595134347_rgbf000115-resize_5/001417_2014-06-19_16-25-36_260595134347_rgbf000115-resize_5-target.png,125,4.6255,9,4465,124,feet,jsons/VE125_randls_57.json,750428,992000,43,Woman
108,286959,DepthScenes,duration_manipulation_targetAtFixation,jsons/VE125_randls_57.json,http://54.235.29.9/FacialAge/BNav_EC2/DepthDuration/v2_depth_duration_MTurk/v2_DepthDuration_HTML.html#454,454,1517,772,1366,768,9-3-2022,9-9-43,109,depth_duration_stimuli/003081_2014-06-15_15-19-16_094959634447_rgbf000150-resize_1/003081_2014-06-15_15-19-16_094959634447_rgbf000150-resize_1-target.png,125,3.9125,7,3237,123,feet,jsons/VE125_randls_57.json,750428,992000,43,Woman
109,286959,DepthScenes,duration_manipulation_targetAtFixation,jsons/VE125_randls_57.json,http://54.235.29.9/FacialAge/BNav_EC2/DepthDuration/v2_depth_duration_MTurk/v2_DepthDuration_HTML.html#454,454,1517,772,1366,768,9-3-2022,9-9-43,110,depth_duration_stimuli/003070_2014-06-15_14-58-27_094959634447_rgbf000150-resize_3/003070_2014-06-15_14-58-27_094959634447_rgbf000150-resize_3-target.png,125,2.9415,5,3463,123,feet,jsons/VE125_randls_57.json,750428,992000,43,Woman
110,286959,DepthScenes,duration_manipulation_targetAtFixation,jsons/VE125_randls_57.json,http://54.235.29.9/FacialAge/BNav_EC2/DepthDuration/v2_depth_duration_MTurk/v2_DepthDuration_HTML.html#454,454,1517,772,1366,768,9-3-2022,9-9-43,111,depth_duration_stimuli/000943_2014-06-09_19-31-07_260595134347_rgbf000128-resize_1/000943_2014-06-09_19-31-07_260595134347_rgbf000128-resize_1-target.png,125,1.9765,5,3135,128,feet,jsons/VE125_randls_57.json,750428,992000,43,Woman
111,286959,DepthScenes,duration_manipulation_targetAtFixation,jsons/VE125_randls_57.json,http://54.235.29.9/FacialAge/BNav_EC2/DepthDuration/v2_depth_duration_MTurk/v2_DepthDuration_HTML.html#454,454,1517,772,1366,768,9-3-2022,9-9-43,112,depth_duration_stimuli/000788_2014-06-08_22-34-36_260595134347_rgbf000131-resize_1/000788_2014-06-08_22-34-36_260595134347_rgbf000131-resize_1-target.png,125,3.359,7,4520,114,feet,jsons/VE125_randls_57.json,750428,992000,43,Woman
112,286959,DepthScenes,duration_manipulation_targetAtFixation,jsons/VE125_randls_57.json,http://54.235.29.9/FacialAge/BNav_EC2/DepthDuration/v2_depth_duration_MTurk/v2_DepthDuration_HTML.html#454,454,1517,772,1366,768,9-3-2022,9-9-43,113,depth_duration_stimuli/001235_2014-06-17_16-37-36_260595134347_rgbf000084-resize_4/001235_2014-06-17_16-37-36_260595134347_rgbf000084-resize_4-target.png,125,3.6605,7,3596,125,feet,jsons/VE125_randls_57.json,750428,992000,43,Woman
113,286959,DepthScenes,duration_manipulation_targetAtFixation,jsons/VE125_randls_57.json,http://54.235.29.9/FacialAge/BNav_EC2/DepthDuration/v2_depth_duration_MTurk/v2_DepthDuration_HTML.html#454,454,1517,772,1366,768,9-3-2022,9-9-43,114,depth_duration_stimuli/002445_2014-06-28_20-32-16_260595134347_rgbf000029-resize_4/002445_2014-06-28_20-32-16_260595134347_rgbf000029-resize_4-target.png,125,2.5315,5,4347,123,feet,jsons/VE125_randls_57.json,750428,992000,43,Woman
114,286959,DepthScenes,duration_manipulation_targetAtFixation,jsons/VE125_randls_57.json,http://54.235.29.9/FacialAge/BNav_EC2/DepthDuration/v2_depth_duration_MTurk/v2_DepthDuration_HTML.html#454,454,1517,772,1366,768,9-3-2022,9-9-43,115,depth_duration_stimuli/000780_2014-06-08_22-28-29_260595134347_rgbf000126-resize_1/000780_2014-06-08_22-28-29_260595134347_rgbf000126-resize_1-target.png,125,3.3825,12,5097,126,feet,jsons/VE125_randls_57.json,750428,992000,43,Woman
115,286959,DepthScenes,duration_manipulation_targetAtFixation,jsons/VE125_randls_57.json,http://54.235.29.9/FacialAge/BNav_EC2/DepthDuration/v2_depth_duration_MTurk/v2_DepthDuration_HTML.html#454,454,1517,772,1366,768,9-3-2022,9-9-43,116,depth_duration_stimuli/001170_2014-06-17_15-43-44_260595134347_rgbf000096-resize_6/001170_2014-06-17_15-43-44_260595134347_rgbf000096-resize-original.jpg,125,1.1909999999999998,0,3483,127,feet,jsons/VE125_randls_57.json,750428,992000,43,Woman
116,286959,DepthScenes,duration_manipulation_targetAtFixation,jsons/VE125_randls_57.json,http://54.235.29.9/FacialAge/BNav_EC2/DepthDuration/v2_depth_duration_MTurk/v2_DepthDuration_HTML.html#454,454,1517,772,1366,768,9-3-2022,9-9-43,117,depth_duration_stimuli/002570_2014-06-24_13-59-54_094959634447_rgbf000059-resize_0/002570_2014-06-24_13-59-54_094959634447_rgbf000059-resize_0-target.png,125,4.037,7,3236,117,feet,jsons/VE125_randls_57.json,750428,992000,43,Woman
117,286959,DepthScenes,duration_manipulation_targetAtFixation,jsons/VE125_randls_57.json,http://54.235.29.9/FacialAge/BNav_EC2/DepthDuration/v2_depth_duration_MTurk/v2_DepthDuration_HTML.html#454,454,1517,772,1366,768,9-3-2022,9-9-43,118,depth_duration_stimuli/002467_2014-06-28_20-38-07_260595134347_rgbf000026-resize_2/002467_2014-06-28_20-38-07_260595134347_rgbf000026-resize_2-target.png,125,4.742,10,6087,121,feet,jsons/VE125_randls_57.json,750428,992000,43,Woman
118,286959,DepthScenes,duration_manipulation_targetAtFixation,jsons/VE125_randls_57.json,http://54.235.29.9/FacialAge/BNav_EC2/DepthDuration/v2_depth_duration_MTurk/v2_DepthDuration_HTML.html#454,454,1517,772,1366,768,9-3-2022,9-9-43,119,depth_duration_stimuli/002549_2014-06-24_13-41-39_094959634447_rgbf000022-resize_3/002549_2014-06-24_13-41-39_094959634447_rgbf000022-resize_3-target.png,125,1.476,3,3378,122,feet,jsons/VE125_randls_57.json,750428,992000,43,Woman
119,286959,DepthScenes,duration_manipulation_targetAtFixation,jsons/VE125_randls_57.json,http://54.235.29.9/FacialAge/BNav_EC2/DepthDuration/v2_depth_duration_MTurk/v2_DepthDuration_HTML.html#454,454,1517,772,1366,768,9-3-2022,9-9-43,120,depth_duration_stimuli/002750_2014-06-22_19-08-03_094959634447_rgbf000094-resize_4/002750_2014-06-22_19-08-03_094959634447_rgbf000094-resize_4-target.png,125,2.354,6,3245,124,feet,jsons/VE125_randls_57.json,750428,992000,43,Woman
120,286959,DepthScenes,duration_manipulation_targetAtFixation,jsons/VE125_randls_57.json,http://54.235.29.9/FacialAge/BNav_EC2/DepthDuration/v2_depth_duration_MTurk/v2_DepthDuration_HTML.html#454,454,1517,772,1366,768,9-3-2022,9-9-43,121,depth_duration_stimuli/000469_2014-06-09_19-42-10_260595134347_rgbf000081-resize_1/000469_2014-06-09_19-42-10_260595134347_rgbf000081-resize_1-target.png,125,1.652,4,4923,126,feet,jsons/VE125_randls_57.json,750428,992000,43,Woman
121,286959,DepthScenes,duration_manipulation_targetAtFixation,jsons/VE125_randls_57.json,http://54.235.29.9/FacialAge/BNav_EC2/DepthDuration/v2_depth_duration_MTurk/v2_DepthDuration_HTML.html#454,454,1517,772,1366,768,9-3-2022,9-9-43,122,depth_duration_stimuli/000483_2014-06-09_20-41-45_260595134347_rgbf000116-resize_4/000483_2014-06-09_20-41-45_260595134347_rgbf000116-resize_4-target.png,125,1.337,4,3518,130,feet,jsons/VE125_randls_57.json,750428,992000,43,Woman
122,286959,DepthScenes,duration_manipulation_targetAtFixation,jsons/VE125_randls_57.json,http://54.235.29.9/FacialAge/BNav_EC2/DepthDuration/v2_depth_duration_MTurk/v2_DepthDuration_HTML.html#454,454,1517,772,1366,768,9-3-2022,9-9-43,123,depth_duration_stimuli/001244_2014-06-17_16-47-45_260595134347_rgbf000030-resize_4/001244_2014-06-17_16-47-45_260595134347_rgbf000030-resize_4-target.png,125,2.0425,5,3853,142,feet,jsons/VE125_randls_57.json,750428,992000,43,Woman
123,286959,DepthScenes,duration_manipulation_targetAtFixation,jsons/VE125_randls_57.json,http://54.235.29.9/FacialAge/BNav_EC2/DepthDuration/v2_depth_duration_MTurk/v2_DepthDuration_HTML.html#454,454,1517,772,1366,768,9-3-2022,9-9-43,124,depth_duration_stimuli/003495_2014-05-21_16-01-51_094959634447_rgbf000100-resize_3/003495_2014-05-21_16-01-51_094959634447_rgbf000100-resize_3-target.png,125,1.6255,2,3532,135,feet,jsons/VE125_randls_57.json,750428,992000,43,Woman
124,286959,DepthScenes,duration_manipulation_targetAtFixation,jsons/VE125_randls_57.json,http://54.235.29.9/FacialAge/BNav_EC2/DepthDuration/v2_depth_duration_MTurk/v2_DepthDuration_HTML.html#454,454,1517,772,1366,768,9-3-2022,9-9-43,125,depth_duration_stimuli/001056_2014-06-08_18-46-44_260595134347_rgbf000068-resize_0/001056_2014-06-08_18-46-44_260595134347_rgbf000068-resize_0-target.png,125,2.6625,6,3608,134,feet,jsons/VE125_randls_57.json,750428,992000,43,Woman
125,286959,DepthScenes,duration_manipulation_targetAtFixation,jsons/VE125_randls_57.json,http://54.235.29.9/FacialAge/BNav_EC2/DepthDuration/v2_depth_duration_MTurk/v2_DepthDuration_HTML.html#454,454,1517,772,1366,768,9-3-2022,9-9-43,126,depth_duration_stimuli/002199_2014-06-28_18-33-56_260595134347_rgbf000074-resize_0/002199_2014-06-28_18-33-56_260595134347_rgbf000074-resize_0-target.png,125,1.996,3,4343,125,feet,jsons/VE125_randls_57.json,750428,992000,43,Woman
126,286959,DepthScenes,duration_manipulation_targetAtFixation,jsons/VE125_randls_57.json,http://54.235.29.9/FacialAge/BNav_EC2/DepthDuration/v2_depth_duration_MTurk/v2_DepthDuration_HTML.html#454,454,1517,772,1366,768,9-3-2022,9-9-43,127,depth_duration_stimuli/001092_2014-06-15_17-34-58_260595134347_rgbf000171-resize_3/001092_2014-06-15_17-34-58_260595134347_rgbf000171-resize_3-target.png,125,2.6935,4,3136,130,feet,jsons/VE125_randls_57.json,750428,992000,43,Woman
127,286959,DepthScenes,duration_manipulation_targetAtFixation,jsons/VE125_randls_57.json,http://54.235.29.9/FacialAge/BNav_EC2/DepthDuration/v2_depth_duration_MTurk/v2_DepthDuration_HTML.html#454,454,1517,772,1366,768,9-3-2022,9-9-43,128,depth_duration_stimuli/002545_2014-06-24_13-38-53_094959634447_rgbf000080-resize_4/002545_2014-06-24_13-38-53_094959634447_rgbf000080-resize_4-target.png,125,1.9205,6,3465,136,feet,jsons/VE125_randls_57.json,750428,992000,43,Woman
128,286959,DepthScenes,duration_manipulation_targetAtFixation,jsons/VE125_randls_57.json,http://54.235.29.9/FacialAge/BNav_EC2/DepthDuration/v2_depth_duration_MTurk/v2_DepthDuration_HTML.html#454,454,1517,772,1366,768,9-3-2022,9-9-43,129,depth_duration_stimuli/002788_2014-06-22_19-36-03_094959634447_rgbf000088-resize_2/002788_2014-06-22_19-36-03_094959634447_rgbf000088-resize_2-target.png,125,1.6465,9,3943,137,feet,jsons/VE125_randls_57.json,750428,992000,43,Woman
129,286959,DepthScenes,duration_manipulation_targetAtFixation,jsons/VE125_randls_57.json,http://54.235.29.9/FacialAge/BNav_EC2/DepthDuration/v2_depth_duration_MTurk/v2_DepthDuration_HTML.html#454,454,1517,772,1366,768,9-3-2022,9-9-43,130,depth_duration_stimuli/000749_2014-06-08_21-55-06_260595134347_rgbf000070-resize_2/000749_2014-06-08_21-55-06_260595134347_rgbf000070-resize_2-target.png,125,2.331,6,4765,127,feet,jsons/VE125_randls_57.json,750428,992000,43,Woman
130,286959,DepthScenes,duration_manipulation_targetAtFixation,jsons/VE125_randls_57.json,http://54.235.29.9/FacialAge/BNav_EC2/DepthDuration/v2_depth_duration_MTurk/v2_DepthDuration_HTML.html#454,454,1517,772,1366,768,9-3-2022,9-9-43,131,depth_duration_stimuli/002725_2014-06-22_11-47-51_094959634447_rgbf000070-resize_1/002725_2014-06-22_11-47-51_094959634447_rgbf000070-resize_1-target.png,125,2.195,5,3967,118,feet,jsons/VE125_randls_57.json,750428,992000,43,Woman
131,286959,DepthScenes,duration_manipulation_targetAtFixation,jsons/VE125_randls_57.json,http://54.235.29.9/FacialAge/BNav_EC2/DepthDuration/v2_depth_duration_MTurk/v2_DepthDuration_HTML.html#454,454,1517,772,1366,768,9-3-2022,9-9-43,132,depth_duration_stimuli/002344_2014-06-28_20-06-29_260595134347_rgbf000030-resize_1/002344_2014-06-28_20-06-29_260595134347_rgbf000030-resize_1-target.png,125,1.5795,2,3591,124,feet,jsons/VE125_randls_57.json,750428,992000,43,Woman
132,286959,DepthScenes,duration_manipulation_targetAtFixation,jsons/VE125_randls_57.json,http://54.235.29.9/FacialAge/BNav_EC2/DepthDuration/v2_depth_duration_MTurk/v2_DepthDuration_HTML.html#454,454,1517,772,1366,768,9-3-2022,9-9-43,133,depth_duration_stimuli/001167_2014-06-17_15-38-07_260595134347_rgbf000108-resize_0/001167_2014-06-17_15-38-07_260595134347_rgbf000108-resize_0-target.png,125,1.8505,3,3703,123,feet,jsons/VE125_randls_57.json,750428,992000,43,Woman
133,286959,DepthScenes,duration_manipulation_targetAtFixation,jsons/VE125_randls_57.json,http://54.235.29.9/FacialAge/BNav_EC2/DepthDuration/v2_depth_duration_MTurk/v2_DepthDuration_HTML.html#454,454,1517,772,1366,768,9-3-2022,9-9-43,134,depth_duration_stimuli/003587_2014-05-23_16-48-02_094959634447_rgbf002384-resize_2/003587_2014-05-23_16-48-02_094959634447_rgbf002384-resize_2-target.png,125,1.357,2,3333,133,feet,jsons/VE125_randls_57.json,750428,992000,43,Woman
134,286959,DepthScenes,duration_manipulation_targetAtFixation,jsons/VE125_randls_57.json,http://54.235.29.9/FacialAge/BNav_EC2/DepthDuration/v2_depth_duration_MTurk/v2_DepthDuration_HTML.html#454,454,1517,772,1366,768,9-3-2022,9-9-43,135,depth_duration_stimuli/002072_2014-06-24_21-48-06_260595134347_rgbf000115-resize_0/002072_2014-06-24_21-48-06_260595134347_rgbf000115-resize-original.jpg,125,4.702,0,3626,120,feet,jsons/VE125_randls_57.json,750428,992000,43,Woman
135,286959,DepthScenes,duration_manipulation_targetAtFixation,jsons/VE125_randls_57.json,http://54.235.29.9/FacialAge/BNav_EC2/DepthDuration/v2_depth_duration_MTurk/v2_DepthDuration_HTML.html#454,454,1517,772,1366,768,9-3-2022,9-9-43,136,depth_duration_stimuli/001164_2014-06-17_15-35-46_260595134347_rgbf000085-resize_3/001164_2014-06-17_15-35-46_260595134347_rgbf000085-resize_3-target.png,125,2.354,5,4089,126,feet,jsons/VE125_randls_57.json,750428,992000,43,Woman
136,286959,DepthScenes,duration_manipulation_targetAtFixation,jsons/VE125_randls_57.json,http://54.235.29.9/FacialAge/BNav_EC2/DepthDuration/v2_depth_duration_MTurk/v2_DepthDuration_HTML.html#454,454,1517,772,1366,768,9-3-2022,9-9-43,137,depth_duration_stimuli/001136_2014-06-17_15-19-41_260595134347_rgbf000076-resize_3/001136_2014-06-17_15-19-41_260595134347_rgbf000076-resize_3-target.png,125,1.8655,8,3036,127,feet,jsons/VE125_randls_57.json,750428,992000,43,Woman
137,286959,DepthScenes,duration_manipulation_targetAtFixation,jsons/VE125_randls_57.json,http://54.235.29.9/FacialAge/BNav_EC2/DepthDuration/v2_depth_duration_MTurk/v2_DepthDuration_HTML.html#454,454,1517,772,1366,768,9-3-2022,9-9-43,138,depth_duration_stimuli/001066_2014-06-08_22-03-20_260595134347_rgbf000066-resize_4/001066_2014-06-08_22-03-20_260595134347_rgbf000066-resize_4-target.png,125,4.2330000000000005,12,3726,136,feet,jsons/VE125_randls_57.json,750428,992000,43,Woman
138,286959,DepthScenes,duration_manipulation_targetAtFixation,jsons/VE125_randls_57.json,http://54.235.29.9/FacialAge/BNav_EC2/DepthDuration/v2_depth_duration_MTurk/v2_DepthDuration_HTML.html#454,454,1517,772,1366,768,9-3-2022,9-9-43,139,depth_duration_stimuli/000742_2014-06-08_18-48-09_260595134347_rgbf000164-resize_4/000742_2014-06-08_18-48-09_260595134347_rgbf000164-resize_4-target.png,125,4.632,10,3443,121,feet,jsons/VE125_randls_57.json,750428,992000,43,Woman
139,286959,DepthScenes,duration_manipulation_targetAtFixation,jsons/VE125_randls_57.json,http://54.235.29.9/FacialAge/BNav_EC2/DepthDuration/v2_depth_duration_MTurk/v2_DepthDuration_HTML.html#454,454,1517,772,1366,768,9-3-2022,9-9-43,140,depth_duration_stimuli/003621_2014-05-23_18-06-08_094959634447_rgbf000101-resize_1/003621_2014-05-23_18-06-08_094959634447_rgbf000101-resize_1-target.png,125,3.9835,12,4405,126,feet,jsons/VE125_randls_57.json,750428,992000,43,Woman
140,286959,DepthScenes,duration_manipulation_targetAtFixation,jsons/VE125_randls_57.json,http://54.235.29.9/FacialAge/BNav_EC2/DepthDuration/v2_depth_duration_MTurk/v2_DepthDuration_HTML.html#454,454,1517,772,1366,768,9-3-2022,9-9-43,141,depth_duration_stimuli/001584_2014-06-20_11-07-43_260595134347_rgbf000002-resize_1/001584_2014-06-20_11-07-43_260595134347_rgbf000002-resize_1-target.png,125,3.53,9,3424,125,feet,jsons/VE125_randls_57.json,750428,992000,43,Woman
141,286959,DepthScenes,duration_manipulation_targetAtFixation,jsons/VE125_randls_57.json,http://54.235.29.9/FacialAge/BNav_EC2/DepthDuration/v2_depth_duration_MTurk/v2_DepthDuration_HTML.html#454,454,1517,772,1366,768,9-3-2022,9-9-43,142,depth_duration_stimuli/001449_2014-06-19_17-01-27_260595134347_rgbf000116-resize_2/001449_2014-06-19_17-01-27_260595134347_rgbf000116-resize_2-target.png,125,3.452,8,3327,126,feet,jsons/VE125_randls_57.json,750428,992000,43,Woman
142,286959,DepthScenes,duration_manipulation_targetAtFixation,jsons/VE125_randls_57.json,http://54.235.29.9/FacialAge/BNav_EC2/DepthDuration/v2_depth_duration_MTurk/v2_DepthDuration_HTML.html#454,454,1517,772,1366,768,9-3-2022,9-9-43,143,depth_duration_stimuli/001450_2014-06-19_17-02-03_260595134347_rgbf000203-resize_4/001450_2014-06-19_17-02-03_260595134347_rgbf000203-resize_4-target.png,125,4.0106666666667,7,4849,121,feet,jsons/VE125_randls_57.json,750428,992000,43,Woman
143,286959,DepthScenes,duration_manipulation_targetAtFixation,jsons/VE125_randls_57.json,http://54.235.29.9/FacialAge/BNav_EC2/DepthDuration/v2_depth_duration_MTurk/v2_DepthDuration_HTML.html#454,454,1517,772,1366,768,9-3-2022,9-9-43,144,depth_duration_stimuli/001133_2014-06-17_14-49-16_260595134347_rgbf000100-resize_0/001133_2014-06-17_14-49-16_260595134347_rgbf000100-resize_0-target.png,125,4.2115,8,3222,121,feet,jsons/VE125_randls_57.json,750428,992000,43,Woman
144,286959,DepthScenes,duration_manipulation_targetAtFixation,jsons/VE125_randls_57.json,http://54.235.29.9/FacialAge/BNav_EC2/DepthDuration/v2_depth_duration_MTurk/v2_DepthDuration_HTML.html#454,454,1517,772,1366,768,9-3-2022,9-9-43,145,depth_duration_stimuli/001132_2014-06-17_14-48-54_260595134347_rgbf000100-resize_2/001132_2014-06-17_14-48-54_260595134347_rgbf000100-resize_2-target.png,125,3.753,10,3711,121,feet,jsons/VE125_randls_57.json,750428,992000,43,Woman
145,286959,DepthScenes,duration_manipulation_targetAtFixation,jsons/VE125_randls_57.json,http://54.235.29.9/FacialAge/BNav_EC2/DepthDuration/v2_depth_duration_MTurk/v2_DepthDuration_HTML.html#454,454,1517,772,1366,768,9-3-2022,9-9-43,146,depth_duration_stimuli/001498_2014-06-19_17-45-14_260595134347_rgbf000129-resize_4/001498_2014-06-19_17-45-14_260595134347_rgbf000129-resize-original.jpg,125,1.4075,0,2866,122,feet,jsons/VE125_randls_57.json,750428,992000,43,Woman
146,286959,DepthScenes,duration_manipulation_targetAtFixation,jsons/VE125_randls_57.json,http://54.235.29.9/FacialAge/BNav_EC2/DepthDuration/v2_depth_duration_MTurk/v2_DepthDuration_HTML.html#454,454,1517,772,1366,768,9-3-2022,9-9-43,147,depth_duration_stimuli/000692_2014-06-08_13-09-42_260595134347_rgbf000199-resize_2/000692_2014-06-08_13-09-42_260595134347_rgbf000199-resize_2-target.png,125,3.661,12,3716,121,feet,jsons/VE125_randls_57.json,750428,992000,43,Woman
147,286959,DepthScenes,duration_manipulation_targetAtFixation,jsons/VE125_randls_57.json,http://54.235.29.9/FacialAge/BNav_EC2/DepthDuration/v2_depth_duration_MTurk/v2_DepthDuration_HTML.html#454,454,1517,772,1366,768,9-3-2022,9-9-43,148,depth_duration_stimuli/001094_2014-06-15_17-36-00_260595134347_rgbf000205-resize_0/001094_2014-06-15_17-36-00_260595134347_rgbf000205-resize_0-target.png,125,4.2175,6,4017,124,feet,jsons/VE125_randls_57.json,750428,992000,43,Woman
148,286959,DepthScenes,duration_manipulation_targetAtFixation,jsons/VE125_randls_57.json,http://54.235.29.9/FacialAge/BNav_EC2/DepthDuration/v2_depth_duration_MTurk/v2_DepthDuration_HTML.html#454,454,1517,772,1366,768,9-3-2022,9-9-43,149,depth_duration_stimuli/000642_2014-06-08_16-59-25_260595134347_rgbf000098-resize_2/000642_2014-06-08_16-59-25_260595134347_rgbf000098-resize_2-target.png,125,2.8815,5,3009,121,feet,jsons/VE125_randls_57.json,750428,992000,43,Woman
149,286959,DepthScenes,duration_manipulation_targetAtFixation,jsons/VE125_randls_57.json,http://54.235.29.9/FacialAge/BNav_EC2/DepthDuration/v2_depth_duration_MTurk/v2_DepthDuration_HTML.html#454,454,1517,772,1366,768,9-3-2022,9-9-43,150,depth_duration_stimuli/002425_2014-06-28_20-27-29_260595134347_rgbf000031-resize_8/002425_2014-06-28_20-27-29_260595134347_rgbf000031-resize_8-target.png,125,3.8960000000000004,11,3457,123,feet,jsons/VE125_randls_57.json,750428,992000,43,Woman
150,286959,DepthScenes,duration_manipulation_targetAtFixation,jsons/VE125_randls_57.json,http://54.235.29.9/FacialAge/BNav_EC2/DepthDuration/v2_depth_duration_MTurk/v2_DepthDuration_HTML.html#454,454,1517,772,1366,768,9-3-2022,9-9-43,151,depth_duration_stimuli/002989_2014-06-15_12-25-03_094959634447_rgbf000150-resize_3/002989_2014-06-15_12-25-03_094959634447_rgbf000150-resize_3-target.png,125,4.1975,14,3713,116,feet,jsons/VE125_randls_57.json,750428,992000,43,Woman
151,286959,DepthScenes,duration_manipulation_targetAtFixation,jsons/VE125_randls_57.json,http://54.235.29.9/FacialAge/BNav_EC2/DepthDuration/v2_depth_duration_MTurk/v2_DepthDuration_HTML.html#454,454,1517,772,1366,768,9-3-2022,9-9-43,152,depth_duration_stimuli/000866_2014-06-09_20-45-42_260595134347_rgbf000139-resize_1/000866_2014-06-09_20-45-42_260595134347_rgbf000139-resize_1-target.png,125,3.2155,8,3158,124,feet,jsons/VE125_randls_57.json,750428,992000,43,Woman
152,286959,DepthScenes,duration_manipulation_targetAtFixation,jsons/VE125_randls_57.json,http://54.235.29.9/FacialAge/BNav_EC2/DepthDuration/v2_depth_duration_MTurk/v2_DepthDuration_HTML.html#454,454,1517,772,1366,768,9-3-2022,9-9-43,153,depth_duration_stimuli/000758_2014-06-08_22-05-08_260595134347_rgbf000085-resize_0/000758_2014-06-08_22-05-08_260595134347_rgbf000085-resize_0-target.png,125,3.3810000000000002,8,3401,125,feet,jsons/VE125_randls_57.json,750428,992000,43,Woman
153,286959,DepthScenes,duration_manipulation_targetAtFixation,jsons/VE125_randls_57.json,http://54.235.29.9/FacialAge/BNav_EC2/DepthDuration/v2_depth_duration_MTurk/v2_DepthDuration_HTML.html#454,454,1517,772,1366,768,9-3-2022,9-9-43,154,depth_duration_stimuli/000854_2014-06-09_19-43-13_260595134347_rgbf000066-resize_0/000854_2014-06-09_19-43-13_260595134347_rgbf000066-resize_0-target.png,125,3.068,3,4586,125,feet,jsons/VE125_randls_57.json,750428,992000,43,Woman
154,286959,DepthScenes,duration_manipulation_targetAtFixation,jsons/VE125_randls_57.json,http://54.235.29.9/FacialAge/BNav_EC2/DepthDuration/v2_depth_duration_MTurk/v2_DepthDuration_HTML.html#454,454,1517,772,1366,768,9-3-2022,9-9-43,155,depth_duration_stimuli/000736_2014-06-08_18-24-15_260595134347_rgbf000206-resize_3/000736_2014-06-08_18-24-15_260595134347_rgbf000206-resize_3-target.png,125,3.515,4,4533,116,feet,jsons/VE125_randls_57.json,750428,992000,43,Woman
155,286959,DepthScenes,duration_manipulation_targetAtFixation,jsons/VE125_randls_57.json,http://54.235.29.9/FacialAge/BNav_EC2/DepthDuration/v2_depth_duration_MTurk/v2_DepthDuration_HTML.html#454,454,1517,772,1366,768,9-3-2022,9-9-43,156,depth_duration_stimuli/000137_2014-05-20_17-04-49_260595134347_rgbf000120-resize_1/000137_2014-05-20_17-04-49_260595134347_rgbf000120-resize_1-target.png,125,3.786,7,3355,110,feet,jsons/VE125_randls_57.json,750428,992000,43,Woman
156,286959,DepthScenes,duration_manipulation_targetAtFixation,jsons/VE125_randls_57.json,http://54.235.29.9/FacialAge/BNav_EC2/DepthDuration/v2_depth_duration_MTurk/v2_DepthDuration_HTML.html#454,454,1517,772,1366,768,9-3-2022,9-9-43,157,depth_duration_stimuli/002213_2014-06-28_18-37-58_260595134347_rgbf000055-resize_1/002213_2014-06-28_18-37-58_260595134347_rgbf000055-resize_1-target.png,125,3.62,9,6075,123,feet,jsons/VE125_randls_57.json,750428,992000,43,Woman
157,286959,DepthScenes,duration_manipulation_targetAtFixation,jsons/VE125_randls_57.json,http://54.235.29.9/FacialAge/BNav_EC2/DepthDuration/v2_depth_duration_MTurk/v2_DepthDuration_HTML.html#454,454,1517,772,1366,768,9-3-2022,9-9-43,158,depth_duration_stimuli/000691_2014-06-08_13-08-50_260595134347_rgbf000132-resize_3/000691_2014-06-08_13-08-50_260595134347_rgbf000132-resize_3-target.png,125,4.1530000000000005,6,3441,129,feet,jsons/VE125_randls_57.json,750428,992000,43,Woman
158,286959,DepthScenes,duration_manipulation_targetAtFixation,jsons/VE125_randls_57.json,http://54.235.29.9/FacialAge/BNav_EC2/DepthDuration/v2_depth_duration_MTurk/v2_DepthDuration_HTML.html#454,454,1517,772,1366,768,9-3-2022,9-9-43,159,depth_duration_stimuli/002964_2014-06-08_17-46-11_094959634447_rgbf000091-resize_4/002964_2014-06-08_17-46-11_094959634447_rgbf000091-resize_4-target.png,125,1.6909999999999998,2,3034,143,feet,jsons/VE125_randls_57.json,750428,992000,43,Woman
159,286959,DepthScenes,duration_manipulation_targetAtFixation,jsons/VE125_randls_57.json,http://54.235.29.9/FacialAge/BNav_EC2/DepthDuration/v2_depth_duration_MTurk/v2_DepthDuration_HTML.html#454,454,1517,772,1366,768,9-3-2022,9-9-43,160,depth_duration_stimuli/002136_2014-06-25_21-18-03_260595134347_rgbf000109-resize_3/002136_2014-06-25_21-18-03_260595134347_rgbf000109-resize_3-target.png,125,1.9569999999999999,3,4777,127,feet,jsons/VE125_randls_57.json,750428,992000,43,Woman
160,286959,DepthScenes,duration_manipulation_targetAtFixation,jsons/VE125_randls_57.json,http://54.235.29.9/FacialAge/BNav_EC2/DepthDuration/v2_depth_duration_MTurk/v2_DepthDuration_HTML.html#454,454,1517,772,1366,768,9-3-2022,9-9-43,161,depth_duration_stimuli/000917_2014-06-09_22-45-29_260595134347_rgbf000149-resize_3/000917_2014-06-09_22-45-29_260595134347_rgbf000149-resize_3-target.png,125,4.1865,6,3185,123,feet,jsons/VE125_randls_57.json,750428,992000,43,Woman
161,286959,DepthScenes,duration_manipulation_targetAtFixation,jsons/VE125_randls_57.json,http://54.235.29.9/FacialAge/BNav_EC2/DepthDuration/v2_depth_duration_MTurk/v2_DepthDuration_HTML.html#454,454,1517,772,1366,768,9-3-2022,9-9-43,162,depth_duration_stimuli/002323_2014-06-28_20-01-54_260595134347_rgbf000051-resize_4/002323_2014-06-28_20-01-54_260595134347_rgbf000051-resize_4-target.png,125,3.7310000000000003,8,3996,129,feet,jsons/VE125_randls_57.json,750428,992000,43,Woman
162,286959,DepthScenes,duration_manipulation_targetAtFixation,jsons/VE125_randls_57.json,http://54.235.29.9/FacialAge/BNav_EC2/DepthDuration/v2_depth_duration_MTurk/v2_DepthDuration_HTML.html#454,454,1517,772,1366,768,9-3-2022,9-9-43,163,depth_duration_stimuli/002043_2014-06-24_20-29-38_260595134347_rgbf000039-resize_4/002043_2014-06-24_20-29-38_260595134347_rgbf000039-resize_4-target.png,125,2.8435,6,3241,122,feet,jsons/VE125_randls_57.json,750428,992000,43,Woman
163,286959,DepthScenes,duration_manipulation_targetAtFixation,jsons/VE125_randls_57.json,http://54.235.29.9/FacialAge/BNav_EC2/DepthDuration/v2_depth_duration_MTurk/v2_DepthDuration_HTML.html#454,454,1517,772,1366,768,9-3-2022,9-9-43,164,depth_duration_stimuli/003048_2014-06-15_13-49-43_094959634447_rgbf000150-resize_1/003048_2014-06-15_13-49-43_094959634447_rgbf000150-resize_1-target.png,125,4.0035,10,3479,141,feet,jsons/VE125_randls_57.json,750428,992000,43,Woman
