,subjID,experimentName,versionName,sequenceName,url,selected_row,windowWidth,windowHeight,screenWidth,screenHeight,startDate,startTime,trial,stimulus,duration,actual_depth,depth_estimate,trial_RT,log_sceneDuration,unitSelection,seq_filepath,experimentTime,totalTime,age,gender
0,287135,DepthScenes,duration_manipulation_targetAtFixation,jsons/v1_VE1000_randls_71_rotated.json,http://54.235.29.9/FacialAge/BNav_EC2/DepthDuration/v2_depth_duration_MTurk/v2_DepthDuration_HTML.html#64,64,1366,625,1366,768,8-22-2022,7-58-25,1,depth_duration_stimuli/003228_2014-05-14_13-42-35_094959634447_rgbf000101-resize_1/003228_2014-05-14_13-42-35_094959634447_rgbf000101-resize_1-target.png,1000,1.9680000000000002,10,5502,1019,feet,jsons/v1_VE1000_randls_71_rotated.json,859919,1237336,56,Man
1,287135,DepthScenes,duration_manipulation_targetAtFixation,jsons/v1_VE1000_randls_71_rotated.json,http://54.235.29.9/FacialAge/BNav_EC2/DepthDuration/v2_depth_duration_MTurk/v2_DepthDuration_HTML.html#64,64,1366,625,1366,768,8-22-2022,7-58-25,2,depth_duration_stimuli/002600_2014-06-24_14-27-04_094959634447_rgbf000074-resize_2/002600_2014-06-24_14-27-04_094959634447_rgbf000074-resize_2-target.png,1000,2.7575,5,6584,998,feet,jsons/v1_VE1000_randls_71_rotated.json,859919,1237336,56,Man
2,287135,DepthScenes,duration_manipulation_targetAtFixation,jsons/v1_VE1000_randls_71_rotated.json,http://54.235.29.9/FacialAge/BNav_EC2/DepthDuration/v2_depth_duration_MTurk/v2_DepthDuration_HTML.html#64,64,1366,625,1366,768,8-22-2022,7-58-25,3,depth_duration_stimuli/002805_2014-06-22_19-54-03_094959634447_rgbf000079-resize_1/002805_2014-06-22_19-54-03_094959634447_rgbf000079-resize_1-target.png,1000,3.1439999999999997,5,4993,997,feet,jsons/v1_VE1000_randls_71_rotated.json,859919,1237336,56,Man
3,287135,DepthScenes,duration_manipulation_targetAtFixation,jsons/v1_VE1000_randls_71_rotated.json,http://54.235.29.9/FacialAge/BNav_EC2/DepthDuration/v2_depth_duration_MTurk/v2_DepthDuration_HTML.html#64,64,1366,625,1366,768,8-22-2022,7-58-25,4,depth_duration_stimuli/000906_2014-06-08_13-35-43_260595134347_rgbf000155-resize_1/000906_2014-06-08_13-35-43_260595134347_rgbf000155-resize_1-target.png,1000,2.8489999999999998,30,4607,1000,feet,jsons/v1_VE1000_randls_71_rotated.json,859919,1237336,56,Man
4,287135,DepthScenes,duration_manipulation_targetAtFixation,jsons/v1_VE1000_randls_71_rotated.json,http://54.235.29.9/FacialAge/BNav_EC2/DepthDuration/v2_depth_duration_MTurk/v2_DepthDuration_HTML.html#64,64,1366,625,1366,768,8-22-2022,7-58-25,5,depth_duration_stimuli/001052_2014-06-08_18-24-54_260595134347_rgbf000130-resize_1/001052_2014-06-08_18-24-54_260595134347_rgbf000130-resize_1-target.png,1000,4.1045,40,5793,995,feet,jsons/v1_VE1000_randls_71_rotated.json,859919,1237336,56,Man
5,287135,DepthScenes,duration_manipulation_targetAtFixation,jsons/v1_VE1000_randls_71_rotated.json,http://54.235.29.9/FacialAge/BNav_EC2/DepthDuration/v2_depth_duration_MTurk/v2_DepthDuration_HTML.html#64,64,1366,625,1366,768,8-22-2022,7-58-25,6,depth_duration_stimuli/002988_2014-06-15_12-24-20_094959634447_rgbf000150-resize_1/002988_2014-06-15_12-24-20_094959634447_rgbf000150-resize_1-target.png,1000,4.7669999999999995,40,11010,988,feet,jsons/v1_VE1000_randls_71_rotated.json,859919,1237336,56,Man
6,287135,DepthScenes,duration_manipulation_targetAtFixation,jsons/v1_VE1000_randls_71_rotated.json,http://54.235.29.9/FacialAge/BNav_EC2/DepthDuration/v2_depth_duration_MTurk/v2_DepthDuration_HTML.html#64,64,1366,625,1366,768,8-22-2022,7-58-25,7,depth_duration_stimuli/000677_2014-06-08_23-10-32_260595134347_rgbf000158-resize_6/000677_2014-06-08_23-10-32_260595134347_rgbf000158-resize_6-target.png,1000,3.556,30,5000,989,feet,jsons/v1_VE1000_randls_71_rotated.json,859919,1237336,56,Man
7,287135,DepthScenes,duration_manipulation_targetAtFixation,jsons/v1_VE1000_randls_71_rotated.json,http://54.235.29.9/FacialAge/BNav_EC2/DepthDuration/v2_depth_duration_MTurk/v2_DepthDuration_HTML.html#64,64,1366,625,1366,768,8-22-2022,7-58-25,8,depth_duration_stimuli/001029_2014-06-08_13-17-57_260595134347_rgbf000065-resize_1/001029_2014-06-08_13-17-57_260595134347_rgbf000065-resize_1-target.png,1000,3.0835,20,7669,997,feet,jsons/v1_VE1000_randls_71_rotated.json,859919,1237336,56,Man
8,287135,DepthScenes,duration_manipulation_targetAtFixation,jsons/v1_VE1000_randls_71_rotated.json,http://54.235.29.9/FacialAge/BNav_EC2/DepthDuration/v2_depth_duration_MTurk/v2_DepthDuration_HTML.html#64,64,1366,625,1366,768,8-22-2022,7-58-25,9,depth_duration_stimuli/000780_2014-06-08_22-28-29_260595134347_rgbf000126-resize_1/000780_2014-06-08_22-28-29_260595134347_rgbf000126-resize_1-target.png,1000,3.3825,40,6048,999,feet,jsons/v1_VE1000_randls_71_rotated.json,859919,1237336,56,Man
9,287135,DepthScenes,duration_manipulation_targetAtFixation,jsons/v1_VE1000_randls_71_rotated.json,http://54.235.29.9/FacialAge/BNav_EC2/DepthDuration/v2_depth_duration_MTurk/v2_DepthDuration_HTML.html#64,64,1366,625,1366,768,8-22-2022,7-58-25,10,depth_duration_stimuli/002445_2014-06-28_20-32-16_260595134347_rgbf000029-resize_4/002445_2014-06-28_20-32-16_260595134347_rgbf000029-resize_4-target.png,1000,2.5315,20,4750,993,feet,jsons/v1_VE1000_randls_71_rotated.json,859919,1237336,56,Man
10,287135,DepthScenes,duration_manipulation_targetAtFixation,jsons/v1_VE1000_randls_71_rotated.json,http://54.235.29.9/FacialAge/BNav_EC2/DepthDuration/v2_depth_duration_MTurk/v2_DepthDuration_HTML.html#64,64,1366,625,1366,768,8-22-2022,7-58-25,11,depth_duration_stimuli/003048_2014-06-15_13-49-43_094959634447_rgbf000150-resize_1/003048_2014-06-15_13-49-43_094959634447_rgbf000150-resize_1-target.png,1000,4.0035,40,5019,1013,feet,jsons/v1_VE1000_randls_71_rotated.json,859919,1237336,56,Man
11,287135,DepthScenes,duration_manipulation_targetAtFixation,jsons/v1_VE1000_randls_71_rotated.json,http://54.235.29.9/FacialAge/BNav_EC2/DepthDuration/v2_depth_duration_MTurk/v2_DepthDuration_HTML.html#64,64,1366,625,1366,768,8-22-2022,7-58-25,12,depth_duration_stimuli/002043_2014-06-24_20-29-38_260595134347_rgbf000039-resize_4/002043_2014-06-24_20-29-38_260595134347_rgbf000039-resize_4-target.png,1000,2.8435,30,4964,994,feet,jsons/v1_VE1000_randls_71_rotated.json,859919,1237336,56,Man
12,287135,DepthScenes,duration_manipulation_targetAtFixation,jsons/v1_VE1000_randls_71_rotated.json,http://54.235.29.9/FacialAge/BNav_EC2/DepthDuration/v2_depth_duration_MTurk/v2_DepthDuration_HTML.html#64,64,1366,625,1366,768,8-22-2022,7-58-25,13,depth_duration_stimuli/002344_2014-06-28_20-06-29_260595134347_rgbf000030-resize_1/002344_2014-06-28_20-06-29_260595134347_rgbf000030-resize_1-target.png,1000,1.5795,20,4862,988,feet,jsons/v1_VE1000_randls_71_rotated.json,859919,1237336,56,Man
13,287135,DepthScenes,duration_manipulation_targetAtFixation,jsons/v1_VE1000_randls_71_rotated.json,http://54.235.29.9/FacialAge/BNav_EC2/DepthDuration/v2_depth_duration_MTurk/v2_DepthDuration_HTML.html#64,64,1366,625,1366,768,8-22-2022,7-58-25,14,depth_duration_stimuli/002725_2014-06-22_11-47-51_094959634447_rgbf000070-resize_1/002725_2014-06-22_11-47-51_094959634447_rgbf000070-resize_1-target.png,1000,2.195,40,5272,993,feet,jsons/v1_VE1000_randls_71_rotated.json,859919,1237336,56,Man
14,287135,DepthScenes,duration_manipulation_targetAtFixation,jsons/v1_VE1000_randls_71_rotated.json,http://54.235.29.9/FacialAge/BNav_EC2/DepthDuration/v2_depth_duration_MTurk/v2_DepthDuration_HTML.html#64,64,1366,625,1366,768,8-22-2022,7-58-25,15,depth_duration_stimuli/000709_2014-06-08_13-51-55_260595134347_rgbf000068-resize_3/000709_2014-06-08_13-51-55_260595134347_rgbf000068-resize_3-target.png,1000,1.8030000000000002,30,4911,1003,feet,jsons/v1_VE1000_randls_71_rotated.json,859919,1237336,56,Man
15,287135,DepthScenes,duration_manipulation_targetAtFixation,jsons/v1_VE1000_randls_71_rotated.json,http://54.235.29.9/FacialAge/BNav_EC2/DepthDuration/v2_depth_duration_MTurk/v2_DepthDuration_HTML.html#64,64,1366,625,1366,768,8-22-2022,7-58-25,16,depth_duration_stimuli/002057_2014-06-24_21-00-13_260595134347_rgbf000120-resize_1/002057_2014-06-24_21-00-13_260595134347_rgbf000120-resize_1-target.png,1000,2.967,40,5012,987,feet,jsons/v1_VE1000_randls_71_rotated.json,859919,1237336,56,Man
16,287135,DepthScenes,duration_manipulation_targetAtFixation,jsons/v1_VE1000_randls_71_rotated.json,http://54.235.29.9/FacialAge/BNav_EC2/DepthDuration/v2_depth_duration_MTurk/v2_DepthDuration_HTML.html#64,64,1366,625,1366,768,8-22-2022,7-58-25,17,depth_duration_stimuli/001815_2014-06-26_20-52-55_260595134347_rgbf000020-resize_0/001815_2014-06-26_20-52-55_260595134347_rgbf000020-resize_0-target.png,1000,3.3865,40,5590,999,feet,jsons/v1_VE1000_randls_71_rotated.json,859919,1237336,56,Man
17,287135,DepthScenes,duration_manipulation_targetAtFixation,jsons/v1_VE1000_randls_71_rotated.json,http://54.235.29.9/FacialAge/BNav_EC2/DepthDuration/v2_depth_duration_MTurk/v2_DepthDuration_HTML.html#64,64,1366,625,1366,768,8-22-2022,7-58-25,18,depth_duration_stimuli/001808_2014-06-26_20-50-58_260595134347_rgbf000029-resize_1/001808_2014-06-26_20-50-58_260595134347_rgbf000029-resize_1-target.png,1000,4.249,30,4807,997,feet,jsons/v1_VE1000_randls_71_rotated.json,859919,1237336,56,Man
18,287135,DepthScenes,duration_manipulation_targetAtFixation,jsons/v1_VE1000_randls_71_rotated.json,http://54.235.29.9/FacialAge/BNav_EC2/DepthDuration/v2_depth_duration_MTurk/v2_DepthDuration_HTML.html#64,64,1366,625,1366,768,8-22-2022,7-58-25,19,depth_duration_stimuli/001498_2014-06-19_17-45-14_260595134347_rgbf000129-resize_4/001498_2014-06-19_17-45-14_260595134347_rgbf000129-resize-original.jpg,1000,1.4075,0,4900,992,feet,jsons/v1_VE1000_randls_71_rotated.json,859919,1237336,56,Man
19,287135,DepthScenes,duration_manipulation_targetAtFixation,jsons/v1_VE1000_randls_71_rotated.json,http://54.235.29.9/FacialAge/BNav_EC2/DepthDuration/v2_depth_duration_MTurk/v2_DepthDuration_HTML.html#64,64,1366,625,1366,768,8-22-2022,7-58-25,20,depth_duration_stimuli/003423_2014-05-21_10-23-26_094959634447_rgbf002665-resize_2/003423_2014-05-21_10-23-26_094959634447_rgbf002665-resize_2-target.png,1000,3.2575,20,4953,1028,feet,jsons/v1_VE1000_randls_71_rotated.json,859919,1237336,56,Man
20,287135,DepthScenes,duration_manipulation_targetAtFixation,jsons/v1_VE1000_randls_71_rotated.json,http://54.235.29.9/FacialAge/BNav_EC2/DepthDuration/v2_depth_duration_MTurk/v2_DepthDuration_HTML.html#64,64,1366,625,1366,768,8-22-2022,7-58-25,21,depth_duration_stimuli/002905_2014-06-03_18-04-43_094959634447_rgbf000151-resize_2/002905_2014-06-03_18-04-43_094959634447_rgbf000151-resize_2-target.png,1000,2.0295,40,5227,1005,feet,jsons/v1_VE1000_randls_71_rotated.json,859919,1237336,56,Man
21,287135,DepthScenes,duration_manipulation_targetAtFixation,jsons/v1_VE1000_randls_71_rotated.json,http://54.235.29.9/FacialAge/BNav_EC2/DepthDuration/v2_depth_duration_MTurk/v2_DepthDuration_HTML.html#64,64,1366,625,1366,768,8-22-2022,7-58-25,22,depth_duration_stimuli/001094_2014-06-15_17-36-00_260595134347_rgbf000205-resize_0/001094_2014-06-15_17-36-00_260595134347_rgbf000205-resize_0-target.png,1000,4.2175,40,5051,984,feet,jsons/v1_VE1000_randls_71_rotated.json,859919,1237336,56,Man
22,287135,DepthScenes,duration_manipulation_targetAtFixation,jsons/v1_VE1000_randls_71_rotated.json,http://54.235.29.9/FacialAge/BNav_EC2/DepthDuration/v2_depth_duration_MTurk/v2_DepthDuration_HTML.html#64,64,1366,625,1366,768,8-22-2022,7-58-25,23,depth_duration_stimuli/000692_2014-06-08_13-09-42_260595134347_rgbf000199-resize_2/000692_2014-06-08_13-09-42_260595134347_rgbf000199-resize_2-target.png,1000,3.661,5,5808,996,feet,jsons/v1_VE1000_randls_71_rotated.json,859919,1237336,56,Man
23,287135,DepthScenes,duration_manipulation_targetAtFixation,jsons/v1_VE1000_randls_71_rotated.json,http://54.235.29.9/FacialAge/BNav_EC2/DepthDuration/v2_depth_duration_MTurk/v2_DepthDuration_HTML.html#64,64,1366,625,1366,768,8-22-2022,7-58-25,24,depth_duration_stimuli/000409_2014-06-04_19-23-33_260595134347_rgbf000067-resize_0/000409_2014-06-04_19-23-33_260595134347_rgbf000067-resize_0-target.png,1000,3.7335,3,4283,984,feet,jsons/v1_VE1000_randls_71_rotated.json,859919,1237336,56,Man
24,287135,DepthScenes,duration_manipulation_targetAtFixation,jsons/v1_VE1000_randls_71_rotated.json,http://54.235.29.9/FacialAge/BNav_EC2/DepthDuration/v2_depth_duration_MTurk/v2_DepthDuration_HTML.html#64,64,1366,625,1366,768,8-22-2022,7-58-25,25,depth_duration_stimuli/002663_2014-06-13_15-50-26_094959634447_rgbf000075-resize_1/002663_2014-06-13_15-50-26_094959634447_rgbf000075-resize_1-target.png,1000,4.7495,10,4675,1001,feet,jsons/v1_VE1000_randls_71_rotated.json,859919,1237336,56,Man
25,287135,DepthScenes,duration_manipulation_targetAtFixation,jsons/v1_VE1000_randls_71_rotated.json,http://54.235.29.9/FacialAge/BNav_EC2/DepthDuration/v2_depth_duration_MTurk/v2_DepthDuration_HTML.html#64,64,1366,625,1366,768,8-22-2022,7-58-25,26,depth_duration_stimuli/000749_2014-06-08_21-55-06_260595134347_rgbf000070-resize_2/000749_2014-06-08_21-55-06_260595134347_rgbf000070-resize_2-target.png,1000,2.331,2,5351,993,feet,jsons/v1_VE1000_randls_71_rotated.json,859919,1237336,56,Man
26,287135,DepthScenes,duration_manipulation_targetAtFixation,jsons/v1_VE1000_randls_71_rotated.json,http://54.235.29.9/FacialAge/BNav_EC2/DepthDuration/v2_depth_duration_MTurk/v2_DepthDuration_HTML.html#64,64,1366,625,1366,768,8-22-2022,7-58-25,27,depth_duration_stimuli/002788_2014-06-22_19-36-03_094959634447_rgbf000088-resize_2/002788_2014-06-22_19-36-03_094959634447_rgbf000088-resize_2-target.png,1000,1.6465,5,4362,995,feet,jsons/v1_VE1000_randls_71_rotated.json,859919,1237336,56,Man
27,287135,DepthScenes,duration_manipulation_targetAtFixation,jsons/v1_VE1000_randls_71_rotated.json,http://54.235.29.9/FacialAge/BNav_EC2/DepthDuration/v2_depth_duration_MTurk/v2_DepthDuration_HTML.html#64,64,1366,625,1366,768,8-22-2022,7-58-25,28,depth_duration_stimuli/001617_2014-06-20_11-35-32_260595134347_rgbf000066-resize_1/001617_2014-06-20_11-35-32_260595134347_rgbf000066-resize_1-target.png,1000,3.7910000000000004,40,6159,1006,feet,jsons/v1_VE1000_randls_71_rotated.json,859919,1237336,56,Man
28,287135,DepthScenes,duration_manipulation_targetAtFixation,jsons/v1_VE1000_randls_71_rotated.json,http://54.235.29.9/FacialAge/BNav_EC2/DepthDuration/v2_depth_duration_MTurk/v2_DepthDuration_HTML.html#64,64,1366,625,1366,768,8-22-2022,7-58-25,29,depth_duration_stimuli/001806_2014-06-26_20-50-20_260595134347_rgbf000091-resize_1/001806_2014-06-26_20-50-20_260595134347_rgbf000091-resize_1-target.png,1000,2.7305,5,3858,1003,feet,jsons/v1_VE1000_randls_71_rotated.json,859919,1237336,56,Man
29,287135,DepthScenes,duration_manipulation_targetAtFixation,jsons/v1_VE1000_randls_71_rotated.json,http://54.235.29.9/FacialAge/BNav_EC2/DepthDuration/v2_depth_duration_MTurk/v2_DepthDuration_HTML.html#64,64,1366,625,1366,768,8-22-2022,7-58-25,30,depth_duration_stimuli/002072_2014-06-24_21-48-06_260595134347_rgbf000115-resize_0/002072_2014-06-24_21-48-06_260595134347_rgbf000115-resize-original.jpg,1000,4.702,0,4157,999,feet,jsons/v1_VE1000_randls_71_rotated.json,859919,1237336,56,Man
30,287135,DepthScenes,duration_manipulation_targetAtFixation,jsons/v1_VE1000_randls_71_rotated.json,http://54.235.29.9/FacialAge/BNav_EC2/DepthDuration/v2_depth_duration_MTurk/v2_DepthDuration_HTML.html#64,64,1366,625,1366,768,8-22-2022,7-58-25,31,depth_duration_stimuli/001214_2014-06-17_16-13-55_260595134347_rgbf000111-resize_0/001214_2014-06-17_16-13-55_260595134347_rgbf000111-resize_0-target.png,1000,2.6505,3,4209,997,feet,jsons/v1_VE1000_randls_71_rotated.json,859919,1237336,56,Man
31,287135,DepthScenes,duration_manipulation_targetAtFixation,jsons/v1_VE1000_randls_71_rotated.json,http://54.235.29.9/FacialAge/BNav_EC2/DepthDuration/v2_depth_duration_MTurk/v2_DepthDuration_HTML.html#64,64,1366,625,1366,768,8-22-2022,7-58-25,32,depth_duration_stimuli/000810_2014-06-08_17-20-01_260595134347_rgbf000105-resize_0/000810_2014-06-08_17-20-01_260595134347_rgbf000105-resize_0-target.png,1000,1.4865,40,4824,980,feet,jsons/v1_VE1000_randls_71_rotated.json,859919,1237336,56,Man
32,287135,DepthScenes,duration_manipulation_targetAtFixation,jsons/v1_VE1000_randls_71_rotated.json,http://54.235.29.9/FacialAge/BNav_EC2/DepthDuration/v2_depth_duration_MTurk/v2_DepthDuration_HTML.html#64,64,1366,625,1366,768,8-22-2022,7-58-25,33,depth_duration_stimuli/003587_2014-05-23_16-48-02_094959634447_rgbf002384-resize_2/003587_2014-05-23_16-48-02_094959634447_rgbf002384-resize_2-target.png,1000,1.357,20,4085,1006,feet,jsons/v1_VE1000_randls_71_rotated.json,859919,1237336,56,Man
33,287135,DepthScenes,duration_manipulation_targetAtFixation,jsons/v1_VE1000_randls_71_rotated.json,http://54.235.29.9/FacialAge/BNav_EC2/DepthDuration/v2_depth_duration_MTurk/v2_DepthDuration_HTML.html#64,64,1366,625,1366,768,8-22-2022,7-58-25,34,depth_duration_stimuli/001167_2014-06-17_15-38-07_260595134347_rgbf000108-resize_0/001167_2014-06-17_15-38-07_260595134347_rgbf000108-resize_0-target.png,1000,1.8505,20,5570,1001,feet,jsons/v1_VE1000_randls_71_rotated.json,859919,1237336,56,Man
34,287135,DepthScenes,duration_manipulation_targetAtFixation,jsons/v1_VE1000_randls_71_rotated.json,http://54.235.29.9/FacialAge/BNav_EC2/DepthDuration/v2_depth_duration_MTurk/v2_DepthDuration_HTML.html#64,64,1366,625,1366,768,8-22-2022,7-58-25,35,depth_duration_stimuli/001650_2014-06-20_12-09-00_260595134347_rgbf000087-resize_3/001650_2014-06-20_12-09-00_260595134347_rgbf000087-resize_3-target.png,1000,1.9505,30,4754,1078,feet,jsons/v1_VE1000_randls_71_rotated.json,859919,1237336,56,Man
35,287135,DepthScenes,duration_manipulation_targetAtFixation,jsons/v1_VE1000_randls_71_rotated.json,http://54.235.29.9/FacialAge/BNav_EC2/DepthDuration/v2_depth_duration_MTurk/v2_DepthDuration_HTML.html#64,64,1366,625,1366,768,8-22-2022,7-58-25,36,depth_duration_stimuli/000682_2014-06-08_23-14-58_260595134347_rgbf000041-resize_5/000682_2014-06-08_23-14-58_260595134347_rgbf000041-resize_5-target.png,1000,2.7239999999999998,20,4459,989,feet,jsons/v1_VE1000_randls_71_rotated.json,859919,1237336,56,Man
36,287135,DepthScenes,duration_manipulation_targetAtFixation,jsons/v1_VE1000_randls_71_rotated.json,http://54.235.29.9/FacialAge/BNav_EC2/DepthDuration/v2_depth_duration_MTurk/v2_DepthDuration_HTML.html#64,64,1366,625,1366,768,8-22-2022,7-58-25,37,depth_duration_stimuli/000742_2014-06-08_18-48-09_260595134347_rgbf000164-resize_4/000742_2014-06-08_18-48-09_260595134347_rgbf000164-resize_4-target.png,1000,4.632,30,4849,987,feet,jsons/v1_VE1000_randls_71_rotated.json,859919,1237336,56,Man
37,287135,DepthScenes,duration_manipulation_targetAtFixation,jsons/v1_VE1000_randls_71_rotated.json,http://54.235.29.9/FacialAge/BNav_EC2/DepthDuration/v2_depth_duration_MTurk/v2_DepthDuration_HTML.html#64,64,1366,625,1366,768,8-22-2022,7-58-25,38,depth_duration_stimuli/001066_2014-06-08_22-03-20_260595134347_rgbf000066-resize_4/001066_2014-06-08_22-03-20_260595134347_rgbf000066-resize_4-target.png,1000,4.2330000000000005,20,4360,999,feet,jsons/v1_VE1000_randls_71_rotated.json,859919,1237336,56,Man
38,287135,DepthScenes,duration_manipulation_targetAtFixation,jsons/v1_VE1000_randls_71_rotated.json,http://54.235.29.9/FacialAge/BNav_EC2/DepthDuration/v2_depth_duration_MTurk/v2_DepthDuration_HTML.html#64,64,1366,625,1366,768,8-22-2022,7-58-25,39,depth_duration_stimuli/001392_2014-06-19_16-07-59_260595134347_rgbf000046-resize_1/001392_2014-06-19_16-07-59_260595134347_rgbf000046-resize_1-target.png,1000,4.135,20,10110,1002,feet,jsons/v1_VE1000_randls_71_rotated.json,859919,1237336,56,Man
39,287135,DepthScenes,duration_manipulation_targetAtFixation,jsons/v1_VE1000_randls_71_rotated.json,http://54.235.29.9/FacialAge/BNav_EC2/DepthDuration/v2_depth_duration_MTurk/v2_DepthDuration_HTML.html#64,64,1366,625,1366,768,8-22-2022,7-58-25,40,depth_duration_stimuli/001570_2014-06-20_17-21-09_260595134347_rgbf000135-resize_4/001570_2014-06-20_17-21-09_260595134347_rgbf000135-resize_4-target.png,1000,4.467,30,4122,998,feet,jsons/v1_VE1000_randls_71_rotated.json,859919,1237336,56,Man
40,287135,DepthScenes,duration_manipulation_targetAtFixation,jsons/v1_VE1000_randls_71_rotated.json,http://54.235.29.9/FacialAge/BNav_EC2/DepthDuration/v2_depth_duration_MTurk/v2_DepthDuration_HTML.html#64,64,1366,625,1366,768,8-22-2022,7-58-25,41,depth_duration_stimuli/002678_2014-06-13_16-15-32_094959634447_rgbf000151-resize_6/002678_2014-06-13_16-15-32_094959634447_rgbf000151-resize_6-target.png,1000,2.1830000000000003,20,3691,1005,feet,jsons/v1_VE1000_randls_71_rotated.json,859919,1237336,56,Man
41,287135,DepthScenes,duration_manipulation_targetAtFixation,jsons/v1_VE1000_randls_71_rotated.json,http://54.235.29.9/FacialAge/BNav_EC2/DepthDuration/v2_depth_duration_MTurk/v2_DepthDuration_HTML.html#64,64,1366,625,1366,768,8-22-2022,7-58-25,42,depth_duration_stimuli/000368_2014-06-09_15-53-01_260595134347_rgbf000155-resize_2/000368_2014-06-09_15-53-01_260595134347_rgbf000155-resize_2-target.png,1000,2.4859999999999998,20,4187,1006,feet,jsons/v1_VE1000_randls_71_rotated.json,859919,1237336,56,Man
42,287135,DepthScenes,duration_manipulation_targetAtFixation,jsons/v1_VE1000_randls_71_rotated.json,http://54.235.29.9/FacialAge/BNav_EC2/DepthDuration/v2_depth_duration_MTurk/v2_DepthDuration_HTML.html#64,64,1366,625,1366,768,8-22-2022,7-58-25,43,depth_duration_stimuli/002953_2014-06-08_17-32-18_094959634447_rgbf000059-resize_5/002953_2014-06-08_17-32-18_094959634447_rgbf000059-resize_5-target.png,1000,1.551,20,6001,992,feet,jsons/v1_VE1000_randls_71_rotated.json,859919,1237336,56,Man
43,287135,DepthScenes,duration_manipulation_targetAtFixation,jsons/v1_VE1000_randls_71_rotated.json,http://54.235.29.9/FacialAge/BNav_EC2/DepthDuration/v2_depth_duration_MTurk/v2_DepthDuration_HTML.html#64,64,1366,625,1366,768,8-22-2022,7-58-25,44,depth_duration_stimuli/000878_2014-06-08_22-52-45_260595134347_rgbf000045-resize_2/000878_2014-06-08_22-52-45_260595134347_rgbf000045-resize_2-target.png,1000,2.092,30,4473,1036,feet,jsons/v1_VE1000_randls_71_rotated.json,859919,1237336,56,Man
44,287135,DepthScenes,duration_manipulation_targetAtFixation,jsons/v1_VE1000_randls_71_rotated.json,http://54.235.29.9/FacialAge/BNav_EC2/DepthDuration/v2_depth_duration_MTurk/v2_DepthDuration_HTML.html#64,64,1366,625,1366,768,8-22-2022,7-58-25,45,depth_duration_stimuli/000549_2014-06-08_22-10-24_260595134347_rgbf000247-resize_3/000549_2014-06-08_22-10-24_260595134347_rgbf000247-resize_3-target.png,1000,1.841,20,4223,992,feet,jsons/v1_VE1000_randls_71_rotated.json,859919,1237336,56,Man
45,287135,DepthScenes,duration_manipulation_targetAtFixation,jsons/v1_VE1000_randls_71_rotated.json,http://54.235.29.9/FacialAge/BNav_EC2/DepthDuration/v2_depth_duration_MTurk/v2_DepthDuration_HTML.html#64,64,1366,625,1366,768,8-22-2022,7-58-25,46,depth_duration_stimuli/001055_2014-06-08_18-45-35_260595134347_rgbf000111-resize_4/001055_2014-06-08_18-45-35_260595134347_rgbf000111-resize_4-target.png,1000,2.4290000000000003,30,4597,945,feet,jsons/v1_VE1000_randls_71_rotated.json,859919,1237336,56,Man
46,287135,DepthScenes,duration_manipulation_targetAtFixation,jsons/v1_VE1000_randls_71_rotated.json,http://54.235.29.9/FacialAge/BNav_EC2/DepthDuration/v2_depth_duration_MTurk/v2_DepthDuration_HTML.html#64,64,1366,625,1366,768,8-22-2022,7-58-25,47,depth_duration_stimuli/001447_2014-06-19_17-00-32_260595134347_rgbf000082-resize_5/001447_2014-06-19_17-00-32_260595134347_rgbf000082-resize_5-target.png,1000,4.13775,40,4182,1007,feet,jsons/v1_VE1000_randls_71_rotated.json,859919,1237336,56,Man
47,287135,DepthScenes,duration_manipulation_targetAtFixation,jsons/v1_VE1000_randls_71_rotated.json,http://54.235.29.9/FacialAge/BNav_EC2/DepthDuration/v2_depth_duration_MTurk/v2_DepthDuration_HTML.html#64,64,1366,625,1366,768,8-22-2022,7-58-25,48,depth_duration_stimuli/000447_2014-06-08_16-15-46_260595134347_rgbf000130-resize_1/000447_2014-06-08_16-15-46_260595134347_rgbf000130-resize_1-target.png,1000,4.479,50,4161,988,feet,jsons/v1_VE1000_randls_71_rotated.json,859919,1237336,56,Man
48,287135,DepthScenes,duration_manipulation_targetAtFixation,jsons/v1_VE1000_randls_71_rotated.json,http://54.235.29.9/FacialAge/BNav_EC2/DepthDuration/v2_depth_duration_MTurk/v2_DepthDuration_HTML.html#64,64,1366,625,1366,768,8-22-2022,7-58-25,49,depth_duration_stimuli/001170_2014-06-17_15-43-44_260595134347_rgbf000096-resize_6/001170_2014-06-17_15-43-44_260595134347_rgbf000096-resize-original.jpg,1000,1.1909999999999998,0,3813,1001,feet,jsons/v1_VE1000_randls_71_rotated.json,859919,1237336,56,Man
49,287135,DepthScenes,duration_manipulation_targetAtFixation,jsons/v1_VE1000_randls_71_rotated.json,http://54.235.29.9/FacialAge/BNav_EC2/DepthDuration/v2_depth_duration_MTurk/v2_DepthDuration_HTML.html#64,64,1366,625,1366,768,8-22-2022,7-58-25,50,depth_duration_stimuli/002425_2014-06-28_20-27-29_260595134347_rgbf000031-resize_8/002425_2014-06-28_20-27-29_260595134347_rgbf000031-resize_8-target.png,1000,3.8960000000000004,20,3720,1006,feet,jsons/v1_VE1000_randls_71_rotated.json,859919,1237336,56,Man
50,287135,DepthScenes,duration_manipulation_targetAtFixation,jsons/v1_VE1000_randls_71_rotated.json,http://54.235.29.9/FacialAge/BNav_EC2/DepthDuration/v2_depth_duration_MTurk/v2_DepthDuration_HTML.html#64,64,1366,625,1366,768,8-22-2022,7-58-25,51,depth_duration_stimuli/000642_2014-06-08_16-59-25_260595134347_rgbf000098-resize_2/000642_2014-06-08_16-59-25_260595134347_rgbf000098-resize_2-target.png,1000,2.8815,30,3817,1004,feet,jsons/v1_VE1000_randls_71_rotated.json,859919,1237336,56,Man
51,287135,DepthScenes,duration_manipulation_targetAtFixation,jsons/v1_VE1000_randls_71_rotated.json,http://54.235.29.9/FacialAge/BNav_EC2/DepthDuration/v2_depth_duration_MTurk/v2_DepthDuration_HTML.html#64,64,1366,625,1366,768,8-22-2022,7-58-25,52,depth_duration_stimuli/003079_2014-06-15_15-18-20_094959634447_rgbf000152-resize_8/003079_2014-06-15_15-18-20_094959634447_rgbf000152-resize_8-target.png,1000,2.8775,50,4366,987,feet,jsons/v1_VE1000_randls_71_rotated.json,859919,1237336,56,Man
52,287135,DepthScenes,duration_manipulation_targetAtFixation,jsons/v1_VE1000_randls_71_rotated.json,http://54.235.29.9/FacialAge/BNav_EC2/DepthDuration/v2_depth_duration_MTurk/v2_DepthDuration_HTML.html#64,64,1366,625,1366,768,8-22-2022,7-58-25,53,depth_duration_stimuli/000506_2014-06-08_23-21-00_260595134347_rgbf000070-resize_7/000506_2014-06-08_23-21-00_260595134347_rgbf000070-resize_7-target.png,1000,4.0585,50,3907,988,feet,jsons/v1_VE1000_randls_71_rotated.json,859919,1237336,56,Man
53,287135,DepthScenes,duration_manipulation_targetAtFixation,jsons/v1_VE1000_randls_71_rotated.json,http://54.235.29.9/FacialAge/BNav_EC2/DepthDuration/v2_depth_duration_MTurk/v2_DepthDuration_HTML.html#64,64,1366,625,1366,768,8-22-2022,7-58-25,54,depth_duration_stimuli/002136_2014-06-25_21-18-03_260595134347_rgbf000109-resize_3/002136_2014-06-25_21-18-03_260595134347_rgbf000109-resize_3-target.png,1000,1.9569999999999999,40,4187,997,feet,jsons/v1_VE1000_randls_71_rotated.json,859919,1237336,56,Man
54,287135,DepthScenes,duration_manipulation_targetAtFixation,jsons/v1_VE1000_randls_71_rotated.json,http://54.235.29.9/FacialAge/BNav_EC2/DepthDuration/v2_depth_duration_MTurk/v2_DepthDuration_HTML.html#64,64,1366,625,1366,768,8-22-2022,7-58-25,55,depth_duration_stimuli/002964_2014-06-08_17-46-11_094959634447_rgbf000091-resize_4/002964_2014-06-08_17-46-11_094959634447_rgbf000091-resize_4-target.png,1000,1.6909999999999998,20,3933,986,feet,jsons/v1_VE1000_randls_71_rotated.json,859919,1237336,56,Man
55,287135,DepthScenes,duration_manipulation_targetAtFixation,jsons/v1_VE1000_randls_71_rotated.json,http://54.235.29.9/FacialAge/BNav_EC2/DepthDuration/v2_depth_duration_MTurk/v2_DepthDuration_HTML.html#64,64,1366,625,1366,768,8-22-2022,7-58-25,56,depth_duration_stimuli/002467_2014-06-28_20-38-07_260595134347_rgbf000026-resize_2/002467_2014-06-28_20-38-07_260595134347_rgbf000026-resize_2-target.png,1000,4.742,40,5877,997,feet,jsons/v1_VE1000_randls_71_rotated.json,859919,1237336,56,Man
56,287135,DepthScenes,duration_manipulation_targetAtFixation,jsons/v1_VE1000_randls_71_rotated.json,http://54.235.29.9/FacialAge/BNav_EC2/DepthDuration/v2_depth_duration_MTurk/v2_DepthDuration_HTML.html#64,64,1366,625,1366,768,8-22-2022,7-58-25,57,depth_duration_stimuli/002570_2014-06-24_13-59-54_094959634447_rgbf000059-resize_0/002570_2014-06-24_13-59-54_094959634447_rgbf000059-resize_0-target.png,1000,4.037,40,5838,1001,feet,jsons/v1_VE1000_randls_71_rotated.json,859919,1237336,56,Man
57,287135,DepthScenes,duration_manipulation_targetAtFixation,jsons/v1_VE1000_randls_71_rotated.json,http://54.235.29.9/FacialAge/BNav_EC2/DepthDuration/v2_depth_duration_MTurk/v2_DepthDuration_HTML.html#64,64,1366,625,1366,768,8-22-2022,7-58-25,58,depth_duration_stimuli/000635_2014-06-08_16-38-42_260595134347_rgbf000106-resize_1/000635_2014-06-08_16-38-42_260595134347_rgbf000106-resize_1-target.png,1000,2.074,40,4310,994,feet,jsons/v1_VE1000_randls_71_rotated.json,859919,1237336,56,Man
58,287135,DepthScenes,duration_manipulation_targetAtFixation,jsons/v1_VE1000_randls_71_rotated.json,http://54.235.29.9/FacialAge/BNav_EC2/DepthDuration/v2_depth_duration_MTurk/v2_DepthDuration_HTML.html#64,64,1366,625,1366,768,8-22-2022,7-58-25,59,depth_duration_stimuli/002279_2014-06-28_18-55-32_260595134347_rgbf000040-resize_5/002279_2014-06-28_18-55-32_260595134347_rgbf000040-resize_5-target.png,1000,1.5043333333333,20,4343,997,feet,jsons/v1_VE1000_randls_71_rotated.json,859919,1237336,56,Man
59,287135,DepthScenes,duration_manipulation_targetAtFixation,jsons/v1_VE1000_randls_71_rotated.json,http://54.235.29.9/FacialAge/BNav_EC2/DepthDuration/v2_depth_duration_MTurk/v2_DepthDuration_HTML.html#64,64,1366,625,1366,768,8-22-2022,7-58-25,60,depth_duration_stimuli/003338_2014-05-20_11-01-23_094959634447_rgbf000051-resize_6/003338_2014-05-20_11-01-23_094959634447_rgbf000051-resize_6-target.png,1000,1.693,30,4325,1005,feet,jsons/v1_VE1000_randls_71_rotated.json,859919,1237336,56,Man
60,287135,DepthScenes,duration_manipulation_targetAtFixation,jsons/v1_VE1000_randls_71_rotated.json,http://54.235.29.9/FacialAge/BNav_EC2/DepthDuration/v2_depth_duration_MTurk/v2_DepthDuration_HTML.html#64,64,1366,625,1366,768,8-22-2022,7-58-25,61,depth_duration_stimuli/002509_2014-06-24_13-19-22_094959634447_rgbf000077-resize_0/002509_2014-06-24_13-19-22_094959634447_rgbf000077-resize_0-target.png,1000,1.3065,20,3895,991,feet,jsons/v1_VE1000_randls_71_rotated.json,859919,1237336,56,Man
61,287135,DepthScenes,duration_manipulation_targetAtFixation,jsons/v1_VE1000_randls_71_rotated.json,http://54.235.29.9/FacialAge/BNav_EC2/DepthDuration/v2_depth_duration_MTurk/v2_DepthDuration_HTML.html#64,64,1366,625,1366,768,8-22-2022,7-58-25,62,depth_duration_stimuli/000191_2014-05-12_17-07-38_260595134347_rgbf000199-resize_0/000191_2014-05-12_17-07-38_260595134347_rgbf000199-resize_0-target.png,1000,3.7995,30,4516,1000,feet,jsons/v1_VE1000_randls_71_rotated.json,859919,1237336,56,Man
62,287135,DepthScenes,duration_manipulation_targetAtFixation,jsons/v1_VE1000_randls_71_rotated.json,http://54.235.29.9/FacialAge/BNav_EC2/DepthDuration/v2_depth_duration_MTurk/v2_DepthDuration_HTML.html#64,64,1366,625,1366,768,8-22-2022,7-58-25,63,depth_duration_stimuli/000493_2014-06-09_21-01-18_260595134347_rgbf000196-resize_3/000493_2014-06-09_21-01-18_260595134347_rgbf000196-resize_3-target.png,1000,3.44,20,4733,1014,feet,jsons/v1_VE1000_randls_71_rotated.json,859919,1237336,56,Man
63,287135,DepthScenes,duration_manipulation_targetAtFixation,jsons/v1_VE1000_randls_71_rotated.json,http://54.235.29.9/FacialAge/BNav_EC2/DepthDuration/v2_depth_duration_MTurk/v2_DepthDuration_HTML.html#64,64,1366,625,1366,768,8-22-2022,7-58-25,64,depth_duration_stimuli/000691_2014-06-08_13-08-50_260595134347_rgbf000132-resize_3/000691_2014-06-08_13-08-50_260595134347_rgbf000132-resize_3-target.png,1000,4.1530000000000005,40,4401,992,feet,jsons/v1_VE1000_randls_71_rotated.json,859919,1237336,56,Man
64,287135,DepthScenes,duration_manipulation_targetAtFixation,jsons/v1_VE1000_randls_71_rotated.json,http://54.235.29.9/FacialAge/BNav_EC2/DepthDuration/v2_depth_duration_MTurk/v2_DepthDuration_HTML.html#64,64,1366,625,1366,768,8-22-2022,7-58-25,65,depth_duration_stimuli/002213_2014-06-28_18-37-58_260595134347_rgbf000055-resize_1/002213_2014-06-28_18-37-58_260595134347_rgbf000055-resize_1-target.png,1000,3.62,50,4151,1000,feet,jsons/v1_VE1000_randls_71_rotated.json,859919,1237336,56,Man
65,287135,DepthScenes,duration_manipulation_targetAtFixation,jsons/v1_VE1000_randls_71_rotated.json,http://54.235.29.9/FacialAge/BNav_EC2/DepthDuration/v2_depth_duration_MTurk/v2_DepthDuration_HTML.html#64,64,1366,625,1366,768,8-22-2022,7-58-25,66,depth_duration_stimuli/001540_2014-06-20_17-01-05_260595134347_rgbf000086-resize_2/001540_2014-06-20_17-01-05_260595134347_rgbf000086-resize-original.jpg,1000,1.459,0,3869,1000,feet,jsons/v1_VE1000_randls_71_rotated.json,859919,1237336,56,Man
66,287135,DepthScenes,duration_manipulation_targetAtFixation,jsons/v1_VE1000_randls_71_rotated.json,http://54.235.29.9/FacialAge/BNav_EC2/DepthDuration/v2_depth_duration_MTurk/v2_DepthDuration_HTML.html#64,64,1366,625,1366,768,8-22-2022,7-58-25,67,depth_duration_stimuli/000137_2014-05-20_17-04-49_260595134347_rgbf000120-resize_1/000137_2014-05-20_17-04-49_260595134347_rgbf000120-resize_1-target.png,1000,3.786,40,4133,997,feet,jsons/v1_VE1000_randls_71_rotated.json,859919,1237336,56,Man
67,287135,DepthScenes,duration_manipulation_targetAtFixation,jsons/v1_VE1000_randls_71_rotated.json,http://54.235.29.9/FacialAge/BNav_EC2/DepthDuration/v2_depth_duration_MTurk/v2_DepthDuration_HTML.html#64,64,1366,625,1366,768,8-22-2022,7-58-25,68,depth_duration_stimuli/000736_2014-06-08_18-24-15_260595134347_rgbf000206-resize_3/000736_2014-06-08_18-24-15_260595134347_rgbf000206-resize_3-target.png,1000,3.515,30,4145,1064,feet,jsons/v1_VE1000_randls_71_rotated.json,859919,1237336,56,Man
68,287135,DepthScenes,duration_manipulation_targetAtFixation,jsons/v1_VE1000_randls_71_rotated.json,http://54.235.29.9/FacialAge/BNav_EC2/DepthDuration/v2_depth_duration_MTurk/v2_DepthDuration_HTML.html#64,64,1366,625,1366,768,8-22-2022,7-58-25,69,depth_duration_stimuli/001100_2014-06-15_17-46-26_260595134347_rgbf000225-resize_2/001100_2014-06-15_17-46-26_260595134347_rgbf000225-resize_2-target.png,1000,2.24,20,3999,989,feet,jsons/v1_VE1000_randls_71_rotated.json,859919,1237336,56,Man
69,287135,DepthScenes,duration_manipulation_targetAtFixation,jsons/v1_VE1000_randls_71_rotated.json,http://54.235.29.9/FacialAge/BNav_EC2/DepthDuration/v2_depth_duration_MTurk/v2_DepthDuration_HTML.html#64,64,1366,625,1366,768,8-22-2022,7-58-25,70,depth_duration_stimuli/002784_2014-06-22_19-26-30_094959634447_rgbf000083-resize_3/002784_2014-06-22_19-26-30_094959634447_rgbf000083-resize_3-target.png,1000,1.8046666666667,20,3904,1008,feet,jsons/v1_VE1000_randls_71_rotated.json,859919,1237336,56,Man
70,287135,DepthScenes,duration_manipulation_targetAtFixation,jsons/v1_VE1000_randls_71_rotated.json,http://54.235.29.9/FacialAge/BNav_EC2/DepthDuration/v2_depth_duration_MTurk/v2_DepthDuration_HTML.html#64,64,1366,625,1366,768,8-22-2022,7-58-25,71,depth_duration_stimuli/001032_2014-06-08_13-23-17_260595134347_rgbf000021-resize_3/001032_2014-06-08_13-23-17_260595134347_rgbf000021-resize_3-target.png,1000,3.2725,30,4244,966,feet,jsons/v1_VE1000_randls_71_rotated.json,859919,1237336,56,Man
71,287135,DepthScenes,duration_manipulation_targetAtFixation,jsons/v1_VE1000_randls_71_rotated.json,http://54.235.29.9/FacialAge/BNav_EC2/DepthDuration/v2_depth_duration_MTurk/v2_DepthDuration_HTML.html#64,64,1366,625,1366,768,8-22-2022,7-58-25,72,depth_duration_stimuli/001059_2014-06-08_21-53-27_260595134347_rgbf000061-resize_4/001059_2014-06-08_21-53-27_260595134347_rgbf000061-resize_4-target.png,1000,2.4185,20,4031,1009,feet,jsons/v1_VE1000_randls_71_rotated.json,859919,1237336,56,Man
72,287135,DepthScenes,duration_manipulation_targetAtFixation,jsons/v1_VE1000_randls_71_rotated.json,http://54.235.29.9/FacialAge/BNav_EC2/DepthDuration/v2_depth_duration_MTurk/v2_DepthDuration_HTML.html#64,64,1366,625,1366,768,8-22-2022,7-58-25,73,depth_duration_stimuli/002414_2014-06-28_20-24-58_260595134347_rgbf000067-resize_4/002414_2014-06-28_20-24-58_260595134347_rgbf000067-resize_4-target.png,1000,4.363,30,4126,1006,feet,jsons/v1_VE1000_randls_71_rotated.json,859919,1237336,56,Man
73,287135,DepthScenes,duration_manipulation_targetAtFixation,jsons/v1_VE1000_randls_71_rotated.json,http://54.235.29.9/FacialAge/BNav_EC2/DepthDuration/v2_depth_duration_MTurk/v2_DepthDuration_HTML.html#64,64,1366,625,1366,768,8-22-2022,7-58-25,74,depth_duration_stimuli/000773_2014-06-08_22-24-54_260595134347_rgbf000093-resize_1/000773_2014-06-08_22-24-54_260595134347_rgbf000093-resize_1-target.png,1000,4.973,20,4051,988,feet,jsons/v1_VE1000_randls_71_rotated.json,859919,1237336,56,Man
74,287135,DepthScenes,duration_manipulation_targetAtFixation,jsons/v1_VE1000_randls_71_rotated.json,http://54.235.29.9/FacialAge/BNav_EC2/DepthDuration/v2_depth_duration_MTurk/v2_DepthDuration_HTML.html#64,64,1366,625,1366,768,8-22-2022,7-58-25,75,depth_duration_stimuli/003081_2014-06-15_15-19-16_094959634447_rgbf000150-resize_1/003081_2014-06-15_15-19-16_094959634447_rgbf000150-resize_1-target.png,1000,3.9125,30,4083,985,feet,jsons/v1_VE1000_randls_71_rotated.json,859919,1237336,56,Man
75,287135,DepthScenes,duration_manipulation_targetAtFixation,jsons/v1_VE1000_randls_71_rotated.json,http://54.235.29.9/FacialAge/BNav_EC2/DepthDuration/v2_depth_duration_MTurk/v2_DepthDuration_HTML.html#64,64,1366,625,1366,768,8-22-2022,7-58-25,76,depth_duration_stimuli/001417_2014-06-19_16-25-36_260595134347_rgbf000115-resize_5/001417_2014-06-19_16-25-36_260595134347_rgbf000115-resize_5-target.png,1000,4.6255,40,4200,999,feet,jsons/v1_VE1000_randls_71_rotated.json,859919,1237336,56,Man
76,287135,DepthScenes,duration_manipulation_targetAtFixation,jsons/v1_VE1000_randls_71_rotated.json,http://54.235.29.9/FacialAge/BNav_EC2/DepthDuration/v2_depth_duration_MTurk/v2_DepthDuration_HTML.html#64,64,1366,625,1366,768,8-22-2022,7-58-25,77,depth_duration_stimuli/000502_2014-06-08_23-02-32_260595134347_rgbf000063-resize_4/000502_2014-06-08_23-02-32_260595134347_rgbf000063-resize_4-target.png,1000,2.431,30,4442,973,feet,jsons/v1_VE1000_randls_71_rotated.json,859919,1237336,56,Man
77,287135,DepthScenes,duration_manipulation_targetAtFixation,jsons/v1_VE1000_randls_71_rotated.json,http://54.235.29.9/FacialAge/BNav_EC2/DepthDuration/v2_depth_duration_MTurk/v2_DepthDuration_HTML.html#64,64,1366,625,1366,768,8-22-2022,7-58-25,78,depth_duration_stimuli/001199_2014-06-17_16-03-48_260595134347_rgbf000077-resize_0/001199_2014-06-17_16-03-48_260595134347_rgbf000077-resize_0-target.png,1000,3.4375,40,4790,992,feet,jsons/v1_VE1000_randls_71_rotated.json,859919,1237336,56,Man
78,287135,DepthScenes,duration_manipulation_targetAtFixation,jsons/v1_VE1000_randls_71_rotated.json,http://54.235.29.9/FacialAge/BNav_EC2/DepthDuration/v2_depth_duration_MTurk/v2_DepthDuration_HTML.html#64,64,1366,625,1366,768,8-22-2022,7-58-25,79,depth_duration_stimuli/003129_2014-05-12_10-48-10_094959634447_rgbf000100-resize_0/003129_2014-05-12_10-48-10_094959634447_rgbf000100-resize_0-target.png,1000,4.9305,30,4166,989,feet,jsons/v1_VE1000_randls_71_rotated.json,859919,1237336,56,Man
79,287135,DepthScenes,duration_manipulation_targetAtFixation,jsons/v1_VE1000_randls_71_rotated.json,http://54.235.29.9/FacialAge/BNav_EC2/DepthDuration/v2_depth_duration_MTurk/v2_DepthDuration_HTML.html#64,64,1366,625,1366,768,8-22-2022,7-58-25,80,depth_duration_stimuli/000414_2014-06-04_19-49-13_260595134347_rgbf000044-resize_0/000414_2014-06-04_19-49-13_260595134347_rgbf000044-resize_0-target.png,1000,4.329,30,4285,991,feet,jsons/v1_VE1000_randls_71_rotated.json,859919,1237336,56,Man
80,287135,DepthScenes,duration_manipulation_targetAtFixation,jsons/v1_VE1000_randls_71_rotated.json,http://54.235.29.9/FacialAge/BNav_EC2/DepthDuration/v2_depth_duration_MTurk/v2_DepthDuration_HTML.html#64,64,1366,625,1366,768,8-22-2022,7-58-25,81,depth_duration_stimuli/001450_2014-06-19_17-02-03_260595134347_rgbf000203-resize_4/001450_2014-06-19_17-02-03_260595134347_rgbf000203-resize_4-target.png,1000,4.0106666666667,30,4016,1001,feet,jsons/v1_VE1000_randls_71_rotated.json,859919,1237336,56,Man
81,287135,DepthScenes,duration_manipulation_targetAtFixation,jsons/v1_VE1000_randls_71_rotated.json,http://54.235.29.9/FacialAge/BNav_EC2/DepthDuration/v2_depth_duration_MTurk/v2_DepthDuration_HTML.html#64,64,1366,625,1366,768,8-22-2022,7-58-25,82,depth_duration_stimuli/001449_2014-06-19_17-01-27_260595134347_rgbf000116-resize_2/001449_2014-06-19_17-01-27_260595134347_rgbf000116-resize_2-target.png,1000,3.452,30,4355,980,feet,jsons/v1_VE1000_randls_71_rotated.json,859919,1237336,56,Man
82,287135,DepthScenes,duration_manipulation_targetAtFixation,jsons/v1_VE1000_randls_71_rotated.json,http://54.235.29.9/FacialAge/BNav_EC2/DepthDuration/v2_depth_duration_MTurk/v2_DepthDuration_HTML.html#64,64,1366,625,1366,768,8-22-2022,7-58-25,83,depth_duration_stimuli/002949_2014-06-26_15-57-42_094959634447_rgbf000079-resize_1/002949_2014-06-26_15-57-42_094959634447_rgbf000079-resize_1-target.png,1000,1.8915,20,3895,999,feet,jsons/v1_VE1000_randls_71_rotated.json,859919,1237336,56,Man
83,287135,DepthScenes,duration_manipulation_targetAtFixation,jsons/v1_VE1000_randls_71_rotated.json,http://54.235.29.9/FacialAge/BNav_EC2/DepthDuration/v2_depth_duration_MTurk/v2_DepthDuration_HTML.html#64,64,1366,625,1366,768,8-22-2022,7-58-25,84,depth_duration_stimuli/000522_2014-06-08_13-35-06_260595134347_rgbf000244-resize_1/000522_2014-06-08_13-35-06_260595134347_rgbf000244-resize_1-target.png,1000,2.3715,40,4874,989,feet,jsons/v1_VE1000_randls_71_rotated.json,859919,1237336,56,Man
84,287135,DepthScenes,duration_manipulation_targetAtFixation,jsons/v1_VE1000_randls_71_rotated.json,http://54.235.29.9/FacialAge/BNav_EC2/DepthDuration/v2_depth_duration_MTurk/v2_DepthDuration_HTML.html#64,64,1366,625,1366,768,8-22-2022,7-58-25,85,depth_duration_stimuli/003490_2014-05-21_15-50-11_094959634447_rgbf000101-resize_3/003490_2014-05-21_15-50-11_094959634447_rgbf000101-resize_3-target.png,1000,3.6445,20,3961,1000,feet,jsons/v1_VE1000_randls_71_rotated.json,859919,1237336,56,Man
85,287135,DepthScenes,duration_manipulation_targetAtFixation,jsons/v1_VE1000_randls_71_rotated.json,http://54.235.29.9/FacialAge/BNav_EC2/DepthDuration/v2_depth_duration_MTurk/v2_DepthDuration_HTML.html#64,64,1366,625,1366,768,8-22-2022,7-58-25,86,depth_duration_stimuli/001175_2014-06-17_15-45-55_260595134347_rgbf000129-resize_4/001175_2014-06-17_15-45-55_260595134347_rgbf000129-resize_4-target.png,1000,4.255,30,4431,1002,feet,jsons/v1_VE1000_randls_71_rotated.json,859919,1237336,56,Man
86,287135,DepthScenes,duration_manipulation_targetAtFixation,jsons/v1_VE1000_randls_71_rotated.json,http://54.235.29.9/FacialAge/BNav_EC2/DepthDuration/v2_depth_duration_MTurk/v2_DepthDuration_HTML.html#64,64,1366,625,1366,768,8-22-2022,7-58-25,87,depth_duration_stimuli/000927_2014-06-09_16-32-30_260595134347_rgbf000123-resize_3/000927_2014-06-09_16-32-30_260595134347_rgbf000123-resize_3-target.png,1000,2.6785,3,4197,941,feet,jsons/v1_VE1000_randls_71_rotated.json,859919,1237336,56,Man
87,287135,DepthScenes,duration_manipulation_targetAtFixation,jsons/v1_VE1000_randls_71_rotated.json,http://54.235.29.9/FacialAge/BNav_EC2/DepthDuration/v2_depth_duration_MTurk/v2_DepthDuration_HTML.html#64,64,1366,625,1366,768,8-22-2022,7-58-25,88,depth_duration_stimuli/001110_2014-06-15_17-25-28_260595134347_rgbf000150-resize_1/001110_2014-06-15_17-25-28_260595134347_rgbf000150-resize_1-target.png,1000,1.7115,20,4056,984,feet,jsons/v1_VE1000_randls_71_rotated.json,859919,1237336,56,Man
88,287135,DepthScenes,duration_manipulation_targetAtFixation,jsons/v1_VE1000_randls_71_rotated.json,http://54.235.29.9/FacialAge/BNav_EC2/DepthDuration/v2_depth_duration_MTurk/v2_DepthDuration_HTML.html#64,64,1366,625,1366,768,8-22-2022,7-58-25,89,depth_duration_stimuli/000109_2014-05-14_23-41-52_260595134347_rgbf000035-resize_9/000109_2014-05-14_23-41-52_260595134347_rgbf000035-resize_9-target.png,1000,1.3545,0,4402,996,feet,jsons/v1_VE1000_randls_71_rotated.json,859919,1237336,56,Man
89,287135,DepthScenes,duration_manipulation_targetAtFixation,jsons/v1_VE1000_randls_71_rotated.json,http://54.235.29.9/FacialAge/BNav_EC2/DepthDuration/v2_depth_duration_MTurk/v2_DepthDuration_HTML.html#64,64,1366,625,1366,768,8-22-2022,7-58-25,90,depth_duration_stimuli/000470_2014-06-09_19-42-40_260595134347_rgbf000094-resize_1/000470_2014-06-09_19-42-40_260595134347_rgbf000094-resize_1-target.png,1000,1.831,30,5852,988,feet,jsons/v1_VE1000_randls_71_rotated.json,859919,1237336,56,Man
90,287135,DepthScenes,duration_manipulation_targetAtFixation,jsons/v1_VE1000_randls_71_rotated.json,http://54.235.29.9/FacialAge/BNav_EC2/DepthDuration/v2_depth_duration_MTurk/v2_DepthDuration_HTML.html#64,64,1366,625,1366,768,8-22-2022,7-58-25,91,depth_duration_stimuli/003495_2014-05-21_16-01-51_094959634447_rgbf000100-resize_3/003495_2014-05-21_16-01-51_094959634447_rgbf000100-resize_3-target.png,1000,1.6255,20,3774,999,feet,jsons/v1_VE1000_randls_71_rotated.json,859919,1237336,56,Man
91,287135,DepthScenes,duration_manipulation_targetAtFixation,jsons/v1_VE1000_randls_71_rotated.json,http://54.235.29.9/FacialAge/BNav_EC2/DepthDuration/v2_depth_duration_MTurk/v2_DepthDuration_HTML.html#64,64,1366,625,1366,768,8-22-2022,7-58-25,92,depth_duration_stimuli/001244_2014-06-17_16-47-45_260595134347_rgbf000030-resize_4/001244_2014-06-17_16-47-45_260595134347_rgbf000030-resize_4-target.png,1000,2.0425,30,3884,994,feet,jsons/v1_VE1000_randls_71_rotated.json,859919,1237336,56,Man
92,287135,DepthScenes,duration_manipulation_targetAtFixation,jsons/v1_VE1000_randls_71_rotated.json,http://54.235.29.9/FacialAge/BNav_EC2/DepthDuration/v2_depth_duration_MTurk/v2_DepthDuration_HTML.html#64,64,1366,625,1366,768,8-22-2022,7-58-25,93,depth_duration_stimuli/002340_2014-06-28_20-05-46_260595134347_rgbf000113-resize_0/002340_2014-06-28_20-05-46_260595134347_rgbf000113-resize_0-target.png,1000,2.4735,50,3955,1006,feet,jsons/v1_VE1000_randls_71_rotated.json,859919,1237336,56,Man
93,287135,DepthScenes,duration_manipulation_targetAtFixation,jsons/v1_VE1000_randls_71_rotated.json,http://54.235.29.9/FacialAge/BNav_EC2/DepthDuration/v2_depth_duration_MTurk/v2_DepthDuration_HTML.html#64,64,1366,625,1366,768,8-22-2022,7-58-25,94,depth_duration_stimuli/001016_2014-06-09_16-16-10_260595134347_rgbf000112-resize_5/001016_2014-06-09_16-16-10_260595134347_rgbf000112-resize_5-target.png,1000,1.6565,10,4201,1006,feet,jsons/v1_VE1000_randls_71_rotated.json,859919,1237336,56,Man
94,287135,DepthScenes,duration_manipulation_targetAtFixation,jsons/v1_VE1000_randls_71_rotated.json,http://54.235.29.9/FacialAge/BNav_EC2/DepthDuration/v2_depth_duration_MTurk/v2_DepthDuration_HTML.html#64,64,1366,625,1366,768,8-22-2022,7-58-25,95,depth_duration_stimuli/001136_2014-06-17_15-19-41_260595134347_rgbf000076-resize_3/001136_2014-06-17_15-19-41_260595134347_rgbf000076-resize_3-target.png,1000,1.8655,20,3897,999,feet,jsons/v1_VE1000_randls_71_rotated.json,859919,1237336,56,Man
95,287135,DepthScenes,duration_manipulation_targetAtFixation,jsons/v1_VE1000_randls_71_rotated.json,http://54.235.29.9/FacialAge/BNav_EC2/DepthDuration/v2_depth_duration_MTurk/v2_DepthDuration_HTML.html#64,64,1366,625,1366,768,8-22-2022,7-58-25,96,depth_duration_stimuli/001164_2014-06-17_15-35-46_260595134347_rgbf000085-resize_3/001164_2014-06-17_15-35-46_260595134347_rgbf000085-resize_3-target.png,1000,2.354,30,4237,999,feet,jsons/v1_VE1000_randls_71_rotated.json,859919,1237336,56,Man
96,287135,DepthScenes,duration_manipulation_targetAtFixation,jsons/v1_VE1000_randls_71_rotated.json,http://54.235.29.9/FacialAge/BNav_EC2/DepthDuration/v2_depth_duration_MTurk/v2_DepthDuration_HTML.html#64,64,1366,625,1366,768,8-22-2022,7-58-25,97,depth_duration_stimuli/003083_2014-06-15_15-21-03_094959634447_rgbf000063-resize_1/003083_2014-06-15_15-21-03_094959634447_rgbf000063-resize_1-target.png,1000,4.1405,20,3703,983,feet,jsons/v1_VE1000_randls_71_rotated.json,859919,1237336,56,Man
97,287135,DepthScenes,duration_manipulation_targetAtFixation,jsons/v1_VE1000_randls_71_rotated.json,http://54.235.29.9/FacialAge/BNav_EC2/DepthDuration/v2_depth_duration_MTurk/v2_DepthDuration_HTML.html#64,64,1366,625,1366,768,8-22-2022,7-58-25,98,depth_duration_stimuli/000486_2014-06-09_20-47-20_260595134347_rgbf000143-resize_2/000486_2014-06-09_20-47-20_260595134347_rgbf000143-resize_2-target.png,1000,4.8325,30,3899,1003,feet,jsons/v1_VE1000_randls_71_rotated.json,859919,1237336,56,Man
98,287135,DepthScenes,duration_manipulation_targetAtFixation,jsons/v1_VE1000_randls_71_rotated.json,http://54.235.29.9/FacialAge/BNav_EC2/DepthDuration/v2_depth_duration_MTurk/v2_DepthDuration_HTML.html#64,64,1366,625,1366,768,8-22-2022,7-58-25,99,depth_duration_stimuli/001222_2014-06-17_16-24-06_260595134347_rgbf000073-resize_0/001222_2014-06-17_16-24-06_260595134347_rgbf000073-resize-original.jpg,1000,1.4385,40,4271,996,feet,jsons/v1_VE1000_randls_71_rotated.json,859919,1237336,56,Man
99,287135,DepthScenes,duration_manipulation_targetAtFixation,jsons/v1_VE1000_randls_71_rotated.json,http://54.235.29.9/FacialAge/BNav_EC2/DepthDuration/v2_depth_duration_MTurk/v2_DepthDuration_HTML.html#64,64,1366,625,1366,768,8-22-2022,7-58-25,100,depth_duration_stimuli/002758_2014-06-22_19-11-20_094959634447_rgbf000128-resize_1/002758_2014-06-22_19-11-20_094959634447_rgbf000128-resize_1-target.png,1000,2.555,20,4198,998,feet,jsons/v1_VE1000_randls_71_rotated.json,859919,1237336,56,Man
100,287135,DepthScenes,duration_manipulation_targetAtFixation,jsons/v1_VE1000_randls_71_rotated.json,http://54.235.29.9/FacialAge/BNav_EC2/DepthDuration/v2_depth_duration_MTurk/v2_DepthDuration_HTML.html#64,64,1366,625,1366,768,8-22-2022,7-58-25,101,depth_duration_stimuli/002630_2014-06-24_14-47-50_094959634447_rgbf000055-resize_1/002630_2014-06-24_14-47-50_094959634447_rgbf000055-resize_1-target.png,1000,3.0095,30,7008,964,feet,jsons/v1_VE1000_randls_71_rotated.json,859919,1237336,56,Man
101,287135,DepthScenes,duration_manipulation_targetAtFixation,jsons/v1_VE1000_randls_71_rotated.json,http://54.235.29.9/FacialAge/BNav_EC2/DepthDuration/v2_depth_duration_MTurk/v2_DepthDuration_HTML.html#64,64,1366,625,1366,768,8-22-2022,7-58-25,102,depth_duration_stimuli/002639_2014-06-24_14-51-37_094959634447_rgbf000074-resize_4/002639_2014-06-24_14-51-37_094959634447_rgbf000074-resize_4-target.png,1000,4.0375,40,4318,1002,feet,jsons/v1_VE1000_randls_71_rotated.json,859919,1237336,56,Man
102,287135,DepthScenes,duration_manipulation_targetAtFixation,jsons/v1_VE1000_randls_71_rotated.json,http://54.235.29.9/FacialAge/BNav_EC2/DepthDuration/v2_depth_duration_MTurk/v2_DepthDuration_HTML.html#64,64,1366,625,1366,768,8-22-2022,7-58-25,103,depth_duration_stimuli/003292_2014-05-14_21-53-49_094959634447_rgbf000100-resize_2/003292_2014-05-14_21-53-49_094959634447_rgbf000100-resize_2-target.png,1000,3.4815,20,3628,986,feet,jsons/v1_VE1000_randls_71_rotated.json,859919,1237336,56,Man
103,287135,DepthScenes,duration_manipulation_targetAtFixation,jsons/v1_VE1000_randls_71_rotated.json,http://54.235.29.9/FacialAge/BNav_EC2/DepthDuration/v2_depth_duration_MTurk/v2_DepthDuration_HTML.html#64,64,1366,625,1366,768,8-22-2022,7-58-25,104,depth_duration_stimuli/001235_2014-06-17_16-37-36_260595134347_rgbf000084-resize_4/001235_2014-06-17_16-37-36_260595134347_rgbf000084-resize_4-target.png,1000,3.6605,30,3728,996,feet,jsons/v1_VE1000_randls_71_rotated.json,859919,1237336,56,Man
104,287135,DepthScenes,duration_manipulation_targetAtFixation,jsons/v1_VE1000_randls_71_rotated.json,http://54.235.29.9/FacialAge/BNav_EC2/DepthDuration/v2_depth_duration_MTurk/v2_DepthDuration_HTML.html#64,64,1366,625,1366,768,8-22-2022,7-58-25,105,depth_duration_stimuli/000788_2014-06-08_22-34-36_260595134347_rgbf000131-resize_1/000788_2014-06-08_22-34-36_260595134347_rgbf000131-resize_1-target.png,1000,3.359,40,3908,1012,feet,jsons/v1_VE1000_randls_71_rotated.json,859919,1237336,56,Man
105,287135,DepthScenes,duration_manipulation_targetAtFixation,jsons/v1_VE1000_randls_71_rotated.json,http://54.235.29.9/FacialAge/BNav_EC2/DepthDuration/v2_depth_duration_MTurk/v2_DepthDuration_HTML.html#64,64,1366,625,1366,768,8-22-2022,7-58-25,106,depth_duration_stimuli/003010_2014-06-15_12-54-35_094959634447_rgbf000112-resize_0/003010_2014-06-15_12-54-35_094959634447_rgbf000112-resize_0-target.png,1000,3.1185,50,3735,998,feet,jsons/v1_VE1000_randls_71_rotated.json,859919,1237336,56,Man
106,287135,DepthScenes,duration_manipulation_targetAtFixation,jsons/v1_VE1000_randls_71_rotated.json,http://54.235.29.9/FacialAge/BNav_EC2/DepthDuration/v2_depth_duration_MTurk/v2_DepthDuration_HTML.html#64,64,1366,625,1366,768,8-22-2022,7-58-25,107,depth_duration_stimuli/001810_2014-06-26_20-51-35_260595134347_rgbf000040-resize_3/001810_2014-06-26_20-51-35_260595134347_rgbf000040-resize_3-target.png,1000,2.2525,20,3578,1007,feet,jsons/v1_VE1000_randls_71_rotated.json,859919,1237336,56,Man
107,287135,DepthScenes,duration_manipulation_targetAtFixation,jsons/v1_VE1000_randls_71_rotated.json,http://54.235.29.9/FacialAge/BNav_EC2/DepthDuration/v2_depth_duration_MTurk/v2_DepthDuration_HTML.html#64,64,1366,625,1366,768,8-22-2022,7-58-25,108,depth_duration_stimuli/002657_2014-06-13_15-29-54_094959634447_rgbf000150-resize_1/002657_2014-06-13_15-29-54_094959634447_rgbf000150-resize_1-target.png,1000,4.919,30,3876,990,feet,jsons/v1_VE1000_randls_71_rotated.json,859919,1237336,56,Man
108,287135,DepthScenes,duration_manipulation_targetAtFixation,jsons/v1_VE1000_randls_71_rotated.json,http://54.235.29.9/FacialAge/BNav_EC2/DepthDuration/v2_depth_duration_MTurk/v2_DepthDuration_HTML.html#64,64,1366,625,1366,768,8-22-2022,7-58-25,109,depth_duration_stimuli/002375_2014-06-28_20-13-44_260595134347_rgbf000032-resize_1/002375_2014-06-28_20-13-44_260595134347_rgbf000032-resize_1-target.png,1000,4.0175,20,3684,986,feet,jsons/v1_VE1000_randls_71_rotated.json,859919,1237336,56,Man
109,287135,DepthScenes,duration_manipulation_targetAtFixation,jsons/v1_VE1000_randls_71_rotated.json,http://54.235.29.9/FacialAge/BNav_EC2/DepthDuration/v2_depth_duration_MTurk/v2_DepthDuration_HTML.html#64,64,1366,625,1366,768,8-22-2022,7-58-25,110,depth_duration_stimuli/002660_2014-06-13_15-44-18_094959634447_rgbf001878-resize_2/002660_2014-06-13_15-44-18_094959634447_rgbf001878-resize_2-target.png,1000,3.576,30,3834,989,feet,jsons/v1_VE1000_randls_71_rotated.json,859919,1237336,56,Man
110,287135,DepthScenes,duration_manipulation_targetAtFixation,jsons/v1_VE1000_randls_71_rotated.json,http://54.235.29.9/FacialAge/BNav_EC2/DepthDuration/v2_depth_duration_MTurk/v2_DepthDuration_HTML.html#64,64,1366,625,1366,768,8-22-2022,7-58-25,111,depth_duration_stimuli/002153_2014-06-25_21-27-18_260595134347_rgbf000038-resize_5/002153_2014-06-25_21-27-18_260595134347_rgbf000038-resize_5-target.png,1000,2.505,30,4077,974,feet,jsons/v1_VE1000_randls_71_rotated.json,859919,1237336,56,Man
111,287135,DepthScenes,duration_manipulation_targetAtFixation,jsons/v1_VE1000_randls_71_rotated.json,http://54.235.29.9/FacialAge/BNav_EC2/DepthDuration/v2_depth_duration_MTurk/v2_DepthDuration_HTML.html#64,64,1366,625,1366,768,8-22-2022,7-58-25,112,depth_duration_stimuli/000556_2014-06-09_22-42-56_260595134347_rgbf000214-resize_1/000556_2014-06-09_22-42-56_260595134347_rgbf000214-resize_1-target.png,1000,4.8415,30,4577,990,feet,jsons/v1_VE1000_randls_71_rotated.json,859919,1237336,56,Man
112,287135,DepthScenes,duration_manipulation_targetAtFixation,jsons/v1_VE1000_randls_71_rotated.json,http://54.235.29.9/FacialAge/BNav_EC2/DepthDuration/v2_depth_duration_MTurk/v2_DepthDuration_HTML.html#64,64,1366,625,1366,768,8-22-2022,7-58-25,113,depth_duration_stimuli/001158_2014-06-17_15-32-16_260595134347_rgbf000138-resize_2/001158_2014-06-17_15-32-16_260595134347_rgbf000138-resize_2-target.png,1000,4.5315,20,4322,1001,feet,jsons/v1_VE1000_randls_71_rotated.json,859919,1237336,56,Man
113,287135,DepthScenes,duration_manipulation_targetAtFixation,jsons/v1_VE1000_randls_71_rotated.json,http://54.235.29.9/FacialAge/BNav_EC2/DepthDuration/v2_depth_duration_MTurk/v2_DepthDuration_HTML.html#64,64,1366,625,1366,768,8-22-2022,7-58-25,114,depth_duration_stimuli/001828_2014-06-26_21-40-03_260595134347_rgbf000024-resize_0/001828_2014-06-26_21-40-03_260595134347_rgbf000024-resize_0-target.png,1000,4.8260000000000005,30,4293,988,feet,jsons/v1_VE1000_randls_71_rotated.json,859919,1237336,56,Man
114,287135,DepthScenes,duration_manipulation_targetAtFixation,jsons/v1_VE1000_randls_71_rotated.json,http://54.235.29.9/FacialAge/BNav_EC2/DepthDuration/v2_depth_duration_MTurk/v2_DepthDuration_HTML.html#64,64,1366,625,1366,768,8-22-2022,7-58-25,115,depth_duration_stimuli/000009_2014-05-26_14-32-05_260595134347_rgbf000034-resize_3/000009_2014-05-26_14-32-05_260595134347_rgbf000034-resize_3-target.png,1000,3.8715,50,4011,1005,feet,jsons/v1_VE1000_randls_71_rotated.json,859919,1237336,56,Man
115,287135,DepthScenes,duration_manipulation_targetAtFixation,jsons/v1_VE1000_randls_71_rotated.json,http://54.235.29.9/FacialAge/BNav_EC2/DepthDuration/v2_depth_duration_MTurk/v2_DepthDuration_HTML.html#64,64,1366,625,1366,768,8-22-2022,7-58-25,116,depth_duration_stimuli/000943_2014-06-09_19-31-07_260595134347_rgbf000128-resize_1/000943_2014-06-09_19-31-07_260595134347_rgbf000128-resize_1-target.png,1000,1.9765,30,3747,1001,feet,jsons/v1_VE1000_randls_71_rotated.json,859919,1237336,56,Man
116,287135,DepthScenes,duration_manipulation_targetAtFixation,jsons/v1_VE1000_randls_71_rotated.json,http://54.235.29.9/FacialAge/BNav_EC2/DepthDuration/v2_depth_duration_MTurk/v2_DepthDuration_HTML.html#64,64,1366,625,1366,768,8-22-2022,7-58-25,117,depth_duration_stimuli/003070_2014-06-15_14-58-27_094959634447_rgbf000150-resize_3/003070_2014-06-15_14-58-27_094959634447_rgbf000150-resize_3-target.png,1000,2.9415,30,4211,1001,feet,jsons/v1_VE1000_randls_71_rotated.json,859919,1237336,56,Man
117,287135,DepthScenes,duration_manipulation_targetAtFixation,jsons/v1_VE1000_randls_71_rotated.json,http://54.235.29.9/FacialAge/BNav_EC2/DepthDuration/v2_depth_duration_MTurk/v2_DepthDuration_HTML.html#64,64,1366,625,1366,768,8-22-2022,7-58-25,118,depth_duration_stimuli/002875_2014-06-01_15-19-00_094959634447_rgbf000151-resize_1/002875_2014-06-01_15-19-00_094959634447_rgbf000151-resize_1-target.png,1000,1.9675,30,4415,1002,feet,jsons/v1_VE1000_randls_71_rotated.json,859919,1237336,56,Man
118,287135,DepthScenes,duration_manipulation_targetAtFixation,jsons/v1_VE1000_randls_71_rotated.json,http://54.235.29.9/FacialAge/BNav_EC2/DepthDuration/v2_depth_duration_MTurk/v2_DepthDuration_HTML.html#64,64,1366,625,1366,768,8-22-2022,7-58-25,119,depth_duration_stimuli/001011_2014-06-08_23-18-54_260595134347_rgbf000044-resize_4/001011_2014-06-08_23-18-54_260595134347_rgbf000044-resize_4-target.png,1000,2.4730000000000003,30,4329,985,feet,jsons/v1_VE1000_randls_71_rotated.json,859919,1237336,56,Man
119,287135,DepthScenes,duration_manipulation_targetAtFixation,jsons/v1_VE1000_randls_71_rotated.json,http://54.235.29.9/FacialAge/BNav_EC2/DepthDuration/v2_depth_duration_MTurk/v2_DepthDuration_HTML.html#64,64,1366,625,1366,768,8-22-2022,7-58-25,120,depth_duration_stimuli/000787_2014-06-08_22-33-53_260595134347_rgbf000175-resize_1/000787_2014-06-08_22-33-53_260595134347_rgbf000175-resize-original.jpg,1000,4.784,0,4250,1003,feet,jsons/v1_VE1000_randls_71_rotated.json,859919,1237336,56,Man
120,287135,DepthScenes,duration_manipulation_targetAtFixation,jsons/v1_VE1000_randls_71_rotated.json,http://54.235.29.9/FacialAge/BNav_EC2/DepthDuration/v2_depth_duration_MTurk/v2_DepthDuration_HTML.html#64,64,1366,625,1366,768,8-22-2022,7-58-25,121,depth_duration_stimuli/002568_2014-06-24_13-59-21_094959634447_rgbf000062-resize_4/002568_2014-06-24_13-59-21_094959634447_rgbf000062-resize_4-target.png,1000,3.015,30,3664,996,feet,jsons/v1_VE1000_randls_71_rotated.json,859919,1237336,56,Man
121,287135,DepthScenes,duration_manipulation_targetAtFixation,jsons/v1_VE1000_randls_71_rotated.json,http://54.235.29.9/FacialAge/BNav_EC2/DepthDuration/v2_depth_duration_MTurk/v2_DepthDuration_HTML.html#64,64,1366,625,1366,768,8-22-2022,7-58-25,122,depth_duration_stimuli/003492_2014-05-21_15-50-55_094959634447_rgbf000828-resize_1/003492_2014-05-21_15-50-55_094959634447_rgbf000828-resize_1-target.png,1000,4.06875,20,5220,995,feet,jsons/v1_VE1000_randls_71_rotated.json,859919,1237336,56,Man
122,287135,DepthScenes,duration_manipulation_targetAtFixation,jsons/v1_VE1000_randls_71_rotated.json,http://54.235.29.9/FacialAge/BNav_EC2/DepthDuration/v2_depth_duration_MTurk/v2_DepthDuration_HTML.html#64,64,1366,625,1366,768,8-22-2022,7-58-25,123,depth_duration_stimuli/001516_2014-06-20_16-25-09_260595134347_rgbf000076-resize_2/001516_2014-06-20_16-25-09_260595134347_rgbf000076-resize_2-target.png,1000,1.7445,20,5613,1009,feet,jsons/v1_VE1000_randls_71_rotated.json,859919,1237336,56,Man
123,287135,DepthScenes,duration_manipulation_targetAtFixation,jsons/v1_VE1000_randls_71_rotated.json,http://54.235.29.9/FacialAge/BNav_EC2/DepthDuration/v2_depth_duration_MTurk/v2_DepthDuration_HTML.html#64,64,1366,625,1366,768,8-22-2022,7-58-25,124,depth_duration_stimuli/002118_2014-06-25_20-32-08_260595134347_rgbf000078-resize_1/002118_2014-06-25_20-32-08_260595134347_rgbf000078-resize_1-target.png,1000,2.6460000000000004,30,5322,1006,feet,jsons/v1_VE1000_randls_71_rotated.json,859919,1237336,56,Man
124,287135,DepthScenes,duration_manipulation_targetAtFixation,jsons/v1_VE1000_randls_71_rotated.json,http://54.235.29.9/FacialAge/BNav_EC2/DepthDuration/v2_depth_duration_MTurk/v2_DepthDuration_HTML.html#64,64,1366,625,1366,768,8-22-2022,7-58-25,125,depth_duration_stimuli/000457_2014-06-08_16-52-43_260595134347_rgbf000199-resize_1/000457_2014-06-08_16-52-43_260595134347_rgbf000199-resize_1-target.png,1000,3.6489999999999996,30,4958,1004,feet,jsons/v1_VE1000_randls_71_rotated.json,859919,1237336,56,Man
125,287135,DepthScenes,duration_manipulation_targetAtFixation,jsons/v1_VE1000_randls_71_rotated.json,http://54.235.29.9/FacialAge/BNav_EC2/DepthDuration/v2_depth_duration_MTurk/v2_DepthDuration_HTML.html#64,64,1366,625,1366,768,8-22-2022,7-58-25,126,depth_duration_stimuli/000929_2014-06-09_16-33-19_260595134347_rgbf000139-resize_0/000929_2014-06-09_16-33-19_260595134347_rgbf000139-resize_0-target.png,1000,2.8680000000000003,40,5043,999,feet,jsons/v1_VE1000_randls_71_rotated.json,859919,1237336,56,Man
126,287135,DepthScenes,duration_manipulation_targetAtFixation,jsons/v1_VE1000_randls_71_rotated.json,http://54.235.29.9/FacialAge/BNav_EC2/DepthDuration/v2_depth_duration_MTurk/v2_DepthDuration_HTML.html#64,64,1366,625,1366,768,8-22-2022,7-58-25,127,depth_duration_stimuli/001132_2014-06-17_14-48-54_260595134347_rgbf000100-resize_2/001132_2014-06-17_14-48-54_260595134347_rgbf000100-resize_2-target.png,1000,3.753,30,4967,996,feet,jsons/v1_VE1000_randls_71_rotated.json,859919,1237336,56,Man
127,287135,DepthScenes,duration_manipulation_targetAtFixation,jsons/v1_VE1000_randls_71_rotated.json,http://54.235.29.9/FacialAge/BNav_EC2/DepthDuration/v2_depth_duration_MTurk/v2_DepthDuration_HTML.html#64,64,1366,625,1366,768,8-22-2022,7-58-25,128,depth_duration_stimuli/001133_2014-06-17_14-49-16_260595134347_rgbf000100-resize_0/001133_2014-06-17_14-49-16_260595134347_rgbf000100-resize_0-target.png,1000,4.2115,30,4494,987,feet,jsons/v1_VE1000_randls_71_rotated.json,859919,1237336,56,Man
128,287135,DepthScenes,duration_manipulation_targetAtFixation,jsons/v1_VE1000_randls_71_rotated.json,http://54.235.29.9/FacialAge/BNav_EC2/DepthDuration/v2_depth_duration_MTurk/v2_DepthDuration_HTML.html#64,64,1366,625,1366,768,8-22-2022,7-58-25,129,depth_duration_stimuli/002444_2014-06-28_20-32-08_260595134347_rgbf000027-resize_0/002444_2014-06-28_20-32-08_260595134347_rgbf000027-resize_0-target.png,1000,4.388999999999999,20,4816,1002,feet,jsons/v1_VE1000_randls_71_rotated.json,859919,1237336,56,Man
129,287135,DepthScenes,duration_manipulation_targetAtFixation,jsons/v1_VE1000_randls_71_rotated.json,http://54.235.29.9/FacialAge/BNav_EC2/DepthDuration/v2_depth_duration_MTurk/v2_DepthDuration_HTML.html#64,64,1366,625,1366,768,8-22-2022,7-58-25,130,depth_duration_stimuli/000436_2014-06-09_22-25-11_260595134347_rgbf000137-resize_1/000436_2014-06-09_22-25-11_260595134347_rgbf000137-resize_1-target.png,1000,4.0705,30,4427,1011,feet,jsons/v1_VE1000_randls_71_rotated.json,859919,1237336,56,Man
130,287135,DepthScenes,duration_manipulation_targetAtFixation,jsons/v1_VE1000_randls_71_rotated.json,http://54.235.29.9/FacialAge/BNav_EC2/DepthDuration/v2_depth_duration_MTurk/v2_DepthDuration_HTML.html#64,64,1366,625,1366,768,8-22-2022,7-58-25,131,depth_duration_stimuli/002995_2014-06-15_12-31-26_094959634447_rgbf000150-resize_1/002995_2014-06-15_12-31-26_094959634447_rgbf000150-resize_1-target.png,1000,3.8360000000000003,30,4529,1013,feet,jsons/v1_VE1000_randls_71_rotated.json,859919,1237336,56,Man
131,287135,DepthScenes,duration_manipulation_targetAtFixation,jsons/v1_VE1000_randls_71_rotated.json,http://54.235.29.9/FacialAge/BNav_EC2/DepthDuration/v2_depth_duration_MTurk/v2_DepthDuration_HTML.html#64,64,1366,625,1366,768,8-22-2022,7-58-25,132,depth_duration_stimuli/002748_2014-06-22_19-07-22_094959634447_rgbf000078-resize_1/002748_2014-06-22_19-07-22_094959634447_rgbf000078-resize_1-target.png,1000,4.6705,20,5436,998,feet,jsons/v1_VE1000_randls_71_rotated.json,859919,1237336,56,Man
132,287135,DepthScenes,duration_manipulation_targetAtFixation,jsons/v1_VE1000_randls_71_rotated.json,http://54.235.29.9/FacialAge/BNav_EC2/DepthDuration/v2_depth_duration_MTurk/v2_DepthDuration_HTML.html#64,64,1366,625,1366,768,8-22-2022,7-58-25,133,depth_duration_stimuli/001571_2014-06-20_17-21-32_260595134347_rgbf000089-resize_1/001571_2014-06-20_17-21-32_260595134347_rgbf000089-resize_1-target.png,1000,1.86,30,4256,990,feet,jsons/v1_VE1000_randls_71_rotated.json,859919,1237336,56,Man
133,287135,DepthScenes,duration_manipulation_targetAtFixation,jsons/v1_VE1000_randls_71_rotated.json,http://54.235.29.9/FacialAge/BNav_EC2/DepthDuration/v2_depth_duration_MTurk/v2_DepthDuration_HTML.html#64,64,1366,625,1366,768,8-22-2022,7-58-25,134,depth_duration_stimuli/002272_2014-06-28_18-53-56_260595134347_rgbf000067-resize_2/002272_2014-06-28_18-53-56_260595134347_rgbf000067-resize_2-target.png,1000,1.138,30,4415,997,feet,jsons/v1_VE1000_randls_71_rotated.json,859919,1237336,56,Man
134,287135,DepthScenes,duration_manipulation_targetAtFixation,jsons/v1_VE1000_randls_71_rotated.json,http://54.235.29.9/FacialAge/BNav_EC2/DepthDuration/v2_depth_duration_MTurk/v2_DepthDuration_HTML.html#64,64,1366,625,1366,768,8-22-2022,7-58-25,135,depth_duration_stimuli/000375_2014-06-08_11-17-29_260595134347_rgbf000133-resize_2/000375_2014-06-08_11-17-29_260595134347_rgbf000133-resize-original.jpg,1000,4.718,0,4839,977,feet,jsons/v1_VE1000_randls_71_rotated.json,859919,1237336,56,Man
135,287135,DepthScenes,duration_manipulation_targetAtFixation,jsons/v1_VE1000_randls_71_rotated.json,http://54.235.29.9/FacialAge/BNav_EC2/DepthDuration/v2_depth_duration_MTurk/v2_DepthDuration_HTML.html#64,64,1366,625,1366,768,8-22-2022,7-58-25,136,depth_duration_stimuli/000866_2014-06-09_20-45-42_260595134347_rgbf000139-resize_1/000866_2014-06-09_20-45-42_260595134347_rgbf000139-resize_1-target.png,1000,3.2155,30,4701,994,feet,jsons/v1_VE1000_randls_71_rotated.json,859919,1237336,56,Man
136,287135,DepthScenes,duration_manipulation_targetAtFixation,jsons/v1_VE1000_randls_71_rotated.json,http://54.235.29.9/FacialAge/BNav_EC2/DepthDuration/v2_depth_duration_MTurk/v2_DepthDuration_HTML.html#64,64,1366,625,1366,768,8-22-2022,7-58-25,137,depth_duration_stimuli/002989_2014-06-15_12-25-03_094959634447_rgbf000150-resize_3/002989_2014-06-15_12-25-03_094959634447_rgbf000150-resize_3-target.png,1000,4.1975,40,4583,985,feet,jsons/v1_VE1000_randls_71_rotated.json,859919,1237336,56,Man
137,287135,DepthScenes,duration_manipulation_targetAtFixation,jsons/v1_VE1000_randls_71_rotated.json,http://54.235.29.9/FacialAge/BNav_EC2/DepthDuration/v2_depth_duration_MTurk/v2_DepthDuration_HTML.html#64,64,1366,625,1366,768,8-22-2022,7-58-25,138,depth_duration_stimuli/002199_2014-06-28_18-33-56_260595134347_rgbf000074-resize_0/002199_2014-06-28_18-33-56_260595134347_rgbf000074-resize_0-target.png,1000,1.996,30,4722,989,feet,jsons/v1_VE1000_randls_71_rotated.json,859919,1237336,56,Man
138,287135,DepthScenes,duration_manipulation_targetAtFixation,jsons/v1_VE1000_randls_71_rotated.json,http://54.235.29.9/FacialAge/BNav_EC2/DepthDuration/v2_depth_duration_MTurk/v2_DepthDuration_HTML.html#64,64,1366,625,1366,768,8-22-2022,7-58-25,139,depth_duration_stimuli/001056_2014-06-08_18-46-44_260595134347_rgbf000068-resize_0/001056_2014-06-08_18-46-44_260595134347_rgbf000068-resize_0-target.png,1000,2.6625,20,4368,1012,feet,jsons/v1_VE1000_randls_71_rotated.json,859919,1237336,56,Man
139,287135,DepthScenes,duration_manipulation_targetAtFixation,jsons/v1_VE1000_randls_71_rotated.json,http://54.235.29.9/FacialAge/BNav_EC2/DepthDuration/v2_depth_duration_MTurk/v2_DepthDuration_HTML.html#64,64,1366,625,1366,768,8-22-2022,7-58-25,140,depth_duration_stimuli/002637_2014-06-24_14-51-13_094959634447_rgbf000066-resize_4/002637_2014-06-24_14-51-13_094959634447_rgbf000066-resize_4-target.png,1000,1.9955,30,4372,992,feet,jsons/v1_VE1000_randls_71_rotated.json,859919,1237336,56,Man
140,287135,DepthScenes,duration_manipulation_targetAtFixation,jsons/v1_VE1000_randls_71_rotated.json,http://54.235.29.9/FacialAge/BNav_EC2/DepthDuration/v2_depth_duration_MTurk/v2_DepthDuration_HTML.html#64,64,1366,625,1366,768,8-22-2022,7-58-25,141,depth_duration_stimuli/003534_2014-05-22_15-06-10_094959634447_rgbf000102-resize_4/003534_2014-05-22_15-06-10_094959634447_rgbf000102-resize_4-target.png,1000,1.426,20,4219,1003,feet,jsons/v1_VE1000_randls_71_rotated.json,859919,1237336,56,Man
141,287135,DepthScenes,duration_manipulation_targetAtFixation,jsons/v1_VE1000_randls_71_rotated.json,http://54.235.29.9/FacialAge/BNav_EC2/DepthDuration/v2_depth_duration_MTurk/v2_DepthDuration_HTML.html#64,64,1366,625,1366,768,8-22-2022,7-58-25,142,depth_duration_stimuli/000483_2014-06-09_20-41-45_260595134347_rgbf000116-resize_4/000483_2014-06-09_20-41-45_260595134347_rgbf000116-resize_4-target.png,1000,1.337,30,4528,999,feet,jsons/v1_VE1000_randls_71_rotated.json,859919,1237336,56,Man
142,287135,DepthScenes,duration_manipulation_targetAtFixation,jsons/v1_VE1000_randls_71_rotated.json,http://54.235.29.9/FacialAge/BNav_EC2/DepthDuration/v2_depth_duration_MTurk/v2_DepthDuration_HTML.html#64,64,1366,625,1366,768,8-22-2022,7-58-25,143,depth_duration_stimuli/000469_2014-06-09_19-42-10_260595134347_rgbf000081-resize_1/000469_2014-06-09_19-42-10_260595134347_rgbf000081-resize_1-target.png,1000,1.652,30,4513,1012,feet,jsons/v1_VE1000_randls_71_rotated.json,859919,1237336,56,Man
143,287135,DepthScenes,duration_manipulation_targetAtFixation,jsons/v1_VE1000_randls_71_rotated.json,http://54.235.29.9/FacialAge/BNav_EC2/DepthDuration/v2_depth_duration_MTurk/v2_DepthDuration_HTML.html#64,64,1366,625,1366,768,8-22-2022,7-58-25,144,depth_duration_stimuli/002209_2014-06-28_18-36-10_260595134347_rgbf000051-resize_1/002209_2014-06-28_18-36-10_260595134347_rgbf000051-resize_1-target.png,1000,2.057,20,4500,1000,feet,jsons/v1_VE1000_randls_71_rotated.json,859919,1237336,56,Man
144,287135,DepthScenes,duration_manipulation_targetAtFixation,jsons/v1_VE1000_randls_71_rotated.json,http://54.235.29.9/FacialAge/BNav_EC2/DepthDuration/v2_depth_duration_MTurk/v2_DepthDuration_HTML.html#64,64,1366,625,1366,768,8-22-2022,7-58-25,145,depth_duration_stimuli/002763_2014-06-22_19-13-10_094959634447_rgbf000075-resize_4/002763_2014-06-22_19-13-10_094959634447_rgbf000075-resize_4-target.png,1000,1.68375,30,4595,1014,feet,jsons/v1_VE1000_randls_71_rotated.json,859919,1237336,56,Man
145,287135,DepthScenes,duration_manipulation_targetAtFixation,jsons/v1_VE1000_randls_71_rotated.json,http://54.235.29.9/FacialAge/BNav_EC2/DepthDuration/v2_depth_duration_MTurk/v2_DepthDuration_HTML.html#64,64,1366,625,1366,768,8-22-2022,7-58-25,146,depth_duration_stimuli/000103_2014-05-14_22-01-17_260595134347_rgbf000152-resize_5/000103_2014-05-14_22-01-17_260595134347_rgbf000152-resize_5-target.png,1000,1.993,30,4335,1000,feet,jsons/v1_VE1000_randls_71_rotated.json,859919,1237336,56,Man
146,287135,DepthScenes,duration_manipulation_targetAtFixation,jsons/v1_VE1000_randls_71_rotated.json,http://54.235.29.9/FacialAge/BNav_EC2/DepthDuration/v2_depth_duration_MTurk/v2_DepthDuration_HTML.html#64,64,1366,625,1366,768,8-22-2022,7-58-25,147,depth_duration_stimuli/001555_2014-06-20_17-12-10_260595134347_rgbf000065-resize_4/001555_2014-06-20_17-12-10_260595134347_rgbf000065-resize_4-target.png,1000,1.633,30,4677,996,feet,jsons/v1_VE1000_randls_71_rotated.json,859919,1237336,56,Man
147,287135,DepthScenes,duration_manipulation_targetAtFixation,jsons/v1_VE1000_randls_71_rotated.json,http://54.235.29.9/FacialAge/BNav_EC2/DepthDuration/v2_depth_duration_MTurk/v2_DepthDuration_HTML.html#64,64,1366,625,1366,768,8-22-2022,7-58-25,148,depth_duration_stimuli/000854_2014-06-09_19-43-13_260595134347_rgbf000066-resize_0/000854_2014-06-09_19-43-13_260595134347_rgbf000066-resize_0-target.png,1000,3.068,20,4051,1009,feet,jsons/v1_VE1000_randls_71_rotated.json,859919,1237336,56,Man
148,287135,DepthScenes,duration_manipulation_targetAtFixation,jsons/v1_VE1000_randls_71_rotated.json,http://54.235.29.9/FacialAge/BNav_EC2/DepthDuration/v2_depth_duration_MTurk/v2_DepthDuration_HTML.html#64,64,1366,625,1366,768,8-22-2022,7-58-25,149,depth_duration_stimuli/000758_2014-06-08_22-05-08_260595134347_rgbf000085-resize_0/000758_2014-06-08_22-05-08_260595134347_rgbf000085-resize_0-target.png,1000,3.3810000000000002,20,4500,1001,feet,jsons/v1_VE1000_randls_71_rotated.json,859919,1237336,56,Man
149,287135,DepthScenes,duration_manipulation_targetAtFixation,jsons/v1_VE1000_randls_71_rotated.json,http://54.235.29.9/FacialAge/BNav_EC2/DepthDuration/v2_depth_duration_MTurk/v2_DepthDuration_HTML.html#64,64,1366,625,1366,768,8-22-2022,7-58-25,150,depth_duration_stimuli/000734_2014-06-08_17-39-11_260595134347_rgbf000128-resize_2/000734_2014-06-08_17-39-11_260595134347_rgbf000128-resize_2-target.png,1000,4.098,30,4102,995,feet,jsons/v1_VE1000_randls_71_rotated.json,859919,1237336,56,Man
150,287135,DepthScenes,duration_manipulation_targetAtFixation,jsons/v1_VE1000_randls_71_rotated.json,http://54.235.29.9/FacialAge/BNav_EC2/DepthDuration/v2_depth_duration_MTurk/v2_DepthDuration_HTML.html#64,64,1366,625,1366,768,8-22-2022,7-58-25,151,depth_duration_stimuli/000739_2014-06-08_18-45-58_260595134347_rgbf000068-resize_1/000739_2014-06-08_18-45-58_260595134347_rgbf000068-resize_1-target.png,1000,3.534,30,7281,996,feet,jsons/v1_VE1000_randls_71_rotated.json,859919,1237336,56,Man
151,287135,DepthScenes,duration_manipulation_targetAtFixation,jsons/v1_VE1000_randls_71_rotated.json,http://54.235.29.9/FacialAge/BNav_EC2/DepthDuration/v2_depth_duration_MTurk/v2_DepthDuration_HTML.html#64,64,1366,625,1366,768,8-22-2022,7-58-25,152,depth_duration_stimuli/000569_2014-06-09_22-51-47_260595134347_rgbf000141-resize_3/000569_2014-06-09_22-51-47_260595134347_rgbf000141-resize-original.jpg,1000,4.512,0,7132,1008,feet,jsons/v1_VE1000_randls_71_rotated.json,859919,1237336,56,Man
152,287135,DepthScenes,duration_manipulation_targetAtFixation,jsons/v1_VE1000_randls_71_rotated.json,http://54.235.29.9/FacialAge/BNav_EC2/DepthDuration/v2_depth_duration_MTurk/v2_DepthDuration_HTML.html#64,64,1366,625,1366,768,8-22-2022,7-58-25,153,depth_duration_stimuli/002103_2014-06-25_20-00-40_260595134347_rgbf000049-resize_0/002103_2014-06-25_20-00-40_260595134347_rgbf000049-resize_0-target.png,1000,4.105,30,8198,1001,feet,jsons/v1_VE1000_randls_71_rotated.json,859919,1237336,56,Man
153,287135,DepthScenes,duration_manipulation_targetAtFixation,jsons/v1_VE1000_randls_71_rotated.json,http://54.235.29.9/FacialAge/BNav_EC2/DepthDuration/v2_depth_duration_MTurk/v2_DepthDuration_HTML.html#64,64,1366,625,1366,768,8-22-2022,7-58-25,154,depth_duration_stimuli/002039_2014-06-24_20-22-38_260595134347_rgbf000084-resize_1/002039_2014-06-24_20-22-38_260595134347_rgbf000084-resize_1-target.png,1000,4.408,20,4200,993,feet,jsons/v1_VE1000_randls_71_rotated.json,859919,1237336,56,Man
154,287135,DepthScenes,duration_manipulation_targetAtFixation,jsons/v1_VE1000_randls_71_rotated.json,http://54.235.29.9/FacialAge/BNav_EC2/DepthDuration/v2_depth_duration_MTurk/v2_DepthDuration_HTML.html#64,64,1366,625,1366,768,8-22-2022,7-58-25,155,depth_duration_stimuli/002545_2014-06-24_13-38-53_094959634447_rgbf000080-resize_4/002545_2014-06-24_13-38-53_094959634447_rgbf000080-resize_4-target.png,1000,1.9205,30,3991,1012,feet,jsons/v1_VE1000_randls_71_rotated.json,859919,1237336,56,Man
155,287135,DepthScenes,duration_manipulation_targetAtFixation,jsons/v1_VE1000_randls_71_rotated.json,http://54.235.29.9/FacialAge/BNav_EC2/DepthDuration/v2_depth_duration_MTurk/v2_DepthDuration_HTML.html#64,64,1366,625,1366,768,8-22-2022,7-58-25,156,depth_duration_stimuli/001092_2014-06-15_17-34-58_260595134347_rgbf000171-resize_3/001092_2014-06-15_17-34-58_260595134347_rgbf000171-resize_3-target.png,1000,2.6935,30,4986,933,feet,jsons/v1_VE1000_randls_71_rotated.json,859919,1237336,56,Man
156,287135,DepthScenes,duration_manipulation_targetAtFixation,jsons/v1_VE1000_randls_71_rotated.json,http://54.235.29.9/FacialAge/BNav_EC2/DepthDuration/v2_depth_duration_MTurk/v2_DepthDuration_HTML.html#64,64,1366,625,1366,768,8-22-2022,7-58-25,157,depth_duration_stimuli/001584_2014-06-20_11-07-43_260595134347_rgbf000002-resize_1/001584_2014-06-20_11-07-43_260595134347_rgbf000002-resize_1-target.png,1000,3.53,20,4432,1002,feet,jsons/v1_VE1000_randls_71_rotated.json,859919,1237336,56,Man
157,287135,DepthScenes,duration_manipulation_targetAtFixation,jsons/v1_VE1000_randls_71_rotated.json,http://54.235.29.9/FacialAge/BNav_EC2/DepthDuration/v2_depth_duration_MTurk/v2_DepthDuration_HTML.html#64,64,1366,625,1366,768,8-22-2022,7-58-25,158,depth_duration_stimuli/003621_2014-05-23_18-06-08_094959634447_rgbf000101-resize_1/003621_2014-05-23_18-06-08_094959634447_rgbf000101-resize_1-target.png,1000,3.9835,30,4880,1466,feet,jsons/v1_VE1000_randls_71_rotated.json,859919,1237336,56,Man
158,287135,DepthScenes,duration_manipulation_targetAtFixation,jsons/v1_VE1000_randls_71_rotated.json,http://54.235.29.9/FacialAge/BNav_EC2/DepthDuration/v2_depth_duration_MTurk/v2_DepthDuration_HTML.html#64,64,1366,625,1366,768,8-22-2022,7-58-25,159,depth_duration_stimuli/000665_2014-06-09_20-42-35_260595134347_rgbf000110-resize_1/000665_2014-06-09_20-42-35_260595134347_rgbf000110-resize_1-target.png,1000,3.057,30,4046,993,feet,jsons/v1_VE1000_randls_71_rotated.json,859919,1237336,56,Man
159,287135,DepthScenes,duration_manipulation_targetAtFixation,jsons/v1_VE1000_randls_71_rotated.json,http://54.235.29.9/FacialAge/BNav_EC2/DepthDuration/v2_depth_duration_MTurk/v2_DepthDuration_HTML.html#64,64,1366,625,1366,768,8-22-2022,7-58-25,160,depth_duration_stimuli/001150_2014-06-17_15-27-34_260595134347_rgbf000108-resize_2/001150_2014-06-17_15-27-34_260595134347_rgbf000108-resize_2-target.png,1000,4.0325,30,4213,1000,feet,jsons/v1_VE1000_randls_71_rotated.json,859919,1237336,56,Man
160,287135,DepthScenes,duration_manipulation_targetAtFixation,jsons/v1_VE1000_randls_71_rotated.json,http://54.235.29.9/FacialAge/BNav_EC2/DepthDuration/v2_depth_duration_MTurk/v2_DepthDuration_HTML.html#64,64,1366,625,1366,768,8-22-2022,7-58-25,161,depth_duration_stimuli/002323_2014-06-28_20-01-54_260595134347_rgbf000051-resize_4/002323_2014-06-28_20-01-54_260595134347_rgbf000051-resize_4-target.png,1000,3.7310000000000003,20,4185,1016,feet,jsons/v1_VE1000_randls_71_rotated.json,859919,1237336,56,Man
161,287135,DepthScenes,duration_manipulation_targetAtFixation,jsons/v1_VE1000_randls_71_rotated.json,http://54.235.29.9/FacialAge/BNav_EC2/DepthDuration/v2_depth_duration_MTurk/v2_DepthDuration_HTML.html#64,64,1366,625,1366,768,8-22-2022,7-58-25,162,depth_duration_stimuli/000917_2014-06-09_22-45-29_260595134347_rgbf000149-resize_3/000917_2014-06-09_22-45-29_260595134347_rgbf000149-resize_3-target.png,1000,4.1865,30,14569,1004,feet,jsons/v1_VE1000_randls_71_rotated.json,859919,1237336,56,Man
162,287135,DepthScenes,duration_manipulation_targetAtFixation,jsons/v1_VE1000_randls_71_rotated.json,http://54.235.29.9/FacialAge/BNav_EC2/DepthDuration/v2_depth_duration_MTurk/v2_DepthDuration_HTML.html#64,64,1366,625,1366,768,8-22-2022,7-58-25,163,depth_duration_stimuli/002750_2014-06-22_19-08-03_094959634447_rgbf000094-resize_4/002750_2014-06-22_19-08-03_094959634447_rgbf000094-resize_4-target.png,1000,2.354,20,6335,993,feet,jsons/v1_VE1000_randls_71_rotated.json,859919,1237336,56,Man
163,287135,DepthScenes,duration_manipulation_targetAtFixation,jsons/v1_VE1000_randls_71_rotated.json,http://54.235.29.9/FacialAge/BNav_EC2/DepthDuration/v2_depth_duration_MTurk/v2_DepthDuration_HTML.html#64,64,1366,625,1366,768,8-22-2022,7-58-25,164,depth_duration_stimuli/002549_2014-06-24_13-41-39_094959634447_rgbf000022-resize_3/002549_2014-06-24_13-41-39_094959634447_rgbf000022-resize_3-target.png,1000,1.476,30,7032,1005,feet,jsons/v1_VE1000_randls_71_rotated.json,859919,1237336,56,Man
