,subjID,experimentName,versionName,sequenceName,url,selected_row,windowWidth,windowHeight,screenWidth,screenHeight,startDate,startTime,trial,stimulus,duration,actual_depth,depth_estimate,trial_RT,log_sceneDuration,unitSelection,seq_filepath,experimentTime,totalTime,age,gender
0,290496,DepthScenes,duration_manipulation_targetAtFixation,jsons/VE125_randls_43.json,http://54.235.29.9/FacialAge/BNav_EC2/DepthDuration/v2_depth_duration_MTurk/v2_DepthDuration_HTML.html#87,87,1366,625,1366,768,9-3-2022,9-9-23,1,depth_duration_stimuli/001092_2014-06-15_17-34-58_260595134347_rgbf000171-resize_3/001092_2014-06-15_17-34-58_260595134347_rgbf000171-resize_3-target.png,125,2.6935,0.3,4068,275,meters,jsons/VE125_randls_43.json,739137,1668085,1969,Woman
1,290496,DepthScenes,duration_manipulation_targetAtFixation,jsons/VE125_randls_43.json,http://54.235.29.9/FacialAge/BNav_EC2/DepthDuration/v2_depth_duration_MTurk/v2_DepthDuration_HTML.html#87,87,1366,625,1366,768,9-3-2022,9-9-23,2,depth_duration_stimuli/002545_2014-06-24_13-38-53_094959634447_rgbf000080-resize_4/002545_2014-06-24_13-38-53_094959634447_rgbf000080-resize_4-target.png,125,1.9205,0.3,6413,124,meters,jsons/VE125_randls_43.json,739137,1668085,1969,Woman
2,290496,DepthScenes,duration_manipulation_targetAtFixation,jsons/VE125_randls_43.json,http://54.235.29.9/FacialAge/BNav_EC2/DepthDuration/v2_depth_duration_MTurk/v2_DepthDuration_HTML.html#87,87,1366,625,1366,768,9-3-2022,9-9-23,3,depth_duration_stimuli/000368_2014-06-09_15-53-01_260595134347_rgbf000155-resize_2/000368_2014-06-09_15-53-01_260595134347_rgbf000155-resize_2-target.png,125,2.4859999999999998,0.0,7190,123,meters,jsons/VE125_randls_43.json,739137,1668085,1969,Woman
3,290496,DepthScenes,duration_manipulation_targetAtFixation,jsons/VE125_randls_43.json,http://54.235.29.9/FacialAge/BNav_EC2/DepthDuration/v2_depth_duration_MTurk/v2_DepthDuration_HTML.html#87,87,1366,625,1366,768,9-3-2022,9-9-23,4,depth_duration_stimuli/002678_2014-06-13_16-15-32_094959634447_rgbf000151-resize_6/002678_2014-06-13_16-15-32_094959634447_rgbf000151-resize_6-target.png,125,2.1830000000000003,0.3,3808,125,meters,jsons/VE125_randls_43.json,739137,1668085,1969,Woman
4,290496,DepthScenes,duration_manipulation_targetAtFixation,jsons/VE125_randls_43.json,http://54.235.29.9/FacialAge/BNav_EC2/DepthDuration/v2_depth_duration_MTurk/v2_DepthDuration_HTML.html#87,87,1366,625,1366,768,9-3-2022,9-9-23,5,depth_duration_stimuli/001055_2014-06-08_18-45-35_260595134347_rgbf000111-resize_4/001055_2014-06-08_18-45-35_260595134347_rgbf000111-resize_4-target.png,125,2.4290000000000003,0.0,3534,123,meters,jsons/VE125_randls_43.json,739137,1668085,1969,Woman
5,290496,DepthScenes,duration_manipulation_targetAtFixation,jsons/VE125_randls_43.json,http://54.235.29.9/FacialAge/BNav_EC2/DepthDuration/v2_depth_duration_MTurk/v2_DepthDuration_HTML.html#87,87,1366,625,1366,768,9-3-2022,9-9-23,6,depth_duration_stimuli/000549_2014-06-08_22-10-24_260595134347_rgbf000247-resize_3/000549_2014-06-08_22-10-24_260595134347_rgbf000247-resize_3-target.png,125,1.841,0.3,4817,114,meters,jsons/VE125_randls_43.json,739137,1668085,1969,Woman
6,290496,DepthScenes,duration_manipulation_targetAtFixation,jsons/VE125_randls_43.json,http://54.235.29.9/FacialAge/BNav_EC2/DepthDuration/v2_depth_duration_MTurk/v2_DepthDuration_HTML.html#87,87,1366,625,1366,768,9-3-2022,9-9-23,7,depth_duration_stimuli/000773_2014-06-08_22-24-54_260595134347_rgbf000093-resize_1/000773_2014-06-08_22-24-54_260595134347_rgbf000093-resize_1-target.png,125,4.973,0.4,4904,123,meters,jsons/VE125_randls_43.json,739137,1668085,1969,Woman
7,290496,DepthScenes,duration_manipulation_targetAtFixation,jsons/VE125_randls_43.json,http://54.235.29.9/FacialAge/BNav_EC2/DepthDuration/v2_depth_duration_MTurk/v2_DepthDuration_HTML.html#87,87,1366,625,1366,768,9-3-2022,9-9-23,8,depth_duration_stimuli/002414_2014-06-28_20-24-58_260595134347_rgbf000067-resize_4/002414_2014-06-28_20-24-58_260595134347_rgbf000067-resize_4-target.png,125,4.363,0.4,4657,215,meters,jsons/VE125_randls_43.json,739137,1668085,1969,Woman
8,290496,DepthScenes,duration_manipulation_targetAtFixation,jsons/VE125_randls_43.json,http://54.235.29.9/FacialAge/BNav_EC2/DepthDuration/v2_depth_duration_MTurk/v2_DepthDuration_HTML.html#87,87,1366,625,1366,768,9-3-2022,9-9-23,9,depth_duration_stimuli/003292_2014-05-14_21-53-49_094959634447_rgbf000100-resize_2/003292_2014-05-14_21-53-49_094959634447_rgbf000100-resize_2-target.png,125,3.4815,0.3,4471,121,meters,jsons/VE125_randls_43.json,739137,1668085,1969,Woman
9,290496,DepthScenes,duration_manipulation_targetAtFixation,jsons/VE125_randls_43.json,http://54.235.29.9/FacialAge/BNav_EC2/DepthDuration/v2_depth_duration_MTurk/v2_DepthDuration_HTML.html#87,87,1366,625,1366,768,9-3-2022,9-9-23,10,depth_duration_stimuli/002639_2014-06-24_14-51-37_094959634447_rgbf000074-resize_4/002639_2014-06-24_14-51-37_094959634447_rgbf000074-resize_4-target.png,125,4.0375,0.2,5555,120,meters,jsons/VE125_randls_43.json,739137,1668085,1969,Woman
10,290496,DepthScenes,duration_manipulation_targetAtFixation,jsons/VE125_randls_43.json,http://54.235.29.9/FacialAge/BNav_EC2/DepthDuration/v2_depth_duration_MTurk/v2_DepthDuration_HTML.html#87,87,1366,625,1366,768,9-3-2022,9-9-23,11,depth_duration_stimuli/001167_2014-06-17_15-38-07_260595134347_rgbf000108-resize_0/001167_2014-06-17_15-38-07_260595134347_rgbf000108-resize_0-target.png,125,1.8505,0.2,4615,124,meters,jsons/VE125_randls_43.json,739137,1668085,1969,Woman
11,290496,DepthScenes,duration_manipulation_targetAtFixation,jsons/VE125_randls_43.json,http://54.235.29.9/FacialAge/BNav_EC2/DepthDuration/v2_depth_duration_MTurk/v2_DepthDuration_HTML.html#87,87,1366,625,1366,768,9-3-2022,9-9-23,12,depth_duration_stimuli/003587_2014-05-23_16-48-02_094959634447_rgbf002384-resize_2/003587_2014-05-23_16-48-02_094959634447_rgbf002384-resize_2-target.png,125,1.357,0.3,4620,139,meters,jsons/VE125_randls_43.json,739137,1668085,1969,Woman
12,290496,DepthScenes,duration_manipulation_targetAtFixation,jsons/VE125_randls_43.json,http://54.235.29.9/FacialAge/BNav_EC2/DepthDuration/v2_depth_duration_MTurk/v2_DepthDuration_HTML.html#87,87,1366,625,1366,768,9-3-2022,9-9-23,13,depth_duration_stimuli/000569_2014-06-09_22-51-47_260595134347_rgbf000141-resize_3/000569_2014-06-09_22-51-47_260595134347_rgbf000141-resize-original.jpg,125,4.512,0.0,4735,111,meters,jsons/VE125_randls_43.json,739137,1668085,1969,Woman
13,290496,DepthScenes,duration_manipulation_targetAtFixation,jsons/VE125_randls_43.json,http://54.235.29.9/FacialAge/BNav_EC2/DepthDuration/v2_depth_duration_MTurk/v2_DepthDuration_HTML.html#87,87,1366,625,1366,768,9-3-2022,9-9-23,14,depth_duration_stimuli/002748_2014-06-22_19-07-22_094959634447_rgbf000078-resize_1/002748_2014-06-22_19-07-22_094959634447_rgbf000078-resize_1-target.png,125,4.6705,0.4,6632,123,meters,jsons/VE125_randls_43.json,739137,1668085,1969,Woman
14,290496,DepthScenes,duration_manipulation_targetAtFixation,jsons/VE125_randls_43.json,http://54.235.29.9/FacialAge/BNav_EC2/DepthDuration/v2_depth_duration_MTurk/v2_DepthDuration_HTML.html#87,87,1366,625,1366,768,9-3-2022,9-9-23,15,depth_duration_stimuli/002995_2014-06-15_12-31-26_094959634447_rgbf000150-resize_1/002995_2014-06-15_12-31-26_094959634447_rgbf000150-resize_1-target.png,125,3.8360000000000003,0.4,4083,144,meters,jsons/VE125_randls_43.json,739137,1668085,1969,Woman
15,290496,DepthScenes,duration_manipulation_targetAtFixation,jsons/VE125_randls_43.json,http://54.235.29.9/FacialAge/BNav_EC2/DepthDuration/v2_depth_duration_MTurk/v2_DepthDuration_HTML.html#87,87,1366,625,1366,768,9-3-2022,9-9-23,16,depth_duration_stimuli/000470_2014-06-09_19-42-40_260595134347_rgbf000094-resize_1/000470_2014-06-09_19-42-40_260595134347_rgbf000094-resize_1-target.png,125,1.831,0.3,8806,119,meters,jsons/VE125_randls_43.json,739137,1668085,1969,Woman
16,290496,DepthScenes,duration_manipulation_targetAtFixation,jsons/VE125_randls_43.json,http://54.235.29.9/FacialAge/BNav_EC2/DepthDuration/v2_depth_duration_MTurk/v2_DepthDuration_HTML.html#87,87,1366,625,1366,768,9-3-2022,9-9-23,17,depth_duration_stimuli/000109_2014-05-14_23-41-52_260595134347_rgbf000035-resize_9/000109_2014-05-14_23-41-52_260595134347_rgbf000035-resize_9-target.png,125,1.3545,0.4,5479,115,meters,jsons/VE125_randls_43.json,739137,1668085,1969,Woman
17,290496,DepthScenes,duration_manipulation_targetAtFixation,jsons/VE125_randls_43.json,http://54.235.29.9/FacialAge/BNav_EC2/DepthDuration/v2_depth_duration_MTurk/v2_DepthDuration_HTML.html#87,87,1366,625,1366,768,9-3-2022,9-9-23,18,depth_duration_stimuli/001810_2014-06-26_20-51-35_260595134347_rgbf000040-resize_3/001810_2014-06-26_20-51-35_260595134347_rgbf000040-resize_3-target.png,125,2.2525,0.3,4355,125,meters,jsons/VE125_randls_43.json,739137,1668085,1969,Woman
18,290496,DepthScenes,duration_manipulation_targetAtFixation,jsons/VE125_randls_43.json,http://54.235.29.9/FacialAge/BNav_EC2/DepthDuration/v2_depth_duration_MTurk/v2_DepthDuration_HTML.html#87,87,1366,625,1366,768,9-3-2022,9-9-23,19,depth_duration_stimuli/003010_2014-06-15_12-54-35_094959634447_rgbf000112-resize_0/003010_2014-06-15_12-54-35_094959634447_rgbf000112-resize_0-target.png,125,3.1185,0.3,3629,122,meters,jsons/VE125_randls_43.json,739137,1668085,1969,Woman
19,290496,DepthScenes,duration_manipulation_targetAtFixation,jsons/VE125_randls_43.json,http://54.235.29.9/FacialAge/BNav_EC2/DepthDuration/v2_depth_duration_MTurk/v2_DepthDuration_HTML.html#87,87,1366,625,1366,768,9-3-2022,9-9-23,20,depth_duration_stimuli/001808_2014-06-26_20-50-58_260595134347_rgbf000029-resize_1/001808_2014-06-26_20-50-58_260595134347_rgbf000029-resize_1-target.png,125,4.249,0.2,3426,125,meters,jsons/VE125_randls_43.json,739137,1668085,1969,Woman
20,290496,DepthScenes,duration_manipulation_targetAtFixation,jsons/VE125_randls_43.json,http://54.235.29.9/FacialAge/BNav_EC2/DepthDuration/v2_depth_duration_MTurk/v2_DepthDuration_HTML.html#87,87,1366,625,1366,768,9-3-2022,9-9-23,21,depth_duration_stimuli/001815_2014-06-26_20-52-55_260595134347_rgbf000020-resize_0/001815_2014-06-26_20-52-55_260595134347_rgbf000020-resize_0-target.png,125,3.3865,0.3,3895,107,meters,jsons/VE125_randls_43.json,739137,1668085,1969,Woman
21,290496,DepthScenes,duration_manipulation_targetAtFixation,jsons/VE125_randls_43.json,http://54.235.29.9/FacialAge/BNav_EC2/DepthDuration/v2_depth_duration_MTurk/v2_DepthDuration_HTML.html#87,87,1366,625,1366,768,9-3-2022,9-9-23,22,depth_duration_stimuli/000739_2014-06-08_18-45-58_260595134347_rgbf000068-resize_1/000739_2014-06-08_18-45-58_260595134347_rgbf000068-resize_1-target.png,125,3.534,0.0,3824,139,meters,jsons/VE125_randls_43.json,739137,1668085,1969,Woman
22,290496,DepthScenes,duration_manipulation_targetAtFixation,jsons/VE125_randls_43.json,http://54.235.29.9/FacialAge/BNav_EC2/DepthDuration/v2_depth_duration_MTurk/v2_DepthDuration_HTML.html#87,87,1366,625,1366,768,9-3-2022,9-9-23,23,depth_duration_stimuli/000734_2014-06-08_17-39-11_260595134347_rgbf000128-resize_2/000734_2014-06-08_17-39-11_260595134347_rgbf000128-resize_2-target.png,125,4.098,0.0,2730,111,meters,jsons/VE125_randls_43.json,739137,1668085,1969,Woman
23,290496,DepthScenes,duration_manipulation_targetAtFixation,jsons/VE125_randls_43.json,http://54.235.29.9/FacialAge/BNav_EC2/DepthDuration/v2_depth_duration_MTurk/v2_DepthDuration_HTML.html#87,87,1366,625,1366,768,9-3-2022,9-9-23,24,depth_duration_stimuli/003621_2014-05-23_18-06-08_094959634447_rgbf000101-resize_1/003621_2014-05-23_18-06-08_094959634447_rgbf000101-resize_1-target.png,125,3.9835,0.0,2961,52,meters,jsons/VE125_randls_43.json,739137,1668085,1969,Woman
24,290496,DepthScenes,duration_manipulation_targetAtFixation,jsons/VE125_randls_43.json,http://54.235.29.9/FacialAge/BNav_EC2/DepthDuration/v2_depth_duration_MTurk/v2_DepthDuration_HTML.html#87,87,1366,625,1366,768,9-3-2022,9-9-23,25,depth_duration_stimuli/001584_2014-06-20_11-07-43_260595134347_rgbf000002-resize_1/001584_2014-06-20_11-07-43_260595134347_rgbf000002-resize_1-target.png,125,3.53,0.0,5151,0,meters,jsons/VE125_randls_43.json,739137,1668085,1969,Woman
25,290496,DepthScenes,duration_manipulation_targetAtFixation,jsons/VE125_randls_43.json,http://54.235.29.9/FacialAge/BNav_EC2/DepthDuration/v2_depth_duration_MTurk/v2_DepthDuration_HTML.html#87,87,1366,625,1366,768,9-3-2022,9-9-23,26,depth_duration_stimuli/003070_2014-06-15_14-58-27_094959634447_rgbf000150-resize_3/003070_2014-06-15_14-58-27_094959634447_rgbf000150-resize_3-target.png,125,2.9415,0.2,3712,109,meters,jsons/VE125_randls_43.json,739137,1668085,1969,Woman
26,290496,DepthScenes,duration_manipulation_targetAtFixation,jsons/VE125_randls_43.json,http://54.235.29.9/FacialAge/BNav_EC2/DepthDuration/v2_depth_duration_MTurk/v2_DepthDuration_HTML.html#87,87,1366,625,1366,768,9-3-2022,9-9-23,27,depth_duration_stimuli/000943_2014-06-09_19-31-07_260595134347_rgbf000128-resize_1/000943_2014-06-09_19-31-07_260595134347_rgbf000128-resize_1-target.png,125,1.9765,0.2,3548,47,meters,jsons/VE125_randls_43.json,739137,1668085,1969,Woman
27,290496,DepthScenes,duration_manipulation_targetAtFixation,jsons/VE125_randls_43.json,http://54.235.29.9/FacialAge/BNav_EC2/DepthDuration/v2_depth_duration_MTurk/v2_DepthDuration_HTML.html#87,87,1366,625,1366,768,9-3-2022,9-9-23,28,depth_duration_stimuli/001029_2014-06-08_13-17-57_260595134347_rgbf000065-resize_1/001029_2014-06-08_13-17-57_260595134347_rgbf000065-resize_1-target.png,125,3.0835,0.3,3035,139,meters,jsons/VE125_randls_43.json,739137,1668085,1969,Woman
28,290496,DepthScenes,duration_manipulation_targetAtFixation,jsons/VE125_randls_43.json,http://54.235.29.9/FacialAge/BNav_EC2/DepthDuration/v2_depth_duration_MTurk/v2_DepthDuration_HTML.html#87,87,1366,625,1366,768,9-3-2022,9-9-23,29,depth_duration_stimuli/000677_2014-06-08_23-10-32_260595134347_rgbf000158-resize_6/000677_2014-06-08_23-10-32_260595134347_rgbf000158-resize_6-target.png,125,3.556,0.3,3299,120,meters,jsons/VE125_randls_43.json,739137,1668085,1969,Woman
29,290496,DepthScenes,duration_manipulation_targetAtFixation,jsons/VE125_randls_43.json,http://54.235.29.9/FacialAge/BNav_EC2/DepthDuration/v2_depth_duration_MTurk/v2_DepthDuration_HTML.html#87,87,1366,625,1366,768,9-3-2022,9-9-23,30,depth_duration_stimuli/000375_2014-06-08_11-17-29_260595134347_rgbf000133-resize_2/000375_2014-06-08_11-17-29_260595134347_rgbf000133-resize-original.jpg,125,4.718,0.0,2426,122,meters,jsons/VE125_randls_43.json,739137,1668085,1969,Woman
30,290496,DepthScenes,duration_manipulation_targetAtFixation,jsons/VE125_randls_43.json,http://54.235.29.9/FacialAge/BNav_EC2/DepthDuration/v2_depth_duration_MTurk/v2_DepthDuration_HTML.html#87,87,1366,625,1366,768,9-3-2022,9-9-23,31,depth_duration_stimuli/000878_2014-06-08_22-52-45_260595134347_rgbf000045-resize_2/000878_2014-06-08_22-52-45_260595134347_rgbf000045-resize_2-target.png,125,2.092,0.3,3493,134,meters,jsons/VE125_randls_43.json,739137,1668085,1969,Woman
31,290496,DepthScenes,duration_manipulation_targetAtFixation,jsons/VE125_randls_43.json,http://54.235.29.9/FacialAge/BNav_EC2/DepthDuration/v2_depth_duration_MTurk/v2_DepthDuration_HTML.html#87,87,1366,625,1366,768,9-3-2022,9-9-23,32,depth_duration_stimuli/002953_2014-06-08_17-32-18_094959634447_rgbf000059-resize_5/002953_2014-06-08_17-32-18_094959634447_rgbf000059-resize_5-target.png,125,1.551,0.4,4361,113,meters,jsons/VE125_randls_43.json,739137,1668085,1969,Woman
32,290496,DepthScenes,duration_manipulation_targetAtFixation,jsons/VE125_randls_43.json,http://54.235.29.9/FacialAge/BNav_EC2/DepthDuration/v2_depth_duration_MTurk/v2_DepthDuration_HTML.html#87,87,1366,625,1366,768,9-3-2022,9-9-23,33,depth_duration_stimuli/002663_2014-06-13_15-50-26_094959634447_rgbf000075-resize_1/002663_2014-06-13_15-50-26_094959634447_rgbf000075-resize_1-target.png,125,4.7495,0.4,4432,136,meters,jsons/VE125_randls_43.json,739137,1668085,1969,Woman
33,290496,DepthScenes,duration_manipulation_targetAtFixation,jsons/VE125_randls_43.json,http://54.235.29.9/FacialAge/BNav_EC2/DepthDuration/v2_depth_duration_MTurk/v2_DepthDuration_HTML.html#87,87,1366,625,1366,768,9-3-2022,9-9-23,34,depth_duration_stimuli/000409_2014-06-04_19-23-33_260595134347_rgbf000067-resize_0/000409_2014-06-04_19-23-33_260595134347_rgbf000067-resize_0-target.png,125,3.7335,0.4,4255,109,meters,jsons/VE125_randls_43.json,739137,1668085,1969,Woman
34,290496,DepthScenes,duration_manipulation_targetAtFixation,jsons/VE125_randls_43.json,http://54.235.29.9/FacialAge/BNav_EC2/DepthDuration/v2_depth_duration_MTurk/v2_DepthDuration_HTML.html#87,87,1366,625,1366,768,9-3-2022,9-9-23,35,depth_duration_stimuli/000929_2014-06-09_16-33-19_260595134347_rgbf000139-resize_0/000929_2014-06-09_16-33-19_260595134347_rgbf000139-resize_0-target.png,125,2.8680000000000003,0.3,3362,112,meters,jsons/VE125_randls_43.json,739137,1668085,1969,Woman
35,290496,DepthScenes,duration_manipulation_targetAtFixation,jsons/VE125_randls_43.json,http://54.235.29.9/FacialAge/BNav_EC2/DepthDuration/v2_depth_duration_MTurk/v2_DepthDuration_HTML.html#87,87,1366,625,1366,768,9-3-2022,9-9-23,36,depth_duration_stimuli/000457_2014-06-08_16-52-43_260595134347_rgbf000199-resize_1/000457_2014-06-08_16-52-43_260595134347_rgbf000199-resize_1-target.png,125,3.6489999999999996,0.3,3025,141,meters,jsons/VE125_randls_43.json,739137,1668085,1969,Woman
36,290496,DepthScenes,duration_manipulation_targetAtFixation,jsons/VE125_randls_43.json,http://54.235.29.9/FacialAge/BNav_EC2/DepthDuration/v2_depth_duration_MTurk/v2_DepthDuration_HTML.html#87,87,1366,625,1366,768,9-3-2022,9-9-23,37,depth_duration_stimuli/002549_2014-06-24_13-41-39_094959634447_rgbf000022-resize_3/002549_2014-06-24_13-41-39_094959634447_rgbf000022-resize_3-target.png,125,1.476,0.3,4606,125,meters,jsons/VE125_randls_43.json,739137,1668085,1969,Woman
37,290496,DepthScenes,duration_manipulation_targetAtFixation,jsons/VE125_randls_43.json,http://54.235.29.9/FacialAge/BNav_EC2/DepthDuration/v2_depth_duration_MTurk/v2_DepthDuration_HTML.html#87,87,1366,625,1366,768,9-3-2022,9-9-23,38,depth_duration_stimuli/002750_2014-06-22_19-08-03_094959634447_rgbf000094-resize_4/002750_2014-06-22_19-08-03_094959634447_rgbf000094-resize_4-target.png,125,2.354,0.2,3092,110,meters,jsons/VE125_randls_43.json,739137,1668085,1969,Woman
38,290496,DepthScenes,duration_manipulation_targetAtFixation,jsons/VE125_randls_43.json,http://54.235.29.9/FacialAge/BNav_EC2/DepthDuration/v2_depth_duration_MTurk/v2_DepthDuration_HTML.html#87,87,1366,625,1366,768,9-3-2022,9-9-23,39,depth_duration_stimuli/000906_2014-06-08_13-35-43_260595134347_rgbf000155-resize_1/000906_2014-06-08_13-35-43_260595134347_rgbf000155-resize_1-target.png,125,2.8489999999999998,0.2,14060,124,meters,jsons/VE125_randls_43.json,739137,1668085,1969,Woman
39,290496,DepthScenes,duration_manipulation_targetAtFixation,jsons/VE125_randls_43.json,http://54.235.29.9/FacialAge/BNav_EC2/DepthDuration/v2_depth_duration_MTurk/v2_DepthDuration_HTML.html#87,87,1366,625,1366,768,9-3-2022,9-9-23,40,depth_duration_stimuli/002805_2014-06-22_19-54-03_094959634447_rgbf000079-resize_1/002805_2014-06-22_19-54-03_094959634447_rgbf000079-resize_1-target.png,125,3.1439999999999997,0.2,3672,139,meters,jsons/VE125_randls_43.json,739137,1668085,1969,Woman
40,290496,DepthScenes,duration_manipulation_targetAtFixation,jsons/VE125_randls_43.json,http://54.235.29.9/FacialAge/BNav_EC2/DepthDuration/v2_depth_duration_MTurk/v2_DepthDuration_HTML.html#87,87,1366,625,1366,768,9-3-2022,9-9-23,41,depth_duration_stimuli/000642_2014-06-08_16-59-25_260595134347_rgbf000098-resize_2/000642_2014-06-08_16-59-25_260595134347_rgbf000098-resize_2-target.png,125,2.8815,0.3,3083,113,meters,jsons/VE125_randls_43.json,739137,1668085,1969,Woman
41,290496,DepthScenes,duration_manipulation_targetAtFixation,jsons/VE125_randls_43.json,http://54.235.29.9/FacialAge/BNav_EC2/DepthDuration/v2_depth_duration_MTurk/v2_DepthDuration_HTML.html#87,87,1366,625,1366,768,9-3-2022,9-9-23,42,depth_duration_stimuli/002425_2014-06-28_20-27-29_260595134347_rgbf000031-resize_8/002425_2014-06-28_20-27-29_260595134347_rgbf000031-resize_8-target.png,125,3.8960000000000004,0.3,2915,125,meters,jsons/VE125_randls_43.json,739137,1668085,1969,Woman
42,290496,DepthScenes,duration_manipulation_targetAtFixation,jsons/VE125_randls_43.json,http://54.235.29.9/FacialAge/BNav_EC2/DepthDuration/v2_depth_duration_MTurk/v2_DepthDuration_HTML.html#87,87,1366,625,1366,768,9-3-2022,9-9-23,43,depth_duration_stimuli/002445_2014-06-28_20-32-16_260595134347_rgbf000029-resize_4/002445_2014-06-28_20-32-16_260595134347_rgbf000029-resize_4-target.png,125,2.5315,0.3,2923,122,meters,jsons/VE125_randls_43.json,739137,1668085,1969,Woman
43,290496,DepthScenes,duration_manipulation_targetAtFixation,jsons/VE125_randls_43.json,http://54.235.29.9/FacialAge/BNav_EC2/DepthDuration/v2_depth_duration_MTurk/v2_DepthDuration_HTML.html#87,87,1366,625,1366,768,9-3-2022,9-9-23,44,depth_duration_stimuli/000780_2014-06-08_22-28-29_260595134347_rgbf000126-resize_1/000780_2014-06-08_22-28-29_260595134347_rgbf000126-resize_1-target.png,125,3.3825,0.3,2874,131,meters,jsons/VE125_randls_43.json,739137,1668085,1969,Woman
44,290496,DepthScenes,duration_manipulation_targetAtFixation,jsons/VE125_randls_43.json,http://54.235.29.9/FacialAge/BNav_EC2/DepthDuration/v2_depth_duration_MTurk/v2_DepthDuration_HTML.html#87,87,1366,625,1366,768,9-3-2022,9-9-23,45,depth_duration_stimuli/000787_2014-06-08_22-33-53_260595134347_rgbf000175-resize_1/000787_2014-06-08_22-33-53_260595134347_rgbf000175-resize-original.jpg,125,4.784,0.4,3009,126,meters,jsons/VE125_randls_43.json,739137,1668085,1969,Woman
45,290496,DepthScenes,duration_manipulation_targetAtFixation,jsons/VE125_randls_43.json,http://54.235.29.9/FacialAge/BNav_EC2/DepthDuration/v2_depth_duration_MTurk/v2_DepthDuration_HTML.html#87,87,1366,625,1366,768,9-3-2022,9-9-23,46,depth_duration_stimuli/002057_2014-06-24_21-00-13_260595134347_rgbf000120-resize_1/002057_2014-06-24_21-00-13_260595134347_rgbf000120-resize_1-target.png,125,2.967,0.3,2978,109,meters,jsons/VE125_randls_43.json,739137,1668085,1969,Woman
46,290496,DepthScenes,duration_manipulation_targetAtFixation,jsons/VE125_randls_43.json,http://54.235.29.9/FacialAge/BNav_EC2/DepthDuration/v2_depth_duration_MTurk/v2_DepthDuration_HTML.html#87,87,1366,625,1366,768,9-3-2022,9-9-23,47,depth_duration_stimuli/000709_2014-06-08_13-51-55_260595134347_rgbf000068-resize_3/000709_2014-06-08_13-51-55_260595134347_rgbf000068-resize_3-target.png,125,1.8030000000000002,0.0,2796,133,meters,jsons/VE125_randls_43.json,739137,1668085,1969,Woman
47,290496,DepthScenes,duration_manipulation_targetAtFixation,jsons/VE125_randls_43.json,http://54.235.29.9/FacialAge/BNav_EC2/DepthDuration/v2_depth_duration_MTurk/v2_DepthDuration_HTML.html#87,87,1366,625,1366,768,9-3-2022,9-9-23,48,depth_duration_stimuli/000447_2014-06-08_16-15-46_260595134347_rgbf000130-resize_1/000447_2014-06-08_16-15-46_260595134347_rgbf000130-resize_1-target.png,125,4.479,0.3,2858,122,meters,jsons/VE125_randls_43.json,739137,1668085,1969,Woman
48,290496,DepthScenes,duration_manipulation_targetAtFixation,jsons/VE125_randls_43.json,http://54.235.29.9/FacialAge/BNav_EC2/DepthDuration/v2_depth_duration_MTurk/v2_DepthDuration_HTML.html#87,87,1366,625,1366,768,9-3-2022,9-9-23,49,depth_duration_stimuli/001447_2014-06-19_17-00-32_260595134347_rgbf000082-resize_5/001447_2014-06-19_17-00-32_260595134347_rgbf000082-resize_5-target.png,125,4.13775,0.3,6020,124,meters,jsons/VE125_randls_43.json,739137,1668085,1969,Woman
49,290496,DepthScenes,duration_manipulation_targetAtFixation,jsons/VE125_randls_43.json,http://54.235.29.9/FacialAge/BNav_EC2/DepthDuration/v2_depth_duration_MTurk/v2_DepthDuration_HTML.html#87,87,1366,625,1366,768,9-3-2022,9-9-23,50,depth_duration_stimuli/002988_2014-06-15_12-24-20_094959634447_rgbf000150-resize_1/002988_2014-06-15_12-24-20_094959634447_rgbf000150-resize_1-target.png,125,4.7669999999999995,0.0,2825,125,meters,jsons/VE125_randls_43.json,739137,1668085,1969,Woman
50,290496,DepthScenes,duration_manipulation_targetAtFixation,jsons/VE125_randls_43.json,http://54.235.29.9/FacialAge/BNav_EC2/DepthDuration/v2_depth_duration_MTurk/v2_DepthDuration_HTML.html#87,87,1366,625,1366,768,9-3-2022,9-9-23,51,depth_duration_stimuli/001052_2014-06-08_18-24-54_260595134347_rgbf000130-resize_1/001052_2014-06-08_18-24-54_260595134347_rgbf000130-resize_1-target.png,125,4.1045,0.0,2427,126,meters,jsons/VE125_randls_43.json,739137,1668085,1969,Woman
51,290496,DepthScenes,duration_manipulation_targetAtFixation,jsons/VE125_randls_43.json,http://54.235.29.9/FacialAge/BNav_EC2/DepthDuration/v2_depth_duration_MTurk/v2_DepthDuration_HTML.html#87,87,1366,625,1366,768,9-3-2022,9-9-23,52,depth_duration_stimuli/002153_2014-06-25_21-27-18_260595134347_rgbf000038-resize_5/002153_2014-06-25_21-27-18_260595134347_rgbf000038-resize_5-target.png,125,2.505,0.2,3442,123,meters,jsons/VE125_randls_43.json,739137,1668085,1969,Woman
52,290496,DepthScenes,duration_manipulation_targetAtFixation,jsons/VE125_randls_43.json,http://54.235.29.9/FacialAge/BNav_EC2/DepthDuration/v2_depth_duration_MTurk/v2_DepthDuration_HTML.html#87,87,1366,625,1366,768,9-3-2022,9-9-23,53,depth_duration_stimuli/002660_2014-06-13_15-44-18_094959634447_rgbf001878-resize_2/002660_2014-06-13_15-44-18_094959634447_rgbf001878-resize_2-target.png,125,3.576,0.0,2362,110,meters,jsons/VE125_randls_43.json,739137,1668085,1969,Woman
53,290496,DepthScenes,duration_manipulation_targetAtFixation,jsons/VE125_randls_43.json,http://54.235.29.9/FacialAge/BNav_EC2/DepthDuration/v2_depth_duration_MTurk/v2_DepthDuration_HTML.html#87,87,1366,625,1366,768,9-3-2022,9-9-23,54,depth_duration_stimuli/001150_2014-06-17_15-27-34_260595134347_rgbf000108-resize_2/001150_2014-06-17_15-27-34_260595134347_rgbf000108-resize_2-target.png,125,4.0325,0.0,3420,123,meters,jsons/VE125_randls_43.json,739137,1668085,1969,Woman
54,290496,DepthScenes,duration_manipulation_targetAtFixation,jsons/VE125_randls_43.json,http://54.235.29.9/FacialAge/BNav_EC2/DepthDuration/v2_depth_duration_MTurk/v2_DepthDuration_HTML.html#87,87,1366,625,1366,768,9-3-2022,9-9-23,55,depth_duration_stimuli/000665_2014-06-09_20-42-35_260595134347_rgbf000110-resize_1/000665_2014-06-09_20-42-35_260595134347_rgbf000110-resize_1-target.png,125,3.057,0.0,2548,109,meters,jsons/VE125_randls_43.json,739137,1668085,1969,Woman
55,290496,DepthScenes,duration_manipulation_targetAtFixation,jsons/VE125_randls_43.json,http://54.235.29.9/FacialAge/BNav_EC2/DepthDuration/v2_depth_duration_MTurk/v2_DepthDuration_HTML.html#87,87,1366,625,1366,768,9-3-2022,9-9-23,56,depth_duration_stimuli/001056_2014-06-08_18-46-44_260595134347_rgbf000068-resize_0/001056_2014-06-08_18-46-44_260595134347_rgbf000068-resize_0-target.png,125,2.6625,0.2,2925,129,meters,jsons/VE125_randls_43.json,739137,1668085,1969,Woman
56,290496,DepthScenes,duration_manipulation_targetAtFixation,jsons/VE125_randls_43.json,http://54.235.29.9/FacialAge/BNav_EC2/DepthDuration/v2_depth_duration_MTurk/v2_DepthDuration_HTML.html#87,87,1366,625,1366,768,9-3-2022,9-9-23,57,depth_duration_stimuli/002199_2014-06-28_18-33-56_260595134347_rgbf000074-resize_0/002199_2014-06-28_18-33-56_260595134347_rgbf000074-resize_0-target.png,125,1.996,0.0,3114,127,meters,jsons/VE125_randls_43.json,739137,1668085,1969,Woman
57,290496,DepthScenes,duration_manipulation_targetAtFixation,jsons/VE125_randls_43.json,http://54.235.29.9/FacialAge/BNav_EC2/DepthDuration/v2_depth_duration_MTurk/v2_DepthDuration_HTML.html#87,87,1366,625,1366,768,9-3-2022,9-9-23,58,depth_duration_stimuli/002784_2014-06-22_19-26-30_094959634447_rgbf000083-resize_3/002784_2014-06-22_19-26-30_094959634447_rgbf000083-resize_3-target.png,125,1.8046666666667,0.0,2830,123,meters,jsons/VE125_randls_43.json,739137,1668085,1969,Woman
58,290496,DepthScenes,duration_manipulation_targetAtFixation,jsons/VE125_randls_43.json,http://54.235.29.9/FacialAge/BNav_EC2/DepthDuration/v2_depth_duration_MTurk/v2_DepthDuration_HTML.html#87,87,1366,625,1366,768,9-3-2022,9-9-23,59,depth_duration_stimuli/001100_2014-06-15_17-46-26_260595134347_rgbf000225-resize_2/001100_2014-06-15_17-46-26_260595134347_rgbf000225-resize_2-target.png,125,2.24,0.3,3396,117,meters,jsons/VE125_randls_43.json,739137,1668085,1969,Woman
59,290496,DepthScenes,duration_manipulation_targetAtFixation,jsons/VE125_randls_43.json,http://54.235.29.9/FacialAge/BNav_EC2/DepthDuration/v2_depth_duration_MTurk/v2_DepthDuration_HTML.html#87,87,1366,625,1366,768,9-3-2022,9-9-23,60,depth_duration_stimuli/002213_2014-06-28_18-37-58_260595134347_rgbf000055-resize_1/002213_2014-06-28_18-37-58_260595134347_rgbf000055-resize_1-target.png,125,3.62,0.3,5015,137,meters,jsons/VE125_randls_43.json,739137,1668085,1969,Woman
60,290496,DepthScenes,duration_manipulation_targetAtFixation,jsons/VE125_randls_43.json,http://54.235.29.9/FacialAge/BNav_EC2/DepthDuration/v2_depth_duration_MTurk/v2_DepthDuration_HTML.html#87,87,1366,625,1366,768,9-3-2022,9-9-23,61,depth_duration_stimuli/000691_2014-06-08_13-08-50_260595134347_rgbf000132-resize_3/000691_2014-06-08_13-08-50_260595134347_rgbf000132-resize_3-target.png,125,4.1530000000000005,0.4,4320,109,meters,jsons/VE125_randls_43.json,739137,1668085,1969,Woman
61,290496,DepthScenes,duration_manipulation_targetAtFixation,jsons/VE125_randls_43.json,http://54.235.29.9/FacialAge/BNav_EC2/DepthDuration/v2_depth_duration_MTurk/v2_DepthDuration_HTML.html#87,87,1366,625,1366,768,9-3-2022,9-9-23,62,depth_duration_stimuli/000414_2014-06-04_19-49-13_260595134347_rgbf000044-resize_0/000414_2014-06-04_19-49-13_260595134347_rgbf000044-resize_0-target.png,125,4.329,0.0,3077,128,meters,jsons/VE125_randls_43.json,739137,1668085,1969,Woman
62,290496,DepthScenes,duration_manipulation_targetAtFixation,jsons/VE125_randls_43.json,http://54.235.29.9/FacialAge/BNav_EC2/DepthDuration/v2_depth_duration_MTurk/v2_DepthDuration_HTML.html#87,87,1366,625,1366,768,9-3-2022,9-9-23,63,depth_duration_stimuli/003129_2014-05-12_10-48-10_094959634447_rgbf000100-resize_0/003129_2014-05-12_10-48-10_094959634447_rgbf000100-resize_0-target.png,125,4.9305,0.3,5025,122,meters,jsons/VE125_randls_43.json,739137,1668085,1969,Woman
63,290496,DepthScenes,duration_manipulation_targetAtFixation,jsons/VE125_randls_43.json,http://54.235.29.9/FacialAge/BNav_EC2/DepthDuration/v2_depth_duration_MTurk/v2_DepthDuration_HTML.html#87,87,1366,625,1366,768,9-3-2022,9-9-23,64,depth_duration_stimuli/002905_2014-06-03_18-04-43_094959634447_rgbf000151-resize_2/002905_2014-06-03_18-04-43_094959634447_rgbf000151-resize_2-target.png,125,2.0295,0.02,5382,34,meters,jsons/VE125_randls_43.json,739137,1668085,1969,Woman
64,290496,DepthScenes,duration_manipulation_targetAtFixation,jsons/VE125_randls_43.json,http://54.235.29.9/FacialAge/BNav_EC2/DepthDuration/v2_depth_duration_MTurk/v2_DepthDuration_HTML.html#87,87,1366,625,1366,768,9-3-2022,9-9-23,65,depth_duration_stimuli/003423_2014-05-21_10-23-26_094959634447_rgbf002665-resize_2/003423_2014-05-21_10-23-26_094959634447_rgbf002665-resize_2-target.png,125,3.2575,0.2,3268,118,meters,jsons/VE125_randls_43.json,739137,1668085,1969,Woman
65,290496,DepthScenes,duration_manipulation_targetAtFixation,jsons/VE125_randls_43.json,http://54.235.29.9/FacialAge/BNav_EC2/DepthDuration/v2_depth_duration_MTurk/v2_DepthDuration_HTML.html#87,87,1366,625,1366,768,9-3-2022,9-9-23,66,depth_duration_stimuli/001222_2014-06-17_16-24-06_260595134347_rgbf000073-resize_0/001222_2014-06-17_16-24-06_260595134347_rgbf000073-resize-original.jpg,125,1.4385,0.3,3933,115,meters,jsons/VE125_randls_43.json,739137,1668085,1969,Woman
66,290496,DepthScenes,duration_manipulation_targetAtFixation,jsons/VE125_randls_43.json,http://54.235.29.9/FacialAge/BNav_EC2/DepthDuration/v2_depth_duration_MTurk/v2_DepthDuration_HTML.html#87,87,1366,625,1366,768,9-3-2022,9-9-23,67,depth_duration_stimuli/002272_2014-06-28_18-53-56_260595134347_rgbf000067-resize_2/002272_2014-06-28_18-53-56_260595134347_rgbf000067-resize_2-target.png,125,1.138,0.4,2968,125,meters,jsons/VE125_randls_43.json,739137,1668085,1969,Woman
67,290496,DepthScenes,duration_manipulation_targetAtFixation,jsons/VE125_randls_43.json,http://54.235.29.9/FacialAge/BNav_EC2/DepthDuration/v2_depth_duration_MTurk/v2_DepthDuration_HTML.html#87,87,1366,625,1366,768,9-3-2022,9-9-23,68,depth_duration_stimuli/001571_2014-06-20_17-21-32_260595134347_rgbf000089-resize_1/001571_2014-06-20_17-21-32_260595134347_rgbf000089-resize_1-target.png,125,1.86,0.5,5031,110,meters,jsons/VE125_randls_43.json,739137,1668085,1969,Woman
68,290496,DepthScenes,duration_manipulation_targetAtFixation,jsons/VE125_randls_43.json,http://54.235.29.9/FacialAge/BNav_EC2/DepthDuration/v2_depth_duration_MTurk/v2_DepthDuration_HTML.html#87,87,1366,625,1366,768,9-3-2022,9-9-23,69,depth_duration_stimuli/002118_2014-06-25_20-32-08_260595134347_rgbf000078-resize_1/002118_2014-06-25_20-32-08_260595134347_rgbf000078-resize_1-target.png,125,2.6460000000000004,0.4,3575,127,meters,jsons/VE125_randls_43.json,739137,1668085,1969,Woman
69,290496,DepthScenes,duration_manipulation_targetAtFixation,jsons/VE125_randls_43.json,http://54.235.29.9/FacialAge/BNav_EC2/DepthDuration/v2_depth_duration_MTurk/v2_DepthDuration_HTML.html#87,87,1366,625,1366,768,9-3-2022,9-9-23,70,depth_duration_stimuli/001516_2014-06-20_16-25-09_260595134347_rgbf000076-resize_2/001516_2014-06-20_16-25-09_260595134347_rgbf000076-resize_2-target.png,125,1.7445,0.4,3110,102,meters,jsons/VE125_randls_43.json,739137,1668085,1969,Woman
70,290496,DepthScenes,duration_manipulation_targetAtFixation,jsons/VE125_randls_43.json,http://54.235.29.9/FacialAge/BNav_EC2/DepthDuration/v2_depth_duration_MTurk/v2_DepthDuration_HTML.html#87,87,1366,625,1366,768,9-3-2022,9-9-23,71,depth_duration_stimuli/002763_2014-06-22_19-13-10_094959634447_rgbf000075-resize_4/002763_2014-06-22_19-13-10_094959634447_rgbf000075-resize_4-target.png,125,1.68375,0.5,6285,125,meters,jsons/VE125_randls_43.json,739137,1668085,1969,Woman
71,290496,DepthScenes,duration_manipulation_targetAtFixation,jsons/VE125_randls_43.json,http://54.235.29.9/FacialAge/BNav_EC2/DepthDuration/v2_depth_duration_MTurk/v2_DepthDuration_HTML.html#87,87,1366,625,1366,768,9-3-2022,9-9-23,72,depth_duration_stimuli/002209_2014-06-28_18-36-10_260595134347_rgbf000051-resize_1/002209_2014-06-28_18-36-10_260595134347_rgbf000051-resize_1-target.png,125,2.057,0.5,3239,109,meters,jsons/VE125_randls_43.json,739137,1668085,1969,Woman
72,290496,DepthScenes,duration_manipulation_targetAtFixation,jsons/VE125_randls_43.json,http://54.235.29.9/FacialAge/BNav_EC2/DepthDuration/v2_depth_duration_MTurk/v2_DepthDuration_HTML.html#87,87,1366,625,1366,768,9-3-2022,9-9-23,73,depth_duration_stimuli/001570_2014-06-20_17-21-09_260595134347_rgbf000135-resize_4/001570_2014-06-20_17-21-09_260595134347_rgbf000135-resize_4-target.png,125,4.467,0.3,4979,112,meters,jsons/VE125_randls_43.json,739137,1668085,1969,Woman
73,290496,DepthScenes,duration_manipulation_targetAtFixation,jsons/VE125_randls_43.json,http://54.235.29.9/FacialAge/BNav_EC2/DepthDuration/v2_depth_duration_MTurk/v2_DepthDuration_HTML.html#87,87,1366,625,1366,768,9-3-2022,9-9-23,74,depth_duration_stimuli/001392_2014-06-19_16-07-59_260595134347_rgbf000046-resize_1/001392_2014-06-19_16-07-59_260595134347_rgbf000046-resize_1-target.png,125,4.135,0.2,3978,126,meters,jsons/VE125_randls_43.json,739137,1668085,1969,Woman
74,290496,DepthScenes,duration_manipulation_targetAtFixation,jsons/VE125_randls_43.json,http://54.235.29.9/FacialAge/BNav_EC2/DepthDuration/v2_depth_duration_MTurk/v2_DepthDuration_HTML.html#87,87,1366,625,1366,768,9-3-2022,9-9-23,75,depth_duration_stimuli/002509_2014-06-24_13-19-22_094959634447_rgbf000077-resize_0/002509_2014-06-24_13-19-22_094959634447_rgbf000077-resize_0-target.png,125,1.3065,0.2,4526,128,meters,jsons/VE125_randls_43.json,739137,1668085,1969,Woman
75,290496,DepthScenes,duration_manipulation_targetAtFixation,jsons/VE125_randls_43.json,http://54.235.29.9/FacialAge/BNav_EC2/DepthDuration/v2_depth_duration_MTurk/v2_DepthDuration_HTML.html#87,87,1366,625,1366,768,9-3-2022,9-9-23,76,depth_duration_stimuli/003338_2014-05-20_11-01-23_094959634447_rgbf000051-resize_6/003338_2014-05-20_11-01-23_094959634447_rgbf000051-resize_6-target.png,125,1.693,0.2,7261,176,meters,jsons/VE125_randls_43.json,739137,1668085,1969,Woman
76,290496,DepthScenes,duration_manipulation_targetAtFixation,jsons/VE125_randls_43.json,http://54.235.29.9/FacialAge/BNav_EC2/DepthDuration/v2_depth_duration_MTurk/v2_DepthDuration_HTML.html#87,87,1366,625,1366,768,9-3-2022,9-9-23,77,depth_duration_stimuli/000682_2014-06-08_23-14-58_260595134347_rgbf000041-resize_5/000682_2014-06-08_23-14-58_260595134347_rgbf000041-resize_5-target.png,125,2.7239999999999998,0.3,3765,126,meters,jsons/VE125_randls_43.json,739137,1668085,1969,Woman
77,290496,DepthScenes,duration_manipulation_targetAtFixation,jsons/VE125_randls_43.json,http://54.235.29.9/FacialAge/BNav_EC2/DepthDuration/v2_depth_duration_MTurk/v2_DepthDuration_HTML.html#87,87,1366,625,1366,768,9-3-2022,9-9-23,78,depth_duration_stimuli/001650_2014-06-20_12-09-00_260595134347_rgbf000087-resize_3/001650_2014-06-20_12-09-00_260595134347_rgbf000087-resize_3-target.png,125,1.9505,0.3,7177,124,meters,jsons/VE125_randls_43.json,739137,1668085,1969,Woman
78,290496,DepthScenes,duration_manipulation_targetAtFixation,jsons/VE125_randls_43.json,http://54.235.29.9/FacialAge/BNav_EC2/DepthDuration/v2_depth_duration_MTurk/v2_DepthDuration_HTML.html#87,87,1366,625,1366,768,9-3-2022,9-9-23,79,depth_duration_stimuli/001066_2014-06-08_22-03-20_260595134347_rgbf000066-resize_4/001066_2014-06-08_22-03-20_260595134347_rgbf000066-resize_4-target.png,125,4.2330000000000005,0.0,7296,135,meters,jsons/VE125_randls_43.json,739137,1668085,1969,Woman
79,290496,DepthScenes,duration_manipulation_targetAtFixation,jsons/VE125_randls_43.json,http://54.235.29.9/FacialAge/BNav_EC2/DepthDuration/v2_depth_duration_MTurk/v2_DepthDuration_HTML.html#87,87,1366,625,1366,768,9-3-2022,9-9-23,80,depth_duration_stimuli/000742_2014-06-08_18-48-09_260595134347_rgbf000164-resize_4/000742_2014-06-08_18-48-09_260595134347_rgbf000164-resize_4-target.png,125,4.632,0.0,3658,119,meters,jsons/VE125_randls_43.json,739137,1668085,1969,Woman
80,290496,DepthScenes,duration_manipulation_targetAtFixation,jsons/VE125_randls_43.json,http://54.235.29.9/FacialAge/BNav_EC2/DepthDuration/v2_depth_duration_MTurk/v2_DepthDuration_HTML.html#87,87,1366,625,1366,768,9-3-2022,9-9-23,81,depth_duration_stimuli/002989_2014-06-15_12-25-03_094959634447_rgbf000150-resize_3/002989_2014-06-15_12-25-03_094959634447_rgbf000150-resize_3-target.png,125,4.1975,0.2,3156,126,meters,jsons/VE125_randls_43.json,739137,1668085,1969,Woman
81,290496,DepthScenes,duration_manipulation_targetAtFixation,jsons/VE125_randls_43.json,http://54.235.29.9/FacialAge/BNav_EC2/DepthDuration/v2_depth_duration_MTurk/v2_DepthDuration_HTML.html#87,87,1366,625,1366,768,9-3-2022,9-9-23,82,depth_duration_stimuli/000866_2014-06-09_20-45-42_260595134347_rgbf000139-resize_1/000866_2014-06-09_20-45-42_260595134347_rgbf000139-resize_1-target.png,125,3.2155,0.3,3144,124,meters,jsons/VE125_randls_43.json,739137,1668085,1969,Woman
82,290496,DepthScenes,duration_manipulation_targetAtFixation,jsons/VE125_randls_43.json,http://54.235.29.9/FacialAge/BNav_EC2/DepthDuration/v2_depth_duration_MTurk/v2_DepthDuration_HTML.html#87,87,1366,625,1366,768,9-3-2022,9-9-23,83,depth_duration_stimuli/001417_2014-06-19_16-25-36_260595134347_rgbf000115-resize_5/001417_2014-06-19_16-25-36_260595134347_rgbf000115-resize_5-target.png,125,4.6255,0.4,3311,123,meters,jsons/VE125_randls_43.json,739137,1668085,1969,Woman
83,290496,DepthScenes,duration_manipulation_targetAtFixation,jsons/VE125_randls_43.json,http://54.235.29.9/FacialAge/BNav_EC2/DepthDuration/v2_depth_duration_MTurk/v2_DepthDuration_HTML.html#87,87,1366,625,1366,768,9-3-2022,9-9-23,84,depth_duration_stimuli/003081_2014-06-15_15-19-16_094959634447_rgbf000150-resize_1/003081_2014-06-15_15-19-16_094959634447_rgbf000150-resize_1-target.png,125,3.9125,0.2,2992,123,meters,jsons/VE125_randls_43.json,739137,1668085,1969,Woman
84,290496,DepthScenes,duration_manipulation_targetAtFixation,jsons/VE125_randls_43.json,http://54.235.29.9/FacialAge/BNav_EC2/DepthDuration/v2_depth_duration_MTurk/v2_DepthDuration_HTML.html#87,87,1366,625,1366,768,9-3-2022,9-9-23,85,depth_duration_stimuli/001175_2014-06-17_15-45-55_260595134347_rgbf000129-resize_4/001175_2014-06-17_15-45-55_260595134347_rgbf000129-resize_4-target.png,125,4.255,0.3,3440,118,meters,jsons/VE125_randls_43.json,739137,1668085,1969,Woman
85,290496,DepthScenes,duration_manipulation_targetAtFixation,jsons/VE125_randls_43.json,http://54.235.29.9/FacialAge/BNav_EC2/DepthDuration/v2_depth_duration_MTurk/v2_DepthDuration_HTML.html#87,87,1366,625,1366,768,9-3-2022,9-9-23,86,depth_duration_stimuli/003490_2014-05-21_15-50-11_094959634447_rgbf000101-resize_3/003490_2014-05-21_15-50-11_094959634447_rgbf000101-resize_3-target.png,125,3.6445,0.3,3510,127,meters,jsons/VE125_randls_43.json,739137,1668085,1969,Woman
86,290496,DepthScenes,duration_manipulation_targetAtFixation,jsons/VE125_randls_43.json,http://54.235.29.9/FacialAge/BNav_EC2/DepthDuration/v2_depth_duration_MTurk/v2_DepthDuration_HTML.html#87,87,1366,625,1366,768,9-3-2022,9-9-23,87,depth_duration_stimuli/000788_2014-06-08_22-34-36_260595134347_rgbf000131-resize_1/000788_2014-06-08_22-34-36_260595134347_rgbf000131-resize_1-target.png,125,3.359,0.3,3139,124,meters,jsons/VE125_randls_43.json,739137,1668085,1969,Woman
87,290496,DepthScenes,duration_manipulation_targetAtFixation,jsons/VE125_randls_43.json,http://54.235.29.9/FacialAge/BNav_EC2/DepthDuration/v2_depth_duration_MTurk/v2_DepthDuration_HTML.html#87,87,1366,625,1366,768,9-3-2022,9-9-23,88,depth_duration_stimuli/001235_2014-06-17_16-37-36_260595134347_rgbf000084-resize_4/001235_2014-06-17_16-37-36_260595134347_rgbf000084-resize_4-target.png,125,3.6605,0.3,3516,124,meters,jsons/VE125_randls_43.json,739137,1668085,1969,Woman
88,290496,DepthScenes,duration_manipulation_targetAtFixation,jsons/VE125_randls_43.json,http://54.235.29.9/FacialAge/BNav_EC2/DepthDuration/v2_depth_duration_MTurk/v2_DepthDuration_HTML.html#87,87,1366,625,1366,768,9-3-2022,9-9-23,89,depth_duration_stimuli/000810_2014-06-08_17-20-01_260595134347_rgbf000105-resize_0/000810_2014-06-08_17-20-01_260595134347_rgbf000105-resize_0-target.png,125,1.4865,0.4,3116,124,meters,jsons/VE125_randls_43.json,739137,1668085,1969,Woman
89,290496,DepthScenes,duration_manipulation_targetAtFixation,jsons/VE125_randls_43.json,http://54.235.29.9/FacialAge/BNav_EC2/DepthDuration/v2_depth_duration_MTurk/v2_DepthDuration_HTML.html#87,87,1366,625,1366,768,9-3-2022,9-9-23,90,depth_duration_stimuli/001214_2014-06-17_16-13-55_260595134347_rgbf000111-resize_0/001214_2014-06-17_16-13-55_260595134347_rgbf000111-resize_0-target.png,125,2.6505,0.3,3173,124,meters,jsons/VE125_randls_43.json,739137,1668085,1969,Woman
90,290496,DepthScenes,duration_manipulation_targetAtFixation,jsons/VE125_randls_43.json,http://54.235.29.9/FacialAge/BNav_EC2/DepthDuration/v2_depth_duration_MTurk/v2_DepthDuration_HTML.html#87,87,1366,625,1366,768,9-3-2022,9-9-23,91,depth_duration_stimuli/002279_2014-06-28_18-55-32_260595134347_rgbf000040-resize_5/002279_2014-06-28_18-55-32_260595134347_rgbf000040-resize_5-target.png,125,1.5043333333333,0.2,2707,62,meters,jsons/VE125_randls_43.json,739137,1668085,1969,Woman
91,290496,DepthScenes,duration_manipulation_targetAtFixation,jsons/VE125_randls_43.json,http://54.235.29.9/FacialAge/BNav_EC2/DepthDuration/v2_depth_duration_MTurk/v2_DepthDuration_HTML.html#87,87,1366,625,1366,768,9-3-2022,9-9-23,92,depth_duration_stimuli/000635_2014-06-08_16-38-42_260595134347_rgbf000106-resize_1/000635_2014-06-08_16-38-42_260595134347_rgbf000106-resize_1-target.png,125,2.074,0.2,8192,125,meters,jsons/VE125_randls_43.json,739137,1668085,1969,Woman
92,290496,DepthScenes,duration_manipulation_targetAtFixation,jsons/VE125_randls_43.json,http://54.235.29.9/FacialAge/BNav_EC2/DepthDuration/v2_depth_duration_MTurk/v2_DepthDuration_HTML.html#87,87,1366,625,1366,768,9-3-2022,9-9-23,93,depth_duration_stimuli/001110_2014-06-15_17-25-28_260595134347_rgbf000150-resize_1/001110_2014-06-15_17-25-28_260595134347_rgbf000150-resize_1-target.png,125,1.7115,0.2,5323,101,meters,jsons/VE125_randls_43.json,739137,1668085,1969,Woman
93,290496,DepthScenes,duration_manipulation_targetAtFixation,jsons/VE125_randls_43.json,http://54.235.29.9/FacialAge/BNav_EC2/DepthDuration/v2_depth_duration_MTurk/v2_DepthDuration_HTML.html#87,87,1366,625,1366,768,9-3-2022,9-9-23,94,depth_duration_stimuli/000927_2014-06-09_16-32-30_260595134347_rgbf000123-resize_3/000927_2014-06-09_16-32-30_260595134347_rgbf000123-resize_3-target.png,125,2.6785,0.3,3099,128,meters,jsons/VE125_randls_43.json,739137,1668085,1969,Woman
94,290496,DepthScenes,duration_manipulation_targetAtFixation,jsons/VE125_randls_43.json,http://54.235.29.9/FacialAge/BNav_EC2/DepthDuration/v2_depth_duration_MTurk/v2_DepthDuration_HTML.html#87,87,1366,625,1366,768,9-3-2022,9-9-23,95,depth_duration_stimuli/002600_2014-06-24_14-27-04_094959634447_rgbf000074-resize_2/002600_2014-06-24_14-27-04_094959634447_rgbf000074-resize_2-target.png,125,2.7575,0.3,3496,100,meters,jsons/VE125_randls_43.json,739137,1668085,1969,Woman
95,290496,DepthScenes,duration_manipulation_targetAtFixation,jsons/VE125_randls_43.json,http://54.235.29.9/FacialAge/BNav_EC2/DepthDuration/v2_depth_duration_MTurk/v2_DepthDuration_HTML.html#87,87,1366,625,1366,768,9-3-2022,9-9-23,96,depth_duration_stimuli/003228_2014-05-14_13-42-35_094959634447_rgbf000101-resize_1/003228_2014-05-14_13-42-35_094959634447_rgbf000101-resize_1-target.png,125,1.9680000000000002,0.4,3022,123,meters,jsons/VE125_randls_43.json,739137,1668085,1969,Woman
96,290496,DepthScenes,duration_manipulation_targetAtFixation,jsons/VE125_randls_43.json,http://54.235.29.9/FacialAge/BNav_EC2/DepthDuration/v2_depth_duration_MTurk/v2_DepthDuration_HTML.html#87,87,1366,625,1366,768,9-3-2022,9-9-23,97,depth_duration_stimuli/000917_2014-06-09_22-45-29_260595134347_rgbf000149-resize_3/000917_2014-06-09_22-45-29_260595134347_rgbf000149-resize_3-target.png,125,4.1865,0.3,3101,144,meters,jsons/VE125_randls_43.json,739137,1668085,1969,Woman
97,290496,DepthScenes,duration_manipulation_targetAtFixation,jsons/VE125_randls_43.json,http://54.235.29.9/FacialAge/BNav_EC2/DepthDuration/v2_depth_duration_MTurk/v2_DepthDuration_HTML.html#87,87,1366,625,1366,768,9-3-2022,9-9-23,98,depth_duration_stimuli/002323_2014-06-28_20-01-54_260595134347_rgbf000051-resize_4/002323_2014-06-28_20-01-54_260595134347_rgbf000051-resize_4-target.png,125,3.7310000000000003,0.4,3126,137,meters,jsons/VE125_randls_43.json,739137,1668085,1969,Woman
98,290496,DepthScenes,duration_manipulation_targetAtFixation,jsons/VE125_randls_43.json,http://54.235.29.9/FacialAge/BNav_EC2/DepthDuration/v2_depth_duration_MTurk/v2_DepthDuration_HTML.html#87,87,1366,625,1366,768,9-3-2022,9-9-23,99,depth_duration_stimuli/001540_2014-06-20_17-01-05_260595134347_rgbf000086-resize_2/001540_2014-06-20_17-01-05_260595134347_rgbf000086-resize-original.jpg,125,1.459,0.0,2603,0,meters,jsons/VE125_randls_43.json,739137,1668085,1969,Woman
99,290496,DepthScenes,duration_manipulation_targetAtFixation,jsons/VE125_randls_43.json,http://54.235.29.9/FacialAge/BNav_EC2/DepthDuration/v2_depth_duration_MTurk/v2_DepthDuration_HTML.html#87,87,1366,625,1366,768,9-3-2022,9-9-23,100,depth_duration_stimuli/001158_2014-06-17_15-32-16_260595134347_rgbf000138-resize_2/001158_2014-06-17_15-32-16_260595134347_rgbf000138-resize_2-target.png,125,4.5315,0.2,2827,95,meters,jsons/VE125_randls_43.json,739137,1668085,1969,Woman
100,290496,DepthScenes,duration_manipulation_targetAtFixation,jsons/VE125_randls_43.json,http://54.235.29.9/FacialAge/BNav_EC2/DepthDuration/v2_depth_duration_MTurk/v2_DepthDuration_HTML.html#87,87,1366,625,1366,768,9-3-2022,9-9-23,101,depth_duration_stimuli/000556_2014-06-09_22-42-56_260595134347_rgbf000214-resize_1/000556_2014-06-09_22-42-56_260595134347_rgbf000214-resize_1-target.png,125,4.8415,0.2,2813,127,meters,jsons/VE125_randls_43.json,739137,1668085,1969,Woman
101,290496,DepthScenes,duration_manipulation_targetAtFixation,jsons/VE125_randls_43.json,http://54.235.29.9/FacialAge/BNav_EC2/DepthDuration/v2_depth_duration_MTurk/v2_DepthDuration_HTML.html#87,87,1366,625,1366,768,9-3-2022,9-9-23,102,depth_duration_stimuli/000436_2014-06-09_22-25-11_260595134347_rgbf000137-resize_1/000436_2014-06-09_22-25-11_260595134347_rgbf000137-resize_1-target.png,125,4.0705,0.3,3307,126,meters,jsons/VE125_randls_43.json,739137,1668085,1969,Woman
102,290496,DepthScenes,duration_manipulation_targetAtFixation,jsons/VE125_randls_43.json,http://54.235.29.9/FacialAge/BNav_EC2/DepthDuration/v2_depth_duration_MTurk/v2_DepthDuration_HTML.html#87,87,1366,625,1366,768,9-3-2022,9-9-23,103,depth_duration_stimuli/002444_2014-06-28_20-32-08_260595134347_rgbf000027-resize_0/002444_2014-06-28_20-32-08_260595134347_rgbf000027-resize_0-target.png,125,4.388999999999999,0.3,2973,124,meters,jsons/VE125_randls_43.json,739137,1668085,1969,Woman
103,290496,DepthScenes,duration_manipulation_targetAtFixation,jsons/VE125_randls_43.json,http://54.235.29.9/FacialAge/BNav_EC2/DepthDuration/v2_depth_duration_MTurk/v2_DepthDuration_HTML.html#87,87,1366,625,1366,768,9-3-2022,9-9-23,104,depth_duration_stimuli/001011_2014-06-08_23-18-54_260595134347_rgbf000044-resize_4/001011_2014-06-08_23-18-54_260595134347_rgbf000044-resize_4-target.png,125,2.4730000000000003,0.3,2927,127,meters,jsons/VE125_randls_43.json,739137,1668085,1969,Woman
104,290496,DepthScenes,duration_manipulation_targetAtFixation,jsons/VE125_randls_43.json,http://54.235.29.9/FacialAge/BNav_EC2/DepthDuration/v2_depth_duration_MTurk/v2_DepthDuration_HTML.html#87,87,1366,625,1366,768,9-3-2022,9-9-23,105,depth_duration_stimuli/002875_2014-06-01_15-19-00_094959634447_rgbf000151-resize_1/002875_2014-06-01_15-19-00_094959634447_rgbf000151-resize_1-target.png,125,1.9675,0.0,3005,124,meters,jsons/VE125_randls_43.json,739137,1668085,1969,Woman
105,290496,DepthScenes,duration_manipulation_targetAtFixation,jsons/VE125_randls_43.json,http://54.235.29.9/FacialAge/BNav_EC2/DepthDuration/v2_depth_duration_MTurk/v2_DepthDuration_HTML.html#87,87,1366,625,1366,768,9-3-2022,9-9-23,106,depth_duration_stimuli/003492_2014-05-21_15-50-55_094959634447_rgbf000828-resize_1/003492_2014-05-21_15-50-55_094959634447_rgbf000828-resize_1-target.png,125,4.06875,0.0,6725,111,meters,jsons/VE125_randls_43.json,739137,1668085,1969,Woman
106,290496,DepthScenes,duration_manipulation_targetAtFixation,jsons/VE125_randls_43.json,http://54.235.29.9/FacialAge/BNav_EC2/DepthDuration/v2_depth_duration_MTurk/v2_DepthDuration_HTML.html#87,87,1366,625,1366,768,9-3-2022,9-9-23,107,depth_duration_stimuli/002568_2014-06-24_13-59-21_094959634447_rgbf000062-resize_4/002568_2014-06-24_13-59-21_094959634447_rgbf000062-resize_4-target.png,125,3.015,0.2,2924,128,meters,jsons/VE125_randls_43.json,739137,1668085,1969,Woman
107,290496,DepthScenes,duration_manipulation_targetAtFixation,jsons/VE125_randls_43.json,http://54.235.29.9/FacialAge/BNav_EC2/DepthDuration/v2_depth_duration_MTurk/v2_DepthDuration_HTML.html#87,87,1366,625,1366,768,9-3-2022,9-9-23,108,depth_duration_stimuli/001164_2014-06-17_15-35-46_260595134347_rgbf000085-resize_3/001164_2014-06-17_15-35-46_260595134347_rgbf000085-resize_3-target.png,125,2.354,0.2,5326,128,meters,jsons/VE125_randls_43.json,739137,1668085,1969,Woman
108,290496,DepthScenes,duration_manipulation_targetAtFixation,jsons/VE125_randls_43.json,http://54.235.29.9/FacialAge/BNav_EC2/DepthDuration/v2_depth_duration_MTurk/v2_DepthDuration_HTML.html#87,87,1366,625,1366,768,9-3-2022,9-9-23,109,depth_duration_stimuli/001136_2014-06-17_15-19-41_260595134347_rgbf000076-resize_3/001136_2014-06-17_15-19-41_260595134347_rgbf000076-resize_3-target.png,125,1.8655,0.3,4039,124,meters,jsons/VE125_randls_43.json,739137,1668085,1969,Woman
109,290496,DepthScenes,duration_manipulation_targetAtFixation,jsons/VE125_randls_43.json,http://54.235.29.9/FacialAge/BNav_EC2/DepthDuration/v2_depth_duration_MTurk/v2_DepthDuration_HTML.html#87,87,1366,625,1366,768,9-3-2022,9-9-23,110,depth_duration_stimuli/000506_2014-06-08_23-21-00_260595134347_rgbf000070-resize_7/000506_2014-06-08_23-21-00_260595134347_rgbf000070-resize_7-target.png,125,4.0585,0.2,2858,124,meters,jsons/VE125_randls_43.json,739137,1668085,1969,Woman
110,290496,DepthScenes,duration_manipulation_targetAtFixation,jsons/VE125_randls_43.json,http://54.235.29.9/FacialAge/BNav_EC2/DepthDuration/v2_depth_duration_MTurk/v2_DepthDuration_HTML.html#87,87,1366,625,1366,768,9-3-2022,9-9-23,111,depth_duration_stimuli/003079_2014-06-15_15-18-20_094959634447_rgbf000152-resize_8/003079_2014-06-15_15-18-20_094959634447_rgbf000152-resize_8-target.png,125,2.8775,0.2,3562,123,meters,jsons/VE125_randls_43.json,739137,1668085,1969,Woman
111,290496,DepthScenes,duration_manipulation_targetAtFixation,jsons/VE125_randls_43.json,http://54.235.29.9/FacialAge/BNav_EC2/DepthDuration/v2_depth_duration_MTurk/v2_DepthDuration_HTML.html#87,87,1366,625,1366,768,9-3-2022,9-9-23,112,depth_duration_stimuli/000493_2014-06-09_21-01-18_260595134347_rgbf000196-resize_3/000493_2014-06-09_21-01-18_260595134347_rgbf000196-resize_3-target.png,125,3.44,0.2,3404,113,meters,jsons/VE125_randls_43.json,739137,1668085,1969,Woman
112,290496,DepthScenes,duration_manipulation_targetAtFixation,jsons/VE125_randls_43.json,http://54.235.29.9/FacialAge/BNav_EC2/DepthDuration/v2_depth_duration_MTurk/v2_DepthDuration_HTML.html#87,87,1366,625,1366,768,9-3-2022,9-9-23,113,depth_duration_stimuli/000191_2014-05-12_17-07-38_260595134347_rgbf000199-resize_0/000191_2014-05-12_17-07-38_260595134347_rgbf000199-resize_0-target.png,125,3.7995,0.3,3380,126,meters,jsons/VE125_randls_43.json,739137,1668085,1969,Woman
113,290496,DepthScenes,duration_manipulation_targetAtFixation,jsons/VE125_randls_43.json,http://54.235.29.9/FacialAge/BNav_EC2/DepthDuration/v2_depth_duration_MTurk/v2_DepthDuration_HTML.html#87,87,1366,625,1366,768,9-3-2022,9-9-23,114,depth_duration_stimuli/000486_2014-06-09_20-47-20_260595134347_rgbf000143-resize_2/000486_2014-06-09_20-47-20_260595134347_rgbf000143-resize_2-target.png,125,4.8325,0.2,3053,118,meters,jsons/VE125_randls_43.json,739137,1668085,1969,Woman
114,290496,DepthScenes,duration_manipulation_targetAtFixation,jsons/VE125_randls_43.json,http://54.235.29.9/FacialAge/BNav_EC2/DepthDuration/v2_depth_duration_MTurk/v2_DepthDuration_HTML.html#87,87,1366,625,1366,768,9-3-2022,9-9-23,115,depth_duration_stimuli/003083_2014-06-15_15-21-03_094959634447_rgbf000063-resize_1/003083_2014-06-15_15-21-03_094959634447_rgbf000063-resize_1-target.png,125,4.1405,0.2,3560,123,meters,jsons/VE125_randls_43.json,739137,1668085,1969,Woman
115,290496,DepthScenes,duration_manipulation_targetAtFixation,jsons/VE125_randls_43.json,http://54.235.29.9/FacialAge/BNav_EC2/DepthDuration/v2_depth_duration_MTurk/v2_DepthDuration_HTML.html#87,87,1366,625,1366,768,9-3-2022,9-9-23,116,depth_duration_stimuli/001170_2014-06-17_15-43-44_260595134347_rgbf000096-resize_6/001170_2014-06-17_15-43-44_260595134347_rgbf000096-resize-original.jpg,125,1.1909999999999998,0.2,3062,87,meters,jsons/VE125_randls_43.json,739137,1668085,1969,Woman
116,290496,DepthScenes,duration_manipulation_targetAtFixation,jsons/VE125_randls_43.json,http://54.235.29.9/FacialAge/BNav_EC2/DepthDuration/v2_depth_duration_MTurk/v2_DepthDuration_HTML.html#87,87,1366,625,1366,768,9-3-2022,9-9-23,117,depth_duration_stimuli/000469_2014-06-09_19-42-10_260595134347_rgbf000081-resize_1/000469_2014-06-09_19-42-10_260595134347_rgbf000081-resize_1-target.png,125,1.652,0.2,3903,126,meters,jsons/VE125_randls_43.json,739137,1668085,1969,Woman
117,290496,DepthScenes,duration_manipulation_targetAtFixation,jsons/VE125_randls_43.json,http://54.235.29.9/FacialAge/BNav_EC2/DepthDuration/v2_depth_duration_MTurk/v2_DepthDuration_HTML.html#87,87,1366,625,1366,768,9-3-2022,9-9-23,118,depth_duration_stimuli/000483_2014-06-09_20-41-45_260595134347_rgbf000116-resize_4/000483_2014-06-09_20-41-45_260595134347_rgbf000116-resize_4-target.png,125,1.337,0.2,3384,121,meters,jsons/VE125_randls_43.json,739137,1668085,1969,Woman
118,290496,DepthScenes,duration_manipulation_targetAtFixation,jsons/VE125_randls_43.json,http://54.235.29.9/FacialAge/BNav_EC2/DepthDuration/v2_depth_duration_MTurk/v2_DepthDuration_HTML.html#87,87,1366,625,1366,768,9-3-2022,9-9-23,119,depth_duration_stimuli/001449_2014-06-19_17-01-27_260595134347_rgbf000116-resize_2/001449_2014-06-19_17-01-27_260595134347_rgbf000116-resize_2-target.png,125,3.452,0.3,3210,125,meters,jsons/VE125_randls_43.json,739137,1668085,1969,Woman
119,290496,DepthScenes,duration_manipulation_targetAtFixation,jsons/VE125_randls_43.json,http://54.235.29.9/FacialAge/BNav_EC2/DepthDuration/v2_depth_duration_MTurk/v2_DepthDuration_HTML.html#87,87,1366,625,1366,768,9-3-2022,9-9-23,120,depth_duration_stimuli/001450_2014-06-19_17-02-03_260595134347_rgbf000203-resize_4/001450_2014-06-19_17-02-03_260595134347_rgbf000203-resize_4-target.png,125,4.0106666666667,0.2,2896,121,meters,jsons/VE125_randls_43.json,739137,1668085,1969,Woman
120,290496,DepthScenes,duration_manipulation_targetAtFixation,jsons/VE125_randls_43.json,http://54.235.29.9/FacialAge/BNav_EC2/DepthDuration/v2_depth_duration_MTurk/v2_DepthDuration_HTML.html#87,87,1366,625,1366,768,9-3-2022,9-9-23,121,depth_duration_stimuli/001244_2014-06-17_16-47-45_260595134347_rgbf000030-resize_4/001244_2014-06-17_16-47-45_260595134347_rgbf000030-resize_4-target.png,125,2.0425,0.3,3091,123,meters,jsons/VE125_randls_43.json,739137,1668085,1969,Woman
121,290496,DepthScenes,duration_manipulation_targetAtFixation,jsons/VE125_randls_43.json,http://54.235.29.9/FacialAge/BNav_EC2/DepthDuration/v2_depth_duration_MTurk/v2_DepthDuration_HTML.html#87,87,1366,625,1366,768,9-3-2022,9-9-23,122,depth_duration_stimuli/003495_2014-05-21_16-01-51_094959634447_rgbf000100-resize_3/003495_2014-05-21_16-01-51_094959634447_rgbf000100-resize_3-target.png,125,1.6255,0.2,3441,121,meters,jsons/VE125_randls_43.json,739137,1668085,1969,Woman
122,290496,DepthScenes,duration_manipulation_targetAtFixation,jsons/VE125_randls_43.json,http://54.235.29.9/FacialAge/BNav_EC2/DepthDuration/v2_depth_duration_MTurk/v2_DepthDuration_HTML.html#87,87,1366,625,1366,768,9-3-2022,9-9-23,123,depth_duration_stimuli/000009_2014-05-26_14-32-05_260595134347_rgbf000034-resize_3/000009_2014-05-26_14-32-05_260595134347_rgbf000034-resize_3-target.png,125,3.8715,0.2,4532,133,meters,jsons/VE125_randls_43.json,739137,1668085,1969,Woman
123,290496,DepthScenes,duration_manipulation_targetAtFixation,jsons/VE125_randls_43.json,http://54.235.29.9/FacialAge/BNav_EC2/DepthDuration/v2_depth_duration_MTurk/v2_DepthDuration_HTML.html#87,87,1366,625,1366,768,9-3-2022,9-9-23,124,depth_duration_stimuli/001828_2014-06-26_21-40-03_260595134347_rgbf000024-resize_0/001828_2014-06-26_21-40-03_260595134347_rgbf000024-resize_0-target.png,125,4.8260000000000005,0.2,5044,116,meters,jsons/VE125_randls_43.json,739137,1668085,1969,Woman
124,290496,DepthScenes,duration_manipulation_targetAtFixation,jsons/VE125_randls_43.json,http://54.235.29.9/FacialAge/BNav_EC2/DepthDuration/v2_depth_duration_MTurk/v2_DepthDuration_HTML.html#87,87,1366,625,1366,768,9-3-2022,9-9-23,125,depth_duration_stimuli/000522_2014-06-08_13-35-06_260595134347_rgbf000244-resize_1/000522_2014-06-08_13-35-06_260595134347_rgbf000244-resize_1-target.png,125,2.3715,0.2,2878,140,meters,jsons/VE125_randls_43.json,739137,1668085,1969,Woman
125,290496,DepthScenes,duration_manipulation_targetAtFixation,jsons/VE125_randls_43.json,http://54.235.29.9/FacialAge/BNav_EC2/DepthDuration/v2_depth_duration_MTurk/v2_DepthDuration_HTML.html#87,87,1366,625,1366,768,9-3-2022,9-9-23,126,depth_duration_stimuli/002949_2014-06-26_15-57-42_094959634447_rgbf000079-resize_1/002949_2014-06-26_15-57-42_094959634447_rgbf000079-resize_1-target.png,125,1.8915,0.3,2930,121,meters,jsons/VE125_randls_43.json,739137,1668085,1969,Woman
126,290496,DepthScenes,duration_manipulation_targetAtFixation,jsons/VE125_randls_43.json,http://54.235.29.9/FacialAge/BNav_EC2/DepthDuration/v2_depth_duration_MTurk/v2_DepthDuration_HTML.html#87,87,1366,625,1366,768,9-3-2022,9-9-23,127,depth_duration_stimuli/002043_2014-06-24_20-29-38_260595134347_rgbf000039-resize_4/002043_2014-06-24_20-29-38_260595134347_rgbf000039-resize_4-target.png,125,2.8435,0.3,3233,122,meters,jsons/VE125_randls_43.json,739137,1668085,1969,Woman
127,290496,DepthScenes,duration_manipulation_targetAtFixation,jsons/VE125_randls_43.json,http://54.235.29.9/FacialAge/BNav_EC2/DepthDuration/v2_depth_duration_MTurk/v2_DepthDuration_HTML.html#87,87,1366,625,1366,768,9-3-2022,9-9-23,128,depth_duration_stimuli/003048_2014-06-15_13-49-43_094959634447_rgbf000150-resize_1/003048_2014-06-15_13-49-43_094959634447_rgbf000150-resize_1-target.png,125,4.0035,0.4,3519,124,meters,jsons/VE125_randls_43.json,739137,1668085,1969,Woman
128,290496,DepthScenes,duration_manipulation_targetAtFixation,jsons/VE125_randls_43.json,http://54.235.29.9/FacialAge/BNav_EC2/DepthDuration/v2_depth_duration_MTurk/v2_DepthDuration_HTML.html#87,87,1366,625,1366,768,9-3-2022,9-9-23,129,depth_duration_stimuli/001133_2014-06-17_14-49-16_260595134347_rgbf000100-resize_0/001133_2014-06-17_14-49-16_260595134347_rgbf000100-resize_0-target.png,125,4.2115,0.3,3060,116,meters,jsons/VE125_randls_43.json,739137,1668085,1969,Woman
129,290496,DepthScenes,duration_manipulation_targetAtFixation,jsons/VE125_randls_43.json,http://54.235.29.9/FacialAge/BNav_EC2/DepthDuration/v2_depth_duration_MTurk/v2_DepthDuration_HTML.html#87,87,1366,625,1366,768,9-3-2022,9-9-23,130,depth_duration_stimuli/001132_2014-06-17_14-48-54_260595134347_rgbf000100-resize_2/001132_2014-06-17_14-48-54_260595134347_rgbf000100-resize_2-target.png,125,3.753,0.2,2910,171,meters,jsons/VE125_randls_43.json,739137,1668085,1969,Woman
130,290496,DepthScenes,duration_manipulation_targetAtFixation,jsons/VE125_randls_43.json,http://54.235.29.9/FacialAge/BNav_EC2/DepthDuration/v2_depth_duration_MTurk/v2_DepthDuration_HTML.html#87,87,1366,625,1366,768,9-3-2022,9-9-23,131,depth_duration_stimuli/002788_2014-06-22_19-36-03_094959634447_rgbf000088-resize_2/002788_2014-06-22_19-36-03_094959634447_rgbf000088-resize_2-target.png,125,1.6465,0.2,4143,124,meters,jsons/VE125_randls_43.json,739137,1668085,1969,Woman
131,290496,DepthScenes,duration_manipulation_targetAtFixation,jsons/VE125_randls_43.json,http://54.235.29.9/FacialAge/BNav_EC2/DepthDuration/v2_depth_duration_MTurk/v2_DepthDuration_HTML.html#87,87,1366,625,1366,768,9-3-2022,9-9-23,132,depth_duration_stimuli/000749_2014-06-08_21-55-06_260595134347_rgbf000070-resize_2/000749_2014-06-08_21-55-06_260595134347_rgbf000070-resize_2-target.png,125,2.331,0.2,4452,101,meters,jsons/VE125_randls_43.json,739137,1668085,1969,Woman
132,290496,DepthScenes,duration_manipulation_targetAtFixation,jsons/VE125_randls_43.json,http://54.235.29.9/FacialAge/BNav_EC2/DepthDuration/v2_depth_duration_MTurk/v2_DepthDuration_HTML.html#87,87,1366,625,1366,768,9-3-2022,9-9-23,133,depth_duration_stimuli/000758_2014-06-08_22-05-08_260595134347_rgbf000085-resize_0/000758_2014-06-08_22-05-08_260595134347_rgbf000085-resize_0-target.png,125,3.3810000000000002,0.3,3004,122,meters,jsons/VE125_randls_43.json,739137,1668085,1969,Woman
133,290496,DepthScenes,duration_manipulation_targetAtFixation,jsons/VE125_randls_43.json,http://54.235.29.9/FacialAge/BNav_EC2/DepthDuration/v2_depth_duration_MTurk/v2_DepthDuration_HTML.html#87,87,1366,625,1366,768,9-3-2022,9-9-23,134,depth_duration_stimuli/000854_2014-06-09_19-43-13_260595134347_rgbf000066-resize_0/000854_2014-06-09_19-43-13_260595134347_rgbf000066-resize_0-target.png,125,3.068,0.3,4310,128,meters,jsons/VE125_randls_43.json,739137,1668085,1969,Woman
134,290496,DepthScenes,duration_manipulation_targetAtFixation,jsons/VE125_randls_43.json,http://54.235.29.9/FacialAge/BNav_EC2/DepthDuration/v2_depth_duration_MTurk/v2_DepthDuration_HTML.html#87,87,1366,625,1366,768,9-3-2022,9-9-23,135,depth_duration_stimuli/002072_2014-06-24_21-48-06_260595134347_rgbf000115-resize_0/002072_2014-06-24_21-48-06_260595134347_rgbf000115-resize-original.jpg,125,4.702,0.3,4171,133,meters,jsons/VE125_randls_43.json,739137,1668085,1969,Woman
135,290496,DepthScenes,duration_manipulation_targetAtFixation,jsons/VE125_randls_43.json,http://54.235.29.9/FacialAge/BNav_EC2/DepthDuration/v2_depth_duration_MTurk/v2_DepthDuration_HTML.html#87,87,1366,625,1366,768,9-3-2022,9-9-23,136,depth_duration_stimuli/002725_2014-06-22_11-47-51_094959634447_rgbf000070-resize_1/002725_2014-06-22_11-47-51_094959634447_rgbf000070-resize_1-target.png,125,2.195,0.2,4769,122,meters,jsons/VE125_randls_43.json,739137,1668085,1969,Woman
136,290496,DepthScenes,duration_manipulation_targetAtFixation,jsons/VE125_randls_43.json,http://54.235.29.9/FacialAge/BNav_EC2/DepthDuration/v2_depth_duration_MTurk/v2_DepthDuration_HTML.html#87,87,1366,625,1366,768,9-3-2022,9-9-23,137,depth_duration_stimuli/002344_2014-06-28_20-06-29_260595134347_rgbf000030-resize_1/002344_2014-06-28_20-06-29_260595134347_rgbf000030-resize_1-target.png,125,1.5795,0.3,3859,122,meters,jsons/VE125_randls_43.json,739137,1668085,1969,Woman
137,290496,DepthScenes,duration_manipulation_targetAtFixation,jsons/VE125_randls_43.json,http://54.235.29.9/FacialAge/BNav_EC2/DepthDuration/v2_depth_duration_MTurk/v2_DepthDuration_HTML.html#87,87,1366,625,1366,768,9-3-2022,9-9-23,138,depth_duration_stimuli/001016_2014-06-09_16-16-10_260595134347_rgbf000112-resize_5/001016_2014-06-09_16-16-10_260595134347_rgbf000112-resize_5-target.png,125,1.6565,0.4,5614,122,meters,jsons/VE125_randls_43.json,739137,1668085,1969,Woman
138,290496,DepthScenes,duration_manipulation_targetAtFixation,jsons/VE125_randls_43.json,http://54.235.29.9/FacialAge/BNav_EC2/DepthDuration/v2_depth_duration_MTurk/v2_DepthDuration_HTML.html#87,87,1366,625,1366,768,9-3-2022,9-9-23,139,depth_duration_stimuli/002340_2014-06-28_20-05-46_260595134347_rgbf000113-resize_0/002340_2014-06-28_20-05-46_260595134347_rgbf000113-resize_0-target.png,125,2.4735,0.2,5704,126,meters,jsons/VE125_randls_43.json,739137,1668085,1969,Woman
139,290496,DepthScenes,duration_manipulation_targetAtFixation,jsons/VE125_randls_43.json,http://54.235.29.9/FacialAge/BNav_EC2/DepthDuration/v2_depth_duration_MTurk/v2_DepthDuration_HTML.html#87,87,1366,625,1366,768,9-3-2022,9-9-23,140,depth_duration_stimuli/002375_2014-06-28_20-13-44_260595134347_rgbf000032-resize_1/002375_2014-06-28_20-13-44_260595134347_rgbf000032-resize_1-target.png,125,4.0175,0.2,3725,111,meters,jsons/VE125_randls_43.json,739137,1668085,1969,Woman
140,290496,DepthScenes,duration_manipulation_targetAtFixation,jsons/VE125_randls_43.json,http://54.235.29.9/FacialAge/BNav_EC2/DepthDuration/v2_depth_duration_MTurk/v2_DepthDuration_HTML.html#87,87,1366,625,1366,768,9-3-2022,9-9-23,141,depth_duration_stimuli/002657_2014-06-13_15-29-54_094959634447_rgbf000150-resize_1/002657_2014-06-13_15-29-54_094959634447_rgbf000150-resize_1-target.png,125,4.919,0.3,3346,127,meters,jsons/VE125_randls_43.json,739137,1668085,1969,Woman
141,290496,DepthScenes,duration_manipulation_targetAtFixation,jsons/VE125_randls_43.json,http://54.235.29.9/FacialAge/BNav_EC2/DepthDuration/v2_depth_duration_MTurk/v2_DepthDuration_HTML.html#87,87,1366,625,1366,768,9-3-2022,9-9-23,142,depth_duration_stimuli/001199_2014-06-17_16-03-48_260595134347_rgbf000077-resize_0/001199_2014-06-17_16-03-48_260595134347_rgbf000077-resize_0-target.png,125,3.4375,0.2,5727,107,meters,jsons/VE125_randls_43.json,739137,1668085,1969,Woman
142,290496,DepthScenes,duration_manipulation_targetAtFixation,jsons/VE125_randls_43.json,http://54.235.29.9/FacialAge/BNav_EC2/DepthDuration/v2_depth_duration_MTurk/v2_DepthDuration_HTML.html#87,87,1366,625,1366,768,9-3-2022,9-9-23,143,depth_duration_stimuli/000502_2014-06-08_23-02-32_260595134347_rgbf000063-resize_4/000502_2014-06-08_23-02-32_260595134347_rgbf000063-resize_4-target.png,125,2.431,0.3,4039,96,meters,jsons/VE125_randls_43.json,739137,1668085,1969,Woman
143,290496,DepthScenes,duration_manipulation_targetAtFixation,jsons/VE125_randls_43.json,http://54.235.29.9/FacialAge/BNav_EC2/DepthDuration/v2_depth_duration_MTurk/v2_DepthDuration_HTML.html#87,87,1366,625,1366,768,9-3-2022,9-9-23,144,depth_duration_stimuli/000692_2014-06-08_13-09-42_260595134347_rgbf000199-resize_2/000692_2014-06-08_13-09-42_260595134347_rgbf000199-resize_2-target.png,125,3.661,0.0,3073,132,meters,jsons/VE125_randls_43.json,739137,1668085,1969,Woman
144,290496,DepthScenes,duration_manipulation_targetAtFixation,jsons/VE125_randls_43.json,http://54.235.29.9/FacialAge/BNav_EC2/DepthDuration/v2_depth_duration_MTurk/v2_DepthDuration_HTML.html#87,87,1366,625,1366,768,9-3-2022,9-9-23,145,depth_duration_stimuli/001094_2014-06-15_17-36-00_260595134347_rgbf000205-resize_0/001094_2014-06-15_17-36-00_260595134347_rgbf000205-resize_0-target.png,125,4.2175,0.0,2815,119,meters,jsons/VE125_randls_43.json,739137,1668085,1969,Woman
145,290496,DepthScenes,duration_manipulation_targetAtFixation,jsons/VE125_randls_43.json,http://54.235.29.9/FacialAge/BNav_EC2/DepthDuration/v2_depth_duration_MTurk/v2_DepthDuration_HTML.html#87,87,1366,625,1366,768,9-3-2022,9-9-23,146,depth_duration_stimuli/001498_2014-06-19_17-45-14_260595134347_rgbf000129-resize_4/001498_2014-06-19_17-45-14_260595134347_rgbf000129-resize-original.jpg,125,1.4075,0.0,3968,125,meters,jsons/VE125_randls_43.json,739137,1668085,1969,Woman
146,290496,DepthScenes,duration_manipulation_targetAtFixation,jsons/VE125_randls_43.json,http://54.235.29.9/FacialAge/BNav_EC2/DepthDuration/v2_depth_duration_MTurk/v2_DepthDuration_HTML.html#87,87,1366,625,1366,768,9-3-2022,9-9-23,147,depth_duration_stimuli/003534_2014-05-22_15-06-10_094959634447_rgbf000102-resize_4/003534_2014-05-22_15-06-10_094959634447_rgbf000102-resize_4-target.png,125,1.426,0.2,3940,106,meters,jsons/VE125_randls_43.json,739137,1668085,1969,Woman
147,290496,DepthScenes,duration_manipulation_targetAtFixation,jsons/VE125_randls_43.json,http://54.235.29.9/FacialAge/BNav_EC2/DepthDuration/v2_depth_duration_MTurk/v2_DepthDuration_HTML.html#87,87,1366,625,1366,768,9-3-2022,9-9-23,148,depth_duration_stimuli/002637_2014-06-24_14-51-13_094959634447_rgbf000066-resize_4/002637_2014-06-24_14-51-13_094959634447_rgbf000066-resize_4-target.png,125,1.9955,0.3,3659,108,meters,jsons/VE125_randls_43.json,739137,1668085,1969,Woman
148,290496,DepthScenes,duration_manipulation_targetAtFixation,jsons/VE125_randls_43.json,http://54.235.29.9/FacialAge/BNav_EC2/DepthDuration/v2_depth_duration_MTurk/v2_DepthDuration_HTML.html#87,87,1366,625,1366,768,9-3-2022,9-9-23,149,depth_duration_stimuli/001806_2014-06-26_20-50-20_260595134347_rgbf000091-resize_1/001806_2014-06-26_20-50-20_260595134347_rgbf000091-resize_1-target.png,125,2.7305,0.2,3639,130,meters,jsons/VE125_randls_43.json,739137,1668085,1969,Woman
149,290496,DepthScenes,duration_manipulation_targetAtFixation,jsons/VE125_randls_43.json,http://54.235.29.9/FacialAge/BNav_EC2/DepthDuration/v2_depth_duration_MTurk/v2_DepthDuration_HTML.html#87,87,1366,625,1366,768,9-3-2022,9-9-23,150,depth_duration_stimuli/001617_2014-06-20_11-35-32_260595134347_rgbf000066-resize_1/001617_2014-06-20_11-35-32_260595134347_rgbf000066-resize_1-target.png,125,3.7910000000000004,0.3,3655,126,meters,jsons/VE125_randls_43.json,739137,1668085,1969,Woman
150,290496,DepthScenes,duration_manipulation_targetAtFixation,jsons/VE125_randls_43.json,http://54.235.29.9/FacialAge/BNav_EC2/DepthDuration/v2_depth_duration_MTurk/v2_DepthDuration_HTML.html#87,87,1366,625,1366,768,9-3-2022,9-9-23,151,depth_duration_stimuli/001059_2014-06-08_21-53-27_260595134347_rgbf000061-resize_4/001059_2014-06-08_21-53-27_260595134347_rgbf000061-resize_4-target.png,125,2.4185,0.2,5758,104,meters,jsons/VE125_randls_43.json,739137,1668085,1969,Woman
151,290496,DepthScenes,duration_manipulation_targetAtFixation,jsons/VE125_randls_43.json,http://54.235.29.9/FacialAge/BNav_EC2/DepthDuration/v2_depth_duration_MTurk/v2_DepthDuration_HTML.html#87,87,1366,625,1366,768,9-3-2022,9-9-23,152,depth_duration_stimuli/001032_2014-06-08_13-23-17_260595134347_rgbf000021-resize_3/001032_2014-06-08_13-23-17_260595134347_rgbf000021-resize_3-target.png,125,3.2725,0.2,4220,121,meters,jsons/VE125_randls_43.json,739137,1668085,1969,Woman
152,290496,DepthScenes,duration_manipulation_targetAtFixation,jsons/VE125_randls_43.json,http://54.235.29.9/FacialAge/BNav_EC2/DepthDuration/v2_depth_duration_MTurk/v2_DepthDuration_HTML.html#87,87,1366,625,1366,768,9-3-2022,9-9-23,153,depth_duration_stimuli/001555_2014-06-20_17-12-10_260595134347_rgbf000065-resize_4/001555_2014-06-20_17-12-10_260595134347_rgbf000065-resize_4-target.png,125,1.633,0.3,3813,125,meters,jsons/VE125_randls_43.json,739137,1668085,1969,Woman
153,290496,DepthScenes,duration_manipulation_targetAtFixation,jsons/VE125_randls_43.json,http://54.235.29.9/FacialAge/BNav_EC2/DepthDuration/v2_depth_duration_MTurk/v2_DepthDuration_HTML.html#87,87,1366,625,1366,768,9-3-2022,9-9-23,154,depth_duration_stimuli/000103_2014-05-14_22-01-17_260595134347_rgbf000152-resize_5/000103_2014-05-14_22-01-17_260595134347_rgbf000152-resize_5-target.png,125,1.993,0.4,3412,205,meters,jsons/VE125_randls_43.json,739137,1668085,1969,Woman
154,290496,DepthScenes,duration_manipulation_targetAtFixation,jsons/VE125_randls_43.json,http://54.235.29.9/FacialAge/BNav_EC2/DepthDuration/v2_depth_duration_MTurk/v2_DepthDuration_HTML.html#87,87,1366,625,1366,768,9-3-2022,9-9-23,155,depth_duration_stimuli/002964_2014-06-08_17-46-11_094959634447_rgbf000091-resize_4/002964_2014-06-08_17-46-11_094959634447_rgbf000091-resize_4-target.png,125,1.6909999999999998,0.4,3980,124,meters,jsons/VE125_randls_43.json,739137,1668085,1969,Woman
155,290496,DepthScenes,duration_manipulation_targetAtFixation,jsons/VE125_randls_43.json,http://54.235.29.9/FacialAge/BNav_EC2/DepthDuration/v2_depth_duration_MTurk/v2_DepthDuration_HTML.html#87,87,1366,625,1366,768,9-3-2022,9-9-23,156,depth_duration_stimuli/002136_2014-06-25_21-18-03_260595134347_rgbf000109-resize_3/002136_2014-06-25_21-18-03_260595134347_rgbf000109-resize_3-target.png,125,1.9569999999999999,0.3,4061,125,meters,jsons/VE125_randls_43.json,739137,1668085,1969,Woman
156,290496,DepthScenes,duration_manipulation_targetAtFixation,jsons/VE125_randls_43.json,http://54.235.29.9/FacialAge/BNav_EC2/DepthDuration/v2_depth_duration_MTurk/v2_DepthDuration_HTML.html#87,87,1366,625,1366,768,9-3-2022,9-9-23,157,depth_duration_stimuli/002630_2014-06-24_14-47-50_094959634447_rgbf000055-resize_1/002630_2014-06-24_14-47-50_094959634447_rgbf000055-resize_1-target.png,125,3.0095,0.2,5554,119,meters,jsons/VE125_randls_43.json,739137,1668085,1969,Woman
157,290496,DepthScenes,duration_manipulation_targetAtFixation,jsons/VE125_randls_43.json,http://54.235.29.9/FacialAge/BNav_EC2/DepthDuration/v2_depth_duration_MTurk/v2_DepthDuration_HTML.html#87,87,1366,625,1366,768,9-3-2022,9-9-23,158,depth_duration_stimuli/002758_2014-06-22_19-11-20_094959634447_rgbf000128-resize_1/002758_2014-06-22_19-11-20_094959634447_rgbf000128-resize_1-target.png,125,2.555,0.2,3827,126,meters,jsons/VE125_randls_43.json,739137,1668085,1969,Woman
158,290496,DepthScenes,duration_manipulation_targetAtFixation,jsons/VE125_randls_43.json,http://54.235.29.9/FacialAge/BNav_EC2/DepthDuration/v2_depth_duration_MTurk/v2_DepthDuration_HTML.html#87,87,1366,625,1366,768,9-3-2022,9-9-23,159,depth_duration_stimuli/002039_2014-06-24_20-22-38_260595134347_rgbf000084-resize_1/002039_2014-06-24_20-22-38_260595134347_rgbf000084-resize_1-target.png,125,4.408,0.3,3521,126,meters,jsons/VE125_randls_43.json,739137,1668085,1969,Woman
159,290496,DepthScenes,duration_manipulation_targetAtFixation,jsons/VE125_randls_43.json,http://54.235.29.9/FacialAge/BNav_EC2/DepthDuration/v2_depth_duration_MTurk/v2_DepthDuration_HTML.html#87,87,1366,625,1366,768,9-3-2022,9-9-23,160,depth_duration_stimuli/002103_2014-06-25_20-00-40_260595134347_rgbf000049-resize_0/002103_2014-06-25_20-00-40_260595134347_rgbf000049-resize_0-target.png,125,4.105,0.3,3791,110,meters,jsons/VE125_randls_43.json,739137,1668085,1969,Woman
160,290496,DepthScenes,duration_manipulation_targetAtFixation,jsons/VE125_randls_43.json,http://54.235.29.9/FacialAge/BNav_EC2/DepthDuration/v2_depth_duration_MTurk/v2_DepthDuration_HTML.html#87,87,1366,625,1366,768,9-3-2022,9-9-23,161,depth_duration_stimuli/000736_2014-06-08_18-24-15_260595134347_rgbf000206-resize_3/000736_2014-06-08_18-24-15_260595134347_rgbf000206-resize_3-target.png,125,3.515,0.2,3596,124,meters,jsons/VE125_randls_43.json,739137,1668085,1969,Woman
161,290496,DepthScenes,duration_manipulation_targetAtFixation,jsons/VE125_randls_43.json,http://54.235.29.9/FacialAge/BNav_EC2/DepthDuration/v2_depth_duration_MTurk/v2_DepthDuration_HTML.html#87,87,1366,625,1366,768,9-3-2022,9-9-23,162,depth_duration_stimuli/000137_2014-05-20_17-04-49_260595134347_rgbf000120-resize_1/000137_2014-05-20_17-04-49_260595134347_rgbf000120-resize_1-target.png,125,3.786,0.3,3478,125,meters,jsons/VE125_randls_43.json,739137,1668085,1969,Woman
162,290496,DepthScenes,duration_manipulation_targetAtFixation,jsons/VE125_randls_43.json,http://54.235.29.9/FacialAge/BNav_EC2/DepthDuration/v2_depth_duration_MTurk/v2_DepthDuration_HTML.html#87,87,1366,625,1366,768,9-3-2022,9-9-23,163,depth_duration_stimuli/002570_2014-06-24_13-59-54_094959634447_rgbf000059-resize_0/002570_2014-06-24_13-59-54_094959634447_rgbf000059-resize_0-target.png,125,4.037,0.2,5883,83,meters,jsons/VE125_randls_43.json,739137,1668085,1969,Woman
163,290496,DepthScenes,duration_manipulation_targetAtFixation,jsons/VE125_randls_43.json,http://54.235.29.9/FacialAge/BNav_EC2/DepthDuration/v2_depth_duration_MTurk/v2_DepthDuration_HTML.html#87,87,1366,625,1366,768,9-3-2022,9-9-23,164,depth_duration_stimuli/002467_2014-06-28_20-38-07_260595134347_rgbf000026-resize_2/002467_2014-06-28_20-38-07_260595134347_rgbf000026-resize_2-target.png,125,4.742,0.4,4263,131,meters,jsons/VE125_randls_43.json,739137,1668085,1969,Woman
