,subjID,experimentName,versionName,sequenceName,url,selected_row,windowWidth,windowHeight,screenWidth,screenHeight,startDate,startTime,trial,stimulus,duration,actual_depth,depth_estimate,trial_RT,log_sceneDuration,unitSelection,seq_filepath,experimentTime,totalTime,age,gender
0,290583,DepthScenes,duration_manipulation_targetAtFixation,jsons/v1_VE1000_randls_47.json,http://54.235.29.9/FacialAge/BNav_EC2/DepthDuration/v2_depth_duration_MTurk/v2_DepthDuration_HTML.html#57,57,1366,768,1366,768,8-22-2022,8-19-14,1,depth_duration_stimuli/003070_2014-06-15_14-58-27_094959634447_rgbf000150-resize_3/003070_2014-06-15_14-58-27_094959634447_rgbf000150-resize_3-target.png,1000,2.9415,1,3784,975,meters,jsons/v1_VE1000_randls_47.json,646850,765858,29,Man
1,290583,DepthScenes,duration_manipulation_targetAtFixation,jsons/v1_VE1000_randls_47.json,http://54.235.29.9/FacialAge/BNav_EC2/DepthDuration/v2_depth_duration_MTurk/v2_DepthDuration_HTML.html#57,57,1366,768,1366,768,8-22-2022,8-19-14,2,depth_duration_stimuli/000943_2014-06-09_19-31-07_260595134347_rgbf000128-resize_1/000943_2014-06-09_19-31-07_260595134347_rgbf000128-resize_1-target.png,1000,1.9765,2,3000,997,meters,jsons/v1_VE1000_randls_47.json,646850,765858,29,Man
2,290583,DepthScenes,duration_manipulation_targetAtFixation,jsons/v1_VE1000_randls_47.json,http://54.235.29.9/FacialAge/BNav_EC2/DepthDuration/v2_depth_duration_MTurk/v2_DepthDuration_HTML.html#57,57,1366,768,1366,768,8-22-2022,8-19-14,3,depth_duration_stimuli/002630_2014-06-24_14-47-50_094959634447_rgbf000055-resize_1/002630_2014-06-24_14-47-50_094959634447_rgbf000055-resize_1-target.png,1000,3.0095,1,3371,994,meters,jsons/v1_VE1000_randls_47.json,646850,765858,29,Man
3,290583,DepthScenes,duration_manipulation_targetAtFixation,jsons/v1_VE1000_randls_47.json,http://54.235.29.9/FacialAge/BNav_EC2/DepthDuration/v2_depth_duration_MTurk/v2_DepthDuration_HTML.html#57,57,1366,768,1366,768,8-22-2022,8-19-14,4,depth_duration_stimuli/002758_2014-06-22_19-11-20_094959634447_rgbf000128-resize_1/002758_2014-06-22_19-11-20_094959634447_rgbf000128-resize_1-target.png,1000,2.555,1,2977,998,meters,jsons/v1_VE1000_randls_47.json,646850,765858,29,Man
4,290583,DepthScenes,duration_manipulation_targetAtFixation,jsons/v1_VE1000_randls_47.json,http://54.235.29.9/FacialAge/BNav_EC2/DepthDuration/v2_depth_duration_MTurk/v2_DepthDuration_HTML.html#57,57,1366,768,1366,768,8-22-2022,8-19-14,5,depth_duration_stimuli/000436_2014-06-09_22-25-11_260595134347_rgbf000137-resize_1/000436_2014-06-09_22-25-11_260595134347_rgbf000137-resize_1-target.png,1000,4.0705,1,3026,999,meters,jsons/v1_VE1000_randls_47.json,646850,765858,29,Man
5,290583,DepthScenes,duration_manipulation_targetAtFixation,jsons/v1_VE1000_randls_47.json,http://54.235.29.9/FacialAge/BNav_EC2/DepthDuration/v2_depth_duration_MTurk/v2_DepthDuration_HTML.html#57,57,1366,768,1366,768,8-22-2022,8-19-14,6,depth_duration_stimuli/002444_2014-06-28_20-32-08_260595134347_rgbf000027-resize_0/002444_2014-06-28_20-32-08_260595134347_rgbf000027-resize_0-target.png,1000,4.388999999999999,2,2779,997,meters,jsons/v1_VE1000_randls_47.json,646850,765858,29,Man
6,290583,DepthScenes,duration_manipulation_targetAtFixation,jsons/v1_VE1000_randls_47.json,http://54.235.29.9/FacialAge/BNav_EC2/DepthDuration/v2_depth_duration_MTurk/v2_DepthDuration_HTML.html#57,57,1366,768,1366,768,8-22-2022,8-19-14,7,depth_duration_stimuli/000736_2014-06-08_18-24-15_260595134347_rgbf000206-resize_3/000736_2014-06-08_18-24-15_260595134347_rgbf000206-resize_3-target.png,1000,3.515,1,5230,997,meters,jsons/v1_VE1000_randls_47.json,646850,765858,29,Man
7,290583,DepthScenes,duration_manipulation_targetAtFixation,jsons/v1_VE1000_randls_47.json,http://54.235.29.9/FacialAge/BNav_EC2/DepthDuration/v2_depth_duration_MTurk/v2_DepthDuration_HTML.html#57,57,1366,768,1366,768,8-22-2022,8-19-14,8,depth_duration_stimuli/000137_2014-05-20_17-04-49_260595134347_rgbf000120-resize_1/000137_2014-05-20_17-04-49_260595134347_rgbf000120-resize_1-target.png,1000,3.786,1,3158,998,meters,jsons/v1_VE1000_randls_47.json,646850,765858,29,Man
8,290583,DepthScenes,duration_manipulation_targetAtFixation,jsons/v1_VE1000_randls_47.json,http://54.235.29.9/FacialAge/BNav_EC2/DepthDuration/v2_depth_duration_MTurk/v2_DepthDuration_HTML.html#57,57,1366,768,1366,768,8-22-2022,8-19-14,9,depth_duration_stimuli/002039_2014-06-24_20-22-38_260595134347_rgbf000084-resize_1/002039_2014-06-24_20-22-38_260595134347_rgbf000084-resize_1-target.png,1000,4.408,2,3047,992,meters,jsons/v1_VE1000_randls_47.json,646850,765858,29,Man
9,290583,DepthScenes,duration_manipulation_targetAtFixation,jsons/v1_VE1000_randls_47.json,http://54.235.29.9/FacialAge/BNav_EC2/DepthDuration/v2_depth_duration_MTurk/v2_DepthDuration_HTML.html#57,57,1366,768,1366,768,8-22-2022,8-19-14,10,depth_duration_stimuli/002103_2014-06-25_20-00-40_260595134347_rgbf000049-resize_0/002103_2014-06-25_20-00-40_260595134347_rgbf000049-resize_0-target.png,1000,4.105,2,4072,985,meters,jsons/v1_VE1000_randls_47.json,646850,765858,29,Man
10,290583,DepthScenes,duration_manipulation_targetAtFixation,jsons/v1_VE1000_randls_47.json,http://54.235.29.9/FacialAge/BNav_EC2/DepthDuration/v2_depth_duration_MTurk/v2_DepthDuration_HTML.html#57,57,1366,768,1366,768,8-22-2022,8-19-14,11,depth_duration_stimuli/002509_2014-06-24_13-19-22_094959634447_rgbf000077-resize_0/002509_2014-06-24_13-19-22_094959634447_rgbf000077-resize_0-target.png,1000,1.3065,1,3025,992,meters,jsons/v1_VE1000_randls_47.json,646850,765858,29,Man
11,290583,DepthScenes,duration_manipulation_targetAtFixation,jsons/v1_VE1000_randls_47.json,http://54.235.29.9/FacialAge/BNav_EC2/DepthDuration/v2_depth_duration_MTurk/v2_DepthDuration_HTML.html#57,57,1366,768,1366,768,8-22-2022,8-19-14,12,depth_duration_stimuli/003338_2014-05-20_11-01-23_094959634447_rgbf000051-resize_6/003338_2014-05-20_11-01-23_094959634447_rgbf000051-resize_6-target.png,1000,1.693,2,4314,988,meters,jsons/v1_VE1000_randls_47.json,646850,765858,29,Man
12,290583,DepthScenes,duration_manipulation_targetAtFixation,jsons/v1_VE1000_randls_47.json,http://54.235.29.9/FacialAge/BNav_EC2/DepthDuration/v2_depth_duration_MTurk/v2_DepthDuration_HTML.html#57,57,1366,768,1366,768,8-22-2022,8-19-14,13,depth_duration_stimuli/000569_2014-06-09_22-51-47_260595134347_rgbf000141-resize_3/000569_2014-06-09_22-51-47_260595134347_rgbf000141-resize-original.jpg,1000,4.512,0,3824,997,meters,jsons/v1_VE1000_randls_47.json,646850,765858,29,Man
13,290583,DepthScenes,duration_manipulation_targetAtFixation,jsons/v1_VE1000_randls_47.json,http://54.235.29.9/FacialAge/BNav_EC2/DepthDuration/v2_depth_duration_MTurk/v2_DepthDuration_HTML.html#57,57,1366,768,1366,768,8-22-2022,8-19-14,14,depth_duration_stimuli/002272_2014-06-28_18-53-56_260595134347_rgbf000067-resize_2/002272_2014-06-28_18-53-56_260595134347_rgbf000067-resize_2-target.png,1000,1.138,2,3953,992,meters,jsons/v1_VE1000_randls_47.json,646850,765858,29,Man
14,290583,DepthScenes,duration_manipulation_targetAtFixation,jsons/v1_VE1000_randls_47.json,http://54.235.29.9/FacialAge/BNav_EC2/DepthDuration/v2_depth_duration_MTurk/v2_DepthDuration_HTML.html#57,57,1366,768,1366,768,8-22-2022,8-19-14,15,depth_duration_stimuli/001571_2014-06-20_17-21-32_260595134347_rgbf000089-resize_1/001571_2014-06-20_17-21-32_260595134347_rgbf000089-resize_1-target.png,1000,1.86,1,3736,998,meters,jsons/v1_VE1000_randls_47.json,646850,765858,29,Man
15,290583,DepthScenes,duration_manipulation_targetAtFixation,jsons/v1_VE1000_randls_47.json,http://54.235.29.9/FacialAge/BNav_EC2/DepthDuration/v2_depth_duration_MTurk/v2_DepthDuration_HTML.html#57,57,1366,768,1366,768,8-22-2022,8-19-14,16,depth_duration_stimuli/002118_2014-06-25_20-32-08_260595134347_rgbf000078-resize_1/002118_2014-06-25_20-32-08_260595134347_rgbf000078-resize_1-target.png,1000,2.6460000000000004,2,3809,997,meters,jsons/v1_VE1000_randls_47.json,646850,765858,29,Man
16,290583,DepthScenes,duration_manipulation_targetAtFixation,jsons/v1_VE1000_randls_47.json,http://54.235.29.9/FacialAge/BNav_EC2/DepthDuration/v2_depth_duration_MTurk/v2_DepthDuration_HTML.html#57,57,1366,768,1366,768,8-22-2022,8-19-14,17,depth_duration_stimuli/001516_2014-06-20_16-25-09_260595134347_rgbf000076-resize_2/001516_2014-06-20_16-25-09_260595134347_rgbf000076-resize_2-target.png,1000,1.7445,1,3005,990,meters,jsons/v1_VE1000_randls_47.json,646850,765858,29,Man
17,290583,DepthScenes,duration_manipulation_targetAtFixation,jsons/v1_VE1000_randls_47.json,http://54.235.29.9/FacialAge/BNav_EC2/DepthDuration/v2_depth_duration_MTurk/v2_DepthDuration_HTML.html#57,57,1366,768,1366,768,8-22-2022,8-19-14,18,depth_duration_stimuli/002549_2014-06-24_13-41-39_094959634447_rgbf000022-resize_3/002549_2014-06-24_13-41-39_094959634447_rgbf000022-resize_3-target.png,1000,1.476,1,3517,994,meters,jsons/v1_VE1000_randls_47.json,646850,765858,29,Man
18,290583,DepthScenes,duration_manipulation_targetAtFixation,jsons/v1_VE1000_randls_47.json,http://54.235.29.9/FacialAge/BNav_EC2/DepthDuration/v2_depth_duration_MTurk/v2_DepthDuration_HTML.html#57,57,1366,768,1366,768,8-22-2022,8-19-14,19,depth_duration_stimuli/002750_2014-06-22_19-08-03_094959634447_rgbf000094-resize_4/002750_2014-06-22_19-08-03_094959634447_rgbf000094-resize_4-target.png,1000,2.354,2,2853,1004,meters,jsons/v1_VE1000_randls_47.json,646850,765858,29,Man
19,290583,DepthScenes,duration_manipulation_targetAtFixation,jsons/v1_VE1000_randls_47.json,http://54.235.29.9/FacialAge/BNav_EC2/DepthDuration/v2_depth_duration_MTurk/v2_DepthDuration_HTML.html#57,57,1366,768,1366,768,8-22-2022,8-19-14,20,depth_duration_stimuli/000682_2014-06-08_23-14-58_260595134347_rgbf000041-resize_5/000682_2014-06-08_23-14-58_260595134347_rgbf000041-resize_5-target.png,1000,2.7239999999999998,1,2721,998,meters,jsons/v1_VE1000_randls_47.json,646850,765858,29,Man
20,290583,DepthScenes,duration_manipulation_targetAtFixation,jsons/v1_VE1000_randls_47.json,http://54.235.29.9/FacialAge/BNav_EC2/DepthDuration/v2_depth_duration_MTurk/v2_DepthDuration_HTML.html#57,57,1366,768,1366,768,8-22-2022,8-19-14,21,depth_duration_stimuli/001650_2014-06-20_12-09-00_260595134347_rgbf000087-resize_3/001650_2014-06-20_12-09-00_260595134347_rgbf000087-resize_3-target.png,1000,1.9505,1,2998,1001,meters,jsons/v1_VE1000_randls_47.json,646850,765858,29,Man
21,290583,DepthScenes,duration_manipulation_targetAtFixation,jsons/v1_VE1000_randls_47.json,http://54.235.29.9/FacialAge/BNav_EC2/DepthDuration/v2_depth_duration_MTurk/v2_DepthDuration_HTML.html#57,57,1366,768,1366,768,8-22-2022,8-19-14,22,depth_duration_stimuli/001158_2014-06-17_15-32-16_260595134347_rgbf000138-resize_2/001158_2014-06-17_15-32-16_260595134347_rgbf000138-resize_2-target.png,1000,4.5315,1,2959,999,meters,jsons/v1_VE1000_randls_47.json,646850,765858,29,Man
22,290583,DepthScenes,duration_manipulation_targetAtFixation,jsons/v1_VE1000_randls_47.json,http://54.235.29.9/FacialAge/BNav_EC2/DepthDuration/v2_depth_duration_MTurk/v2_DepthDuration_HTML.html#57,57,1366,768,1366,768,8-22-2022,8-19-14,23,depth_duration_stimuli/000556_2014-06-09_22-42-56_260595134347_rgbf000214-resize_1/000556_2014-06-09_22-42-56_260595134347_rgbf000214-resize_1-target.png,1000,4.8415,2,3072,997,meters,jsons/v1_VE1000_randls_47.json,646850,765858,29,Man
23,290583,DepthScenes,duration_manipulation_targetAtFixation,jsons/v1_VE1000_randls_47.json,http://54.235.29.9/FacialAge/BNav_EC2/DepthDuration/v2_depth_duration_MTurk/v2_DepthDuration_HTML.html#57,57,1366,768,1366,768,8-22-2022,8-19-14,24,depth_duration_stimuli/002748_2014-06-22_19-07-22_094959634447_rgbf000078-resize_1/002748_2014-06-22_19-07-22_094959634447_rgbf000078-resize_1-target.png,1000,4.6705,1,4002,1005,meters,jsons/v1_VE1000_randls_47.json,646850,765858,29,Man
24,290583,DepthScenes,duration_manipulation_targetAtFixation,jsons/v1_VE1000_randls_47.json,http://54.235.29.9/FacialAge/BNav_EC2/DepthDuration/v2_depth_duration_MTurk/v2_DepthDuration_HTML.html#57,57,1366,768,1366,768,8-22-2022,8-19-14,25,depth_duration_stimuli/002995_2014-06-15_12-31-26_094959634447_rgbf000150-resize_1/002995_2014-06-15_12-31-26_094959634447_rgbf000150-resize_1-target.png,1000,3.8360000000000003,1,2909,985,meters,jsons/v1_VE1000_randls_47.json,646850,765858,29,Man
25,290583,DepthScenes,duration_manipulation_targetAtFixation,jsons/v1_VE1000_randls_47.json,http://54.235.29.9/FacialAge/BNav_EC2/DepthDuration/v2_depth_duration_MTurk/v2_DepthDuration_HTML.html#57,57,1366,768,1366,768,8-22-2022,8-19-14,26,depth_duration_stimuli/003621_2014-05-23_18-06-08_094959634447_rgbf000101-resize_1/003621_2014-05-23_18-06-08_094959634447_rgbf000101-resize_1-target.png,1000,3.9835,1,4548,990,meters,jsons/v1_VE1000_randls_47.json,646850,765858,29,Man
26,290583,DepthScenes,duration_manipulation_targetAtFixation,jsons/v1_VE1000_randls_47.json,http://54.235.29.9/FacialAge/BNav_EC2/DepthDuration/v2_depth_duration_MTurk/v2_DepthDuration_HTML.html#57,57,1366,768,1366,768,8-22-2022,8-19-14,27,depth_duration_stimuli/001584_2014-06-20_11-07-43_260595134347_rgbf000002-resize_1/001584_2014-06-20_11-07-43_260595134347_rgbf000002-resize_1-target.png,1000,3.53,1,3032,984,meters,jsons/v1_VE1000_randls_47.json,646850,765858,29,Man
27,290583,DepthScenes,duration_manipulation_targetAtFixation,jsons/v1_VE1000_randls_47.json,http://54.235.29.9/FacialAge/BNav_EC2/DepthDuration/v2_depth_duration_MTurk/v2_DepthDuration_HTML.html#57,57,1366,768,1366,768,8-22-2022,8-19-14,28,depth_duration_stimuli/000878_2014-06-08_22-52-45_260595134347_rgbf000045-resize_2/000878_2014-06-08_22-52-45_260595134347_rgbf000045-resize_2-target.png,1000,2.092,2,2900,993,meters,jsons/v1_VE1000_randls_47.json,646850,765858,29,Man
28,290583,DepthScenes,duration_manipulation_targetAtFixation,jsons/v1_VE1000_randls_47.json,http://54.235.29.9/FacialAge/BNav_EC2/DepthDuration/v2_depth_duration_MTurk/v2_DepthDuration_HTML.html#57,57,1366,768,1366,768,8-22-2022,8-19-14,29,depth_duration_stimuli/002953_2014-06-08_17-32-18_094959634447_rgbf000059-resize_5/002953_2014-06-08_17-32-18_094959634447_rgbf000059-resize_5-target.png,1000,1.551,1,3056,989,meters,jsons/v1_VE1000_randls_47.json,646850,765858,29,Man
29,290583,DepthScenes,duration_manipulation_targetAtFixation,jsons/v1_VE1000_randls_47.json,http://54.235.29.9/FacialAge/BNav_EC2/DepthDuration/v2_depth_duration_MTurk/v2_DepthDuration_HTML.html#57,57,1366,768,1366,768,8-22-2022,8-19-14,30,depth_duration_stimuli/000375_2014-06-08_11-17-29_260595134347_rgbf000133-resize_2/000375_2014-06-08_11-17-29_260595134347_rgbf000133-resize-original.jpg,1000,4.718,0,3855,998,meters,jsons/v1_VE1000_randls_47.json,646850,765858,29,Man
30,290583,DepthScenes,duration_manipulation_targetAtFixation,jsons/v1_VE1000_randls_47.json,http://54.235.29.9/FacialAge/BNav_EC2/DepthDuration/v2_depth_duration_MTurk/v2_DepthDuration_HTML.html#57,57,1366,768,1366,768,8-22-2022,8-19-14,31,depth_duration_stimuli/001133_2014-06-17_14-49-16_260595134347_rgbf000100-resize_0/001133_2014-06-17_14-49-16_260595134347_rgbf000100-resize_0-target.png,1000,4.2115,1,2771,1008,meters,jsons/v1_VE1000_randls_47.json,646850,765858,29,Man
31,290583,DepthScenes,duration_manipulation_targetAtFixation,jsons/v1_VE1000_randls_47.json,http://54.235.29.9/FacialAge/BNav_EC2/DepthDuration/v2_depth_duration_MTurk/v2_DepthDuration_HTML.html#57,57,1366,768,1366,768,8-22-2022,8-19-14,32,depth_duration_stimuli/001132_2014-06-17_14-48-54_260595134347_rgbf000100-resize_2/001132_2014-06-17_14-48-54_260595134347_rgbf000100-resize_2-target.png,1000,3.753,1,4308,1003,meters,jsons/v1_VE1000_randls_47.json,646850,765858,29,Man
32,290583,DepthScenes,duration_manipulation_targetAtFixation,jsons/v1_VE1000_randls_47.json,http://54.235.29.9/FacialAge/BNav_EC2/DepthDuration/v2_depth_duration_MTurk/v2_DepthDuration_HTML.html#57,57,1366,768,1366,768,8-22-2022,8-19-14,33,depth_duration_stimuli/001167_2014-06-17_15-38-07_260595134347_rgbf000108-resize_0/001167_2014-06-17_15-38-07_260595134347_rgbf000108-resize_0-target.png,1000,1.8505,2,7969,999,meters,jsons/v1_VE1000_randls_47.json,646850,765858,29,Man
33,290583,DepthScenes,duration_manipulation_targetAtFixation,jsons/v1_VE1000_randls_47.json,http://54.235.29.9/FacialAge/BNav_EC2/DepthDuration/v2_depth_duration_MTurk/v2_DepthDuration_HTML.html#57,57,1366,768,1366,768,8-22-2022,8-19-14,34,depth_duration_stimuli/003587_2014-05-23_16-48-02_094959634447_rgbf002384-resize_2/003587_2014-05-23_16-48-02_094959634447_rgbf002384-resize_2-target.png,1000,1.357,1,3520,998,meters,jsons/v1_VE1000_randls_47.json,646850,765858,29,Man
34,290583,DepthScenes,duration_manipulation_targetAtFixation,jsons/v1_VE1000_randls_47.json,http://54.235.29.9/FacialAge/BNav_EC2/DepthDuration/v2_depth_duration_MTurk/v2_DepthDuration_HTML.html#57,57,1366,768,1366,768,8-22-2022,8-19-14,35,depth_duration_stimuli/000917_2014-06-09_22-45-29_260595134347_rgbf000149-resize_3/000917_2014-06-09_22-45-29_260595134347_rgbf000149-resize_3-target.png,1000,4.1865,2,3472,999,meters,jsons/v1_VE1000_randls_47.json,646850,765858,29,Man
35,290583,DepthScenes,duration_manipulation_targetAtFixation,jsons/v1_VE1000_randls_47.json,http://54.235.29.9/FacialAge/BNav_EC2/DepthDuration/v2_depth_duration_MTurk/v2_DepthDuration_HTML.html#57,57,1366,768,1366,768,8-22-2022,8-19-14,36,depth_duration_stimuli/002323_2014-06-28_20-01-54_260595134347_rgbf000051-resize_4/002323_2014-06-28_20-01-54_260595134347_rgbf000051-resize_4-target.png,1000,3.7310000000000003,2,2914,998,meters,jsons/v1_VE1000_randls_47.json,646850,765858,29,Man
36,290583,DepthScenes,duration_manipulation_targetAtFixation,jsons/v1_VE1000_randls_47.json,http://54.235.29.9/FacialAge/BNav_EC2/DepthDuration/v2_depth_duration_MTurk/v2_DepthDuration_HTML.html#57,57,1366,768,1366,768,8-22-2022,8-19-14,37,depth_duration_stimuli/002788_2014-06-22_19-36-03_094959634447_rgbf000088-resize_2/002788_2014-06-22_19-36-03_094959634447_rgbf000088-resize_2-target.png,1000,1.6465,1,2965,1006,meters,jsons/v1_VE1000_randls_47.json,646850,765858,29,Man
37,290583,DepthScenes,duration_manipulation_targetAtFixation,jsons/v1_VE1000_randls_47.json,http://54.235.29.9/FacialAge/BNav_EC2/DepthDuration/v2_depth_duration_MTurk/v2_DepthDuration_HTML.html#57,57,1366,768,1366,768,8-22-2022,8-19-14,38,depth_duration_stimuli/000749_2014-06-08_21-55-06_260595134347_rgbf000070-resize_2/000749_2014-06-08_21-55-06_260595134347_rgbf000070-resize_2-target.png,1000,2.331,1,5231,991,meters,jsons/v1_VE1000_randls_47.json,646850,765858,29,Man
38,290583,DepthScenes,duration_manipulation_targetAtFixation,jsons/v1_VE1000_randls_47.json,http://54.235.29.9/FacialAge/BNav_EC2/DepthDuration/v2_depth_duration_MTurk/v2_DepthDuration_HTML.html#57,57,1366,768,1366,768,8-22-2022,8-19-14,39,depth_duration_stimuli/000788_2014-06-08_22-34-36_260595134347_rgbf000131-resize_1/000788_2014-06-08_22-34-36_260595134347_rgbf000131-resize_1-target.png,1000,3.359,2,3742,992,meters,jsons/v1_VE1000_randls_47.json,646850,765858,29,Man
39,290583,DepthScenes,duration_manipulation_targetAtFixation,jsons/v1_VE1000_randls_47.json,http://54.235.29.9/FacialAge/BNav_EC2/DepthDuration/v2_depth_duration_MTurk/v2_DepthDuration_HTML.html#57,57,1366,768,1366,768,8-22-2022,8-19-14,40,depth_duration_stimuli/001235_2014-06-17_16-37-36_260595134347_rgbf000084-resize_4/001235_2014-06-17_16-37-36_260595134347_rgbf000084-resize_4-target.png,1000,3.6605,2,3167,987,meters,jsons/v1_VE1000_randls_47.json,646850,765858,29,Man
40,290583,DepthScenes,duration_manipulation_targetAtFixation,jsons/v1_VE1000_randls_47.json,http://54.235.29.9/FacialAge/BNav_EC2/DepthDuration/v2_depth_duration_MTurk/v2_DepthDuration_HTML.html#57,57,1366,768,1366,768,8-22-2022,8-19-14,41,depth_duration_stimuli/001110_2014-06-15_17-25-28_260595134347_rgbf000150-resize_1/001110_2014-06-15_17-25-28_260595134347_rgbf000150-resize_1-target.png,1000,1.7115,2,2973,996,meters,jsons/v1_VE1000_randls_47.json,646850,765858,29,Man
41,290583,DepthScenes,duration_manipulation_targetAtFixation,jsons/v1_VE1000_randls_47.json,http://54.235.29.9/FacialAge/BNav_EC2/DepthDuration/v2_depth_duration_MTurk/v2_DepthDuration_HTML.html#57,57,1366,768,1366,768,8-22-2022,8-19-14,42,depth_duration_stimuli/000927_2014-06-09_16-32-30_260595134347_rgbf000123-resize_3/000927_2014-06-09_16-32-30_260595134347_rgbf000123-resize_3-target.png,1000,2.6785,2,3411,999,meters,jsons/v1_VE1000_randls_47.json,646850,765858,29,Man
42,290583,DepthScenes,duration_manipulation_targetAtFixation,jsons/v1_VE1000_randls_47.json,http://54.235.29.9/FacialAge/BNav_EC2/DepthDuration/v2_depth_duration_MTurk/v2_DepthDuration_HTML.html#57,57,1366,768,1366,768,8-22-2022,8-19-14,43,depth_duration_stimuli/000739_2014-06-08_18-45-58_260595134347_rgbf000068-resize_1/000739_2014-06-08_18-45-58_260595134347_rgbf000068-resize_1-target.png,1000,3.534,2,2932,1004,meters,jsons/v1_VE1000_randls_47.json,646850,765858,29,Man
43,290583,DepthScenes,duration_manipulation_targetAtFixation,jsons/v1_VE1000_randls_47.json,http://54.235.29.9/FacialAge/BNav_EC2/DepthDuration/v2_depth_duration_MTurk/v2_DepthDuration_HTML.html#57,57,1366,768,1366,768,8-22-2022,8-19-14,44,depth_duration_stimuli/000734_2014-06-08_17-39-11_260595134347_rgbf000128-resize_2/000734_2014-06-08_17-39-11_260595134347_rgbf000128-resize_2-target.png,1000,4.098,1,3178,1001,meters,jsons/v1_VE1000_randls_47.json,646850,765858,29,Man
44,290583,DepthScenes,duration_manipulation_targetAtFixation,jsons/v1_VE1000_randls_47.json,http://54.235.29.9/FacialAge/BNav_EC2/DepthDuration/v2_depth_duration_MTurk/v2_DepthDuration_HTML.html#57,57,1366,768,1366,768,8-22-2022,8-19-14,45,depth_duration_stimuli/000787_2014-06-08_22-33-53_260595134347_rgbf000175-resize_1/000787_2014-06-08_22-33-53_260595134347_rgbf000175-resize-original.jpg,1000,4.784,2,3175,1004,meters,jsons/v1_VE1000_randls_47.json,646850,765858,29,Man
45,290583,DepthScenes,duration_manipulation_targetAtFixation,jsons/v1_VE1000_randls_47.json,http://54.235.29.9/FacialAge/BNav_EC2/DepthDuration/v2_depth_duration_MTurk/v2_DepthDuration_HTML.html#57,57,1366,768,1366,768,8-22-2022,8-19-14,46,depth_duration_stimuli/002964_2014-06-08_17-46-11_094959634447_rgbf000091-resize_4/002964_2014-06-08_17-46-11_094959634447_rgbf000091-resize_4-target.png,1000,1.6909999999999998,2,2858,1006,meters,jsons/v1_VE1000_randls_47.json,646850,765858,29,Man
46,290583,DepthScenes,duration_manipulation_targetAtFixation,jsons/v1_VE1000_randls_47.json,http://54.235.29.9/FacialAge/BNav_EC2/DepthDuration/v2_depth_duration_MTurk/v2_DepthDuration_HTML.html#57,57,1366,768,1366,768,8-22-2022,8-19-14,47,depth_duration_stimuli/002136_2014-06-25_21-18-03_260595134347_rgbf000109-resize_3/002136_2014-06-25_21-18-03_260595134347_rgbf000109-resize_3-target.png,1000,1.9569999999999999,2,2694,991,meters,jsons/v1_VE1000_randls_47.json,646850,765858,29,Man
47,290583,DepthScenes,duration_manipulation_targetAtFixation,jsons/v1_VE1000_randls_47.json,http://54.235.29.9/FacialAge/BNav_EC2/DepthDuration/v2_depth_duration_MTurk/v2_DepthDuration_HTML.html#57,57,1366,768,1366,768,8-22-2022,8-19-14,48,depth_duration_stimuli/002279_2014-06-28_18-55-32_260595134347_rgbf000040-resize_5/002279_2014-06-28_18-55-32_260595134347_rgbf000040-resize_5-target.png,1000,1.5043333333333,1,3045,993,meters,jsons/v1_VE1000_randls_47.json,646850,765858,29,Man
48,290583,DepthScenes,duration_manipulation_targetAtFixation,jsons/v1_VE1000_randls_47.json,http://54.235.29.9/FacialAge/BNav_EC2/DepthDuration/v2_depth_duration_MTurk/v2_DepthDuration_HTML.html#57,57,1366,768,1366,768,8-22-2022,8-19-14,49,depth_duration_stimuli/000635_2014-06-08_16-38-42_260595134347_rgbf000106-resize_1/000635_2014-06-08_16-38-42_260595134347_rgbf000106-resize_1-target.png,1000,2.074,2,2884,999,meters,jsons/v1_VE1000_randls_47.json,646850,765858,29,Man
49,290583,DepthScenes,duration_manipulation_targetAtFixation,jsons/v1_VE1000_randls_47.json,http://54.235.29.9/FacialAge/BNav_EC2/DepthDuration/v2_depth_duration_MTurk/v2_DepthDuration_HTML.html#57,57,1366,768,1366,768,8-22-2022,8-19-14,50,depth_duration_stimuli/000758_2014-06-08_22-05-08_260595134347_rgbf000085-resize_0/000758_2014-06-08_22-05-08_260595134347_rgbf000085-resize_0-target.png,1000,3.3810000000000002,2,2742,1001,meters,jsons/v1_VE1000_randls_47.json,646850,765858,29,Man
50,290583,DepthScenes,duration_manipulation_targetAtFixation,jsons/v1_VE1000_randls_47.json,http://54.235.29.9/FacialAge/BNav_EC2/DepthDuration/v2_depth_duration_MTurk/v2_DepthDuration_HTML.html#57,57,1366,768,1366,768,8-22-2022,8-19-14,51,depth_duration_stimuli/000854_2014-06-09_19-43-13_260595134347_rgbf000066-resize_0/000854_2014-06-09_19-43-13_260595134347_rgbf000066-resize_0-target.png,1000,3.068,2,2957,998,meters,jsons/v1_VE1000_randls_47.json,646850,765858,29,Man
51,290583,DepthScenes,duration_manipulation_targetAtFixation,jsons/v1_VE1000_randls_47.json,http://54.235.29.9/FacialAge/BNav_EC2/DepthDuration/v2_depth_duration_MTurk/v2_DepthDuration_HTML.html#57,57,1366,768,1366,768,8-22-2022,8-19-14,52,depth_duration_stimuli/001570_2014-06-20_17-21-09_260595134347_rgbf000135-resize_4/001570_2014-06-20_17-21-09_260595134347_rgbf000135-resize_4-target.png,1000,4.467,2,3338,1002,meters,jsons/v1_VE1000_randls_47.json,646850,765858,29,Man
52,290583,DepthScenes,duration_manipulation_targetAtFixation,jsons/v1_VE1000_randls_47.json,http://54.235.29.9/FacialAge/BNav_EC2/DepthDuration/v2_depth_duration_MTurk/v2_DepthDuration_HTML.html#57,57,1366,768,1366,768,8-22-2022,8-19-14,53,depth_duration_stimuli/001392_2014-06-19_16-07-59_260595134347_rgbf000046-resize_1/001392_2014-06-19_16-07-59_260595134347_rgbf000046-resize_1-target.png,1000,4.135,1,3406,996,meters,jsons/v1_VE1000_randls_47.json,646850,765858,29,Man
53,290583,DepthScenes,duration_manipulation_targetAtFixation,jsons/v1_VE1000_randls_47.json,http://54.235.29.9/FacialAge/BNav_EC2/DepthDuration/v2_depth_duration_MTurk/v2_DepthDuration_HTML.html#57,57,1366,768,1366,768,8-22-2022,8-19-14,54,depth_duration_stimuli/001066_2014-06-08_22-03-20_260595134347_rgbf000066-resize_4/001066_2014-06-08_22-03-20_260595134347_rgbf000066-resize_4-target.png,1000,4.2330000000000005,1,2773,1011,meters,jsons/v1_VE1000_randls_47.json,646850,765858,29,Man
54,290583,DepthScenes,duration_manipulation_targetAtFixation,jsons/v1_VE1000_randls_47.json,http://54.235.29.9/FacialAge/BNav_EC2/DepthDuration/v2_depth_duration_MTurk/v2_DepthDuration_HTML.html#57,57,1366,768,1366,768,8-22-2022,8-19-14,55,depth_duration_stimuli/000742_2014-06-08_18-48-09_260595134347_rgbf000164-resize_4/000742_2014-06-08_18-48-09_260595134347_rgbf000164-resize_4-target.png,1000,4.632,2,2760,987,meters,jsons/v1_VE1000_randls_47.json,646850,765858,29,Man
55,290583,DepthScenes,duration_manipulation_targetAtFixation,jsons/v1_VE1000_randls_47.json,http://54.235.29.9/FacialAge/BNav_EC2/DepthDuration/v2_depth_duration_MTurk/v2_DepthDuration_HTML.html#57,57,1366,768,1366,768,8-22-2022,8-19-14,56,depth_duration_stimuli/002445_2014-06-28_20-32-16_260595134347_rgbf000029-resize_4/002445_2014-06-28_20-32-16_260595134347_rgbf000029-resize_4-target.png,1000,2.5315,1,2719,996,meters,jsons/v1_VE1000_randls_47.json,646850,765858,29,Man
56,290583,DepthScenes,duration_manipulation_targetAtFixation,jsons/v1_VE1000_randls_47.json,http://54.235.29.9/FacialAge/BNav_EC2/DepthDuration/v2_depth_duration_MTurk/v2_DepthDuration_HTML.html#57,57,1366,768,1366,768,8-22-2022,8-19-14,57,depth_duration_stimuli/000780_2014-06-08_22-28-29_260595134347_rgbf000126-resize_1/000780_2014-06-08_22-28-29_260595134347_rgbf000126-resize_1-target.png,1000,3.3825,2,2926,998,meters,jsons/v1_VE1000_randls_47.json,646850,765858,29,Man
57,290583,DepthScenes,duration_manipulation_targetAtFixation,jsons/v1_VE1000_randls_47.json,http://54.235.29.9/FacialAge/BNav_EC2/DepthDuration/v2_depth_duration_MTurk/v2_DepthDuration_HTML.html#57,57,1366,768,1366,768,8-22-2022,8-19-14,58,depth_duration_stimuli/000773_2014-06-08_22-24-54_260595134347_rgbf000093-resize_1/000773_2014-06-08_22-24-54_260595134347_rgbf000093-resize_1-target.png,1000,4.973,2,2802,1001,meters,jsons/v1_VE1000_randls_47.json,646850,765858,29,Man
58,290583,DepthScenes,duration_manipulation_targetAtFixation,jsons/v1_VE1000_randls_47.json,http://54.235.29.9/FacialAge/BNav_EC2/DepthDuration/v2_depth_duration_MTurk/v2_DepthDuration_HTML.html#57,57,1366,768,1366,768,8-22-2022,8-19-14,59,depth_duration_stimuli/002414_2014-06-28_20-24-58_260595134347_rgbf000067-resize_4/002414_2014-06-28_20-24-58_260595134347_rgbf000067-resize_4-target.png,1000,4.363,1,2641,1014,meters,jsons/v1_VE1000_randls_47.json,646850,765858,29,Man
59,290583,DepthScenes,duration_manipulation_targetAtFixation,jsons/v1_VE1000_randls_47.json,http://54.235.29.9/FacialAge/BNav_EC2/DepthDuration/v2_depth_duration_MTurk/v2_DepthDuration_HTML.html#57,57,1366,768,1366,768,8-22-2022,8-19-14,60,depth_duration_stimuli/000368_2014-06-09_15-53-01_260595134347_rgbf000155-resize_2/000368_2014-06-09_15-53-01_260595134347_rgbf000155-resize_2-target.png,1000,2.4859999999999998,1,3133,994,meters,jsons/v1_VE1000_randls_47.json,646850,765858,29,Man
60,290583,DepthScenes,duration_manipulation_targetAtFixation,jsons/v1_VE1000_randls_47.json,http://54.235.29.9/FacialAge/BNav_EC2/DepthDuration/v2_depth_duration_MTurk/v2_DepthDuration_HTML.html#57,57,1366,768,1366,768,8-22-2022,8-19-14,61,depth_duration_stimuli/002678_2014-06-13_16-15-32_094959634447_rgbf000151-resize_6/002678_2014-06-13_16-15-32_094959634447_rgbf000151-resize_6-target.png,1000,2.1830000000000003,2,3130,971,meters,jsons/v1_VE1000_randls_47.json,646850,765858,29,Man
61,290583,DepthScenes,duration_manipulation_targetAtFixation,jsons/v1_VE1000_randls_47.json,http://54.235.29.9/FacialAge/BNav_EC2/DepthDuration/v2_depth_duration_MTurk/v2_DepthDuration_HTML.html#57,57,1366,768,1366,768,8-22-2022,8-19-14,62,depth_duration_stimuli/002663_2014-06-13_15-50-26_094959634447_rgbf000075-resize_1/002663_2014-06-13_15-50-26_094959634447_rgbf000075-resize_1-target.png,1000,4.7495,1,2924,996,meters,jsons/v1_VE1000_randls_47.json,646850,765858,29,Man
62,290583,DepthScenes,duration_manipulation_targetAtFixation,jsons/v1_VE1000_randls_47.json,http://54.235.29.9/FacialAge/BNav_EC2/DepthDuration/v2_depth_duration_MTurk/v2_DepthDuration_HTML.html#57,57,1366,768,1366,768,8-22-2022,8-19-14,63,depth_duration_stimuli/000409_2014-06-04_19-23-33_260595134347_rgbf000067-resize_0/000409_2014-06-04_19-23-33_260595134347_rgbf000067-resize_0-target.png,1000,3.7335,2,5200,1009,meters,jsons/v1_VE1000_randls_47.json,646850,765858,29,Man
63,290583,DepthScenes,duration_manipulation_targetAtFixation,jsons/v1_VE1000_randls_47.json,http://54.235.29.9/FacialAge/BNav_EC2/DepthDuration/v2_depth_duration_MTurk/v2_DepthDuration_HTML.html#57,57,1366,768,1366,768,8-22-2022,8-19-14,64,depth_duration_stimuli/003534_2014-05-22_15-06-10_094959634447_rgbf000102-resize_4/003534_2014-05-22_15-06-10_094959634447_rgbf000102-resize_4-target.png,1000,1.426,1,4687,1023,meters,jsons/v1_VE1000_randls_47.json,646850,765858,29,Man
64,290583,DepthScenes,duration_manipulation_targetAtFixation,jsons/v1_VE1000_randls_47.json,http://54.235.29.9/FacialAge/BNav_EC2/DepthDuration/v2_depth_duration_MTurk/v2_DepthDuration_HTML.html#57,57,1366,768,1366,768,8-22-2022,8-19-14,65,depth_duration_stimuli/002637_2014-06-24_14-51-13_094959634447_rgbf000066-resize_4/002637_2014-06-24_14-51-13_094959634447_rgbf000066-resize_4-target.png,1000,1.9955,2,3329,997,meters,jsons/v1_VE1000_randls_47.json,646850,765858,29,Man
65,290583,DepthScenes,duration_manipulation_targetAtFixation,jsons/v1_VE1000_randls_47.json,http://54.235.29.9/FacialAge/BNav_EC2/DepthDuration/v2_depth_duration_MTurk/v2_DepthDuration_HTML.html#57,57,1366,768,1366,768,8-22-2022,8-19-14,66,depth_duration_stimuli/001222_2014-06-17_16-24-06_260595134347_rgbf000073-resize_0/001222_2014-06-17_16-24-06_260595134347_rgbf000073-resize-original.jpg,1000,1.4385,0,4464,998,meters,jsons/v1_VE1000_randls_47.json,646850,765858,29,Man
66,290583,DepthScenes,duration_manipulation_targetAtFixation,jsons/v1_VE1000_randls_47.json,http://54.235.29.9/FacialAge/BNav_EC2/DepthDuration/v2_depth_duration_MTurk/v2_DepthDuration_HTML.html#57,57,1366,768,1366,768,8-22-2022,8-19-14,67,depth_duration_stimuli/002057_2014-06-24_21-00-13_260595134347_rgbf000120-resize_1/002057_2014-06-24_21-00-13_260595134347_rgbf000120-resize_1-target.png,1000,2.967,2,2949,1006,meters,jsons/v1_VE1000_randls_47.json,646850,765858,29,Man
67,290583,DepthScenes,duration_manipulation_targetAtFixation,jsons/v1_VE1000_randls_47.json,http://54.235.29.9/FacialAge/BNav_EC2/DepthDuration/v2_depth_duration_MTurk/v2_DepthDuration_HTML.html#57,57,1366,768,1366,768,8-22-2022,8-19-14,68,depth_duration_stimuli/000709_2014-06-08_13-51-55_260595134347_rgbf000068-resize_3/000709_2014-06-08_13-51-55_260595134347_rgbf000068-resize_3-target.png,1000,1.8030000000000002,1,3424,987,meters,jsons/v1_VE1000_randls_47.json,646850,765858,29,Man
68,290583,DepthScenes,duration_manipulation_targetAtFixation,jsons/v1_VE1000_randls_47.json,http://54.235.29.9/FacialAge/BNav_EC2/DepthDuration/v2_depth_duration_MTurk/v2_DepthDuration_HTML.html#57,57,1366,768,1366,768,8-22-2022,8-19-14,69,depth_duration_stimuli/001555_2014-06-20_17-12-10_260595134347_rgbf000065-resize_4/001555_2014-06-20_17-12-10_260595134347_rgbf000065-resize_4-target.png,1000,1.633,2,3496,1003,meters,jsons/v1_VE1000_randls_47.json,646850,765858,29,Man
69,290583,DepthScenes,duration_manipulation_targetAtFixation,jsons/v1_VE1000_randls_47.json,http://54.235.29.9/FacialAge/BNav_EC2/DepthDuration/v2_depth_duration_MTurk/v2_DepthDuration_HTML.html#57,57,1366,768,1366,768,8-22-2022,8-19-14,70,depth_duration_stimuli/000103_2014-05-14_22-01-17_260595134347_rgbf000152-resize_5/000103_2014-05-14_22-01-17_260595134347_rgbf000152-resize_5-target.png,1000,1.993,1,4948,998,meters,jsons/v1_VE1000_randls_47.json,646850,765858,29,Man
70,290583,DepthScenes,duration_manipulation_targetAtFixation,jsons/v1_VE1000_randls_47.json,http://54.235.29.9/FacialAge/BNav_EC2/DepthDuration/v2_depth_duration_MTurk/v2_DepthDuration_HTML.html#57,57,1366,768,1366,768,8-22-2022,8-19-14,71,depth_duration_stimuli/001164_2014-06-17_15-35-46_260595134347_rgbf000085-resize_3/001164_2014-06-17_15-35-46_260595134347_rgbf000085-resize_3-target.png,1000,2.354,2,3887,995,meters,jsons/v1_VE1000_randls_47.json,646850,765858,29,Man
71,290583,DepthScenes,duration_manipulation_targetAtFixation,jsons/v1_VE1000_randls_47.json,http://54.235.29.9/FacialAge/BNav_EC2/DepthDuration/v2_depth_duration_MTurk/v2_DepthDuration_HTML.html#57,57,1366,768,1366,768,8-22-2022,8-19-14,72,depth_duration_stimuli/001136_2014-06-17_15-19-41_260595134347_rgbf000076-resize_3/001136_2014-06-17_15-19-41_260595134347_rgbf000076-resize_3-target.png,1000,1.8655,2,2923,990,meters,jsons/v1_VE1000_randls_47.json,646850,765858,29,Man
72,290583,DepthScenes,duration_manipulation_targetAtFixation,jsons/v1_VE1000_randls_47.json,http://54.235.29.9/FacialAge/BNav_EC2/DepthDuration/v2_depth_duration_MTurk/v2_DepthDuration_HTML.html#57,57,1366,768,1366,768,8-22-2022,8-19-14,73,depth_duration_stimuli/003292_2014-05-14_21-53-49_094959634447_rgbf000100-resize_2/003292_2014-05-14_21-53-49_094959634447_rgbf000100-resize_2-target.png,1000,3.4815,1,3657,998,meters,jsons/v1_VE1000_randls_47.json,646850,765858,29,Man
73,290583,DepthScenes,duration_manipulation_targetAtFixation,jsons/v1_VE1000_randls_47.json,http://54.235.29.9/FacialAge/BNav_EC2/DepthDuration/v2_depth_duration_MTurk/v2_DepthDuration_HTML.html#57,57,1366,768,1366,768,8-22-2022,8-19-14,74,depth_duration_stimuli/002639_2014-06-24_14-51-37_094959634447_rgbf000074-resize_4/002639_2014-06-24_14-51-37_094959634447_rgbf000074-resize_4-target.png,1000,4.0375,2,2746,994,meters,jsons/v1_VE1000_randls_47.json,646850,765858,29,Man
74,290583,DepthScenes,duration_manipulation_targetAtFixation,jsons/v1_VE1000_randls_47.json,http://54.235.29.9/FacialAge/BNav_EC2/DepthDuration/v2_depth_duration_MTurk/v2_DepthDuration_HTML.html#57,57,1366,768,1366,768,8-22-2022,8-19-14,75,depth_duration_stimuli/002905_2014-06-03_18-04-43_094959634447_rgbf000151-resize_2/002905_2014-06-03_18-04-43_094959634447_rgbf000151-resize_2-target.png,1000,2.0295,2,2769,995,meters,jsons/v1_VE1000_randls_47.json,646850,765858,29,Man
75,290583,DepthScenes,duration_manipulation_targetAtFixation,jsons/v1_VE1000_randls_47.json,http://54.235.29.9/FacialAge/BNav_EC2/DepthDuration/v2_depth_duration_MTurk/v2_DepthDuration_HTML.html#57,57,1366,768,1366,768,8-22-2022,8-19-14,76,depth_duration_stimuli/003423_2014-05-21_10-23-26_094959634447_rgbf002665-resize_2/003423_2014-05-21_10-23-26_094959634447_rgbf002665-resize_2-target.png,1000,3.2575,2,5821,996,meters,jsons/v1_VE1000_randls_47.json,646850,765858,29,Man
76,290583,DepthScenes,duration_manipulation_targetAtFixation,jsons/v1_VE1000_randls_47.json,http://54.235.29.9/FacialAge/BNav_EC2/DepthDuration/v2_depth_duration_MTurk/v2_DepthDuration_HTML.html#57,57,1366,768,1366,768,8-22-2022,8-19-14,77,depth_duration_stimuli/000506_2014-06-08_23-21-00_260595134347_rgbf000070-resize_7/000506_2014-06-08_23-21-00_260595134347_rgbf000070-resize_7-target.png,1000,4.0585,1,3497,1003,meters,jsons/v1_VE1000_randls_47.json,646850,765858,29,Man
77,290583,DepthScenes,duration_manipulation_targetAtFixation,jsons/v1_VE1000_randls_47.json,http://54.235.29.9/FacialAge/BNav_EC2/DepthDuration/v2_depth_duration_MTurk/v2_DepthDuration_HTML.html#57,57,1366,768,1366,768,8-22-2022,8-19-14,78,depth_duration_stimuli/003079_2014-06-15_15-18-20_094959634447_rgbf000152-resize_8/003079_2014-06-15_15-18-20_094959634447_rgbf000152-resize_8-target.png,1000,2.8775,1,2946,1000,meters,jsons/v1_VE1000_randls_47.json,646850,765858,29,Man
78,290583,DepthScenes,duration_manipulation_targetAtFixation,jsons/v1_VE1000_randls_47.json,http://54.235.29.9/FacialAge/BNav_EC2/DepthDuration/v2_depth_duration_MTurk/v2_DepthDuration_HTML.html#57,57,1366,768,1366,768,8-22-2022,8-19-14,79,depth_duration_stimuli/002153_2014-06-25_21-27-18_260595134347_rgbf000038-resize_5/002153_2014-06-25_21-27-18_260595134347_rgbf000038-resize_5-target.png,1000,2.505,2,3397,1005,meters,jsons/v1_VE1000_randls_47.json,646850,765858,29,Man
79,290583,DepthScenes,duration_manipulation_targetAtFixation,jsons/v1_VE1000_randls_47.json,http://54.235.29.9/FacialAge/BNav_EC2/DepthDuration/v2_depth_duration_MTurk/v2_DepthDuration_HTML.html#57,57,1366,768,1366,768,8-22-2022,8-19-14,80,depth_duration_stimuli/002660_2014-06-13_15-44-18_094959634447_rgbf001878-resize_2/002660_2014-06-13_15-44-18_094959634447_rgbf001878-resize_2-target.png,1000,3.576,1,7227,1006,meters,jsons/v1_VE1000_randls_47.json,646850,765858,29,Man
80,290583,DepthScenes,duration_manipulation_targetAtFixation,jsons/v1_VE1000_randls_47.json,http://54.235.29.9/FacialAge/BNav_EC2/DepthDuration/v2_depth_duration_MTurk/v2_DepthDuration_HTML.html#57,57,1366,768,1366,768,8-22-2022,8-19-14,81,depth_duration_stimuli/001059_2014-06-08_21-53-27_260595134347_rgbf000061-resize_4/001059_2014-06-08_21-53-27_260595134347_rgbf000061-resize_4-target.png,1000,2.4185,2,6315,999,meters,jsons/v1_VE1000_randls_47.json,646850,765858,29,Man
81,290583,DepthScenes,duration_manipulation_targetAtFixation,jsons/v1_VE1000_randls_47.json,http://54.235.29.9/FacialAge/BNav_EC2/DepthDuration/v2_depth_duration_MTurk/v2_DepthDuration_HTML.html#57,57,1366,768,1366,768,8-22-2022,8-19-14,82,depth_duration_stimuli/001032_2014-06-08_13-23-17_260595134347_rgbf000021-resize_3/001032_2014-06-08_13-23-17_260595134347_rgbf000021-resize_3-target.png,1000,3.2725,1,3043,1001,meters,jsons/v1_VE1000_randls_47.json,646850,765858,29,Man
82,290583,DepthScenes,duration_manipulation_targetAtFixation,jsons/v1_VE1000_randls_47.json,http://54.235.29.9/FacialAge/BNav_EC2/DepthDuration/v2_depth_duration_MTurk/v2_DepthDuration_HTML.html#57,57,1366,768,1366,768,8-22-2022,8-19-14,83,depth_duration_stimuli/001808_2014-06-26_20-50-58_260595134347_rgbf000029-resize_1/001808_2014-06-26_20-50-58_260595134347_rgbf000029-resize_1-target.png,1000,4.249,2,3271,992,meters,jsons/v1_VE1000_randls_47.json,646850,765858,29,Man
83,290583,DepthScenes,duration_manipulation_targetAtFixation,jsons/v1_VE1000_randls_47.json,http://54.235.29.9/FacialAge/BNav_EC2/DepthDuration/v2_depth_duration_MTurk/v2_DepthDuration_HTML.html#57,57,1366,768,1366,768,8-22-2022,8-19-14,84,depth_duration_stimuli/001815_2014-06-26_20-52-55_260595134347_rgbf000020-resize_0/001815_2014-06-26_20-52-55_260595134347_rgbf000020-resize_0-target.png,1000,3.3865,1,3055,998,meters,jsons/v1_VE1000_randls_47.json,646850,765858,29,Man
84,290583,DepthScenes,duration_manipulation_targetAtFixation,jsons/v1_VE1000_randls_47.json,http://54.235.29.9/FacialAge/BNav_EC2/DepthDuration/v2_depth_duration_MTurk/v2_DepthDuration_HTML.html#57,57,1366,768,1366,768,8-22-2022,8-19-14,85,depth_duration_stimuli/001092_2014-06-15_17-34-58_260595134347_rgbf000171-resize_3/001092_2014-06-15_17-34-58_260595134347_rgbf000171-resize_3-target.png,1000,2.6935,1,4016,1005,meters,jsons/v1_VE1000_randls_47.json,646850,765858,29,Man
85,290583,DepthScenes,duration_manipulation_targetAtFixation,jsons/v1_VE1000_randls_47.json,http://54.235.29.9/FacialAge/BNav_EC2/DepthDuration/v2_depth_duration_MTurk/v2_DepthDuration_HTML.html#57,57,1366,768,1366,768,8-22-2022,8-19-14,86,depth_duration_stimuli/002545_2014-06-24_13-38-53_094959634447_rgbf000080-resize_4/002545_2014-06-24_13-38-53_094959634447_rgbf000080-resize_4-target.png,1000,1.9205,1,3846,999,meters,jsons/v1_VE1000_randls_47.json,646850,765858,29,Man
86,290583,DepthScenes,duration_manipulation_targetAtFixation,jsons/v1_VE1000_randls_47.json,http://54.235.29.9/FacialAge/BNav_EC2/DepthDuration/v2_depth_duration_MTurk/v2_DepthDuration_HTML.html#57,57,1366,768,1366,768,8-22-2022,8-19-14,87,depth_duration_stimuli/000642_2014-06-08_16-59-25_260595134347_rgbf000098-resize_2/000642_2014-06-08_16-59-25_260595134347_rgbf000098-resize_2-target.png,1000,2.8815,2,3196,946,meters,jsons/v1_VE1000_randls_47.json,646850,765858,29,Man
87,290583,DepthScenes,duration_manipulation_targetAtFixation,jsons/v1_VE1000_randls_47.json,http://54.235.29.9/FacialAge/BNav_EC2/DepthDuration/v2_depth_duration_MTurk/v2_DepthDuration_HTML.html#57,57,1366,768,1366,768,8-22-2022,8-19-14,88,depth_duration_stimuli/002425_2014-06-28_20-27-29_260595134347_rgbf000031-resize_8/002425_2014-06-28_20-27-29_260595134347_rgbf000031-resize_8-target.png,1000,3.8960000000000004,1,2753,1001,meters,jsons/v1_VE1000_randls_47.json,646850,765858,29,Man
88,290583,DepthScenes,duration_manipulation_targetAtFixation,jsons/v1_VE1000_randls_47.json,http://54.235.29.9/FacialAge/BNav_EC2/DepthDuration/v2_depth_duration_MTurk/v2_DepthDuration_HTML.html#57,57,1366,768,1366,768,8-22-2022,8-19-14,89,depth_duration_stimuli/002988_2014-06-15_12-24-20_094959634447_rgbf000150-resize_1/002988_2014-06-15_12-24-20_094959634447_rgbf000150-resize_1-target.png,1000,4.7669999999999995,2,2893,988,meters,jsons/v1_VE1000_randls_47.json,646850,765858,29,Man
89,290583,DepthScenes,duration_manipulation_targetAtFixation,jsons/v1_VE1000_randls_47.json,http://54.235.29.9/FacialAge/BNav_EC2/DepthDuration/v2_depth_duration_MTurk/v2_DepthDuration_HTML.html#57,57,1366,768,1366,768,8-22-2022,8-19-14,90,depth_duration_stimuli/001052_2014-06-08_18-24-54_260595134347_rgbf000130-resize_1/001052_2014-06-08_18-24-54_260595134347_rgbf000130-resize_1-target.png,1000,4.1045,1,2846,1001,meters,jsons/v1_VE1000_randls_47.json,646850,765858,29,Man
90,290583,DepthScenes,duration_manipulation_targetAtFixation,jsons/v1_VE1000_randls_47.json,http://54.235.29.9/FacialAge/BNav_EC2/DepthDuration/v2_depth_duration_MTurk/v2_DepthDuration_HTML.html#57,57,1366,768,1366,768,8-22-2022,8-19-14,91,depth_duration_stimuli/000522_2014-06-08_13-35-06_260595134347_rgbf000244-resize_1/000522_2014-06-08_13-35-06_260595134347_rgbf000244-resize_1-target.png,1000,2.3715,2,2865,991,meters,jsons/v1_VE1000_randls_47.json,646850,765858,29,Man
91,290583,DepthScenes,duration_manipulation_targetAtFixation,jsons/v1_VE1000_randls_47.json,http://54.235.29.9/FacialAge/BNav_EC2/DepthDuration/v2_depth_duration_MTurk/v2_DepthDuration_HTML.html#57,57,1366,768,1366,768,8-22-2022,8-19-14,92,depth_duration_stimuli/002949_2014-06-26_15-57-42_094959634447_rgbf000079-resize_1/002949_2014-06-26_15-57-42_094959634447_rgbf000079-resize_1-target.png,1000,1.8915,2,2994,1019,meters,jsons/v1_VE1000_randls_47.json,646850,765858,29,Man
92,290583,DepthScenes,duration_manipulation_targetAtFixation,jsons/v1_VE1000_randls_47.json,http://54.235.29.9/FacialAge/BNav_EC2/DepthDuration/v2_depth_duration_MTurk/v2_DepthDuration_HTML.html#57,57,1366,768,1366,768,8-22-2022,8-19-14,93,depth_duration_stimuli/001016_2014-06-09_16-16-10_260595134347_rgbf000112-resize_5/001016_2014-06-09_16-16-10_260595134347_rgbf000112-resize_5-target.png,1000,1.6565,1,2981,991,meters,jsons/v1_VE1000_randls_47.json,646850,765858,29,Man
93,290583,DepthScenes,duration_manipulation_targetAtFixation,jsons/v1_VE1000_randls_47.json,http://54.235.29.9/FacialAge/BNav_EC2/DepthDuration/v2_depth_duration_MTurk/v2_DepthDuration_HTML.html#57,57,1366,768,1366,768,8-22-2022,8-19-14,94,depth_duration_stimuli/002340_2014-06-28_20-05-46_260595134347_rgbf000113-resize_0/002340_2014-06-28_20-05-46_260595134347_rgbf000113-resize_0-target.png,1000,2.4735,1,3214,1002,meters,jsons/v1_VE1000_randls_47.json,646850,765858,29,Man
94,290583,DepthScenes,duration_manipulation_targetAtFixation,jsons/v1_VE1000_randls_47.json,http://54.235.29.9/FacialAge/BNav_EC2/DepthDuration/v2_depth_duration_MTurk/v2_DepthDuration_HTML.html#57,57,1366,768,1366,768,8-22-2022,8-19-14,95,depth_duration_stimuli/001199_2014-06-17_16-03-48_260595134347_rgbf000077-resize_0/001199_2014-06-17_16-03-48_260595134347_rgbf000077-resize_0-target.png,1000,3.4375,2,3313,991,meters,jsons/v1_VE1000_randls_47.json,646850,765858,29,Man
95,290583,DepthScenes,duration_manipulation_targetAtFixation,jsons/v1_VE1000_randls_47.json,http://54.235.29.9/FacialAge/BNav_EC2/DepthDuration/v2_depth_duration_MTurk/v2_DepthDuration_HTML.html#57,57,1366,768,1366,768,8-22-2022,8-19-14,96,depth_duration_stimuli/000502_2014-06-08_23-02-32_260595134347_rgbf000063-resize_4/000502_2014-06-08_23-02-32_260595134347_rgbf000063-resize_4-target.png,1000,2.431,2,4976,1007,meters,jsons/v1_VE1000_randls_47.json,646850,765858,29,Man
96,290583,DepthScenes,duration_manipulation_targetAtFixation,jsons/v1_VE1000_randls_47.json,http://54.235.29.9/FacialAge/BNav_EC2/DepthDuration/v2_depth_duration_MTurk/v2_DepthDuration_HTML.html#57,57,1366,768,1366,768,8-22-2022,8-19-14,97,depth_duration_stimuli/000692_2014-06-08_13-09-42_260595134347_rgbf000199-resize_2/000692_2014-06-08_13-09-42_260595134347_rgbf000199-resize_2-target.png,1000,3.661,2,3912,943,meters,jsons/v1_VE1000_randls_47.json,646850,765858,29,Man
97,290583,DepthScenes,duration_manipulation_targetAtFixation,jsons/v1_VE1000_randls_47.json,http://54.235.29.9/FacialAge/BNav_EC2/DepthDuration/v2_depth_duration_MTurk/v2_DepthDuration_HTML.html#57,57,1366,768,1366,768,8-22-2022,8-19-14,98,depth_duration_stimuli/001094_2014-06-15_17-36-00_260595134347_rgbf000205-resize_0/001094_2014-06-15_17-36-00_260595134347_rgbf000205-resize_0-target.png,1000,4.2175,1,3281,1009,meters,jsons/v1_VE1000_randls_47.json,646850,765858,29,Man
98,290583,DepthScenes,duration_manipulation_targetAtFixation,jsons/v1_VE1000_randls_47.json,http://54.235.29.9/FacialAge/BNav_EC2/DepthDuration/v2_depth_duration_MTurk/v2_DepthDuration_HTML.html#57,57,1366,768,1366,768,8-22-2022,8-19-14,99,depth_duration_stimuli/001540_2014-06-20_17-01-05_260595134347_rgbf000086-resize_2/001540_2014-06-20_17-01-05_260595134347_rgbf000086-resize-original.jpg,1000,1.459,0,4786,992,meters,jsons/v1_VE1000_randls_47.json,646850,765858,29,Man
99,290583,DepthScenes,duration_manipulation_targetAtFixation,jsons/v1_VE1000_randls_47.json,http://54.235.29.9/FacialAge/BNav_EC2/DepthDuration/v2_depth_duration_MTurk/v2_DepthDuration_HTML.html#57,57,1366,768,1366,768,8-22-2022,8-19-14,100,depth_duration_stimuli/001806_2014-06-26_20-50-20_260595134347_rgbf000091-resize_1/001806_2014-06-26_20-50-20_260595134347_rgbf000091-resize_1-target.png,1000,2.7305,1,3188,997,meters,jsons/v1_VE1000_randls_47.json,646850,765858,29,Man
100,290583,DepthScenes,duration_manipulation_targetAtFixation,jsons/v1_VE1000_randls_47.json,http://54.235.29.9/FacialAge/BNav_EC2/DepthDuration/v2_depth_duration_MTurk/v2_DepthDuration_HTML.html#57,57,1366,768,1366,768,8-22-2022,8-19-14,101,depth_duration_stimuli/001617_2014-06-20_11-35-32_260595134347_rgbf000066-resize_1/001617_2014-06-20_11-35-32_260595134347_rgbf000066-resize_1-target.png,1000,3.7910000000000004,2,2799,1004,meters,jsons/v1_VE1000_randls_47.json,646850,765858,29,Man
101,290583,DepthScenes,duration_manipulation_targetAtFixation,jsons/v1_VE1000_randls_47.json,http://54.235.29.9/FacialAge/BNav_EC2/DepthDuration/v2_depth_duration_MTurk/v2_DepthDuration_HTML.html#57,57,1366,768,1366,768,8-22-2022,8-19-14,102,depth_duration_stimuli/000486_2014-06-09_20-47-20_260595134347_rgbf000143-resize_2/000486_2014-06-09_20-47-20_260595134347_rgbf000143-resize_2-target.png,1000,4.8325,1,6866,999,meters,jsons/v1_VE1000_randls_47.json,646850,765858,29,Man
102,290583,DepthScenes,duration_manipulation_targetAtFixation,jsons/v1_VE1000_randls_47.json,http://54.235.29.9/FacialAge/BNav_EC2/DepthDuration/v2_depth_duration_MTurk/v2_DepthDuration_HTML.html#57,57,1366,768,1366,768,8-22-2022,8-19-14,103,depth_duration_stimuli/003083_2014-06-15_15-21-03_094959634447_rgbf000063-resize_1/003083_2014-06-15_15-21-03_094959634447_rgbf000063-resize_1-target.png,1000,4.1405,2,3468,993,meters,jsons/v1_VE1000_randls_47.json,646850,765858,29,Man
103,290583,DepthScenes,duration_manipulation_targetAtFixation,jsons/v1_VE1000_randls_47.json,http://54.235.29.9/FacialAge/BNav_EC2/DepthDuration/v2_depth_duration_MTurk/v2_DepthDuration_HTML.html#57,57,1366,768,1366,768,8-22-2022,8-19-14,104,depth_duration_stimuli/002213_2014-06-28_18-37-58_260595134347_rgbf000055-resize_1/002213_2014-06-28_18-37-58_260595134347_rgbf000055-resize_1-target.png,1000,3.62,1,3557,1002,meters,jsons/v1_VE1000_randls_47.json,646850,765858,29,Man
104,290583,DepthScenes,duration_manipulation_targetAtFixation,jsons/v1_VE1000_randls_47.json,http://54.235.29.9/FacialAge/BNav_EC2/DepthDuration/v2_depth_duration_MTurk/v2_DepthDuration_HTML.html#57,57,1366,768,1366,768,8-22-2022,8-19-14,105,depth_duration_stimuli/000691_2014-06-08_13-08-50_260595134347_rgbf000132-resize_3/000691_2014-06-08_13-08-50_260595134347_rgbf000132-resize_3-target.png,1000,4.1530000000000005,2,3690,997,meters,jsons/v1_VE1000_randls_47.json,646850,765858,29,Man
105,290583,DepthScenes,duration_manipulation_targetAtFixation,jsons/v1_VE1000_randls_47.json,http://54.235.29.9/FacialAge/BNav_EC2/DepthDuration/v2_depth_duration_MTurk/v2_DepthDuration_HTML.html#57,57,1366,768,1366,768,8-22-2022,8-19-14,106,depth_duration_stimuli/001029_2014-06-08_13-17-57_260595134347_rgbf000065-resize_1/001029_2014-06-08_13-17-57_260595134347_rgbf000065-resize_1-target.png,1000,3.0835,1,3241,987,meters,jsons/v1_VE1000_randls_47.json,646850,765858,29,Man
106,290583,DepthScenes,duration_manipulation_targetAtFixation,jsons/v1_VE1000_randls_47.json,http://54.235.29.9/FacialAge/BNav_EC2/DepthDuration/v2_depth_duration_MTurk/v2_DepthDuration_HTML.html#57,57,1366,768,1366,768,8-22-2022,8-19-14,107,depth_duration_stimuli/000677_2014-06-08_23-10-32_260595134347_rgbf000158-resize_6/000677_2014-06-08_23-10-32_260595134347_rgbf000158-resize_6-target.png,1000,3.556,2,2882,1003,meters,jsons/v1_VE1000_randls_47.json,646850,765858,29,Man
107,290583,DepthScenes,duration_manipulation_targetAtFixation,jsons/v1_VE1000_randls_47.json,http://54.235.29.9/FacialAge/BNav_EC2/DepthDuration/v2_depth_duration_MTurk/v2_DepthDuration_HTML.html#57,57,1366,768,1366,768,8-22-2022,8-19-14,108,depth_duration_stimuli/001449_2014-06-19_17-01-27_260595134347_rgbf000116-resize_2/001449_2014-06-19_17-01-27_260595134347_rgbf000116-resize_2-target.png,1000,3.452,1,3268,991,meters,jsons/v1_VE1000_randls_47.json,646850,765858,29,Man
108,290583,DepthScenes,duration_manipulation_targetAtFixation,jsons/v1_VE1000_randls_47.json,http://54.235.29.9/FacialAge/BNav_EC2/DepthDuration/v2_depth_duration_MTurk/v2_DepthDuration_HTML.html#57,57,1366,768,1366,768,8-22-2022,8-19-14,109,depth_duration_stimuli/001450_2014-06-19_17-02-03_260595134347_rgbf000203-resize_4/001450_2014-06-19_17-02-03_260595134347_rgbf000203-resize_4-target.png,1000,4.0106666666667,2,2854,991,meters,jsons/v1_VE1000_randls_47.json,646850,765858,29,Man
109,290583,DepthScenes,duration_manipulation_targetAtFixation,jsons/v1_VE1000_randls_47.json,http://54.235.29.9/FacialAge/BNav_EC2/DepthDuration/v2_depth_duration_MTurk/v2_DepthDuration_HTML.html#57,57,1366,768,1366,768,8-22-2022,8-19-14,110,depth_duration_stimuli/000414_2014-06-04_19-49-13_260595134347_rgbf000044-resize_0/000414_2014-06-04_19-49-13_260595134347_rgbf000044-resize_0-target.png,1000,4.329,1,4075,1000,meters,jsons/v1_VE1000_randls_47.json,646850,765858,29,Man
110,290583,DepthScenes,duration_manipulation_targetAtFixation,jsons/v1_VE1000_randls_47.json,http://54.235.29.9/FacialAge/BNav_EC2/DepthDuration/v2_depth_duration_MTurk/v2_DepthDuration_HTML.html#57,57,1366,768,1366,768,8-22-2022,8-19-14,111,depth_duration_stimuli/003129_2014-05-12_10-48-10_094959634447_rgbf000100-resize_0/003129_2014-05-12_10-48-10_094959634447_rgbf000100-resize_0-target.png,1000,4.9305,2,2915,997,meters,jsons/v1_VE1000_randls_47.json,646850,765858,29,Man
111,290583,DepthScenes,duration_manipulation_targetAtFixation,jsons/v1_VE1000_randls_47.json,http://54.235.29.9/FacialAge/BNav_EC2/DepthDuration/v2_depth_duration_MTurk/v2_DepthDuration_HTML.html#57,57,1366,768,1366,768,8-22-2022,8-19-14,112,depth_duration_stimuli/002600_2014-06-24_14-27-04_094959634447_rgbf000074-resize_2/002600_2014-06-24_14-27-04_094959634447_rgbf000074-resize_2-target.png,1000,2.7575,1,3160,992,meters,jsons/v1_VE1000_randls_47.json,646850,765858,29,Man
112,290583,DepthScenes,duration_manipulation_targetAtFixation,jsons/v1_VE1000_randls_47.json,http://54.235.29.9/FacialAge/BNav_EC2/DepthDuration/v2_depth_duration_MTurk/v2_DepthDuration_HTML.html#57,57,1366,768,1366,768,8-22-2022,8-19-14,113,depth_duration_stimuli/003228_2014-05-14_13-42-35_094959634447_rgbf000101-resize_1/003228_2014-05-14_13-42-35_094959634447_rgbf000101-resize_1-target.png,1000,1.9680000000000002,1,3167,1001,meters,jsons/v1_VE1000_randls_47.json,646850,765858,29,Man
113,290583,DepthScenes,duration_manipulation_targetAtFixation,jsons/v1_VE1000_randls_47.json,http://54.235.29.9/FacialAge/BNav_EC2/DepthDuration/v2_depth_duration_MTurk/v2_DepthDuration_HTML.html#57,57,1366,768,1366,768,8-22-2022,8-19-14,114,depth_duration_stimuli/002725_2014-06-22_11-47-51_094959634447_rgbf000070-resize_1/002725_2014-06-22_11-47-51_094959634447_rgbf000070-resize_1-target.png,1000,2.195,2,2752,997,meters,jsons/v1_VE1000_randls_47.json,646850,765858,29,Man
114,290583,DepthScenes,duration_manipulation_targetAtFixation,jsons/v1_VE1000_randls_47.json,http://54.235.29.9/FacialAge/BNav_EC2/DepthDuration/v2_depth_duration_MTurk/v2_DepthDuration_HTML.html#57,57,1366,768,1366,768,8-22-2022,8-19-14,115,depth_duration_stimuli/002344_2014-06-28_20-06-29_260595134347_rgbf000030-resize_1/002344_2014-06-28_20-06-29_260595134347_rgbf000030-resize_1-target.png,1000,1.5795,1,2725,999,meters,jsons/v1_VE1000_randls_47.json,646850,765858,29,Man
115,290583,DepthScenes,duration_manipulation_targetAtFixation,jsons/v1_VE1000_randls_47.json,http://54.235.29.9/FacialAge/BNav_EC2/DepthDuration/v2_depth_duration_MTurk/v2_DepthDuration_HTML.html#57,57,1366,768,1366,768,8-22-2022,8-19-14,116,depth_duration_stimuli/001170_2014-06-17_15-43-44_260595134347_rgbf000096-resize_6/001170_2014-06-17_15-43-44_260595134347_rgbf000096-resize-original.jpg,1000,1.1909999999999998,0,4101,1002,meters,jsons/v1_VE1000_randls_47.json,646850,765858,29,Man
116,290583,DepthScenes,duration_manipulation_targetAtFixation,jsons/v1_VE1000_randls_47.json,http://54.235.29.9/FacialAge/BNav_EC2/DepthDuration/v2_depth_duration_MTurk/v2_DepthDuration_HTML.html#57,57,1366,768,1366,768,8-22-2022,8-19-14,117,depth_duration_stimuli/000929_2014-06-09_16-33-19_260595134347_rgbf000139-resize_0/000929_2014-06-09_16-33-19_260595134347_rgbf000139-resize_0-target.png,1000,2.8680000000000003,1,3135,998,meters,jsons/v1_VE1000_randls_47.json,646850,765858,29,Man
117,290583,DepthScenes,duration_manipulation_targetAtFixation,jsons/v1_VE1000_randls_47.json,http://54.235.29.9/FacialAge/BNav_EC2/DepthDuration/v2_depth_duration_MTurk/v2_DepthDuration_HTML.html#57,57,1366,768,1366,768,8-22-2022,8-19-14,118,depth_duration_stimuli/000457_2014-06-08_16-52-43_260595134347_rgbf000199-resize_1/000457_2014-06-08_16-52-43_260595134347_rgbf000199-resize_1-target.png,1000,3.6489999999999996,2,2987,986,meters,jsons/v1_VE1000_randls_47.json,646850,765858,29,Man
118,290583,DepthScenes,duration_manipulation_targetAtFixation,jsons/v1_VE1000_randls_47.json,http://54.235.29.9/FacialAge/BNav_EC2/DepthDuration/v2_depth_duration_MTurk/v2_DepthDuration_HTML.html#57,57,1366,768,1366,768,8-22-2022,8-19-14,119,depth_duration_stimuli/001011_2014-06-08_23-18-54_260595134347_rgbf000044-resize_4/001011_2014-06-08_23-18-54_260595134347_rgbf000044-resize_4-target.png,1000,2.4730000000000003,1,2701,989,meters,jsons/v1_VE1000_randls_47.json,646850,765858,29,Man
119,290583,DepthScenes,duration_manipulation_targetAtFixation,jsons/v1_VE1000_randls_47.json,http://54.235.29.9/FacialAge/BNav_EC2/DepthDuration/v2_depth_duration_MTurk/v2_DepthDuration_HTML.html#57,57,1366,768,1366,768,8-22-2022,8-19-14,120,depth_duration_stimuli/002875_2014-06-01_15-19-00_094959634447_rgbf000151-resize_1/002875_2014-06-01_15-19-00_094959634447_rgbf000151-resize_1-target.png,1000,1.9675,1,4680,1010,meters,jsons/v1_VE1000_randls_47.json,646850,765858,29,Man
120,290583,DepthScenes,duration_manipulation_targetAtFixation,jsons/v1_VE1000_randls_47.json,http://54.235.29.9/FacialAge/BNav_EC2/DepthDuration/v2_depth_duration_MTurk/v2_DepthDuration_HTML.html#57,57,1366,768,1366,768,8-22-2022,8-19-14,121,depth_duration_stimuli/000493_2014-06-09_21-01-18_260595134347_rgbf000196-resize_3/000493_2014-06-09_21-01-18_260595134347_rgbf000196-resize_3-target.png,1000,3.44,1,3915,985,meters,jsons/v1_VE1000_randls_47.json,646850,765858,29,Man
121,290583,DepthScenes,duration_manipulation_targetAtFixation,jsons/v1_VE1000_randls_47.json,http://54.235.29.9/FacialAge/BNav_EC2/DepthDuration/v2_depth_duration_MTurk/v2_DepthDuration_HTML.html#57,57,1366,768,1366,768,8-22-2022,8-19-14,122,depth_duration_stimuli/000191_2014-05-12_17-07-38_260595134347_rgbf000199-resize_0/000191_2014-05-12_17-07-38_260595134347_rgbf000199-resize_0-target.png,1000,3.7995,1,3091,999,meters,jsons/v1_VE1000_randls_47.json,646850,765858,29,Man
122,290583,DepthScenes,duration_manipulation_targetAtFixation,jsons/v1_VE1000_randls_47.json,http://54.235.29.9/FacialAge/BNav_EC2/DepthDuration/v2_depth_duration_MTurk/v2_DepthDuration_HTML.html#57,57,1366,768,1366,768,8-22-2022,8-19-14,123,depth_duration_stimuli/000447_2014-06-08_16-15-46_260595134347_rgbf000130-resize_1/000447_2014-06-08_16-15-46_260595134347_rgbf000130-resize_1-target.png,1000,4.479,1,3054,995,meters,jsons/v1_VE1000_randls_47.json,646850,765858,29,Man
123,290583,DepthScenes,duration_manipulation_targetAtFixation,jsons/v1_VE1000_randls_47.json,http://54.235.29.9/FacialAge/BNav_EC2/DepthDuration/v2_depth_duration_MTurk/v2_DepthDuration_HTML.html#57,57,1366,768,1366,768,8-22-2022,8-19-14,124,depth_duration_stimuli/001447_2014-06-19_17-00-32_260595134347_rgbf000082-resize_5/001447_2014-06-19_17-00-32_260595134347_rgbf000082-resize_5-target.png,1000,4.13775,2,2818,1003,meters,jsons/v1_VE1000_randls_47.json,646850,765858,29,Man
124,290583,DepthScenes,duration_manipulation_targetAtFixation,jsons/v1_VE1000_randls_47.json,http://54.235.29.9/FacialAge/BNav_EC2/DepthDuration/v2_depth_duration_MTurk/v2_DepthDuration_HTML.html#57,57,1366,768,1366,768,8-22-2022,8-19-14,125,depth_duration_stimuli/001417_2014-06-19_16-25-36_260595134347_rgbf000115-resize_5/001417_2014-06-19_16-25-36_260595134347_rgbf000115-resize_5-target.png,1000,4.6255,1,2965,1004,meters,jsons/v1_VE1000_randls_47.json,646850,765858,29,Man
125,290583,DepthScenes,duration_manipulation_targetAtFixation,jsons/v1_VE1000_randls_47.json,http://54.235.29.9/FacialAge/BNav_EC2/DepthDuration/v2_depth_duration_MTurk/v2_DepthDuration_HTML.html#57,57,1366,768,1366,768,8-22-2022,8-19-14,126,depth_duration_stimuli/003081_2014-06-15_15-19-16_094959634447_rgbf000150-resize_1/003081_2014-06-15_15-19-16_094959634447_rgbf000150-resize_1-target.png,1000,3.9125,2,5042,999,meters,jsons/v1_VE1000_randls_47.json,646850,765858,29,Man
126,290583,DepthScenes,duration_manipulation_targetAtFixation,jsons/v1_VE1000_randls_47.json,http://54.235.29.9/FacialAge/BNav_EC2/DepthDuration/v2_depth_duration_MTurk/v2_DepthDuration_HTML.html#57,57,1366,768,1366,768,8-22-2022,8-19-14,127,depth_duration_stimuli/003492_2014-05-21_15-50-55_094959634447_rgbf000828-resize_1/003492_2014-05-21_15-50-55_094959634447_rgbf000828-resize_1-target.png,1000,4.06875,1,3486,995,meters,jsons/v1_VE1000_randls_47.json,646850,765858,29,Man
127,290583,DepthScenes,duration_manipulation_targetAtFixation,jsons/v1_VE1000_randls_47.json,http://54.235.29.9/FacialAge/BNav_EC2/DepthDuration/v2_depth_duration_MTurk/v2_DepthDuration_HTML.html#57,57,1366,768,1366,768,8-22-2022,8-19-14,128,depth_duration_stimuli/002568_2014-06-24_13-59-21_094959634447_rgbf000062-resize_4/002568_2014-06-24_13-59-21_094959634447_rgbf000062-resize_4-target.png,1000,3.015,2,3069,985,meters,jsons/v1_VE1000_randls_47.json,646850,765858,29,Man
128,290583,DepthScenes,duration_manipulation_targetAtFixation,jsons/v1_VE1000_randls_47.json,http://54.235.29.9/FacialAge/BNav_EC2/DepthDuration/v2_depth_duration_MTurk/v2_DepthDuration_HTML.html#57,57,1366,768,1366,768,8-22-2022,8-19-14,129,depth_duration_stimuli/000906_2014-06-08_13-35-43_260595134347_rgbf000155-resize_1/000906_2014-06-08_13-35-43_260595134347_rgbf000155-resize_1-target.png,1000,2.8489999999999998,1,2712,993,meters,jsons/v1_VE1000_randls_47.json,646850,765858,29,Man
129,290583,DepthScenes,duration_manipulation_targetAtFixation,jsons/v1_VE1000_randls_47.json,http://54.235.29.9/FacialAge/BNav_EC2/DepthDuration/v2_depth_duration_MTurk/v2_DepthDuration_HTML.html#57,57,1366,768,1366,768,8-22-2022,8-19-14,130,depth_duration_stimuli/002805_2014-06-22_19-54-03_094959634447_rgbf000079-resize_1/002805_2014-06-22_19-54-03_094959634447_rgbf000079-resize_1-target.png,1000,3.1439999999999997,2,3253,999,meters,jsons/v1_VE1000_randls_47.json,646850,765858,29,Man
130,290583,DepthScenes,duration_manipulation_targetAtFixation,jsons/v1_VE1000_randls_47.json,http://54.235.29.9/FacialAge/BNav_EC2/DepthDuration/v2_depth_duration_MTurk/v2_DepthDuration_HTML.html#57,57,1366,768,1366,768,8-22-2022,8-19-14,131,depth_duration_stimuli/002989_2014-06-15_12-25-03_094959634447_rgbf000150-resize_3/002989_2014-06-15_12-25-03_094959634447_rgbf000150-resize_3-target.png,1000,4.1975,1,3234,1011,meters,jsons/v1_VE1000_randls_47.json,646850,765858,29,Man
131,290583,DepthScenes,duration_manipulation_targetAtFixation,jsons/v1_VE1000_randls_47.json,http://54.235.29.9/FacialAge/BNav_EC2/DepthDuration/v2_depth_duration_MTurk/v2_DepthDuration_HTML.html#57,57,1366,768,1366,768,8-22-2022,8-19-14,132,depth_duration_stimuli/000866_2014-06-09_20-45-42_260595134347_rgbf000139-resize_1/000866_2014-06-09_20-45-42_260595134347_rgbf000139-resize_1-target.png,1000,3.2155,2,2594,987,meters,jsons/v1_VE1000_randls_47.json,646850,765858,29,Man
132,290583,DepthScenes,duration_manipulation_targetAtFixation,jsons/v1_VE1000_randls_47.json,http://54.235.29.9/FacialAge/BNav_EC2/DepthDuration/v2_depth_duration_MTurk/v2_DepthDuration_HTML.html#57,57,1366,768,1366,768,8-22-2022,8-19-14,133,depth_duration_stimuli/002043_2014-06-24_20-29-38_260595134347_rgbf000039-resize_4/002043_2014-06-24_20-29-38_260595134347_rgbf000039-resize_4-target.png,1000,2.8435,1,2739,1000,meters,jsons/v1_VE1000_randls_47.json,646850,765858,29,Man
133,290583,DepthScenes,duration_manipulation_targetAtFixation,jsons/v1_VE1000_randls_47.json,http://54.235.29.9/FacialAge/BNav_EC2/DepthDuration/v2_depth_duration_MTurk/v2_DepthDuration_HTML.html#57,57,1366,768,1366,768,8-22-2022,8-19-14,134,depth_duration_stimuli/003048_2014-06-15_13-49-43_094959634447_rgbf000150-resize_1/003048_2014-06-15_13-49-43_094959634447_rgbf000150-resize_1-target.png,1000,4.0035,2,2600,992,meters,jsons/v1_VE1000_randls_47.json,646850,765858,29,Man
134,290583,DepthScenes,duration_manipulation_targetAtFixation,jsons/v1_VE1000_randls_47.json,http://54.235.29.9/FacialAge/BNav_EC2/DepthDuration/v2_depth_duration_MTurk/v2_DepthDuration_HTML.html#57,57,1366,768,1366,768,8-22-2022,8-19-14,135,depth_duration_stimuli/002072_2014-06-24_21-48-06_260595134347_rgbf000115-resize_0/002072_2014-06-24_21-48-06_260595134347_rgbf000115-resize-original.jpg,1000,4.702,0,4507,994,meters,jsons/v1_VE1000_randls_47.json,646850,765858,29,Man
135,290583,DepthScenes,duration_manipulation_targetAtFixation,jsons/v1_VE1000_randls_47.json,http://54.235.29.9/FacialAge/BNav_EC2/DepthDuration/v2_depth_duration_MTurk/v2_DepthDuration_HTML.html#57,57,1366,768,1366,768,8-22-2022,8-19-14,136,depth_duration_stimuli/000469_2014-06-09_19-42-10_260595134347_rgbf000081-resize_1/000469_2014-06-09_19-42-10_260595134347_rgbf000081-resize_1-target.png,1000,1.652,1,4032,1007,meters,jsons/v1_VE1000_randls_47.json,646850,765858,29,Man
136,290583,DepthScenes,duration_manipulation_targetAtFixation,jsons/v1_VE1000_randls_47.json,http://54.235.29.9/FacialAge/BNav_EC2/DepthDuration/v2_depth_duration_MTurk/v2_DepthDuration_HTML.html#57,57,1366,768,1366,768,8-22-2022,8-19-14,137,depth_duration_stimuli/000483_2014-06-09_20-41-45_260595134347_rgbf000116-resize_4/000483_2014-06-09_20-41-45_260595134347_rgbf000116-resize_4-target.png,1000,1.337,2,2922,1005,meters,jsons/v1_VE1000_randls_47.json,646850,765858,29,Man
137,290583,DepthScenes,duration_manipulation_targetAtFixation,jsons/v1_VE1000_randls_47.json,http://54.235.29.9/FacialAge/BNav_EC2/DepthDuration/v2_depth_duration_MTurk/v2_DepthDuration_HTML.html#57,57,1366,768,1366,768,8-22-2022,8-19-14,138,depth_duration_stimuli/001244_2014-06-17_16-47-45_260595134347_rgbf000030-resize_4/001244_2014-06-17_16-47-45_260595134347_rgbf000030-resize_4-target.png,1000,2.0425,1,2729,989,meters,jsons/v1_VE1000_randls_47.json,646850,765858,29,Man
138,290583,DepthScenes,duration_manipulation_targetAtFixation,jsons/v1_VE1000_randls_47.json,http://54.235.29.9/FacialAge/BNav_EC2/DepthDuration/v2_depth_duration_MTurk/v2_DepthDuration_HTML.html#57,57,1366,768,1366,768,8-22-2022,8-19-14,139,depth_duration_stimuli/003495_2014-05-21_16-01-51_094959634447_rgbf000100-resize_3/003495_2014-05-21_16-01-51_094959634447_rgbf000100-resize_3-target.png,1000,1.6255,2,2858,997,meters,jsons/v1_VE1000_randls_47.json,646850,765858,29,Man
139,290583,DepthScenes,duration_manipulation_targetAtFixation,jsons/v1_VE1000_randls_47.json,http://54.235.29.9/FacialAge/BNav_EC2/DepthDuration/v2_depth_duration_MTurk/v2_DepthDuration_HTML.html#57,57,1366,768,1366,768,8-22-2022,8-19-14,140,depth_duration_stimuli/000810_2014-06-08_17-20-01_260595134347_rgbf000105-resize_0/000810_2014-06-08_17-20-01_260595134347_rgbf000105-resize_0-target.png,1000,1.4865,1,2711,997,meters,jsons/v1_VE1000_randls_47.json,646850,765858,29,Man
140,290583,DepthScenes,duration_manipulation_targetAtFixation,jsons/v1_VE1000_randls_47.json,http://54.235.29.9/FacialAge/BNav_EC2/DepthDuration/v2_depth_duration_MTurk/v2_DepthDuration_HTML.html#57,57,1366,768,1366,768,8-22-2022,8-19-14,141,depth_duration_stimuli/001214_2014-06-17_16-13-55_260595134347_rgbf000111-resize_0/001214_2014-06-17_16-13-55_260595134347_rgbf000111-resize_0-target.png,1000,2.6505,2,2641,997,meters,jsons/v1_VE1000_randls_47.json,646850,765858,29,Man
141,290583,DepthScenes,duration_manipulation_targetAtFixation,jsons/v1_VE1000_randls_47.json,http://54.235.29.9/FacialAge/BNav_EC2/DepthDuration/v2_depth_duration_MTurk/v2_DepthDuration_HTML.html#57,57,1366,768,1366,768,8-22-2022,8-19-14,142,depth_duration_stimuli/002784_2014-06-22_19-26-30_094959634447_rgbf000083-resize_3/002784_2014-06-22_19-26-30_094959634447_rgbf000083-resize_3-target.png,1000,1.8046666666667,1,2858,987,meters,jsons/v1_VE1000_randls_47.json,646850,765858,29,Man
142,290583,DepthScenes,duration_manipulation_targetAtFixation,jsons/v1_VE1000_randls_47.json,http://54.235.29.9/FacialAge/BNav_EC2/DepthDuration/v2_depth_duration_MTurk/v2_DepthDuration_HTML.html#57,57,1366,768,1366,768,8-22-2022,8-19-14,143,depth_duration_stimuli/001100_2014-06-15_17-46-26_260595134347_rgbf000225-resize_2/001100_2014-06-15_17-46-26_260595134347_rgbf000225-resize_2-target.png,1000,2.24,2,2618,995,meters,jsons/v1_VE1000_randls_47.json,646850,765858,29,Man
143,290583,DepthScenes,duration_manipulation_targetAtFixation,jsons/v1_VE1000_randls_47.json,http://54.235.29.9/FacialAge/BNav_EC2/DepthDuration/v2_depth_duration_MTurk/v2_DepthDuration_HTML.html#57,57,1366,768,1366,768,8-22-2022,8-19-14,144,depth_duration_stimuli/002375_2014-06-28_20-13-44_260595134347_rgbf000032-resize_1/002375_2014-06-28_20-13-44_260595134347_rgbf000032-resize_1-target.png,1000,4.0175,2,2661,1002,meters,jsons/v1_VE1000_randls_47.json,646850,765858,29,Man
144,290583,DepthScenes,duration_manipulation_targetAtFixation,jsons/v1_VE1000_randls_47.json,http://54.235.29.9/FacialAge/BNav_EC2/DepthDuration/v2_depth_duration_MTurk/v2_DepthDuration_HTML.html#57,57,1366,768,1366,768,8-22-2022,8-19-14,145,depth_duration_stimuli/002657_2014-06-13_15-29-54_094959634447_rgbf000150-resize_1/002657_2014-06-13_15-29-54_094959634447_rgbf000150-resize_1-target.png,1000,4.919,1,2616,998,meters,jsons/v1_VE1000_randls_47.json,646850,765858,29,Man
145,290583,DepthScenes,duration_manipulation_targetAtFixation,jsons/v1_VE1000_randls_47.json,http://54.235.29.9/FacialAge/BNav_EC2/DepthDuration/v2_depth_duration_MTurk/v2_DepthDuration_HTML.html#57,57,1366,768,1366,768,8-22-2022,8-19-14,146,depth_duration_stimuli/001498_2014-06-19_17-45-14_260595134347_rgbf000129-resize_4/001498_2014-06-19_17-45-14_260595134347_rgbf000129-resize-original.jpg,1000,1.4075,0,4040,999,meters,jsons/v1_VE1000_randls_47.json,646850,765858,29,Man
146,290583,DepthScenes,duration_manipulation_targetAtFixation,jsons/v1_VE1000_randls_47.json,http://54.235.29.9/FacialAge/BNav_EC2/DepthDuration/v2_depth_duration_MTurk/v2_DepthDuration_HTML.html#57,57,1366,768,1366,768,8-22-2022,8-19-14,147,depth_duration_stimuli/002763_2014-06-22_19-13-10_094959634447_rgbf000075-resize_4/002763_2014-06-22_19-13-10_094959634447_rgbf000075-resize_4-target.png,1000,1.68375,1,3803,1003,meters,jsons/v1_VE1000_randls_47.json,646850,765858,29,Man
147,290583,DepthScenes,duration_manipulation_targetAtFixation,jsons/v1_VE1000_randls_47.json,http://54.235.29.9/FacialAge/BNav_EC2/DepthDuration/v2_depth_duration_MTurk/v2_DepthDuration_HTML.html#57,57,1366,768,1366,768,8-22-2022,8-19-14,148,depth_duration_stimuli/002209_2014-06-28_18-36-10_260595134347_rgbf000051-resize_1/002209_2014-06-28_18-36-10_260595134347_rgbf000051-resize_1-target.png,1000,2.057,2,2723,994,meters,jsons/v1_VE1000_randls_47.json,646850,765858,29,Man
148,290583,DepthScenes,duration_manipulation_targetAtFixation,jsons/v1_VE1000_randls_47.json,http://54.235.29.9/FacialAge/BNav_EC2/DepthDuration/v2_depth_duration_MTurk/v2_DepthDuration_HTML.html#57,57,1366,768,1366,768,8-22-2022,8-19-14,149,depth_duration_stimuli/001810_2014-06-26_20-51-35_260595134347_rgbf000040-resize_3/001810_2014-06-26_20-51-35_260595134347_rgbf000040-resize_3-target.png,1000,2.2525,1,3315,1003,meters,jsons/v1_VE1000_randls_47.json,646850,765858,29,Man
149,290583,DepthScenes,duration_manipulation_targetAtFixation,jsons/v1_VE1000_randls_47.json,http://54.235.29.9/FacialAge/BNav_EC2/DepthDuration/v2_depth_duration_MTurk/v2_DepthDuration_HTML.html#57,57,1366,768,1366,768,8-22-2022,8-19-14,150,depth_duration_stimuli/003010_2014-06-15_12-54-35_094959634447_rgbf000112-resize_0/003010_2014-06-15_12-54-35_094959634447_rgbf000112-resize_0-target.png,1000,3.1185,2,2499,987,meters,jsons/v1_VE1000_randls_47.json,646850,765858,29,Man
150,290583,DepthScenes,duration_manipulation_targetAtFixation,jsons/v1_VE1000_randls_47.json,http://54.235.29.9/FacialAge/BNav_EC2/DepthDuration/v2_depth_duration_MTurk/v2_DepthDuration_HTML.html#57,57,1366,768,1366,768,8-22-2022,8-19-14,151,depth_duration_stimuli/001175_2014-06-17_15-45-55_260595134347_rgbf000129-resize_4/001175_2014-06-17_15-45-55_260595134347_rgbf000129-resize_4-target.png,1000,4.255,1,7440,997,meters,jsons/v1_VE1000_randls_47.json,646850,765858,29,Man
151,290583,DepthScenes,duration_manipulation_targetAtFixation,jsons/v1_VE1000_randls_47.json,http://54.235.29.9/FacialAge/BNav_EC2/DepthDuration/v2_depth_duration_MTurk/v2_DepthDuration_HTML.html#57,57,1366,768,1366,768,8-22-2022,8-19-14,152,depth_duration_stimuli/003490_2014-05-21_15-50-11_094959634447_rgbf000101-resize_3/003490_2014-05-21_15-50-11_094959634447_rgbf000101-resize_3-target.png,1000,3.6445,2,3372,997,meters,jsons/v1_VE1000_randls_47.json,646850,765858,29,Man
152,290583,DepthScenes,duration_manipulation_targetAtFixation,jsons/v1_VE1000_randls_47.json,http://54.235.29.9/FacialAge/BNav_EC2/DepthDuration/v2_depth_duration_MTurk/v2_DepthDuration_HTML.html#57,57,1366,768,1366,768,8-22-2022,8-19-14,153,depth_duration_stimuli/001055_2014-06-08_18-45-35_260595134347_rgbf000111-resize_4/001055_2014-06-08_18-45-35_260595134347_rgbf000111-resize_4-target.png,1000,2.4290000000000003,1,2866,1012,meters,jsons/v1_VE1000_randls_47.json,646850,765858,29,Man
153,290583,DepthScenes,duration_manipulation_targetAtFixation,jsons/v1_VE1000_randls_47.json,http://54.235.29.9/FacialAge/BNav_EC2/DepthDuration/v2_depth_duration_MTurk/v2_DepthDuration_HTML.html#57,57,1366,768,1366,768,8-22-2022,8-19-14,154,depth_duration_stimuli/000549_2014-06-08_22-10-24_260595134347_rgbf000247-resize_3/000549_2014-06-08_22-10-24_260595134347_rgbf000247-resize_3-target.png,1000,1.841,2,2690,1003,meters,jsons/v1_VE1000_randls_47.json,646850,765858,29,Man
154,290583,DepthScenes,duration_manipulation_targetAtFixation,jsons/v1_VE1000_randls_47.json,http://54.235.29.9/FacialAge/BNav_EC2/DepthDuration/v2_depth_duration_MTurk/v2_DepthDuration_HTML.html#57,57,1366,768,1366,768,8-22-2022,8-19-14,155,depth_duration_stimuli/000470_2014-06-09_19-42-40_260595134347_rgbf000094-resize_1/000470_2014-06-09_19-42-40_260595134347_rgbf000094-resize_1-target.png,1000,1.831,1,2665,1002,meters,jsons/v1_VE1000_randls_47.json,646850,765858,29,Man
155,290583,DepthScenes,duration_manipulation_targetAtFixation,jsons/v1_VE1000_randls_47.json,http://54.235.29.9/FacialAge/BNav_EC2/DepthDuration/v2_depth_duration_MTurk/v2_DepthDuration_HTML.html#57,57,1366,768,1366,768,8-22-2022,8-19-14,156,depth_duration_stimuli/000109_2014-05-14_23-41-52_260595134347_rgbf000035-resize_9/000109_2014-05-14_23-41-52_260595134347_rgbf000035-resize_9-target.png,1000,1.3545,2,2798,992,meters,jsons/v1_VE1000_randls_47.json,646850,765858,29,Man
156,290583,DepthScenes,duration_manipulation_targetAtFixation,jsons/v1_VE1000_randls_47.json,http://54.235.29.9/FacialAge/BNav_EC2/DepthDuration/v2_depth_duration_MTurk/v2_DepthDuration_HTML.html#57,57,1366,768,1366,768,8-22-2022,8-19-14,157,depth_duration_stimuli/001056_2014-06-08_18-46-44_260595134347_rgbf000068-resize_0/001056_2014-06-08_18-46-44_260595134347_rgbf000068-resize_0-target.png,1000,2.6625,2,3623,997,meters,jsons/v1_VE1000_randls_47.json,646850,765858,29,Man
157,290583,DepthScenes,duration_manipulation_targetAtFixation,jsons/v1_VE1000_randls_47.json,http://54.235.29.9/FacialAge/BNav_EC2/DepthDuration/v2_depth_duration_MTurk/v2_DepthDuration_HTML.html#57,57,1366,768,1366,768,8-22-2022,8-19-14,158,depth_duration_stimuli/002199_2014-06-28_18-33-56_260595134347_rgbf000074-resize_0/002199_2014-06-28_18-33-56_260595134347_rgbf000074-resize_0-target.png,1000,1.996,2,3469,986,meters,jsons/v1_VE1000_randls_47.json,646850,765858,29,Man
158,290583,DepthScenes,duration_manipulation_targetAtFixation,jsons/v1_VE1000_randls_47.json,http://54.235.29.9/FacialAge/BNav_EC2/DepthDuration/v2_depth_duration_MTurk/v2_DepthDuration_HTML.html#57,57,1366,768,1366,768,8-22-2022,8-19-14,159,depth_duration_stimuli/002570_2014-06-24_13-59-54_094959634447_rgbf000059-resize_0/002570_2014-06-24_13-59-54_094959634447_rgbf000059-resize_0-target.png,1000,4.037,1,5040,1005,meters,jsons/v1_VE1000_randls_47.json,646850,765858,29,Man
159,290583,DepthScenes,duration_manipulation_targetAtFixation,jsons/v1_VE1000_randls_47.json,http://54.235.29.9/FacialAge/BNav_EC2/DepthDuration/v2_depth_duration_MTurk/v2_DepthDuration_HTML.html#57,57,1366,768,1366,768,8-22-2022,8-19-14,160,depth_duration_stimuli/002467_2014-06-28_20-38-07_260595134347_rgbf000026-resize_2/002467_2014-06-28_20-38-07_260595134347_rgbf000026-resize_2-target.png,1000,4.742,2,3177,990,meters,jsons/v1_VE1000_randls_47.json,646850,765858,29,Man
160,290583,DepthScenes,duration_manipulation_targetAtFixation,jsons/v1_VE1000_randls_47.json,http://54.235.29.9/FacialAge/BNav_EC2/DepthDuration/v2_depth_duration_MTurk/v2_DepthDuration_HTML.html#57,57,1366,768,1366,768,8-22-2022,8-19-14,161,depth_duration_stimuli/001150_2014-06-17_15-27-34_260595134347_rgbf000108-resize_2/001150_2014-06-17_15-27-34_260595134347_rgbf000108-resize_2-target.png,1000,4.0325,1,3461,989,meters,jsons/v1_VE1000_randls_47.json,646850,765858,29,Man
161,290583,DepthScenes,duration_manipulation_targetAtFixation,jsons/v1_VE1000_randls_47.json,http://54.235.29.9/FacialAge/BNav_EC2/DepthDuration/v2_depth_duration_MTurk/v2_DepthDuration_HTML.html#57,57,1366,768,1366,768,8-22-2022,8-19-14,162,depth_duration_stimuli/000665_2014-06-09_20-42-35_260595134347_rgbf000110-resize_1/000665_2014-06-09_20-42-35_260595134347_rgbf000110-resize_1-target.png,1000,3.057,2,2731,996,meters,jsons/v1_VE1000_randls_47.json,646850,765858,29,Man
162,290583,DepthScenes,duration_manipulation_targetAtFixation,jsons/v1_VE1000_randls_47.json,http://54.235.29.9/FacialAge/BNav_EC2/DepthDuration/v2_depth_duration_MTurk/v2_DepthDuration_HTML.html#57,57,1366,768,1366,768,8-22-2022,8-19-14,163,depth_duration_stimuli/000009_2014-05-26_14-32-05_260595134347_rgbf000034-resize_3/000009_2014-05-26_14-32-05_260595134347_rgbf000034-resize_3-target.png,1000,3.8715,2,2698,988,meters,jsons/v1_VE1000_randls_47.json,646850,765858,29,Man
163,290583,DepthScenes,duration_manipulation_targetAtFixation,jsons/v1_VE1000_randls_47.json,http://54.235.29.9/FacialAge/BNav_EC2/DepthDuration/v2_depth_duration_MTurk/v2_DepthDuration_HTML.html#57,57,1366,768,1366,768,8-22-2022,8-19-14,164,depth_duration_stimuli/001828_2014-06-26_21-40-03_260595134347_rgbf000024-resize_0/001828_2014-06-26_21-40-03_260595134347_rgbf000024-resize_0-target.png,1000,4.8260000000000005,1,4176,992,meters,jsons/v1_VE1000_randls_47.json,646850,765858,29,Man
