,subjID,experimentName,versionName,sequenceName,url,selected_row,windowWidth,windowHeight,screenWidth,screenHeight,startDate,startTime,trial,stimulus,duration,actual_depth,depth_estimate,trial_RT,log_sceneDuration,unitSelection,seq_filepath,experimentTime,totalTime,age,gender
0,290930,DepthScenes,duration_manipulation_targetAtFixation,jsons/v1_VE250_randls_29_rotated.json,http://54.235.29.9/FacialAge/BNav_EC2/DepthDuration/v2_depth_duration_MTurk/v2_DepthDuration_HTML.html#230,230,1440,900,1440,900,9-3-2022,13-44-51,1,depth_duration_stimuli/001815_2014-06-26_20-52-55_260595134347_rgbf000020-resize_0/001815_2014-06-26_20-52-55_260595134347_rgbf000020-resize_0-target.png,250,3.3865,10,4602,249,feet,jsons/v1_VE250_randls_29_rotated.json,495207,658682,52,Man
1,290930,DepthScenes,duration_manipulation_targetAtFixation,jsons/v1_VE250_randls_29_rotated.json,http://54.235.29.9/FacialAge/BNav_EC2/DepthDuration/v2_depth_duration_MTurk/v2_DepthDuration_HTML.html#230,230,1440,900,1440,900,9-3-2022,13-44-51,2,depth_duration_stimuli/001808_2014-06-26_20-50-58_260595134347_rgbf000029-resize_1/001808_2014-06-26_20-50-58_260595134347_rgbf000029-resize_1-target.png,250,4.249,15,3378,251,feet,jsons/v1_VE250_randls_29_rotated.json,495207,658682,52,Man
2,290930,DepthScenes,duration_manipulation_targetAtFixation,jsons/v1_VE250_randls_29_rotated.json,http://54.235.29.9/FacialAge/BNav_EC2/DepthDuration/v2_depth_duration_MTurk/v2_DepthDuration_HTML.html#230,230,1440,900,1440,900,9-3-2022,13-44-51,3,depth_duration_stimuli/001235_2014-06-17_16-37-36_260595134347_rgbf000084-resize_4/001235_2014-06-17_16-37-36_260595134347_rgbf000084-resize_4-target.png,250,3.6605,12,2600,250,feet,jsons/v1_VE250_randls_29_rotated.json,495207,658682,52,Man
3,290930,DepthScenes,duration_manipulation_targetAtFixation,jsons/v1_VE250_randls_29_rotated.json,http://54.235.29.9/FacialAge/BNav_EC2/DepthDuration/v2_depth_duration_MTurk/v2_DepthDuration_HTML.html#230,230,1440,900,1440,900,9-3-2022,13-44-51,4,depth_duration_stimuli/000788_2014-06-08_22-34-36_260595134347_rgbf000131-resize_1/000788_2014-06-08_22-34-36_260595134347_rgbf000131-resize_1-target.png,250,3.359,10,2252,245,feet,jsons/v1_VE250_randls_29_rotated.json,495207,658682,52,Man
4,290930,DepthScenes,duration_manipulation_targetAtFixation,jsons/v1_VE250_randls_29_rotated.json,http://54.235.29.9/FacialAge/BNav_EC2/DepthDuration/v2_depth_duration_MTurk/v2_DepthDuration_HTML.html#230,230,1440,900,1440,900,9-3-2022,13-44-51,5,depth_duration_stimuli/000665_2014-06-09_20-42-35_260595134347_rgbf000110-resize_1/000665_2014-06-09_20-42-35_260595134347_rgbf000110-resize_1-target.png,250,3.057,10,2261,253,feet,jsons/v1_VE250_randls_29_rotated.json,495207,658682,52,Man
5,290930,DepthScenes,duration_manipulation_targetAtFixation,jsons/v1_VE250_randls_29_rotated.json,http://54.235.29.9/FacialAge/BNav_EC2/DepthDuration/v2_depth_duration_MTurk/v2_DepthDuration_HTML.html#230,230,1440,900,1440,900,9-3-2022,13-44-51,6,depth_duration_stimuli/001150_2014-06-17_15-27-34_260595134347_rgbf000108-resize_2/001150_2014-06-17_15-27-34_260595134347_rgbf000108-resize_2-target.png,250,4.0325,20,5139,248,feet,jsons/v1_VE250_randls_29_rotated.json,495207,658682,52,Man
6,290930,DepthScenes,duration_manipulation_targetAtFixation,jsons/v1_VE250_randls_29_rotated.json,http://54.235.29.9/FacialAge/BNav_EC2/DepthDuration/v2_depth_duration_MTurk/v2_DepthDuration_HTML.html#230,230,1440,900,1440,900,9-3-2022,13-44-51,7,depth_duration_stimuli/002875_2014-06-01_15-19-00_094959634447_rgbf000151-resize_1/002875_2014-06-01_15-19-00_094959634447_rgbf000151-resize_1-target.png,250,1.9675,5,2250,253,feet,jsons/v1_VE250_randls_29_rotated.json,495207,658682,52,Man
7,290930,DepthScenes,duration_manipulation_targetAtFixation,jsons/v1_VE250_randls_29_rotated.json,http://54.235.29.9/FacialAge/BNav_EC2/DepthDuration/v2_depth_duration_MTurk/v2_DepthDuration_HTML.html#230,230,1440,900,1440,900,9-3-2022,13-44-51,8,depth_duration_stimuli/001011_2014-06-08_23-18-54_260595134347_rgbf000044-resize_4/001011_2014-06-08_23-18-54_260595134347_rgbf000044-resize_4-target.png,250,2.4730000000000003,7,2224,245,feet,jsons/v1_VE250_randls_29_rotated.json,495207,658682,52,Man
8,290930,DepthScenes,duration_manipulation_targetAtFixation,jsons/v1_VE250_randls_29_rotated.json,http://54.235.29.9/FacialAge/BNav_EC2/DepthDuration/v2_depth_duration_MTurk/v2_DepthDuration_HTML.html#230,230,1440,900,1440,900,9-3-2022,13-44-51,9,depth_duration_stimuli/002340_2014-06-28_20-05-46_260595134347_rgbf000113-resize_0/002340_2014-06-28_20-05-46_260595134347_rgbf000113-resize_0-target.png,250,2.4735,7,2506,250,feet,jsons/v1_VE250_randls_29_rotated.json,495207,658682,52,Man
9,290930,DepthScenes,duration_manipulation_targetAtFixation,jsons/v1_VE250_randls_29_rotated.json,http://54.235.29.9/FacialAge/BNav_EC2/DepthDuration/v2_depth_duration_MTurk/v2_DepthDuration_HTML.html#230,230,1440,900,1440,900,9-3-2022,13-44-51,10,depth_duration_stimuli/001016_2014-06-09_16-16-10_260595134347_rgbf000112-resize_5/001016_2014-06-09_16-16-10_260595134347_rgbf000112-resize_5-target.png,250,1.6565,5,2328,249,feet,jsons/v1_VE250_randls_29_rotated.json,495207,658682,52,Man
10,290930,DepthScenes,duration_manipulation_targetAtFixation,jsons/v1_VE250_randls_29_rotated.json,http://54.235.29.9/FacialAge/BNav_EC2/DepthDuration/v2_depth_duration_MTurk/v2_DepthDuration_HTML.html#230,230,1440,900,1440,900,9-3-2022,13-44-51,11,depth_duration_stimuli/000109_2014-05-14_23-41-52_260595134347_rgbf000035-resize_9/000109_2014-05-14_23-41-52_260595134347_rgbf000035-resize_9-target.png,250,1.3545,3,2121,246,feet,jsons/v1_VE250_randls_29_rotated.json,495207,658682,52,Man
11,290930,DepthScenes,duration_manipulation_targetAtFixation,jsons/v1_VE250_randls_29_rotated.json,http://54.235.29.9/FacialAge/BNav_EC2/DepthDuration/v2_depth_duration_MTurk/v2_DepthDuration_HTML.html#230,230,1440,900,1440,900,9-3-2022,13-44-51,12,depth_duration_stimuli/000470_2014-06-09_19-42-40_260595134347_rgbf000094-resize_1/000470_2014-06-09_19-42-40_260595134347_rgbf000094-resize_1-target.png,250,1.831,4,2024,249,feet,jsons/v1_VE250_randls_29_rotated.json,495207,658682,52,Man
12,290930,DepthScenes,duration_manipulation_targetAtFixation,jsons/v1_VE250_randls_29_rotated.json,http://54.235.29.9/FacialAge/BNav_EC2/DepthDuration/v2_depth_duration_MTurk/v2_DepthDuration_HTML.html#230,230,1440,900,1440,900,9-3-2022,13-44-51,13,depth_duration_stimuli/001214_2014-06-17_16-13-55_260595134347_rgbf000111-resize_0/001214_2014-06-17_16-13-55_260595134347_rgbf000111-resize_0-target.png,250,2.6505,8,4764,252,feet,jsons/v1_VE250_randls_29_rotated.json,495207,658682,52,Man
13,290930,DepthScenes,duration_manipulation_targetAtFixation,jsons/v1_VE250_randls_29_rotated.json,http://54.235.29.9/FacialAge/BNav_EC2/DepthDuration/v2_depth_duration_MTurk/v2_DepthDuration_HTML.html#230,230,1440,900,1440,900,9-3-2022,13-44-51,14,depth_duration_stimuli/000810_2014-06-08_17-20-01_260595134347_rgbf000105-resize_0/000810_2014-06-08_17-20-01_260595134347_rgbf000105-resize_0-target.png,250,1.4865,8,2305,250,feet,jsons/v1_VE250_randls_29_rotated.json,495207,658682,52,Man
14,290930,DepthScenes,duration_manipulation_targetAtFixation,jsons/v1_VE250_randls_29_rotated.json,http://54.235.29.9/FacialAge/BNav_EC2/DepthDuration/v2_depth_duration_MTurk/v2_DepthDuration_HTML.html#230,230,1440,900,1440,900,9-3-2022,13-44-51,15,depth_duration_stimuli/002209_2014-06-28_18-36-10_260595134347_rgbf000051-resize_1/002209_2014-06-28_18-36-10_260595134347_rgbf000051-resize_1-target.png,250,2.057,5,2321,245,feet,jsons/v1_VE250_randls_29_rotated.json,495207,658682,52,Man
15,290930,DepthScenes,duration_manipulation_targetAtFixation,jsons/v1_VE250_randls_29_rotated.json,http://54.235.29.9/FacialAge/BNav_EC2/DepthDuration/v2_depth_duration_MTurk/v2_DepthDuration_HTML.html#230,230,1440,900,1440,900,9-3-2022,13-44-51,16,depth_duration_stimuli/002763_2014-06-22_19-13-10_094959634447_rgbf000075-resize_4/002763_2014-06-22_19-13-10_094959634447_rgbf000075-resize_4-target.png,250,1.68375,4,2350,249,feet,jsons/v1_VE250_randls_29_rotated.json,495207,658682,52,Man
16,290930,DepthScenes,duration_manipulation_targetAtFixation,jsons/v1_VE250_randls_29_rotated.json,http://54.235.29.9/FacialAge/BNav_EC2/DepthDuration/v2_depth_duration_MTurk/v2_DepthDuration_HTML.html#230,230,1440,900,1440,900,9-3-2022,13-44-51,17,depth_duration_stimuli/002660_2014-06-13_15-44-18_094959634447_rgbf001878-resize_2/002660_2014-06-13_15-44-18_094959634447_rgbf001878-resize_2-target.png,250,3.576,10,2338,251,feet,jsons/v1_VE250_randls_29_rotated.json,495207,658682,52,Man
17,290930,DepthScenes,duration_manipulation_targetAtFixation,jsons/v1_VE250_randls_29_rotated.json,http://54.235.29.9/FacialAge/BNav_EC2/DepthDuration/v2_depth_duration_MTurk/v2_DepthDuration_HTML.html#230,230,1440,900,1440,900,9-3-2022,13-44-51,18,depth_duration_stimuli/002153_2014-06-25_21-27-18_260595134347_rgbf000038-resize_5/002153_2014-06-25_21-27-18_260595134347_rgbf000038-resize_5-target.png,250,2.505,12,2557,249,feet,jsons/v1_VE250_randls_29_rotated.json,495207,658682,52,Man
18,290930,DepthScenes,duration_manipulation_targetAtFixation,jsons/v1_VE250_randls_29_rotated.json,http://54.235.29.9/FacialAge/BNav_EC2/DepthDuration/v2_depth_duration_MTurk/v2_DepthDuration_HTML.html#230,230,1440,900,1440,900,9-3-2022,13-44-51,19,depth_duration_stimuli/001498_2014-06-19_17-45-14_260595134347_rgbf000129-resize_4/001498_2014-06-19_17-45-14_260595134347_rgbf000129-resize-original.jpg,250,1.4075,0,2328,249,feet,jsons/v1_VE250_randls_29_rotated.json,495207,658682,52,Man
19,290930,DepthScenes,duration_manipulation_targetAtFixation,jsons/v1_VE250_randls_29_rotated.json,http://54.235.29.9/FacialAge/BNav_EC2/DepthDuration/v2_depth_duration_MTurk/v2_DepthDuration_HTML.html#230,230,1440,900,1440,900,9-3-2022,13-44-51,20,depth_duration_stimuli/001571_2014-06-20_17-21-32_260595134347_rgbf000089-resize_1/001571_2014-06-20_17-21-32_260595134347_rgbf000089-resize_1-target.png,250,1.86,6,2519,251,feet,jsons/v1_VE250_randls_29_rotated.json,495207,658682,52,Man
20,290930,DepthScenes,duration_manipulation_targetAtFixation,jsons/v1_VE250_randls_29_rotated.json,http://54.235.29.9/FacialAge/BNav_EC2/DepthDuration/v2_depth_duration_MTurk/v2_DepthDuration_HTML.html#230,230,1440,900,1440,900,9-3-2022,13-44-51,21,depth_duration_stimuli/002272_2014-06-28_18-53-56_260595134347_rgbf000067-resize_2/002272_2014-06-28_18-53-56_260595134347_rgbf000067-resize_2-target.png,250,1.138,4,1951,249,feet,jsons/v1_VE250_randls_29_rotated.json,495207,658682,52,Man
21,290930,DepthScenes,duration_manipulation_targetAtFixation,jsons/v1_VE250_randls_29_rotated.json,http://54.235.29.9/FacialAge/BNav_EC2/DepthDuration/v2_depth_duration_MTurk/v2_DepthDuration_HTML.html#230,230,1440,900,1440,900,9-3-2022,13-44-51,22,depth_duration_stimuli/001828_2014-06-26_21-40-03_260595134347_rgbf000024-resize_0/001828_2014-06-26_21-40-03_260595134347_rgbf000024-resize_0-target.png,250,4.8260000000000005,18,3295,254,feet,jsons/v1_VE250_randls_29_rotated.json,495207,658682,52,Man
22,290930,DepthScenes,duration_manipulation_targetAtFixation,jsons/v1_VE250_randls_29_rotated.json,http://54.235.29.9/FacialAge/BNav_EC2/DepthDuration/v2_depth_duration_MTurk/v2_DepthDuration_HTML.html#230,230,1440,900,1440,900,9-3-2022,13-44-51,23,depth_duration_stimuli/000009_2014-05-26_14-32-05_260595134347_rgbf000034-resize_3/000009_2014-05-26_14-32-05_260595134347_rgbf000034-resize_3-target.png,250,3.8715,15,2960,248,feet,jsons/v1_VE250_randls_29_rotated.json,495207,658682,52,Man
23,290930,DepthScenes,duration_manipulation_targetAtFixation,jsons/v1_VE250_randls_29_rotated.json,http://54.235.29.9/FacialAge/BNav_EC2/DepthDuration/v2_depth_duration_MTurk/v2_DepthDuration_HTML.html#230,230,1440,900,1440,900,9-3-2022,13-44-51,24,depth_duration_stimuli/002425_2014-06-28_20-27-29_260595134347_rgbf000031-resize_8/002425_2014-06-28_20-27-29_260595134347_rgbf000031-resize_8-target.png,250,3.8960000000000004,20,3088,251,feet,jsons/v1_VE250_randls_29_rotated.json,495207,658682,52,Man
24,290930,DepthScenes,duration_manipulation_targetAtFixation,jsons/v1_VE250_randls_29_rotated.json,http://54.235.29.9/FacialAge/BNav_EC2/DepthDuration/v2_depth_duration_MTurk/v2_DepthDuration_HTML.html#230,230,1440,900,1440,900,9-3-2022,13-44-51,25,depth_duration_stimuli/000642_2014-06-08_16-59-25_260595134347_rgbf000098-resize_2/000642_2014-06-08_16-59-25_260595134347_rgbf000098-resize_2-target.png,250,2.8815,15,2698,248,feet,jsons/v1_VE250_randls_29_rotated.json,495207,658682,52,Man
25,290930,DepthScenes,duration_manipulation_targetAtFixation,jsons/v1_VE250_randls_29_rotated.json,http://54.235.29.9/FacialAge/BNav_EC2/DepthDuration/v2_depth_duration_MTurk/v2_DepthDuration_HTML.html#230,230,1440,900,1440,900,9-3-2022,13-44-51,26,depth_duration_stimuli/000927_2014-06-09_16-32-30_260595134347_rgbf000123-resize_3/000927_2014-06-09_16-32-30_260595134347_rgbf000123-resize_3-target.png,250,2.6785,10,2802,255,feet,jsons/v1_VE250_randls_29_rotated.json,495207,658682,52,Man
26,290930,DepthScenes,duration_manipulation_targetAtFixation,jsons/v1_VE250_randls_29_rotated.json,http://54.235.29.9/FacialAge/BNav_EC2/DepthDuration/v2_depth_duration_MTurk/v2_DepthDuration_HTML.html#230,230,1440,900,1440,900,9-3-2022,13-44-51,27,depth_duration_stimuli/001110_2014-06-15_17-25-28_260595134347_rgbf000150-resize_1/001110_2014-06-15_17-25-28_260595134347_rgbf000150-resize_1-target.png,250,1.7115,7,2796,247,feet,jsons/v1_VE250_randls_29_rotated.json,495207,658682,52,Man
27,290930,DepthScenes,duration_manipulation_targetAtFixation,jsons/v1_VE250_randls_29_rotated.json,http://54.235.29.9/FacialAge/BNav_EC2/DepthDuration/v2_depth_duration_MTurk/v2_DepthDuration_HTML.html#230,230,1440,900,1440,900,9-3-2022,13-44-51,28,depth_duration_stimuli/002953_2014-06-08_17-32-18_094959634447_rgbf000059-resize_5/002953_2014-06-08_17-32-18_094959634447_rgbf000059-resize_5-target.png,250,1.551,4,2007,250,feet,jsons/v1_VE250_randls_29_rotated.json,495207,658682,52,Man
28,290930,DepthScenes,duration_manipulation_targetAtFixation,jsons/v1_VE250_randls_29_rotated.json,http://54.235.29.9/FacialAge/BNav_EC2/DepthDuration/v2_depth_duration_MTurk/v2_DepthDuration_HTML.html#230,230,1440,900,1440,900,9-3-2022,13-44-51,29,depth_duration_stimuli/000878_2014-06-08_22-52-45_260595134347_rgbf000045-resize_2/000878_2014-06-08_22-52-45_260595134347_rgbf000045-resize_2-target.png,250,2.092,6,2118,253,feet,jsons/v1_VE250_randls_29_rotated.json,495207,658682,52,Man
29,290930,DepthScenes,duration_manipulation_targetAtFixation,jsons/v1_VE250_randls_29_rotated.json,http://54.235.29.9/FacialAge/BNav_EC2/DepthDuration/v2_depth_duration_MTurk/v2_DepthDuration_HTML.html#230,230,1440,900,1440,900,9-3-2022,13-44-51,30,depth_duration_stimuli/002072_2014-06-24_21-48-06_260595134347_rgbf000115-resize_0/002072_2014-06-24_21-48-06_260595134347_rgbf000115-resize-original.jpg,250,4.702,0,4321,247,feet,jsons/v1_VE250_randls_29_rotated.json,495207,658682,52,Man
30,290930,DepthScenes,duration_manipulation_targetAtFixation,jsons/v1_VE250_randls_29_rotated.json,http://54.235.29.9/FacialAge/BNav_EC2/DepthDuration/v2_depth_duration_MTurk/v2_DepthDuration_HTML.html#230,230,1440,900,1440,900,9-3-2022,13-44-51,31,depth_duration_stimuli/000635_2014-06-08_16-38-42_260595134347_rgbf000106-resize_1/000635_2014-06-08_16-38-42_260595134347_rgbf000106-resize_1-target.png,250,2.074,8,2194,246,feet,jsons/v1_VE250_randls_29_rotated.json,495207,658682,52,Man
31,290930,DepthScenes,duration_manipulation_targetAtFixation,jsons/v1_VE250_randls_29_rotated.json,http://54.235.29.9/FacialAge/BNav_EC2/DepthDuration/v2_depth_duration_MTurk/v2_DepthDuration_HTML.html#230,230,1440,900,1440,900,9-3-2022,13-44-51,32,depth_duration_stimuli/002279_2014-06-28_18-55-32_260595134347_rgbf000040-resize_5/002279_2014-06-28_18-55-32_260595134347_rgbf000040-resize_5-target.png,250,1.5043333333333,4,1768,249,feet,jsons/v1_VE250_randls_29_rotated.json,495207,658682,52,Man
32,290930,DepthScenes,duration_manipulation_targetAtFixation,jsons/v1_VE250_randls_29_rotated.json,http://54.235.29.9/FacialAge/BNav_EC2/DepthDuration/v2_depth_duration_MTurk/v2_DepthDuration_HTML.html#230,230,1440,900,1440,900,9-3-2022,13-44-51,33,depth_duration_stimuli/001516_2014-06-20_16-25-09_260595134347_rgbf000076-resize_2/001516_2014-06-20_16-25-09_260595134347_rgbf000076-resize_2-target.png,250,1.7445,6,2616,248,feet,jsons/v1_VE250_randls_29_rotated.json,495207,658682,52,Man
33,290930,DepthScenes,duration_manipulation_targetAtFixation,jsons/v1_VE250_randls_29_rotated.json,http://54.235.29.9/FacialAge/BNav_EC2/DepthDuration/v2_depth_duration_MTurk/v2_DepthDuration_HTML.html#230,230,1440,900,1440,900,9-3-2022,13-44-51,34,depth_duration_stimuli/002118_2014-06-25_20-32-08_260595134347_rgbf000078-resize_1/002118_2014-06-25_20-32-08_260595134347_rgbf000078-resize_1-target.png,250,2.6460000000000004,10,4186,250,feet,jsons/v1_VE250_randls_29_rotated.json,495207,658682,52,Man
34,290930,DepthScenes,duration_manipulation_targetAtFixation,jsons/v1_VE250_randls_29_rotated.json,http://54.235.29.9/FacialAge/BNav_EC2/DepthDuration/v2_depth_duration_MTurk/v2_DepthDuration_HTML.html#230,230,1440,900,1440,900,9-3-2022,13-44-51,35,depth_duration_stimuli/001032_2014-06-08_13-23-17_260595134347_rgbf000021-resize_3/001032_2014-06-08_13-23-17_260595134347_rgbf000021-resize_3-target.png,250,3.2725,8,2266,253,feet,jsons/v1_VE250_randls_29_rotated.json,495207,658682,52,Man
35,290930,DepthScenes,duration_manipulation_targetAtFixation,jsons/v1_VE250_randls_29_rotated.json,http://54.235.29.9/FacialAge/BNav_EC2/DepthDuration/v2_depth_duration_MTurk/v2_DepthDuration_HTML.html#230,230,1440,900,1440,900,9-3-2022,13-44-51,36,depth_duration_stimuli/001059_2014-06-08_21-53-27_260595134347_rgbf000061-resize_4/001059_2014-06-08_21-53-27_260595134347_rgbf000061-resize_4-target.png,250,2.4185,8,4908,245,feet,jsons/v1_VE250_randls_29_rotated.json,495207,658682,52,Man
36,290930,DepthScenes,duration_manipulation_targetAtFixation,jsons/v1_VE250_randls_29_rotated.json,http://54.235.29.9/FacialAge/BNav_EC2/DepthDuration/v2_depth_duration_MTurk/v2_DepthDuration_HTML.html#230,230,1440,900,1440,900,9-3-2022,13-44-51,37,depth_duration_stimuli/001650_2014-06-20_12-09-00_260595134347_rgbf000087-resize_3/001650_2014-06-20_12-09-00_260595134347_rgbf000087-resize_3-target.png,250,1.9505,2,2402,250,feet,jsons/v1_VE250_randls_29_rotated.json,495207,658682,52,Man
37,290930,DepthScenes,duration_manipulation_targetAtFixation,jsons/v1_VE250_randls_29_rotated.json,http://54.235.29.9/FacialAge/BNav_EC2/DepthDuration/v2_depth_duration_MTurk/v2_DepthDuration_HTML.html#230,230,1440,900,1440,900,9-3-2022,13-44-51,38,depth_duration_stimuli/000682_2014-06-08_23-14-58_260595134347_rgbf000041-resize_5/000682_2014-06-08_23-14-58_260595134347_rgbf000041-resize_5-target.png,250,2.7239999999999998,5,2230,248,feet,jsons/v1_VE250_randls_29_rotated.json,495207,658682,52,Man
38,290930,DepthScenes,duration_manipulation_targetAtFixation,jsons/v1_VE250_randls_29_rotated.json,http://54.235.29.9/FacialAge/BNav_EC2/DepthDuration/v2_depth_duration_MTurk/v2_DepthDuration_HTML.html#230,230,1440,900,1440,900,9-3-2022,13-44-51,39,depth_duration_stimuli/002758_2014-06-22_19-11-20_094959634447_rgbf000128-resize_1/002758_2014-06-22_19-11-20_094959634447_rgbf000128-resize_1-target.png,250,2.555,8,2391,243,feet,jsons/v1_VE250_randls_29_rotated.json,495207,658682,52,Man
39,290930,DepthScenes,duration_manipulation_targetAtFixation,jsons/v1_VE250_randls_29_rotated.json,http://54.235.29.9/FacialAge/BNav_EC2/DepthDuration/v2_depth_duration_MTurk/v2_DepthDuration_HTML.html#230,230,1440,900,1440,900,9-3-2022,13-44-51,40,depth_duration_stimuli/002630_2014-06-24_14-47-50_094959634447_rgbf000055-resize_1/002630_2014-06-24_14-47-50_094959634447_rgbf000055-resize_1-target.png,250,3.0095,25,2513,254,feet,jsons/v1_VE250_randls_29_rotated.json,495207,658682,52,Man
40,290930,DepthScenes,duration_manipulation_targetAtFixation,jsons/v1_VE250_randls_29_rotated.json,http://54.235.29.9/FacialAge/BNav_EC2/DepthDuration/v2_depth_duration_MTurk/v2_DepthDuration_HTML.html#230,230,1440,900,1440,900,9-3-2022,13-44-51,41,depth_duration_stimuli/001450_2014-06-19_17-02-03_260595134347_rgbf000203-resize_4/001450_2014-06-19_17-02-03_260595134347_rgbf000203-resize_4-target.png,250,4.0106666666667,15,2762,250,feet,jsons/v1_VE250_randls_29_rotated.json,495207,658682,52,Man
41,290930,DepthScenes,duration_manipulation_targetAtFixation,jsons/v1_VE250_randls_29_rotated.json,http://54.235.29.9/FacialAge/BNav_EC2/DepthDuration/v2_depth_duration_MTurk/v2_DepthDuration_HTML.html#230,230,1440,900,1440,900,9-3-2022,13-44-51,42,depth_duration_stimuli/001449_2014-06-19_17-01-27_260595134347_rgbf000116-resize_2/001449_2014-06-19_17-01-27_260595134347_rgbf000116-resize_2-target.png,250,3.452,8,2349,249,feet,jsons/v1_VE250_randls_29_rotated.json,495207,658682,52,Man
42,290930,DepthScenes,duration_manipulation_targetAtFixation,jsons/v1_VE250_randls_29_rotated.json,http://54.235.29.9/FacialAge/BNav_EC2/DepthDuration/v2_depth_duration_MTurk/v2_DepthDuration_HTML.html#230,230,1440,900,1440,900,9-3-2022,13-44-51,43,depth_duration_stimuli/003338_2014-05-20_11-01-23_094959634447_rgbf000051-resize_6/003338_2014-05-20_11-01-23_094959634447_rgbf000051-resize_6-target.png,250,1.693,5,1812,244,feet,jsons/v1_VE250_randls_29_rotated.json,495207,658682,52,Man
43,290930,DepthScenes,duration_manipulation_targetAtFixation,jsons/v1_VE250_randls_29_rotated.json,http://54.235.29.9/FacialAge/BNav_EC2/DepthDuration/v2_depth_duration_MTurk/v2_DepthDuration_HTML.html#230,230,1440,900,1440,900,9-3-2022,13-44-51,44,depth_duration_stimuli/002509_2014-06-24_13-19-22_094959634447_rgbf000077-resize_0/002509_2014-06-24_13-19-22_094959634447_rgbf000077-resize_0-target.png,250,1.3065,4,2100,240,feet,jsons/v1_VE250_randls_29_rotated.json,495207,658682,52,Man
44,290930,DepthScenes,duration_manipulation_targetAtFixation,jsons/v1_VE250_randls_29_rotated.json,http://54.235.29.9/FacialAge/BNav_EC2/DepthDuration/v2_depth_duration_MTurk/v2_DepthDuration_HTML.html#230,230,1440,900,1440,900,9-3-2022,13-44-51,45,depth_duration_stimuli/002136_2014-06-25_21-18-03_260595134347_rgbf000109-resize_3/002136_2014-06-25_21-18-03_260595134347_rgbf000109-resize_3-target.png,250,1.9569999999999999,5,4759,252,feet,jsons/v1_VE250_randls_29_rotated.json,495207,658682,52,Man
45,290930,DepthScenes,duration_manipulation_targetAtFixation,jsons/v1_VE250_randls_29_rotated.json,http://54.235.29.9/FacialAge/BNav_EC2/DepthDuration/v2_depth_duration_MTurk/v2_DepthDuration_HTML.html#230,230,1440,900,1440,900,9-3-2022,13-44-51,46,depth_duration_stimuli/002964_2014-06-08_17-46-11_094959634447_rgbf000091-resize_4/002964_2014-06-08_17-46-11_094959634447_rgbf000091-resize_4-target.png,250,1.6909999999999998,4,2987,252,feet,jsons/v1_VE250_randls_29_rotated.json,495207,658682,52,Man
46,290930,DepthScenes,duration_manipulation_targetAtFixation,jsons/v1_VE250_randls_29_rotated.json,http://54.235.29.9/FacialAge/BNav_EC2/DepthDuration/v2_depth_duration_MTurk/v2_DepthDuration_HTML.html#230,230,1440,900,1440,900,9-3-2022,13-44-51,47,depth_duration_stimuli/002657_2014-06-13_15-29-54_094959634447_rgbf000150-resize_1/002657_2014-06-13_15-29-54_094959634447_rgbf000150-resize_1-target.png,250,4.919,0,3467,281,feet,jsons/v1_VE250_randls_29_rotated.json,495207,658682,52,Man
47,290930,DepthScenes,duration_manipulation_targetAtFixation,jsons/v1_VE250_randls_29_rotated.json,http://54.235.29.9/FacialAge/BNav_EC2/DepthDuration/v2_depth_duration_MTurk/v2_DepthDuration_HTML.html#230,230,1440,900,1440,900,9-3-2022,13-44-51,48,depth_duration_stimuli/002375_2014-06-28_20-13-44_260595134347_rgbf000032-resize_1/002375_2014-06-28_20-13-44_260595134347_rgbf000032-resize_1-target.png,250,4.0175,9,2979,246,feet,jsons/v1_VE250_randls_29_rotated.json,495207,658682,52,Man
48,290930,DepthScenes,duration_manipulation_targetAtFixation,jsons/v1_VE250_randls_29_rotated.json,http://54.235.29.9/FacialAge/BNav_EC2/DepthDuration/v2_depth_duration_MTurk/v2_DepthDuration_HTML.html#230,230,1440,900,1440,900,9-3-2022,13-44-51,49,depth_duration_stimuli/001170_2014-06-17_15-43-44_260595134347_rgbf000096-resize_6/001170_2014-06-17_15-43-44_260595134347_rgbf000096-resize-original.jpg,250,1.1909999999999998,0,2390,251,feet,jsons/v1_VE250_randls_29_rotated.json,495207,658682,52,Man
49,290930,DepthScenes,duration_manipulation_targetAtFixation,jsons/v1_VE250_randls_29_rotated.json,http://54.235.29.9/FacialAge/BNav_EC2/DepthDuration/v2_depth_duration_MTurk/v2_DepthDuration_HTML.html#230,230,1440,900,1440,900,9-3-2022,13-44-51,50,depth_duration_stimuli/001617_2014-06-20_11-35-32_260595134347_rgbf000066-resize_1/001617_2014-06-20_11-35-32_260595134347_rgbf000066-resize_1-target.png,250,3.7910000000000004,15,2704,253,feet,jsons/v1_VE250_randls_29_rotated.json,495207,658682,52,Man
50,290930,DepthScenes,duration_manipulation_targetAtFixation,jsons/v1_VE250_randls_29_rotated.json,http://54.235.29.9/FacialAge/BNav_EC2/DepthDuration/v2_depth_duration_MTurk/v2_DepthDuration_HTML.html#230,230,1440,900,1440,900,9-3-2022,13-44-51,51,depth_duration_stimuli/001806_2014-06-26_20-50-20_260595134347_rgbf000091-resize_1/001806_2014-06-26_20-50-20_260595134347_rgbf000091-resize_1-target.png,250,2.7305,6,2440,247,feet,jsons/v1_VE250_randls_29_rotated.json,495207,658682,52,Man
51,290930,DepthScenes,duration_manipulation_targetAtFixation,jsons/v1_VE250_randls_29_rotated.json,http://54.235.29.9/FacialAge/BNav_EC2/DepthDuration/v2_depth_duration_MTurk/v2_DepthDuration_HTML.html#230,230,1440,900,1440,900,9-3-2022,13-44-51,52,depth_duration_stimuli/000854_2014-06-09_19-43-13_260595134347_rgbf000066-resize_0/000854_2014-06-09_19-43-13_260595134347_rgbf000066-resize_0-target.png,250,3.068,5,1855,244,feet,jsons/v1_VE250_randls_29_rotated.json,495207,658682,52,Man
52,290930,DepthScenes,duration_manipulation_targetAtFixation,jsons/v1_VE250_randls_29_rotated.json,http://54.235.29.9/FacialAge/BNav_EC2/DepthDuration/v2_depth_duration_MTurk/v2_DepthDuration_HTML.html#230,230,1440,900,1440,900,9-3-2022,13-44-51,53,depth_duration_stimuli/000758_2014-06-08_22-05-08_260595134347_rgbf000085-resize_0/000758_2014-06-08_22-05-08_260595134347_rgbf000085-resize_0-target.png,250,3.3810000000000002,12,2703,249,feet,jsons/v1_VE250_randls_29_rotated.json,495207,658682,52,Man
53,290930,DepthScenes,duration_manipulation_targetAtFixation,jsons/v1_VE250_randls_29_rotated.json,http://54.235.29.9/FacialAge/BNav_EC2/DepthDuration/v2_depth_duration_MTurk/v2_DepthDuration_HTML.html#230,230,1440,900,1440,900,9-3-2022,13-44-51,54,depth_duration_stimuli/003587_2014-05-23_16-48-02_094959634447_rgbf002384-resize_2/003587_2014-05-23_16-48-02_094959634447_rgbf002384-resize_2-target.png,250,1.357,3,2057,252,feet,jsons/v1_VE250_randls_29_rotated.json,495207,658682,52,Man
54,290930,DepthScenes,duration_manipulation_targetAtFixation,jsons/v1_VE250_randls_29_rotated.json,http://54.235.29.9/FacialAge/BNav_EC2/DepthDuration/v2_depth_duration_MTurk/v2_DepthDuration_HTML.html#230,230,1440,900,1440,900,9-3-2022,13-44-51,55,depth_duration_stimuli/001167_2014-06-17_15-38-07_260595134347_rgbf000108-resize_0/001167_2014-06-17_15-38-07_260595134347_rgbf000108-resize_0-target.png,250,1.8505,4,2173,242,feet,jsons/v1_VE250_randls_29_rotated.json,495207,658682,52,Man
55,290930,DepthScenes,duration_manipulation_targetAtFixation,jsons/v1_VE250_randls_29_rotated.json,http://54.235.29.9/FacialAge/BNav_EC2/DepthDuration/v2_depth_duration_MTurk/v2_DepthDuration_HTML.html#230,230,1440,900,1440,900,9-3-2022,13-44-51,56,depth_duration_stimuli/000502_2014-06-08_23-02-32_260595134347_rgbf000063-resize_4/000502_2014-06-08_23-02-32_260595134347_rgbf000063-resize_4-target.png,250,2.431,8,2780,253,feet,jsons/v1_VE250_randls_29_rotated.json,495207,658682,52,Man
56,290930,DepthScenes,duration_manipulation_targetAtFixation,jsons/v1_VE250_randls_29_rotated.json,http://54.235.29.9/FacialAge/BNav_EC2/DepthDuration/v2_depth_duration_MTurk/v2_DepthDuration_HTML.html#230,230,1440,900,1440,900,9-3-2022,13-44-51,57,depth_duration_stimuli/001199_2014-06-17_16-03-48_260595134347_rgbf000077-resize_0/001199_2014-06-17_16-03-48_260595134347_rgbf000077-resize_0-target.png,250,3.4375,10,2637,248,feet,jsons/v1_VE250_randls_29_rotated.json,495207,658682,52,Man
57,290930,DepthScenes,duration_manipulation_targetAtFixation,jsons/v1_VE250_randls_29_rotated.json,http://54.235.29.9/FacialAge/BNav_EC2/DepthDuration/v2_depth_duration_MTurk/v2_DepthDuration_HTML.html#230,230,1440,900,1440,900,9-3-2022,13-44-51,58,depth_duration_stimuli/000943_2014-06-09_19-31-07_260595134347_rgbf000128-resize_1/000943_2014-06-09_19-31-07_260595134347_rgbf000128-resize_1-target.png,250,1.9765,7,2135,249,feet,jsons/v1_VE250_randls_29_rotated.json,495207,658682,52,Man
58,290930,DepthScenes,duration_manipulation_targetAtFixation,jsons/v1_VE250_randls_29_rotated.json,http://54.235.29.9/FacialAge/BNav_EC2/DepthDuration/v2_depth_duration_MTurk/v2_DepthDuration_HTML.html#230,230,1440,900,1440,900,9-3-2022,13-44-51,59,depth_duration_stimuli/003070_2014-06-15_14-58-27_094959634447_rgbf000150-resize_3/003070_2014-06-15_14-58-27_094959634447_rgbf000150-resize_3-target.png,250,2.9415,10,2249,246,feet,jsons/v1_VE250_randls_29_rotated.json,495207,658682,52,Man
59,290930,DepthScenes,duration_manipulation_targetAtFixation,jsons/v1_VE250_randls_29_rotated.json,http://54.235.29.9/FacialAge/BNav_EC2/DepthDuration/v2_depth_duration_MTurk/v2_DepthDuration_HTML.html#230,230,1440,900,1440,900,9-3-2022,13-44-51,60,depth_duration_stimuli/002949_2014-06-26_15-57-42_094959634447_rgbf000079-resize_1/002949_2014-06-26_15-57-42_094959634447_rgbf000079-resize_1-target.png,250,1.8915,6,2074,249,feet,jsons/v1_VE250_randls_29_rotated.json,495207,658682,52,Man
60,290930,DepthScenes,duration_manipulation_targetAtFixation,jsons/v1_VE250_randls_29_rotated.json,http://54.235.29.9/FacialAge/BNav_EC2/DepthDuration/v2_depth_duration_MTurk/v2_DepthDuration_HTML.html#230,230,1440,900,1440,900,9-3-2022,13-44-51,61,depth_duration_stimuli/000522_2014-06-08_13-35-06_260595134347_rgbf000244-resize_1/000522_2014-06-08_13-35-06_260595134347_rgbf000244-resize_1-target.png,250,2.3715,4,1933,247,feet,jsons/v1_VE250_randls_29_rotated.json,495207,658682,52,Man
61,290930,DepthScenes,duration_manipulation_targetAtFixation,jsons/v1_VE250_randls_29_rotated.json,http://54.235.29.9/FacialAge/BNav_EC2/DepthDuration/v2_depth_duration_MTurk/v2_DepthDuration_HTML.html#230,230,1440,900,1440,900,9-3-2022,13-44-51,62,depth_duration_stimuli/000457_2014-06-08_16-52-43_260595134347_rgbf000199-resize_1/000457_2014-06-08_16-52-43_260595134347_rgbf000199-resize_1-target.png,250,3.6489999999999996,12,2241,253,feet,jsons/v1_VE250_randls_29_rotated.json,495207,658682,52,Man
62,290930,DepthScenes,duration_manipulation_targetAtFixation,jsons/v1_VE250_randls_29_rotated.json,http://54.235.29.9/FacialAge/BNav_EC2/DepthDuration/v2_depth_duration_MTurk/v2_DepthDuration_HTML.html#230,230,1440,900,1440,900,9-3-2022,13-44-51,63,depth_duration_stimuli/000929_2014-06-09_16-33-19_260595134347_rgbf000139-resize_0/000929_2014-06-09_16-33-19_260595134347_rgbf000139-resize_0-target.png,250,2.8680000000000003,12,3552,249,feet,jsons/v1_VE250_randls_29_rotated.json,495207,658682,52,Man
63,290930,DepthScenes,duration_manipulation_targetAtFixation,jsons/v1_VE250_randls_29_rotated.json,http://54.235.29.9/FacialAge/BNav_EC2/DepthDuration/v2_depth_duration_MTurk/v2_DepthDuration_HTML.html#230,230,1440,900,1440,900,9-3-2022,13-44-51,64,depth_duration_stimuli/001392_2014-06-19_16-07-59_260595134347_rgbf000046-resize_1/001392_2014-06-19_16-07-59_260595134347_rgbf000046-resize_1-target.png,250,4.135,20,2365,254,feet,jsons/v1_VE250_randls_29_rotated.json,495207,658682,52,Man
64,290930,DepthScenes,duration_manipulation_targetAtFixation,jsons/v1_VE250_randls_29_rotated.json,http://54.235.29.9/FacialAge/BNav_EC2/DepthDuration/v2_depth_duration_MTurk/v2_DepthDuration_HTML.html#230,230,1440,900,1440,900,9-3-2022,13-44-51,65,depth_duration_stimuli/001570_2014-06-20_17-21-09_260595134347_rgbf000135-resize_4/001570_2014-06-20_17-21-09_260595134347_rgbf000135-resize_4-target.png,250,4.467,20,2343,250,feet,jsons/v1_VE250_randls_29_rotated.json,495207,658682,52,Man
65,290930,DepthScenes,duration_manipulation_targetAtFixation,jsons/v1_VE250_randls_29_rotated.json,http://54.235.29.9/FacialAge/BNav_EC2/DepthDuration/v2_depth_duration_MTurk/v2_DepthDuration_HTML.html#230,230,1440,900,1440,900,9-3-2022,13-44-51,66,depth_duration_stimuli/001540_2014-06-20_17-01-05_260595134347_rgbf000086-resize_2/001540_2014-06-20_17-01-05_260595134347_rgbf000086-resize-original.jpg,250,1.459,0,2345,251,feet,jsons/v1_VE250_randls_29_rotated.json,495207,658682,52,Man
66,290930,DepthScenes,duration_manipulation_targetAtFixation,jsons/v1_VE250_randls_29_rotated.json,http://54.235.29.9/FacialAge/BNav_EC2/DepthDuration/v2_depth_duration_MTurk/v2_DepthDuration_HTML.html#230,230,1440,900,1440,900,9-3-2022,13-44-51,67,depth_duration_stimuli/002199_2014-06-28_18-33-56_260595134347_rgbf000074-resize_0/002199_2014-06-28_18-33-56_260595134347_rgbf000074-resize_0-target.png,250,1.996,4,2586,251,feet,jsons/v1_VE250_randls_29_rotated.json,495207,658682,52,Man
67,290930,DepthScenes,duration_manipulation_targetAtFixation,jsons/v1_VE250_randls_29_rotated.json,http://54.235.29.9/FacialAge/BNav_EC2/DepthDuration/v2_depth_duration_MTurk/v2_DepthDuration_HTML.html#230,230,1440,900,1440,900,9-3-2022,13-44-51,68,depth_duration_stimuli/001056_2014-06-08_18-46-44_260595134347_rgbf000068-resize_0/001056_2014-06-08_18-46-44_260595134347_rgbf000068-resize_0-target.png,250,2.6625,15,2239,232,feet,jsons/v1_VE250_randls_29_rotated.json,495207,658682,52,Man
68,290930,DepthScenes,duration_manipulation_targetAtFixation,jsons/v1_VE250_randls_29_rotated.json,http://54.235.29.9/FacialAge/BNav_EC2/DepthDuration/v2_depth_duration_MTurk/v2_DepthDuration_HTML.html#230,230,1440,900,1440,900,9-3-2022,13-44-51,69,depth_duration_stimuli/003495_2014-05-21_16-01-51_094959634447_rgbf000100-resize_3/003495_2014-05-21_16-01-51_094959634447_rgbf000100-resize_3-target.png,250,1.6255,5,1693,249,feet,jsons/v1_VE250_randls_29_rotated.json,495207,658682,52,Man
69,290930,DepthScenes,duration_manipulation_targetAtFixation,jsons/v1_VE250_randls_29_rotated.json,http://54.235.29.9/FacialAge/BNav_EC2/DepthDuration/v2_depth_duration_MTurk/v2_DepthDuration_HTML.html#230,230,1440,900,1440,900,9-3-2022,13-44-51,70,depth_duration_stimuli/001244_2014-06-17_16-47-45_260595134347_rgbf000030-resize_4/001244_2014-06-17_16-47-45_260595134347_rgbf000030-resize_4-target.png,250,2.0425,7,2562,249,feet,jsons/v1_VE250_randls_29_rotated.json,495207,658682,52,Man
70,290930,DepthScenes,duration_manipulation_targetAtFixation,jsons/v1_VE250_randls_29_rotated.json,http://54.235.29.9/FacialAge/BNav_EC2/DepthDuration/v2_depth_duration_MTurk/v2_DepthDuration_HTML.html#230,230,1440,900,1440,900,9-3-2022,13-44-51,71,depth_duration_stimuli/001100_2014-06-15_17-46-26_260595134347_rgbf000225-resize_2/001100_2014-06-15_17-46-26_260595134347_rgbf000225-resize_2-target.png,250,2.24,5,1866,245,feet,jsons/v1_VE250_randls_29_rotated.json,495207,658682,52,Man
71,290930,DepthScenes,duration_manipulation_targetAtFixation,jsons/v1_VE250_randls_29_rotated.json,http://54.235.29.9/FacialAge/BNav_EC2/DepthDuration/v2_depth_duration_MTurk/v2_DepthDuration_HTML.html#230,230,1440,900,1440,900,9-3-2022,13-44-51,72,depth_duration_stimuli/002784_2014-06-22_19-26-30_094959634447_rgbf000083-resize_3/002784_2014-06-22_19-26-30_094959634447_rgbf000083-resize_3-target.png,250,1.8046666666667,6,2609,248,feet,jsons/v1_VE250_randls_29_rotated.json,495207,658682,52,Man
72,290930,DepthScenes,duration_manipulation_targetAtFixation,jsons/v1_VE250_randls_29_rotated.json,http://54.235.29.9/FacialAge/BNav_EC2/DepthDuration/v2_depth_duration_MTurk/v2_DepthDuration_HTML.html#230,230,1440,900,1440,900,9-3-2022,13-44-51,73,depth_duration_stimuli/003048_2014-06-15_13-49-43_094959634447_rgbf000150-resize_1/003048_2014-06-15_13-49-43_094959634447_rgbf000150-resize_1-target.png,250,4.0035,12,2323,250,feet,jsons/v1_VE250_randls_29_rotated.json,495207,658682,52,Man
73,290930,DepthScenes,duration_manipulation_targetAtFixation,jsons/v1_VE250_randls_29_rotated.json,http://54.235.29.9/FacialAge/BNav_EC2/DepthDuration/v2_depth_duration_MTurk/v2_DepthDuration_HTML.html#230,230,1440,900,1440,900,9-3-2022,13-44-51,74,depth_duration_stimuli/002043_2014-06-24_20-29-38_260595134347_rgbf000039-resize_4/002043_2014-06-24_20-29-38_260595134347_rgbf000039-resize_4-target.png,250,2.8435,15,2115,247,feet,jsons/v1_VE250_randls_29_rotated.json,495207,658682,52,Man
74,290930,DepthScenes,duration_manipulation_targetAtFixation,jsons/v1_VE250_randls_29_rotated.json,http://54.235.29.9/FacialAge/BNav_EC2/DepthDuration/v2_depth_duration_MTurk/v2_DepthDuration_HTML.html#230,230,1440,900,1440,900,9-3-2022,13-44-51,75,depth_duration_stimuli/003079_2014-06-15_15-18-20_094959634447_rgbf000152-resize_8/003079_2014-06-15_15-18-20_094959634447_rgbf000152-resize_8-target.png,250,2.8775,15,2039,256,feet,jsons/v1_VE250_randls_29_rotated.json,495207,658682,52,Man
75,290930,DepthScenes,duration_manipulation_targetAtFixation,jsons/v1_VE250_randls_29_rotated.json,http://54.235.29.9/FacialAge/BNav_EC2/DepthDuration/v2_depth_duration_MTurk/v2_DepthDuration_HTML.html#230,230,1440,900,1440,900,9-3-2022,13-44-51,76,depth_duration_stimuli/000506_2014-06-08_23-21-00_260595134347_rgbf000070-resize_7/000506_2014-06-08_23-21-00_260595134347_rgbf000070-resize_7-target.png,250,4.0585,13,3397,257,feet,jsons/v1_VE250_randls_29_rotated.json,495207,658682,52,Man
76,290930,DepthScenes,duration_manipulation_targetAtFixation,jsons/v1_VE250_randls_29_rotated.json,http://54.235.29.9/FacialAge/BNav_EC2/DepthDuration/v2_depth_duration_MTurk/v2_DepthDuration_HTML.html#230,230,1440,900,1440,900,9-3-2022,13-44-51,77,depth_duration_stimuli/000483_2014-06-09_20-41-45_260595134347_rgbf000116-resize_4/000483_2014-06-09_20-41-45_260595134347_rgbf000116-resize_4-target.png,250,1.337,6,3039,249,feet,jsons/v1_VE250_randls_29_rotated.json,495207,658682,52,Man
77,290930,DepthScenes,duration_manipulation_targetAtFixation,jsons/v1_VE250_randls_29_rotated.json,http://54.235.29.9/FacialAge/BNav_EC2/DepthDuration/v2_depth_duration_MTurk/v2_DepthDuration_HTML.html#230,230,1440,900,1440,900,9-3-2022,13-44-51,78,depth_duration_stimuli/000469_2014-06-09_19-42-10_260595134347_rgbf000081-resize_1/000469_2014-06-09_19-42-10_260595134347_rgbf000081-resize_1-target.png,250,1.652,6,2046,250,feet,jsons/v1_VE250_randls_29_rotated.json,495207,658682,52,Man
78,290930,DepthScenes,duration_manipulation_targetAtFixation,jsons/v1_VE250_randls_29_rotated.json,http://54.235.29.9/FacialAge/BNav_EC2/DepthDuration/v2_depth_duration_MTurk/v2_DepthDuration_HTML.html#230,230,1440,900,1440,900,9-3-2022,13-44-51,79,depth_duration_stimuli/002414_2014-06-28_20-24-58_260595134347_rgbf000067-resize_4/002414_2014-06-28_20-24-58_260595134347_rgbf000067-resize_4-target.png,250,4.363,10,2951,249,feet,jsons/v1_VE250_randls_29_rotated.json,495207,658682,52,Man
79,290930,DepthScenes,duration_manipulation_targetAtFixation,jsons/v1_VE250_randls_29_rotated.json,http://54.235.29.9/FacialAge/BNav_EC2/DepthDuration/v2_depth_duration_MTurk/v2_DepthDuration_HTML.html#230,230,1440,900,1440,900,9-3-2022,13-44-51,80,depth_duration_stimuli/000773_2014-06-08_22-24-54_260595134347_rgbf000093-resize_1/000773_2014-06-08_22-24-54_260595134347_rgbf000093-resize_1-target.png,250,4.973,15,2559,253,feet,jsons/v1_VE250_randls_29_rotated.json,495207,658682,52,Man
80,290930,DepthScenes,duration_manipulation_targetAtFixation,jsons/v1_VE250_randls_29_rotated.json,http://54.235.29.9/FacialAge/BNav_EC2/DepthDuration/v2_depth_duration_MTurk/v2_DepthDuration_HTML.html#230,230,1440,900,1440,900,9-3-2022,13-44-51,81,depth_duration_stimuli/002995_2014-06-15_12-31-26_094959634447_rgbf000150-resize_1/002995_2014-06-15_12-31-26_094959634447_rgbf000150-resize_1-target.png,250,3.8360000000000003,15,1991,246,feet,jsons/v1_VE250_randls_29_rotated.json,495207,658682,52,Man
81,290930,DepthScenes,duration_manipulation_targetAtFixation,jsons/v1_VE250_randls_29_rotated.json,http://54.235.29.9/FacialAge/BNav_EC2/DepthDuration/v2_depth_duration_MTurk/v2_DepthDuration_HTML.html#230,230,1440,900,1440,900,9-3-2022,13-44-51,82,depth_duration_stimuli/002748_2014-06-22_19-07-22_094959634447_rgbf000078-resize_1/002748_2014-06-22_19-07-22_094959634447_rgbf000078-resize_1-target.png,250,4.6705,18,3450,248,feet,jsons/v1_VE250_randls_29_rotated.json,495207,658682,52,Man
82,290930,DepthScenes,duration_manipulation_targetAtFixation,jsons/v1_VE250_randls_29_rotated.json,http://54.235.29.9/FacialAge/BNav_EC2/DepthDuration/v2_depth_duration_MTurk/v2_DepthDuration_HTML.html#230,230,1440,900,1440,900,9-3-2022,13-44-51,83,depth_duration_stimuli/000137_2014-05-20_17-04-49_260595134347_rgbf000120-resize_1/000137_2014-05-20_17-04-49_260595134347_rgbf000120-resize_1-target.png,250,3.786,15,2439,251,feet,jsons/v1_VE250_randls_29_rotated.json,495207,658682,52,Man
83,290930,DepthScenes,duration_manipulation_targetAtFixation,jsons/v1_VE250_randls_29_rotated.json,http://54.235.29.9/FacialAge/BNav_EC2/DepthDuration/v2_depth_duration_MTurk/v2_DepthDuration_HTML.html#230,230,1440,900,1440,900,9-3-2022,13-44-51,84,depth_duration_stimuli/000736_2014-06-08_18-24-15_260595134347_rgbf000206-resize_3/000736_2014-06-08_18-24-15_260595134347_rgbf000206-resize_3-target.png,250,3.515,15,2530,250,feet,jsons/v1_VE250_randls_29_rotated.json,495207,658682,52,Man
84,290930,DepthScenes,duration_manipulation_targetAtFixation,jsons/v1_VE250_randls_29_rotated.json,http://54.235.29.9/FacialAge/BNav_EC2/DepthDuration/v2_depth_duration_MTurk/v2_DepthDuration_HTML.html#230,230,1440,900,1440,900,9-3-2022,13-44-51,85,depth_duration_stimuli/002344_2014-06-28_20-06-29_260595134347_rgbf000030-resize_1/002344_2014-06-28_20-06-29_260595134347_rgbf000030-resize_1-target.png,250,1.5795,4,1975,244,feet,jsons/v1_VE250_randls_29_rotated.json,495207,658682,52,Man
85,290930,DepthScenes,duration_manipulation_targetAtFixation,jsons/v1_VE250_randls_29_rotated.json,http://54.235.29.9/FacialAge/BNav_EC2/DepthDuration/v2_depth_duration_MTurk/v2_DepthDuration_HTML.html#230,230,1440,900,1440,900,9-3-2022,13-44-51,86,depth_duration_stimuli/002725_2014-06-22_11-47-51_094959634447_rgbf000070-resize_1/002725_2014-06-22_11-47-51_094959634447_rgbf000070-resize_1-target.png,250,2.195,8,2790,250,feet,jsons/v1_VE250_randls_29_rotated.json,495207,658682,52,Man
86,290930,DepthScenes,duration_manipulation_targetAtFixation,jsons/v1_VE250_randls_29_rotated.json,http://54.235.29.9/FacialAge/BNav_EC2/DepthDuration/v2_depth_duration_MTurk/v2_DepthDuration_HTML.html#230,230,1440,900,1440,900,9-3-2022,13-44-51,87,depth_duration_stimuli/002639_2014-06-24_14-51-37_094959634447_rgbf000074-resize_4/002639_2014-06-24_14-51-37_094959634447_rgbf000074-resize_4-target.png,250,4.0375,12,2002,247,feet,jsons/v1_VE250_randls_29_rotated.json,495207,658682,52,Man
87,290930,DepthScenes,duration_manipulation_targetAtFixation,jsons/v1_VE250_randls_29_rotated.json,http://54.235.29.9/FacialAge/BNav_EC2/DepthDuration/v2_depth_duration_MTurk/v2_DepthDuration_HTML.html#230,230,1440,900,1440,900,9-3-2022,13-44-51,88,depth_duration_stimuli/003292_2014-05-14_21-53-49_094959634447_rgbf000100-resize_2/003292_2014-05-14_21-53-49_094959634447_rgbf000100-resize_2-target.png,250,3.4815,10,2372,252,feet,jsons/v1_VE250_randls_29_rotated.json,495207,658682,52,Man
88,290930,DepthScenes,duration_manipulation_targetAtFixation,jsons/v1_VE250_randls_29_rotated.json,http://54.235.29.9/FacialAge/BNav_EC2/DepthDuration/v2_depth_duration_MTurk/v2_DepthDuration_HTML.html#230,230,1440,900,1440,900,9-3-2022,13-44-51,89,depth_duration_stimuli/000866_2014-06-09_20-45-42_260595134347_rgbf000139-resize_1/000866_2014-06-09_20-45-42_260595134347_rgbf000139-resize_1-target.png,250,3.2155,8,3603,247,feet,jsons/v1_VE250_randls_29_rotated.json,495207,658682,52,Man
89,290930,DepthScenes,duration_manipulation_targetAtFixation,jsons/v1_VE250_randls_29_rotated.json,http://54.235.29.9/FacialAge/BNav_EC2/DepthDuration/v2_depth_duration_MTurk/v2_DepthDuration_HTML.html#230,230,1440,900,1440,900,9-3-2022,13-44-51,90,depth_duration_stimuli/002989_2014-06-15_12-25-03_094959634447_rgbf000150-resize_3/002989_2014-06-15_12-25-03_094959634447_rgbf000150-resize_3-target.png,250,4.1975,10,2581,245,feet,jsons/v1_VE250_randls_29_rotated.json,495207,658682,52,Man
90,290930,DepthScenes,duration_manipulation_targetAtFixation,jsons/v1_VE250_randls_29_rotated.json,http://54.235.29.9/FacialAge/BNav_EC2/DepthDuration/v2_depth_duration_MTurk/v2_DepthDuration_HTML.html#230,230,1440,900,1440,900,9-3-2022,13-44-51,91,depth_duration_stimuli/002444_2014-06-28_20-32-08_260595134347_rgbf000027-resize_0/002444_2014-06-28_20-32-08_260595134347_rgbf000027-resize_0-target.png,250,4.388999999999999,10,1964,250,feet,jsons/v1_VE250_randls_29_rotated.json,495207,658682,52,Man
91,290930,DepthScenes,duration_manipulation_targetAtFixation,jsons/v1_VE250_randls_29_rotated.json,http://54.235.29.9/FacialAge/BNav_EC2/DepthDuration/v2_depth_duration_MTurk/v2_DepthDuration_HTML.html#230,230,1440,900,1440,900,9-3-2022,13-44-51,92,depth_duration_stimuli/000436_2014-06-09_22-25-11_260595134347_rgbf000137-resize_1/000436_2014-06-09_22-25-11_260595134347_rgbf000137-resize_1-target.png,250,4.0705,15,2059,247,feet,jsons/v1_VE250_randls_29_rotated.json,495207,658682,52,Man
92,290930,DepthScenes,duration_manipulation_targetAtFixation,jsons/v1_VE250_randls_29_rotated.json,http://54.235.29.9/FacialAge/BNav_EC2/DepthDuration/v2_depth_duration_MTurk/v2_DepthDuration_HTML.html#230,230,1440,900,1440,900,9-3-2022,13-44-51,93,depth_duration_stimuli/003423_2014-05-21_10-23-26_094959634447_rgbf002665-resize_2/003423_2014-05-21_10-23-26_094959634447_rgbf002665-resize_2-target.png,250,3.2575,15,1938,247,feet,jsons/v1_VE250_randls_29_rotated.json,495207,658682,52,Man
93,290930,DepthScenes,duration_manipulation_targetAtFixation,jsons/v1_VE250_randls_29_rotated.json,http://54.235.29.9/FacialAge/BNav_EC2/DepthDuration/v2_depth_duration_MTurk/v2_DepthDuration_HTML.html#230,230,1440,900,1440,900,9-3-2022,13-44-51,94,depth_duration_stimuli/002905_2014-06-03_18-04-43_094959634447_rgbf000151-resize_2/002905_2014-06-03_18-04-43_094959634447_rgbf000151-resize_2-target.png,250,2.0295,7,4557,251,feet,jsons/v1_VE250_randls_29_rotated.json,495207,658682,52,Man
94,290930,DepthScenes,duration_manipulation_targetAtFixation,jsons/v1_VE250_randls_29_rotated.json,http://54.235.29.9/FacialAge/BNav_EC2/DepthDuration/v2_depth_duration_MTurk/v2_DepthDuration_HTML.html#230,230,1440,900,1440,900,9-3-2022,13-44-51,95,depth_duration_stimuli/003081_2014-06-15_15-19-16_094959634447_rgbf000150-resize_1/003081_2014-06-15_15-19-16_094959634447_rgbf000150-resize_1-target.png,250,3.9125,12,3337,250,feet,jsons/v1_VE250_randls_29_rotated.json,495207,658682,52,Man
95,290930,DepthScenes,duration_manipulation_targetAtFixation,jsons/v1_VE250_randls_29_rotated.json,http://54.235.29.9/FacialAge/BNav_EC2/DepthDuration/v2_depth_duration_MTurk/v2_DepthDuration_HTML.html#230,230,1440,900,1440,900,9-3-2022,13-44-51,96,depth_duration_stimuli/001417_2014-06-19_16-25-36_260595134347_rgbf000115-resize_5/001417_2014-06-19_16-25-36_260595134347_rgbf000115-resize_5-target.png,250,4.6255,8,5660,253,feet,jsons/v1_VE250_randls_29_rotated.json,495207,658682,52,Man
96,290930,DepthScenes,duration_manipulation_targetAtFixation,jsons/v1_VE250_randls_29_rotated.json,http://54.235.29.9/FacialAge/BNav_EC2/DepthDuration/v2_depth_duration_MTurk/v2_DepthDuration_HTML.html#230,230,1440,900,1440,900,9-3-2022,13-44-51,97,depth_duration_stimuli/003228_2014-05-14_13-42-35_094959634447_rgbf000101-resize_1/003228_2014-05-14_13-42-35_094959634447_rgbf000101-resize_1-target.png,250,1.9680000000000002,4,2586,250,feet,jsons/v1_VE250_randls_29_rotated.json,495207,658682,52,Man
97,290930,DepthScenes,duration_manipulation_targetAtFixation,jsons/v1_VE250_randls_29_rotated.json,http://54.235.29.9/FacialAge/BNav_EC2/DepthDuration/v2_depth_duration_MTurk/v2_DepthDuration_HTML.html#230,230,1440,900,1440,900,9-3-2022,13-44-51,98,depth_duration_stimuli/002600_2014-06-24_14-27-04_094959634447_rgbf000074-resize_2/002600_2014-06-24_14-27-04_094959634447_rgbf000074-resize_2-target.png,250,2.7575,8,1895,250,feet,jsons/v1_VE250_randls_29_rotated.json,495207,658682,52,Man
98,290930,DepthScenes,duration_manipulation_targetAtFixation,jsons/v1_VE250_randls_29_rotated.json,http://54.235.29.9/FacialAge/BNav_EC2/DepthDuration/v2_depth_duration_MTurk/v2_DepthDuration_HTML.html#230,230,1440,900,1440,900,9-3-2022,13-44-51,99,depth_duration_stimuli/001222_2014-06-17_16-24-06_260595134347_rgbf000073-resize_0/001222_2014-06-17_16-24-06_260595134347_rgbf000073-resize-original.jpg,250,1.4385,0,2324,250,feet,jsons/v1_VE250_randls_29_rotated.json,495207,658682,52,Man
99,290930,DepthScenes,duration_manipulation_targetAtFixation,jsons/v1_VE250_randls_29_rotated.json,http://54.235.29.9/FacialAge/BNav_EC2/DepthDuration/v2_depth_duration_MTurk/v2_DepthDuration_HTML.html#230,230,1440,900,1440,900,9-3-2022,13-44-51,100,depth_duration_stimuli/001132_2014-06-17_14-48-54_260595134347_rgbf000100-resize_2/001132_2014-06-17_14-48-54_260595134347_rgbf000100-resize_2-target.png,250,3.753,10,2313,249,feet,jsons/v1_VE250_randls_29_rotated.json,495207,658682,52,Man
100,290930,DepthScenes,duration_manipulation_targetAtFixation,jsons/v1_VE250_randls_29_rotated.json,http://54.235.29.9/FacialAge/BNav_EC2/DepthDuration/v2_depth_duration_MTurk/v2_DepthDuration_HTML.html#230,230,1440,900,1440,900,9-3-2022,13-44-51,101,depth_duration_stimuli/001133_2014-06-17_14-49-16_260595134347_rgbf000100-resize_0/001133_2014-06-17_14-49-16_260595134347_rgbf000100-resize_0-target.png,250,4.2115,12,1817,254,feet,jsons/v1_VE250_randls_29_rotated.json,495207,658682,52,Man
101,290930,DepthScenes,duration_manipulation_targetAtFixation,jsons/v1_VE250_randls_29_rotated.json,http://54.235.29.9/FacialAge/BNav_EC2/DepthDuration/v2_depth_duration_MTurk/v2_DepthDuration_HTML.html#230,230,1440,900,1440,900,9-3-2022,13-44-51,102,depth_duration_stimuli/003010_2014-06-15_12-54-35_094959634447_rgbf000112-resize_0/003010_2014-06-15_12-54-35_094959634447_rgbf000112-resize_0-target.png,250,3.1185,10,1927,247,feet,jsons/v1_VE250_randls_29_rotated.json,495207,658682,52,Man
102,290930,DepthScenes,duration_manipulation_targetAtFixation,jsons/v1_VE250_randls_29_rotated.json,http://54.235.29.9/FacialAge/BNav_EC2/DepthDuration/v2_depth_duration_MTurk/v2_DepthDuration_HTML.html#230,230,1440,900,1440,900,9-3-2022,13-44-51,103,depth_duration_stimuli/001810_2014-06-26_20-51-35_260595134347_rgbf000040-resize_3/001810_2014-06-26_20-51-35_260595134347_rgbf000040-resize_3-target.png,250,2.2525,8,2862,250,feet,jsons/v1_VE250_randls_29_rotated.json,495207,658682,52,Man
103,290930,DepthScenes,duration_manipulation_targetAtFixation,jsons/v1_VE250_randls_29_rotated.json,http://54.235.29.9/FacialAge/BNav_EC2/DepthDuration/v2_depth_duration_MTurk/v2_DepthDuration_HTML.html#230,230,1440,900,1440,900,9-3-2022,13-44-51,104,depth_duration_stimuli/000409_2014-06-04_19-23-33_260595134347_rgbf000067-resize_0/000409_2014-06-04_19-23-33_260595134347_rgbf000067-resize_0-target.png,250,3.7335,10,1892,249,feet,jsons/v1_VE250_randls_29_rotated.json,495207,658682,52,Man
104,290930,DepthScenes,duration_manipulation_targetAtFixation,jsons/v1_VE250_randls_29_rotated.json,http://54.235.29.9/FacialAge/BNav_EC2/DepthDuration/v2_depth_duration_MTurk/v2_DepthDuration_HTML.html#230,230,1440,900,1440,900,9-3-2022,13-44-51,105,depth_duration_stimuli/002663_2014-06-13_15-50-26_094959634447_rgbf000075-resize_1/002663_2014-06-13_15-50-26_094959634447_rgbf000075-resize_1-target.png,250,4.7495,12,1900,244,feet,jsons/v1_VE250_randls_29_rotated.json,495207,658682,52,Man
105,290930,DepthScenes,duration_manipulation_targetAtFixation,jsons/v1_VE250_randls_29_rotated.json,http://54.235.29.9/FacialAge/BNav_EC2/DepthDuration/v2_depth_duration_MTurk/v2_DepthDuration_HTML.html#230,230,1440,900,1440,900,9-3-2022,13-44-51,106,depth_duration_stimuli/000734_2014-06-08_17-39-11_260595134347_rgbf000128-resize_2/000734_2014-06-08_17-39-11_260595134347_rgbf000128-resize_2-target.png,250,4.098,10,2031,251,feet,jsons/v1_VE250_randls_29_rotated.json,495207,658682,52,Man
106,290930,DepthScenes,duration_manipulation_targetAtFixation,jsons/v1_VE250_randls_29_rotated.json,http://54.235.29.9/FacialAge/BNav_EC2/DepthDuration/v2_depth_duration_MTurk/v2_DepthDuration_HTML.html#230,230,1440,900,1440,900,9-3-2022,13-44-51,107,depth_duration_stimuli/000739_2014-06-08_18-45-58_260595134347_rgbf000068-resize_1/000739_2014-06-08_18-45-58_260595134347_rgbf000068-resize_1-target.png,250,3.534,10,1972,253,feet,jsons/v1_VE250_randls_29_rotated.json,495207,658682,52,Man
107,290930,DepthScenes,duration_manipulation_targetAtFixation,jsons/v1_VE250_randls_29_rotated.json,http://54.235.29.9/FacialAge/BNav_EC2/DepthDuration/v2_depth_duration_MTurk/v2_DepthDuration_HTML.html#230,230,1440,900,1440,900,9-3-2022,13-44-51,108,depth_duration_stimuli/001447_2014-06-19_17-00-32_260595134347_rgbf000082-resize_5/001447_2014-06-19_17-00-32_260595134347_rgbf000082-resize_5-target.png,250,4.13775,10,1934,251,feet,jsons/v1_VE250_randls_29_rotated.json,495207,658682,52,Man
108,290930,DepthScenes,duration_manipulation_targetAtFixation,jsons/v1_VE250_randls_29_rotated.json,http://54.235.29.9/FacialAge/BNav_EC2/DepthDuration/v2_depth_duration_MTurk/v2_DepthDuration_HTML.html#230,230,1440,900,1440,900,9-3-2022,13-44-51,109,depth_duration_stimuli/000447_2014-06-08_16-15-46_260595134347_rgbf000130-resize_1/000447_2014-06-08_16-15-46_260595134347_rgbf000130-resize_1-target.png,250,4.479,15,4257,248,feet,jsons/v1_VE250_randls_29_rotated.json,495207,658682,52,Man
109,290930,DepthScenes,duration_manipulation_targetAtFixation,jsons/v1_VE250_randls_29_rotated.json,http://54.235.29.9/FacialAge/BNav_EC2/DepthDuration/v2_depth_duration_MTurk/v2_DepthDuration_HTML.html#230,230,1440,900,1440,900,9-3-2022,13-44-51,110,depth_duration_stimuli/000749_2014-06-08_21-55-06_260595134347_rgbf000070-resize_2/000749_2014-06-08_21-55-06_260595134347_rgbf000070-resize_2-target.png,250,2.331,8,2738,239,feet,jsons/v1_VE250_randls_29_rotated.json,495207,658682,52,Man
110,290930,DepthScenes,duration_manipulation_targetAtFixation,jsons/v1_VE250_randls_29_rotated.json,http://54.235.29.9/FacialAge/BNav_EC2/DepthDuration/v2_depth_duration_MTurk/v2_DepthDuration_HTML.html#230,230,1440,900,1440,900,9-3-2022,13-44-51,111,depth_duration_stimuli/002788_2014-06-22_19-36-03_094959634447_rgbf000088-resize_2/002788_2014-06-22_19-36-03_094959634447_rgbf000088-resize_2-target.png,250,1.6465,8,2117,245,feet,jsons/v1_VE250_randls_29_rotated.json,495207,658682,52,Man
111,290930,DepthScenes,duration_manipulation_targetAtFixation,jsons/v1_VE250_randls_29_rotated.json,http://54.235.29.9/FacialAge/BNav_EC2/DepthDuration/v2_depth_duration_MTurk/v2_DepthDuration_HTML.html#230,230,1440,900,1440,900,9-3-2022,13-44-51,112,depth_duration_stimuli/002805_2014-06-22_19-54-03_094959634447_rgbf000079-resize_1/002805_2014-06-22_19-54-03_094959634447_rgbf000079-resize_1-target.png,250,3.1439999999999997,12,2649,244,feet,jsons/v1_VE250_randls_29_rotated.json,495207,658682,52,Man
112,290930,DepthScenes,duration_manipulation_targetAtFixation,jsons/v1_VE250_randls_29_rotated.json,http://54.235.29.9/FacialAge/BNav_EC2/DepthDuration/v2_depth_duration_MTurk/v2_DepthDuration_HTML.html#230,230,1440,900,1440,900,9-3-2022,13-44-51,113,depth_duration_stimuli/000906_2014-06-08_13-35-43_260595134347_rgbf000155-resize_1/000906_2014-06-08_13-35-43_260595134347_rgbf000155-resize_1-target.png,250,2.8489999999999998,10,1948,252,feet,jsons/v1_VE250_randls_29_rotated.json,495207,658682,52,Man
113,290930,DepthScenes,duration_manipulation_targetAtFixation,jsons/v1_VE250_randls_29_rotated.json,http://54.235.29.9/FacialAge/BNav_EC2/DepthDuration/v2_depth_duration_MTurk/v2_DepthDuration_HTML.html#230,230,1440,900,1440,900,9-3-2022,13-44-51,114,depth_duration_stimuli/000103_2014-05-14_22-01-17_260595134347_rgbf000152-resize_5/000103_2014-05-14_22-01-17_260595134347_rgbf000152-resize_5-target.png,250,1.993,8,3041,245,feet,jsons/v1_VE250_randls_29_rotated.json,495207,658682,52,Man
114,290930,DepthScenes,duration_manipulation_targetAtFixation,jsons/v1_VE250_randls_29_rotated.json,http://54.235.29.9/FacialAge/BNav_EC2/DepthDuration/v2_depth_duration_MTurk/v2_DepthDuration_HTML.html#230,230,1440,900,1440,900,9-3-2022,13-44-51,115,depth_duration_stimuli/001555_2014-06-20_17-12-10_260595134347_rgbf000065-resize_4/001555_2014-06-20_17-12-10_260595134347_rgbf000065-resize_4-target.png,250,1.633,5,2191,251,feet,jsons/v1_VE250_randls_29_rotated.json,495207,658682,52,Man
115,290930,DepthScenes,duration_manipulation_targetAtFixation,jsons/v1_VE250_randls_29_rotated.json,http://54.235.29.9/FacialAge/BNav_EC2/DepthDuration/v2_depth_duration_MTurk/v2_DepthDuration_HTML.html#230,230,1440,900,1440,900,9-3-2022,13-44-51,116,depth_duration_stimuli/002103_2014-06-25_20-00-40_260595134347_rgbf000049-resize_0/002103_2014-06-25_20-00-40_260595134347_rgbf000049-resize_0-target.png,250,4.105,8,2499,249,feet,jsons/v1_VE250_randls_29_rotated.json,495207,658682,52,Man
116,290930,DepthScenes,duration_manipulation_targetAtFixation,jsons/v1_VE250_randls_29_rotated.json,http://54.235.29.9/FacialAge/BNav_EC2/DepthDuration/v2_depth_duration_MTurk/v2_DepthDuration_HTML.html#230,230,1440,900,1440,900,9-3-2022,13-44-51,117,depth_duration_stimuli/002039_2014-06-24_20-22-38_260595134347_rgbf000084-resize_1/002039_2014-06-24_20-22-38_260595134347_rgbf000084-resize_1-target.png,250,4.408,12,2439,247,feet,jsons/v1_VE250_randls_29_rotated.json,495207,658682,52,Man
117,290930,DepthScenes,duration_manipulation_targetAtFixation,jsons/v1_VE250_randls_29_rotated.json,http://54.235.29.9/FacialAge/BNav_EC2/DepthDuration/v2_depth_duration_MTurk/v2_DepthDuration_HTML.html#230,230,1440,900,1440,900,9-3-2022,13-44-51,118,depth_duration_stimuli/003129_2014-05-12_10-48-10_094959634447_rgbf000100-resize_0/003129_2014-05-12_10-48-10_094959634447_rgbf000100-resize_0-target.png,250,4.9305,10,1998,247,feet,jsons/v1_VE250_randls_29_rotated.json,495207,658682,52,Man
118,290930,DepthScenes,duration_manipulation_targetAtFixation,jsons/v1_VE250_randls_29_rotated.json,http://54.235.29.9/FacialAge/BNav_EC2/DepthDuration/v2_depth_duration_MTurk/v2_DepthDuration_HTML.html#230,230,1440,900,1440,900,9-3-2022,13-44-51,119,depth_duration_stimuli/000414_2014-06-04_19-49-13_260595134347_rgbf000044-resize_0/000414_2014-06-04_19-49-13_260595134347_rgbf000044-resize_0-target.png,250,4.329,15,1768,245,feet,jsons/v1_VE250_randls_29_rotated.json,495207,658682,52,Man
119,290930,DepthScenes,duration_manipulation_targetAtFixation,jsons/v1_VE250_randls_29_rotated.json,http://54.235.29.9/FacialAge/BNav_EC2/DepthDuration/v2_depth_duration_MTurk/v2_DepthDuration_HTML.html#230,230,1440,900,1440,900,9-3-2022,13-44-51,120,depth_duration_stimuli/000787_2014-06-08_22-33-53_260595134347_rgbf000175-resize_1/000787_2014-06-08_22-33-53_260595134347_rgbf000175-resize-original.jpg,250,4.784,0,2233,248,feet,jsons/v1_VE250_randls_29_rotated.json,495207,658682,52,Man
120,290930,DepthScenes,duration_manipulation_targetAtFixation,jsons/v1_VE250_randls_29_rotated.json,http://54.235.29.9/FacialAge/BNav_EC2/DepthDuration/v2_depth_duration_MTurk/v2_DepthDuration_HTML.html#230,230,1440,900,1440,900,9-3-2022,13-44-51,121,depth_duration_stimuli/000742_2014-06-08_18-48-09_260595134347_rgbf000164-resize_4/000742_2014-06-08_18-48-09_260595134347_rgbf000164-resize_4-target.png,250,4.632,12,2156,258,feet,jsons/v1_VE250_randls_29_rotated.json,495207,658682,52,Man
121,290930,DepthScenes,duration_manipulation_targetAtFixation,jsons/v1_VE250_randls_29_rotated.json,http://54.235.29.9/FacialAge/BNav_EC2/DepthDuration/v2_depth_duration_MTurk/v2_DepthDuration_HTML.html#230,230,1440,900,1440,900,9-3-2022,13-44-51,122,depth_duration_stimuli/001066_2014-06-08_22-03-20_260595134347_rgbf000066-resize_4/001066_2014-06-08_22-03-20_260595134347_rgbf000066-resize_4-target.png,250,4.2330000000000005,15,1814,247,feet,jsons/v1_VE250_randls_29_rotated.json,495207,658682,52,Man
122,290930,DepthScenes,duration_manipulation_targetAtFixation,jsons/v1_VE250_randls_29_rotated.json,http://54.235.29.9/FacialAge/BNav_EC2/DepthDuration/v2_depth_duration_MTurk/v2_DepthDuration_HTML.html#230,230,1440,900,1440,900,9-3-2022,13-44-51,123,depth_duration_stimuli/002323_2014-06-28_20-01-54_260595134347_rgbf000051-resize_4/002323_2014-06-28_20-01-54_260595134347_rgbf000051-resize_4-target.png,250,3.7310000000000003,15,2038,243,feet,jsons/v1_VE250_randls_29_rotated.json,495207,658682,52,Man
123,290930,DepthScenes,duration_manipulation_targetAtFixation,jsons/v1_VE250_randls_29_rotated.json,http://54.235.29.9/FacialAge/BNav_EC2/DepthDuration/v2_depth_duration_MTurk/v2_DepthDuration_HTML.html#230,230,1440,900,1440,900,9-3-2022,13-44-51,124,depth_duration_stimuli/000917_2014-06-09_22-45-29_260595134347_rgbf000149-resize_3/000917_2014-06-09_22-45-29_260595134347_rgbf000149-resize_3-target.png,250,4.1865,10,2440,250,feet,jsons/v1_VE250_randls_29_rotated.json,495207,658682,52,Man
124,290930,DepthScenes,duration_manipulation_targetAtFixation,jsons/v1_VE250_randls_29_rotated.json,http://54.235.29.9/FacialAge/BNav_EC2/DepthDuration/v2_depth_duration_MTurk/v2_DepthDuration_HTML.html#230,230,1440,900,1440,900,9-3-2022,13-44-51,125,depth_duration_stimuli/002467_2014-06-28_20-38-07_260595134347_rgbf000026-resize_2/002467_2014-06-28_20-38-07_260595134347_rgbf000026-resize_2-target.png,250,4.742,12,2078,250,feet,jsons/v1_VE250_randls_29_rotated.json,495207,658682,52,Man
125,290930,DepthScenes,duration_manipulation_targetAtFixation,jsons/v1_VE250_randls_29_rotated.json,http://54.235.29.9/FacialAge/BNav_EC2/DepthDuration/v2_depth_duration_MTurk/v2_DepthDuration_HTML.html#230,230,1440,900,1440,900,9-3-2022,13-44-51,126,depth_duration_stimuli/002570_2014-06-24_13-59-54_094959634447_rgbf000059-resize_0/002570_2014-06-24_13-59-54_094959634447_rgbf000059-resize_0-target.png,250,4.037,15,2051,249,feet,jsons/v1_VE250_randls_29_rotated.json,495207,658682,52,Man
126,290930,DepthScenes,duration_manipulation_targetAtFixation,jsons/v1_VE250_randls_29_rotated.json,http://54.235.29.9/FacialAge/BNav_EC2/DepthDuration/v2_depth_duration_MTurk/v2_DepthDuration_HTML.html#230,230,1440,900,1440,900,9-3-2022,13-44-51,127,depth_duration_stimuli/000549_2014-06-08_22-10-24_260595134347_rgbf000247-resize_3/000549_2014-06-08_22-10-24_260595134347_rgbf000247-resize_3-target.png,250,1.841,4,1617,249,feet,jsons/v1_VE250_randls_29_rotated.json,495207,658682,52,Man
127,290930,DepthScenes,duration_manipulation_targetAtFixation,jsons/v1_VE250_randls_29_rotated.json,http://54.235.29.9/FacialAge/BNav_EC2/DepthDuration/v2_depth_duration_MTurk/v2_DepthDuration_HTML.html#230,230,1440,900,1440,900,9-3-2022,13-44-51,128,depth_duration_stimuli/001055_2014-06-08_18-45-35_260595134347_rgbf000111-resize_4/001055_2014-06-08_18-45-35_260595134347_rgbf000111-resize_4-target.png,250,2.4290000000000003,10,2684,249,feet,jsons/v1_VE250_randls_29_rotated.json,495207,658682,52,Man
128,290930,DepthScenes,duration_manipulation_targetAtFixation,jsons/v1_VE250_randls_29_rotated.json,http://54.235.29.9/FacialAge/BNav_EC2/DepthDuration/v2_depth_duration_MTurk/v2_DepthDuration_HTML.html#230,230,1440,900,1440,900,9-3-2022,13-44-51,129,depth_duration_stimuli/002545_2014-06-24_13-38-53_094959634447_rgbf000080-resize_4/002545_2014-06-24_13-38-53_094959634447_rgbf000080-resize_4-target.png,250,1.9205,6,2362,253,feet,jsons/v1_VE250_randls_29_rotated.json,495207,658682,52,Man
129,290930,DepthScenes,duration_manipulation_targetAtFixation,jsons/v1_VE250_randls_29_rotated.json,http://54.235.29.9/FacialAge/BNav_EC2/DepthDuration/v2_depth_duration_MTurk/v2_DepthDuration_HTML.html#230,230,1440,900,1440,900,9-3-2022,13-44-51,130,depth_duration_stimuli/001092_2014-06-15_17-34-58_260595134347_rgbf000171-resize_3/001092_2014-06-15_17-34-58_260595134347_rgbf000171-resize_3-target.png,250,2.6935,6,1766,251,feet,jsons/v1_VE250_randls_29_rotated.json,495207,658682,52,Man
130,290930,DepthScenes,duration_manipulation_targetAtFixation,jsons/v1_VE250_randls_29_rotated.json,http://54.235.29.9/FacialAge/BNav_EC2/DepthDuration/v2_depth_duration_MTurk/v2_DepthDuration_HTML.html#230,230,1440,900,1440,900,9-3-2022,13-44-51,131,depth_duration_stimuli/000709_2014-06-08_13-51-55_260595134347_rgbf000068-resize_3/000709_2014-06-08_13-51-55_260595134347_rgbf000068-resize_3-target.png,250,1.8030000000000002,7,2374,251,feet,jsons/v1_VE250_randls_29_rotated.json,495207,658682,52,Man
131,290930,DepthScenes,duration_manipulation_targetAtFixation,jsons/v1_VE250_randls_29_rotated.json,http://54.235.29.9/FacialAge/BNav_EC2/DepthDuration/v2_depth_duration_MTurk/v2_DepthDuration_HTML.html#230,230,1440,900,1440,900,9-3-2022,13-44-51,132,depth_duration_stimuli/002057_2014-06-24_21-00-13_260595134347_rgbf000120-resize_1/002057_2014-06-24_21-00-13_260595134347_rgbf000120-resize_1-target.png,250,2.967,12,2077,247,feet,jsons/v1_VE250_randls_29_rotated.json,495207,658682,52,Man
132,290930,DepthScenes,duration_manipulation_targetAtFixation,jsons/v1_VE250_randls_29_rotated.json,http://54.235.29.9/FacialAge/BNav_EC2/DepthDuration/v2_depth_duration_MTurk/v2_DepthDuration_HTML.html#230,230,1440,900,1440,900,9-3-2022,13-44-51,133,depth_duration_stimuli/001052_2014-06-08_18-24-54_260595134347_rgbf000130-resize_1/001052_2014-06-08_18-24-54_260595134347_rgbf000130-resize_1-target.png,250,4.1045,15,2302,241,feet,jsons/v1_VE250_randls_29_rotated.json,495207,658682,52,Man
133,290930,DepthScenes,duration_manipulation_targetAtFixation,jsons/v1_VE250_randls_29_rotated.json,http://54.235.29.9/FacialAge/BNav_EC2/DepthDuration/v2_depth_duration_MTurk/v2_DepthDuration_HTML.html#230,230,1440,900,1440,900,9-3-2022,13-44-51,134,depth_duration_stimuli/002988_2014-06-15_12-24-20_094959634447_rgbf000150-resize_1/002988_2014-06-15_12-24-20_094959634447_rgbf000150-resize_1-target.png,250,4.7669999999999995,10,3644,254,feet,jsons/v1_VE250_randls_29_rotated.json,495207,658682,52,Man
134,290930,DepthScenes,duration_manipulation_targetAtFixation,jsons/v1_VE250_randls_29_rotated.json,http://54.235.29.9/FacialAge/BNav_EC2/DepthDuration/v2_depth_duration_MTurk/v2_DepthDuration_HTML.html#230,230,1440,900,1440,900,9-3-2022,13-44-51,135,depth_duration_stimuli/000375_2014-06-08_11-17-29_260595134347_rgbf000133-resize_2/000375_2014-06-08_11-17-29_260595134347_rgbf000133-resize-original.jpg,250,4.718,0,2598,250,feet,jsons/v1_VE250_randls_29_rotated.json,495207,658682,52,Man
135,290930,DepthScenes,duration_manipulation_targetAtFixation,jsons/v1_VE250_randls_29_rotated.json,http://54.235.29.9/FacialAge/BNav_EC2/DepthDuration/v2_depth_duration_MTurk/v2_DepthDuration_HTML.html#230,230,1440,900,1440,900,9-3-2022,13-44-51,136,depth_duration_stimuli/001094_2014-06-15_17-36-00_260595134347_rgbf000205-resize_0/001094_2014-06-15_17-36-00_260595134347_rgbf000205-resize_0-target.png,250,4.2175,12,1935,254,feet,jsons/v1_VE250_randls_29_rotated.json,495207,658682,52,Man
136,290930,DepthScenes,duration_manipulation_targetAtFixation,jsons/v1_VE250_randls_29_rotated.json,http://54.235.29.9/FacialAge/BNav_EC2/DepthDuration/v2_depth_duration_MTurk/v2_DepthDuration_HTML.html#230,230,1440,900,1440,900,9-3-2022,13-44-51,137,depth_duration_stimuli/000692_2014-06-08_13-09-42_260595134347_rgbf000199-resize_2/000692_2014-06-08_13-09-42_260595134347_rgbf000199-resize_2-target.png,250,3.661,15,1763,246,feet,jsons/v1_VE250_randls_29_rotated.json,495207,658682,52,Man
137,290930,DepthScenes,duration_manipulation_targetAtFixation,jsons/v1_VE250_randls_29_rotated.json,http://54.235.29.9/FacialAge/BNav_EC2/DepthDuration/v2_depth_duration_MTurk/v2_DepthDuration_HTML.html#230,230,1440,900,1440,900,9-3-2022,13-44-51,138,depth_duration_stimuli/000691_2014-06-08_13-08-50_260595134347_rgbf000132-resize_3/000691_2014-06-08_13-08-50_260595134347_rgbf000132-resize_3-target.png,250,4.1530000000000005,12,2175,247,feet,jsons/v1_VE250_randls_29_rotated.json,495207,658682,52,Man
138,290930,DepthScenes,duration_manipulation_targetAtFixation,jsons/v1_VE250_randls_29_rotated.json,http://54.235.29.9/FacialAge/BNav_EC2/DepthDuration/v2_depth_duration_MTurk/v2_DepthDuration_HTML.html#230,230,1440,900,1440,900,9-3-2022,13-44-51,139,depth_duration_stimuli/002213_2014-06-28_18-37-58_260595134347_rgbf000055-resize_1/002213_2014-06-28_18-37-58_260595134347_rgbf000055-resize_1-target.png,250,3.62,15,2320,250,feet,jsons/v1_VE250_randls_29_rotated.json,495207,658682,52,Man
139,290930,DepthScenes,duration_manipulation_targetAtFixation,jsons/v1_VE250_randls_29_rotated.json,http://54.235.29.9/FacialAge/BNav_EC2/DepthDuration/v2_depth_duration_MTurk/v2_DepthDuration_HTML.html#230,230,1440,900,1440,900,9-3-2022,13-44-51,140,depth_duration_stimuli/001136_2014-06-17_15-19-41_260595134347_rgbf000076-resize_3/001136_2014-06-17_15-19-41_260595134347_rgbf000076-resize_3-target.png,250,1.8655,6,2163,247,feet,jsons/v1_VE250_randls_29_rotated.json,495207,658682,52,Man
140,290930,DepthScenes,duration_manipulation_targetAtFixation,jsons/v1_VE250_randls_29_rotated.json,http://54.235.29.9/FacialAge/BNav_EC2/DepthDuration/v2_depth_duration_MTurk/v2_DepthDuration_HTML.html#230,230,1440,900,1440,900,9-3-2022,13-44-51,141,depth_duration_stimuli/001164_2014-06-17_15-35-46_260595134347_rgbf000085-resize_3/001164_2014-06-17_15-35-46_260595134347_rgbf000085-resize_3-target.png,250,2.354,5,2010,252,feet,jsons/v1_VE250_randls_29_rotated.json,495207,658682,52,Man
141,290930,DepthScenes,duration_manipulation_targetAtFixation,jsons/v1_VE250_randls_29_rotated.json,http://54.235.29.9/FacialAge/BNav_EC2/DepthDuration/v2_depth_duration_MTurk/v2_DepthDuration_HTML.html#230,230,1440,900,1440,900,9-3-2022,13-44-51,142,depth_duration_stimuli/003490_2014-05-21_15-50-11_094959634447_rgbf000101-resize_3/003490_2014-05-21_15-50-11_094959634447_rgbf000101-resize_3-target.png,250,3.6445,6,2411,246,feet,jsons/v1_VE250_randls_29_rotated.json,495207,658682,52,Man
142,290930,DepthScenes,duration_manipulation_targetAtFixation,jsons/v1_VE250_randls_29_rotated.json,http://54.235.29.9/FacialAge/BNav_EC2/DepthDuration/v2_depth_duration_MTurk/v2_DepthDuration_HTML.html#230,230,1440,900,1440,900,9-3-2022,13-44-51,143,depth_duration_stimuli/001175_2014-06-17_15-45-55_260595134347_rgbf000129-resize_4/001175_2014-06-17_15-45-55_260595134347_rgbf000129-resize_4-target.png,250,4.255,10,2038,249,feet,jsons/v1_VE250_randls_29_rotated.json,495207,658682,52,Man
143,290930,DepthScenes,duration_manipulation_targetAtFixation,jsons/v1_VE250_randls_29_rotated.json,http://54.235.29.9/FacialAge/BNav_EC2/DepthDuration/v2_depth_duration_MTurk/v2_DepthDuration_HTML.html#230,230,1440,900,1440,900,9-3-2022,13-44-51,144,depth_duration_stimuli/002750_2014-06-22_19-08-03_094959634447_rgbf000094-resize_4/002750_2014-06-22_19-08-03_094959634447_rgbf000094-resize_4-target.png,250,2.354,8,2162,251,feet,jsons/v1_VE250_randls_29_rotated.json,495207,658682,52,Man
144,290930,DepthScenes,duration_manipulation_targetAtFixation,jsons/v1_VE250_randls_29_rotated.json,http://54.235.29.9/FacialAge/BNav_EC2/DepthDuration/v2_depth_duration_MTurk/v2_DepthDuration_HTML.html#230,230,1440,900,1440,900,9-3-2022,13-44-51,145,depth_duration_stimuli/002549_2014-06-24_13-41-39_094959634447_rgbf000022-resize_3/002549_2014-06-24_13-41-39_094959634447_rgbf000022-resize_3-target.png,250,1.476,5,1640,247,feet,jsons/v1_VE250_randls_29_rotated.json,495207,658682,52,Man
145,290930,DepthScenes,duration_manipulation_targetAtFixation,jsons/v1_VE250_randls_29_rotated.json,http://54.235.29.9/FacialAge/BNav_EC2/DepthDuration/v2_depth_duration_MTurk/v2_DepthDuration_HTML.html#230,230,1440,900,1440,900,9-3-2022,13-44-51,146,depth_duration_stimuli/002637_2014-06-24_14-51-13_094959634447_rgbf000066-resize_4/002637_2014-06-24_14-51-13_094959634447_rgbf000066-resize_4-target.png,250,1.9955,7,2245,252,feet,jsons/v1_VE250_randls_29_rotated.json,495207,658682,52,Man
146,290930,DepthScenes,duration_manipulation_targetAtFixation,jsons/v1_VE250_randls_29_rotated.json,http://54.235.29.9/FacialAge/BNav_EC2/DepthDuration/v2_depth_duration_MTurk/v2_DepthDuration_HTML.html#230,230,1440,900,1440,900,9-3-2022,13-44-51,147,depth_duration_stimuli/003534_2014-05-22_15-06-10_094959634447_rgbf000102-resize_4/003534_2014-05-22_15-06-10_094959634447_rgbf000102-resize_4-target.png,250,1.426,4,1629,252,feet,jsons/v1_VE250_randls_29_rotated.json,495207,658682,52,Man
147,290930,DepthScenes,duration_manipulation_targetAtFixation,jsons/v1_VE250_randls_29_rotated.json,http://54.235.29.9/FacialAge/BNav_EC2/DepthDuration/v2_depth_duration_MTurk/v2_DepthDuration_HTML.html#230,230,1440,900,1440,900,9-3-2022,13-44-51,148,depth_duration_stimuli/001584_2014-06-20_11-07-43_260595134347_rgbf000002-resize_1/001584_2014-06-20_11-07-43_260595134347_rgbf000002-resize_1-target.png,250,3.53,8,2251,248,feet,jsons/v1_VE250_randls_29_rotated.json,495207,658682,52,Man
148,290930,DepthScenes,duration_manipulation_targetAtFixation,jsons/v1_VE250_randls_29_rotated.json,http://54.235.29.9/FacialAge/BNav_EC2/DepthDuration/v2_depth_duration_MTurk/v2_DepthDuration_HTML.html#230,230,1440,900,1440,900,9-3-2022,13-44-51,149,depth_duration_stimuli/003621_2014-05-23_18-06-08_094959634447_rgbf000101-resize_1/003621_2014-05-23_18-06-08_094959634447_rgbf000101-resize_1-target.png,250,3.9835,8,2918,254,feet,jsons/v1_VE250_randls_29_rotated.json,495207,658682,52,Man
149,290930,DepthScenes,duration_manipulation_targetAtFixation,jsons/v1_VE250_randls_29_rotated.json,http://54.235.29.9/FacialAge/BNav_EC2/DepthDuration/v2_depth_duration_MTurk/v2_DepthDuration_HTML.html#230,230,1440,900,1440,900,9-3-2022,13-44-51,150,depth_duration_stimuli/000780_2014-06-08_22-28-29_260595134347_rgbf000126-resize_1/000780_2014-06-08_22-28-29_260595134347_rgbf000126-resize_1-target.png,250,3.3825,10,2137,251,feet,jsons/v1_VE250_randls_29_rotated.json,495207,658682,52,Man
150,290930,DepthScenes,duration_manipulation_targetAtFixation,jsons/v1_VE250_randls_29_rotated.json,http://54.235.29.9/FacialAge/BNav_EC2/DepthDuration/v2_depth_duration_MTurk/v2_DepthDuration_HTML.html#230,230,1440,900,1440,900,9-3-2022,13-44-51,151,depth_duration_stimuli/002445_2014-06-28_20-32-16_260595134347_rgbf000029-resize_4/002445_2014-06-28_20-32-16_260595134347_rgbf000029-resize_4-target.png,250,2.5315,8,1920,251,feet,jsons/v1_VE250_randls_29_rotated.json,495207,658682,52,Man
151,290930,DepthScenes,duration_manipulation_targetAtFixation,jsons/v1_VE250_randls_29_rotated.json,http://54.235.29.9/FacialAge/BNav_EC2/DepthDuration/v2_depth_duration_MTurk/v2_DepthDuration_HTML.html#230,230,1440,900,1440,900,9-3-2022,13-44-51,152,depth_duration_stimuli/000569_2014-06-09_22-51-47_260595134347_rgbf000141-resize_3/000569_2014-06-09_22-51-47_260595134347_rgbf000141-resize-original.jpg,250,4.512,0,1968,250,feet,jsons/v1_VE250_randls_29_rotated.json,495207,658682,52,Man
152,290930,DepthScenes,duration_manipulation_targetAtFixation,jsons/v1_VE250_randls_29_rotated.json,http://54.235.29.9/FacialAge/BNav_EC2/DepthDuration/v2_depth_duration_MTurk/v2_DepthDuration_HTML.html#230,230,1440,900,1440,900,9-3-2022,13-44-51,153,depth_duration_stimuli/002678_2014-06-13_16-15-32_094959634447_rgbf000151-resize_6/002678_2014-06-13_16-15-32_094959634447_rgbf000151-resize_6-target.png,250,2.1830000000000003,12,2496,253,feet,jsons/v1_VE250_randls_29_rotated.json,495207,658682,52,Man
153,290930,DepthScenes,duration_manipulation_targetAtFixation,jsons/v1_VE250_randls_29_rotated.json,http://54.235.29.9/FacialAge/BNav_EC2/DepthDuration/v2_depth_duration_MTurk/v2_DepthDuration_HTML.html#230,230,1440,900,1440,900,9-3-2022,13-44-51,154,depth_duration_stimuli/000368_2014-06-09_15-53-01_260595134347_rgbf000155-resize_2/000368_2014-06-09_15-53-01_260595134347_rgbf000155-resize_2-target.png,250,2.4859999999999998,7,3311,248,feet,jsons/v1_VE250_randls_29_rotated.json,495207,658682,52,Man
154,290930,DepthScenes,duration_manipulation_targetAtFixation,jsons/v1_VE250_randls_29_rotated.json,http://54.235.29.9/FacialAge/BNav_EC2/DepthDuration/v2_depth_duration_MTurk/v2_DepthDuration_HTML.html#230,230,1440,900,1440,900,9-3-2022,13-44-51,155,depth_duration_stimuli/000191_2014-05-12_17-07-38_260595134347_rgbf000199-resize_0/000191_2014-05-12_17-07-38_260595134347_rgbf000199-resize_0-target.png,250,3.7995,12,2079,247,feet,jsons/v1_VE250_randls_29_rotated.json,495207,658682,52,Man
155,290930,DepthScenes,duration_manipulation_targetAtFixation,jsons/v1_VE250_randls_29_rotated.json,http://54.235.29.9/FacialAge/BNav_EC2/DepthDuration/v2_depth_duration_MTurk/v2_DepthDuration_HTML.html#230,230,1440,900,1440,900,9-3-2022,13-44-51,156,depth_duration_stimuli/000493_2014-06-09_21-01-18_260595134347_rgbf000196-resize_3/000493_2014-06-09_21-01-18_260595134347_rgbf000196-resize_3-target.png,250,3.44,12,1714,253,feet,jsons/v1_VE250_randls_29_rotated.json,495207,658682,52,Man
156,290930,DepthScenes,duration_manipulation_targetAtFixation,jsons/v1_VE250_randls_29_rotated.json,http://54.235.29.9/FacialAge/BNav_EC2/DepthDuration/v2_depth_duration_MTurk/v2_DepthDuration_HTML.html#230,230,1440,900,1440,900,9-3-2022,13-44-51,157,depth_duration_stimuli/000677_2014-06-08_23-10-32_260595134347_rgbf000158-resize_6/000677_2014-06-08_23-10-32_260595134347_rgbf000158-resize_6-target.png,250,3.556,10,2994,249,feet,jsons/v1_VE250_randls_29_rotated.json,495207,658682,52,Man
157,290930,DepthScenes,duration_manipulation_targetAtFixation,jsons/v1_VE250_randls_29_rotated.json,http://54.235.29.9/FacialAge/BNav_EC2/DepthDuration/v2_depth_duration_MTurk/v2_DepthDuration_HTML.html#230,230,1440,900,1440,900,9-3-2022,13-44-51,158,depth_duration_stimuli/001029_2014-06-08_13-17-57_260595134347_rgbf000065-resize_1/001029_2014-06-08_13-17-57_260595134347_rgbf000065-resize_1-target.png,250,3.0835,9,2430,250,feet,jsons/v1_VE250_randls_29_rotated.json,495207,658682,52,Man
158,290930,DepthScenes,duration_manipulation_targetAtFixation,jsons/v1_VE250_randls_29_rotated.json,http://54.235.29.9/FacialAge/BNav_EC2/DepthDuration/v2_depth_duration_MTurk/v2_DepthDuration_HTML.html#230,230,1440,900,1440,900,9-3-2022,13-44-51,159,depth_duration_stimuli/002568_2014-06-24_13-59-21_094959634447_rgbf000062-resize_4/002568_2014-06-24_13-59-21_094959634447_rgbf000062-resize_4-target.png,250,3.015,12,3146,250,feet,jsons/v1_VE250_randls_29_rotated.json,495207,658682,52,Man
159,290930,DepthScenes,duration_manipulation_targetAtFixation,jsons/v1_VE250_randls_29_rotated.json,http://54.235.29.9/FacialAge/BNav_EC2/DepthDuration/v2_depth_duration_MTurk/v2_DepthDuration_HTML.html#230,230,1440,900,1440,900,9-3-2022,13-44-51,160,depth_duration_stimuli/003492_2014-05-21_15-50-55_094959634447_rgbf000828-resize_1/003492_2014-05-21_15-50-55_094959634447_rgbf000828-resize_1-target.png,250,4.06875,12,2530,247,feet,jsons/v1_VE250_randls_29_rotated.json,495207,658682,52,Man
160,290930,DepthScenes,duration_manipulation_targetAtFixation,jsons/v1_VE250_randls_29_rotated.json,http://54.235.29.9/FacialAge/BNav_EC2/DepthDuration/v2_depth_duration_MTurk/v2_DepthDuration_HTML.html#230,230,1440,900,1440,900,9-3-2022,13-44-51,161,depth_duration_stimuli/000556_2014-06-09_22-42-56_260595134347_rgbf000214-resize_1/000556_2014-06-09_22-42-56_260595134347_rgbf000214-resize_1-target.png,250,4.8415,15,1714,246,feet,jsons/v1_VE250_randls_29_rotated.json,495207,658682,52,Man
161,290930,DepthScenes,duration_manipulation_targetAtFixation,jsons/v1_VE250_randls_29_rotated.json,http://54.235.29.9/FacialAge/BNav_EC2/DepthDuration/v2_depth_duration_MTurk/v2_DepthDuration_HTML.html#230,230,1440,900,1440,900,9-3-2022,13-44-51,162,depth_duration_stimuli/001158_2014-06-17_15-32-16_260595134347_rgbf000138-resize_2/001158_2014-06-17_15-32-16_260595134347_rgbf000138-resize_2-target.png,250,4.5315,14,2923,246,feet,jsons/v1_VE250_randls_29_rotated.json,495207,658682,52,Man
162,290930,DepthScenes,duration_manipulation_targetAtFixation,jsons/v1_VE250_randls_29_rotated.json,http://54.235.29.9/FacialAge/BNav_EC2/DepthDuration/v2_depth_duration_MTurk/v2_DepthDuration_HTML.html#230,230,1440,900,1440,900,9-3-2022,13-44-51,163,depth_duration_stimuli/003083_2014-06-15_15-21-03_094959634447_rgbf000063-resize_1/003083_2014-06-15_15-21-03_094959634447_rgbf000063-resize_1-target.png,250,4.1405,15,1980,247,feet,jsons/v1_VE250_randls_29_rotated.json,495207,658682,52,Man
163,290930,DepthScenes,duration_manipulation_targetAtFixation,jsons/v1_VE250_randls_29_rotated.json,http://54.235.29.9/FacialAge/BNav_EC2/DepthDuration/v2_depth_duration_MTurk/v2_DepthDuration_HTML.html#230,230,1440,900,1440,900,9-3-2022,13-44-51,164,depth_duration_stimuli/000486_2014-06-09_20-47-20_260595134347_rgbf000143-resize_2/000486_2014-06-09_20-47-20_260595134347_rgbf000143-resize_2-target.png,250,4.8325,13,4142,253,feet,jsons/v1_VE250_randls_29_rotated.json,495207,658682,52,Man
