,subjID,experimentName,versionName,sequenceName,url,selected_row,windowWidth,windowHeight,screenWidth,screenHeight,startDate,startTime,trial,stimulus,duration,actual_depth,depth_estimate,trial_RT,log_sceneDuration,unitSelection,seq_filepath,experimentTime,totalTime,age,gender
0,294185,DepthScenes,duration_manipulation_targetAtFixation,jsons/v1_VE1000_randls_48_rotated.json,http://54.235.29.9/FacialAge/BNav_EC2/DepthDuration/v2_depth_duration_MTurk/v2_DepthDuration_HTML.html#439,439,1364,625,1364,768,9-18-2022,10-27-11,1,depth_duration_stimuli/000709_2014-06-08_13-51-55_260595134347_rgbf000068-resize_3/000709_2014-06-08_13-51-55_260595134347_rgbf000068-resize_3-target.png,1000,1.8030000000000002,2,6204,1000,feet,jsons/v1_VE1000_randls_48_rotated.json,741416,970072,42,Woman
1,294185,DepthScenes,duration_manipulation_targetAtFixation,jsons/v1_VE1000_randls_48_rotated.json,http://54.235.29.9/FacialAge/BNav_EC2/DepthDuration/v2_depth_duration_MTurk/v2_DepthDuration_HTML.html#439,439,1364,625,1364,768,9-18-2022,10-27-11,2,depth_duration_stimuli/002057_2014-06-24_21-00-13_260595134347_rgbf000120-resize_1/002057_2014-06-24_21-00-13_260595134347_rgbf000120-resize_1-target.png,1000,2.967,1,5561,999,feet,jsons/v1_VE1000_randls_48_rotated.json,741416,970072,42,Woman
2,294185,DepthScenes,duration_manipulation_targetAtFixation,jsons/v1_VE1000_randls_48_rotated.json,http://54.235.29.9/FacialAge/BNav_EC2/DepthDuration/v2_depth_duration_MTurk/v2_DepthDuration_HTML.html#439,439,1364,625,1364,768,9-18-2022,10-27-11,3,depth_duration_stimuli/000635_2014-06-08_16-38-42_260595134347_rgbf000106-resize_1/000635_2014-06-08_16-38-42_260595134347_rgbf000106-resize_1-target.png,1000,2.074,3,5039,1000,feet,jsons/v1_VE1000_randls_48_rotated.json,741416,970072,42,Woman
3,294185,DepthScenes,duration_manipulation_targetAtFixation,jsons/v1_VE1000_randls_48_rotated.json,http://54.235.29.9/FacialAge/BNav_EC2/DepthDuration/v2_depth_duration_MTurk/v2_DepthDuration_HTML.html#439,439,1364,625,1364,768,9-18-2022,10-27-11,4,depth_duration_stimuli/002279_2014-06-28_18-55-32_260595134347_rgbf000040-resize_5/002279_2014-06-28_18-55-32_260595134347_rgbf000040-resize_5-target.png,1000,1.5043333333333,2,3920,1000,feet,jsons/v1_VE1000_randls_48_rotated.json,741416,970072,42,Woman
4,294185,DepthScenes,duration_manipulation_targetAtFixation,jsons/v1_VE1000_randls_48_rotated.json,http://54.235.29.9/FacialAge/BNav_EC2/DepthDuration/v2_depth_duration_MTurk/v2_DepthDuration_HTML.html#439,439,1364,625,1364,768,9-18-2022,10-27-11,5,depth_duration_stimuli/002758_2014-06-22_19-11-20_094959634447_rgbf000128-resize_1/002758_2014-06-22_19-11-20_094959634447_rgbf000128-resize_1-target.png,1000,2.555,3,5810,1001,feet,jsons/v1_VE1000_randls_48_rotated.json,741416,970072,42,Woman
5,294185,DepthScenes,duration_manipulation_targetAtFixation,jsons/v1_VE1000_randls_48_rotated.json,http://54.235.29.9/FacialAge/BNav_EC2/DepthDuration/v2_depth_duration_MTurk/v2_DepthDuration_HTML.html#439,439,1364,625,1364,768,9-18-2022,10-27-11,6,depth_duration_stimuli/002630_2014-06-24_14-47-50_094959634447_rgbf000055-resize_1/002630_2014-06-24_14-47-50_094959634447_rgbf000055-resize_1-target.png,1000,3.0095,2,5174,999,feet,jsons/v1_VE1000_randls_48_rotated.json,741416,970072,42,Woman
6,294185,DepthScenes,duration_manipulation_targetAtFixation,jsons/v1_VE1000_randls_48_rotated.json,http://54.235.29.9/FacialAge/BNav_EC2/DepthDuration/v2_depth_duration_MTurk/v2_DepthDuration_HTML.html#439,439,1364,625,1364,768,9-18-2022,10-27-11,7,depth_duration_stimuli/003228_2014-05-14_13-42-35_094959634447_rgbf000101-resize_1/003228_2014-05-14_13-42-35_094959634447_rgbf000101-resize_1-target.png,1000,1.9680000000000002,1,4463,999,feet,jsons/v1_VE1000_randls_48_rotated.json,741416,970072,42,Woman
7,294185,DepthScenes,duration_manipulation_targetAtFixation,jsons/v1_VE1000_randls_48_rotated.json,http://54.235.29.9/FacialAge/BNav_EC2/DepthDuration/v2_depth_duration_MTurk/v2_DepthDuration_HTML.html#439,439,1364,625,1364,768,9-18-2022,10-27-11,8,depth_duration_stimuli/002600_2014-06-24_14-27-04_094959634447_rgbf000074-resize_2/002600_2014-06-24_14-27-04_094959634447_rgbf000074-resize_2-target.png,1000,2.7575,2,4381,1000,feet,jsons/v1_VE1000_randls_48_rotated.json,741416,970072,42,Woman
8,294185,DepthScenes,duration_manipulation_targetAtFixation,jsons/v1_VE1000_randls_48_rotated.json,http://54.235.29.9/FacialAge/BNav_EC2/DepthDuration/v2_depth_duration_MTurk/v2_DepthDuration_HTML.html#439,439,1364,625,1364,768,9-18-2022,10-27-11,9,depth_duration_stimuli/001447_2014-06-19_17-00-32_260595134347_rgbf000082-resize_5/001447_2014-06-19_17-00-32_260595134347_rgbf000082-resize_5-target.png,1000,4.13775,3,5133,1001,feet,jsons/v1_VE1000_randls_48_rotated.json,741416,970072,42,Woman
9,294185,DepthScenes,duration_manipulation_targetAtFixation,jsons/v1_VE1000_randls_48_rotated.json,http://54.235.29.9/FacialAge/BNav_EC2/DepthDuration/v2_depth_duration_MTurk/v2_DepthDuration_HTML.html#439,439,1364,625,1364,768,9-18-2022,10-27-11,10,depth_duration_stimuli/000447_2014-06-08_16-15-46_260595134347_rgbf000130-resize_1/000447_2014-06-08_16-15-46_260595134347_rgbf000130-resize_1-target.png,1000,4.479,2,5657,1000,feet,jsons/v1_VE1000_randls_48_rotated.json,741416,970072,42,Woman
10,294185,DepthScenes,duration_manipulation_targetAtFixation,jsons/v1_VE1000_randls_48_rotated.json,http://54.235.29.9/FacialAge/BNav_EC2/DepthDuration/v2_depth_duration_MTurk/v2_DepthDuration_HTML.html#439,439,1364,625,1364,768,9-18-2022,10-27-11,11,depth_duration_stimuli/000691_2014-06-08_13-08-50_260595134347_rgbf000132-resize_3/000691_2014-06-08_13-08-50_260595134347_rgbf000132-resize_3-target.png,1000,4.1530000000000005,3,6028,1000,feet,jsons/v1_VE1000_randls_48_rotated.json,741416,970072,42,Woman
11,294185,DepthScenes,duration_manipulation_targetAtFixation,jsons/v1_VE1000_randls_48_rotated.json,http://54.235.29.9/FacialAge/BNav_EC2/DepthDuration/v2_depth_duration_MTurk/v2_DepthDuration_HTML.html#439,439,1364,625,1364,768,9-18-2022,10-27-11,12,depth_duration_stimuli/002213_2014-06-28_18-37-58_260595134347_rgbf000055-resize_1/002213_2014-06-28_18-37-58_260595134347_rgbf000055-resize_1-target.png,1000,3.62,3,4283,1000,feet,jsons/v1_VE1000_randls_48_rotated.json,741416,970072,42,Woman
12,294185,DepthScenes,duration_manipulation_targetAtFixation,jsons/v1_VE1000_randls_48_rotated.json,http://54.235.29.9/FacialAge/BNav_EC2/DepthDuration/v2_depth_duration_MTurk/v2_DepthDuration_HTML.html#439,439,1364,625,1364,768,9-18-2022,10-27-11,13,depth_duration_stimuli/003423_2014-05-21_10-23-26_094959634447_rgbf002665-resize_2/003423_2014-05-21_10-23-26_094959634447_rgbf002665-resize_2-target.png,1000,3.2575,3,4867,999,feet,jsons/v1_VE1000_randls_48_rotated.json,741416,970072,42,Woman
13,294185,DepthScenes,duration_manipulation_targetAtFixation,jsons/v1_VE1000_randls_48_rotated.json,http://54.235.29.9/FacialAge/BNav_EC2/DepthDuration/v2_depth_duration_MTurk/v2_DepthDuration_HTML.html#439,439,1364,625,1364,768,9-18-2022,10-27-11,14,depth_duration_stimuli/002905_2014-06-03_18-04-43_094959634447_rgbf000151-resize_2/002905_2014-06-03_18-04-43_094959634447_rgbf000151-resize_2-target.png,1000,2.0295,2,3588,1000,feet,jsons/v1_VE1000_randls_48_rotated.json,741416,970072,42,Woman
14,294185,DepthScenes,duration_manipulation_targetAtFixation,jsons/v1_VE1000_randls_48_rotated.json,http://54.235.29.9/FacialAge/BNav_EC2/DepthDuration/v2_depth_duration_MTurk/v2_DepthDuration_HTML.html#439,439,1364,625,1364,768,9-18-2022,10-27-11,15,depth_duration_stimuli/001052_2014-06-08_18-24-54_260595134347_rgbf000130-resize_1/001052_2014-06-08_18-24-54_260595134347_rgbf000130-resize_1-target.png,1000,4.1045,2,4216,1000,feet,jsons/v1_VE1000_randls_48_rotated.json,741416,970072,42,Woman
15,294185,DepthScenes,duration_manipulation_targetAtFixation,jsons/v1_VE1000_randls_48_rotated.json,http://54.235.29.9/FacialAge/BNav_EC2/DepthDuration/v2_depth_duration_MTurk/v2_DepthDuration_HTML.html#439,439,1364,625,1364,768,9-18-2022,10-27-11,16,depth_duration_stimuli/002988_2014-06-15_12-24-20_094959634447_rgbf000150-resize_1/002988_2014-06-15_12-24-20_094959634447_rgbf000150-resize_1-target.png,1000,4.7669999999999995,3,3765,999,feet,jsons/v1_VE1000_randls_48_rotated.json,741416,970072,42,Woman
16,294185,DepthScenes,duration_manipulation_targetAtFixation,jsons/v1_VE1000_randls_48_rotated.json,http://54.235.29.9/FacialAge/BNav_EC2/DepthDuration/v2_depth_duration_MTurk/v2_DepthDuration_HTML.html#439,439,1364,625,1364,768,9-18-2022,10-27-11,17,depth_duration_stimuli/001450_2014-06-19_17-02-03_260595134347_rgbf000203-resize_4/001450_2014-06-19_17-02-03_260595134347_rgbf000203-resize_4-target.png,1000,4.0106666666667,3,4888,1001,feet,jsons/v1_VE1000_randls_48_rotated.json,741416,970072,42,Woman
17,294185,DepthScenes,duration_manipulation_targetAtFixation,jsons/v1_VE1000_randls_48_rotated.json,http://54.235.29.9/FacialAge/BNav_EC2/DepthDuration/v2_depth_duration_MTurk/v2_DepthDuration_HTML.html#439,439,1364,625,1364,768,9-18-2022,10-27-11,18,depth_duration_stimuli/001449_2014-06-19_17-01-27_260595134347_rgbf000116-resize_2/001449_2014-06-19_17-01-27_260595134347_rgbf000116-resize_2-target.png,1000,3.452,2,3856,1000,feet,jsons/v1_VE1000_randls_48_rotated.json,741416,970072,42,Woman
18,294185,DepthScenes,duration_manipulation_targetAtFixation,jsons/v1_VE1000_randls_48_rotated.json,http://54.235.29.9/FacialAge/BNav_EC2/DepthDuration/v2_depth_duration_MTurk/v2_DepthDuration_HTML.html#439,439,1364,625,1364,768,9-18-2022,10-27-11,19,depth_duration_stimuli/001498_2014-06-19_17-45-14_260595134347_rgbf000129-resize_4/001498_2014-06-19_17-45-14_260595134347_rgbf000129-resize-original.jpg,1000,1.4075,1,4771,1011,feet,jsons/v1_VE1000_randls_48_rotated.json,741416,970072,42,Woman
19,294185,DepthScenes,duration_manipulation_targetAtFixation,jsons/v1_VE1000_randls_48_rotated.json,http://54.235.29.9/FacialAge/BNav_EC2/DepthDuration/v2_depth_duration_MTurk/v2_DepthDuration_HTML.html#439,439,1364,625,1364,768,9-18-2022,10-27-11,20,depth_duration_stimuli/002805_2014-06-22_19-54-03_094959634447_rgbf000079-resize_1/002805_2014-06-22_19-54-03_094959634447_rgbf000079-resize_1-target.png,1000,3.1439999999999997,3,6434,999,feet,jsons/v1_VE1000_randls_48_rotated.json,741416,970072,42,Woman
20,294185,DepthScenes,duration_manipulation_targetAtFixation,jsons/v1_VE1000_randls_48_rotated.json,http://54.235.29.9/FacialAge/BNav_EC2/DepthDuration/v2_depth_duration_MTurk/v2_DepthDuration_HTML.html#439,439,1364,625,1364,768,9-18-2022,10-27-11,21,depth_duration_stimuli/000906_2014-06-08_13-35-43_260595134347_rgbf000155-resize_1/000906_2014-06-08_13-35-43_260595134347_rgbf000155-resize_1-target.png,1000,2.8489999999999998,2,3717,1000,feet,jsons/v1_VE1000_randls_48_rotated.json,741416,970072,42,Woman
21,294185,DepthScenes,duration_manipulation_targetAtFixation,jsons/v1_VE1000_randls_48_rotated.json,http://54.235.29.9/FacialAge/BNav_EC2/DepthDuration/v2_depth_duration_MTurk/v2_DepthDuration_HTML.html#439,439,1364,625,1364,768,9-18-2022,10-27-11,22,depth_duration_stimuli/002949_2014-06-26_15-57-42_094959634447_rgbf000079-resize_1/002949_2014-06-26_15-57-42_094959634447_rgbf000079-resize_1-target.png,1000,1.8915,2,3842,999,feet,jsons/v1_VE1000_randls_48_rotated.json,741416,970072,42,Woman
22,294185,DepthScenes,duration_manipulation_targetAtFixation,jsons/v1_VE1000_randls_48_rotated.json,http://54.235.29.9/FacialAge/BNav_EC2/DepthDuration/v2_depth_duration_MTurk/v2_DepthDuration_HTML.html#439,439,1364,625,1364,768,9-18-2022,10-27-11,23,depth_duration_stimuli/000522_2014-06-08_13-35-06_260595134347_rgbf000244-resize_1/000522_2014-06-08_13-35-06_260595134347_rgbf000244-resize_1-target.png,1000,2.3715,1,4275,1000,feet,jsons/v1_VE1000_randls_48_rotated.json,741416,970072,42,Woman
23,294185,DepthScenes,duration_manipulation_targetAtFixation,jsons/v1_VE1000_randls_48_rotated.json,http://54.235.29.9/FacialAge/BNav_EC2/DepthDuration/v2_depth_duration_MTurk/v2_DepthDuration_HTML.html#439,439,1364,625,1364,768,9-18-2022,10-27-11,24,depth_duration_stimuli/000665_2014-06-09_20-42-35_260595134347_rgbf000110-resize_1/000665_2014-06-09_20-42-35_260595134347_rgbf000110-resize_1-target.png,1000,3.057,2,4177,999,feet,jsons/v1_VE1000_randls_48_rotated.json,741416,970072,42,Woman
24,294185,DepthScenes,duration_manipulation_targetAtFixation,jsons/v1_VE1000_randls_48_rotated.json,http://54.235.29.9/FacialAge/BNav_EC2/DepthDuration/v2_depth_duration_MTurk/v2_DepthDuration_HTML.html#439,439,1364,625,1364,768,9-18-2022,10-27-11,25,depth_duration_stimuli/001150_2014-06-17_15-27-34_260595134347_rgbf000108-resize_2/001150_2014-06-17_15-27-34_260595134347_rgbf000108-resize_2-target.png,1000,4.0325,3,3873,999,feet,jsons/v1_VE1000_randls_48_rotated.json,741416,970072,42,Woman
25,294185,DepthScenes,duration_manipulation_targetAtFixation,jsons/v1_VE1000_randls_48_rotated.json,http://54.235.29.9/FacialAge/BNav_EC2/DepthDuration/v2_depth_duration_MTurk/v2_DepthDuration_HTML.html#439,439,1364,625,1364,768,9-18-2022,10-27-11,26,depth_duration_stimuli/001617_2014-06-20_11-35-32_260595134347_rgbf000066-resize_1/001617_2014-06-20_11-35-32_260595134347_rgbf000066-resize_1-target.png,1000,3.7910000000000004,3,5132,1003,feet,jsons/v1_VE1000_randls_48_rotated.json,741416,970072,42,Woman
26,294185,DepthScenes,duration_manipulation_targetAtFixation,jsons/v1_VE1000_randls_48_rotated.json,http://54.235.29.9/FacialAge/BNav_EC2/DepthDuration/v2_depth_duration_MTurk/v2_DepthDuration_HTML.html#439,439,1364,625,1364,768,9-18-2022,10-27-11,27,depth_duration_stimuli/001806_2014-06-26_20-50-20_260595134347_rgbf000091-resize_1/001806_2014-06-26_20-50-20_260595134347_rgbf000091-resize_1-target.png,1000,2.7305,1,3516,1000,feet,jsons/v1_VE1000_randls_48_rotated.json,741416,970072,42,Woman
27,294185,DepthScenes,duration_manipulation_targetAtFixation,jsons/v1_VE1000_randls_48_rotated.json,http://54.235.29.9/FacialAge/BNav_EC2/DepthDuration/v2_depth_duration_MTurk/v2_DepthDuration_HTML.html#439,439,1364,625,1364,768,9-18-2022,10-27-11,28,depth_duration_stimuli/003495_2014-05-21_16-01-51_094959634447_rgbf000100-resize_3/003495_2014-05-21_16-01-51_094959634447_rgbf000100-resize_3-target.png,1000,1.6255,1,4395,1001,feet,jsons/v1_VE1000_randls_48_rotated.json,741416,970072,42,Woman
28,294185,DepthScenes,duration_manipulation_targetAtFixation,jsons/v1_VE1000_randls_48_rotated.json,http://54.235.29.9/FacialAge/BNav_EC2/DepthDuration/v2_depth_duration_MTurk/v2_DepthDuration_HTML.html#439,439,1364,625,1364,768,9-18-2022,10-27-11,29,depth_duration_stimuli/001244_2014-06-17_16-47-45_260595134347_rgbf000030-resize_4/001244_2014-06-17_16-47-45_260595134347_rgbf000030-resize_4-target.png,1000,2.0425,2,3410,1001,feet,jsons/v1_VE1000_randls_48_rotated.json,741416,970072,42,Woman
29,294185,DepthScenes,duration_manipulation_targetAtFixation,jsons/v1_VE1000_randls_48_rotated.json,http://54.235.29.9/FacialAge/BNav_EC2/DepthDuration/v2_depth_duration_MTurk/v2_DepthDuration_HTML.html#439,439,1364,625,1364,768,9-18-2022,10-27-11,30,depth_duration_stimuli/002072_2014-06-24_21-48-06_260595134347_rgbf000115-resize_0/002072_2014-06-24_21-48-06_260595134347_rgbf000115-resize-original.jpg,1000,4.702,0,4580,1000,feet,jsons/v1_VE1000_randls_48_rotated.json,741416,970072,42,Woman
30,294185,DepthScenes,duration_manipulation_targetAtFixation,jsons/v1_VE1000_randls_48_rotated.json,http://54.235.29.9/FacialAge/BNav_EC2/DepthDuration/v2_depth_duration_MTurk/v2_DepthDuration_HTML.html#439,439,1364,625,1364,768,9-18-2022,10-27-11,31,depth_duration_stimuli/002657_2014-06-13_15-29-54_094959634447_rgbf000150-resize_1/002657_2014-06-13_15-29-54_094959634447_rgbf000150-resize_1-target.png,1000,4.919,2,4242,999,feet,jsons/v1_VE1000_randls_48_rotated.json,741416,970072,42,Woman
31,294185,DepthScenes,duration_manipulation_targetAtFixation,jsons/v1_VE1000_randls_48_rotated.json,http://54.235.29.9/FacialAge/BNav_EC2/DepthDuration/v2_depth_duration_MTurk/v2_DepthDuration_HTML.html#439,439,1364,625,1364,768,9-18-2022,10-27-11,32,depth_duration_stimuli/002375_2014-06-28_20-13-44_260595134347_rgbf000032-resize_1/002375_2014-06-28_20-13-44_260595134347_rgbf000032-resize_1-target.png,1000,4.0175,2,3972,1001,feet,jsons/v1_VE1000_randls_48_rotated.json,741416,970072,42,Woman
32,294185,DepthScenes,duration_manipulation_targetAtFixation,jsons/v1_VE1000_randls_48_rotated.json,http://54.235.29.9/FacialAge/BNav_EC2/DepthDuration/v2_depth_duration_MTurk/v2_DepthDuration_HTML.html#439,439,1364,625,1364,768,9-18-2022,10-27-11,33,depth_duration_stimuli/003010_2014-06-15_12-54-35_094959634447_rgbf000112-resize_0/003010_2014-06-15_12-54-35_094959634447_rgbf000112-resize_0-target.png,1000,3.1185,3,4445,1000,feet,jsons/v1_VE1000_randls_48_rotated.json,741416,970072,42,Woman
33,294185,DepthScenes,duration_manipulation_targetAtFixation,jsons/v1_VE1000_randls_48_rotated.json,http://54.235.29.9/FacialAge/BNav_EC2/DepthDuration/v2_depth_duration_MTurk/v2_DepthDuration_HTML.html#439,439,1364,625,1364,768,9-18-2022,10-27-11,34,depth_duration_stimuli/001810_2014-06-26_20-51-35_260595134347_rgbf000040-resize_3/001810_2014-06-26_20-51-35_260595134347_rgbf000040-resize_3-target.png,1000,2.2525,2,3690,1000,feet,jsons/v1_VE1000_randls_48_rotated.json,741416,970072,42,Woman
34,294185,DepthScenes,duration_manipulation_targetAtFixation,jsons/v1_VE1000_randls_48_rotated.json,http://54.235.29.9/FacialAge/BNav_EC2/DepthDuration/v2_depth_duration_MTurk/v2_DepthDuration_HTML.html#439,439,1364,625,1364,768,9-18-2022,10-27-11,35,depth_duration_stimuli/001516_2014-06-20_16-25-09_260595134347_rgbf000076-resize_2/001516_2014-06-20_16-25-09_260595134347_rgbf000076-resize_2-target.png,1000,1.7445,2,3964,1000,feet,jsons/v1_VE1000_randls_48_rotated.json,741416,970072,42,Woman
35,294185,DepthScenes,duration_manipulation_targetAtFixation,jsons/v1_VE1000_randls_48_rotated.json,http://54.235.29.9/FacialAge/BNav_EC2/DepthDuration/v2_depth_duration_MTurk/v2_DepthDuration_HTML.html#439,439,1364,625,1364,768,9-18-2022,10-27-11,36,depth_duration_stimuli/002118_2014-06-25_20-32-08_260595134347_rgbf000078-resize_1/002118_2014-06-25_20-32-08_260595134347_rgbf000078-resize_1-target.png,1000,2.6460000000000004,2,5923,1000,feet,jsons/v1_VE1000_randls_48_rotated.json,741416,970072,42,Woman
36,294185,DepthScenes,duration_manipulation_targetAtFixation,jsons/v1_VE1000_randls_48_rotated.json,http://54.235.29.9/FacialAge/BNav_EC2/DepthDuration/v2_depth_duration_MTurk/v2_DepthDuration_HTML.html#439,439,1364,625,1364,768,9-18-2022,10-27-11,37,depth_duration_stimuli/000854_2014-06-09_19-43-13_260595134347_rgbf000066-resize_0/000854_2014-06-09_19-43-13_260595134347_rgbf000066-resize_0-target.png,1000,3.068,2,4071,1000,feet,jsons/v1_VE1000_randls_48_rotated.json,741416,970072,42,Woman
37,294185,DepthScenes,duration_manipulation_targetAtFixation,jsons/v1_VE1000_randls_48_rotated.json,http://54.235.29.9/FacialAge/BNav_EC2/DepthDuration/v2_depth_duration_MTurk/v2_DepthDuration_HTML.html#439,439,1364,625,1364,768,9-18-2022,10-27-11,38,depth_duration_stimuli/000758_2014-06-08_22-05-08_260595134347_rgbf000085-resize_0/000758_2014-06-08_22-05-08_260595134347_rgbf000085-resize_0-target.png,1000,3.3810000000000002,3,4180,998,feet,jsons/v1_VE1000_randls_48_rotated.json,741416,970072,42,Woman
38,294185,DepthScenes,duration_manipulation_targetAtFixation,jsons/v1_VE1000_randls_48_rotated.json,http://54.235.29.9/FacialAge/BNav_EC2/DepthDuration/v2_depth_duration_MTurk/v2_DepthDuration_HTML.html#439,439,1364,625,1364,768,9-18-2022,10-27-11,39,depth_duration_stimuli/000483_2014-06-09_20-41-45_260595134347_rgbf000116-resize_4/000483_2014-06-09_20-41-45_260595134347_rgbf000116-resize_4-target.png,1000,1.337,1,4292,1001,feet,jsons/v1_VE1000_randls_48_rotated.json,741416,970072,42,Woman
39,294185,DepthScenes,duration_manipulation_targetAtFixation,jsons/v1_VE1000_randls_48_rotated.json,http://54.235.29.9/FacialAge/BNav_EC2/DepthDuration/v2_depth_duration_MTurk/v2_DepthDuration_HTML.html#439,439,1364,625,1364,768,9-18-2022,10-27-11,40,depth_duration_stimuli/000469_2014-06-09_19-42-10_260595134347_rgbf000081-resize_1/000469_2014-06-09_19-42-10_260595134347_rgbf000081-resize_1-target.png,1000,1.652,2,3428,1001,feet,jsons/v1_VE1000_randls_48_rotated.json,741416,970072,42,Woman
40,294185,DepthScenes,duration_manipulation_targetAtFixation,jsons/v1_VE1000_randls_48_rotated.json,http://54.235.29.9/FacialAge/BNav_EC2/DepthDuration/v2_depth_duration_MTurk/v2_DepthDuration_HTML.html#439,439,1364,625,1364,768,9-18-2022,10-27-11,41,depth_duration_stimuli/000502_2014-06-08_23-02-32_260595134347_rgbf000063-resize_4/000502_2014-06-08_23-02-32_260595134347_rgbf000063-resize_4-target.png,1000,2.431,2,4139,999,feet,jsons/v1_VE1000_randls_48_rotated.json,741416,970072,42,Woman
41,294185,DepthScenes,duration_manipulation_targetAtFixation,jsons/v1_VE1000_randls_48_rotated.json,http://54.235.29.9/FacialAge/BNav_EC2/DepthDuration/v2_depth_duration_MTurk/v2_DepthDuration_HTML.html#439,439,1364,625,1364,768,9-18-2022,10-27-11,42,depth_duration_stimuli/001199_2014-06-17_16-03-48_260595134347_rgbf000077-resize_0/001199_2014-06-17_16-03-48_260595134347_rgbf000077-resize_0-target.png,1000,3.4375,3,4107,999,feet,jsons/v1_VE1000_randls_48_rotated.json,741416,970072,42,Woman
42,294185,DepthScenes,duration_manipulation_targetAtFixation,jsons/v1_VE1000_randls_48_rotated.json,http://54.235.29.9/FacialAge/BNav_EC2/DepthDuration/v2_depth_duration_MTurk/v2_DepthDuration_HTML.html#439,439,1364,625,1364,768,9-18-2022,10-27-11,43,depth_duration_stimuli/002637_2014-06-24_14-51-13_094959634447_rgbf000066-resize_4/002637_2014-06-24_14-51-13_094959634447_rgbf000066-resize_4-target.png,1000,1.9955,2,3920,999,feet,jsons/v1_VE1000_randls_48_rotated.json,741416,970072,42,Woman
43,294185,DepthScenes,duration_manipulation_targetAtFixation,jsons/v1_VE1000_randls_48_rotated.json,http://54.235.29.9/FacialAge/BNav_EC2/DepthDuration/v2_depth_duration_MTurk/v2_DepthDuration_HTML.html#439,439,1364,625,1364,768,9-18-2022,10-27-11,44,depth_duration_stimuli/003534_2014-05-22_15-06-10_094959634447_rgbf000102-resize_4/003534_2014-05-22_15-06-10_094959634447_rgbf000102-resize_4-target.png,1000,1.426,1,3918,1000,feet,jsons/v1_VE1000_randls_48_rotated.json,741416,970072,42,Woman
44,294185,DepthScenes,duration_manipulation_targetAtFixation,jsons/v1_VE1000_randls_48_rotated.json,http://54.235.29.9/FacialAge/BNav_EC2/DepthDuration/v2_depth_duration_MTurk/v2_DepthDuration_HTML.html#439,439,1364,625,1364,768,9-18-2022,10-27-11,45,depth_duration_stimuli/002103_2014-06-25_20-00-40_260595134347_rgbf000049-resize_0/002103_2014-06-25_20-00-40_260595134347_rgbf000049-resize_0-target.png,1000,4.105,2,4075,1000,feet,jsons/v1_VE1000_randls_48_rotated.json,741416,970072,42,Woman
45,294185,DepthScenes,duration_manipulation_targetAtFixation,jsons/v1_VE1000_randls_48_rotated.json,http://54.235.29.9/FacialAge/BNav_EC2/DepthDuration/v2_depth_duration_MTurk/v2_DepthDuration_HTML.html#439,439,1364,625,1364,768,9-18-2022,10-27-11,46,depth_duration_stimuli/002039_2014-06-24_20-22-38_260595134347_rgbf000084-resize_1/002039_2014-06-24_20-22-38_260595134347_rgbf000084-resize_1-target.png,1000,4.408,3,3541,999,feet,jsons/v1_VE1000_randls_48_rotated.json,741416,970072,42,Woman
46,294185,DepthScenes,duration_manipulation_targetAtFixation,jsons/v1_VE1000_randls_48_rotated.json,http://54.235.29.9/FacialAge/BNav_EC2/DepthDuration/v2_depth_duration_MTurk/v2_DepthDuration_HTML.html#439,439,1364,625,1364,768,9-18-2022,10-27-11,47,depth_duration_stimuli/003048_2014-06-15_13-49-43_094959634447_rgbf000150-resize_1/003048_2014-06-15_13-49-43_094959634447_rgbf000150-resize_1-target.png,1000,4.0035,2,3647,998,feet,jsons/v1_VE1000_randls_48_rotated.json,741416,970072,42,Woman
47,294185,DepthScenes,duration_manipulation_targetAtFixation,jsons/v1_VE1000_randls_48_rotated.json,http://54.235.29.9/FacialAge/BNav_EC2/DepthDuration/v2_depth_duration_MTurk/v2_DepthDuration_HTML.html#439,439,1364,625,1364,768,9-18-2022,10-27-11,48,depth_duration_stimuli/002043_2014-06-24_20-29-38_260595134347_rgbf000039-resize_4/002043_2014-06-24_20-29-38_260595134347_rgbf000039-resize_4-target.png,1000,2.8435,3,4307,999,feet,jsons/v1_VE1000_randls_48_rotated.json,741416,970072,42,Woman
48,294185,DepthScenes,duration_manipulation_targetAtFixation,jsons/v1_VE1000_randls_48_rotated.json,http://54.235.29.9/FacialAge/BNav_EC2/DepthDuration/v2_depth_duration_MTurk/v2_DepthDuration_HTML.html#439,439,1364,625,1364,768,9-18-2022,10-27-11,49,depth_duration_stimuli/001170_2014-06-17_15-43-44_260595134347_rgbf000096-resize_6/001170_2014-06-17_15-43-44_260595134347_rgbf000096-resize-original.jpg,1000,1.1909999999999998,0,4155,1000,feet,jsons/v1_VE1000_randls_48_rotated.json,741416,970072,42,Woman
49,294185,DepthScenes,duration_manipulation_targetAtFixation,jsons/v1_VE1000_randls_48_rotated.json,http://54.235.29.9/FacialAge/BNav_EC2/DepthDuration/v2_depth_duration_MTurk/v2_DepthDuration_HTML.html#439,439,1364,625,1364,768,9-18-2022,10-27-11,50,depth_duration_stimuli/002136_2014-06-25_21-18-03_260595134347_rgbf000109-resize_3/002136_2014-06-25_21-18-03_260595134347_rgbf000109-resize_3-target.png,1000,1.9569999999999999,2,5019,1001,feet,jsons/v1_VE1000_randls_48_rotated.json,741416,970072,42,Woman
50,294185,DepthScenes,duration_manipulation_targetAtFixation,jsons/v1_VE1000_randls_48_rotated.json,http://54.235.29.9/FacialAge/BNav_EC2/DepthDuration/v2_depth_duration_MTurk/v2_DepthDuration_HTML.html#439,439,1364,625,1364,768,9-18-2022,10-27-11,51,depth_duration_stimuli/002964_2014-06-08_17-46-11_094959634447_rgbf000091-resize_4/002964_2014-06-08_17-46-11_094959634447_rgbf000091-resize_4-target.png,1000,1.6909999999999998,1,3829,1000,feet,jsons/v1_VE1000_randls_48_rotated.json,741416,970072,42,Woman
51,294185,DepthScenes,duration_manipulation_targetAtFixation,jsons/v1_VE1000_randls_48_rotated.json,http://54.235.29.9/FacialAge/BNav_EC2/DepthDuration/v2_depth_duration_MTurk/v2_DepthDuration_HTML.html#439,439,1364,625,1364,768,9-18-2022,10-27-11,52,depth_duration_stimuli/002425_2014-06-28_20-27-29_260595134347_rgbf000031-resize_8/002425_2014-06-28_20-27-29_260595134347_rgbf000031-resize_8-target.png,1000,3.8960000000000004,2,3617,999,feet,jsons/v1_VE1000_randls_48_rotated.json,741416,970072,42,Woman
52,294185,DepthScenes,duration_manipulation_targetAtFixation,jsons/v1_VE1000_randls_48_rotated.json,http://54.235.29.9/FacialAge/BNav_EC2/DepthDuration/v2_depth_duration_MTurk/v2_DepthDuration_HTML.html#439,439,1364,625,1364,768,9-18-2022,10-27-11,53,depth_duration_stimuli/000642_2014-06-08_16-59-25_260595134347_rgbf000098-resize_2/000642_2014-06-08_16-59-25_260595134347_rgbf000098-resize_2-target.png,1000,2.8815,2,3268,999,feet,jsons/v1_VE1000_randls_48_rotated.json,741416,970072,42,Woman
53,294185,DepthScenes,duration_manipulation_targetAtFixation,jsons/v1_VE1000_randls_48_rotated.json,http://54.235.29.9/FacialAge/BNav_EC2/DepthDuration/v2_depth_duration_MTurk/v2_DepthDuration_HTML.html#439,439,1364,625,1364,768,9-18-2022,10-27-11,54,depth_duration_stimuli/000109_2014-05-14_23-41-52_260595134347_rgbf000035-resize_9/000109_2014-05-14_23-41-52_260595134347_rgbf000035-resize_9-target.png,1000,1.3545,2,3693,999,feet,jsons/v1_VE1000_randls_48_rotated.json,741416,970072,42,Woman
54,294185,DepthScenes,duration_manipulation_targetAtFixation,jsons/v1_VE1000_randls_48_rotated.json,http://54.235.29.9/FacialAge/BNav_EC2/DepthDuration/v2_depth_duration_MTurk/v2_DepthDuration_HTML.html#439,439,1364,625,1364,768,9-18-2022,10-27-11,55,depth_duration_stimuli/000470_2014-06-09_19-42-40_260595134347_rgbf000094-resize_1/000470_2014-06-09_19-42-40_260595134347_rgbf000094-resize_1-target.png,1000,1.831,2,3235,998,feet,jsons/v1_VE1000_randls_48_rotated.json,741416,970072,42,Woman
55,294185,DepthScenes,duration_manipulation_targetAtFixation,jsons/v1_VE1000_randls_48_rotated.json,http://54.235.29.9/FacialAge/BNav_EC2/DepthDuration/v2_depth_duration_MTurk/v2_DepthDuration_HTML.html#439,439,1364,625,1364,768,9-18-2022,10-27-11,56,depth_duration_stimuli/002953_2014-06-08_17-32-18_094959634447_rgbf000059-resize_5/002953_2014-06-08_17-32-18_094959634447_rgbf000059-resize_5-target.png,1000,1.551,2,3331,1000,feet,jsons/v1_VE1000_randls_48_rotated.json,741416,970072,42,Woman
56,294185,DepthScenes,duration_manipulation_targetAtFixation,jsons/v1_VE1000_randls_48_rotated.json,http://54.235.29.9/FacialAge/BNav_EC2/DepthDuration/v2_depth_duration_MTurk/v2_DepthDuration_HTML.html#439,439,1364,625,1364,768,9-18-2022,10-27-11,57,depth_duration_stimuli/000878_2014-06-08_22-52-45_260595134347_rgbf000045-resize_2/000878_2014-06-08_22-52-45_260595134347_rgbf000045-resize_2-target.png,1000,2.092,2,3044,1001,feet,jsons/v1_VE1000_randls_48_rotated.json,741416,970072,42,Woman
57,294185,DepthScenes,duration_manipulation_targetAtFixation,jsons/v1_VE1000_randls_48_rotated.json,http://54.235.29.9/FacialAge/BNav_EC2/DepthDuration/v2_depth_duration_MTurk/v2_DepthDuration_HTML.html#439,439,1364,625,1364,768,9-18-2022,10-27-11,58,depth_duration_stimuli/003079_2014-06-15_15-18-20_094959634447_rgbf000152-resize_8/003079_2014-06-15_15-18-20_094959634447_rgbf000152-resize_8-target.png,1000,2.8775,3,4201,1001,feet,jsons/v1_VE1000_randls_48_rotated.json,741416,970072,42,Woman
58,294185,DepthScenes,duration_manipulation_targetAtFixation,jsons/v1_VE1000_randls_48_rotated.json,http://54.235.29.9/FacialAge/BNav_EC2/DepthDuration/v2_depth_duration_MTurk/v2_DepthDuration_HTML.html#439,439,1364,625,1364,768,9-18-2022,10-27-11,59,depth_duration_stimuli/000506_2014-06-08_23-21-00_260595134347_rgbf000070-resize_7/000506_2014-06-08_23-21-00_260595134347_rgbf000070-resize_7-target.png,1000,4.0585,3,3435,1000,feet,jsons/v1_VE1000_randls_48_rotated.json,741416,970072,42,Woman
59,294185,DepthScenes,duration_manipulation_targetAtFixation,jsons/v1_VE1000_randls_48_rotated.json,http://54.235.29.9/FacialAge/BNav_EC2/DepthDuration/v2_depth_duration_MTurk/v2_DepthDuration_HTML.html#439,439,1364,625,1364,768,9-18-2022,10-27-11,60,depth_duration_stimuli/001828_2014-06-26_21-40-03_260595134347_rgbf000024-resize_0/001828_2014-06-26_21-40-03_260595134347_rgbf000024-resize_0-target.png,1000,4.8260000000000005,3,3378,1000,feet,jsons/v1_VE1000_randls_48_rotated.json,741416,970072,42,Woman
60,294185,DepthScenes,duration_manipulation_targetAtFixation,jsons/v1_VE1000_randls_48_rotated.json,http://54.235.29.9/FacialAge/BNav_EC2/DepthDuration/v2_depth_duration_MTurk/v2_DepthDuration_HTML.html#439,439,1364,625,1364,768,9-18-2022,10-27-11,61,depth_duration_stimuli/000009_2014-05-26_14-32-05_260595134347_rgbf000034-resize_3/000009_2014-05-26_14-32-05_260595134347_rgbf000034-resize_3-target.png,1000,3.8715,3,3021,1000,feet,jsons/v1_VE1000_randls_48_rotated.json,741416,970072,42,Woman
61,294185,DepthScenes,duration_manipulation_targetAtFixation,jsons/v1_VE1000_randls_48_rotated.json,http://54.235.29.9/FacialAge/BNav_EC2/DepthDuration/v2_depth_duration_MTurk/v2_DepthDuration_HTML.html#439,439,1364,625,1364,768,9-18-2022,10-27-11,62,depth_duration_stimuli/000734_2014-06-08_17-39-11_260595134347_rgbf000128-resize_2/000734_2014-06-08_17-39-11_260595134347_rgbf000128-resize_2-target.png,1000,4.098,2,3529,1000,feet,jsons/v1_VE1000_randls_48_rotated.json,741416,970072,42,Woman
62,294185,DepthScenes,duration_manipulation_targetAtFixation,jsons/v1_VE1000_randls_48_rotated.json,http://54.235.29.9/FacialAge/BNav_EC2/DepthDuration/v2_depth_duration_MTurk/v2_DepthDuration_HTML.html#439,439,1364,625,1364,768,9-18-2022,10-27-11,63,depth_duration_stimuli/000739_2014-06-08_18-45-58_260595134347_rgbf000068-resize_1/000739_2014-06-08_18-45-58_260595134347_rgbf000068-resize_1-target.png,1000,3.534,3,3673,1001,feet,jsons/v1_VE1000_randls_48_rotated.json,741416,970072,42,Woman
63,294185,DepthScenes,duration_manipulation_targetAtFixation,jsons/v1_VE1000_randls_48_rotated.json,http://54.235.29.9/FacialAge/BNav_EC2/DepthDuration/v2_depth_duration_MTurk/v2_DepthDuration_HTML.html#439,439,1364,625,1364,768,9-18-2022,10-27-11,64,depth_duration_stimuli/002340_2014-06-28_20-05-46_260595134347_rgbf000113-resize_0/002340_2014-06-28_20-05-46_260595134347_rgbf000113-resize_0-target.png,1000,2.4735,3,4002,999,feet,jsons/v1_VE1000_randls_48_rotated.json,741416,970072,42,Woman
64,294185,DepthScenes,duration_manipulation_targetAtFixation,jsons/v1_VE1000_randls_48_rotated.json,http://54.235.29.9/FacialAge/BNav_EC2/DepthDuration/v2_depth_duration_MTurk/v2_DepthDuration_HTML.html#439,439,1364,625,1364,768,9-18-2022,10-27-11,65,depth_duration_stimuli/001016_2014-06-09_16-16-10_260595134347_rgbf000112-resize_5/001016_2014-06-09_16-16-10_260595134347_rgbf000112-resize_5-target.png,1000,1.6565,3,3105,1000,feet,jsons/v1_VE1000_randls_48_rotated.json,741416,970072,42,Woman
65,294185,DepthScenes,duration_manipulation_targetAtFixation,jsons/v1_VE1000_randls_48_rotated.json,http://54.235.29.9/FacialAge/BNav_EC2/DepthDuration/v2_depth_duration_MTurk/v2_DepthDuration_HTML.html#439,439,1364,625,1364,768,9-18-2022,10-27-11,66,depth_duration_stimuli/001540_2014-06-20_17-01-05_260595134347_rgbf000086-resize_2/001540_2014-06-20_17-01-05_260595134347_rgbf000086-resize-original.jpg,1000,1.459,0,3666,1000,feet,jsons/v1_VE1000_randls_48_rotated.json,741416,970072,42,Woman
66,294185,DepthScenes,duration_manipulation_targetAtFixation,jsons/v1_VE1000_randls_48_rotated.json,http://54.235.29.9/FacialAge/BNav_EC2/DepthDuration/v2_depth_duration_MTurk/v2_DepthDuration_HTML.html#439,439,1364,625,1364,768,9-18-2022,10-27-11,67,depth_duration_stimuli/001214_2014-06-17_16-13-55_260595134347_rgbf000111-resize_0/001214_2014-06-17_16-13-55_260595134347_rgbf000111-resize_0-target.png,1000,2.6505,2,3404,1000,feet,jsons/v1_VE1000_randls_48_rotated.json,741416,970072,42,Woman
67,294185,DepthScenes,duration_manipulation_targetAtFixation,jsons/v1_VE1000_randls_48_rotated.json,http://54.235.29.9/FacialAge/BNav_EC2/DepthDuration/v2_depth_duration_MTurk/v2_DepthDuration_HTML.html#439,439,1364,625,1364,768,9-18-2022,10-27-11,68,depth_duration_stimuli/000810_2014-06-08_17-20-01_260595134347_rgbf000105-resize_0/000810_2014-06-08_17-20-01_260595134347_rgbf000105-resize_0-target.png,1000,1.4865,2,3242,999,feet,jsons/v1_VE1000_randls_48_rotated.json,741416,970072,42,Woman
68,294185,DepthScenes,duration_manipulation_targetAtFixation,jsons/v1_VE1000_randls_48_rotated.json,http://54.235.29.9/FacialAge/BNav_EC2/DepthDuration/v2_depth_duration_MTurk/v2_DepthDuration_HTML.html#439,439,1364,625,1364,768,9-18-2022,10-27-11,69,depth_duration_stimuli/001094_2014-06-15_17-36-00_260595134347_rgbf000205-resize_0/001094_2014-06-15_17-36-00_260595134347_rgbf000205-resize_0-target.png,1000,4.2175,3,6246,1001,feet,jsons/v1_VE1000_randls_48_rotated.json,741416,970072,42,Woman
69,294185,DepthScenes,duration_manipulation_targetAtFixation,jsons/v1_VE1000_randls_48_rotated.json,http://54.235.29.9/FacialAge/BNav_EC2/DepthDuration/v2_depth_duration_MTurk/v2_DepthDuration_HTML.html#439,439,1364,625,1364,768,9-18-2022,10-27-11,70,depth_duration_stimuli/000692_2014-06-08_13-09-42_260595134347_rgbf000199-resize_2/000692_2014-06-08_13-09-42_260595134347_rgbf000199-resize_2-target.png,1000,3.661,2,3354,1000,feet,jsons/v1_VE1000_randls_48_rotated.json,741416,970072,42,Woman
70,294185,DepthScenes,duration_manipulation_targetAtFixation,jsons/v1_VE1000_randls_48_rotated.json,http://54.235.29.9/FacialAge/BNav_EC2/DepthDuration/v2_depth_duration_MTurk/v2_DepthDuration_HTML.html#439,439,1364,625,1364,768,9-18-2022,10-27-11,71,depth_duration_stimuli/003490_2014-05-21_15-50-11_094959634447_rgbf000101-resize_3/003490_2014-05-21_15-50-11_094959634447_rgbf000101-resize_3-target.png,1000,3.6445,3,4235,1000,feet,jsons/v1_VE1000_randls_48_rotated.json,741416,970072,42,Woman
71,294185,DepthScenes,duration_manipulation_targetAtFixation,jsons/v1_VE1000_randls_48_rotated.json,http://54.235.29.9/FacialAge/BNav_EC2/DepthDuration/v2_depth_duration_MTurk/v2_DepthDuration_HTML.html#439,439,1364,625,1364,768,9-18-2022,10-27-11,72,depth_duration_stimuli/001175_2014-06-17_15-45-55_260595134347_rgbf000129-resize_4/001175_2014-06-17_15-45-55_260595134347_rgbf000129-resize_4-target.png,1000,4.255,3,3338,1001,feet,jsons/v1_VE1000_randls_48_rotated.json,741416,970072,42,Woman
72,294185,DepthScenes,duration_manipulation_targetAtFixation,jsons/v1_VE1000_randls_48_rotated.json,http://54.235.29.9/FacialAge/BNav_EC2/DepthDuration/v2_depth_duration_MTurk/v2_DepthDuration_HTML.html#439,439,1364,625,1364,768,9-18-2022,10-27-11,73,depth_duration_stimuli/001392_2014-06-19_16-07-59_260595134347_rgbf000046-resize_1/001392_2014-06-19_16-07-59_260595134347_rgbf000046-resize_1-target.png,1000,4.135,3,3915,999,feet,jsons/v1_VE1000_randls_48_rotated.json,741416,970072,42,Woman
73,294185,DepthScenes,duration_manipulation_targetAtFixation,jsons/v1_VE1000_randls_48_rotated.json,http://54.235.29.9/FacialAge/BNav_EC2/DepthDuration/v2_depth_duration_MTurk/v2_DepthDuration_HTML.html#439,439,1364,625,1364,768,9-18-2022,10-27-11,74,depth_duration_stimuli/001570_2014-06-20_17-21-09_260595134347_rgbf000135-resize_4/001570_2014-06-20_17-21-09_260595134347_rgbf000135-resize_4-target.png,1000,4.467,3,3643,999,feet,jsons/v1_VE1000_randls_48_rotated.json,741416,970072,42,Woman
74,294185,DepthScenes,duration_manipulation_targetAtFixation,jsons/v1_VE1000_randls_48_rotated.json,http://54.235.29.9/FacialAge/BNav_EC2/DepthDuration/v2_depth_duration_MTurk/v2_DepthDuration_HTML.html#439,439,1364,625,1364,768,9-18-2022,10-27-11,75,depth_duration_stimuli/002209_2014-06-28_18-36-10_260595134347_rgbf000051-resize_1/002209_2014-06-28_18-36-10_260595134347_rgbf000051-resize_1-target.png,1000,2.057,2,3805,1000,feet,jsons/v1_VE1000_randls_48_rotated.json,741416,970072,42,Woman
75,294185,DepthScenes,duration_manipulation_targetAtFixation,jsons/v1_VE1000_randls_48_rotated.json,http://54.235.29.9/FacialAge/BNav_EC2/DepthDuration/v2_depth_duration_MTurk/v2_DepthDuration_HTML.html#439,439,1364,625,1364,768,9-18-2022,10-27-11,76,depth_duration_stimuli/002763_2014-06-22_19-13-10_094959634447_rgbf000075-resize_4/002763_2014-06-22_19-13-10_094959634447_rgbf000075-resize_4-target.png,1000,1.68375,1,4334,1000,feet,jsons/v1_VE1000_randls_48_rotated.json,741416,970072,42,Woman
76,294185,DepthScenes,duration_manipulation_targetAtFixation,jsons/v1_VE1000_randls_48_rotated.json,http://54.235.29.9/FacialAge/BNav_EC2/DepthDuration/v2_depth_duration_MTurk/v2_DepthDuration_HTML.html#439,439,1364,625,1364,768,9-18-2022,10-27-11,77,depth_duration_stimuli/000780_2014-06-08_22-28-29_260595134347_rgbf000126-resize_1/000780_2014-06-08_22-28-29_260595134347_rgbf000126-resize_1-target.png,1000,3.3825,2,3973,1001,feet,jsons/v1_VE1000_randls_48_rotated.json,741416,970072,42,Woman
77,294185,DepthScenes,duration_manipulation_targetAtFixation,jsons/v1_VE1000_randls_48_rotated.json,http://54.235.29.9/FacialAge/BNav_EC2/DepthDuration/v2_depth_duration_MTurk/v2_DepthDuration_HTML.html#439,439,1364,625,1364,768,9-18-2022,10-27-11,78,depth_duration_stimuli/002445_2014-06-28_20-32-16_260595134347_rgbf000029-resize_4/002445_2014-06-28_20-32-16_260595134347_rgbf000029-resize_4-target.png,1000,2.5315,1,3789,999,feet,jsons/v1_VE1000_randls_48_rotated.json,741416,970072,42,Woman
78,294185,DepthScenes,duration_manipulation_targetAtFixation,jsons/v1_VE1000_randls_48_rotated.json,http://54.235.29.9/FacialAge/BNav_EC2/DepthDuration/v2_depth_duration_MTurk/v2_DepthDuration_HTML.html#439,439,1364,625,1364,768,9-18-2022,10-27-11,79,depth_duration_stimuli/003083_2014-06-15_15-21-03_094959634447_rgbf000063-resize_1/003083_2014-06-15_15-21-03_094959634447_rgbf000063-resize_1-target.png,1000,4.1405,3,3642,999,feet,jsons/v1_VE1000_randls_48_rotated.json,741416,970072,42,Woman
79,294185,DepthScenes,duration_manipulation_targetAtFixation,jsons/v1_VE1000_randls_48_rotated.json,http://54.235.29.9/FacialAge/BNav_EC2/DepthDuration/v2_depth_duration_MTurk/v2_DepthDuration_HTML.html#439,439,1364,625,1364,768,9-18-2022,10-27-11,80,depth_duration_stimuli/000486_2014-06-09_20-47-20_260595134347_rgbf000143-resize_2/000486_2014-06-09_20-47-20_260595134347_rgbf000143-resize_2-target.png,1000,4.8325,2,3138,1000,feet,jsons/v1_VE1000_randls_48_rotated.json,741416,970072,42,Woman
80,294185,DepthScenes,duration_manipulation_targetAtFixation,jsons/v1_VE1000_randls_48_rotated.json,http://54.235.29.9/FacialAge/BNav_EC2/DepthDuration/v2_depth_duration_MTurk/v2_DepthDuration_HTML.html#439,439,1364,625,1364,768,9-18-2022,10-27-11,81,depth_duration_stimuli/002545_2014-06-24_13-38-53_094959634447_rgbf000080-resize_4/002545_2014-06-24_13-38-53_094959634447_rgbf000080-resize_4-target.png,1000,1.9205,2,3709,1001,feet,jsons/v1_VE1000_randls_48_rotated.json,741416,970072,42,Woman
81,294185,DepthScenes,duration_manipulation_targetAtFixation,jsons/v1_VE1000_randls_48_rotated.json,http://54.235.29.9/FacialAge/BNav_EC2/DepthDuration/v2_depth_duration_MTurk/v2_DepthDuration_HTML.html#439,439,1364,625,1364,768,9-18-2022,10-27-11,82,depth_duration_stimuli/001092_2014-06-15_17-34-58_260595134347_rgbf000171-resize_3/001092_2014-06-15_17-34-58_260595134347_rgbf000171-resize_3-target.png,1000,2.6935,2,3094,1001,feet,jsons/v1_VE1000_randls_48_rotated.json,741416,970072,42,Woman
82,294185,DepthScenes,duration_manipulation_targetAtFixation,jsons/v1_VE1000_randls_48_rotated.json,http://54.235.29.9/FacialAge/BNav_EC2/DepthDuration/v2_depth_duration_MTurk/v2_DepthDuration_HTML.html#439,439,1364,625,1364,768,9-18-2022,10-27-11,83,depth_duration_stimuli/001650_2014-06-20_12-09-00_260595134347_rgbf000087-resize_3/001650_2014-06-20_12-09-00_260595134347_rgbf000087-resize_3-target.png,1000,1.9505,1,3305,1000,feet,jsons/v1_VE1000_randls_48_rotated.json,741416,970072,42,Woman
83,294185,DepthScenes,duration_manipulation_targetAtFixation,jsons/v1_VE1000_randls_48_rotated.json,http://54.235.29.9/FacialAge/BNav_EC2/DepthDuration/v2_depth_duration_MTurk/v2_DepthDuration_HTML.html#439,439,1364,625,1364,768,9-18-2022,10-27-11,84,depth_duration_stimuli/000682_2014-06-08_23-14-58_260595134347_rgbf000041-resize_5/000682_2014-06-08_23-14-58_260595134347_rgbf000041-resize_5-target.png,1000,2.7239999999999998,2,3011,1001,feet,jsons/v1_VE1000_randls_48_rotated.json,741416,970072,42,Woman
84,294185,DepthScenes,duration_manipulation_targetAtFixation,jsons/v1_VE1000_randls_48_rotated.json,http://54.235.29.9/FacialAge/BNav_EC2/DepthDuration/v2_depth_duration_MTurk/v2_DepthDuration_HTML.html#439,439,1364,625,1364,768,9-18-2022,10-27-11,85,depth_duration_stimuli/002444_2014-06-28_20-32-08_260595134347_rgbf000027-resize_0/002444_2014-06-28_20-32-08_260595134347_rgbf000027-resize_0-target.png,1000,4.388999999999999,3,3462,1000,feet,jsons/v1_VE1000_randls_48_rotated.json,741416,970072,42,Woman
85,294185,DepthScenes,duration_manipulation_targetAtFixation,jsons/v1_VE1000_randls_48_rotated.json,http://54.235.29.9/FacialAge/BNav_EC2/DepthDuration/v2_depth_duration_MTurk/v2_DepthDuration_HTML.html#439,439,1364,625,1364,768,9-18-2022,10-27-11,86,depth_duration_stimuli/000436_2014-06-09_22-25-11_260595134347_rgbf000137-resize_1/000436_2014-06-09_22-25-11_260595134347_rgbf000137-resize_1-target.png,1000,4.0705,3,2963,1000,feet,jsons/v1_VE1000_randls_48_rotated.json,741416,970072,42,Woman
86,294185,DepthScenes,duration_manipulation_targetAtFixation,jsons/v1_VE1000_randls_48_rotated.json,http://54.235.29.9/FacialAge/BNav_EC2/DepthDuration/v2_depth_duration_MTurk/v2_DepthDuration_HTML.html#439,439,1364,625,1364,768,9-18-2022,10-27-11,87,depth_duration_stimuli/000742_2014-06-08_18-48-09_260595134347_rgbf000164-resize_4/000742_2014-06-08_18-48-09_260595134347_rgbf000164-resize_4-target.png,1000,4.632,3,2932,1000,feet,jsons/v1_VE1000_randls_48_rotated.json,741416,970072,42,Woman
87,294185,DepthScenes,duration_manipulation_targetAtFixation,jsons/v1_VE1000_randls_48_rotated.json,http://54.235.29.9/FacialAge/BNav_EC2/DepthDuration/v2_depth_duration_MTurk/v2_DepthDuration_HTML.html#439,439,1364,625,1364,768,9-18-2022,10-27-11,88,depth_duration_stimuli/001066_2014-06-08_22-03-20_260595134347_rgbf000066-resize_4/001066_2014-06-08_22-03-20_260595134347_rgbf000066-resize_4-target.png,1000,4.2330000000000005,3,3544,1001,feet,jsons/v1_VE1000_randls_48_rotated.json,741416,970072,42,Woman
88,294185,DepthScenes,duration_manipulation_targetAtFixation,jsons/v1_VE1000_randls_48_rotated.json,http://54.235.29.9/FacialAge/BNav_EC2/DepthDuration/v2_depth_duration_MTurk/v2_DepthDuration_HTML.html#439,439,1364,625,1364,768,9-18-2022,10-27-11,89,depth_duration_stimuli/002467_2014-06-28_20-38-07_260595134347_rgbf000026-resize_2/002467_2014-06-28_20-38-07_260595134347_rgbf000026-resize_2-target.png,1000,4.742,2,3338,999,feet,jsons/v1_VE1000_randls_48_rotated.json,741416,970072,42,Woman
89,294185,DepthScenes,duration_manipulation_targetAtFixation,jsons/v1_VE1000_randls_48_rotated.json,http://54.235.29.9/FacialAge/BNav_EC2/DepthDuration/v2_depth_duration_MTurk/v2_DepthDuration_HTML.html#439,439,1364,625,1364,768,9-18-2022,10-27-11,90,depth_duration_stimuli/002570_2014-06-24_13-59-54_094959634447_rgbf000059-resize_0/002570_2014-06-24_13-59-54_094959634447_rgbf000059-resize_0-target.png,1000,4.037,3,4219,1000,feet,jsons/v1_VE1000_randls_48_rotated.json,741416,970072,42,Woman
90,294185,DepthScenes,duration_manipulation_targetAtFixation,jsons/v1_VE1000_randls_48_rotated.json,http://54.235.29.9/FacialAge/BNav_EC2/DepthDuration/v2_depth_duration_MTurk/v2_DepthDuration_HTML.html#439,439,1364,625,1364,768,9-18-2022,10-27-11,91,depth_duration_stimuli/002660_2014-06-13_15-44-18_094959634447_rgbf001878-resize_2/002660_2014-06-13_15-44-18_094959634447_rgbf001878-resize_2-target.png,1000,3.576,2,3770,998,feet,jsons/v1_VE1000_randls_48_rotated.json,741416,970072,42,Woman
91,294185,DepthScenes,duration_manipulation_targetAtFixation,jsons/v1_VE1000_randls_48_rotated.json,http://54.235.29.9/FacialAge/BNav_EC2/DepthDuration/v2_depth_duration_MTurk/v2_DepthDuration_HTML.html#439,439,1364,625,1364,768,9-18-2022,10-27-11,92,depth_duration_stimuli/002153_2014-06-25_21-27-18_260595134347_rgbf000038-resize_5/002153_2014-06-25_21-27-18_260595134347_rgbf000038-resize_5-target.png,1000,2.505,2,3603,1000,feet,jsons/v1_VE1000_randls_48_rotated.json,741416,970072,42,Woman
92,294185,DepthScenes,duration_manipulation_targetAtFixation,jsons/v1_VE1000_randls_48_rotated.json,http://54.235.29.9/FacialAge/BNav_EC2/DepthDuration/v2_depth_duration_MTurk/v2_DepthDuration_HTML.html#439,439,1364,625,1364,768,9-18-2022,10-27-11,93,depth_duration_stimuli/002875_2014-06-01_15-19-00_094959634447_rgbf000151-resize_1/002875_2014-06-01_15-19-00_094959634447_rgbf000151-resize_1-target.png,1000,1.9675,1,3789,1000,feet,jsons/v1_VE1000_randls_48_rotated.json,741416,970072,42,Woman
93,294185,DepthScenes,duration_manipulation_targetAtFixation,jsons/v1_VE1000_randls_48_rotated.json,http://54.235.29.9/FacialAge/BNav_EC2/DepthDuration/v2_depth_duration_MTurk/v2_DepthDuration_HTML.html#439,439,1364,625,1364,768,9-18-2022,10-27-11,94,depth_duration_stimuli/001011_2014-06-08_23-18-54_260595134347_rgbf000044-resize_4/001011_2014-06-08_23-18-54_260595134347_rgbf000044-resize_4-target.png,1000,2.4730000000000003,2,2954,998,feet,jsons/v1_VE1000_randls_48_rotated.json,741416,970072,42,Woman
94,294185,DepthScenes,duration_manipulation_targetAtFixation,jsons/v1_VE1000_randls_48_rotated.json,http://54.235.29.9/FacialAge/BNav_EC2/DepthDuration/v2_depth_duration_MTurk/v2_DepthDuration_HTML.html#439,439,1364,625,1364,768,9-18-2022,10-27-11,95,depth_duration_stimuli/000749_2014-06-08_21-55-06_260595134347_rgbf000070-resize_2/000749_2014-06-08_21-55-06_260595134347_rgbf000070-resize_2-target.png,1000,2.331,2,3731,1000,feet,jsons/v1_VE1000_randls_48_rotated.json,741416,970072,42,Woman
95,294185,DepthScenes,duration_manipulation_targetAtFixation,jsons/v1_VE1000_randls_48_rotated.json,http://54.235.29.9/FacialAge/BNav_EC2/DepthDuration/v2_depth_duration_MTurk/v2_DepthDuration_HTML.html#439,439,1364,625,1364,768,9-18-2022,10-27-11,96,depth_duration_stimuli/002788_2014-06-22_19-36-03_094959634447_rgbf000088-resize_2/002788_2014-06-22_19-36-03_094959634447_rgbf000088-resize_2-target.png,1000,1.6465,3,3931,1000,feet,jsons/v1_VE1000_randls_48_rotated.json,741416,970072,42,Woman
96,294185,DepthScenes,duration_manipulation_targetAtFixation,jsons/v1_VE1000_randls_48_rotated.json,http://54.235.29.9/FacialAge/BNav_EC2/DepthDuration/v2_depth_duration_MTurk/v2_DepthDuration_HTML.html#439,439,1364,625,1364,768,9-18-2022,10-27-11,97,depth_duration_stimuli/002750_2014-06-22_19-08-03_094959634447_rgbf000094-resize_4/002750_2014-06-22_19-08-03_094959634447_rgbf000094-resize_4-target.png,1000,2.354,3,3914,1000,feet,jsons/v1_VE1000_randls_48_rotated.json,741416,970072,42,Woman
97,294185,DepthScenes,duration_manipulation_targetAtFixation,jsons/v1_VE1000_randls_48_rotated.json,http://54.235.29.9/FacialAge/BNav_EC2/DepthDuration/v2_depth_duration_MTurk/v2_DepthDuration_HTML.html#439,439,1364,625,1364,768,9-18-2022,10-27-11,98,depth_duration_stimuli/002549_2014-06-24_13-41-39_094959634447_rgbf000022-resize_3/002549_2014-06-24_13-41-39_094959634447_rgbf000022-resize_3-target.png,1000,1.476,2,3981,999,feet,jsons/v1_VE1000_randls_48_rotated.json,741416,970072,42,Woman
98,294185,DepthScenes,duration_manipulation_targetAtFixation,jsons/v1_VE1000_randls_48_rotated.json,http://54.235.29.9/FacialAge/BNav_EC2/DepthDuration/v2_depth_duration_MTurk/v2_DepthDuration_HTML.html#439,439,1364,625,1364,768,9-18-2022,10-27-11,99,depth_duration_stimuli/001222_2014-06-17_16-24-06_260595134347_rgbf000073-resize_0/001222_2014-06-17_16-24-06_260595134347_rgbf000073-resize-original.jpg,1000,1.4385,0,4749,1000,feet,jsons/v1_VE1000_randls_48_rotated.json,741416,970072,42,Woman
99,294185,DepthScenes,duration_manipulation_targetAtFixation,jsons/v1_VE1000_randls_48_rotated.json,http://54.235.29.9/FacialAge/BNav_EC2/DepthDuration/v2_depth_duration_MTurk/v2_DepthDuration_HTML.html#439,439,1364,625,1364,768,9-18-2022,10-27-11,100,depth_duration_stimuli/000677_2014-06-08_23-10-32_260595134347_rgbf000158-resize_6/000677_2014-06-08_23-10-32_260595134347_rgbf000158-resize_6-target.png,1000,3.556,2,3496,992,feet,jsons/v1_VE1000_randls_48_rotated.json,741416,970072,42,Woman
100,294185,DepthScenes,duration_manipulation_targetAtFixation,jsons/v1_VE1000_randls_48_rotated.json,http://54.235.29.9/FacialAge/BNav_EC2/DepthDuration/v2_depth_duration_MTurk/v2_DepthDuration_HTML.html#439,439,1364,625,1364,768,9-18-2022,10-27-11,101,depth_duration_stimuli/001029_2014-06-08_13-17-57_260595134347_rgbf000065-resize_1/001029_2014-06-08_13-17-57_260595134347_rgbf000065-resize_1-target.png,1000,3.0835,3,3771,1001,feet,jsons/v1_VE1000_randls_48_rotated.json,741416,970072,42,Woman
101,294185,DepthScenes,duration_manipulation_targetAtFixation,jsons/v1_VE1000_randls_48_rotated.json,http://54.235.29.9/FacialAge/BNav_EC2/DepthDuration/v2_depth_duration_MTurk/v2_DepthDuration_HTML.html#439,439,1364,625,1364,768,9-18-2022,10-27-11,102,depth_duration_stimuli/002323_2014-06-28_20-01-54_260595134347_rgbf000051-resize_4/002323_2014-06-28_20-01-54_260595134347_rgbf000051-resize_4-target.png,1000,3.7310000000000003,2,3626,1000,feet,jsons/v1_VE1000_randls_48_rotated.json,741416,970072,42,Woman
102,294185,DepthScenes,duration_manipulation_targetAtFixation,jsons/v1_VE1000_randls_48_rotated.json,http://54.235.29.9/FacialAge/BNav_EC2/DepthDuration/v2_depth_duration_MTurk/v2_DepthDuration_HTML.html#439,439,1364,625,1364,768,9-18-2022,10-27-11,103,depth_duration_stimuli/000917_2014-06-09_22-45-29_260595134347_rgbf000149-resize_3/000917_2014-06-09_22-45-29_260595134347_rgbf000149-resize_3-target.png,1000,4.1865,3,3860,1000,feet,jsons/v1_VE1000_randls_48_rotated.json,741416,970072,42,Woman
103,294185,DepthScenes,duration_manipulation_targetAtFixation,jsons/v1_VE1000_randls_48_rotated.json,http://54.235.29.9/FacialAge/BNav_EC2/DepthDuration/v2_depth_duration_MTurk/v2_DepthDuration_HTML.html#439,439,1364,625,1364,768,9-18-2022,10-27-11,104,depth_duration_stimuli/002639_2014-06-24_14-51-37_094959634447_rgbf000074-resize_4/002639_2014-06-24_14-51-37_094959634447_rgbf000074-resize_4-target.png,1000,4.0375,3,3322,1000,feet,jsons/v1_VE1000_randls_48_rotated.json,741416,970072,42,Woman
104,294185,DepthScenes,duration_manipulation_targetAtFixation,jsons/v1_VE1000_randls_48_rotated.json,http://54.235.29.9/FacialAge/BNav_EC2/DepthDuration/v2_depth_duration_MTurk/v2_DepthDuration_HTML.html#439,439,1364,625,1364,768,9-18-2022,10-27-11,105,depth_duration_stimuli/003292_2014-05-14_21-53-49_094959634447_rgbf000100-resize_2/003292_2014-05-14_21-53-49_094959634447_rgbf000100-resize_2-target.png,1000,3.4815,2,3890,1001,feet,jsons/v1_VE1000_randls_48_rotated.json,741416,970072,42,Woman
105,294185,DepthScenes,duration_manipulation_targetAtFixation,jsons/v1_VE1000_randls_48_rotated.json,http://54.235.29.9/FacialAge/BNav_EC2/DepthDuration/v2_depth_duration_MTurk/v2_DepthDuration_HTML.html#439,439,1364,625,1364,768,9-18-2022,10-27-11,106,depth_duration_stimuli/003587_2014-05-23_16-48-02_094959634447_rgbf002384-resize_2/003587_2014-05-23_16-48-02_094959634447_rgbf002384-resize_2-target.png,1000,1.357,1,3332,999,feet,jsons/v1_VE1000_randls_48_rotated.json,741416,970072,42,Woman
106,294185,DepthScenes,duration_manipulation_targetAtFixation,jsons/v1_VE1000_randls_48_rotated.json,http://54.235.29.9/FacialAge/BNav_EC2/DepthDuration/v2_depth_duration_MTurk/v2_DepthDuration_HTML.html#439,439,1364,625,1364,768,9-18-2022,10-27-11,107,depth_duration_stimuli/001167_2014-06-17_15-38-07_260595134347_rgbf000108-resize_0/001167_2014-06-17_15-38-07_260595134347_rgbf000108-resize_0-target.png,1000,1.8505,1,3234,1000,feet,jsons/v1_VE1000_randls_48_rotated.json,741416,970072,42,Woman
107,294185,DepthScenes,duration_manipulation_targetAtFixation,jsons/v1_VE1000_randls_48_rotated.json,http://54.235.29.9/FacialAge/BNav_EC2/DepthDuration/v2_depth_duration_MTurk/v2_DepthDuration_HTML.html#439,439,1364,625,1364,768,9-18-2022,10-27-11,108,depth_duration_stimuli/001100_2014-06-15_17-46-26_260595134347_rgbf000225-resize_2/001100_2014-06-15_17-46-26_260595134347_rgbf000225-resize_2-target.png,1000,2.24,1,3077,1002,feet,jsons/v1_VE1000_randls_48_rotated.json,741416,970072,42,Woman
108,294185,DepthScenes,duration_manipulation_targetAtFixation,jsons/v1_VE1000_randls_48_rotated.json,http://54.235.29.9/FacialAge/BNav_EC2/DepthDuration/v2_depth_duration_MTurk/v2_DepthDuration_HTML.html#439,439,1364,625,1364,768,9-18-2022,10-27-11,109,depth_duration_stimuli/002784_2014-06-22_19-26-30_094959634447_rgbf000083-resize_3/002784_2014-06-22_19-26-30_094959634447_rgbf000083-resize_3-target.png,1000,1.8046666666667,1,2953,999,feet,jsons/v1_VE1000_randls_48_rotated.json,741416,970072,42,Woman
109,294185,DepthScenes,duration_manipulation_targetAtFixation,jsons/v1_VE1000_randls_48_rotated.json,http://54.235.29.9/FacialAge/BNav_EC2/DepthDuration/v2_depth_duration_MTurk/v2_DepthDuration_HTML.html#439,439,1364,625,1364,768,9-18-2022,10-27-11,110,depth_duration_stimuli/002199_2014-06-28_18-33-56_260595134347_rgbf000074-resize_0/002199_2014-06-28_18-33-56_260595134347_rgbf000074-resize_0-target.png,1000,1.996,1,2878,1001,feet,jsons/v1_VE1000_randls_48_rotated.json,741416,970072,42,Woman
110,294185,DepthScenes,duration_manipulation_targetAtFixation,jsons/v1_VE1000_randls_48_rotated.json,http://54.235.29.9/FacialAge/BNav_EC2/DepthDuration/v2_depth_duration_MTurk/v2_DepthDuration_HTML.html#439,439,1364,625,1364,768,9-18-2022,10-27-11,111,depth_duration_stimuli/001056_2014-06-08_18-46-44_260595134347_rgbf000068-resize_0/001056_2014-06-08_18-46-44_260595134347_rgbf000068-resize_0-target.png,1000,2.6625,2,3610,1001,feet,jsons/v1_VE1000_randls_48_rotated.json,741416,970072,42,Woman
111,294185,DepthScenes,duration_manipulation_targetAtFixation,jsons/v1_VE1000_randls_48_rotated.json,http://54.235.29.9/FacialAge/BNav_EC2/DepthDuration/v2_depth_duration_MTurk/v2_DepthDuration_HTML.html#439,439,1364,625,1364,768,9-18-2022,10-27-11,112,depth_duration_stimuli/000927_2014-06-09_16-32-30_260595134347_rgbf000123-resize_3/000927_2014-06-09_16-32-30_260595134347_rgbf000123-resize_3-target.png,1000,2.6785,2,5314,1014,feet,jsons/v1_VE1000_randls_48_rotated.json,741416,970072,42,Woman
112,294185,DepthScenes,duration_manipulation_targetAtFixation,jsons/v1_VE1000_randls_48_rotated.json,http://54.235.29.9/FacialAge/BNav_EC2/DepthDuration/v2_depth_duration_MTurk/v2_DepthDuration_HTML.html#439,439,1364,625,1364,768,9-18-2022,10-27-11,113,depth_duration_stimuli/001110_2014-06-15_17-25-28_260595134347_rgbf000150-resize_1/001110_2014-06-15_17-25-28_260595134347_rgbf000150-resize_1-target.png,1000,1.7115,1,2771,1000,feet,jsons/v1_VE1000_randls_48_rotated.json,741416,970072,42,Woman
113,294185,DepthScenes,duration_manipulation_targetAtFixation,jsons/v1_VE1000_randls_48_rotated.json,http://54.235.29.9/FacialAge/BNav_EC2/DepthDuration/v2_depth_duration_MTurk/v2_DepthDuration_HTML.html#439,439,1364,625,1364,768,9-18-2022,10-27-11,114,depth_duration_stimuli/001571_2014-06-20_17-21-32_260595134347_rgbf000089-resize_1/001571_2014-06-20_17-21-32_260595134347_rgbf000089-resize_1-target.png,1000,1.86,1,3517,999,feet,jsons/v1_VE1000_randls_48_rotated.json,741416,970072,42,Woman
114,294185,DepthScenes,duration_manipulation_targetAtFixation,jsons/v1_VE1000_randls_48_rotated.json,http://54.235.29.9/FacialAge/BNav_EC2/DepthDuration/v2_depth_duration_MTurk/v2_DepthDuration_HTML.html#439,439,1364,625,1364,768,9-18-2022,10-27-11,115,depth_duration_stimuli/002272_2014-06-28_18-53-56_260595134347_rgbf000067-resize_2/002272_2014-06-28_18-53-56_260595134347_rgbf000067-resize_2-target.png,1000,1.138,1,2760,1000,feet,jsons/v1_VE1000_randls_48_rotated.json,741416,970072,42,Woman
115,294185,DepthScenes,duration_manipulation_targetAtFixation,jsons/v1_VE1000_randls_48_rotated.json,http://54.235.29.9/FacialAge/BNav_EC2/DepthDuration/v2_depth_duration_MTurk/v2_DepthDuration_HTML.html#439,439,1364,625,1364,768,9-18-2022,10-27-11,116,depth_duration_stimuli/000137_2014-05-20_17-04-49_260595134347_rgbf000120-resize_1/000137_2014-05-20_17-04-49_260595134347_rgbf000120-resize_1-target.png,1000,3.786,3,6627,999,feet,jsons/v1_VE1000_randls_48_rotated.json,741416,970072,42,Woman
116,294185,DepthScenes,duration_manipulation_targetAtFixation,jsons/v1_VE1000_randls_48_rotated.json,http://54.235.29.9/FacialAge/BNav_EC2/DepthDuration/v2_depth_duration_MTurk/v2_DepthDuration_HTML.html#439,439,1364,625,1364,768,9-18-2022,10-27-11,117,depth_duration_stimuli/000736_2014-06-08_18-24-15_260595134347_rgbf000206-resize_3/000736_2014-06-08_18-24-15_260595134347_rgbf000206-resize_3-target.png,1000,3.515,2,3060,999,feet,jsons/v1_VE1000_randls_48_rotated.json,741416,970072,42,Woman
117,294185,DepthScenes,duration_manipulation_targetAtFixation,jsons/v1_VE1000_randls_48_rotated.json,http://54.235.29.9/FacialAge/BNav_EC2/DepthDuration/v2_depth_duration_MTurk/v2_DepthDuration_HTML.html#439,439,1364,625,1364,768,9-18-2022,10-27-11,118,depth_duration_stimuli/002995_2014-06-15_12-31-26_094959634447_rgbf000150-resize_1/002995_2014-06-15_12-31-26_094959634447_rgbf000150-resize_1-target.png,1000,3.8360000000000003,2,3809,999,feet,jsons/v1_VE1000_randls_48_rotated.json,741416,970072,42,Woman
118,294185,DepthScenes,duration_manipulation_targetAtFixation,jsons/v1_VE1000_randls_48_rotated.json,http://54.235.29.9/FacialAge/BNav_EC2/DepthDuration/v2_depth_duration_MTurk/v2_DepthDuration_HTML.html#439,439,1364,625,1364,768,9-18-2022,10-27-11,119,depth_duration_stimuli/002748_2014-06-22_19-07-22_094959634447_rgbf000078-resize_1/002748_2014-06-22_19-07-22_094959634447_rgbf000078-resize_1-target.png,1000,4.6705,3,3818,1000,feet,jsons/v1_VE1000_randls_48_rotated.json,741416,970072,42,Woman
119,294185,DepthScenes,duration_manipulation_targetAtFixation,jsons/v1_VE1000_randls_48_rotated.json,http://54.235.29.9/FacialAge/BNav_EC2/DepthDuration/v2_depth_duration_MTurk/v2_DepthDuration_HTML.html#439,439,1364,625,1364,768,9-18-2022,10-27-11,120,depth_duration_stimuli/000787_2014-06-08_22-33-53_260595134347_rgbf000175-resize_1/000787_2014-06-08_22-33-53_260595134347_rgbf000175-resize-original.jpg,1000,4.784,0,7987,998,feet,jsons/v1_VE1000_randls_48_rotated.json,741416,970072,42,Woman
120,294185,DepthScenes,duration_manipulation_targetAtFixation,jsons/v1_VE1000_randls_48_rotated.json,http://54.235.29.9/FacialAge/BNav_EC2/DepthDuration/v2_depth_duration_MTurk/v2_DepthDuration_HTML.html#439,439,1364,625,1364,768,9-18-2022,10-27-11,121,depth_duration_stimuli/000191_2014-05-12_17-07-38_260595134347_rgbf000199-resize_0/000191_2014-05-12_17-07-38_260595134347_rgbf000199-resize_0-target.png,1000,3.7995,3,3715,999,feet,jsons/v1_VE1000_randls_48_rotated.json,741416,970072,42,Woman
121,294185,DepthScenes,duration_manipulation_targetAtFixation,jsons/v1_VE1000_randls_48_rotated.json,http://54.235.29.9/FacialAge/BNav_EC2/DepthDuration/v2_depth_duration_MTurk/v2_DepthDuration_HTML.html#439,439,1364,625,1364,768,9-18-2022,10-27-11,122,depth_duration_stimuli/000493_2014-06-09_21-01-18_260595134347_rgbf000196-resize_3/000493_2014-06-09_21-01-18_260595134347_rgbf000196-resize_3-target.png,1000,3.44,2,3985,1000,feet,jsons/v1_VE1000_randls_48_rotated.json,741416,970072,42,Woman
122,294185,DepthScenes,duration_manipulation_targetAtFixation,jsons/v1_VE1000_randls_48_rotated.json,http://54.235.29.9/FacialAge/BNav_EC2/DepthDuration/v2_depth_duration_MTurk/v2_DepthDuration_HTML.html#439,439,1364,625,1364,768,9-18-2022,10-27-11,123,depth_duration_stimuli/001136_2014-06-17_15-19-41_260595134347_rgbf000076-resize_3/001136_2014-06-17_15-19-41_260595134347_rgbf000076-resize_3-target.png,1000,1.8655,2,3550,1000,feet,jsons/v1_VE1000_randls_48_rotated.json,741416,970072,42,Woman
123,294185,DepthScenes,duration_manipulation_targetAtFixation,jsons/v1_VE1000_randls_48_rotated.json,http://54.235.29.9/FacialAge/BNav_EC2/DepthDuration/v2_depth_duration_MTurk/v2_DepthDuration_HTML.html#439,439,1364,625,1364,768,9-18-2022,10-27-11,124,depth_duration_stimuli/001164_2014-06-17_15-35-46_260595134347_rgbf000085-resize_3/001164_2014-06-17_15-35-46_260595134347_rgbf000085-resize_3-target.png,1000,2.354,3,3497,1000,feet,jsons/v1_VE1000_randls_48_rotated.json,741416,970072,42,Woman
124,294185,DepthScenes,duration_manipulation_targetAtFixation,jsons/v1_VE1000_randls_48_rotated.json,http://54.235.29.9/FacialAge/BNav_EC2/DepthDuration/v2_depth_duration_MTurk/v2_DepthDuration_HTML.html#439,439,1364,625,1364,768,9-18-2022,10-27-11,125,depth_duration_stimuli/001815_2014-06-26_20-52-55_260595134347_rgbf000020-resize_0/001815_2014-06-26_20-52-55_260595134347_rgbf000020-resize_0-target.png,1000,3.3865,3,4387,1000,feet,jsons/v1_VE1000_randls_48_rotated.json,741416,970072,42,Woman
125,294185,DepthScenes,duration_manipulation_targetAtFixation,jsons/v1_VE1000_randls_48_rotated.json,http://54.235.29.9/FacialAge/BNav_EC2/DepthDuration/v2_depth_duration_MTurk/v2_DepthDuration_HTML.html#439,439,1364,625,1364,768,9-18-2022,10-27-11,126,depth_duration_stimuli/001808_2014-06-26_20-50-58_260595134347_rgbf000029-resize_1/001808_2014-06-26_20-50-58_260595134347_rgbf000029-resize_1-target.png,1000,4.249,3,3308,1000,feet,jsons/v1_VE1000_randls_48_rotated.json,741416,970072,42,Woman
126,294185,DepthScenes,duration_manipulation_targetAtFixation,jsons/v1_VE1000_randls_48_rotated.json,http://54.235.29.9/FacialAge/BNav_EC2/DepthDuration/v2_depth_duration_MTurk/v2_DepthDuration_HTML.html#439,439,1364,625,1364,768,9-18-2022,10-27-11,127,depth_duration_stimuli/002678_2014-06-13_16-15-32_094959634447_rgbf000151-resize_6/002678_2014-06-13_16-15-32_094959634447_rgbf000151-resize_6-target.png,1000,2.1830000000000003,3,3265,1000,feet,jsons/v1_VE1000_randls_48_rotated.json,741416,970072,42,Woman
127,294185,DepthScenes,duration_manipulation_targetAtFixation,jsons/v1_VE1000_randls_48_rotated.json,http://54.235.29.9/FacialAge/BNav_EC2/DepthDuration/v2_depth_duration_MTurk/v2_DepthDuration_HTML.html#439,439,1364,625,1364,768,9-18-2022,10-27-11,128,depth_duration_stimuli/000368_2014-06-09_15-53-01_260595134347_rgbf000155-resize_2/000368_2014-06-09_15-53-01_260595134347_rgbf000155-resize_2-target.png,1000,2.4859999999999998,2,3468,1001,feet,jsons/v1_VE1000_randls_48_rotated.json,741416,970072,42,Woman
128,294185,DepthScenes,duration_manipulation_targetAtFixation,jsons/v1_VE1000_randls_48_rotated.json,http://54.235.29.9/FacialAge/BNav_EC2/DepthDuration/v2_depth_duration_MTurk/v2_DepthDuration_HTML.html#439,439,1364,625,1364,768,9-18-2022,10-27-11,129,depth_duration_stimuli/001584_2014-06-20_11-07-43_260595134347_rgbf000002-resize_1/001584_2014-06-20_11-07-43_260595134347_rgbf000002-resize_1-target.png,1000,3.53,2,3369,1000,feet,jsons/v1_VE1000_randls_48_rotated.json,741416,970072,42,Woman
129,294185,DepthScenes,duration_manipulation_targetAtFixation,jsons/v1_VE1000_randls_48_rotated.json,http://54.235.29.9/FacialAge/BNav_EC2/DepthDuration/v2_depth_duration_MTurk/v2_DepthDuration_HTML.html#439,439,1364,625,1364,768,9-18-2022,10-27-11,130,depth_duration_stimuli/003621_2014-05-23_18-06-08_094959634447_rgbf000101-resize_1/003621_2014-05-23_18-06-08_094959634447_rgbf000101-resize_1-target.png,1000,3.9835,2,3798,1001,feet,jsons/v1_VE1000_randls_48_rotated.json,741416,970072,42,Woman
130,294185,DepthScenes,duration_manipulation_targetAtFixation,jsons/v1_VE1000_randls_48_rotated.json,http://54.235.29.9/FacialAge/BNav_EC2/DepthDuration/v2_depth_duration_MTurk/v2_DepthDuration_HTML.html#439,439,1364,625,1364,768,9-18-2022,10-27-11,131,depth_duration_stimuli/002568_2014-06-24_13-59-21_094959634447_rgbf000062-resize_4/002568_2014-06-24_13-59-21_094959634447_rgbf000062-resize_4-target.png,1000,3.015,2,3371,1000,feet,jsons/v1_VE1000_randls_48_rotated.json,741416,970072,42,Woman
131,294185,DepthScenes,duration_manipulation_targetAtFixation,jsons/v1_VE1000_randls_48_rotated.json,http://54.235.29.9/FacialAge/BNav_EC2/DepthDuration/v2_depth_duration_MTurk/v2_DepthDuration_HTML.html#439,439,1364,625,1364,768,9-18-2022,10-27-11,132,depth_duration_stimuli/003492_2014-05-21_15-50-55_094959634447_rgbf000828-resize_1/003492_2014-05-21_15-50-55_094959634447_rgbf000828-resize_1-target.png,1000,4.06875,3,3273,1001,feet,jsons/v1_VE1000_randls_48_rotated.json,741416,970072,42,Woman
132,294185,DepthScenes,duration_manipulation_targetAtFixation,jsons/v1_VE1000_randls_48_rotated.json,http://54.235.29.9/FacialAge/BNav_EC2/DepthDuration/v2_depth_duration_MTurk/v2_DepthDuration_HTML.html#439,439,1364,625,1364,768,9-18-2022,10-27-11,133,depth_duration_stimuli/001235_2014-06-17_16-37-36_260595134347_rgbf000084-resize_4/001235_2014-06-17_16-37-36_260595134347_rgbf000084-resize_4-target.png,1000,3.6605,3,3717,999,feet,jsons/v1_VE1000_randls_48_rotated.json,741416,970072,42,Woman
133,294185,DepthScenes,duration_manipulation_targetAtFixation,jsons/v1_VE1000_randls_48_rotated.json,http://54.235.29.9/FacialAge/BNav_EC2/DepthDuration/v2_depth_duration_MTurk/v2_DepthDuration_HTML.html#439,439,1364,625,1364,768,9-18-2022,10-27-11,134,depth_duration_stimuli/000788_2014-06-08_22-34-36_260595134347_rgbf000131-resize_1/000788_2014-06-08_22-34-36_260595134347_rgbf000131-resize_1-target.png,1000,3.359,2,2940,1000,feet,jsons/v1_VE1000_randls_48_rotated.json,741416,970072,42,Woman
134,294185,DepthScenes,duration_manipulation_targetAtFixation,jsons/v1_VE1000_randls_48_rotated.json,http://54.235.29.9/FacialAge/BNav_EC2/DepthDuration/v2_depth_duration_MTurk/v2_DepthDuration_HTML.html#439,439,1364,625,1364,768,9-18-2022,10-27-11,135,depth_duration_stimuli/000375_2014-06-08_11-17-29_260595134347_rgbf000133-resize_2/000375_2014-06-08_11-17-29_260595134347_rgbf000133-resize-original.jpg,1000,4.718,0,4392,999,feet,jsons/v1_VE1000_randls_48_rotated.json,741416,970072,42,Woman
135,294185,DepthScenes,duration_manipulation_targetAtFixation,jsons/v1_VE1000_randls_48_rotated.json,http://54.235.29.9/FacialAge/BNav_EC2/DepthDuration/v2_depth_duration_MTurk/v2_DepthDuration_HTML.html#439,439,1364,625,1364,768,9-18-2022,10-27-11,136,depth_duration_stimuli/000457_2014-06-08_16-52-43_260595134347_rgbf000199-resize_1/000457_2014-06-08_16-52-43_260595134347_rgbf000199-resize_1-target.png,1000,3.6489999999999996,2,3947,1000,feet,jsons/v1_VE1000_randls_48_rotated.json,741416,970072,42,Woman
136,294185,DepthScenes,duration_manipulation_targetAtFixation,jsons/v1_VE1000_randls_48_rotated.json,http://54.235.29.9/FacialAge/BNav_EC2/DepthDuration/v2_depth_duration_MTurk/v2_DepthDuration_HTML.html#439,439,1364,625,1364,768,9-18-2022,10-27-11,137,depth_duration_stimuli/000929_2014-06-09_16-33-19_260595134347_rgbf000139-resize_0/000929_2014-06-09_16-33-19_260595134347_rgbf000139-resize_0-target.png,1000,2.8680000000000003,2,2769,1000,feet,jsons/v1_VE1000_randls_48_rotated.json,741416,970072,42,Woman
137,294185,DepthScenes,duration_manipulation_targetAtFixation,jsons/v1_VE1000_randls_48_rotated.json,http://54.235.29.9/FacialAge/BNav_EC2/DepthDuration/v2_depth_duration_MTurk/v2_DepthDuration_HTML.html#439,439,1364,625,1364,768,9-18-2022,10-27-11,138,depth_duration_stimuli/002414_2014-06-28_20-24-58_260595134347_rgbf000067-resize_4/002414_2014-06-28_20-24-58_260595134347_rgbf000067-resize_4-target.png,1000,4.363,3,3500,1000,feet,jsons/v1_VE1000_randls_48_rotated.json,741416,970072,42,Woman
138,294185,DepthScenes,duration_manipulation_targetAtFixation,jsons/v1_VE1000_randls_48_rotated.json,http://54.235.29.9/FacialAge/BNav_EC2/DepthDuration/v2_depth_duration_MTurk/v2_DepthDuration_HTML.html#439,439,1364,625,1364,768,9-18-2022,10-27-11,139,depth_duration_stimuli/000773_2014-06-08_22-24-54_260595134347_rgbf000093-resize_1/000773_2014-06-08_22-24-54_260595134347_rgbf000093-resize_1-target.png,1000,4.973,3,3155,999,feet,jsons/v1_VE1000_randls_48_rotated.json,741416,970072,42,Woman
139,294185,DepthScenes,duration_manipulation_targetAtFixation,jsons/v1_VE1000_randls_48_rotated.json,http://54.235.29.9/FacialAge/BNav_EC2/DepthDuration/v2_depth_duration_MTurk/v2_DepthDuration_HTML.html#439,439,1364,625,1364,768,9-18-2022,10-27-11,140,depth_duration_stimuli/000866_2014-06-09_20-45-42_260595134347_rgbf000139-resize_1/000866_2014-06-09_20-45-42_260595134347_rgbf000139-resize_1-target.png,1000,3.2155,2,3649,1001,feet,jsons/v1_VE1000_randls_48_rotated.json,741416,970072,42,Woman
140,294185,DepthScenes,duration_manipulation_targetAtFixation,jsons/v1_VE1000_randls_48_rotated.json,http://54.235.29.9/FacialAge/BNav_EC2/DepthDuration/v2_depth_duration_MTurk/v2_DepthDuration_HTML.html#439,439,1364,625,1364,768,9-18-2022,10-27-11,141,depth_duration_stimuli/002989_2014-06-15_12-25-03_094959634447_rgbf000150-resize_3/002989_2014-06-15_12-25-03_094959634447_rgbf000150-resize_3-target.png,1000,4.1975,3,4030,1000,feet,jsons/v1_VE1000_randls_48_rotated.json,741416,970072,42,Woman
141,294185,DepthScenes,duration_manipulation_targetAtFixation,jsons/v1_VE1000_randls_48_rotated.json,http://54.235.29.9/FacialAge/BNav_EC2/DepthDuration/v2_depth_duration_MTurk/v2_DepthDuration_HTML.html#439,439,1364,625,1364,768,9-18-2022,10-27-11,142,depth_duration_stimuli/001132_2014-06-17_14-48-54_260595134347_rgbf000100-resize_2/001132_2014-06-17_14-48-54_260595134347_rgbf000100-resize_2-target.png,1000,3.753,2,3353,999,feet,jsons/v1_VE1000_randls_48_rotated.json,741416,970072,42,Woman
142,294185,DepthScenes,duration_manipulation_targetAtFixation,jsons/v1_VE1000_randls_48_rotated.json,http://54.235.29.9/FacialAge/BNav_EC2/DepthDuration/v2_depth_duration_MTurk/v2_DepthDuration_HTML.html#439,439,1364,625,1364,768,9-18-2022,10-27-11,143,depth_duration_stimuli/001133_2014-06-17_14-49-16_260595134347_rgbf000100-resize_0/001133_2014-06-17_14-49-16_260595134347_rgbf000100-resize_0-target.png,1000,4.2115,3,3450,1000,feet,jsons/v1_VE1000_randls_48_rotated.json,741416,970072,42,Woman
143,294185,DepthScenes,duration_manipulation_targetAtFixation,jsons/v1_VE1000_randls_48_rotated.json,http://54.235.29.9/FacialAge/BNav_EC2/DepthDuration/v2_depth_duration_MTurk/v2_DepthDuration_HTML.html#439,439,1364,625,1364,768,9-18-2022,10-27-11,144,depth_duration_stimuli/003338_2014-05-20_11-01-23_094959634447_rgbf000051-resize_6/003338_2014-05-20_11-01-23_094959634447_rgbf000051-resize_6-target.png,1000,1.693,2,3506,1000,feet,jsons/v1_VE1000_randls_48_rotated.json,741416,970072,42,Woman
144,294185,DepthScenes,duration_manipulation_targetAtFixation,jsons/v1_VE1000_randls_48_rotated.json,http://54.235.29.9/FacialAge/BNav_EC2/DepthDuration/v2_depth_duration_MTurk/v2_DepthDuration_HTML.html#439,439,1364,625,1364,768,9-18-2022,10-27-11,145,depth_duration_stimuli/002509_2014-06-24_13-19-22_094959634447_rgbf000077-resize_0/002509_2014-06-24_13-19-22_094959634447_rgbf000077-resize_0-target.png,1000,1.3065,1,3590,1001,feet,jsons/v1_VE1000_randls_48_rotated.json,741416,970072,42,Woman
145,294185,DepthScenes,duration_manipulation_targetAtFixation,jsons/v1_VE1000_randls_48_rotated.json,http://54.235.29.9/FacialAge/BNav_EC2/DepthDuration/v2_depth_duration_MTurk/v2_DepthDuration_HTML.html#439,439,1364,625,1364,768,9-18-2022,10-27-11,146,depth_duration_stimuli/000549_2014-06-08_22-10-24_260595134347_rgbf000247-resize_3/000549_2014-06-08_22-10-24_260595134347_rgbf000247-resize_3-target.png,1000,1.841,1,3620,1000,feet,jsons/v1_VE1000_randls_48_rotated.json,741416,970072,42,Woman
146,294185,DepthScenes,duration_manipulation_targetAtFixation,jsons/v1_VE1000_randls_48_rotated.json,http://54.235.29.9/FacialAge/BNav_EC2/DepthDuration/v2_depth_duration_MTurk/v2_DepthDuration_HTML.html#439,439,1364,625,1364,768,9-18-2022,10-27-11,147,depth_duration_stimuli/001055_2014-06-08_18-45-35_260595134347_rgbf000111-resize_4/001055_2014-06-08_18-45-35_260595134347_rgbf000111-resize_4-target.png,1000,2.4290000000000003,3,4043,1000,feet,jsons/v1_VE1000_randls_48_rotated.json,741416,970072,42,Woman
147,294185,DepthScenes,duration_manipulation_targetAtFixation,jsons/v1_VE1000_randls_48_rotated.json,http://54.235.29.9/FacialAge/BNav_EC2/DepthDuration/v2_depth_duration_MTurk/v2_DepthDuration_HTML.html#439,439,1364,625,1364,768,9-18-2022,10-27-11,148,depth_duration_stimuli/000943_2014-06-09_19-31-07_260595134347_rgbf000128-resize_1/000943_2014-06-09_19-31-07_260595134347_rgbf000128-resize_1-target.png,1000,1.9765,2,3585,1001,feet,jsons/v1_VE1000_randls_48_rotated.json,741416,970072,42,Woman
148,294185,DepthScenes,duration_manipulation_targetAtFixation,jsons/v1_VE1000_randls_48_rotated.json,http://54.235.29.9/FacialAge/BNav_EC2/DepthDuration/v2_depth_duration_MTurk/v2_DepthDuration_HTML.html#439,439,1364,625,1364,768,9-18-2022,10-27-11,149,depth_duration_stimuli/003070_2014-06-15_14-58-27_094959634447_rgbf000150-resize_3/003070_2014-06-15_14-58-27_094959634447_rgbf000150-resize_3-target.png,1000,2.9415,2,3657,1001,feet,jsons/v1_VE1000_randls_48_rotated.json,741416,970072,42,Woman
149,294185,DepthScenes,duration_manipulation_targetAtFixation,jsons/v1_VE1000_randls_48_rotated.json,http://54.235.29.9/FacialAge/BNav_EC2/DepthDuration/v2_depth_duration_MTurk/v2_DepthDuration_HTML.html#439,439,1364,625,1364,768,9-18-2022,10-27-11,150,depth_duration_stimuli/001032_2014-06-08_13-23-17_260595134347_rgbf000021-resize_3/001032_2014-06-08_13-23-17_260595134347_rgbf000021-resize_3-target.png,1000,3.2725,2,9791,1000,feet,jsons/v1_VE1000_randls_48_rotated.json,741416,970072,42,Woman
150,294185,DepthScenes,duration_manipulation_targetAtFixation,jsons/v1_VE1000_randls_48_rotated.json,http://54.235.29.9/FacialAge/BNav_EC2/DepthDuration/v2_depth_duration_MTurk/v2_DepthDuration_HTML.html#439,439,1364,625,1364,768,9-18-2022,10-27-11,151,depth_duration_stimuli/001059_2014-06-08_21-53-27_260595134347_rgbf000061-resize_4/001059_2014-06-08_21-53-27_260595134347_rgbf000061-resize_4-target.png,1000,2.4185,2,3273,1000,feet,jsons/v1_VE1000_randls_48_rotated.json,741416,970072,42,Woman
151,294185,DepthScenes,duration_manipulation_targetAtFixation,jsons/v1_VE1000_randls_48_rotated.json,http://54.235.29.9/FacialAge/BNav_EC2/DepthDuration/v2_depth_duration_MTurk/v2_DepthDuration_HTML.html#439,439,1364,625,1364,768,9-18-2022,10-27-11,152,depth_duration_stimuli/000569_2014-06-09_22-51-47_260595134347_rgbf000141-resize_3/000569_2014-06-09_22-51-47_260595134347_rgbf000141-resize-original.jpg,1000,4.512,0,3796,999,feet,jsons/v1_VE1000_randls_48_rotated.json,741416,970072,42,Woman
152,294185,DepthScenes,duration_manipulation_targetAtFixation,jsons/v1_VE1000_randls_48_rotated.json,http://54.235.29.9/FacialAge/BNav_EC2/DepthDuration/v2_depth_duration_MTurk/v2_DepthDuration_HTML.html#439,439,1364,625,1364,768,9-18-2022,10-27-11,153,depth_duration_stimuli/000556_2014-06-09_22-42-56_260595134347_rgbf000214-resize_1/000556_2014-06-09_22-42-56_260595134347_rgbf000214-resize_1-target.png,1000,4.8415,3,4243,999,feet,jsons/v1_VE1000_randls_48_rotated.json,741416,970072,42,Woman
153,294185,DepthScenes,duration_manipulation_targetAtFixation,jsons/v1_VE1000_randls_48_rotated.json,http://54.235.29.9/FacialAge/BNav_EC2/DepthDuration/v2_depth_duration_MTurk/v2_DepthDuration_HTML.html#439,439,1364,625,1364,768,9-18-2022,10-27-11,154,depth_duration_stimuli/001158_2014-06-17_15-32-16_260595134347_rgbf000138-resize_2/001158_2014-06-17_15-32-16_260595134347_rgbf000138-resize_2-target.png,1000,4.5315,3,4073,999,feet,jsons/v1_VE1000_randls_48_rotated.json,741416,970072,42,Woman
154,294185,DepthScenes,duration_manipulation_targetAtFixation,jsons/v1_VE1000_randls_48_rotated.json,http://54.235.29.9/FacialAge/BNav_EC2/DepthDuration/v2_depth_duration_MTurk/v2_DepthDuration_HTML.html#439,439,1364,625,1364,768,9-18-2022,10-27-11,155,depth_duration_stimuli/002344_2014-06-28_20-06-29_260595134347_rgbf000030-resize_1/002344_2014-06-28_20-06-29_260595134347_rgbf000030-resize_1-target.png,1000,1.5795,1,4012,1001,feet,jsons/v1_VE1000_randls_48_rotated.json,741416,970072,42,Woman
155,294185,DepthScenes,duration_manipulation_targetAtFixation,jsons/v1_VE1000_randls_48_rotated.json,http://54.235.29.9/FacialAge/BNav_EC2/DepthDuration/v2_depth_duration_MTurk/v2_DepthDuration_HTML.html#439,439,1364,625,1364,768,9-18-2022,10-27-11,156,depth_duration_stimuli/002725_2014-06-22_11-47-51_094959634447_rgbf000070-resize_1/002725_2014-06-22_11-47-51_094959634447_rgbf000070-resize_1-target.png,1000,2.195,2,3181,999,feet,jsons/v1_VE1000_randls_48_rotated.json,741416,970072,42,Woman
156,294185,DepthScenes,duration_manipulation_targetAtFixation,jsons/v1_VE1000_randls_48_rotated.json,http://54.235.29.9/FacialAge/BNav_EC2/DepthDuration/v2_depth_duration_MTurk/v2_DepthDuration_HTML.html#439,439,1364,625,1364,768,9-18-2022,10-27-11,157,depth_duration_stimuli/000409_2014-06-04_19-23-33_260595134347_rgbf000067-resize_0/000409_2014-06-04_19-23-33_260595134347_rgbf000067-resize_0-target.png,1000,3.7335,2,3464,1001,feet,jsons/v1_VE1000_randls_48_rotated.json,741416,970072,42,Woman
157,294185,DepthScenes,duration_manipulation_targetAtFixation,jsons/v1_VE1000_randls_48_rotated.json,http://54.235.29.9/FacialAge/BNav_EC2/DepthDuration/v2_depth_duration_MTurk/v2_DepthDuration_HTML.html#439,439,1364,625,1364,768,9-18-2022,10-27-11,158,depth_duration_stimuli/002663_2014-06-13_15-50-26_094959634447_rgbf000075-resize_1/002663_2014-06-13_15-50-26_094959634447_rgbf000075-resize_1-target.png,1000,4.7495,2,4902,1001,feet,jsons/v1_VE1000_randls_48_rotated.json,741416,970072,42,Woman
158,294185,DepthScenes,duration_manipulation_targetAtFixation,jsons/v1_VE1000_randls_48_rotated.json,http://54.235.29.9/FacialAge/BNav_EC2/DepthDuration/v2_depth_duration_MTurk/v2_DepthDuration_HTML.html#439,439,1364,625,1364,768,9-18-2022,10-27-11,159,depth_duration_stimuli/003129_2014-05-12_10-48-10_094959634447_rgbf000100-resize_0/003129_2014-05-12_10-48-10_094959634447_rgbf000100-resize_0-target.png,1000,4.9305,4,9107,999,feet,jsons/v1_VE1000_randls_48_rotated.json,741416,970072,42,Woman
159,294185,DepthScenes,duration_manipulation_targetAtFixation,jsons/v1_VE1000_randls_48_rotated.json,http://54.235.29.9/FacialAge/BNav_EC2/DepthDuration/v2_depth_duration_MTurk/v2_DepthDuration_HTML.html#439,439,1364,625,1364,768,9-18-2022,10-27-11,160,depth_duration_stimuli/000414_2014-06-04_19-49-13_260595134347_rgbf000044-resize_0/000414_2014-06-04_19-49-13_260595134347_rgbf000044-resize_0-target.png,1000,4.329,2,3890,1000,feet,jsons/v1_VE1000_randls_48_rotated.json,741416,970072,42,Woman
160,294185,DepthScenes,duration_manipulation_targetAtFixation,jsons/v1_VE1000_randls_48_rotated.json,http://54.235.29.9/FacialAge/BNav_EC2/DepthDuration/v2_depth_duration_MTurk/v2_DepthDuration_HTML.html#439,439,1364,625,1364,768,9-18-2022,10-27-11,161,depth_duration_stimuli/000103_2014-05-14_22-01-17_260595134347_rgbf000152-resize_5/000103_2014-05-14_22-01-17_260595134347_rgbf000152-resize_5-target.png,1000,1.993,3,6237,999,feet,jsons/v1_VE1000_randls_48_rotated.json,741416,970072,42,Woman
161,294185,DepthScenes,duration_manipulation_targetAtFixation,jsons/v1_VE1000_randls_48_rotated.json,http://54.235.29.9/FacialAge/BNav_EC2/DepthDuration/v2_depth_duration_MTurk/v2_DepthDuration_HTML.html#439,439,1364,625,1364,768,9-18-2022,10-27-11,162,depth_duration_stimuli/001555_2014-06-20_17-12-10_260595134347_rgbf000065-resize_4/001555_2014-06-20_17-12-10_260595134347_rgbf000065-resize_4-target.png,1000,1.633,1,5811,1000,feet,jsons/v1_VE1000_randls_48_rotated.json,741416,970072,42,Woman
162,294185,DepthScenes,duration_manipulation_targetAtFixation,jsons/v1_VE1000_randls_48_rotated.json,http://54.235.29.9/FacialAge/BNav_EC2/DepthDuration/v2_depth_duration_MTurk/v2_DepthDuration_HTML.html#439,439,1364,625,1364,768,9-18-2022,10-27-11,163,depth_duration_stimuli/003081_2014-06-15_15-19-16_094959634447_rgbf000150-resize_1/003081_2014-06-15_15-19-16_094959634447_rgbf000150-resize_1-target.png,1000,3.9125,3,4938,1000,feet,jsons/v1_VE1000_randls_48_rotated.json,741416,970072,42,Woman
163,294185,DepthScenes,duration_manipulation_targetAtFixation,jsons/v1_VE1000_randls_48_rotated.json,http://54.235.29.9/FacialAge/BNav_EC2/DepthDuration/v2_depth_duration_MTurk/v2_DepthDuration_HTML.html#439,439,1364,625,1364,768,9-18-2022,10-27-11,164,depth_duration_stimuli/001417_2014-06-19_16-25-36_260595134347_rgbf000115-resize_5/001417_2014-06-19_16-25-36_260595134347_rgbf000115-resize_5-target.png,1000,4.6255,4,3834,999,feet,jsons/v1_VE1000_randls_48_rotated.json,741416,970072,42,Woman
