,subjID,experimentName,versionName,sequenceName,url,selected_row,windowWidth,windowHeight,screenWidth,screenHeight,startDate,startTime,trial,stimulus,duration,actual_depth,depth_estimate,trial_RT,log_sceneDuration,unitSelection,seq_filepath,experimentTime,totalTime,age,gender
0,297316,DepthScenes,duration_manipulation_targetAtFixation,jsons/v1_VE250_randls_61_rotated.json,http://54.235.29.9/FacialAge/BNav_EC2/DepthDuration/v2_depth_duration_MTurk/v2_DepthDuration_HTML.html#136,136,1366,625,1366,768,8-20-2022,12-19-10,1,depth_duration_stimuli/000734_2014-06-08_17-39-11_260595134347_rgbf000128-resize_2/000734_2014-06-08_17-39-11_260595134347_rgbf000128-resize_2-target.png,250,4.098,6,7244,242,meters,jsons/v1_VE250_randls_61_rotated.json,1090591,1300486,50,Woman
1,297316,DepthScenes,duration_manipulation_targetAtFixation,jsons/v1_VE250_randls_61_rotated.json,http://54.235.29.9/FacialAge/BNav_EC2/DepthDuration/v2_depth_duration_MTurk/v2_DepthDuration_HTML.html#136,136,1366,625,1366,768,8-20-2022,12-19-10,2,depth_duration_stimuli/000739_2014-06-08_18-45-58_260595134347_rgbf000068-resize_1/000739_2014-06-08_18-45-58_260595134347_rgbf000068-resize_1-target.png,250,3.534,5,5105,246,meters,jsons/v1_VE250_randls_61_rotated.json,1090591,1300486,50,Woman
2,297316,DepthScenes,duration_manipulation_targetAtFixation,jsons/v1_VE250_randls_61_rotated.json,http://54.235.29.9/FacialAge/BNav_EC2/DepthDuration/v2_depth_duration_MTurk/v2_DepthDuration_HTML.html#136,136,1366,625,1366,768,8-20-2022,12-19-10,3,depth_duration_stimuli/000191_2014-05-12_17-07-38_260595134347_rgbf000199-resize_0/000191_2014-05-12_17-07-38_260595134347_rgbf000199-resize_0-target.png,250,3.7995,1,4848,242,meters,jsons/v1_VE250_randls_61_rotated.json,1090591,1300486,50,Woman
3,297316,DepthScenes,duration_manipulation_targetAtFixation,jsons/v1_VE250_randls_61_rotated.json,http://54.235.29.9/FacialAge/BNav_EC2/DepthDuration/v2_depth_duration_MTurk/v2_DepthDuration_HTML.html#136,136,1366,625,1366,768,8-20-2022,12-19-10,4,depth_duration_stimuli/000493_2014-06-09_21-01-18_260595134347_rgbf000196-resize_3/000493_2014-06-09_21-01-18_260595134347_rgbf000196-resize_3-target.png,250,3.44,5,5344,250,meters,jsons/v1_VE250_randls_61_rotated.json,1090591,1300486,50,Woman
4,297316,DepthScenes,duration_manipulation_targetAtFixation,jsons/v1_VE250_randls_61_rotated.json,http://54.235.29.9/FacialAge/BNav_EC2/DepthDuration/v2_depth_duration_MTurk/v2_DepthDuration_HTML.html#136,136,1366,625,1366,768,8-20-2022,12-19-10,5,depth_duration_stimuli/002660_2014-06-13_15-44-18_094959634447_rgbf001878-resize_2/002660_2014-06-13_15-44-18_094959634447_rgbf001878-resize_2-target.png,250,3.576,1,4921,231,meters,jsons/v1_VE250_randls_61_rotated.json,1090591,1300486,50,Woman
5,297316,DepthScenes,duration_manipulation_targetAtFixation,jsons/v1_VE250_randls_61_rotated.json,http://54.235.29.9/FacialAge/BNav_EC2/DepthDuration/v2_depth_duration_MTurk/v2_DepthDuration_HTML.html#136,136,1366,625,1366,768,8-20-2022,12-19-10,6,depth_duration_stimuli/002153_2014-06-25_21-27-18_260595134347_rgbf000038-resize_5/002153_2014-06-25_21-27-18_260595134347_rgbf000038-resize_5-target.png,250,2.505,3,5623,244,meters,jsons/v1_VE250_randls_61_rotated.json,1090591,1300486,50,Woman
6,297316,DepthScenes,duration_manipulation_targetAtFixation,jsons/v1_VE250_randls_61_rotated.json,http://54.235.29.9/FacialAge/BNav_EC2/DepthDuration/v2_depth_duration_MTurk/v2_DepthDuration_HTML.html#136,136,1366,625,1366,768,8-20-2022,12-19-10,7,depth_duration_stimuli/000635_2014-06-08_16-38-42_260595134347_rgbf000106-resize_1/000635_2014-06-08_16-38-42_260595134347_rgbf000106-resize_1-target.png,250,2.074,1,4972,277,meters,jsons/v1_VE250_randls_61_rotated.json,1090591,1300486,50,Woman
7,297316,DepthScenes,duration_manipulation_targetAtFixation,jsons/v1_VE250_randls_61_rotated.json,http://54.235.29.9/FacialAge/BNav_EC2/DepthDuration/v2_depth_duration_MTurk/v2_DepthDuration_HTML.html#136,136,1366,625,1366,768,8-20-2022,12-19-10,8,depth_duration_stimuli/002279_2014-06-28_18-55-32_260595134347_rgbf000040-resize_5/002279_2014-06-28_18-55-32_260595134347_rgbf000040-resize_5-target.png,250,1.5043333333333,4,5555,259,meters,jsons/v1_VE250_randls_61_rotated.json,1090591,1300486,50,Woman
8,297316,DepthScenes,duration_manipulation_targetAtFixation,jsons/v1_VE250_randls_61_rotated.json,http://54.235.29.9/FacialAge/BNav_EC2/DepthDuration/v2_depth_duration_MTurk/v2_DepthDuration_HTML.html#136,136,1366,625,1366,768,8-20-2022,12-19-10,9,depth_duration_stimuli/002545_2014-06-24_13-38-53_094959634447_rgbf000080-resize_4/002545_2014-06-24_13-38-53_094959634447_rgbf000080-resize_4-target.png,250,1.9205,5,24532,235,meters,jsons/v1_VE250_randls_61_rotated.json,1090591,1300486,50,Woman
9,297316,DepthScenes,duration_manipulation_targetAtFixation,jsons/v1_VE250_randls_61_rotated.json,http://54.235.29.9/FacialAge/BNav_EC2/DepthDuration/v2_depth_duration_MTurk/v2_DepthDuration_HTML.html#136,136,1366,625,1366,768,8-20-2022,12-19-10,10,depth_duration_stimuli/001092_2014-06-15_17-34-58_260595134347_rgbf000171-resize_3/001092_2014-06-15_17-34-58_260595134347_rgbf000171-resize_3-target.png,250,2.6935,3,8006,257,meters,jsons/v1_VE250_randls_61_rotated.json,1090591,1300486,50,Woman
10,297316,DepthScenes,duration_manipulation_targetAtFixation,jsons/v1_VE250_randls_61_rotated.json,http://54.235.29.9/FacialAge/BNav_EC2/DepthDuration/v2_depth_duration_MTurk/v2_DepthDuration_HTML.html#136,136,1366,625,1366,768,8-20-2022,12-19-10,11,depth_duration_stimuli/000502_2014-06-08_23-02-32_260595134347_rgbf000063-resize_4/000502_2014-06-08_23-02-32_260595134347_rgbf000063-resize_4-target.png,250,2.431,6,32592,240,meters,jsons/v1_VE250_randls_61_rotated.json,1090591,1300486,50,Woman
11,297316,DepthScenes,duration_manipulation_targetAtFixation,jsons/v1_VE250_randls_61_rotated.json,http://54.235.29.9/FacialAge/BNav_EC2/DepthDuration/v2_depth_duration_MTurk/v2_DepthDuration_HTML.html#136,136,1366,625,1366,768,8-20-2022,12-19-10,12,depth_duration_stimuli/001199_2014-06-17_16-03-48_260595134347_rgbf000077-resize_0/001199_2014-06-17_16-03-48_260595134347_rgbf000077-resize_0-target.png,250,3.4375,6,5361,249,meters,jsons/v1_VE250_randls_61_rotated.json,1090591,1300486,50,Woman
12,297316,DepthScenes,duration_manipulation_targetAtFixation,jsons/v1_VE250_randls_61_rotated.json,http://54.235.29.9/FacialAge/BNav_EC2/DepthDuration/v2_depth_duration_MTurk/v2_DepthDuration_HTML.html#136,136,1366,625,1366,768,8-20-2022,12-19-10,13,depth_duration_stimuli/000677_2014-06-08_23-10-32_260595134347_rgbf000158-resize_6/000677_2014-06-08_23-10-32_260595134347_rgbf000158-resize_6-target.png,250,3.556,4,5178,249,meters,jsons/v1_VE250_randls_61_rotated.json,1090591,1300486,50,Woman
13,297316,DepthScenes,duration_manipulation_targetAtFixation,jsons/v1_VE250_randls_61_rotated.json,http://54.235.29.9/FacialAge/BNav_EC2/DepthDuration/v2_depth_duration_MTurk/v2_DepthDuration_HTML.html#136,136,1366,625,1366,768,8-20-2022,12-19-10,14,depth_duration_stimuli/001029_2014-06-08_13-17-57_260595134347_rgbf000065-resize_1/001029_2014-06-08_13-17-57_260595134347_rgbf000065-resize_1-target.png,250,3.0835,6,19954,162,meters,jsons/v1_VE250_randls_61_rotated.json,1090591,1300486,50,Woman
14,297316,DepthScenes,duration_manipulation_targetAtFixation,jsons/v1_VE250_randls_61_rotated.json,http://54.235.29.9/FacialAge/BNav_EC2/DepthDuration/v2_depth_duration_MTurk/v2_DepthDuration_HTML.html#136,136,1366,625,1366,768,8-20-2022,12-19-10,15,depth_duration_stimuli/002103_2014-06-25_20-00-40_260595134347_rgbf000049-resize_0/002103_2014-06-25_20-00-40_260595134347_rgbf000049-resize_0-target.png,250,4.105,3,5022,245,meters,jsons/v1_VE250_randls_61_rotated.json,1090591,1300486,50,Woman
15,297316,DepthScenes,duration_manipulation_targetAtFixation,jsons/v1_VE250_randls_61_rotated.json,http://54.235.29.9/FacialAge/BNav_EC2/DepthDuration/v2_depth_duration_MTurk/v2_DepthDuration_HTML.html#136,136,1366,625,1366,768,8-20-2022,12-19-10,16,depth_duration_stimuli/002039_2014-06-24_20-22-38_260595134347_rgbf000084-resize_1/002039_2014-06-24_20-22-38_260595134347_rgbf000084-resize_1-target.png,250,4.408,1,5214,241,meters,jsons/v1_VE250_randls_61_rotated.json,1090591,1300486,50,Woman
16,297316,DepthScenes,duration_manipulation_targetAtFixation,jsons/v1_VE250_randls_61_rotated.json,http://54.235.29.9/FacialAge/BNav_EC2/DepthDuration/v2_depth_duration_MTurk/v2_DepthDuration_HTML.html#136,136,1366,625,1366,768,8-20-2022,12-19-10,17,depth_duration_stimuli/002136_2014-06-25_21-18-03_260595134347_rgbf000109-resize_3/002136_2014-06-25_21-18-03_260595134347_rgbf000109-resize_3-target.png,250,1.9569999999999999,2,4443,278,meters,jsons/v1_VE250_randls_61_rotated.json,1090591,1300486,50,Woman
17,297316,DepthScenes,duration_manipulation_targetAtFixation,jsons/v1_VE250_randls_61_rotated.json,http://54.235.29.9/FacialAge/BNav_EC2/DepthDuration/v2_depth_duration_MTurk/v2_DepthDuration_HTML.html#136,136,1366,625,1366,768,8-20-2022,12-19-10,18,depth_duration_stimuli/002964_2014-06-08_17-46-11_094959634447_rgbf000091-resize_4/002964_2014-06-08_17-46-11_094959634447_rgbf000091-resize_4-target.png,250,1.6909999999999998,1,4547,257,meters,jsons/v1_VE250_randls_61_rotated.json,1090591,1300486,50,Woman
18,297316,DepthScenes,duration_manipulation_targetAtFixation,jsons/v1_VE250_randls_61_rotated.json,http://54.235.29.9/FacialAge/BNav_EC2/DepthDuration/v2_depth_duration_MTurk/v2_DepthDuration_HTML.html#136,136,1366,625,1366,768,8-20-2022,12-19-10,19,depth_duration_stimuli/001498_2014-06-19_17-45-14_260595134347_rgbf000129-resize_4/001498_2014-06-19_17-45-14_260595134347_rgbf000129-resize-original.jpg,250,1.4075,5,5459,243,meters,jsons/v1_VE250_randls_61_rotated.json,1090591,1300486,50,Woman
19,297316,DepthScenes,duration_manipulation_targetAtFixation,jsons/v1_VE250_randls_61_rotated.json,http://54.235.29.9/FacialAge/BNav_EC2/DepthDuration/v2_depth_duration_MTurk/v2_DepthDuration_HTML.html#136,136,1366,625,1366,768,8-20-2022,12-19-10,20,depth_duration_stimuli/000943_2014-06-09_19-31-07_260595134347_rgbf000128-resize_1/000943_2014-06-09_19-31-07_260595134347_rgbf000128-resize_1-target.png,250,1.9765,2,6532,243,meters,jsons/v1_VE250_randls_61_rotated.json,1090591,1300486,50,Woman
20,297316,DepthScenes,duration_manipulation_targetAtFixation,jsons/v1_VE250_randls_61_rotated.json,http://54.235.29.9/FacialAge/BNav_EC2/DepthDuration/v2_depth_duration_MTurk/v2_DepthDuration_HTML.html#136,136,1366,625,1366,768,8-20-2022,12-19-10,21,depth_duration_stimuli/003070_2014-06-15_14-58-27_094959634447_rgbf000150-resize_3/003070_2014-06-15_14-58-27_094959634447_rgbf000150-resize_3-target.png,250,2.9415,2,5187,303,meters,jsons/v1_VE250_randls_61_rotated.json,1090591,1300486,50,Woman
21,297316,DepthScenes,duration_manipulation_targetAtFixation,jsons/v1_VE250_randls_61_rotated.json,http://54.235.29.9/FacialAge/BNav_EC2/DepthDuration/v2_depth_duration_MTurk/v2_DepthDuration_HTML.html#136,136,1366,625,1366,768,8-20-2022,12-19-10,22,depth_duration_stimuli/001032_2014-06-08_13-23-17_260595134347_rgbf000021-resize_3/001032_2014-06-08_13-23-17_260595134347_rgbf000021-resize_3-target.png,250,3.2725,1,5175,256,meters,jsons/v1_VE250_randls_61_rotated.json,1090591,1300486,50,Woman
22,297316,DepthScenes,duration_manipulation_targetAtFixation,jsons/v1_VE250_randls_61_rotated.json,http://54.235.29.9/FacialAge/BNav_EC2/DepthDuration/v2_depth_duration_MTurk/v2_DepthDuration_HTML.html#136,136,1366,625,1366,768,8-20-2022,12-19-10,23,depth_duration_stimuli/001059_2014-06-08_21-53-27_260595134347_rgbf000061-resize_4/001059_2014-06-08_21-53-27_260595134347_rgbf000061-resize_4-target.png,250,2.4185,5,5372,248,meters,jsons/v1_VE250_randls_61_rotated.json,1090591,1300486,50,Woman
23,297316,DepthScenes,duration_manipulation_targetAtFixation,jsons/v1_VE250_randls_61_rotated.json,http://54.235.29.9/FacialAge/BNav_EC2/DepthDuration/v2_depth_duration_MTurk/v2_DepthDuration_HTML.html#136,136,1366,625,1366,768,8-20-2022,12-19-10,24,depth_duration_stimuli/003010_2014-06-15_12-54-35_094959634447_rgbf000112-resize_0/003010_2014-06-15_12-54-35_094959634447_rgbf000112-resize_0-target.png,250,3.1185,4,7896,250,meters,jsons/v1_VE250_randls_61_rotated.json,1090591,1300486,50,Woman
24,297316,DepthScenes,duration_manipulation_targetAtFixation,jsons/v1_VE250_randls_61_rotated.json,http://54.235.29.9/FacialAge/BNav_EC2/DepthDuration/v2_depth_duration_MTurk/v2_DepthDuration_HTML.html#136,136,1366,625,1366,768,8-20-2022,12-19-10,25,depth_duration_stimuli/001810_2014-06-26_20-51-35_260595134347_rgbf000040-resize_3/001810_2014-06-26_20-51-35_260595134347_rgbf000040-resize_3-target.png,250,2.2525,5,12089,248,meters,jsons/v1_VE250_randls_61_rotated.json,1090591,1300486,50,Woman
25,297316,DepthScenes,duration_manipulation_targetAtFixation,jsons/v1_VE250_randls_61_rotated.json,http://54.235.29.9/FacialAge/BNav_EC2/DepthDuration/v2_depth_duration_MTurk/v2_DepthDuration_HTML.html#136,136,1366,625,1366,768,8-20-2022,12-19-10,26,depth_duration_stimuli/001214_2014-06-17_16-13-55_260595134347_rgbf000111-resize_0/001214_2014-06-17_16-13-55_260595134347_rgbf000111-resize_0-target.png,250,2.6505,3,10058,195,meters,jsons/v1_VE250_randls_61_rotated.json,1090591,1300486,50,Woman
26,297316,DepthScenes,duration_manipulation_targetAtFixation,jsons/v1_VE250_randls_61_rotated.json,http://54.235.29.9/FacialAge/BNav_EC2/DepthDuration/v2_depth_duration_MTurk/v2_DepthDuration_HTML.html#136,136,1366,625,1366,768,8-20-2022,12-19-10,27,depth_duration_stimuli/000810_2014-06-08_17-20-01_260595134347_rgbf000105-resize_0/000810_2014-06-08_17-20-01_260595134347_rgbf000105-resize_0-target.png,250,1.4865,6,5947,248,meters,jsons/v1_VE250_randls_61_rotated.json,1090591,1300486,50,Woman
27,297316,DepthScenes,duration_manipulation_targetAtFixation,jsons/v1_VE250_randls_61_rotated.json,http://54.235.29.9/FacialAge/BNav_EC2/DepthDuration/v2_depth_duration_MTurk/v2_DepthDuration_HTML.html#136,136,1366,625,1366,768,8-20-2022,12-19-10,28,depth_duration_stimuli/002340_2014-06-28_20-05-46_260595134347_rgbf000113-resize_0/002340_2014-06-28_20-05-46_260595134347_rgbf000113-resize_0-target.png,250,2.4735,2,5507,251,meters,jsons/v1_VE250_randls_61_rotated.json,1090591,1300486,50,Woman
28,297316,DepthScenes,duration_manipulation_targetAtFixation,jsons/v1_VE250_randls_61_rotated.json,http://54.235.29.9/FacialAge/BNav_EC2/DepthDuration/v2_depth_duration_MTurk/v2_DepthDuration_HTML.html#136,136,1366,625,1366,768,8-20-2022,12-19-10,29,depth_duration_stimuli/001016_2014-06-09_16-16-10_260595134347_rgbf000112-resize_5/001016_2014-06-09_16-16-10_260595134347_rgbf000112-resize_5-target.png,250,1.6565,3,6498,250,meters,jsons/v1_VE250_randls_61_rotated.json,1090591,1300486,50,Woman
29,297316,DepthScenes,duration_manipulation_targetAtFixation,jsons/v1_VE250_randls_61_rotated.json,http://54.235.29.9/FacialAge/BNav_EC2/DepthDuration/v2_depth_duration_MTurk/v2_DepthDuration_HTML.html#136,136,1366,625,1366,768,8-20-2022,12-19-10,30,depth_duration_stimuli/002072_2014-06-24_21-48-06_260595134347_rgbf000115-resize_0/002072_2014-06-24_21-48-06_260595134347_rgbf000115-resize-original.jpg,250,4.702,7,5736,260,meters,jsons/v1_VE250_randls_61_rotated.json,1090591,1300486,50,Woman
30,297316,DepthScenes,duration_manipulation_targetAtFixation,jsons/v1_VE250_randls_61_rotated.json,http://54.235.29.9/FacialAge/BNav_EC2/DepthDuration/v2_depth_duration_MTurk/v2_DepthDuration_HTML.html#136,136,1366,625,1366,768,8-20-2022,12-19-10,31,depth_duration_stimuli/002805_2014-06-22_19-54-03_094959634447_rgbf000079-resize_1/002805_2014-06-22_19-54-03_094959634447_rgbf000079-resize_1-target.png,250,3.1439999999999997,2,5666,238,meters,jsons/v1_VE250_randls_61_rotated.json,1090591,1300486,50,Woman
31,297316,DepthScenes,duration_manipulation_targetAtFixation,jsons/v1_VE250_randls_61_rotated.json,http://54.235.29.9/FacialAge/BNav_EC2/DepthDuration/v2_depth_duration_MTurk/v2_DepthDuration_HTML.html#136,136,1366,625,1366,768,8-20-2022,12-19-10,32,depth_duration_stimuli/000906_2014-06-08_13-35-43_260595134347_rgbf000155-resize_1/000906_2014-06-08_13-35-43_260595134347_rgbf000155-resize_1-target.png,250,2.8489999999999998,1,7516,240,meters,jsons/v1_VE250_randls_61_rotated.json,1090591,1300486,50,Woman
32,297316,DepthScenes,duration_manipulation_targetAtFixation,jsons/v1_VE250_randls_61_rotated.json,http://54.235.29.9/FacialAge/BNav_EC2/DepthDuration/v2_depth_duration_MTurk/v2_DepthDuration_HTML.html#136,136,1366,625,1366,768,8-20-2022,12-19-10,33,depth_duration_stimuli/001571_2014-06-20_17-21-32_260595134347_rgbf000089-resize_1/001571_2014-06-20_17-21-32_260595134347_rgbf000089-resize_1-target.png,250,1.86,6,7872,248,meters,jsons/v1_VE250_randls_61_rotated.json,1090591,1300486,50,Woman
33,297316,DepthScenes,duration_manipulation_targetAtFixation,jsons/v1_VE250_randls_61_rotated.json,http://54.235.29.9/FacialAge/BNav_EC2/DepthDuration/v2_depth_duration_MTurk/v2_DepthDuration_HTML.html#136,136,1366,625,1366,768,8-20-2022,12-19-10,34,depth_duration_stimuli/002272_2014-06-28_18-53-56_260595134347_rgbf000067-resize_2/002272_2014-06-28_18-53-56_260595134347_rgbf000067-resize_2-target.png,250,1.138,3,7267,240,meters,jsons/v1_VE250_randls_61_rotated.json,1090591,1300486,50,Woman
34,297316,DepthScenes,duration_manipulation_targetAtFixation,jsons/v1_VE250_randls_61_rotated.json,http://54.235.29.9/FacialAge/BNav_EC2/DepthDuration/v2_depth_duration_MTurk/v2_DepthDuration_HTML.html#136,136,1366,625,1366,768,8-20-2022,12-19-10,35,depth_duration_stimuli/000483_2014-06-09_20-41-45_260595134347_rgbf000116-resize_4/000483_2014-06-09_20-41-45_260595134347_rgbf000116-resize_4-target.png,250,1.337,6,6988,245,meters,jsons/v1_VE250_randls_61_rotated.json,1090591,1300486,50,Woman
35,297316,DepthScenes,duration_manipulation_targetAtFixation,jsons/v1_VE250_randls_61_rotated.json,http://54.235.29.9/FacialAge/BNav_EC2/DepthDuration/v2_depth_duration_MTurk/v2_DepthDuration_HTML.html#136,136,1366,625,1366,768,8-20-2022,12-19-10,36,depth_duration_stimuli/000469_2014-06-09_19-42-10_260595134347_rgbf000081-resize_1/000469_2014-06-09_19-42-10_260595134347_rgbf000081-resize_1-target.png,250,1.652,2,4627,265,meters,jsons/v1_VE250_randls_61_rotated.json,1090591,1300486,50,Woman
36,297316,DepthScenes,duration_manipulation_targetAtFixation,jsons/v1_VE250_randls_61_rotated.json,http://54.235.29.9/FacialAge/BNav_EC2/DepthDuration/v2_depth_duration_MTurk/v2_DepthDuration_HTML.html#136,136,1366,625,1366,768,8-20-2022,12-19-10,37,depth_duration_stimuli/000556_2014-06-09_22-42-56_260595134347_rgbf000214-resize_1/000556_2014-06-09_22-42-56_260595134347_rgbf000214-resize_1-target.png,250,4.8415,6,7251,243,meters,jsons/v1_VE250_randls_61_rotated.json,1090591,1300486,50,Woman
37,297316,DepthScenes,duration_manipulation_targetAtFixation,jsons/v1_VE250_randls_61_rotated.json,http://54.235.29.9/FacialAge/BNav_EC2/DepthDuration/v2_depth_duration_MTurk/v2_DepthDuration_HTML.html#136,136,1366,625,1366,768,8-20-2022,12-19-10,38,depth_duration_stimuli/001158_2014-06-17_15-32-16_260595134347_rgbf000138-resize_2/001158_2014-06-17_15-32-16_260595134347_rgbf000138-resize_2-target.png,250,4.5315,4,16067,244,meters,jsons/v1_VE250_randls_61_rotated.json,1090591,1300486,50,Woman
38,297316,DepthScenes,duration_manipulation_targetAtFixation,jsons/v1_VE250_randls_61_rotated.json,http://54.235.29.9/FacialAge/BNav_EC2/DepthDuration/v2_depth_duration_MTurk/v2_DepthDuration_HTML.html#136,136,1366,625,1366,768,8-20-2022,12-19-10,39,depth_duration_stimuli/003587_2014-05-23_16-48-02_094959634447_rgbf002384-resize_2/003587_2014-05-23_16-48-02_094959634447_rgbf002384-resize_2-target.png,250,1.357,1,4326,236,meters,jsons/v1_VE250_randls_61_rotated.json,1090591,1300486,50,Woman
39,297316,DepthScenes,duration_manipulation_targetAtFixation,jsons/v1_VE250_randls_61_rotated.json,http://54.235.29.9/FacialAge/BNav_EC2/DepthDuration/v2_depth_duration_MTurk/v2_DepthDuration_HTML.html#136,136,1366,625,1366,768,8-20-2022,12-19-10,40,depth_duration_stimuli/001167_2014-06-17_15-38-07_260595134347_rgbf000108-resize_0/001167_2014-06-17_15-38-07_260595134347_rgbf000108-resize_0-target.png,250,1.8505,2,6842,259,meters,jsons/v1_VE250_randls_61_rotated.json,1090591,1300486,50,Woman
40,297316,DepthScenes,duration_manipulation_targetAtFixation,jsons/v1_VE250_randls_61_rotated.json,http://54.235.29.9/FacialAge/BNav_EC2/DepthDuration/v2_depth_duration_MTurk/v2_DepthDuration_HTML.html#136,136,1366,625,1366,768,8-20-2022,12-19-10,41,depth_duration_stimuli/002639_2014-06-24_14-51-37_094959634447_rgbf000074-resize_4/002639_2014-06-24_14-51-37_094959634447_rgbf000074-resize_4-target.png,250,4.0375,1,8467,240,meters,jsons/v1_VE250_randls_61_rotated.json,1090591,1300486,50,Woman
41,297316,DepthScenes,duration_manipulation_targetAtFixation,jsons/v1_VE250_randls_61_rotated.json,http://54.235.29.9/FacialAge/BNav_EC2/DepthDuration/v2_depth_duration_MTurk/v2_DepthDuration_HTML.html#136,136,1366,625,1366,768,8-20-2022,12-19-10,42,depth_duration_stimuli/003292_2014-05-14_21-53-49_094959634447_rgbf000100-resize_2/003292_2014-05-14_21-53-49_094959634447_rgbf000100-resize_2-target.png,250,3.4815,3,4975,236,meters,jsons/v1_VE250_randls_61_rotated.json,1090591,1300486,50,Woman
42,297316,DepthScenes,duration_manipulation_targetAtFixation,jsons/v1_VE250_randls_61_rotated.json,http://54.235.29.9/FacialAge/BNav_EC2/DepthDuration/v2_depth_duration_MTurk/v2_DepthDuration_HTML.html#136,136,1366,625,1366,768,8-20-2022,12-19-10,43,depth_duration_stimuli/001132_2014-06-17_14-48-54_260595134347_rgbf000100-resize_2/001132_2014-06-17_14-48-54_260595134347_rgbf000100-resize_2-target.png,250,3.753,5,4804,247,meters,jsons/v1_VE250_randls_61_rotated.json,1090591,1300486,50,Woman
43,297316,DepthScenes,duration_manipulation_targetAtFixation,jsons/v1_VE250_randls_61_rotated.json,http://54.235.29.9/FacialAge/BNav_EC2/DepthDuration/v2_depth_duration_MTurk/v2_DepthDuration_HTML.html#136,136,1366,625,1366,768,8-20-2022,12-19-10,44,depth_duration_stimuli/001133_2014-06-17_14-49-16_260595134347_rgbf000100-resize_0/001133_2014-06-17_14-49-16_260595134347_rgbf000100-resize_0-target.png,250,4.2115,3,4605,244,meters,jsons/v1_VE250_randls_61_rotated.json,1090591,1300486,50,Woman
44,297316,DepthScenes,duration_manipulation_targetAtFixation,jsons/v1_VE250_randls_61_rotated.json,http://54.235.29.9/FacialAge/BNav_EC2/DepthDuration/v2_depth_duration_MTurk/v2_DepthDuration_HTML.html#136,136,1366,625,1366,768,8-20-2022,12-19-10,45,depth_duration_stimuli/001828_2014-06-26_21-40-03_260595134347_rgbf000024-resize_0/001828_2014-06-26_21-40-03_260595134347_rgbf000024-resize_0-target.png,250,4.8260000000000005,5,5211,241,meters,jsons/v1_VE250_randls_61_rotated.json,1090591,1300486,50,Woman
45,297316,DepthScenes,duration_manipulation_targetAtFixation,jsons/v1_VE250_randls_61_rotated.json,http://54.235.29.9/FacialAge/BNav_EC2/DepthDuration/v2_depth_duration_MTurk/v2_DepthDuration_HTML.html#136,136,1366,625,1366,768,8-20-2022,12-19-10,46,depth_duration_stimuli/000009_2014-05-26_14-32-05_260595134347_rgbf000034-resize_3/000009_2014-05-26_14-32-05_260595134347_rgbf000034-resize_3-target.png,250,3.8715,3,5275,245,meters,jsons/v1_VE250_randls_61_rotated.json,1090591,1300486,50,Woman
46,297316,DepthScenes,duration_manipulation_targetAtFixation,jsons/v1_VE250_randls_61_rotated.json,http://54.235.29.9/FacialAge/BNav_EC2/DepthDuration/v2_depth_duration_MTurk/v2_DepthDuration_HTML.html#136,136,1366,625,1366,768,8-20-2022,12-19-10,47,depth_duration_stimuli/001136_2014-06-17_15-19-41_260595134347_rgbf000076-resize_3/001136_2014-06-17_15-19-41_260595134347_rgbf000076-resize_3-target.png,250,1.8655,2,5379,305,meters,jsons/v1_VE250_randls_61_rotated.json,1090591,1300486,50,Woman
47,297316,DepthScenes,duration_manipulation_targetAtFixation,jsons/v1_VE250_randls_61_rotated.json,http://54.235.29.9/FacialAge/BNav_EC2/DepthDuration/v2_depth_duration_MTurk/v2_DepthDuration_HTML.html#136,136,1366,625,1366,768,8-20-2022,12-19-10,48,depth_duration_stimuli/001164_2014-06-17_15-35-46_260595134347_rgbf000085-resize_3/001164_2014-06-17_15-35-46_260595134347_rgbf000085-resize_3-target.png,250,2.354,1,5197,247,meters,jsons/v1_VE250_randls_61_rotated.json,1090591,1300486,50,Woman
48,297316,DepthScenes,duration_manipulation_targetAtFixation,jsons/v1_VE250_randls_61_rotated.json,http://54.235.29.9/FacialAge/BNav_EC2/DepthDuration/v2_depth_duration_MTurk/v2_DepthDuration_HTML.html#136,136,1366,625,1366,768,8-20-2022,12-19-10,49,depth_duration_stimuli/001170_2014-06-17_15-43-44_260595134347_rgbf000096-resize_6/001170_2014-06-17_15-43-44_260595134347_rgbf000096-resize-original.jpg,250,1.1909999999999998,4,10527,248,meters,jsons/v1_VE250_randls_61_rotated.json,1090591,1300486,50,Woman
49,297316,DepthScenes,duration_manipulation_targetAtFixation,jsons/v1_VE250_randls_61_rotated.json,http://54.235.29.9/FacialAge/BNav_EC2/DepthDuration/v2_depth_duration_MTurk/v2_DepthDuration_HTML.html#136,136,1366,625,1366,768,8-20-2022,12-19-10,50,depth_duration_stimuli/002953_2014-06-08_17-32-18_094959634447_rgbf000059-resize_5/002953_2014-06-08_17-32-18_094959634447_rgbf000059-resize_5-target.png,250,1.551,2,7064,254,meters,jsons/v1_VE250_randls_61_rotated.json,1090591,1300486,50,Woman
50,297316,DepthScenes,duration_manipulation_targetAtFixation,jsons/v1_VE250_randls_61_rotated.json,http://54.235.29.9/FacialAge/BNav_EC2/DepthDuration/v2_depth_duration_MTurk/v2_DepthDuration_HTML.html#136,136,1366,625,1366,768,8-20-2022,12-19-10,51,depth_duration_stimuli/000878_2014-06-08_22-52-45_260595134347_rgbf000045-resize_2/000878_2014-06-08_22-52-45_260595134347_rgbf000045-resize_2-target.png,250,2.092,3,5385,247,meters,jsons/v1_VE250_randls_61_rotated.json,1090591,1300486,50,Woman
51,297316,DepthScenes,duration_manipulation_targetAtFixation,jsons/v1_VE250_randls_61_rotated.json,http://54.235.29.9/FacialAge/BNav_EC2/DepthDuration/v2_depth_duration_MTurk/v2_DepthDuration_HTML.html#136,136,1366,625,1366,768,8-20-2022,12-19-10,52,depth_duration_stimuli/001584_2014-06-20_11-07-43_260595134347_rgbf000002-resize_1/001584_2014-06-20_11-07-43_260595134347_rgbf000002-resize_1-target.png,250,3.53,1,4928,259,meters,jsons/v1_VE250_randls_61_rotated.json,1090591,1300486,50,Woman
52,297316,DepthScenes,duration_manipulation_targetAtFixation,jsons/v1_VE250_randls_61_rotated.json,http://54.235.29.9/FacialAge/BNav_EC2/DepthDuration/v2_depth_duration_MTurk/v2_DepthDuration_HTML.html#136,136,1366,625,1366,768,8-20-2022,12-19-10,53,depth_duration_stimuli/003621_2014-05-23_18-06-08_094959634447_rgbf000101-resize_1/003621_2014-05-23_18-06-08_094959634447_rgbf000101-resize_1-target.png,250,3.9835,5,6972,246,meters,jsons/v1_VE250_randls_61_rotated.json,1090591,1300486,50,Woman
53,297316,DepthScenes,duration_manipulation_targetAtFixation,jsons/v1_VE250_randls_61_rotated.json,http://54.235.29.9/FacialAge/BNav_EC2/DepthDuration/v2_depth_duration_MTurk/v2_DepthDuration_HTML.html#136,136,1366,625,1366,768,8-20-2022,12-19-10,54,depth_duration_stimuli/002678_2014-06-13_16-15-32_094959634447_rgbf000151-resize_6/002678_2014-06-13_16-15-32_094959634447_rgbf000151-resize_6-target.png,250,2.1830000000000003,3,11606,242,meters,jsons/v1_VE250_randls_61_rotated.json,1090591,1300486,50,Woman
54,297316,DepthScenes,duration_manipulation_targetAtFixation,jsons/v1_VE250_randls_61_rotated.json,http://54.235.29.9/FacialAge/BNav_EC2/DepthDuration/v2_depth_duration_MTurk/v2_DepthDuration_HTML.html#136,136,1366,625,1366,768,8-20-2022,12-19-10,55,depth_duration_stimuli/000368_2014-06-09_15-53-01_260595134347_rgbf000155-resize_2/000368_2014-06-09_15-53-01_260595134347_rgbf000155-resize_2-target.png,250,2.4859999999999998,5,6515,245,meters,jsons/v1_VE250_randls_61_rotated.json,1090591,1300486,50,Woman
55,297316,DepthScenes,duration_manipulation_targetAtFixation,jsons/v1_VE250_randls_61_rotated.json,http://54.235.29.9/FacialAge/BNav_EC2/DepthDuration/v2_depth_duration_MTurk/v2_DepthDuration_HTML.html#136,136,1366,625,1366,768,8-20-2022,12-19-10,56,depth_duration_stimuli/002323_2014-06-28_20-01-54_260595134347_rgbf000051-resize_4/002323_2014-06-28_20-01-54_260595134347_rgbf000051-resize_4-target.png,250,3.7310000000000003,5,4847,686,meters,jsons/v1_VE250_randls_61_rotated.json,1090591,1300486,50,Woman
56,297316,DepthScenes,duration_manipulation_targetAtFixation,jsons/v1_VE250_randls_61_rotated.json,http://54.235.29.9/FacialAge/BNav_EC2/DepthDuration/v2_depth_duration_MTurk/v2_DepthDuration_HTML.html#136,136,1366,625,1366,768,8-20-2022,12-19-10,57,depth_duration_stimuli/000917_2014-06-09_22-45-29_260595134347_rgbf000149-resize_3/000917_2014-06-09_22-45-29_260595134347_rgbf000149-resize_3-target.png,250,4.1865,5,5647,245,meters,jsons/v1_VE250_randls_61_rotated.json,1090591,1300486,50,Woman
57,297316,DepthScenes,duration_manipulation_targetAtFixation,jsons/v1_VE250_randls_61_rotated.json,http://54.235.29.9/FacialAge/BNav_EC2/DepthDuration/v2_depth_duration_MTurk/v2_DepthDuration_HTML.html#136,136,1366,625,1366,768,8-20-2022,12-19-10,58,depth_duration_stimuli/002995_2014-06-15_12-31-26_094959634447_rgbf000150-resize_1/002995_2014-06-15_12-31-26_094959634447_rgbf000150-resize_1-target.png,250,3.8360000000000003,3,6098,249,meters,jsons/v1_VE250_randls_61_rotated.json,1090591,1300486,50,Woman
58,297316,DepthScenes,duration_manipulation_targetAtFixation,jsons/v1_VE250_randls_61_rotated.json,http://54.235.29.9/FacialAge/BNav_EC2/DepthDuration/v2_depth_duration_MTurk/v2_DepthDuration_HTML.html#136,136,1366,625,1366,768,8-20-2022,12-19-10,59,depth_duration_stimuli/002748_2014-06-22_19-07-22_094959634447_rgbf000078-resize_1/002748_2014-06-22_19-07-22_094959634447_rgbf000078-resize_1-target.png,250,4.6705,5,6695,237,meters,jsons/v1_VE250_randls_61_rotated.json,1090591,1300486,50,Woman
59,297316,DepthScenes,duration_manipulation_targetAtFixation,jsons/v1_VE250_randls_61_rotated.json,http://54.235.29.9/FacialAge/BNav_EC2/DepthDuration/v2_depth_duration_MTurk/v2_DepthDuration_HTML.html#136,136,1366,625,1366,768,8-20-2022,12-19-10,60,depth_duration_stimuli/003129_2014-05-12_10-48-10_094959634447_rgbf000100-resize_0/003129_2014-05-12_10-48-10_094959634447_rgbf000100-resize_0-target.png,250,4.9305,6,5053,235,meters,jsons/v1_VE250_randls_61_rotated.json,1090591,1300486,50,Woman
60,297316,DepthScenes,duration_manipulation_targetAtFixation,jsons/v1_VE250_randls_61_rotated.json,http://54.235.29.9/FacialAge/BNav_EC2/DepthDuration/v2_depth_duration_MTurk/v2_DepthDuration_HTML.html#136,136,1366,625,1366,768,8-20-2022,12-19-10,61,depth_duration_stimuli/000414_2014-06-04_19-49-13_260595134347_rgbf000044-resize_0/000414_2014-06-04_19-49-13_260595134347_rgbf000044-resize_0-target.png,250,4.329,3,6426,257,meters,jsons/v1_VE250_randls_61_rotated.json,1090591,1300486,50,Woman
61,297316,DepthScenes,duration_manipulation_targetAtFixation,jsons/v1_VE250_randls_61_rotated.json,http://54.235.29.9/FacialAge/BNav_EC2/DepthDuration/v2_depth_duration_MTurk/v2_DepthDuration_HTML.html#136,136,1366,625,1366,768,8-20-2022,12-19-10,62,depth_duration_stimuli/003048_2014-06-15_13-49-43_094959634447_rgbf000150-resize_1/003048_2014-06-15_13-49-43_094959634447_rgbf000150-resize_1-target.png,250,4.0035,6,5354,78,meters,jsons/v1_VE250_randls_61_rotated.json,1090591,1300486,50,Woman
62,297316,DepthScenes,duration_manipulation_targetAtFixation,jsons/v1_VE250_randls_61_rotated.json,http://54.235.29.9/FacialAge/BNav_EC2/DepthDuration/v2_depth_duration_MTurk/v2_DepthDuration_HTML.html#136,136,1366,625,1366,768,8-20-2022,12-19-10,63,depth_duration_stimuli/002043_2014-06-24_20-29-38_260595134347_rgbf000039-resize_4/002043_2014-06-24_20-29-38_260595134347_rgbf000039-resize_4-target.png,250,2.8435,5,4898,245,meters,jsons/v1_VE250_randls_61_rotated.json,1090591,1300486,50,Woman
63,297316,DepthScenes,duration_manipulation_targetAtFixation,jsons/v1_VE250_randls_61_rotated.json,http://54.235.29.9/FacialAge/BNav_EC2/DepthDuration/v2_depth_duration_MTurk/v2_DepthDuration_HTML.html#136,136,1366,625,1366,768,8-20-2022,12-19-10,64,depth_duration_stimuli/000409_2014-06-04_19-23-33_260595134347_rgbf000067-resize_0/000409_2014-06-04_19-23-33_260595134347_rgbf000067-resize_0-target.png,250,3.7335,9,19925,43,meters,jsons/v1_VE250_randls_61_rotated.json,1090591,1300486,50,Woman
64,297316,DepthScenes,duration_manipulation_targetAtFixation,jsons/v1_VE250_randls_61_rotated.json,http://54.235.29.9/FacialAge/BNav_EC2/DepthDuration/v2_depth_duration_MTurk/v2_DepthDuration_HTML.html#136,136,1366,625,1366,768,8-20-2022,12-19-10,65,depth_duration_stimuli/002663_2014-06-13_15-50-26_094959634447_rgbf000075-resize_1/002663_2014-06-13_15-50-26_094959634447_rgbf000075-resize_1-target.png,250,4.7495,6,4845,251,meters,jsons/v1_VE250_randls_61_rotated.json,1090591,1300486,50,Woman
65,297316,DepthScenes,duration_manipulation_targetAtFixation,jsons/v1_VE250_randls_61_rotated.json,http://54.235.29.9/FacialAge/BNav_EC2/DepthDuration/v2_depth_duration_MTurk/v2_DepthDuration_HTML.html#136,136,1366,625,1366,768,8-20-2022,12-19-10,66,depth_duration_stimuli/001540_2014-06-20_17-01-05_260595134347_rgbf000086-resize_2/001540_2014-06-20_17-01-05_260595134347_rgbf000086-resize-original.jpg,250,1.459,9,5773,241,meters,jsons/v1_VE250_randls_61_rotated.json,1090591,1300486,50,Woman
66,297316,DepthScenes,duration_manipulation_targetAtFixation,jsons/v1_VE250_randls_61_rotated.json,http://54.235.29.9/FacialAge/BNav_EC2/DepthDuration/v2_depth_duration_MTurk/v2_DepthDuration_HTML.html#136,136,1366,625,1366,768,8-20-2022,12-19-10,67,depth_duration_stimuli/003081_2014-06-15_15-19-16_094959634447_rgbf000150-resize_1/003081_2014-06-15_15-19-16_094959634447_rgbf000150-resize_1-target.png,250,3.9125,6,5513,251,meters,jsons/v1_VE250_randls_61_rotated.json,1090591,1300486,50,Woman
67,297316,DepthScenes,duration_manipulation_targetAtFixation,jsons/v1_VE250_randls_61_rotated.json,http://54.235.29.9/FacialAge/BNav_EC2/DepthDuration/v2_depth_duration_MTurk/v2_DepthDuration_HTML.html#136,136,1366,625,1366,768,8-20-2022,12-19-10,68,depth_duration_stimuli/001417_2014-06-19_16-25-36_260595134347_rgbf000115-resize_5/001417_2014-06-19_16-25-36_260595134347_rgbf000115-resize_5-target.png,250,4.6255,6,6344,285,meters,jsons/v1_VE250_randls_61_rotated.json,1090591,1300486,50,Woman
68,297316,DepthScenes,duration_manipulation_targetAtFixation,jsons/v1_VE250_randls_61_rotated.json,http://54.235.29.9/FacialAge/BNav_EC2/DepthDuration/v2_depth_duration_MTurk/v2_DepthDuration_HTML.html#136,136,1366,625,1366,768,8-20-2022,12-19-10,69,depth_duration_stimuli/003338_2014-05-20_11-01-23_094959634447_rgbf000051-resize_6/003338_2014-05-20_11-01-23_094959634447_rgbf000051-resize_6-target.png,250,1.693,4,7585,240,meters,jsons/v1_VE250_randls_61_rotated.json,1090591,1300486,50,Woman
69,297316,DepthScenes,duration_manipulation_targetAtFixation,jsons/v1_VE250_randls_61_rotated.json,http://54.235.29.9/FacialAge/BNav_EC2/DepthDuration/v2_depth_duration_MTurk/v2_DepthDuration_HTML.html#136,136,1366,625,1366,768,8-20-2022,12-19-10,70,depth_duration_stimuli/002509_2014-06-24_13-19-22_094959634447_rgbf000077-resize_0/002509_2014-06-24_13-19-22_094959634447_rgbf000077-resize_0-target.png,250,1.3065,6,4438,254,meters,jsons/v1_VE250_randls_61_rotated.json,1090591,1300486,50,Woman
70,297316,DepthScenes,duration_manipulation_targetAtFixation,jsons/v1_VE250_randls_61_rotated.json,http://54.235.29.9/FacialAge/BNav_EC2/DepthDuration/v2_depth_duration_MTurk/v2_DepthDuration_HTML.html#136,136,1366,625,1366,768,8-20-2022,12-19-10,71,depth_duration_stimuli/000137_2014-05-20_17-04-49_260595134347_rgbf000120-resize_1/000137_2014-05-20_17-04-49_260595134347_rgbf000120-resize_1-target.png,250,3.786,3,5386,253,meters,jsons/v1_VE250_randls_61_rotated.json,1090591,1300486,50,Woman
71,297316,DepthScenes,duration_manipulation_targetAtFixation,jsons/v1_VE250_randls_61_rotated.json,http://54.235.29.9/FacialAge/BNav_EC2/DepthDuration/v2_depth_duration_MTurk/v2_DepthDuration_HTML.html#136,136,1366,625,1366,768,8-20-2022,12-19-10,72,depth_duration_stimuli/000736_2014-06-08_18-24-15_260595134347_rgbf000206-resize_3/000736_2014-06-08_18-24-15_260595134347_rgbf000206-resize_3-target.png,250,3.515,6,5274,249,meters,jsons/v1_VE250_randls_61_rotated.json,1090591,1300486,50,Woman
72,297316,DepthScenes,duration_manipulation_targetAtFixation,jsons/v1_VE250_randls_61_rotated.json,http://54.235.29.9/FacialAge/BNav_EC2/DepthDuration/v2_depth_duration_MTurk/v2_DepthDuration_HTML.html#136,136,1366,625,1366,768,8-20-2022,12-19-10,73,depth_duration_stimuli/001617_2014-06-20_11-35-32_260595134347_rgbf000066-resize_1/001617_2014-06-20_11-35-32_260595134347_rgbf000066-resize_1-target.png,250,3.7910000000000004,8,4955,236,meters,jsons/v1_VE250_randls_61_rotated.json,1090591,1300486,50,Woman
73,297316,DepthScenes,duration_manipulation_targetAtFixation,jsons/v1_VE250_randls_61_rotated.json,http://54.235.29.9/FacialAge/BNav_EC2/DepthDuration/v2_depth_duration_MTurk/v2_DepthDuration_HTML.html#136,136,1366,625,1366,768,8-20-2022,12-19-10,74,depth_duration_stimuli/001806_2014-06-26_20-50-20_260595134347_rgbf000091-resize_1/001806_2014-06-26_20-50-20_260595134347_rgbf000091-resize_1-target.png,250,2.7305,4,4494,239,meters,jsons/v1_VE250_randls_61_rotated.json,1090591,1300486,50,Woman
74,297316,DepthScenes,duration_manipulation_targetAtFixation,jsons/v1_VE250_randls_61_rotated.json,http://54.235.29.9/FacialAge/BNav_EC2/DepthDuration/v2_depth_duration_MTurk/v2_DepthDuration_HTML.html#136,136,1366,625,1366,768,8-20-2022,12-19-10,75,depth_duration_stimuli/000866_2014-06-09_20-45-42_260595134347_rgbf000139-resize_1/000866_2014-06-09_20-45-42_260595134347_rgbf000139-resize_1-target.png,250,3.2155,8,4640,260,meters,jsons/v1_VE250_randls_61_rotated.json,1090591,1300486,50,Woman
75,297316,DepthScenes,duration_manipulation_targetAtFixation,jsons/v1_VE250_randls_61_rotated.json,http://54.235.29.9/FacialAge/BNav_EC2/DepthDuration/v2_depth_duration_MTurk/v2_DepthDuration_HTML.html#136,136,1366,625,1366,768,8-20-2022,12-19-10,76,depth_duration_stimuli/002989_2014-06-15_12-25-03_094959634447_rgbf000150-resize_3/002989_2014-06-15_12-25-03_094959634447_rgbf000150-resize_3-target.png,250,4.1975,5,9947,248,meters,jsons/v1_VE250_randls_61_rotated.json,1090591,1300486,50,Woman
76,297316,DepthScenes,duration_manipulation_targetAtFixation,jsons/v1_VE250_randls_61_rotated.json,http://54.235.29.9/FacialAge/BNav_EC2/DepthDuration/v2_depth_duration_MTurk/v2_DepthDuration_HTML.html#136,136,1366,625,1366,768,8-20-2022,12-19-10,77,depth_duration_stimuli/000103_2014-05-14_22-01-17_260595134347_rgbf000152-resize_5/000103_2014-05-14_22-01-17_260595134347_rgbf000152-resize_5-target.png,250,1.993,6,4340,250,meters,jsons/v1_VE250_randls_61_rotated.json,1090591,1300486,50,Woman
77,297316,DepthScenes,duration_manipulation_targetAtFixation,jsons/v1_VE250_randls_61_rotated.json,http://54.235.29.9/FacialAge/BNav_EC2/DepthDuration/v2_depth_duration_MTurk/v2_DepthDuration_HTML.html#136,136,1366,625,1366,768,8-20-2022,12-19-10,78,depth_duration_stimuli/001555_2014-06-20_17-12-10_260595134347_rgbf000065-resize_4/001555_2014-06-20_17-12-10_260595134347_rgbf000065-resize_4-target.png,250,1.633,5,5466,249,meters,jsons/v1_VE250_randls_61_rotated.json,1090591,1300486,50,Woman
78,297316,DepthScenes,duration_manipulation_targetAtFixation,jsons/v1_VE250_randls_61_rotated.json,http://54.235.29.9/FacialAge/BNav_EC2/DepthDuration/v2_depth_duration_MTurk/v2_DepthDuration_HTML.html#136,136,1366,625,1366,768,8-20-2022,12-19-10,79,depth_duration_stimuli/000457_2014-06-08_16-52-43_260595134347_rgbf000199-resize_1/000457_2014-06-08_16-52-43_260595134347_rgbf000199-resize_1-target.png,250,3.6489999999999996,8,5330,209,meters,jsons/v1_VE250_randls_61_rotated.json,1090591,1300486,50,Woman
79,297316,DepthScenes,duration_manipulation_targetAtFixation,jsons/v1_VE250_randls_61_rotated.json,http://54.235.29.9/FacialAge/BNav_EC2/DepthDuration/v2_depth_duration_MTurk/v2_DepthDuration_HTML.html#136,136,1366,625,1366,768,8-20-2022,12-19-10,80,depth_duration_stimuli/000929_2014-06-09_16-33-19_260595134347_rgbf000139-resize_0/000929_2014-06-09_16-33-19_260595134347_rgbf000139-resize_0-target.png,250,2.8680000000000003,4,5183,263,meters,jsons/v1_VE250_randls_61_rotated.json,1090591,1300486,50,Woman
80,297316,DepthScenes,duration_manipulation_targetAtFixation,jsons/v1_VE250_randls_61_rotated.json,http://54.235.29.9/FacialAge/BNav_EC2/DepthDuration/v2_depth_duration_MTurk/v2_DepthDuration_HTML.html#136,136,1366,625,1366,768,8-20-2022,12-19-10,81,depth_duration_stimuli/002949_2014-06-26_15-57-42_094959634447_rgbf000079-resize_1/002949_2014-06-26_15-57-42_094959634447_rgbf000079-resize_1-target.png,250,1.8915,6,6096,434,meters,jsons/v1_VE250_randls_61_rotated.json,1090591,1300486,50,Woman
81,297316,DepthScenes,duration_manipulation_targetAtFixation,jsons/v1_VE250_randls_61_rotated.json,http://54.235.29.9/FacialAge/BNav_EC2/DepthDuration/v2_depth_duration_MTurk/v2_DepthDuration_HTML.html#136,136,1366,625,1366,768,8-20-2022,12-19-10,82,depth_duration_stimuli/000522_2014-06-08_13-35-06_260595134347_rgbf000244-resize_1/000522_2014-06-08_13-35-06_260595134347_rgbf000244-resize_1-target.png,250,2.3715,6,5668,189,meters,jsons/v1_VE250_randls_61_rotated.json,1090591,1300486,50,Woman
82,297316,DepthScenes,duration_manipulation_targetAtFixation,jsons/v1_VE250_randls_61_rotated.json,http://54.235.29.9/FacialAge/BNav_EC2/DepthDuration/v2_depth_duration_MTurk/v2_DepthDuration_HTML.html#136,136,1366,625,1366,768,8-20-2022,12-19-10,83,depth_duration_stimuli/000665_2014-06-09_20-42-35_260595134347_rgbf000110-resize_1/000665_2014-06-09_20-42-35_260595134347_rgbf000110-resize_1-target.png,250,3.057,7,4578,245,meters,jsons/v1_VE250_randls_61_rotated.json,1090591,1300486,50,Woman
83,297316,DepthScenes,duration_manipulation_targetAtFixation,jsons/v1_VE250_randls_61_rotated.json,http://54.235.29.9/FacialAge/BNav_EC2/DepthDuration/v2_depth_duration_MTurk/v2_DepthDuration_HTML.html#136,136,1366,625,1366,768,8-20-2022,12-19-10,84,depth_duration_stimuli/001150_2014-06-17_15-27-34_260595134347_rgbf000108-resize_2/001150_2014-06-17_15-27-34_260595134347_rgbf000108-resize_2-target.png,250,4.0325,8,4537,244,meters,jsons/v1_VE250_randls_61_rotated.json,1090591,1300486,50,Woman
84,297316,DepthScenes,duration_manipulation_targetAtFixation,jsons/v1_VE250_randls_61_rotated.json,http://54.235.29.9/FacialAge/BNav_EC2/DepthDuration/v2_depth_duration_MTurk/v2_DepthDuration_HTML.html#136,136,1366,625,1366,768,8-20-2022,12-19-10,85,depth_duration_stimuli/000109_2014-05-14_23-41-52_260595134347_rgbf000035-resize_9/000109_2014-05-14_23-41-52_260595134347_rgbf000035-resize_9-target.png,250,1.3545,6,4641,244,meters,jsons/v1_VE250_randls_61_rotated.json,1090591,1300486,50,Woman
85,297316,DepthScenes,duration_manipulation_targetAtFixation,jsons/v1_VE250_randls_61_rotated.json,http://54.235.29.9/FacialAge/BNav_EC2/DepthDuration/v2_depth_duration_MTurk/v2_DepthDuration_HTML.html#136,136,1366,625,1366,768,8-20-2022,12-19-10,86,depth_duration_stimuli/000470_2014-06-09_19-42-40_260595134347_rgbf000094-resize_1/000470_2014-06-09_19-42-40_260595134347_rgbf000094-resize_1-target.png,250,1.831,4,5002,265,meters,jsons/v1_VE250_randls_61_rotated.json,1090591,1300486,50,Woman
86,297316,DepthScenes,duration_manipulation_targetAtFixation,jsons/v1_VE250_randls_61_rotated.json,http://54.235.29.9/FacialAge/BNav_EC2/DepthDuration/v2_depth_duration_MTurk/v2_DepthDuration_HTML.html#136,136,1366,625,1366,768,8-20-2022,12-19-10,87,depth_duration_stimuli/001235_2014-06-17_16-37-36_260595134347_rgbf000084-resize_4/001235_2014-06-17_16-37-36_260595134347_rgbf000084-resize_4-target.png,250,3.6605,8,4951,261,meters,jsons/v1_VE250_randls_61_rotated.json,1090591,1300486,50,Woman
87,297316,DepthScenes,duration_manipulation_targetAtFixation,jsons/v1_VE250_randls_61_rotated.json,http://54.235.29.9/FacialAge/BNav_EC2/DepthDuration/v2_depth_duration_MTurk/v2_DepthDuration_HTML.html#136,136,1366,625,1366,768,8-20-2022,12-19-10,88,depth_duration_stimuli/000788_2014-06-08_22-34-36_260595134347_rgbf000131-resize_1/000788_2014-06-08_22-34-36_260595134347_rgbf000131-resize_1-target.png,250,3.359,9,5690,246,meters,jsons/v1_VE250_randls_61_rotated.json,1090591,1300486,50,Woman
88,297316,DepthScenes,duration_manipulation_targetAtFixation,jsons/v1_VE250_randls_61_rotated.json,http://54.235.29.9/FacialAge/BNav_EC2/DepthDuration/v2_depth_duration_MTurk/v2_DepthDuration_HTML.html#136,136,1366,625,1366,768,8-20-2022,12-19-10,89,depth_duration_stimuli/001815_2014-06-26_20-52-55_260595134347_rgbf000020-resize_0/001815_2014-06-26_20-52-55_260595134347_rgbf000020-resize_0-target.png,250,3.3865,8,5431,243,meters,jsons/v1_VE250_randls_61_rotated.json,1090591,1300486,50,Woman
89,297316,DepthScenes,duration_manipulation_targetAtFixation,jsons/v1_VE250_randls_61_rotated.json,http://54.235.29.9/FacialAge/BNav_EC2/DepthDuration/v2_depth_duration_MTurk/v2_DepthDuration_HTML.html#136,136,1366,625,1366,768,8-20-2022,12-19-10,90,depth_duration_stimuli/001808_2014-06-26_20-50-58_260595134347_rgbf000029-resize_1/001808_2014-06-26_20-50-58_260595134347_rgbf000029-resize_1-target.png,250,4.249,5,4430,249,meters,jsons/v1_VE250_randls_61_rotated.json,1090591,1300486,50,Woman
90,297316,DepthScenes,duration_manipulation_targetAtFixation,jsons/v1_VE250_randls_61_rotated.json,http://54.235.29.9/FacialAge/BNav_EC2/DepthDuration/v2_depth_duration_MTurk/v2_DepthDuration_HTML.html#136,136,1366,625,1366,768,8-20-2022,12-19-10,91,depth_duration_stimuli/002209_2014-06-28_18-36-10_260595134347_rgbf000051-resize_1/002209_2014-06-28_18-36-10_260595134347_rgbf000051-resize_1-target.png,250,2.057,5,10437,268,meters,jsons/v1_VE250_randls_61_rotated.json,1090591,1300486,50,Woman
91,297316,DepthScenes,duration_manipulation_targetAtFixation,jsons/v1_VE250_randls_61_rotated.json,http://54.235.29.9/FacialAge/BNav_EC2/DepthDuration/v2_depth_duration_MTurk/v2_DepthDuration_HTML.html#136,136,1366,625,1366,768,8-20-2022,12-19-10,92,depth_duration_stimuli/002763_2014-06-22_19-13-10_094959634447_rgbf000075-resize_4/002763_2014-06-22_19-13-10_094959634447_rgbf000075-resize_4-target.png,250,1.68375,6,7995,254,meters,jsons/v1_VE250_randls_61_rotated.json,1090591,1300486,50,Woman
92,297316,DepthScenes,duration_manipulation_targetAtFixation,jsons/v1_VE250_randls_61_rotated.json,http://54.235.29.9/FacialAge/BNav_EC2/DepthDuration/v2_depth_duration_MTurk/v2_DepthDuration_HTML.html#136,136,1366,625,1366,768,8-20-2022,12-19-10,93,depth_duration_stimuli/002568_2014-06-24_13-59-21_094959634447_rgbf000062-resize_4/002568_2014-06-24_13-59-21_094959634447_rgbf000062-resize_4-target.png,250,3.015,8,5545,261,meters,jsons/v1_VE250_randls_61_rotated.json,1090591,1300486,50,Woman
93,297316,DepthScenes,duration_manipulation_targetAtFixation,jsons/v1_VE250_randls_61_rotated.json,http://54.235.29.9/FacialAge/BNav_EC2/DepthDuration/v2_depth_duration_MTurk/v2_DepthDuration_HTML.html#136,136,1366,625,1366,768,8-20-2022,12-19-10,94,depth_duration_stimuli/003492_2014-05-21_15-50-55_094959634447_rgbf000828-resize_1/003492_2014-05-21_15-50-55_094959634447_rgbf000828-resize_1-target.png,250,4.06875,4,6060,253,meters,jsons/v1_VE250_randls_61_rotated.json,1090591,1300486,50,Woman
94,297316,DepthScenes,duration_manipulation_targetAtFixation,jsons/v1_VE250_randls_61_rotated.json,http://54.235.29.9/FacialAge/BNav_EC2/DepthDuration/v2_depth_duration_MTurk/v2_DepthDuration_HTML.html#136,136,1366,625,1366,768,8-20-2022,12-19-10,95,depth_duration_stimuli/002657_2014-06-13_15-29-54_094959634447_rgbf000150-resize_1/002657_2014-06-13_15-29-54_094959634447_rgbf000150-resize_1-target.png,250,4.919,8,7247,164,meters,jsons/v1_VE250_randls_61_rotated.json,1090591,1300486,50,Woman
95,297316,DepthScenes,duration_manipulation_targetAtFixation,jsons/v1_VE250_randls_61_rotated.json,http://54.235.29.9/FacialAge/BNav_EC2/DepthDuration/v2_depth_duration_MTurk/v2_DepthDuration_HTML.html#136,136,1366,625,1366,768,8-20-2022,12-19-10,96,depth_duration_stimuli/002375_2014-06-28_20-13-44_260595134347_rgbf000032-resize_1/002375_2014-06-28_20-13-44_260595134347_rgbf000032-resize_1-target.png,250,4.0175,6,6141,238,meters,jsons/v1_VE250_randls_61_rotated.json,1090591,1300486,50,Woman
96,297316,DepthScenes,duration_manipulation_targetAtFixation,jsons/v1_VE250_randls_61_rotated.json,http://54.235.29.9/FacialAge/BNav_EC2/DepthDuration/v2_depth_duration_MTurk/v2_DepthDuration_HTML.html#136,136,1366,625,1366,768,8-20-2022,12-19-10,97,depth_duration_stimuli/002758_2014-06-22_19-11-20_094959634447_rgbf000128-resize_1/002758_2014-06-22_19-11-20_094959634447_rgbf000128-resize_1-target.png,250,2.555,4,6028,248,meters,jsons/v1_VE250_randls_61_rotated.json,1090591,1300486,50,Woman
97,297316,DepthScenes,duration_manipulation_targetAtFixation,jsons/v1_VE250_randls_61_rotated.json,http://54.235.29.9/FacialAge/BNav_EC2/DepthDuration/v2_depth_duration_MTurk/v2_DepthDuration_HTML.html#136,136,1366,625,1366,768,8-20-2022,12-19-10,98,depth_duration_stimuli/002630_2014-06-24_14-47-50_094959634447_rgbf000055-resize_1/002630_2014-06-24_14-47-50_094959634447_rgbf000055-resize_1-target.png,250,3.0095,8,5193,248,meters,jsons/v1_VE250_randls_61_rotated.json,1090591,1300486,50,Woman
98,297316,DepthScenes,duration_manipulation_targetAtFixation,jsons/v1_VE250_randls_61_rotated.json,http://54.235.29.9/FacialAge/BNav_EC2/DepthDuration/v2_depth_duration_MTurk/v2_DepthDuration_HTML.html#136,136,1366,625,1366,768,8-20-2022,12-19-10,99,depth_duration_stimuli/001222_2014-06-17_16-24-06_260595134347_rgbf000073-resize_0/001222_2014-06-17_16-24-06_260595134347_rgbf000073-resize-original.jpg,250,1.4385,9,4953,316,meters,jsons/v1_VE250_randls_61_rotated.json,1090591,1300486,50,Woman
99,297316,DepthScenes,duration_manipulation_targetAtFixation,jsons/v1_VE250_randls_61_rotated.json,http://54.235.29.9/FacialAge/BNav_EC2/DepthDuration/v2_depth_duration_MTurk/v2_DepthDuration_HTML.html#136,136,1366,625,1366,768,8-20-2022,12-19-10,100,depth_duration_stimuli/001100_2014-06-15_17-46-26_260595134347_rgbf000225-resize_2/001100_2014-06-15_17-46-26_260595134347_rgbf000225-resize_2-target.png,250,2.24,5,4478,243,meters,jsons/v1_VE250_randls_61_rotated.json,1090591,1300486,50,Woman
100,297316,DepthScenes,duration_manipulation_targetAtFixation,jsons/v1_VE250_randls_61_rotated.json,http://54.235.29.9/FacialAge/BNav_EC2/DepthDuration/v2_depth_duration_MTurk/v2_DepthDuration_HTML.html#136,136,1366,625,1366,768,8-20-2022,12-19-10,101,depth_duration_stimuli/002784_2014-06-22_19-26-30_094959634447_rgbf000083-resize_3/002784_2014-06-22_19-26-30_094959634447_rgbf000083-resize_3-target.png,250,1.8046666666667,4,3407,188,meters,jsons/v1_VE250_randls_61_rotated.json,1090591,1300486,50,Woman
101,297316,DepthScenes,duration_manipulation_targetAtFixation,jsons/v1_VE250_randls_61_rotated.json,http://54.235.29.9/FacialAge/BNav_EC2/DepthDuration/v2_depth_duration_MTurk/v2_DepthDuration_HTML.html#136,136,1366,625,1366,768,8-20-2022,12-19-10,102,depth_duration_stimuli/000709_2014-06-08_13-51-55_260595134347_rgbf000068-resize_3/000709_2014-06-08_13-51-55_260595134347_rgbf000068-resize_3-target.png,250,1.8030000000000002,8,5537,247,meters,jsons/v1_VE250_randls_61_rotated.json,1090591,1300486,50,Woman
102,297316,DepthScenes,duration_manipulation_targetAtFixation,jsons/v1_VE250_randls_61_rotated.json,http://54.235.29.9/FacialAge/BNav_EC2/DepthDuration/v2_depth_duration_MTurk/v2_DepthDuration_HTML.html#136,136,1366,625,1366,768,8-20-2022,12-19-10,103,depth_duration_stimuli/002057_2014-06-24_21-00-13_260595134347_rgbf000120-resize_1/002057_2014-06-24_21-00-13_260595134347_rgbf000120-resize_1-target.png,250,2.967,7,5473,247,meters,jsons/v1_VE250_randls_61_rotated.json,1090591,1300486,50,Woman
103,297316,DepthScenes,duration_manipulation_targetAtFixation,jsons/v1_VE250_randls_61_rotated.json,http://54.235.29.9/FacialAge/BNav_EC2/DepthDuration/v2_depth_duration_MTurk/v2_DepthDuration_HTML.html#136,136,1366,625,1366,768,8-20-2022,12-19-10,104,depth_duration_stimuli/002199_2014-06-28_18-33-56_260595134347_rgbf000074-resize_0/002199_2014-06-28_18-33-56_260595134347_rgbf000074-resize_0-target.png,250,1.996,4,7492,249,meters,jsons/v1_VE250_randls_61_rotated.json,1090591,1300486,50,Woman
104,297316,DepthScenes,duration_manipulation_targetAtFixation,jsons/v1_VE250_randls_61_rotated.json,http://54.235.29.9/FacialAge/BNav_EC2/DepthDuration/v2_depth_duration_MTurk/v2_DepthDuration_HTML.html#136,136,1366,625,1366,768,8-20-2022,12-19-10,105,depth_duration_stimuli/001056_2014-06-08_18-46-44_260595134347_rgbf000068-resize_0/001056_2014-06-08_18-46-44_260595134347_rgbf000068-resize_0-target.png,250,2.6625,7,5207,281,meters,jsons/v1_VE250_randls_61_rotated.json,1090591,1300486,50,Woman
105,297316,DepthScenes,duration_manipulation_targetAtFixation,jsons/v1_VE250_randls_61_rotated.json,http://54.235.29.9/FacialAge/BNav_EC2/DepthDuration/v2_depth_duration_MTurk/v2_DepthDuration_HTML.html#136,136,1366,625,1366,768,8-20-2022,12-19-10,106,depth_duration_stimuli/000927_2014-06-09_16-32-30_260595134347_rgbf000123-resize_3/000927_2014-06-09_16-32-30_260595134347_rgbf000123-resize_3-target.png,250,2.6785,6,5265,250,meters,jsons/v1_VE250_randls_61_rotated.json,1090591,1300486,50,Woman
106,297316,DepthScenes,duration_manipulation_targetAtFixation,jsons/v1_VE250_randls_61_rotated.json,http://54.235.29.9/FacialAge/BNav_EC2/DepthDuration/v2_depth_duration_MTurk/v2_DepthDuration_HTML.html#136,136,1366,625,1366,768,8-20-2022,12-19-10,107,depth_duration_stimuli/001110_2014-06-15_17-25-28_260595134347_rgbf000150-resize_1/001110_2014-06-15_17-25-28_260595134347_rgbf000150-resize_1-target.png,250,1.7115,4,4315,308,meters,jsons/v1_VE250_randls_61_rotated.json,1090591,1300486,50,Woman
107,297316,DepthScenes,duration_manipulation_targetAtFixation,jsons/v1_VE250_randls_61_rotated.json,http://54.235.29.9/FacialAge/BNav_EC2/DepthDuration/v2_depth_duration_MTurk/v2_DepthDuration_HTML.html#136,136,1366,625,1366,768,8-20-2022,12-19-10,108,depth_duration_stimuli/002425_2014-06-28_20-27-29_260595134347_rgbf000031-resize_8/002425_2014-06-28_20-27-29_260595134347_rgbf000031-resize_8-target.png,250,3.8960000000000004,7,5583,250,meters,jsons/v1_VE250_randls_61_rotated.json,1090591,1300486,50,Woman
108,297316,DepthScenes,duration_manipulation_targetAtFixation,jsons/v1_VE250_randls_61_rotated.json,http://54.235.29.9/FacialAge/BNav_EC2/DepthDuration/v2_depth_duration_MTurk/v2_DepthDuration_HTML.html#136,136,1366,625,1366,768,8-20-2022,12-19-10,109,depth_duration_stimuli/000642_2014-06-08_16-59-25_260595134347_rgbf000098-resize_2/000642_2014-06-08_16-59-25_260595134347_rgbf000098-resize_2-target.png,250,2.8815,5,27368,260,meters,jsons/v1_VE250_randls_61_rotated.json,1090591,1300486,50,Woman
109,297316,DepthScenes,duration_manipulation_targetAtFixation,jsons/v1_VE250_randls_61_rotated.json,http://54.235.29.9/FacialAge/BNav_EC2/DepthDuration/v2_depth_duration_MTurk/v2_DepthDuration_HTML.html#136,136,1366,625,1366,768,8-20-2022,12-19-10,110,depth_duration_stimuli/003079_2014-06-15_15-18-20_094959634447_rgbf000152-resize_8/003079_2014-06-15_15-18-20_094959634447_rgbf000152-resize_8-target.png,250,2.8775,5,19475,257,meters,jsons/v1_VE250_randls_61_rotated.json,1090591,1300486,50,Woman
110,297316,DepthScenes,duration_manipulation_targetAtFixation,jsons/v1_VE250_randls_61_rotated.json,http://54.235.29.9/FacialAge/BNav_EC2/DepthDuration/v2_depth_duration_MTurk/v2_DepthDuration_HTML.html#136,136,1366,625,1366,768,8-20-2022,12-19-10,111,depth_duration_stimuli/000506_2014-06-08_23-21-00_260595134347_rgbf000070-resize_7/000506_2014-06-08_23-21-00_260595134347_rgbf000070-resize_7-target.png,250,4.0585,6,3883,249,meters,jsons/v1_VE250_randls_61_rotated.json,1090591,1300486,50,Woman
111,297316,DepthScenes,duration_manipulation_targetAtFixation,jsons/v1_VE250_randls_61_rotated.json,http://54.235.29.9/FacialAge/BNav_EC2/DepthDuration/v2_depth_duration_MTurk/v2_DepthDuration_HTML.html#136,136,1366,625,1366,768,8-20-2022,12-19-10,112,depth_duration_stimuli/002414_2014-06-28_20-24-58_260595134347_rgbf000067-resize_4/002414_2014-06-28_20-24-58_260595134347_rgbf000067-resize_4-target.png,250,4.363,9,8283,248,meters,jsons/v1_VE250_randls_61_rotated.json,1090591,1300486,50,Woman
112,297316,DepthScenes,duration_manipulation_targetAtFixation,jsons/v1_VE250_randls_61_rotated.json,http://54.235.29.9/FacialAge/BNav_EC2/DepthDuration/v2_depth_duration_MTurk/v2_DepthDuration_HTML.html#136,136,1366,625,1366,768,8-20-2022,12-19-10,113,depth_duration_stimuli/000773_2014-06-08_22-24-54_260595134347_rgbf000093-resize_1/000773_2014-06-08_22-24-54_260595134347_rgbf000093-resize_1-target.png,250,4.973,8,3581,206,meters,jsons/v1_VE250_randls_61_rotated.json,1090591,1300486,50,Woman
113,297316,DepthScenes,duration_manipulation_targetAtFixation,jsons/v1_VE250_randls_61_rotated.json,http://54.235.29.9/FacialAge/BNav_EC2/DepthDuration/v2_depth_duration_MTurk/v2_DepthDuration_HTML.html#136,136,1366,625,1366,768,8-20-2022,12-19-10,114,depth_duration_stimuli/003083_2014-06-15_15-21-03_094959634447_rgbf000063-resize_1/003083_2014-06-15_15-21-03_094959634447_rgbf000063-resize_1-target.png,250,4.1405,7,4486,107,meters,jsons/v1_VE250_randls_61_rotated.json,1090591,1300486,50,Woman
114,297316,DepthScenes,duration_manipulation_targetAtFixation,jsons/v1_VE250_randls_61_rotated.json,http://54.235.29.9/FacialAge/BNav_EC2/DepthDuration/v2_depth_duration_MTurk/v2_DepthDuration_HTML.html#136,136,1366,625,1366,768,8-20-2022,12-19-10,115,depth_duration_stimuli/000486_2014-06-09_20-47-20_260595134347_rgbf000143-resize_2/000486_2014-06-09_20-47-20_260595134347_rgbf000143-resize_2-target.png,250,4.8325,6,3596,403,meters,jsons/v1_VE250_randls_61_rotated.json,1090591,1300486,50,Woman
115,297316,DepthScenes,duration_manipulation_targetAtFixation,jsons/v1_VE250_randls_61_rotated.json,http://54.235.29.9/FacialAge/BNav_EC2/DepthDuration/v2_depth_duration_MTurk/v2_DepthDuration_HTML.html#136,136,1366,625,1366,768,8-20-2022,12-19-10,116,depth_duration_stimuli/002637_2014-06-24_14-51-13_094959634447_rgbf000066-resize_4/002637_2014-06-24_14-51-13_094959634447_rgbf000066-resize_4-target.png,250,1.9955,5,5935,249,meters,jsons/v1_VE250_randls_61_rotated.json,1090591,1300486,50,Woman
116,297316,DepthScenes,duration_manipulation_targetAtFixation,jsons/v1_VE250_randls_61_rotated.json,http://54.235.29.9/FacialAge/BNav_EC2/DepthDuration/v2_depth_duration_MTurk/v2_DepthDuration_HTML.html#136,136,1366,625,1366,768,8-20-2022,12-19-10,117,depth_duration_stimuli/003534_2014-05-22_15-06-10_094959634447_rgbf000102-resize_4/003534_2014-05-22_15-06-10_094959634447_rgbf000102-resize_4-target.png,250,1.426,5,4578,704,meters,jsons/v1_VE250_randls_61_rotated.json,1090591,1300486,50,Woman
117,297316,DepthScenes,duration_manipulation_targetAtFixation,jsons/v1_VE250_randls_61_rotated.json,http://54.235.29.9/FacialAge/BNav_EC2/DepthDuration/v2_depth_duration_MTurk/v2_DepthDuration_HTML.html#136,136,1366,625,1366,768,8-20-2022,12-19-10,118,depth_duration_stimuli/002467_2014-06-28_20-38-07_260595134347_rgbf000026-resize_2/002467_2014-06-28_20-38-07_260595134347_rgbf000026-resize_2-target.png,250,4.742,6,4332,186,meters,jsons/v1_VE250_randls_61_rotated.json,1090591,1300486,50,Woman
118,297316,DepthScenes,duration_manipulation_targetAtFixation,jsons/v1_VE250_randls_61_rotated.json,http://54.235.29.9/FacialAge/BNav_EC2/DepthDuration/v2_depth_duration_MTurk/v2_DepthDuration_HTML.html#136,136,1366,625,1366,768,8-20-2022,12-19-10,119,depth_duration_stimuli/002570_2014-06-24_13-59-54_094959634447_rgbf000059-resize_0/002570_2014-06-24_13-59-54_094959634447_rgbf000059-resize_0-target.png,250,4.037,5,7402,253,meters,jsons/v1_VE250_randls_61_rotated.json,1090591,1300486,50,Woman
119,297316,DepthScenes,duration_manipulation_targetAtFixation,jsons/v1_VE250_randls_61_rotated.json,http://54.235.29.9/FacialAge/BNav_EC2/DepthDuration/v2_depth_duration_MTurk/v2_DepthDuration_HTML.html#136,136,1366,625,1366,768,8-20-2022,12-19-10,120,depth_duration_stimuli/000787_2014-06-08_22-33-53_260595134347_rgbf000175-resize_1/000787_2014-06-08_22-33-53_260595134347_rgbf000175-resize-original.jpg,250,4.784,6,4138,166,meters,jsons/v1_VE250_randls_61_rotated.json,1090591,1300486,50,Woman
120,297316,DepthScenes,duration_manipulation_targetAtFixation,jsons/v1_VE250_randls_61_rotated.json,http://54.235.29.9/FacialAge/BNav_EC2/DepthDuration/v2_depth_duration_MTurk/v2_DepthDuration_HTML.html#136,136,1366,625,1366,768,8-20-2022,12-19-10,121,depth_duration_stimuli/000549_2014-06-08_22-10-24_260595134347_rgbf000247-resize_3/000549_2014-06-08_22-10-24_260595134347_rgbf000247-resize_3-target.png,250,1.841,5,4301,209,meters,jsons/v1_VE250_randls_61_rotated.json,1090591,1300486,50,Woman
121,297316,DepthScenes,duration_manipulation_targetAtFixation,jsons/v1_VE250_randls_61_rotated.json,http://54.235.29.9/FacialAge/BNav_EC2/DepthDuration/v2_depth_duration_MTurk/v2_DepthDuration_HTML.html#136,136,1366,625,1366,768,8-20-2022,12-19-10,122,depth_duration_stimuli/001055_2014-06-08_18-45-35_260595134347_rgbf000111-resize_4/001055_2014-06-08_18-45-35_260595134347_rgbf000111-resize_4-target.png,250,2.4290000000000003,6,13140,1524,meters,jsons/v1_VE250_randls_61_rotated.json,1090591,1300486,50,Woman
122,297316,DepthScenes,duration_manipulation_targetAtFixation,jsons/v1_VE250_randls_61_rotated.json,http://54.235.29.9/FacialAge/BNav_EC2/DepthDuration/v2_depth_duration_MTurk/v2_DepthDuration_HTML.html#136,136,1366,625,1366,768,8-20-2022,12-19-10,123,depth_duration_stimuli/000780_2014-06-08_22-28-29_260595134347_rgbf000126-resize_1/000780_2014-06-08_22-28-29_260595134347_rgbf000126-resize_1-target.png,250,3.3825,7,3531,150,meters,jsons/v1_VE250_randls_61_rotated.json,1090591,1300486,50,Woman
123,297316,DepthScenes,duration_manipulation_targetAtFixation,jsons/v1_VE250_randls_61_rotated.json,http://54.235.29.9/FacialAge/BNav_EC2/DepthDuration/v2_depth_duration_MTurk/v2_DepthDuration_HTML.html#136,136,1366,625,1366,768,8-20-2022,12-19-10,124,depth_duration_stimuli/002445_2014-06-28_20-32-16_260595134347_rgbf000029-resize_4/002445_2014-06-28_20-32-16_260595134347_rgbf000029-resize_4-target.png,250,2.5315,8,3796,233,meters,jsons/v1_VE250_randls_61_rotated.json,1090591,1300486,50,Woman
124,297316,DepthScenes,duration_manipulation_targetAtFixation,jsons/v1_VE250_randls_61_rotated.json,http://54.235.29.9/FacialAge/BNav_EC2/DepthDuration/v2_depth_duration_MTurk/v2_DepthDuration_HTML.html#136,136,1366,625,1366,768,8-20-2022,12-19-10,125,depth_duration_stimuli/000749_2014-06-08_21-55-06_260595134347_rgbf000070-resize_2/000749_2014-06-08_21-55-06_260595134347_rgbf000070-resize_2-target.png,250,2.331,9,4035,232,meters,jsons/v1_VE250_randls_61_rotated.json,1090591,1300486,50,Woman
125,297316,DepthScenes,duration_manipulation_targetAtFixation,jsons/v1_VE250_randls_61_rotated.json,http://54.235.29.9/FacialAge/BNav_EC2/DepthDuration/v2_depth_duration_MTurk/v2_DepthDuration_HTML.html#136,136,1366,625,1366,768,8-20-2022,12-19-10,126,depth_duration_stimuli/002788_2014-06-22_19-36-03_094959634447_rgbf000088-resize_2/002788_2014-06-22_19-36-03_094959634447_rgbf000088-resize_2-target.png,250,1.6465,6,3641,247,meters,jsons/v1_VE250_randls_61_rotated.json,1090591,1300486,50,Woman
126,297316,DepthScenes,duration_manipulation_targetAtFixation,jsons/v1_VE250_randls_61_rotated.json,http://54.235.29.9/FacialAge/BNav_EC2/DepthDuration/v2_depth_duration_MTurk/v2_DepthDuration_HTML.html#136,136,1366,625,1366,768,8-20-2022,12-19-10,127,depth_duration_stimuli/001516_2014-06-20_16-25-09_260595134347_rgbf000076-resize_2/001516_2014-06-20_16-25-09_260595134347_rgbf000076-resize_2-target.png,250,1.7445,5,3443,248,meters,jsons/v1_VE250_randls_61_rotated.json,1090591,1300486,50,Woman
127,297316,DepthScenes,duration_manipulation_targetAtFixation,jsons/v1_VE250_randls_61_rotated.json,http://54.235.29.9/FacialAge/BNav_EC2/DepthDuration/v2_depth_duration_MTurk/v2_DepthDuration_HTML.html#136,136,1366,625,1366,768,8-20-2022,12-19-10,128,depth_duration_stimuli/002118_2014-06-25_20-32-08_260595134347_rgbf000078-resize_1/002118_2014-06-25_20-32-08_260595134347_rgbf000078-resize_1-target.png,250,2.6460000000000004,4,4411,249,meters,jsons/v1_VE250_randls_61_rotated.json,1090591,1300486,50,Woman
128,297316,DepthScenes,duration_manipulation_targetAtFixation,jsons/v1_VE250_randls_61_rotated.json,http://54.235.29.9/FacialAge/BNav_EC2/DepthDuration/v2_depth_duration_MTurk/v2_DepthDuration_HTML.html#136,136,1366,625,1366,768,8-20-2022,12-19-10,129,depth_duration_stimuli/002750_2014-06-22_19-08-03_094959634447_rgbf000094-resize_4/002750_2014-06-22_19-08-03_094959634447_rgbf000094-resize_4-target.png,250,2.354,4,3895,241,meters,jsons/v1_VE250_randls_61_rotated.json,1090591,1300486,50,Woman
129,297316,DepthScenes,duration_manipulation_targetAtFixation,jsons/v1_VE250_randls_61_rotated.json,http://54.235.29.9/FacialAge/BNav_EC2/DepthDuration/v2_depth_duration_MTurk/v2_DepthDuration_HTML.html#136,136,1366,625,1366,768,8-20-2022,12-19-10,130,depth_duration_stimuli/002549_2014-06-24_13-41-39_094959634447_rgbf000022-resize_3/002549_2014-06-24_13-41-39_094959634447_rgbf000022-resize_3-target.png,250,1.476,5,3218,240,meters,jsons/v1_VE250_randls_61_rotated.json,1090591,1300486,50,Woman
130,297316,DepthScenes,duration_manipulation_targetAtFixation,jsons/v1_VE250_randls_61_rotated.json,http://54.235.29.9/FacialAge/BNav_EC2/DepthDuration/v2_depth_duration_MTurk/v2_DepthDuration_HTML.html#136,136,1366,625,1366,768,8-20-2022,12-19-10,131,depth_duration_stimuli/001052_2014-06-08_18-24-54_260595134347_rgbf000130-resize_1/001052_2014-06-08_18-24-54_260595134347_rgbf000130-resize_1-target.png,250,4.1045,6,7728,243,meters,jsons/v1_VE250_randls_61_rotated.json,1090591,1300486,50,Woman
131,297316,DepthScenes,duration_manipulation_targetAtFixation,jsons/v1_VE250_randls_61_rotated.json,http://54.235.29.9/FacialAge/BNav_EC2/DepthDuration/v2_depth_duration_MTurk/v2_DepthDuration_HTML.html#136,136,1366,625,1366,768,8-20-2022,12-19-10,132,depth_duration_stimuli/002988_2014-06-15_12-24-20_094959634447_rgbf000150-resize_1/002988_2014-06-15_12-24-20_094959634447_rgbf000150-resize_1-target.png,250,4.7669999999999995,7,3898,236,meters,jsons/v1_VE250_randls_61_rotated.json,1090591,1300486,50,Woman
132,297316,DepthScenes,duration_manipulation_targetAtFixation,jsons/v1_VE250_randls_61_rotated.json,http://54.235.29.9/FacialAge/BNav_EC2/DepthDuration/v2_depth_duration_MTurk/v2_DepthDuration_HTML.html#136,136,1366,625,1366,768,8-20-2022,12-19-10,133,depth_duration_stimuli/002875_2014-06-01_15-19-00_094959634447_rgbf000151-resize_1/002875_2014-06-01_15-19-00_094959634447_rgbf000151-resize_1-target.png,250,1.9675,6,4527,236,meters,jsons/v1_VE250_randls_61_rotated.json,1090591,1300486,50,Woman
133,297316,DepthScenes,duration_manipulation_targetAtFixation,jsons/v1_VE250_randls_61_rotated.json,http://54.235.29.9/FacialAge/BNav_EC2/DepthDuration/v2_depth_duration_MTurk/v2_DepthDuration_HTML.html#136,136,1366,625,1366,768,8-20-2022,12-19-10,134,depth_duration_stimuli/001011_2014-06-08_23-18-54_260595134347_rgbf000044-resize_4/001011_2014-06-08_23-18-54_260595134347_rgbf000044-resize_4-target.png,250,2.4730000000000003,5,3523,255,meters,jsons/v1_VE250_randls_61_rotated.json,1090591,1300486,50,Woman
134,297316,DepthScenes,duration_manipulation_targetAtFixation,jsons/v1_VE250_randls_61_rotated.json,http://54.235.29.9/FacialAge/BNav_EC2/DepthDuration/v2_depth_duration_MTurk/v2_DepthDuration_HTML.html#136,136,1366,625,1366,768,8-20-2022,12-19-10,135,depth_duration_stimuli/000375_2014-06-08_11-17-29_260595134347_rgbf000133-resize_2/000375_2014-06-08_11-17-29_260595134347_rgbf000133-resize-original.jpg,250,4.718,6,3544,230,meters,jsons/v1_VE250_randls_61_rotated.json,1090591,1300486,50,Woman
135,297316,DepthScenes,duration_manipulation_targetAtFixation,jsons/v1_VE250_randls_61_rotated.json,http://54.235.29.9/FacialAge/BNav_EC2/DepthDuration/v2_depth_duration_MTurk/v2_DepthDuration_HTML.html#136,136,1366,625,1366,768,8-20-2022,12-19-10,136,depth_duration_stimuli/003490_2014-05-21_15-50-11_094959634447_rgbf000101-resize_3/003490_2014-05-21_15-50-11_094959634447_rgbf000101-resize_3-target.png,250,3.6445,4,3583,256,meters,jsons/v1_VE250_randls_61_rotated.json,1090591,1300486,50,Woman
136,297316,DepthScenes,duration_manipulation_targetAtFixation,jsons/v1_VE250_randls_61_rotated.json,http://54.235.29.9/FacialAge/BNav_EC2/DepthDuration/v2_depth_duration_MTurk/v2_DepthDuration_HTML.html#136,136,1366,625,1366,768,8-20-2022,12-19-10,137,depth_duration_stimuli/001175_2014-06-17_15-45-55_260595134347_rgbf000129-resize_4/001175_2014-06-17_15-45-55_260595134347_rgbf000129-resize_4-target.png,250,4.255,6,3655,169,meters,jsons/v1_VE250_randls_61_rotated.json,1090591,1300486,50,Woman
137,297316,DepthScenes,duration_manipulation_targetAtFixation,jsons/v1_VE250_randls_61_rotated.json,http://54.235.29.9/FacialAge/BNav_EC2/DepthDuration/v2_depth_duration_MTurk/v2_DepthDuration_HTML.html#136,136,1366,625,1366,768,8-20-2022,12-19-10,138,depth_duration_stimuli/001650_2014-06-20_12-09-00_260595134347_rgbf000087-resize_3/001650_2014-06-20_12-09-00_260595134347_rgbf000087-resize_3-target.png,250,1.9505,4,4198,241,meters,jsons/v1_VE250_randls_61_rotated.json,1090591,1300486,50,Woman
138,297316,DepthScenes,duration_manipulation_targetAtFixation,jsons/v1_VE250_randls_61_rotated.json,http://54.235.29.9/FacialAge/BNav_EC2/DepthDuration/v2_depth_duration_MTurk/v2_DepthDuration_HTML.html#136,136,1366,625,1366,768,8-20-2022,12-19-10,139,depth_duration_stimuli/000682_2014-06-08_23-14-58_260595134347_rgbf000041-resize_5/000682_2014-06-08_23-14-58_260595134347_rgbf000041-resize_5-target.png,250,2.7239999999999998,6,4271,234,meters,jsons/v1_VE250_randls_61_rotated.json,1090591,1300486,50,Woman
139,297316,DepthScenes,duration_manipulation_targetAtFixation,jsons/v1_VE250_randls_61_rotated.json,http://54.235.29.9/FacialAge/BNav_EC2/DepthDuration/v2_depth_duration_MTurk/v2_DepthDuration_HTML.html#136,136,1366,625,1366,768,8-20-2022,12-19-10,140,depth_duration_stimuli/001392_2014-06-19_16-07-59_260595134347_rgbf000046-resize_1/001392_2014-06-19_16-07-59_260595134347_rgbf000046-resize_1-target.png,250,4.135,5,4388,218,meters,jsons/v1_VE250_randls_61_rotated.json,1090591,1300486,50,Woman
140,297316,DepthScenes,duration_manipulation_targetAtFixation,jsons/v1_VE250_randls_61_rotated.json,http://54.235.29.9/FacialAge/BNav_EC2/DepthDuration/v2_depth_duration_MTurk/v2_DepthDuration_HTML.html#136,136,1366,625,1366,768,8-20-2022,12-19-10,141,depth_duration_stimuli/001570_2014-06-20_17-21-09_260595134347_rgbf000135-resize_4/001570_2014-06-20_17-21-09_260595134347_rgbf000135-resize_4-target.png,250,4.467,4,3925,260,meters,jsons/v1_VE250_randls_61_rotated.json,1090591,1300486,50,Woman
141,297316,DepthScenes,duration_manipulation_targetAtFixation,jsons/v1_VE250_randls_61_rotated.json,http://54.235.29.9/FacialAge/BNav_EC2/DepthDuration/v2_depth_duration_MTurk/v2_DepthDuration_HTML.html#136,136,1366,625,1366,768,8-20-2022,12-19-10,142,depth_duration_stimuli/000854_2014-06-09_19-43-13_260595134347_rgbf000066-resize_0/000854_2014-06-09_19-43-13_260595134347_rgbf000066-resize_0-target.png,250,3.068,6,4633,260,meters,jsons/v1_VE250_randls_61_rotated.json,1090591,1300486,50,Woman
142,297316,DepthScenes,duration_manipulation_targetAtFixation,jsons/v1_VE250_randls_61_rotated.json,http://54.235.29.9/FacialAge/BNav_EC2/DepthDuration/v2_depth_duration_MTurk/v2_DepthDuration_HTML.html#136,136,1366,625,1366,768,8-20-2022,12-19-10,143,depth_duration_stimuli/000758_2014-06-08_22-05-08_260595134347_rgbf000085-resize_0/000758_2014-06-08_22-05-08_260595134347_rgbf000085-resize_0-target.png,250,3.3810000000000002,7,4238,246,meters,jsons/v1_VE250_randls_61_rotated.json,1090591,1300486,50,Woman
143,297316,DepthScenes,duration_manipulation_targetAtFixation,jsons/v1_VE250_randls_61_rotated.json,http://54.235.29.9/FacialAge/BNav_EC2/DepthDuration/v2_depth_duration_MTurk/v2_DepthDuration_HTML.html#136,136,1366,625,1366,768,8-20-2022,12-19-10,144,depth_duration_stimuli/002444_2014-06-28_20-32-08_260595134347_rgbf000027-resize_0/002444_2014-06-28_20-32-08_260595134347_rgbf000027-resize_0-target.png,250,4.388999999999999,8,3104,216,meters,jsons/v1_VE250_randls_61_rotated.json,1090591,1300486,50,Woman
144,297316,DepthScenes,duration_manipulation_targetAtFixation,jsons/v1_VE250_randls_61_rotated.json,http://54.235.29.9/FacialAge/BNav_EC2/DepthDuration/v2_depth_duration_MTurk/v2_DepthDuration_HTML.html#136,136,1366,625,1366,768,8-20-2022,12-19-10,145,depth_duration_stimuli/000436_2014-06-09_22-25-11_260595134347_rgbf000137-resize_1/000436_2014-06-09_22-25-11_260595134347_rgbf000137-resize_1-target.png,250,4.0705,4,4207,254,meters,jsons/v1_VE250_randls_61_rotated.json,1090591,1300486,50,Woman
145,297316,DepthScenes,duration_manipulation_targetAtFixation,jsons/v1_VE250_randls_61_rotated.json,http://54.235.29.9/FacialAge/BNav_EC2/DepthDuration/v2_depth_duration_MTurk/v2_DepthDuration_HTML.html#136,136,1366,625,1366,768,8-20-2022,12-19-10,146,depth_duration_stimuli/000691_2014-06-08_13-08-50_260595134347_rgbf000132-resize_3/000691_2014-06-08_13-08-50_260595134347_rgbf000132-resize_3-target.png,250,4.1530000000000005,4,4148,251,meters,jsons/v1_VE250_randls_61_rotated.json,1090591,1300486,50,Woman
146,297316,DepthScenes,duration_manipulation_targetAtFixation,jsons/v1_VE250_randls_61_rotated.json,http://54.235.29.9/FacialAge/BNav_EC2/DepthDuration/v2_depth_duration_MTurk/v2_DepthDuration_HTML.html#136,136,1366,625,1366,768,8-20-2022,12-19-10,147,depth_duration_stimuli/002213_2014-06-28_18-37-58_260595134347_rgbf000055-resize_1/002213_2014-06-28_18-37-58_260595134347_rgbf000055-resize_1-target.png,250,3.62,5,3298,246,meters,jsons/v1_VE250_randls_61_rotated.json,1090591,1300486,50,Woman
147,297316,DepthScenes,duration_manipulation_targetAtFixation,jsons/v1_VE250_randls_61_rotated.json,http://54.235.29.9/FacialAge/BNav_EC2/DepthDuration/v2_depth_duration_MTurk/v2_DepthDuration_HTML.html#136,136,1366,625,1366,768,8-20-2022,12-19-10,148,depth_duration_stimuli/002344_2014-06-28_20-06-29_260595134347_rgbf000030-resize_1/002344_2014-06-28_20-06-29_260595134347_rgbf000030-resize_1-target.png,250,1.5795,3,3797,258,meters,jsons/v1_VE250_randls_61_rotated.json,1090591,1300486,50,Woman
148,297316,DepthScenes,duration_manipulation_targetAtFixation,jsons/v1_VE250_randls_61_rotated.json,http://54.235.29.9/FacialAge/BNav_EC2/DepthDuration/v2_depth_duration_MTurk/v2_DepthDuration_HTML.html#136,136,1366,625,1366,768,8-20-2022,12-19-10,149,depth_duration_stimuli/002725_2014-06-22_11-47-51_094959634447_rgbf000070-resize_1/002725_2014-06-22_11-47-51_094959634447_rgbf000070-resize_1-target.png,250,2.195,5,6565,245,meters,jsons/v1_VE250_randls_61_rotated.json,1090591,1300486,50,Woman
149,297316,DepthScenes,duration_manipulation_targetAtFixation,jsons/v1_VE250_randls_61_rotated.json,http://54.235.29.9/FacialAge/BNav_EC2/DepthDuration/v2_depth_duration_MTurk/v2_DepthDuration_HTML.html#136,136,1366,625,1366,768,8-20-2022,12-19-10,150,depth_duration_stimuli/001450_2014-06-19_17-02-03_260595134347_rgbf000203-resize_4/001450_2014-06-19_17-02-03_260595134347_rgbf000203-resize_4-target.png,250,4.0106666666667,6,3963,234,meters,jsons/v1_VE250_randls_61_rotated.json,1090591,1300486,50,Woman
150,297316,DepthScenes,duration_manipulation_targetAtFixation,jsons/v1_VE250_randls_61_rotated.json,http://54.235.29.9/FacialAge/BNav_EC2/DepthDuration/v2_depth_duration_MTurk/v2_DepthDuration_HTML.html#136,136,1366,625,1366,768,8-20-2022,12-19-10,151,depth_duration_stimuli/001449_2014-06-19_17-01-27_260595134347_rgbf000116-resize_2/001449_2014-06-19_17-01-27_260595134347_rgbf000116-resize_2-target.png,250,3.452,6,4031,249,meters,jsons/v1_VE250_randls_61_rotated.json,1090591,1300486,50,Woman
151,297316,DepthScenes,duration_manipulation_targetAtFixation,jsons/v1_VE250_randls_61_rotated.json,http://54.235.29.9/FacialAge/BNav_EC2/DepthDuration/v2_depth_duration_MTurk/v2_DepthDuration_HTML.html#136,136,1366,625,1366,768,8-20-2022,12-19-10,152,depth_duration_stimuli/000569_2014-06-09_22-51-47_260595134347_rgbf000141-resize_3/000569_2014-06-09_22-51-47_260595134347_rgbf000141-resize-original.jpg,250,4.512,7,3294,242,meters,jsons/v1_VE250_randls_61_rotated.json,1090591,1300486,50,Woman
152,297316,DepthScenes,duration_manipulation_targetAtFixation,jsons/v1_VE250_randls_61_rotated.json,http://54.235.29.9/FacialAge/BNav_EC2/DepthDuration/v2_depth_duration_MTurk/v2_DepthDuration_HTML.html#136,136,1366,625,1366,768,8-20-2022,12-19-10,153,depth_duration_stimuli/003228_2014-05-14_13-42-35_094959634447_rgbf000101-resize_1/003228_2014-05-14_13-42-35_094959634447_rgbf000101-resize_1-target.png,250,1.9680000000000002,8,3442,258,meters,jsons/v1_VE250_randls_61_rotated.json,1090591,1300486,50,Woman
153,297316,DepthScenes,duration_manipulation_targetAtFixation,jsons/v1_VE250_randls_61_rotated.json,http://54.235.29.9/FacialAge/BNav_EC2/DepthDuration/v2_depth_duration_MTurk/v2_DepthDuration_HTML.html#136,136,1366,625,1366,768,8-20-2022,12-19-10,154,depth_duration_stimuli/002600_2014-06-24_14-27-04_094959634447_rgbf000074-resize_2/002600_2014-06-24_14-27-04_094959634447_rgbf000074-resize_2-target.png,250,2.7575,9,3405,254,meters,jsons/v1_VE250_randls_61_rotated.json,1090591,1300486,50,Woman
154,297316,DepthScenes,duration_manipulation_targetAtFixation,jsons/v1_VE250_randls_61_rotated.json,http://54.235.29.9/FacialAge/BNav_EC2/DepthDuration/v2_depth_duration_MTurk/v2_DepthDuration_HTML.html#136,136,1366,625,1366,768,8-20-2022,12-19-10,155,depth_duration_stimuli/001094_2014-06-15_17-36-00_260595134347_rgbf000205-resize_0/001094_2014-06-15_17-36-00_260595134347_rgbf000205-resize_0-target.png,250,4.2175,5,4563,252,meters,jsons/v1_VE250_randls_61_rotated.json,1090591,1300486,50,Woman
155,297316,DepthScenes,duration_manipulation_targetAtFixation,jsons/v1_VE250_randls_61_rotated.json,http://54.235.29.9/FacialAge/BNav_EC2/DepthDuration/v2_depth_duration_MTurk/v2_DepthDuration_HTML.html#136,136,1366,625,1366,768,8-20-2022,12-19-10,156,depth_duration_stimuli/000692_2014-06-08_13-09-42_260595134347_rgbf000199-resize_2/000692_2014-06-08_13-09-42_260595134347_rgbf000199-resize_2-target.png,250,3.661,4,3493,254,meters,jsons/v1_VE250_randls_61_rotated.json,1090591,1300486,50,Woman
156,297316,DepthScenes,duration_manipulation_targetAtFixation,jsons/v1_VE250_randls_61_rotated.json,http://54.235.29.9/FacialAge/BNav_EC2/DepthDuration/v2_depth_duration_MTurk/v2_DepthDuration_HTML.html#136,136,1366,625,1366,768,8-20-2022,12-19-10,157,depth_duration_stimuli/003423_2014-05-21_10-23-26_094959634447_rgbf002665-resize_2/003423_2014-05-21_10-23-26_094959634447_rgbf002665-resize_2-target.png,250,3.2575,4,3648,250,meters,jsons/v1_VE250_randls_61_rotated.json,1090591,1300486,50,Woman
157,297316,DepthScenes,duration_manipulation_targetAtFixation,jsons/v1_VE250_randls_61_rotated.json,http://54.235.29.9/FacialAge/BNav_EC2/DepthDuration/v2_depth_duration_MTurk/v2_DepthDuration_HTML.html#136,136,1366,625,1366,768,8-20-2022,12-19-10,158,depth_duration_stimuli/002905_2014-06-03_18-04-43_094959634447_rgbf000151-resize_2/002905_2014-06-03_18-04-43_094959634447_rgbf000151-resize_2-target.png,250,2.0295,5,3643,245,meters,jsons/v1_VE250_randls_61_rotated.json,1090591,1300486,50,Woman
158,297316,DepthScenes,duration_manipulation_targetAtFixation,jsons/v1_VE250_randls_61_rotated.json,http://54.235.29.9/FacialAge/BNav_EC2/DepthDuration/v2_depth_duration_MTurk/v2_DepthDuration_HTML.html#136,136,1366,625,1366,768,8-20-2022,12-19-10,159,depth_duration_stimuli/000742_2014-06-08_18-48-09_260595134347_rgbf000164-resize_4/000742_2014-06-08_18-48-09_260595134347_rgbf000164-resize_4-target.png,250,4.632,6,3856,236,meters,jsons/v1_VE250_randls_61_rotated.json,1090591,1300486,50,Woman
159,297316,DepthScenes,duration_manipulation_targetAtFixation,jsons/v1_VE250_randls_61_rotated.json,http://54.235.29.9/FacialAge/BNav_EC2/DepthDuration/v2_depth_duration_MTurk/v2_DepthDuration_HTML.html#136,136,1366,625,1366,768,8-20-2022,12-19-10,160,depth_duration_stimuli/001066_2014-06-08_22-03-20_260595134347_rgbf000066-resize_4/001066_2014-06-08_22-03-20_260595134347_rgbf000066-resize_4-target.png,250,4.2330000000000005,7,4392,243,meters,jsons/v1_VE250_randls_61_rotated.json,1090591,1300486,50,Woman
160,297316,DepthScenes,duration_manipulation_targetAtFixation,jsons/v1_VE250_randls_61_rotated.json,http://54.235.29.9/FacialAge/BNav_EC2/DepthDuration/v2_depth_duration_MTurk/v2_DepthDuration_HTML.html#136,136,1366,625,1366,768,8-20-2022,12-19-10,161,depth_duration_stimuli/003495_2014-05-21_16-01-51_094959634447_rgbf000100-resize_3/003495_2014-05-21_16-01-51_094959634447_rgbf000100-resize_3-target.png,250,1.6255,8,3689,262,meters,jsons/v1_VE250_randls_61_rotated.json,1090591,1300486,50,Woman
161,297316,DepthScenes,duration_manipulation_targetAtFixation,jsons/v1_VE250_randls_61_rotated.json,http://54.235.29.9/FacialAge/BNav_EC2/DepthDuration/v2_depth_duration_MTurk/v2_DepthDuration_HTML.html#136,136,1366,625,1366,768,8-20-2022,12-19-10,162,depth_duration_stimuli/001244_2014-06-17_16-47-45_260595134347_rgbf000030-resize_4/001244_2014-06-17_16-47-45_260595134347_rgbf000030-resize_4-target.png,250,2.0425,9,3866,250,meters,jsons/v1_VE250_randls_61_rotated.json,1090591,1300486,50,Woman
162,297316,DepthScenes,duration_manipulation_targetAtFixation,jsons/v1_VE250_randls_61_rotated.json,http://54.235.29.9/FacialAge/BNav_EC2/DepthDuration/v2_depth_duration_MTurk/v2_DepthDuration_HTML.html#136,136,1366,625,1366,768,8-20-2022,12-19-10,163,depth_duration_stimuli/001447_2014-06-19_17-00-32_260595134347_rgbf000082-resize_5/001447_2014-06-19_17-00-32_260595134347_rgbf000082-resize_5-target.png,250,4.13775,5,3572,258,meters,jsons/v1_VE250_randls_61_rotated.json,1090591,1300486,50,Woman
163,297316,DepthScenes,duration_manipulation_targetAtFixation,jsons/v1_VE250_randls_61_rotated.json,http://54.235.29.9/FacialAge/BNav_EC2/DepthDuration/v2_depth_duration_MTurk/v2_DepthDuration_HTML.html#136,136,1366,625,1366,768,8-20-2022,12-19-10,164,depth_duration_stimuli/000447_2014-06-08_16-15-46_260595134347_rgbf000130-resize_1/000447_2014-06-08_16-15-46_260595134347_rgbf000130-resize_1-target.png,250,4.479,5,3900,253,meters,jsons/v1_VE250_randls_61_rotated.json,1090591,1300486,50,Woman
