,subjID,experimentName,versionName,sequenceName,url,selected_row,windowWidth,windowHeight,screenWidth,screenHeight,startDate,startTime,trial,stimulus,duration,actual_depth,depth_estimate,trial_RT,log_sceneDuration,unitSelection,seq_filepath,experimentTime,totalTime,age,gender
0,301337,DepthScenes,duration_manipulation_targetAtFixation,jsons/VE125_randls_42.json,http://54.235.29.9/FacialAge/BNav_EC2/DepthDuration/v2_depth_duration_MTurk/v2_DepthDuration_HTML.html#28,28,1364,768,1364,768,8-30-2022,7-3-28,1,depth_duration_stimuli/000758_2014-06-08_22-05-08_260595134347_rgbf000085-resize_0/000758_2014-06-08_22-05-08_260595134347_rgbf000085-resize_0-target.png,125,3.3810000000000002,5,5576,125,feet,jsons/VE125_randls_42.json,996533,1106316,40,Man
1,301337,DepthScenes,duration_manipulation_targetAtFixation,jsons/VE125_randls_42.json,http://54.235.29.9/FacialAge/BNav_EC2/DepthDuration/v2_depth_duration_MTurk/v2_DepthDuration_HTML.html#28,28,1364,768,1364,768,8-30-2022,7-3-28,2,depth_duration_stimuli/000854_2014-06-09_19-43-13_260595134347_rgbf000066-resize_0/000854_2014-06-09_19-43-13_260595134347_rgbf000066-resize_0-target.png,125,3.068,3,3363,125,feet,jsons/VE125_randls_42.json,996533,1106316,40,Man
2,301337,DepthScenes,duration_manipulation_targetAtFixation,jsons/VE125_randls_42.json,http://54.235.29.9/FacialAge/BNav_EC2/DepthDuration/v2_depth_duration_MTurk/v2_DepthDuration_HTML.html#28,28,1364,768,1364,768,8-30-2022,7-3-28,3,depth_duration_stimuli/002600_2014-06-24_14-27-04_094959634447_rgbf000074-resize_2/002600_2014-06-24_14-27-04_094959634447_rgbf000074-resize_2-target.png,125,2.7575,4,4686,123,feet,jsons/VE125_randls_42.json,996533,1106316,40,Man
3,301337,DepthScenes,duration_manipulation_targetAtFixation,jsons/VE125_randls_42.json,http://54.235.29.9/FacialAge/BNav_EC2/DepthDuration/v2_depth_duration_MTurk/v2_DepthDuration_HTML.html#28,28,1364,768,1364,768,8-30-2022,7-3-28,4,depth_duration_stimuli/003228_2014-05-14_13-42-35_094959634447_rgbf000101-resize_1/003228_2014-05-14_13-42-35_094959634447_rgbf000101-resize_1-target.png,125,1.9680000000000002,0,5910,125,feet,jsons/VE125_randls_42.json,996533,1106316,40,Man
4,301337,DepthScenes,duration_manipulation_targetAtFixation,jsons/VE125_randls_42.json,http://54.235.29.9/FacialAge/BNav_EC2/DepthDuration/v2_depth_duration_MTurk/v2_DepthDuration_HTML.html#28,28,1364,768,1364,768,8-30-2022,7-3-28,5,depth_duration_stimuli/000682_2014-06-08_23-14-58_260595134347_rgbf000041-resize_5/000682_2014-06-08_23-14-58_260595134347_rgbf000041-resize_5-target.png,125,2.7239999999999998,4,4655,123,feet,jsons/VE125_randls_42.json,996533,1106316,40,Man
5,301337,DepthScenes,duration_manipulation_targetAtFixation,jsons/VE125_randls_42.json,http://54.235.29.9/FacialAge/BNav_EC2/DepthDuration/v2_depth_duration_MTurk/v2_DepthDuration_HTML.html#28,28,1364,768,1364,768,8-30-2022,7-3-28,6,depth_duration_stimuli/001650_2014-06-20_12-09-00_260595134347_rgbf000087-resize_3/001650_2014-06-20_12-09-00_260595134347_rgbf000087-resize_3-target.png,125,1.9505,3,3692,123,feet,jsons/VE125_randls_42.json,996533,1106316,40,Man
6,301337,DepthScenes,duration_manipulation_targetAtFixation,jsons/VE125_randls_42.json,http://54.235.29.9/FacialAge/BNav_EC2/DepthDuration/v2_depth_duration_MTurk/v2_DepthDuration_HTML.html#28,28,1364,768,1364,768,8-30-2022,7-3-28,7,depth_duration_stimuli/002272_2014-06-28_18-53-56_260595134347_rgbf000067-resize_2/002272_2014-06-28_18-53-56_260595134347_rgbf000067-resize_2-target.png,125,1.138,2,4139,123,feet,jsons/VE125_randls_42.json,996533,1106316,40,Man
7,301337,DepthScenes,duration_manipulation_targetAtFixation,jsons/VE125_randls_42.json,http://54.235.29.9/FacialAge/BNav_EC2/DepthDuration/v2_depth_duration_MTurk/v2_DepthDuration_HTML.html#28,28,1364,768,1364,768,8-30-2022,7-3-28,8,depth_duration_stimuli/001571_2014-06-20_17-21-32_260595134347_rgbf000089-resize_1/001571_2014-06-20_17-21-32_260595134347_rgbf000089-resize_1-target.png,125,1.86,2,6010,123,feet,jsons/VE125_randls_42.json,996533,1106316,40,Man
8,301337,DepthScenes,duration_manipulation_targetAtFixation,jsons/VE125_randls_42.json,http://54.235.29.9/FacialAge/BNav_EC2/DepthDuration/v2_depth_duration_MTurk/v2_DepthDuration_HTML.html#28,28,1364,768,1364,768,8-30-2022,7-3-28,9,depth_duration_stimuli/002375_2014-06-28_20-13-44_260595134347_rgbf000032-resize_1/002375_2014-06-28_20-13-44_260595134347_rgbf000032-resize_1-target.png,125,4.0175,4,5673,124,feet,jsons/VE125_randls_42.json,996533,1106316,40,Man
9,301337,DepthScenes,duration_manipulation_targetAtFixation,jsons/VE125_randls_42.json,http://54.235.29.9/FacialAge/BNav_EC2/DepthDuration/v2_depth_duration_MTurk/v2_DepthDuration_HTML.html#28,28,1364,768,1364,768,8-30-2022,7-3-28,10,depth_duration_stimuli/002657_2014-06-13_15-29-54_094959634447_rgbf000150-resize_1/002657_2014-06-13_15-29-54_094959634447_rgbf000150-resize_1-target.png,125,4.919,5,9467,125,feet,jsons/VE125_randls_42.json,996533,1106316,40,Man
10,301337,DepthScenes,duration_manipulation_targetAtFixation,jsons/VE125_randls_42.json,http://54.235.29.9/FacialAge/BNav_EC2/DepthDuration/v2_depth_duration_MTurk/v2_DepthDuration_HTML.html#28,28,1364,768,1364,768,8-30-2022,7-3-28,11,depth_duration_stimuli/002989_2014-06-15_12-25-03_094959634447_rgbf000150-resize_3/002989_2014-06-15_12-25-03_094959634447_rgbf000150-resize_3-target.png,125,4.1975,5,5834,124,feet,jsons/VE125_randls_42.json,996533,1106316,40,Man
11,301337,DepthScenes,duration_manipulation_targetAtFixation,jsons/VE125_randls_42.json,http://54.235.29.9/FacialAge/BNav_EC2/DepthDuration/v2_depth_duration_MTurk/v2_DepthDuration_HTML.html#28,28,1364,768,1364,768,8-30-2022,7-3-28,12,depth_duration_stimuli/000866_2014-06-09_20-45-42_260595134347_rgbf000139-resize_1/000866_2014-06-09_20-45-42_260595134347_rgbf000139-resize_1-target.png,125,3.2155,4,3674,122,feet,jsons/VE125_randls_42.json,996533,1106316,40,Man
12,301337,DepthScenes,duration_manipulation_targetAtFixation,jsons/VE125_randls_42.json,http://54.235.29.9/FacialAge/BNav_EC2/DepthDuration/v2_depth_duration_MTurk/v2_DepthDuration_HTML.html#28,28,1364,768,1364,768,8-30-2022,7-3-28,13,depth_duration_stimuli/000569_2014-06-09_22-51-47_260595134347_rgbf000141-resize_3/000569_2014-06-09_22-51-47_260595134347_rgbf000141-resize-original.jpg,125,4.512,0,5170,125,feet,jsons/VE125_randls_42.json,996533,1106316,40,Man
13,301337,DepthScenes,duration_manipulation_targetAtFixation,jsons/VE125_randls_42.json,http://54.235.29.9/FacialAge/BNav_EC2/DepthDuration/v2_depth_duration_MTurk/v2_DepthDuration_HTML.html#28,28,1364,768,1364,768,8-30-2022,7-3-28,14,depth_duration_stimuli/002057_2014-06-24_21-00-13_260595134347_rgbf000120-resize_1/002057_2014-06-24_21-00-13_260595134347_rgbf000120-resize_1-target.png,125,2.967,6,5148,124,feet,jsons/VE125_randls_42.json,996533,1106316,40,Man
14,301337,DepthScenes,duration_manipulation_targetAtFixation,jsons/VE125_randls_42.json,http://54.235.29.9/FacialAge/BNav_EC2/DepthDuration/v2_depth_duration_MTurk/v2_DepthDuration_HTML.html#28,28,1364,768,1364,768,8-30-2022,7-3-28,15,depth_duration_stimuli/000709_2014-06-08_13-51-55_260595134347_rgbf000068-resize_3/000709_2014-06-08_13-51-55_260595134347_rgbf000068-resize_3-target.png,125,1.8030000000000002,0,3705,126,feet,jsons/VE125_randls_42.json,996533,1106316,40,Man
15,301337,DepthScenes,duration_manipulation_targetAtFixation,jsons/VE125_randls_42.json,http://54.235.29.9/FacialAge/BNav_EC2/DepthDuration/v2_depth_duration_MTurk/v2_DepthDuration_HTML.html#28,28,1364,768,1364,768,8-30-2022,7-3-28,16,depth_duration_stimuli/001555_2014-06-20_17-12-10_260595134347_rgbf000065-resize_4/001555_2014-06-20_17-12-10_260595134347_rgbf000065-resize_4-target.png,125,1.633,2,5319,126,feet,jsons/VE125_randls_42.json,996533,1106316,40,Man
16,301337,DepthScenes,duration_manipulation_targetAtFixation,jsons/VE125_randls_42.json,http://54.235.29.9/FacialAge/BNav_EC2/DepthDuration/v2_depth_duration_MTurk/v2_DepthDuration_HTML.html#28,28,1364,768,1364,768,8-30-2022,7-3-28,17,depth_duration_stimuli/000103_2014-05-14_22-01-17_260595134347_rgbf000152-resize_5/000103_2014-05-14_22-01-17_260595134347_rgbf000152-resize_5-target.png,125,1.993,4,12020,123,feet,jsons/VE125_randls_42.json,996533,1106316,40,Man
17,301337,DepthScenes,duration_manipulation_targetAtFixation,jsons/VE125_randls_42.json,http://54.235.29.9/FacialAge/BNav_EC2/DepthDuration/v2_depth_duration_MTurk/v2_DepthDuration_HTML.html#28,28,1364,768,1364,768,8-30-2022,7-3-28,18,depth_duration_stimuli/001164_2014-06-17_15-35-46_260595134347_rgbf000085-resize_3/001164_2014-06-17_15-35-46_260595134347_rgbf000085-resize_3-target.png,125,2.354,3,11873,122,feet,jsons/VE125_randls_42.json,996533,1106316,40,Man
18,301337,DepthScenes,duration_manipulation_targetAtFixation,jsons/VE125_randls_42.json,http://54.235.29.9/FacialAge/BNav_EC2/DepthDuration/v2_depth_duration_MTurk/v2_DepthDuration_HTML.html#28,28,1364,768,1364,768,8-30-2022,7-3-28,19,depth_duration_stimuli/001136_2014-06-17_15-19-41_260595134347_rgbf000076-resize_3/001136_2014-06-17_15-19-41_260595134347_rgbf000076-resize_3-target.png,125,1.8655,6,4866,125,feet,jsons/VE125_randls_42.json,996533,1106316,40,Man
19,301337,DepthScenes,duration_manipulation_targetAtFixation,jsons/VE125_randls_42.json,http://54.235.29.9/FacialAge/BNav_EC2/DepthDuration/v2_depth_duration_MTurk/v2_DepthDuration_HTML.html#28,28,1364,768,1364,768,8-30-2022,7-3-28,20,depth_duration_stimuli/001158_2014-06-17_15-32-16_260595134347_rgbf000138-resize_2/001158_2014-06-17_15-32-16_260595134347_rgbf000138-resize_2-target.png,125,4.5315,7,14136,124,feet,jsons/VE125_randls_42.json,996533,1106316,40,Man
20,301337,DepthScenes,duration_manipulation_targetAtFixation,jsons/VE125_randls_42.json,http://54.235.29.9/FacialAge/BNav_EC2/DepthDuration/v2_depth_duration_MTurk/v2_DepthDuration_HTML.html#28,28,1364,768,1364,768,8-30-2022,7-3-28,21,depth_duration_stimuli/000556_2014-06-09_22-42-56_260595134347_rgbf000214-resize_1/000556_2014-06-09_22-42-56_260595134347_rgbf000214-resize_1-target.png,125,4.8415,4,5055,134,feet,jsons/VE125_randls_42.json,996533,1106316,40,Man
21,301337,DepthScenes,duration_manipulation_targetAtFixation,jsons/VE125_randls_42.json,http://54.235.29.9/FacialAge/BNav_EC2/DepthDuration/v2_depth_duration_MTurk/v2_DepthDuration_HTML.html#28,28,1364,768,1364,768,8-30-2022,7-3-28,22,depth_duration_stimuli/002509_2014-06-24_13-19-22_094959634447_rgbf000077-resize_0/002509_2014-06-24_13-19-22_094959634447_rgbf000077-resize_0-target.png,125,1.3065,2,6071,126,feet,jsons/VE125_randls_42.json,996533,1106316,40,Man
22,301337,DepthScenes,duration_manipulation_targetAtFixation,jsons/VE125_randls_42.json,http://54.235.29.9/FacialAge/BNav_EC2/DepthDuration/v2_depth_duration_MTurk/v2_DepthDuration_HTML.html#28,28,1364,768,1364,768,8-30-2022,7-3-28,23,depth_duration_stimuli/003338_2014-05-20_11-01-23_094959634447_rgbf000051-resize_6/003338_2014-05-20_11-01-23_094959634447_rgbf000051-resize_6-target.png,125,1.693,2,4178,124,feet,jsons/VE125_randls_42.json,996533,1106316,40,Man
23,301337,DepthScenes,duration_manipulation_targetAtFixation,jsons/VE125_randls_42.json,http://54.235.29.9/FacialAge/BNav_EC2/DepthDuration/v2_depth_duration_MTurk/v2_DepthDuration_HTML.html#28,28,1364,768,1364,768,8-30-2022,7-3-28,24,depth_duration_stimuli/001244_2014-06-17_16-47-45_260595134347_rgbf000030-resize_4/001244_2014-06-17_16-47-45_260595134347_rgbf000030-resize_4-target.png,125,2.0425,4,5107,126,feet,jsons/VE125_randls_42.json,996533,1106316,40,Man
24,301337,DepthScenes,duration_manipulation_targetAtFixation,jsons/VE125_randls_42.json,http://54.235.29.9/FacialAge/BNav_EC2/DepthDuration/v2_depth_duration_MTurk/v2_DepthDuration_HTML.html#28,28,1364,768,1364,768,8-30-2022,7-3-28,25,depth_duration_stimuli/003495_2014-05-21_16-01-51_094959634447_rgbf000100-resize_3/003495_2014-05-21_16-01-51_094959634447_rgbf000100-resize_3-target.png,125,1.6255,2,5291,124,feet,jsons/VE125_randls_42.json,996533,1106316,40,Man
25,301337,DepthScenes,duration_manipulation_targetAtFixation,jsons/VE125_randls_42.json,http://54.235.29.9/FacialAge/BNav_EC2/DepthDuration/v2_depth_duration_MTurk/v2_DepthDuration_HTML.html#28,28,1364,768,1364,768,8-30-2022,7-3-28,26,depth_duration_stimuli/001066_2014-06-08_22-03-20_260595134347_rgbf000066-resize_4/001066_2014-06-08_22-03-20_260595134347_rgbf000066-resize_4-target.png,125,4.2330000000000005,5,5469,125,feet,jsons/VE125_randls_42.json,996533,1106316,40,Man
26,301337,DepthScenes,duration_manipulation_targetAtFixation,jsons/VE125_randls_42.json,http://54.235.29.9/FacialAge/BNav_EC2/DepthDuration/v2_depth_duration_MTurk/v2_DepthDuration_HTML.html#28,28,1364,768,1364,768,8-30-2022,7-3-28,27,depth_duration_stimuli/000742_2014-06-08_18-48-09_260595134347_rgbf000164-resize_4/000742_2014-06-08_18-48-09_260595134347_rgbf000164-resize_4-target.png,125,4.632,6,8875,125,feet,jsons/VE125_randls_42.json,996533,1106316,40,Man
27,301337,DepthScenes,duration_manipulation_targetAtFixation,jsons/VE125_randls_42.json,http://54.235.29.9/FacialAge/BNav_EC2/DepthDuration/v2_depth_duration_MTurk/v2_DepthDuration_HTML.html#28,28,1364,768,1364,768,8-30-2022,7-3-28,28,depth_duration_stimuli/002725_2014-06-22_11-47-51_094959634447_rgbf000070-resize_1/002725_2014-06-22_11-47-51_094959634447_rgbf000070-resize_1-target.png,125,2.195,6,14646,126,feet,jsons/VE125_randls_42.json,996533,1106316,40,Man
28,301337,DepthScenes,duration_manipulation_targetAtFixation,jsons/VE125_randls_42.json,http://54.235.29.9/FacialAge/BNav_EC2/DepthDuration/v2_depth_duration_MTurk/v2_DepthDuration_HTML.html#28,28,1364,768,1364,768,8-30-2022,7-3-28,29,depth_duration_stimuli/002344_2014-06-28_20-06-29_260595134347_rgbf000030-resize_1/002344_2014-06-28_20-06-29_260595134347_rgbf000030-resize_1-target.png,125,1.5795,3,3724,126,feet,jsons/VE125_randls_42.json,996533,1106316,40,Man
29,301337,DepthScenes,duration_manipulation_targetAtFixation,jsons/VE125_randls_42.json,http://54.235.29.9/FacialAge/BNav_EC2/DepthDuration/v2_depth_duration_MTurk/v2_DepthDuration_HTML.html#28,28,1364,768,1364,768,8-30-2022,7-3-28,30,depth_duration_stimuli/000375_2014-06-08_11-17-29_260595134347_rgbf000133-resize_2/000375_2014-06-08_11-17-29_260595134347_rgbf000133-resize-original.jpg,125,4.718,0,6544,123,feet,jsons/VE125_randls_42.json,996533,1106316,40,Man
30,301337,DepthScenes,duration_manipulation_targetAtFixation,jsons/VE125_randls_42.json,http://54.235.29.9/FacialAge/BNav_EC2/DepthDuration/v2_depth_duration_MTurk/v2_DepthDuration_HTML.html#28,28,1364,768,1364,768,8-30-2022,7-3-28,31,depth_duration_stimuli/000486_2014-06-09_20-47-20_260595134347_rgbf000143-resize_2/000486_2014-06-09_20-47-20_260595134347_rgbf000143-resize_2-target.png,125,4.8325,4,5686,126,feet,jsons/VE125_randls_42.json,996533,1106316,40,Man
31,301337,DepthScenes,duration_manipulation_targetAtFixation,jsons/VE125_randls_42.json,http://54.235.29.9/FacialAge/BNav_EC2/DepthDuration/v2_depth_duration_MTurk/v2_DepthDuration_HTML.html#28,28,1364,768,1364,768,8-30-2022,7-3-28,32,depth_duration_stimuli/003083_2014-06-15_15-21-03_094959634447_rgbf000063-resize_1/003083_2014-06-15_15-21-03_094959634447_rgbf000063-resize_1-target.png,125,4.1405,0,4049,123,feet,jsons/VE125_randls_42.json,996533,1106316,40,Man
32,301337,DepthScenes,duration_manipulation_targetAtFixation,jsons/VE125_randls_42.json,http://54.235.29.9/FacialAge/BNav_EC2/DepthDuration/v2_depth_duration_MTurk/v2_DepthDuration_HTML.html#28,28,1364,768,1364,768,8-30-2022,7-3-28,33,depth_duration_stimuli/001417_2014-06-19_16-25-36_260595134347_rgbf000115-resize_5/001417_2014-06-19_16-25-36_260595134347_rgbf000115-resize_5-target.png,125,4.6255,5,5601,124,feet,jsons/VE125_randls_42.json,996533,1106316,40,Man
33,301337,DepthScenes,duration_manipulation_targetAtFixation,jsons/VE125_randls_42.json,http://54.235.29.9/FacialAge/BNav_EC2/DepthDuration/v2_depth_duration_MTurk/v2_DepthDuration_HTML.html#28,28,1364,768,1364,768,8-30-2022,7-3-28,34,depth_duration_stimuli/003081_2014-06-15_15-19-16_094959634447_rgbf000150-resize_1/003081_2014-06-15_15-19-16_094959634447_rgbf000150-resize_1-target.png,125,3.9125,4,4605,124,feet,jsons/VE125_randls_42.json,996533,1106316,40,Man
34,301337,DepthScenes,duration_manipulation_targetAtFixation,jsons/VE125_randls_42.json,http://54.235.29.9/FacialAge/BNav_EC2/DepthDuration/v2_depth_duration_MTurk/v2_DepthDuration_HTML.html#28,28,1364,768,1364,768,8-30-2022,7-3-28,35,depth_duration_stimuli/000368_2014-06-09_15-53-01_260595134347_rgbf000155-resize_2/000368_2014-06-09_15-53-01_260595134347_rgbf000155-resize_2-target.png,125,2.4859999999999998,4,5057,124,feet,jsons/VE125_randls_42.json,996533,1106316,40,Man
35,301337,DepthScenes,duration_manipulation_targetAtFixation,jsons/VE125_randls_42.json,http://54.235.29.9/FacialAge/BNav_EC2/DepthDuration/v2_depth_duration_MTurk/v2_DepthDuration_HTML.html#28,28,1364,768,1364,768,8-30-2022,7-3-28,36,depth_duration_stimuli/002678_2014-06-13_16-15-32_094959634447_rgbf000151-resize_6/002678_2014-06-13_16-15-32_094959634447_rgbf000151-resize_6-target.png,125,2.1830000000000003,6,10273,125,feet,jsons/VE125_randls_42.json,996533,1106316,40,Man
36,301337,DepthScenes,duration_manipulation_targetAtFixation,jsons/VE125_randls_42.json,http://54.235.29.9/FacialAge/BNav_EC2/DepthDuration/v2_depth_duration_MTurk/v2_DepthDuration_HTML.html#28,28,1364,768,1364,768,8-30-2022,7-3-28,37,depth_duration_stimuli/002763_2014-06-22_19-13-10_094959634447_rgbf000075-resize_4/002763_2014-06-22_19-13-10_094959634447_rgbf000075-resize_4-target.png,125,1.68375,3,8816,123,feet,jsons/VE125_randls_42.json,996533,1106316,40,Man
37,301337,DepthScenes,duration_manipulation_targetAtFixation,jsons/VE125_randls_42.json,http://54.235.29.9/FacialAge/BNav_EC2/DepthDuration/v2_depth_duration_MTurk/v2_DepthDuration_HTML.html#28,28,1364,768,1364,768,8-30-2022,7-3-28,38,depth_duration_stimuli/002209_2014-06-28_18-36-10_260595134347_rgbf000051-resize_1/002209_2014-06-28_18-36-10_260595134347_rgbf000051-resize_1-target.png,125,2.057,4,4023,124,feet,jsons/VE125_randls_42.json,996533,1106316,40,Man
38,301337,DepthScenes,duration_manipulation_targetAtFixation,jsons/VE125_randls_42.json,http://54.235.29.9/FacialAge/BNav_EC2/DepthDuration/v2_depth_duration_MTurk/v2_DepthDuration_HTML.html#28,28,1364,768,1364,768,8-30-2022,7-3-28,39,depth_duration_stimuli/001055_2014-06-08_18-45-35_260595134347_rgbf000111-resize_4/001055_2014-06-08_18-45-35_260595134347_rgbf000111-resize_4-target.png,125,2.4290000000000003,5,5950,116,feet,jsons/VE125_randls_42.json,996533,1106316,40,Man
39,301337,DepthScenes,duration_manipulation_targetAtFixation,jsons/VE125_randls_42.json,http://54.235.29.9/FacialAge/BNav_EC2/DepthDuration/v2_depth_duration_MTurk/v2_DepthDuration_HTML.html#28,28,1364,768,1364,768,8-30-2022,7-3-28,40,depth_duration_stimuli/000549_2014-06-08_22-10-24_260595134347_rgbf000247-resize_3/000549_2014-06-08_22-10-24_260595134347_rgbf000247-resize_3-target.png,125,1.841,3,3797,125,feet,jsons/VE125_randls_42.json,996533,1106316,40,Man
40,301337,DepthScenes,duration_manipulation_targetAtFixation,jsons/VE125_randls_42.json,http://54.235.29.9/FacialAge/BNav_EC2/DepthDuration/v2_depth_duration_MTurk/v2_DepthDuration_HTML.html#28,28,1364,768,1364,768,8-30-2022,7-3-28,41,depth_duration_stimuli/002748_2014-06-22_19-07-22_094959634447_rgbf000078-resize_1/002748_2014-06-22_19-07-22_094959634447_rgbf000078-resize_1-target.png,125,4.6705,5,5563,124,feet,jsons/VE125_randls_42.json,996533,1106316,40,Man
41,301337,DepthScenes,duration_manipulation_targetAtFixation,jsons/VE125_randls_42.json,http://54.235.29.9/FacialAge/BNav_EC2/DepthDuration/v2_depth_duration_MTurk/v2_DepthDuration_HTML.html#28,28,1364,768,1364,768,8-30-2022,7-3-28,42,depth_duration_stimuli/002995_2014-06-15_12-31-26_094959634447_rgbf000150-resize_1/002995_2014-06-15_12-31-26_094959634447_rgbf000150-resize_1-target.png,125,3.8360000000000003,4,2954,123,feet,jsons/VE125_randls_42.json,996533,1106316,40,Man
42,301337,DepthScenes,duration_manipulation_targetAtFixation,jsons/VE125_randls_42.json,http://54.235.29.9/FacialAge/BNav_EC2/DepthDuration/v2_depth_duration_MTurk/v2_DepthDuration_HTML.html#28,28,1364,768,1364,768,8-30-2022,7-3-28,43,depth_duration_stimuli/003534_2014-05-22_15-06-10_094959634447_rgbf000102-resize_4/003534_2014-05-22_15-06-10_094959634447_rgbf000102-resize_4-target.png,125,1.426,2,4196,124,feet,jsons/VE125_randls_42.json,996533,1106316,40,Man
43,301337,DepthScenes,duration_manipulation_targetAtFixation,jsons/VE125_randls_42.json,http://54.235.29.9/FacialAge/BNav_EC2/DepthDuration/v2_depth_duration_MTurk/v2_DepthDuration_HTML.html#28,28,1364,768,1364,768,8-30-2022,7-3-28,44,depth_duration_stimuli/002637_2014-06-24_14-51-13_094959634447_rgbf000066-resize_4/002637_2014-06-24_14-51-13_094959634447_rgbf000066-resize_4-target.png,125,1.9955,2,2889,128,feet,jsons/VE125_randls_42.json,996533,1106316,40,Man
44,301337,DepthScenes,duration_manipulation_targetAtFixation,jsons/VE125_randls_42.json,http://54.235.29.9/FacialAge/BNav_EC2/DepthDuration/v2_depth_duration_MTurk/v2_DepthDuration_HTML.html#28,28,1364,768,1364,768,8-30-2022,7-3-28,45,depth_duration_stimuli/000787_2014-06-08_22-33-53_260595134347_rgbf000175-resize_1/000787_2014-06-08_22-33-53_260595134347_rgbf000175-resize-original.jpg,125,4.784,0,4460,123,feet,jsons/VE125_randls_42.json,996533,1106316,40,Man
45,301337,DepthScenes,duration_manipulation_targetAtFixation,jsons/VE125_randls_42.json,http://54.235.29.9/FacialAge/BNav_EC2/DepthDuration/v2_depth_duration_MTurk/v2_DepthDuration_HTML.html#28,28,1364,768,1364,768,8-30-2022,7-3-28,46,depth_duration_stimuli/000506_2014-06-08_23-21-00_260595134347_rgbf000070-resize_7/000506_2014-06-08_23-21-00_260595134347_rgbf000070-resize_7-target.png,125,4.0585,5,4522,124,feet,jsons/VE125_randls_42.json,996533,1106316,40,Man
46,301337,DepthScenes,duration_manipulation_targetAtFixation,jsons/VE125_randls_42.json,http://54.235.29.9/FacialAge/BNav_EC2/DepthDuration/v2_depth_duration_MTurk/v2_DepthDuration_HTML.html#28,28,1364,768,1364,768,8-30-2022,7-3-28,47,depth_duration_stimuli/003079_2014-06-15_15-18-20_094959634447_rgbf000152-resize_8/003079_2014-06-15_15-18-20_094959634447_rgbf000152-resize_8-target.png,125,2.8775,0,2603,125,feet,jsons/VE125_randls_42.json,996533,1106316,40,Man
47,301337,DepthScenes,duration_manipulation_targetAtFixation,jsons/VE125_randls_42.json,http://54.235.29.9/FacialAge/BNav_EC2/DepthDuration/v2_depth_duration_MTurk/v2_DepthDuration_HTML.html#28,28,1364,768,1364,768,8-30-2022,7-3-28,48,depth_duration_stimuli/001110_2014-06-15_17-25-28_260595134347_rgbf000150-resize_1/001110_2014-06-15_17-25-28_260595134347_rgbf000150-resize_1-target.png,125,1.7115,4,4597,125,feet,jsons/VE125_randls_42.json,996533,1106316,40,Man
48,301337,DepthScenes,duration_manipulation_targetAtFixation,jsons/VE125_randls_42.json,http://54.235.29.9/FacialAge/BNav_EC2/DepthDuration/v2_depth_duration_MTurk/v2_DepthDuration_HTML.html#28,28,1364,768,1364,768,8-30-2022,7-3-28,49,depth_duration_stimuli/000927_2014-06-09_16-32-30_260595134347_rgbf000123-resize_3/000927_2014-06-09_16-32-30_260595134347_rgbf000123-resize_3-target.png,125,2.6785,0,3603,124,feet,jsons/VE125_randls_42.json,996533,1106316,40,Man
49,301337,DepthScenes,duration_manipulation_targetAtFixation,jsons/VE125_randls_42.json,http://54.235.29.9/FacialAge/BNav_EC2/DepthDuration/v2_depth_duration_MTurk/v2_DepthDuration_HTML.html#28,28,1364,768,1364,768,8-30-2022,7-3-28,50,depth_duration_stimuli/000739_2014-06-08_18-45-58_260595134347_rgbf000068-resize_1/000739_2014-06-08_18-45-58_260595134347_rgbf000068-resize_1-target.png,125,3.534,5,4122,124,feet,jsons/VE125_randls_42.json,996533,1106316,40,Man
50,301337,DepthScenes,duration_manipulation_targetAtFixation,jsons/VE125_randls_42.json,http://54.235.29.9/FacialAge/BNav_EC2/DepthDuration/v2_depth_duration_MTurk/v2_DepthDuration_HTML.html#28,28,1364,768,1364,768,8-30-2022,7-3-28,51,depth_duration_stimuli/000734_2014-06-08_17-39-11_260595134347_rgbf000128-resize_2/000734_2014-06-08_17-39-11_260595134347_rgbf000128-resize_2-target.png,125,4.098,0,3099,125,feet,jsons/VE125_randls_42.json,996533,1106316,40,Man
51,301337,DepthScenes,duration_manipulation_targetAtFixation,jsons/VE125_randls_42.json,http://54.235.29.9/FacialAge/BNav_EC2/DepthDuration/v2_depth_duration_MTurk/v2_DepthDuration_HTML.html#28,28,1364,768,1364,768,8-30-2022,7-3-28,52,depth_duration_stimuli/000642_2014-06-08_16-59-25_260595134347_rgbf000098-resize_2/000642_2014-06-08_16-59-25_260595134347_rgbf000098-resize_2-target.png,125,2.8815,4,4866,125,feet,jsons/VE125_randls_42.json,996533,1106316,40,Man
52,301337,DepthScenes,duration_manipulation_targetAtFixation,jsons/VE125_randls_42.json,http://54.235.29.9/FacialAge/BNav_EC2/DepthDuration/v2_depth_duration_MTurk/v2_DepthDuration_HTML.html#28,28,1364,768,1364,768,8-30-2022,7-3-28,53,depth_duration_stimuli/002425_2014-06-28_20-27-29_260595134347_rgbf000031-resize_8/002425_2014-06-28_20-27-29_260595134347_rgbf000031-resize_8-target.png,125,3.8960000000000004,3,3022,124,feet,jsons/VE125_randls_42.json,996533,1106316,40,Man
53,301337,DepthScenes,duration_manipulation_targetAtFixation,jsons/VE125_randls_42.json,http://54.235.29.9/FacialAge/BNav_EC2/DepthDuration/v2_depth_duration_MTurk/v2_DepthDuration_HTML.html#28,28,1364,768,1364,768,8-30-2022,7-3-28,54,depth_duration_stimuli/000878_2014-06-08_22-52-45_260595134347_rgbf000045-resize_2/000878_2014-06-08_22-52-45_260595134347_rgbf000045-resize_2-target.png,125,2.092,4,4160,123,feet,jsons/VE125_randls_42.json,996533,1106316,40,Man
54,301337,DepthScenes,duration_manipulation_targetAtFixation,jsons/VE125_randls_42.json,http://54.235.29.9/FacialAge/BNav_EC2/DepthDuration/v2_depth_duration_MTurk/v2_DepthDuration_HTML.html#28,28,1364,768,1364,768,8-30-2022,7-3-28,55,depth_duration_stimuli/002953_2014-06-08_17-32-18_094959634447_rgbf000059-resize_5/002953_2014-06-08_17-32-18_094959634447_rgbf000059-resize_5-target.png,125,1.551,0,2690,124,feet,jsons/VE125_randls_42.json,996533,1106316,40,Man
55,301337,DepthScenes,duration_manipulation_targetAtFixation,jsons/VE125_randls_42.json,http://54.235.29.9/FacialAge/BNav_EC2/DepthDuration/v2_depth_duration_MTurk/v2_DepthDuration_HTML.html#28,28,1364,768,1364,768,8-30-2022,7-3-28,56,depth_duration_stimuli/000692_2014-06-08_13-09-42_260595134347_rgbf000199-resize_2/000692_2014-06-08_13-09-42_260595134347_rgbf000199-resize_2-target.png,125,3.661,3,19980,133,feet,jsons/VE125_randls_42.json,996533,1106316,40,Man
56,301337,DepthScenes,duration_manipulation_targetAtFixation,jsons/VE125_randls_42.json,http://54.235.29.9/FacialAge/BNav_EC2/DepthDuration/v2_depth_duration_MTurk/v2_DepthDuration_HTML.html#28,28,1364,768,1364,768,8-30-2022,7-3-28,57,depth_duration_stimuli/001094_2014-06-15_17-36-00_260595134347_rgbf000205-resize_0/001094_2014-06-15_17-36-00_260595134347_rgbf000205-resize_0-target.png,125,4.2175,4,9127,125,feet,jsons/VE125_randls_42.json,996533,1106316,40,Man
57,301337,DepthScenes,duration_manipulation_targetAtFixation,jsons/VE125_randls_42.json,http://54.235.29.9/FacialAge/BNav_EC2/DepthDuration/v2_depth_duration_MTurk/v2_DepthDuration_HTML.html#28,28,1364,768,1364,768,8-30-2022,7-3-28,58,depth_duration_stimuli/002788_2014-06-22_19-36-03_094959634447_rgbf000088-resize_2/002788_2014-06-22_19-36-03_094959634447_rgbf000088-resize_2-target.png,125,1.6465,6,8995,124,feet,jsons/VE125_randls_42.json,996533,1106316,40,Man
58,301337,DepthScenes,duration_manipulation_targetAtFixation,jsons/VE125_randls_42.json,http://54.235.29.9/FacialAge/BNav_EC2/DepthDuration/v2_depth_duration_MTurk/v2_DepthDuration_HTML.html#28,28,1364,768,1364,768,8-30-2022,7-3-28,59,depth_duration_stimuli/000749_2014-06-08_21-55-06_260595134347_rgbf000070-resize_2/000749_2014-06-08_21-55-06_260595134347_rgbf000070-resize_2-target.png,125,2.331,5,3586,122,feet,jsons/VE125_randls_42.json,996533,1106316,40,Man
59,301337,DepthScenes,duration_manipulation_targetAtFixation,jsons/VE125_randls_42.json,http://54.235.29.9/FacialAge/BNav_EC2/DepthDuration/v2_depth_duration_MTurk/v2_DepthDuration_HTML.html#28,28,1364,768,1364,768,8-30-2022,7-3-28,60,depth_duration_stimuli/001167_2014-06-17_15-38-07_260595134347_rgbf000108-resize_0/001167_2014-06-17_15-38-07_260595134347_rgbf000108-resize_0-target.png,125,1.8505,3,6711,124,feet,jsons/VE125_randls_42.json,996533,1106316,40,Man
60,301337,DepthScenes,duration_manipulation_targetAtFixation,jsons/VE125_randls_42.json,http://54.235.29.9/FacialAge/BNav_EC2/DepthDuration/v2_depth_duration_MTurk/v2_DepthDuration_HTML.html#28,28,1364,768,1364,768,8-30-2022,7-3-28,61,depth_duration_stimuli/003587_2014-05-23_16-48-02_094959634447_rgbf002384-resize_2/003587_2014-05-23_16-48-02_094959634447_rgbf002384-resize_2-target.png,125,1.357,2,5798,125,feet,jsons/VE125_randls_42.json,996533,1106316,40,Man
61,301337,DepthScenes,duration_manipulation_targetAtFixation,jsons/VE125_randls_42.json,http://54.235.29.9/FacialAge/BNav_EC2/DepthDuration/v2_depth_duration_MTurk/v2_DepthDuration_HTML.html#28,28,1364,768,1364,768,8-30-2022,7-3-28,62,depth_duration_stimuli/001016_2014-06-09_16-16-10_260595134347_rgbf000112-resize_5/001016_2014-06-09_16-16-10_260595134347_rgbf000112-resize_5-target.png,125,1.6565,7,4621,126,feet,jsons/VE125_randls_42.json,996533,1106316,40,Man
62,301337,DepthScenes,duration_manipulation_targetAtFixation,jsons/VE125_randls_42.json,http://54.235.29.9/FacialAge/BNav_EC2/DepthDuration/v2_depth_duration_MTurk/v2_DepthDuration_HTML.html#28,28,1364,768,1364,768,8-30-2022,7-3-28,63,depth_duration_stimuli/002340_2014-06-28_20-05-46_260595134347_rgbf000113-resize_0/002340_2014-06-28_20-05-46_260595134347_rgbf000113-resize_0-target.png,125,2.4735,5,6535,124,feet,jsons/VE125_randls_42.json,996533,1106316,40,Man
63,301337,DepthScenes,duration_manipulation_targetAtFixation,jsons/VE125_randls_42.json,http://54.235.29.9/FacialAge/BNav_EC2/DepthDuration/v2_depth_duration_MTurk/v2_DepthDuration_HTML.html#28,28,1364,768,1364,768,8-30-2022,7-3-28,64,depth_duration_stimuli/001059_2014-06-08_21-53-27_260595134347_rgbf000061-resize_4/001059_2014-06-08_21-53-27_260595134347_rgbf000061-resize_4-target.png,125,2.4185,4,5659,125,feet,jsons/VE125_randls_42.json,996533,1106316,40,Man
64,301337,DepthScenes,duration_manipulation_targetAtFixation,jsons/VE125_randls_42.json,http://54.235.29.9/FacialAge/BNav_EC2/DepthDuration/v2_depth_duration_MTurk/v2_DepthDuration_HTML.html#28,28,1364,768,1364,768,8-30-2022,7-3-28,65,depth_duration_stimuli/001032_2014-06-08_13-23-17_260595134347_rgbf000021-resize_3/001032_2014-06-08_13-23-17_260595134347_rgbf000021-resize_3-target.png,125,3.2725,3,11690,123,feet,jsons/VE125_randls_42.json,996533,1106316,40,Man
65,301337,DepthScenes,duration_manipulation_targetAtFixation,jsons/VE125_randls_42.json,http://54.235.29.9/FacialAge/BNav_EC2/DepthDuration/v2_depth_duration_MTurk/v2_DepthDuration_HTML.html#28,28,1364,768,1364,768,8-30-2022,7-3-28,66,depth_duration_stimuli/001222_2014-06-17_16-24-06_260595134347_rgbf000073-resize_0/001222_2014-06-17_16-24-06_260595134347_rgbf000073-resize-original.jpg,125,1.4385,0,5507,117,feet,jsons/VE125_randls_42.json,996533,1106316,40,Man
66,301337,DepthScenes,duration_manipulation_targetAtFixation,jsons/VE125_randls_42.json,http://54.235.29.9/FacialAge/BNav_EC2/DepthDuration/v2_depth_duration_MTurk/v2_DepthDuration_HTML.html#28,28,1364,768,1364,768,8-30-2022,7-3-28,67,depth_duration_stimuli/002043_2014-06-24_20-29-38_260595134347_rgbf000039-resize_4/002043_2014-06-24_20-29-38_260595134347_rgbf000039-resize_4-target.png,125,2.8435,0,3503,123,feet,jsons/VE125_randls_42.json,996533,1106316,40,Man
67,301337,DepthScenes,duration_manipulation_targetAtFixation,jsons/VE125_randls_42.json,http://54.235.29.9/FacialAge/BNav_EC2/DepthDuration/v2_depth_duration_MTurk/v2_DepthDuration_HTML.html#28,28,1364,768,1364,768,8-30-2022,7-3-28,68,depth_duration_stimuli/003048_2014-06-15_13-49-43_094959634447_rgbf000150-resize_1/003048_2014-06-15_13-49-43_094959634447_rgbf000150-resize_1-target.png,125,4.0035,5,4242,124,feet,jsons/VE125_randls_42.json,996533,1106316,40,Man
68,301337,DepthScenes,duration_manipulation_targetAtFixation,jsons/VE125_randls_42.json,http://54.235.29.9/FacialAge/BNav_EC2/DepthDuration/v2_depth_duration_MTurk/v2_DepthDuration_HTML.html#28,28,1364,768,1364,768,8-30-2022,7-3-28,69,depth_duration_stimuli/002570_2014-06-24_13-59-54_094959634447_rgbf000059-resize_0/002570_2014-06-24_13-59-54_094959634447_rgbf000059-resize_0-target.png,125,4.037,5,4586,124,feet,jsons/VE125_randls_42.json,996533,1106316,40,Man
69,301337,DepthScenes,duration_manipulation_targetAtFixation,jsons/VE125_randls_42.json,http://54.235.29.9/FacialAge/BNav_EC2/DepthDuration/v2_depth_duration_MTurk/v2_DepthDuration_HTML.html#28,28,1364,768,1364,768,8-30-2022,7-3-28,70,depth_duration_stimuli/002467_2014-06-28_20-38-07_260595134347_rgbf000026-resize_2/002467_2014-06-28_20-38-07_260595134347_rgbf000026-resize_2-target.png,125,4.742,0,3074,124,feet,jsons/VE125_randls_42.json,996533,1106316,40,Man
70,301337,DepthScenes,duration_manipulation_targetAtFixation,jsons/VE125_randls_42.json,http://54.235.29.9/FacialAge/BNav_EC2/DepthDuration/v2_depth_duration_MTurk/v2_DepthDuration_HTML.html#28,28,1364,768,1364,768,8-30-2022,7-3-28,71,depth_duration_stimuli/002213_2014-06-28_18-37-58_260595134347_rgbf000055-resize_1/002213_2014-06-28_18-37-58_260595134347_rgbf000055-resize_1-target.png,125,3.62,7,4678,125,feet,jsons/VE125_randls_42.json,996533,1106316,40,Man
71,301337,DepthScenes,duration_manipulation_targetAtFixation,jsons/VE125_randls_42.json,http://54.235.29.9/FacialAge/BNav_EC2/DepthDuration/v2_depth_duration_MTurk/v2_DepthDuration_HTML.html#28,28,1364,768,1364,768,8-30-2022,7-3-28,72,depth_duration_stimuli/000691_2014-06-08_13-08-50_260595134347_rgbf000132-resize_3/000691_2014-06-08_13-08-50_260595134347_rgbf000132-resize_3-target.png,125,4.1530000000000005,0,3065,124,feet,jsons/VE125_randls_42.json,996533,1106316,40,Man
72,301337,DepthScenes,duration_manipulation_targetAtFixation,jsons/VE125_randls_42.json,http://54.235.29.9/FacialAge/BNav_EC2/DepthDuration/v2_depth_duration_MTurk/v2_DepthDuration_HTML.html#28,28,1364,768,1364,768,8-30-2022,7-3-28,73,depth_duration_stimuli/000522_2014-06-08_13-35-06_260595134347_rgbf000244-resize_1/000522_2014-06-08_13-35-06_260595134347_rgbf000244-resize_1-target.png,125,2.3715,2,4372,125,feet,jsons/VE125_randls_42.json,996533,1106316,40,Man
73,301337,DepthScenes,duration_manipulation_targetAtFixation,jsons/VE125_randls_42.json,http://54.235.29.9/FacialAge/BNav_EC2/DepthDuration/v2_depth_duration_MTurk/v2_DepthDuration_HTML.html#28,28,1364,768,1364,768,8-30-2022,7-3-28,74,depth_duration_stimuli/002949_2014-06-26_15-57-42_094959634447_rgbf000079-resize_1/002949_2014-06-26_15-57-42_094959634447_rgbf000079-resize_1-target.png,125,1.8915,0,3107,124,feet,jsons/VE125_randls_42.json,996533,1106316,40,Man
74,301337,DepthScenes,duration_manipulation_targetAtFixation,jsons/VE125_randls_42.json,http://54.235.29.9/FacialAge/BNav_EC2/DepthDuration/v2_depth_duration_MTurk/v2_DepthDuration_HTML.html#28,28,1364,768,1364,768,8-30-2022,7-3-28,75,depth_duration_stimuli/002663_2014-06-13_15-50-26_094959634447_rgbf000075-resize_1/002663_2014-06-13_15-50-26_094959634447_rgbf000075-resize_1-target.png,125,4.7495,4,4362,124,feet,jsons/VE125_randls_42.json,996533,1106316,40,Man
75,301337,DepthScenes,duration_manipulation_targetAtFixation,jsons/VE125_randls_42.json,http://54.235.29.9/FacialAge/BNav_EC2/DepthDuration/v2_depth_duration_MTurk/v2_DepthDuration_HTML.html#28,28,1364,768,1364,768,8-30-2022,7-3-28,76,depth_duration_stimuli/000409_2014-06-04_19-23-33_260595134347_rgbf000067-resize_0/000409_2014-06-04_19-23-33_260595134347_rgbf000067-resize_0-target.png,125,3.7335,3,3705,124,feet,jsons/VE125_randls_42.json,996533,1106316,40,Man
76,301337,DepthScenes,duration_manipulation_targetAtFixation,jsons/VE125_randls_42.json,http://54.235.29.9/FacialAge/BNav_EC2/DepthDuration/v2_depth_duration_MTurk/v2_DepthDuration_HTML.html#28,28,1364,768,1364,768,8-30-2022,7-3-28,77,depth_duration_stimuli/000469_2014-06-09_19-42-10_260595134347_rgbf000081-resize_1/000469_2014-06-09_19-42-10_260595134347_rgbf000081-resize_1-target.png,125,1.652,2,4794,124,feet,jsons/VE125_randls_42.json,996533,1106316,40,Man
77,301337,DepthScenes,duration_manipulation_targetAtFixation,jsons/VE125_randls_42.json,http://54.235.29.9/FacialAge/BNav_EC2/DepthDuration/v2_depth_duration_MTurk/v2_DepthDuration_HTML.html#28,28,1364,768,1364,768,8-30-2022,7-3-28,78,depth_duration_stimuli/000483_2014-06-09_20-41-45_260595134347_rgbf000116-resize_4/000483_2014-06-09_20-41-45_260595134347_rgbf000116-resize_4-target.png,125,1.337,4,10882,123,feet,jsons/VE125_randls_42.json,996533,1106316,40,Man
78,301337,DepthScenes,duration_manipulation_targetAtFixation,jsons/VE125_randls_42.json,http://54.235.29.9/FacialAge/BNav_EC2/DepthDuration/v2_depth_duration_MTurk/v2_DepthDuration_HTML.html#28,28,1364,768,1364,768,8-30-2022,7-3-28,79,depth_duration_stimuli/001449_2014-06-19_17-01-27_260595134347_rgbf000116-resize_2/001449_2014-06-19_17-01-27_260595134347_rgbf000116-resize_2-target.png,125,3.452,3,17347,123,feet,jsons/VE125_randls_42.json,996533,1106316,40,Man
79,301337,DepthScenes,duration_manipulation_targetAtFixation,jsons/VE125_randls_42.json,http://54.235.29.9/FacialAge/BNav_EC2/DepthDuration/v2_depth_duration_MTurk/v2_DepthDuration_HTML.html#28,28,1364,768,1364,768,8-30-2022,7-3-28,80,depth_duration_stimuli/001450_2014-06-19_17-02-03_260595134347_rgbf000203-resize_4/001450_2014-06-19_17-02-03_260595134347_rgbf000203-resize_4-target.png,125,4.0106666666667,3,9319,124,feet,jsons/VE125_randls_42.json,996533,1106316,40,Man
80,301337,DepthScenes,duration_manipulation_targetAtFixation,jsons/VE125_randls_42.json,http://54.235.29.9/FacialAge/BNav_EC2/DepthDuration/v2_depth_duration_MTurk/v2_DepthDuration_HTML.html#28,28,1364,768,1364,768,8-30-2022,7-3-28,81,depth_duration_stimuli/002039_2014-06-24_20-22-38_260595134347_rgbf000084-resize_1/002039_2014-06-24_20-22-38_260595134347_rgbf000084-resize_1-target.png,125,4.408,5,5324,122,feet,jsons/VE125_randls_42.json,996533,1106316,40,Man
81,301337,DepthScenes,duration_manipulation_targetAtFixation,jsons/VE125_randls_42.json,http://54.235.29.9/FacialAge/BNav_EC2/DepthDuration/v2_depth_duration_MTurk/v2_DepthDuration_HTML.html#28,28,1364,768,1364,768,8-30-2022,7-3-28,82,depth_duration_stimuli/002103_2014-06-25_20-00-40_260595134347_rgbf000049-resize_0/002103_2014-06-25_20-00-40_260595134347_rgbf000049-resize_0-target.png,125,4.105,4,3166,124,feet,jsons/VE125_randls_42.json,996533,1106316,40,Man
82,301337,DepthScenes,duration_manipulation_targetAtFixation,jsons/VE125_randls_42.json,http://54.235.29.9/FacialAge/BNav_EC2/DepthDuration/v2_depth_duration_MTurk/v2_DepthDuration_HTML.html#28,28,1364,768,1364,768,8-30-2022,7-3-28,83,depth_duration_stimuli/001570_2014-06-20_17-21-09_260595134347_rgbf000135-resize_4/001570_2014-06-20_17-21-09_260595134347_rgbf000135-resize_4-target.png,125,4.467,7,4361,123,feet,jsons/VE125_randls_42.json,996533,1106316,40,Man
83,301337,DepthScenes,duration_manipulation_targetAtFixation,jsons/VE125_randls_42.json,http://54.235.29.9/FacialAge/BNav_EC2/DepthDuration/v2_depth_duration_MTurk/v2_DepthDuration_HTML.html#28,28,1364,768,1364,768,8-30-2022,7-3-28,84,depth_duration_stimuli/001392_2014-06-19_16-07-59_260595134347_rgbf000046-resize_1/001392_2014-06-19_16-07-59_260595134347_rgbf000046-resize_1-target.png,125,4.135,0,3682,125,feet,jsons/VE125_randls_42.json,996533,1106316,40,Man
84,301337,DepthScenes,duration_manipulation_targetAtFixation,jsons/VE125_randls_42.json,http://54.235.29.9/FacialAge/BNav_EC2/DepthDuration/v2_depth_duration_MTurk/v2_DepthDuration_HTML.html#28,28,1364,768,1364,768,8-30-2022,7-3-28,85,depth_duration_stimuli/003621_2014-05-23_18-06-08_094959634447_rgbf000101-resize_1/003621_2014-05-23_18-06-08_094959634447_rgbf000101-resize_1-target.png,125,3.9835,5,7363,122,feet,jsons/VE125_randls_42.json,996533,1106316,40,Man
85,301337,DepthScenes,duration_manipulation_targetAtFixation,jsons/VE125_randls_42.json,http://54.235.29.9/FacialAge/BNav_EC2/DepthDuration/v2_depth_duration_MTurk/v2_DepthDuration_HTML.html#28,28,1364,768,1364,768,8-30-2022,7-3-28,86,depth_duration_stimuli/001584_2014-06-20_11-07-43_260595134347_rgbf000002-resize_1/001584_2014-06-20_11-07-43_260595134347_rgbf000002-resize_1-target.png,125,3.53,4,4066,124,feet,jsons/VE125_randls_42.json,996533,1106316,40,Man
86,301337,DepthScenes,duration_manipulation_targetAtFixation,jsons/VE125_randls_42.json,http://54.235.29.9/FacialAge/BNav_EC2/DepthDuration/v2_depth_duration_MTurk/v2_DepthDuration_HTML.html#28,28,1364,768,1364,768,8-30-2022,7-3-28,87,depth_duration_stimuli/000436_2014-06-09_22-25-11_260595134347_rgbf000137-resize_1/000436_2014-06-09_22-25-11_260595134347_rgbf000137-resize_1-target.png,125,4.0705,7,4789,124,feet,jsons/VE125_randls_42.json,996533,1106316,40,Man
87,301337,DepthScenes,duration_manipulation_targetAtFixation,jsons/VE125_randls_42.json,http://54.235.29.9/FacialAge/BNav_EC2/DepthDuration/v2_depth_duration_MTurk/v2_DepthDuration_HTML.html#28,28,1364,768,1364,768,8-30-2022,7-3-28,88,depth_duration_stimuli/002444_2014-06-28_20-32-08_260595134347_rgbf000027-resize_0/002444_2014-06-28_20-32-08_260595134347_rgbf000027-resize_0-target.png,125,4.388999999999999,5,3434,126,feet,jsons/VE125_randls_42.json,996533,1106316,40,Man
88,301337,DepthScenes,duration_manipulation_targetAtFixation,jsons/VE125_randls_42.json,http://54.235.29.9/FacialAge/BNav_EC2/DepthDuration/v2_depth_duration_MTurk/v2_DepthDuration_HTML.html#28,28,1364,768,1364,768,8-30-2022,7-3-28,89,depth_duration_stimuli/003070_2014-06-15_14-58-27_094959634447_rgbf000150-resize_3/003070_2014-06-15_14-58-27_094959634447_rgbf000150-resize_3-target.png,125,2.9415,4,4754,123,feet,jsons/VE125_randls_42.json,996533,1106316,40,Man
89,301337,DepthScenes,duration_manipulation_targetAtFixation,jsons/VE125_randls_42.json,http://54.235.29.9/FacialAge/BNav_EC2/DepthDuration/v2_depth_duration_MTurk/v2_DepthDuration_HTML.html#28,28,1364,768,1364,768,8-30-2022,7-3-28,90,depth_duration_stimuli/000943_2014-06-09_19-31-07_260595134347_rgbf000128-resize_1/000943_2014-06-09_19-31-07_260595134347_rgbf000128-resize_1-target.png,125,1.9765,4,3337,124,feet,jsons/VE125_randls_42.json,996533,1106316,40,Man
90,301337,DepthScenes,duration_manipulation_targetAtFixation,jsons/VE125_randls_42.json,http://54.235.29.9/FacialAge/BNav_EC2/DepthDuration/v2_depth_duration_MTurk/v2_DepthDuration_HTML.html#28,28,1364,768,1364,768,8-30-2022,7-3-28,91,depth_duration_stimuli/000470_2014-06-09_19-42-40_260595134347_rgbf000094-resize_1/000470_2014-06-09_19-42-40_260595134347_rgbf000094-resize_1-target.png,125,1.831,4,4124,125,feet,jsons/VE125_randls_42.json,996533,1106316,40,Man
91,301337,DepthScenes,duration_manipulation_targetAtFixation,jsons/VE125_randls_42.json,http://54.235.29.9/FacialAge/BNav_EC2/DepthDuration/v2_depth_duration_MTurk/v2_DepthDuration_HTML.html#28,28,1364,768,1364,768,8-30-2022,7-3-28,92,depth_duration_stimuli/000109_2014-05-14_23-41-52_260595134347_rgbf000035-resize_9/000109_2014-05-14_23-41-52_260595134347_rgbf000035-resize_9-target.png,125,1.3545,2,3371,124,feet,jsons/VE125_randls_42.json,996533,1106316,40,Man
92,301337,DepthScenes,duration_manipulation_targetAtFixation,jsons/VE125_randls_42.json,http://54.235.29.9/FacialAge/BNav_EC2/DepthDuration/v2_depth_duration_MTurk/v2_DepthDuration_HTML.html#28,28,1364,768,1364,768,8-30-2022,7-3-28,93,depth_duration_stimuli/002549_2014-06-24_13-41-39_094959634447_rgbf000022-resize_3/002549_2014-06-24_13-41-39_094959634447_rgbf000022-resize_3-target.png,125,1.476,2,4267,124,feet,jsons/VE125_randls_42.json,996533,1106316,40,Man
93,301337,DepthScenes,duration_manipulation_targetAtFixation,jsons/VE125_randls_42.json,http://54.235.29.9/FacialAge/BNav_EC2/DepthDuration/v2_depth_duration_MTurk/v2_DepthDuration_HTML.html#28,28,1364,768,1364,768,8-30-2022,7-3-28,94,depth_duration_stimuli/002750_2014-06-22_19-08-03_094959634447_rgbf000094-resize_4/002750_2014-06-22_19-08-03_094959634447_rgbf000094-resize_4-target.png,125,2.354,0,3058,122,feet,jsons/VE125_randls_42.json,996533,1106316,40,Man
94,301337,DepthScenes,duration_manipulation_targetAtFixation,jsons/VE125_randls_42.json,http://54.235.29.9/FacialAge/BNav_EC2/DepthDuration/v2_depth_duration_MTurk/v2_DepthDuration_HTML.html#28,28,1364,768,1364,768,8-30-2022,7-3-28,95,depth_duration_stimuli/002905_2014-06-03_18-04-43_094959634447_rgbf000151-resize_2/002905_2014-06-03_18-04-43_094959634447_rgbf000151-resize_2-target.png,125,2.0295,4,4680,124,feet,jsons/VE125_randls_42.json,996533,1106316,40,Man
95,301337,DepthScenes,duration_manipulation_targetAtFixation,jsons/VE125_randls_42.json,http://54.235.29.9/FacialAge/BNav_EC2/DepthDuration/v2_depth_duration_MTurk/v2_DepthDuration_HTML.html#28,28,1364,768,1364,768,8-30-2022,7-3-28,96,depth_duration_stimuli/003423_2014-05-21_10-23-26_094959634447_rgbf002665-resize_2/003423_2014-05-21_10-23-26_094959634447_rgbf002665-resize_2-target.png,125,3.2575,0,3351,124,feet,jsons/VE125_randls_42.json,996533,1106316,40,Man
96,301337,DepthScenes,duration_manipulation_targetAtFixation,jsons/VE125_randls_42.json,http://54.235.29.9/FacialAge/BNav_EC2/DepthDuration/v2_depth_duration_MTurk/v2_DepthDuration_HTML.html#28,28,1364,768,1364,768,8-30-2022,7-3-28,97,depth_duration_stimuli/000773_2014-06-08_22-24-54_260595134347_rgbf000093-resize_1/000773_2014-06-08_22-24-54_260595134347_rgbf000093-resize_1-target.png,125,4.973,6,4514,125,feet,jsons/VE125_randls_42.json,996533,1106316,40,Man
97,301337,DepthScenes,duration_manipulation_targetAtFixation,jsons/VE125_randls_42.json,http://54.235.29.9/FacialAge/BNav_EC2/DepthDuration/v2_depth_duration_MTurk/v2_DepthDuration_HTML.html#28,28,1364,768,1364,768,8-30-2022,7-3-28,98,depth_duration_stimuli/002414_2014-06-28_20-24-58_260595134347_rgbf000067-resize_4/002414_2014-06-28_20-24-58_260595134347_rgbf000067-resize_4-target.png,125,4.363,0,3754,124,feet,jsons/VE125_randls_42.json,996533,1106316,40,Man
98,301337,DepthScenes,duration_manipulation_targetAtFixation,jsons/VE125_randls_42.json,http://54.235.29.9/FacialAge/BNav_EC2/DepthDuration/v2_depth_duration_MTurk/v2_DepthDuration_HTML.html#28,28,1364,768,1364,768,8-30-2022,7-3-28,99,depth_duration_stimuli/001540_2014-06-20_17-01-05_260595134347_rgbf000086-resize_2/001540_2014-06-20_17-01-05_260595134347_rgbf000086-resize-original.jpg,125,1.459,0,3359,123,feet,jsons/VE125_randls_42.json,996533,1106316,40,Man
99,301337,DepthScenes,duration_manipulation_targetAtFixation,jsons/VE125_randls_42.json,http://54.235.29.9/FacialAge/BNav_EC2/DepthDuration/v2_depth_duration_MTurk/v2_DepthDuration_HTML.html#28,28,1364,768,1364,768,8-30-2022,7-3-28,100,depth_duration_stimuli/002153_2014-06-25_21-27-18_260595134347_rgbf000038-resize_5/002153_2014-06-25_21-27-18_260595134347_rgbf000038-resize_5-target.png,125,2.505,3,4236,125,feet,jsons/VE125_randls_42.json,996533,1106316,40,Man
100,301337,DepthScenes,duration_manipulation_targetAtFixation,jsons/VE125_randls_42.json,http://54.235.29.9/FacialAge/BNav_EC2/DepthDuration/v2_depth_duration_MTurk/v2_DepthDuration_HTML.html#28,28,1364,768,1364,768,8-30-2022,7-3-28,101,depth_duration_stimuli/002660_2014-06-13_15-44-18_094959634447_rgbf001878-resize_2/002660_2014-06-13_15-44-18_094959634447_rgbf001878-resize_2-target.png,125,3.576,0,3228,125,feet,jsons/VE125_randls_42.json,996533,1106316,40,Man
101,301337,DepthScenes,duration_manipulation_targetAtFixation,jsons/VE125_randls_42.json,http://54.235.29.9/FacialAge/BNav_EC2/DepthDuration/v2_depth_duration_MTurk/v2_DepthDuration_HTML.html#28,28,1364,768,1364,768,8-30-2022,7-3-28,102,depth_duration_stimuli/001029_2014-06-08_13-17-57_260595134347_rgbf000065-resize_1/001029_2014-06-08_13-17-57_260595134347_rgbf000065-resize_1-target.png,125,3.0835,5,4285,125,feet,jsons/VE125_randls_42.json,996533,1106316,40,Man
102,301337,DepthScenes,duration_manipulation_targetAtFixation,jsons/VE125_randls_42.json,http://54.235.29.9/FacialAge/BNav_EC2/DepthDuration/v2_depth_duration_MTurk/v2_DepthDuration_HTML.html#28,28,1364,768,1364,768,8-30-2022,7-3-28,103,depth_duration_stimuli/000677_2014-06-08_23-10-32_260595134347_rgbf000158-resize_6/000677_2014-06-08_23-10-32_260595134347_rgbf000158-resize_6-target.png,125,3.556,0,2841,123,feet,jsons/VE125_randls_42.json,996533,1106316,40,Man
103,301337,DepthScenes,duration_manipulation_targetAtFixation,jsons/VE125_randls_42.json,http://54.235.29.9/FacialAge/BNav_EC2/DepthDuration/v2_depth_duration_MTurk/v2_DepthDuration_HTML.html#28,28,1364,768,1364,768,8-30-2022,7-3-28,104,depth_duration_stimuli/001133_2014-06-17_14-49-16_260595134347_rgbf000100-resize_0/001133_2014-06-17_14-49-16_260595134347_rgbf000100-resize_0-target.png,125,4.2115,5,4644,123,feet,jsons/VE125_randls_42.json,996533,1106316,40,Man
104,301337,DepthScenes,duration_manipulation_targetAtFixation,jsons/VE125_randls_42.json,http://54.235.29.9/FacialAge/BNav_EC2/DepthDuration/v2_depth_duration_MTurk/v2_DepthDuration_HTML.html#28,28,1364,768,1364,768,8-30-2022,7-3-28,105,depth_duration_stimuli/001132_2014-06-17_14-48-54_260595134347_rgbf000100-resize_2/001132_2014-06-17_14-48-54_260595134347_rgbf000100-resize_2-target.png,125,3.753,0,3802,124,feet,jsons/VE125_randls_42.json,996533,1106316,40,Man
105,301337,DepthScenes,duration_manipulation_targetAtFixation,jsons/VE125_randls_42.json,http://54.235.29.9/FacialAge/BNav_EC2/DepthDuration/v2_depth_duration_MTurk/v2_DepthDuration_HTML.html#28,28,1364,768,1364,768,8-30-2022,7-3-28,106,depth_duration_stimuli/002964_2014-06-08_17-46-11_094959634447_rgbf000091-resize_4/002964_2014-06-08_17-46-11_094959634447_rgbf000091-resize_4-target.png,125,1.6909999999999998,3,4490,123,feet,jsons/VE125_randls_42.json,996533,1106316,40,Man
106,301337,DepthScenes,duration_manipulation_targetAtFixation,jsons/VE125_randls_42.json,http://54.235.29.9/FacialAge/BNav_EC2/DepthDuration/v2_depth_duration_MTurk/v2_DepthDuration_HTML.html#28,28,1364,768,1364,768,8-30-2022,7-3-28,107,depth_duration_stimuli/002136_2014-06-25_21-18-03_260595134347_rgbf000109-resize_3/002136_2014-06-25_21-18-03_260595134347_rgbf000109-resize_3-target.png,125,1.9569999999999999,0,2386,122,feet,jsons/VE125_randls_42.json,996533,1106316,40,Man
107,301337,DepthScenes,duration_manipulation_targetAtFixation,jsons/VE125_randls_42.json,http://54.235.29.9/FacialAge/BNav_EC2/DepthDuration/v2_depth_duration_MTurk/v2_DepthDuration_HTML.html#28,28,1364,768,1364,768,8-30-2022,7-3-28,108,depth_duration_stimuli/001808_2014-06-26_20-50-58_260595134347_rgbf000029-resize_1/001808_2014-06-26_20-50-58_260595134347_rgbf000029-resize_1-target.png,125,4.249,5,3491,124,feet,jsons/VE125_randls_42.json,996533,1106316,40,Man
108,301337,DepthScenes,duration_manipulation_targetAtFixation,jsons/VE125_randls_42.json,http://54.235.29.9/FacialAge/BNav_EC2/DepthDuration/v2_depth_duration_MTurk/v2_DepthDuration_HTML.html#28,28,1364,768,1364,768,8-30-2022,7-3-28,109,depth_duration_stimuli/001815_2014-06-26_20-52-55_260595134347_rgbf000020-resize_0/001815_2014-06-26_20-52-55_260595134347_rgbf000020-resize_0-target.png,125,3.3865,0,2388,124,feet,jsons/VE125_randls_42.json,996533,1106316,40,Man
109,301337,DepthScenes,duration_manipulation_targetAtFixation,jsons/VE125_randls_42.json,http://54.235.29.9/FacialAge/BNav_EC2/DepthDuration/v2_depth_duration_MTurk/v2_DepthDuration_HTML.html#28,28,1364,768,1364,768,8-30-2022,7-3-28,110,depth_duration_stimuli/000929_2014-06-09_16-33-19_260595134347_rgbf000139-resize_0/000929_2014-06-09_16-33-19_260595134347_rgbf000139-resize_0-target.png,125,2.8680000000000003,4,6430,124,feet,jsons/VE125_randls_42.json,996533,1106316,40,Man
110,301337,DepthScenes,duration_manipulation_targetAtFixation,jsons/VE125_randls_42.json,http://54.235.29.9/FacialAge/BNav_EC2/DepthDuration/v2_depth_duration_MTurk/v2_DepthDuration_HTML.html#28,28,1364,768,1364,768,8-30-2022,7-3-28,111,depth_duration_stimuli/000457_2014-06-08_16-52-43_260595134347_rgbf000199-resize_1/000457_2014-06-08_16-52-43_260595134347_rgbf000199-resize_1-target.png,125,3.6489999999999996,6,5449,126,feet,jsons/VE125_randls_42.json,996533,1106316,40,Man
111,301337,DepthScenes,duration_manipulation_targetAtFixation,jsons/VE125_randls_42.json,http://54.235.29.9/FacialAge/BNav_EC2/DepthDuration/v2_depth_duration_MTurk/v2_DepthDuration_HTML.html#28,28,1364,768,1364,768,8-30-2022,7-3-28,112,depth_duration_stimuli/000447_2014-06-08_16-15-46_260595134347_rgbf000130-resize_1/000447_2014-06-08_16-15-46_260595134347_rgbf000130-resize_1-target.png,125,4.479,5,5386,124,feet,jsons/VE125_randls_42.json,996533,1106316,40,Man
112,301337,DepthScenes,duration_manipulation_targetAtFixation,jsons/VE125_randls_42.json,http://54.235.29.9/FacialAge/BNav_EC2/DepthDuration/v2_depth_duration_MTurk/v2_DepthDuration_HTML.html#28,28,1364,768,1364,768,8-30-2022,7-3-28,113,depth_duration_stimuli/001447_2014-06-19_17-00-32_260595134347_rgbf000082-resize_5/001447_2014-06-19_17-00-32_260595134347_rgbf000082-resize_5-target.png,125,4.13775,5,3282,123,feet,jsons/VE125_randls_42.json,996533,1106316,40,Man
113,301337,DepthScenes,duration_manipulation_targetAtFixation,jsons/VE125_randls_42.json,http://54.235.29.9/FacialAge/BNav_EC2/DepthDuration/v2_depth_duration_MTurk/v2_DepthDuration_HTML.html#28,28,1364,768,1364,768,8-30-2022,7-3-28,114,depth_duration_stimuli/000493_2014-06-09_21-01-18_260595134347_rgbf000196-resize_3/000493_2014-06-09_21-01-18_260595134347_rgbf000196-resize_3-target.png,125,3.44,4,4452,125,feet,jsons/VE125_randls_42.json,996533,1106316,40,Man
114,301337,DepthScenes,duration_manipulation_targetAtFixation,jsons/VE125_randls_42.json,http://54.235.29.9/FacialAge/BNav_EC2/DepthDuration/v2_depth_duration_MTurk/v2_DepthDuration_HTML.html#28,28,1364,768,1364,768,8-30-2022,7-3-28,115,depth_duration_stimuli/000191_2014-05-12_17-07-38_260595134347_rgbf000199-resize_0/000191_2014-05-12_17-07-38_260595134347_rgbf000199-resize_0-target.png,125,3.7995,5,3448,124,feet,jsons/VE125_randls_42.json,996533,1106316,40,Man
115,301337,DepthScenes,duration_manipulation_targetAtFixation,jsons/VE125_randls_42.json,http://54.235.29.9/FacialAge/BNav_EC2/DepthDuration/v2_depth_duration_MTurk/v2_DepthDuration_HTML.html#28,28,1364,768,1364,768,8-30-2022,7-3-28,116,depth_duration_stimuli/001170_2014-06-17_15-43-44_260595134347_rgbf000096-resize_6/001170_2014-06-17_15-43-44_260595134347_rgbf000096-resize-original.jpg,125,1.1909999999999998,0,4819,125,feet,jsons/VE125_randls_42.json,996533,1106316,40,Man
116,301337,DepthScenes,duration_manipulation_targetAtFixation,jsons/VE125_randls_42.json,http://54.235.29.9/FacialAge/BNav_EC2/DepthDuration/v2_depth_duration_MTurk/v2_DepthDuration_HTML.html#28,28,1364,768,1364,768,8-30-2022,7-3-28,117,depth_duration_stimuli/002279_2014-06-28_18-55-32_260595134347_rgbf000040-resize_5/002279_2014-06-28_18-55-32_260595134347_rgbf000040-resize_5-target.png,125,1.5043333333333,3,5557,123,feet,jsons/VE125_randls_42.json,996533,1106316,40,Man
117,301337,DepthScenes,duration_manipulation_targetAtFixation,jsons/VE125_randls_42.json,http://54.235.29.9/FacialAge/BNav_EC2/DepthDuration/v2_depth_duration_MTurk/v2_DepthDuration_HTML.html#28,28,1364,768,1364,768,8-30-2022,7-3-28,118,depth_duration_stimuli/000635_2014-06-08_16-38-42_260595134347_rgbf000106-resize_1/000635_2014-06-08_16-38-42_260595134347_rgbf000106-resize_1-target.png,125,2.074,4,9021,124,feet,jsons/VE125_randls_42.json,996533,1106316,40,Man
118,301337,DepthScenes,duration_manipulation_targetAtFixation,jsons/VE125_randls_42.json,http://54.235.29.9/FacialAge/BNav_EC2/DepthDuration/v2_depth_duration_MTurk/v2_DepthDuration_HTML.html#28,28,1364,768,1364,768,8-30-2022,7-3-28,119,depth_duration_stimuli/001175_2014-06-17_15-45-55_260595134347_rgbf000129-resize_4/001175_2014-06-17_15-45-55_260595134347_rgbf000129-resize_4-target.png,125,4.255,4,3814,125,feet,jsons/VE125_randls_42.json,996533,1106316,40,Man
119,301337,DepthScenes,duration_manipulation_targetAtFixation,jsons/VE125_randls_42.json,http://54.235.29.9/FacialAge/BNav_EC2/DepthDuration/v2_depth_duration_MTurk/v2_DepthDuration_HTML.html#28,28,1364,768,1364,768,8-30-2022,7-3-28,120,depth_duration_stimuli/003490_2014-05-21_15-50-11_094959634447_rgbf000101-resize_3/003490_2014-05-21_15-50-11_094959634447_rgbf000101-resize_3-target.png,125,3.6445,6,5050,123,feet,jsons/VE125_randls_42.json,996533,1106316,40,Man
120,301337,DepthScenes,duration_manipulation_targetAtFixation,jsons/VE125_randls_42.json,http://54.235.29.9/FacialAge/BNav_EC2/DepthDuration/v2_depth_duration_MTurk/v2_DepthDuration_HTML.html#28,28,1364,768,1364,768,8-30-2022,7-3-28,121,depth_duration_stimuli/001150_2014-06-17_15-27-34_260595134347_rgbf000108-resize_2/001150_2014-06-17_15-27-34_260595134347_rgbf000108-resize_2-target.png,125,4.0325,5,4954,130,feet,jsons/VE125_randls_42.json,996533,1106316,40,Man
121,301337,DepthScenes,duration_manipulation_targetAtFixation,jsons/VE125_randls_42.json,http://54.235.29.9/FacialAge/BNav_EC2/DepthDuration/v2_depth_duration_MTurk/v2_DepthDuration_HTML.html#28,28,1364,768,1364,768,8-30-2022,7-3-28,122,depth_duration_stimuli/000665_2014-06-09_20-42-35_260595134347_rgbf000110-resize_1/000665_2014-06-09_20-42-35_260595134347_rgbf000110-resize_1-target.png,125,3.057,4,3090,125,feet,jsons/VE125_randls_42.json,996533,1106316,40,Man
122,301337,DepthScenes,duration_manipulation_targetAtFixation,jsons/VE125_randls_42.json,http://54.235.29.9/FacialAge/BNav_EC2/DepthDuration/v2_depth_duration_MTurk/v2_DepthDuration_HTML.html#28,28,1364,768,1364,768,8-30-2022,7-3-28,123,depth_duration_stimuli/000810_2014-06-08_17-20-01_260595134347_rgbf000105-resize_0/000810_2014-06-08_17-20-01_260595134347_rgbf000105-resize_0-target.png,125,1.4865,3,4522,124,feet,jsons/VE125_randls_42.json,996533,1106316,40,Man
123,301337,DepthScenes,duration_manipulation_targetAtFixation,jsons/VE125_randls_42.json,http://54.235.29.9/FacialAge/BNav_EC2/DepthDuration/v2_depth_duration_MTurk/v2_DepthDuration_HTML.html#28,28,1364,768,1364,768,8-30-2022,7-3-28,124,depth_duration_stimuli/001214_2014-06-17_16-13-55_260595134347_rgbf000111-resize_0/001214_2014-06-17_16-13-55_260595134347_rgbf000111-resize_0-target.png,125,2.6505,5,5058,124,feet,jsons/VE125_randls_42.json,996533,1106316,40,Man
124,301337,DepthScenes,duration_manipulation_targetAtFixation,jsons/VE125_randls_42.json,http://54.235.29.9/FacialAge/BNav_EC2/DepthDuration/v2_depth_duration_MTurk/v2_DepthDuration_HTML.html#28,28,1364,768,1364,768,8-30-2022,7-3-28,125,depth_duration_stimuli/001092_2014-06-15_17-34-58_260595134347_rgbf000171-resize_3/001092_2014-06-15_17-34-58_260595134347_rgbf000171-resize_3-target.png,125,2.6935,4,5657,124,feet,jsons/VE125_randls_42.json,996533,1106316,40,Man
125,301337,DepthScenes,duration_manipulation_targetAtFixation,jsons/VE125_randls_42.json,http://54.235.29.9/FacialAge/BNav_EC2/DepthDuration/v2_depth_duration_MTurk/v2_DepthDuration_HTML.html#28,28,1364,768,1364,768,8-30-2022,7-3-28,126,depth_duration_stimuli/002545_2014-06-24_13-38-53_094959634447_rgbf000080-resize_4/002545_2014-06-24_13-38-53_094959634447_rgbf000080-resize_4-target.png,125,1.9205,5,3204,123,feet,jsons/VE125_randls_42.json,996533,1106316,40,Man
126,301337,DepthScenes,duration_manipulation_targetAtFixation,jsons/VE125_randls_42.json,http://54.235.29.9/FacialAge/BNav_EC2/DepthDuration/v2_depth_duration_MTurk/v2_DepthDuration_HTML.html#28,28,1364,768,1364,768,8-30-2022,7-3-28,127,depth_duration_stimuli/000414_2014-06-04_19-49-13_260595134347_rgbf000044-resize_0/000414_2014-06-04_19-49-13_260595134347_rgbf000044-resize_0-target.png,125,4.329,5,5628,124,feet,jsons/VE125_randls_42.json,996533,1106316,40,Man
127,301337,DepthScenes,duration_manipulation_targetAtFixation,jsons/VE125_randls_42.json,http://54.235.29.9/FacialAge/BNav_EC2/DepthDuration/v2_depth_duration_MTurk/v2_DepthDuration_HTML.html#28,28,1364,768,1364,768,8-30-2022,7-3-28,128,depth_duration_stimuli/003129_2014-05-12_10-48-10_094959634447_rgbf000100-resize_0/003129_2014-05-12_10-48-10_094959634447_rgbf000100-resize_0-target.png,125,4.9305,8,8304,128,feet,jsons/VE125_randls_42.json,996533,1106316,40,Man
128,301337,DepthScenes,duration_manipulation_targetAtFixation,jsons/VE125_randls_42.json,http://54.235.29.9/FacialAge/BNav_EC2/DepthDuration/v2_depth_duration_MTurk/v2_DepthDuration_HTML.html#28,28,1364,768,1364,768,8-30-2022,7-3-28,129,depth_duration_stimuli/002630_2014-06-24_14-47-50_094959634447_rgbf000055-resize_1/002630_2014-06-24_14-47-50_094959634447_rgbf000055-resize_1-target.png,125,3.0095,5,7187,124,feet,jsons/VE125_randls_42.json,996533,1106316,40,Man
129,301337,DepthScenes,duration_manipulation_targetAtFixation,jsons/VE125_randls_42.json,http://54.235.29.9/FacialAge/BNav_EC2/DepthDuration/v2_depth_duration_MTurk/v2_DepthDuration_HTML.html#28,28,1364,768,1364,768,8-30-2022,7-3-28,130,depth_duration_stimuli/002758_2014-06-22_19-11-20_094959634447_rgbf000128-resize_1/002758_2014-06-22_19-11-20_094959634447_rgbf000128-resize_1-target.png,125,2.555,4,8880,120,feet,jsons/VE125_randls_42.json,996533,1106316,40,Man
130,301337,DepthScenes,duration_manipulation_targetAtFixation,jsons/VE125_randls_42.json,http://54.235.29.9/FacialAge/BNav_EC2/DepthDuration/v2_depth_duration_MTurk/v2_DepthDuration_HTML.html#28,28,1364,768,1364,768,8-30-2022,7-3-28,131,depth_duration_stimuli/000917_2014-06-09_22-45-29_260595134347_rgbf000149-resize_3/000917_2014-06-09_22-45-29_260595134347_rgbf000149-resize_3-target.png,125,4.1865,5,11299,125,feet,jsons/VE125_randls_42.json,996533,1106316,40,Man
131,301337,DepthScenes,duration_manipulation_targetAtFixation,jsons/VE125_randls_42.json,http://54.235.29.9/FacialAge/BNav_EC2/DepthDuration/v2_depth_duration_MTurk/v2_DepthDuration_HTML.html#28,28,1364,768,1364,768,8-30-2022,7-3-28,132,depth_duration_stimuli/002323_2014-06-28_20-01-54_260595134347_rgbf000051-resize_4/002323_2014-06-28_20-01-54_260595134347_rgbf000051-resize_4-target.png,125,3.7310000000000003,6,3963,130,feet,jsons/VE125_randls_42.json,996533,1106316,40,Man
132,301337,DepthScenes,duration_manipulation_targetAtFixation,jsons/VE125_randls_42.json,http://54.235.29.9/FacialAge/BNav_EC2/DepthDuration/v2_depth_duration_MTurk/v2_DepthDuration_HTML.html#28,28,1364,768,1364,768,8-30-2022,7-3-28,133,depth_duration_stimuli/001806_2014-06-26_20-50-20_260595134347_rgbf000091-resize_1/001806_2014-06-26_20-50-20_260595134347_rgbf000091-resize_1-target.png,125,2.7305,4,4498,125,feet,jsons/VE125_randls_42.json,996533,1106316,40,Man
133,301337,DepthScenes,duration_manipulation_targetAtFixation,jsons/VE125_randls_42.json,http://54.235.29.9/FacialAge/BNav_EC2/DepthDuration/v2_depth_duration_MTurk/v2_DepthDuration_HTML.html#28,28,1364,768,1364,768,8-30-2022,7-3-28,134,depth_duration_stimuli/001617_2014-06-20_11-35-32_260595134347_rgbf000066-resize_1/001617_2014-06-20_11-35-32_260595134347_rgbf000066-resize_1-target.png,125,3.7910000000000004,5,5180,121,feet,jsons/VE125_randls_42.json,996533,1106316,40,Man
134,301337,DepthScenes,duration_manipulation_targetAtFixation,jsons/VE125_randls_42.json,http://54.235.29.9/FacialAge/BNav_EC2/DepthDuration/v2_depth_duration_MTurk/v2_DepthDuration_HTML.html#28,28,1364,768,1364,768,8-30-2022,7-3-28,135,depth_duration_stimuli/002072_2014-06-24_21-48-06_260595134347_rgbf000115-resize_0/002072_2014-06-24_21-48-06_260595134347_rgbf000115-resize-original.jpg,125,4.702,0,5242,123,feet,jsons/VE125_randls_42.json,996533,1106316,40,Man
135,301337,DepthScenes,duration_manipulation_targetAtFixation,jsons/VE125_randls_42.json,http://54.235.29.9/FacialAge/BNav_EC2/DepthDuration/v2_depth_duration_MTurk/v2_DepthDuration_HTML.html#28,28,1364,768,1364,768,8-30-2022,7-3-28,136,depth_duration_stimuli/001199_2014-06-17_16-03-48_260595134347_rgbf000077-resize_0/001199_2014-06-17_16-03-48_260595134347_rgbf000077-resize_0-target.png,125,3.4375,5,5164,126,feet,jsons/VE125_randls_42.json,996533,1106316,40,Man
136,301337,DepthScenes,duration_manipulation_targetAtFixation,jsons/VE125_randls_42.json,http://54.235.29.9/FacialAge/BNav_EC2/DepthDuration/v2_depth_duration_MTurk/v2_DepthDuration_HTML.html#28,28,1364,768,1364,768,8-30-2022,7-3-28,137,depth_duration_stimuli/000502_2014-06-08_23-02-32_260595134347_rgbf000063-resize_4/000502_2014-06-08_23-02-32_260595134347_rgbf000063-resize_4-target.png,125,2.431,0,4427,124,feet,jsons/VE125_randls_42.json,996533,1106316,40,Man
137,301337,DepthScenes,duration_manipulation_targetAtFixation,jsons/VE125_randls_42.json,http://54.235.29.9/FacialAge/BNav_EC2/DepthDuration/v2_depth_duration_MTurk/v2_DepthDuration_HTML.html#28,28,1364,768,1364,768,8-30-2022,7-3-28,138,depth_duration_stimuli/003492_2014-05-21_15-50-55_094959634447_rgbf000828-resize_1/003492_2014-05-21_15-50-55_094959634447_rgbf000828-resize_1-target.png,125,4.06875,8,4337,124,feet,jsons/VE125_randls_42.json,996533,1106316,40,Man
138,301337,DepthScenes,duration_manipulation_targetAtFixation,jsons/VE125_randls_42.json,http://54.235.29.9/FacialAge/BNav_EC2/DepthDuration/v2_depth_duration_MTurk/v2_DepthDuration_HTML.html#28,28,1364,768,1364,768,8-30-2022,7-3-28,139,depth_duration_stimuli/002568_2014-06-24_13-59-21_094959634447_rgbf000062-resize_4/002568_2014-06-24_13-59-21_094959634447_rgbf000062-resize_4-target.png,125,3.015,3,3713,123,feet,jsons/VE125_randls_42.json,996533,1106316,40,Man
139,301337,DepthScenes,duration_manipulation_targetAtFixation,jsons/VE125_randls_42.json,http://54.235.29.9/FacialAge/BNav_EC2/DepthDuration/v2_depth_duration_MTurk/v2_DepthDuration_HTML.html#28,28,1364,768,1364,768,8-30-2022,7-3-28,140,depth_duration_stimuli/001011_2014-06-08_23-18-54_260595134347_rgbf000044-resize_4/001011_2014-06-08_23-18-54_260595134347_rgbf000044-resize_4-target.png,125,2.4730000000000003,7,9835,124,feet,jsons/VE125_randls_42.json,996533,1106316,40,Man
140,301337,DepthScenes,duration_manipulation_targetAtFixation,jsons/VE125_randls_42.json,http://54.235.29.9/FacialAge/BNav_EC2/DepthDuration/v2_depth_duration_MTurk/v2_DepthDuration_HTML.html#28,28,1364,768,1364,768,8-30-2022,7-3-28,141,depth_duration_stimuli/002875_2014-06-01_15-19-00_094959634447_rgbf000151-resize_1/002875_2014-06-01_15-19-00_094959634447_rgbf000151-resize_1-target.png,125,1.9675,5,14458,124,feet,jsons/VE125_randls_42.json,996533,1106316,40,Man
141,301337,DepthScenes,duration_manipulation_targetAtFixation,jsons/VE125_randls_42.json,http://54.235.29.9/FacialAge/BNav_EC2/DepthDuration/v2_depth_duration_MTurk/v2_DepthDuration_HTML.html#28,28,1364,768,1364,768,8-30-2022,7-3-28,142,depth_duration_stimuli/002118_2014-06-25_20-32-08_260595134347_rgbf000078-resize_1/002118_2014-06-25_20-32-08_260595134347_rgbf000078-resize_1-target.png,125,2.6460000000000004,5,6641,125,feet,jsons/VE125_randls_42.json,996533,1106316,40,Man
142,301337,DepthScenes,duration_manipulation_targetAtFixation,jsons/VE125_randls_42.json,http://54.235.29.9/FacialAge/BNav_EC2/DepthDuration/v2_depth_duration_MTurk/v2_DepthDuration_HTML.html#28,28,1364,768,1364,768,8-30-2022,7-3-28,143,depth_duration_stimuli/001516_2014-06-20_16-25-09_260595134347_rgbf000076-resize_2/001516_2014-06-20_16-25-09_260595134347_rgbf000076-resize_2-target.png,125,1.7445,5,4818,123,feet,jsons/VE125_randls_42.json,996533,1106316,40,Man
143,301337,DepthScenes,duration_manipulation_targetAtFixation,jsons/VE125_randls_42.json,http://54.235.29.9/FacialAge/BNav_EC2/DepthDuration/v2_depth_duration_MTurk/v2_DepthDuration_HTML.html#28,28,1364,768,1364,768,8-30-2022,7-3-28,144,depth_duration_stimuli/000009_2014-05-26_14-32-05_260595134347_rgbf000034-resize_3/000009_2014-05-26_14-32-05_260595134347_rgbf000034-resize_3-target.png,125,3.8715,7,6472,124,feet,jsons/VE125_randls_42.json,996533,1106316,40,Man
144,301337,DepthScenes,duration_manipulation_targetAtFixation,jsons/VE125_randls_42.json,http://54.235.29.9/FacialAge/BNav_EC2/DepthDuration/v2_depth_duration_MTurk/v2_DepthDuration_HTML.html#28,28,1364,768,1364,768,8-30-2022,7-3-28,145,depth_duration_stimuli/001828_2014-06-26_21-40-03_260595134347_rgbf000024-resize_0/001828_2014-06-26_21-40-03_260595134347_rgbf000024-resize_0-target.png,125,4.8260000000000005,5,3251,124,feet,jsons/VE125_randls_42.json,996533,1106316,40,Man
145,301337,DepthScenes,duration_manipulation_targetAtFixation,jsons/VE125_randls_42.json,http://54.235.29.9/FacialAge/BNav_EC2/DepthDuration/v2_depth_duration_MTurk/v2_DepthDuration_HTML.html#28,28,1364,768,1364,768,8-30-2022,7-3-28,146,depth_duration_stimuli/001498_2014-06-19_17-45-14_260595134347_rgbf000129-resize_4/001498_2014-06-19_17-45-14_260595134347_rgbf000129-resize-original.jpg,125,1.4075,0,4771,125,feet,jsons/VE125_randls_42.json,996533,1106316,40,Man
146,301337,DepthScenes,duration_manipulation_targetAtFixation,jsons/VE125_randls_42.json,http://54.235.29.9/FacialAge/BNav_EC2/DepthDuration/v2_depth_duration_MTurk/v2_DepthDuration_HTML.html#28,28,1364,768,1364,768,8-30-2022,7-3-28,147,depth_duration_stimuli/000906_2014-06-08_13-35-43_260595134347_rgbf000155-resize_1/000906_2014-06-08_13-35-43_260595134347_rgbf000155-resize_1-target.png,125,2.8489999999999998,5,5042,124,feet,jsons/VE125_randls_42.json,996533,1106316,40,Man
147,301337,DepthScenes,duration_manipulation_targetAtFixation,jsons/VE125_randls_42.json,http://54.235.29.9/FacialAge/BNav_EC2/DepthDuration/v2_depth_duration_MTurk/v2_DepthDuration_HTML.html#28,28,1364,768,1364,768,8-30-2022,7-3-28,148,depth_duration_stimuli/002805_2014-06-22_19-54-03_094959634447_rgbf000079-resize_1/002805_2014-06-22_19-54-03_094959634447_rgbf000079-resize_1-target.png,125,3.1439999999999997,3,3268,123,feet,jsons/VE125_randls_42.json,996533,1106316,40,Man
148,301337,DepthScenes,duration_manipulation_targetAtFixation,jsons/VE125_randls_42.json,http://54.235.29.9/FacialAge/BNav_EC2/DepthDuration/v2_depth_duration_MTurk/v2_DepthDuration_HTML.html#28,28,1364,768,1364,768,8-30-2022,7-3-28,149,depth_duration_stimuli/000736_2014-06-08_18-24-15_260595134347_rgbf000206-resize_3/000736_2014-06-08_18-24-15_260595134347_rgbf000206-resize_3-target.png,125,3.515,4,7858,124,feet,jsons/VE125_randls_42.json,996533,1106316,40,Man
149,301337,DepthScenes,duration_manipulation_targetAtFixation,jsons/VE125_randls_42.json,http://54.235.29.9/FacialAge/BNav_EC2/DepthDuration/v2_depth_duration_MTurk/v2_DepthDuration_HTML.html#28,28,1364,768,1364,768,8-30-2022,7-3-28,150,depth_duration_stimuli/000137_2014-05-20_17-04-49_260595134347_rgbf000120-resize_1/000137_2014-05-20_17-04-49_260595134347_rgbf000120-resize_1-target.png,125,3.786,5,3218,124,feet,jsons/VE125_randls_42.json,996533,1106316,40,Man
150,301337,DepthScenes,duration_manipulation_targetAtFixation,jsons/VE125_randls_42.json,http://54.235.29.9/FacialAge/BNav_EC2/DepthDuration/v2_depth_duration_MTurk/v2_DepthDuration_HTML.html#28,28,1364,768,1364,768,8-30-2022,7-3-28,151,depth_duration_stimuli/002988_2014-06-15_12-24-20_094959634447_rgbf000150-resize_1/002988_2014-06-15_12-24-20_094959634447_rgbf000150-resize_1-target.png,125,4.7669999999999995,5,5105,124,feet,jsons/VE125_randls_42.json,996533,1106316,40,Man
151,301337,DepthScenes,duration_manipulation_targetAtFixation,jsons/VE125_randls_42.json,http://54.235.29.9/FacialAge/BNav_EC2/DepthDuration/v2_depth_duration_MTurk/v2_DepthDuration_HTML.html#28,28,1364,768,1364,768,8-30-2022,7-3-28,152,depth_duration_stimuli/001052_2014-06-08_18-24-54_260595134347_rgbf000130-resize_1/001052_2014-06-08_18-24-54_260595134347_rgbf000130-resize_1-target.png,125,4.1045,5,3021,124,feet,jsons/VE125_randls_42.json,996533,1106316,40,Man
152,301337,DepthScenes,duration_manipulation_targetAtFixation,jsons/VE125_randls_42.json,http://54.235.29.9/FacialAge/BNav_EC2/DepthDuration/v2_depth_duration_MTurk/v2_DepthDuration_HTML.html#28,28,1364,768,1364,768,8-30-2022,7-3-28,153,depth_duration_stimuli/003292_2014-05-14_21-53-49_094959634447_rgbf000100-resize_2/003292_2014-05-14_21-53-49_094959634447_rgbf000100-resize_2-target.png,125,3.4815,5,4510,123,feet,jsons/VE125_randls_42.json,996533,1106316,40,Man
153,301337,DepthScenes,duration_manipulation_targetAtFixation,jsons/VE125_randls_42.json,http://54.235.29.9/FacialAge/BNav_EC2/DepthDuration/v2_depth_duration_MTurk/v2_DepthDuration_HTML.html#28,28,1364,768,1364,768,8-30-2022,7-3-28,154,depth_duration_stimuli/002639_2014-06-24_14-51-37_094959634447_rgbf000074-resize_4/002639_2014-06-24_14-51-37_094959634447_rgbf000074-resize_4-target.png,125,4.0375,0,2807,125,feet,jsons/VE125_randls_42.json,996533,1106316,40,Man
154,301337,DepthScenes,duration_manipulation_targetAtFixation,jsons/VE125_randls_42.json,http://54.235.29.9/FacialAge/BNav_EC2/DepthDuration/v2_depth_duration_MTurk/v2_DepthDuration_HTML.html#28,28,1364,768,1364,768,8-30-2022,7-3-28,155,depth_duration_stimuli/000788_2014-06-08_22-34-36_260595134347_rgbf000131-resize_1/000788_2014-06-08_22-34-36_260595134347_rgbf000131-resize_1-target.png,125,3.359,3,4367,146,feet,jsons/VE125_randls_42.json,996533,1106316,40,Man
155,301337,DepthScenes,duration_manipulation_targetAtFixation,jsons/VE125_randls_42.json,http://54.235.29.9/FacialAge/BNav_EC2/DepthDuration/v2_depth_duration_MTurk/v2_DepthDuration_HTML.html#28,28,1364,768,1364,768,8-30-2022,7-3-28,156,depth_duration_stimuli/001235_2014-06-17_16-37-36_260595134347_rgbf000084-resize_4/001235_2014-06-17_16-37-36_260595134347_rgbf000084-resize_4-target.png,125,3.6605,3,2958,123,feet,jsons/VE125_randls_42.json,996533,1106316,40,Man
156,301337,DepthScenes,duration_manipulation_targetAtFixation,jsons/VE125_randls_42.json,http://54.235.29.9/FacialAge/BNav_EC2/DepthDuration/v2_depth_duration_MTurk/v2_DepthDuration_HTML.html#28,28,1364,768,1364,768,8-30-2022,7-3-28,157,depth_duration_stimuli/002784_2014-06-22_19-26-30_094959634447_rgbf000083-resize_3/002784_2014-06-22_19-26-30_094959634447_rgbf000083-resize_3-target.png,125,1.8046666666667,4,33564,121,feet,jsons/VE125_randls_42.json,996533,1106316,40,Man
157,301337,DepthScenes,duration_manipulation_targetAtFixation,jsons/VE125_randls_42.json,http://54.235.29.9/FacialAge/BNav_EC2/DepthDuration/v2_depth_duration_MTurk/v2_DepthDuration_HTML.html#28,28,1364,768,1364,768,8-30-2022,7-3-28,158,depth_duration_stimuli/001100_2014-06-15_17-46-26_260595134347_rgbf000225-resize_2/001100_2014-06-15_17-46-26_260595134347_rgbf000225-resize_2-target.png,125,2.24,3,8162,123,feet,jsons/VE125_randls_42.json,996533,1106316,40,Man
158,301337,DepthScenes,duration_manipulation_targetAtFixation,jsons/VE125_randls_42.json,http://54.235.29.9/FacialAge/BNav_EC2/DepthDuration/v2_depth_duration_MTurk/v2_DepthDuration_HTML.html#28,28,1364,768,1364,768,8-30-2022,7-3-28,159,depth_duration_stimuli/002445_2014-06-28_20-32-16_260595134347_rgbf000029-resize_4/002445_2014-06-28_20-32-16_260595134347_rgbf000029-resize_4-target.png,125,2.5315,4,8516,125,feet,jsons/VE125_randls_42.json,996533,1106316,40,Man
159,301337,DepthScenes,duration_manipulation_targetAtFixation,jsons/VE125_randls_42.json,http://54.235.29.9/FacialAge/BNav_EC2/DepthDuration/v2_depth_duration_MTurk/v2_DepthDuration_HTML.html#28,28,1364,768,1364,768,8-30-2022,7-3-28,160,depth_duration_stimuli/000780_2014-06-08_22-28-29_260595134347_rgbf000126-resize_1/000780_2014-06-08_22-28-29_260595134347_rgbf000126-resize_1-target.png,125,3.3825,4,3846,124,feet,jsons/VE125_randls_42.json,996533,1106316,40,Man
160,301337,DepthScenes,duration_manipulation_targetAtFixation,jsons/VE125_randls_42.json,http://54.235.29.9/FacialAge/BNav_EC2/DepthDuration/v2_depth_duration_MTurk/v2_DepthDuration_HTML.html#28,28,1364,768,1364,768,8-30-2022,7-3-28,161,depth_duration_stimuli/001810_2014-06-26_20-51-35_260595134347_rgbf000040-resize_3/001810_2014-06-26_20-51-35_260595134347_rgbf000040-resize_3-target.png,125,2.2525,4,6019,119,feet,jsons/VE125_randls_42.json,996533,1106316,40,Man
161,301337,DepthScenes,duration_manipulation_targetAtFixation,jsons/VE125_randls_42.json,http://54.235.29.9/FacialAge/BNav_EC2/DepthDuration/v2_depth_duration_MTurk/v2_DepthDuration_HTML.html#28,28,1364,768,1364,768,8-30-2022,7-3-28,162,depth_duration_stimuli/003010_2014-06-15_12-54-35_094959634447_rgbf000112-resize_0/003010_2014-06-15_12-54-35_094959634447_rgbf000112-resize_0-target.png,125,3.1185,7,3675,123,feet,jsons/VE125_randls_42.json,996533,1106316,40,Man
162,301337,DepthScenes,duration_manipulation_targetAtFixation,jsons/VE125_randls_42.json,http://54.235.29.9/FacialAge/BNav_EC2/DepthDuration/v2_depth_duration_MTurk/v2_DepthDuration_HTML.html#28,28,1364,768,1364,768,8-30-2022,7-3-28,163,depth_duration_stimuli/001056_2014-06-08_18-46-44_260595134347_rgbf000068-resize_0/001056_2014-06-08_18-46-44_260595134347_rgbf000068-resize_0-target.png,125,2.6625,5,4636,124,feet,jsons/VE125_randls_42.json,996533,1106316,40,Man
163,301337,DepthScenes,duration_manipulation_targetAtFixation,jsons/VE125_randls_42.json,http://54.235.29.9/FacialAge/BNav_EC2/DepthDuration/v2_depth_duration_MTurk/v2_DepthDuration_HTML.html#28,28,1364,768,1364,768,8-30-2022,7-3-28,164,depth_duration_stimuli/002199_2014-06-28_18-33-56_260595134347_rgbf000074-resize_0/002199_2014-06-28_18-33-56_260595134347_rgbf000074-resize_0-target.png,125,1.996,3,3561,125,feet,jsons/VE125_randls_42.json,996533,1106316,40,Man
