,subjID,experimentName,versionName,sequenceName,url,selected_row,windowWidth,windowHeight,screenWidth,screenHeight,startDate,startTime,trial,stimulus,duration,actual_depth,depth_estimate,trial_RT,log_sceneDuration,unitSelection,seq_filepath,experimentTime,totalTime,age,gender
0,309304,DepthScenes,duration_manipulation_targetAtFixation,jsons/v1_VE1000_randls_40.json,http://54.235.29.9/FacialAge/BNav_EC2/DepthDuration/v2_depth_duration_MTurk/v2_DepthDuration_HTML.html#13,13,1536,714,1536,864,8-29-2022,13-25-39,1,depth_duration_stimuli/000493_2014-06-09_21-01-18_260595134347_rgbf000196-resize_3/000493_2014-06-09_21-01-18_260595134347_rgbf000196-resize_3-target.png,1000,3.44,2,10593,996,feet,jsons/v1_VE1000_randls_40.json,817978,1058483,30,Woman
1,309304,DepthScenes,duration_manipulation_targetAtFixation,jsons/v1_VE1000_randls_40.json,http://54.235.29.9/FacialAge/BNav_EC2/DepthDuration/v2_depth_duration_MTurk/v2_DepthDuration_HTML.html#13,13,1536,714,1536,864,8-29-2022,13-25-39,2,depth_duration_stimuli/000191_2014-05-12_17-07-38_260595134347_rgbf000199-resize_0/000191_2014-05-12_17-07-38_260595134347_rgbf000199-resize_0-target.png,1000,3.7995,5,14460,994,feet,jsons/v1_VE1000_randls_40.json,817978,1058483,30,Woman
2,309304,DepthScenes,duration_manipulation_targetAtFixation,jsons/v1_VE1000_randls_40.json,http://54.235.29.9/FacialAge/BNav_EC2/DepthDuration/v2_depth_duration_MTurk/v2_DepthDuration_HTML.html#13,13,1536,714,1536,864,8-29-2022,13-25-39,3,depth_duration_stimuli/000486_2014-06-09_20-47-20_260595134347_rgbf000143-resize_2/000486_2014-06-09_20-47-20_260595134347_rgbf000143-resize_2-target.png,1000,4.8325,1,4503,1003,feet,jsons/v1_VE1000_randls_40.json,817978,1058483,30,Woman
3,309304,DepthScenes,duration_manipulation_targetAtFixation,jsons/v1_VE1000_randls_40.json,http://54.235.29.9/FacialAge/BNav_EC2/DepthDuration/v2_depth_duration_MTurk/v2_DepthDuration_HTML.html#13,13,1536,714,1536,864,8-29-2022,13-25-39,4,depth_duration_stimuli/003083_2014-06-15_15-21-03_094959634447_rgbf000063-resize_1/003083_2014-06-15_15-21-03_094959634447_rgbf000063-resize_1-target.png,1000,4.1405,7,5620,1011,feet,jsons/v1_VE1000_randls_40.json,817978,1058483,30,Woman
4,309304,DepthScenes,duration_manipulation_targetAtFixation,jsons/v1_VE1000_randls_40.json,http://54.235.29.9/FacialAge/BNav_EC2/DepthDuration/v2_depth_duration_MTurk/v2_DepthDuration_HTML.html#13,13,1536,714,1536,864,8-29-2022,13-25-39,5,depth_duration_stimuli/000470_2014-06-09_19-42-40_260595134347_rgbf000094-resize_1/000470_2014-06-09_19-42-40_260595134347_rgbf000094-resize_1-target.png,1000,1.831,1,4284,997,feet,jsons/v1_VE1000_randls_40.json,817978,1058483,30,Woman
5,309304,DepthScenes,duration_manipulation_targetAtFixation,jsons/v1_VE1000_randls_40.json,http://54.235.29.9/FacialAge/BNav_EC2/DepthDuration/v2_depth_duration_MTurk/v2_DepthDuration_HTML.html#13,13,1536,714,1536,864,8-29-2022,13-25-39,6,depth_duration_stimuli/000109_2014-05-14_23-41-52_260595134347_rgbf000035-resize_9/000109_2014-05-14_23-41-52_260595134347_rgbf000035-resize_9-target.png,1000,1.3545,1,4269,999,feet,jsons/v1_VE1000_randls_40.json,817978,1058483,30,Woman
6,309304,DepthScenes,duration_manipulation_targetAtFixation,jsons/v1_VE1000_randls_40.json,http://54.235.29.9/FacialAge/BNav_EC2/DepthDuration/v2_depth_duration_MTurk/v2_DepthDuration_HTML.html#13,13,1536,714,1536,864,8-29-2022,13-25-39,7,depth_duration_stimuli/000469_2014-06-09_19-42-10_260595134347_rgbf000081-resize_1/000469_2014-06-09_19-42-10_260595134347_rgbf000081-resize_1-target.png,1000,1.652,1,3482,1007,feet,jsons/v1_VE1000_randls_40.json,817978,1058483,30,Woman
7,309304,DepthScenes,duration_manipulation_targetAtFixation,jsons/v1_VE1000_randls_40.json,http://54.235.29.9/FacialAge/BNav_EC2/DepthDuration/v2_depth_duration_MTurk/v2_DepthDuration_HTML.html#13,13,1536,714,1536,864,8-29-2022,13-25-39,8,depth_duration_stimuli/000483_2014-06-09_20-41-45_260595134347_rgbf000116-resize_4/000483_2014-06-09_20-41-45_260595134347_rgbf000116-resize_4-target.png,1000,1.337,1,4568,1007,feet,jsons/v1_VE1000_randls_40.json,817978,1058483,30,Woman
8,309304,DepthScenes,duration_manipulation_targetAtFixation,jsons/v1_VE1000_randls_40.json,http://54.235.29.9/FacialAge/BNav_EC2/DepthDuration/v2_depth_duration_MTurk/v2_DepthDuration_HTML.html#13,13,1536,714,1536,864,8-29-2022,13-25-39,9,depth_duration_stimuli/000009_2014-05-26_14-32-05_260595134347_rgbf000034-resize_3/000009_2014-05-26_14-32-05_260595134347_rgbf000034-resize_3-target.png,1000,3.8715,7,8648,1014,feet,jsons/v1_VE1000_randls_40.json,817978,1058483,30,Woman
9,309304,DepthScenes,duration_manipulation_targetAtFixation,jsons/v1_VE1000_randls_40.json,http://54.235.29.9/FacialAge/BNav_EC2/DepthDuration/v2_depth_duration_MTurk/v2_DepthDuration_HTML.html#13,13,1536,714,1536,864,8-29-2022,13-25-39,10,depth_duration_stimuli/001828_2014-06-26_21-40-03_260595134347_rgbf000024-resize_0/001828_2014-06-26_21-40-03_260595134347_rgbf000024-resize_0-target.png,1000,4.8260000000000005,6,5737,994,feet,jsons/v1_VE1000_randls_40.json,817978,1058483,30,Woman
10,309304,DepthScenes,duration_manipulation_targetAtFixation,jsons/v1_VE1000_randls_40.json,http://54.235.29.9/FacialAge/BNav_EC2/DepthDuration/v2_depth_duration_MTurk/v2_DepthDuration_HTML.html#13,13,1536,714,1536,864,8-29-2022,13-25-39,11,depth_duration_stimuli/001011_2014-06-08_23-18-54_260595134347_rgbf000044-resize_4/001011_2014-06-08_23-18-54_260595134347_rgbf000044-resize_4-target.png,1000,2.4730000000000003,4,4599,1001,feet,jsons/v1_VE1000_randls_40.json,817978,1058483,30,Woman
11,309304,DepthScenes,duration_manipulation_targetAtFixation,jsons/v1_VE1000_randls_40.json,http://54.235.29.9/FacialAge/BNav_EC2/DepthDuration/v2_depth_duration_MTurk/v2_DepthDuration_HTML.html#13,13,1536,714,1536,864,8-29-2022,13-25-39,12,depth_duration_stimuli/002875_2014-06-01_15-19-00_094959634447_rgbf000151-resize_1/002875_2014-06-01_15-19-00_094959634447_rgbf000151-resize_1-target.png,1000,1.9675,1,8351,993,feet,jsons/v1_VE1000_randls_40.json,817978,1058483,30,Woman
12,309304,DepthScenes,duration_manipulation_targetAtFixation,jsons/v1_VE1000_randls_40.json,http://54.235.29.9/FacialAge/BNav_EC2/DepthDuration/v2_depth_duration_MTurk/v2_DepthDuration_HTML.html#13,13,1536,714,1536,864,8-29-2022,13-25-39,13,depth_duration_stimuli/000569_2014-06-09_22-51-47_260595134347_rgbf000141-resize_3/000569_2014-06-09_22-51-47_260595134347_rgbf000141-resize-original.jpg,1000,4.512,0,4032,1007,feet,jsons/v1_VE1000_randls_40.json,817978,1058483,30,Woman
13,309304,DepthScenes,duration_manipulation_targetAtFixation,jsons/v1_VE1000_randls_40.json,http://54.235.29.9/FacialAge/BNav_EC2/DepthDuration/v2_depth_duration_MTurk/v2_DepthDuration_HTML.html#13,13,1536,714,1536,864,8-29-2022,13-25-39,14,depth_duration_stimuli/002375_2014-06-28_20-13-44_260595134347_rgbf000032-resize_1/002375_2014-06-28_20-13-44_260595134347_rgbf000032-resize_1-target.png,1000,4.0175,3,5121,996,feet,jsons/v1_VE1000_randls_40.json,817978,1058483,30,Woman
14,309304,DepthScenes,duration_manipulation_targetAtFixation,jsons/v1_VE1000_randls_40.json,http://54.235.29.9/FacialAge/BNav_EC2/DepthDuration/v2_depth_duration_MTurk/v2_DepthDuration_HTML.html#13,13,1536,714,1536,864,8-29-2022,13-25-39,15,depth_duration_stimuli/002657_2014-06-13_15-29-54_094959634447_rgbf000150-resize_1/002657_2014-06-13_15-29-54_094959634447_rgbf000150-resize_1-target.png,1000,4.919,5,3856,1003,feet,jsons/v1_VE1000_randls_40.json,817978,1058483,30,Woman
15,309304,DepthScenes,duration_manipulation_targetAtFixation,jsons/v1_VE1000_randls_40.json,http://54.235.29.9/FacialAge/BNav_EC2/DepthDuration/v2_depth_duration_MTurk/v2_DepthDuration_HTML.html#13,13,1536,714,1536,864,8-29-2022,13-25-39,16,depth_duration_stimuli/001449_2014-06-19_17-01-27_260595134347_rgbf000116-resize_2/001449_2014-06-19_17-01-27_260595134347_rgbf000116-resize_2-target.png,1000,3.452,2,5731,998,feet,jsons/v1_VE1000_randls_40.json,817978,1058483,30,Woman
16,309304,DepthScenes,duration_manipulation_targetAtFixation,jsons/v1_VE1000_randls_40.json,http://54.235.29.9/FacialAge/BNav_EC2/DepthDuration/v2_depth_duration_MTurk/v2_DepthDuration_HTML.html#13,13,1536,714,1536,864,8-29-2022,13-25-39,17,depth_duration_stimuli/001450_2014-06-19_17-02-03_260595134347_rgbf000203-resize_4/001450_2014-06-19_17-02-03_260595134347_rgbf000203-resize_4-target.png,1000,4.0106666666667,4,5875,1009,feet,jsons/v1_VE1000_randls_40.json,817978,1058483,30,Woman
17,309304,DepthScenes,duration_manipulation_targetAtFixation,jsons/v1_VE1000_randls_40.json,http://54.235.29.9/FacialAge/BNav_EC2/DepthDuration/v2_depth_duration_MTurk/v2_DepthDuration_HTML.html#13,13,1536,714,1536,864,8-29-2022,13-25-39,18,depth_duration_stimuli/000773_2014-06-08_22-24-54_260595134347_rgbf000093-resize_1/000773_2014-06-08_22-24-54_260595134347_rgbf000093-resize_1-target.png,1000,4.973,4,3361,1001,feet,jsons/v1_VE1000_randls_40.json,817978,1058483,30,Woman
18,309304,DepthScenes,duration_manipulation_targetAtFixation,jsons/v1_VE1000_randls_40.json,http://54.235.29.9/FacialAge/BNav_EC2/DepthDuration/v2_depth_duration_MTurk/v2_DepthDuration_HTML.html#13,13,1536,714,1536,864,8-29-2022,13-25-39,19,depth_duration_stimuli/002414_2014-06-28_20-24-58_260595134347_rgbf000067-resize_4/002414_2014-06-28_20-24-58_260595134347_rgbf000067-resize_4-target.png,1000,4.363,5,6186,1010,feet,jsons/v1_VE1000_randls_40.json,817978,1058483,30,Woman
19,309304,DepthScenes,duration_manipulation_targetAtFixation,jsons/v1_VE1000_randls_40.json,http://54.235.29.9/FacialAge/BNav_EC2/DepthDuration/v2_depth_duration_MTurk/v2_DepthDuration_HTML.html#13,13,1536,714,1536,864,8-29-2022,13-25-39,20,depth_duration_stimuli/002748_2014-06-22_19-07-22_094959634447_rgbf000078-resize_1/002748_2014-06-22_19-07-22_094959634447_rgbf000078-resize_1-target.png,1000,4.6705,7,7071,999,feet,jsons/v1_VE1000_randls_40.json,817978,1058483,30,Woman
20,309304,DepthScenes,duration_manipulation_targetAtFixation,jsons/v1_VE1000_randls_40.json,http://54.235.29.9/FacialAge/BNav_EC2/DepthDuration/v2_depth_duration_MTurk/v2_DepthDuration_HTML.html#13,13,1536,714,1536,864,8-29-2022,13-25-39,21,depth_duration_stimuli/002995_2014-06-15_12-31-26_094959634447_rgbf000150-resize_1/002995_2014-06-15_12-31-26_094959634447_rgbf000150-resize_1-target.png,1000,3.8360000000000003,7,3935,992,feet,jsons/v1_VE1000_randls_40.json,817978,1058483,30,Woman
21,309304,DepthScenes,duration_manipulation_targetAtFixation,jsons/v1_VE1000_randls_40.json,http://54.235.29.9/FacialAge/BNav_EC2/DepthDuration/v2_depth_duration_MTurk/v2_DepthDuration_HTML.html#13,13,1536,714,1536,864,8-29-2022,13-25-39,22,depth_duration_stimuli/000917_2014-06-09_22-45-29_260595134347_rgbf000149-resize_3/000917_2014-06-09_22-45-29_260595134347_rgbf000149-resize_3-target.png,1000,4.1865,7,10770,988,feet,jsons/v1_VE1000_randls_40.json,817978,1058483,30,Woman
22,309304,DepthScenes,duration_manipulation_targetAtFixation,jsons/v1_VE1000_randls_40.json,http://54.235.29.9/FacialAge/BNav_EC2/DepthDuration/v2_depth_duration_MTurk/v2_DepthDuration_HTML.html#13,13,1536,714,1536,864,8-29-2022,13-25-39,23,depth_duration_stimuli/002323_2014-06-28_20-01-54_260595134347_rgbf000051-resize_4/002323_2014-06-28_20-01-54_260595134347_rgbf000051-resize_4-target.png,1000,3.7310000000000003,6,8632,1012,feet,jsons/v1_VE1000_randls_40.json,817978,1058483,30,Woman
23,309304,DepthScenes,duration_manipulation_targetAtFixation,jsons/v1_VE1000_randls_40.json,http://54.235.29.9/FacialAge/BNav_EC2/DepthDuration/v2_depth_duration_MTurk/v2_DepthDuration_HTML.html#13,13,1536,714,1536,864,8-29-2022,13-25-39,24,depth_duration_stimuli/002663_2014-06-13_15-50-26_094959634447_rgbf000075-resize_1/002663_2014-06-13_15-50-26_094959634447_rgbf000075-resize_1-target.png,1000,4.7495,6,12082,995,feet,jsons/v1_VE1000_randls_40.json,817978,1058483,30,Woman
24,309304,DepthScenes,duration_manipulation_targetAtFixation,jsons/v1_VE1000_randls_40.json,http://54.235.29.9/FacialAge/BNav_EC2/DepthDuration/v2_depth_duration_MTurk/v2_DepthDuration_HTML.html#13,13,1536,714,1536,864,8-29-2022,13-25-39,25,depth_duration_stimuli/000409_2014-06-04_19-23-33_260595134347_rgbf000067-resize_0/000409_2014-06-04_19-23-33_260595134347_rgbf000067-resize_0-target.png,1000,3.7335,4,4694,986,feet,jsons/v1_VE1000_randls_40.json,817978,1058483,30,Woman
25,309304,DepthScenes,duration_manipulation_targetAtFixation,jsons/v1_VE1000_randls_40.json,http://54.235.29.9/FacialAge/BNav_EC2/DepthDuration/v2_depth_duration_MTurk/v2_DepthDuration_HTML.html#13,13,1536,714,1536,864,8-29-2022,13-25-39,26,depth_duration_stimuli/000758_2014-06-08_22-05-08_260595134347_rgbf000085-resize_0/000758_2014-06-08_22-05-08_260595134347_rgbf000085-resize_0-target.png,1000,3.3810000000000002,5,3976,1002,feet,jsons/v1_VE1000_randls_40.json,817978,1058483,30,Woman
26,309304,DepthScenes,duration_manipulation_targetAtFixation,jsons/v1_VE1000_randls_40.json,http://54.235.29.9/FacialAge/BNav_EC2/DepthDuration/v2_depth_duration_MTurk/v2_DepthDuration_HTML.html#13,13,1536,714,1536,864,8-29-2022,13-25-39,27,depth_duration_stimuli/000854_2014-06-09_19-43-13_260595134347_rgbf000066-resize_0/000854_2014-06-09_19-43-13_260595134347_rgbf000066-resize_0-target.png,1000,3.068,2,3600,991,feet,jsons/v1_VE1000_randls_40.json,817978,1058483,30,Woman
27,309304,DepthScenes,duration_manipulation_targetAtFixation,jsons/v1_VE1000_randls_40.json,http://54.235.29.9/FacialAge/BNav_EC2/DepthDuration/v2_depth_duration_MTurk/v2_DepthDuration_HTML.html#13,13,1536,714,1536,864,8-29-2022,13-25-39,28,depth_duration_stimuli/003292_2014-05-14_21-53-49_094959634447_rgbf000100-resize_2/003292_2014-05-14_21-53-49_094959634447_rgbf000100-resize_2-target.png,1000,3.4815,3,3036,1008,feet,jsons/v1_VE1000_randls_40.json,817978,1058483,30,Woman
28,309304,DepthScenes,duration_manipulation_targetAtFixation,jsons/v1_VE1000_randls_40.json,http://54.235.29.9/FacialAge/BNav_EC2/DepthDuration/v2_depth_duration_MTurk/v2_DepthDuration_HTML.html#13,13,1536,714,1536,864,8-29-2022,13-25-39,29,depth_duration_stimuli/002639_2014-06-24_14-51-37_094959634447_rgbf000074-resize_4/002639_2014-06-24_14-51-37_094959634447_rgbf000074-resize_4-target.png,1000,4.0375,5,5786,995,feet,jsons/v1_VE1000_randls_40.json,817978,1058483,30,Woman
29,309304,DepthScenes,duration_manipulation_targetAtFixation,jsons/v1_VE1000_randls_40.json,http://54.235.29.9/FacialAge/BNav_EC2/DepthDuration/v2_depth_duration_MTurk/v2_DepthDuration_HTML.html#13,13,1536,714,1536,864,8-29-2022,13-25-39,30,depth_duration_stimuli/000375_2014-06-08_11-17-29_260595134347_rgbf000133-resize_2/000375_2014-06-08_11-17-29_260595134347_rgbf000133-resize-original.jpg,1000,4.718,0,3890,1001,feet,jsons/v1_VE1000_randls_40.json,817978,1058483,30,Woman
30,309304,DepthScenes,duration_manipulation_targetAtFixation,jsons/v1_VE1000_randls_40.json,http://54.235.29.9/FacialAge/BNav_EC2/DepthDuration/v2_depth_duration_MTurk/v2_DepthDuration_HTML.html#13,13,1536,714,1536,864,8-29-2022,13-25-39,31,depth_duration_stimuli/003621_2014-05-23_18-06-08_094959634447_rgbf000101-resize_1/003621_2014-05-23_18-06-08_094959634447_rgbf000101-resize_1-target.png,1000,3.9835,4,6418,993,feet,jsons/v1_VE1000_randls_40.json,817978,1058483,30,Woman
31,309304,DepthScenes,duration_manipulation_targetAtFixation,jsons/v1_VE1000_randls_40.json,http://54.235.29.9/FacialAge/BNav_EC2/DepthDuration/v2_depth_duration_MTurk/v2_DepthDuration_HTML.html#13,13,1536,714,1536,864,8-29-2022,13-25-39,32,depth_duration_stimuli/001584_2014-06-20_11-07-43_260595134347_rgbf000002-resize_1/001584_2014-06-20_11-07-43_260595134347_rgbf000002-resize_1-target.png,1000,3.53,1,3710,1000,feet,jsons/v1_VE1000_randls_40.json,817978,1058483,30,Woman
32,309304,DepthScenes,duration_manipulation_targetAtFixation,jsons/v1_VE1000_randls_40.json,http://54.235.29.9/FacialAge/BNav_EC2/DepthDuration/v2_depth_duration_MTurk/v2_DepthDuration_HTML.html#13,13,1536,714,1536,864,8-29-2022,13-25-39,33,depth_duration_stimuli/001029_2014-06-08_13-17-57_260595134347_rgbf000065-resize_1/001029_2014-06-08_13-17-57_260595134347_rgbf000065-resize_1-target.png,1000,3.0835,2,3869,1004,feet,jsons/v1_VE1000_randls_40.json,817978,1058483,30,Woman
33,309304,DepthScenes,duration_manipulation_targetAtFixation,jsons/v1_VE1000_randls_40.json,http://54.235.29.9/FacialAge/BNav_EC2/DepthDuration/v2_depth_duration_MTurk/v2_DepthDuration_HTML.html#13,13,1536,714,1536,864,8-29-2022,13-25-39,34,depth_duration_stimuli/000677_2014-06-08_23-10-32_260595134347_rgbf000158-resize_6/000677_2014-06-08_23-10-32_260595134347_rgbf000158-resize_6-target.png,1000,3.556,4,5468,1002,feet,jsons/v1_VE1000_randls_40.json,817978,1058483,30,Woman
34,309304,DepthScenes,duration_manipulation_targetAtFixation,jsons/v1_VE1000_randls_40.json,http://54.235.29.9/FacialAge/BNav_EC2/DepthDuration/v2_depth_duration_MTurk/v2_DepthDuration_HTML.html#13,13,1536,714,1536,864,8-29-2022,13-25-39,35,depth_duration_stimuli/002118_2014-06-25_20-32-08_260595134347_rgbf000078-resize_1/002118_2014-06-25_20-32-08_260595134347_rgbf000078-resize_1-target.png,1000,2.6460000000000004,3,6110,1010,feet,jsons/v1_VE1000_randls_40.json,817978,1058483,30,Woman
35,309304,DepthScenes,duration_manipulation_targetAtFixation,jsons/v1_VE1000_randls_40.json,http://54.235.29.9/FacialAge/BNav_EC2/DepthDuration/v2_depth_duration_MTurk/v2_DepthDuration_HTML.html#13,13,1536,714,1536,864,8-29-2022,13-25-39,36,depth_duration_stimuli/001516_2014-06-20_16-25-09_260595134347_rgbf000076-resize_2/001516_2014-06-20_16-25-09_260595134347_rgbf000076-resize_2-target.png,1000,1.7445,2,3183,999,feet,jsons/v1_VE1000_randls_40.json,817978,1058483,30,Woman
36,309304,DepthScenes,duration_manipulation_targetAtFixation,jsons/v1_VE1000_randls_40.json,http://54.235.29.9/FacialAge/BNav_EC2/DepthDuration/v2_depth_duration_MTurk/v2_DepthDuration_HTML.html#13,13,1536,714,1536,864,8-29-2022,13-25-39,37,depth_duration_stimuli/001175_2014-06-17_15-45-55_260595134347_rgbf000129-resize_4/001175_2014-06-17_15-45-55_260595134347_rgbf000129-resize_4-target.png,1000,4.255,5,7396,1003,feet,jsons/v1_VE1000_randls_40.json,817978,1058483,30,Woman
37,309304,DepthScenes,duration_manipulation_targetAtFixation,jsons/v1_VE1000_randls_40.json,http://54.235.29.9/FacialAge/BNav_EC2/DepthDuration/v2_depth_duration_MTurk/v2_DepthDuration_HTML.html#13,13,1536,714,1536,864,8-29-2022,13-25-39,38,depth_duration_stimuli/003490_2014-05-21_15-50-11_094959634447_rgbf000101-resize_3/003490_2014-05-21_15-50-11_094959634447_rgbf000101-resize_3-target.png,1000,3.6445,5,4571,994,feet,jsons/v1_VE1000_randls_40.json,817978,1058483,30,Woman
38,309304,DepthScenes,duration_manipulation_targetAtFixation,jsons/v1_VE1000_randls_40.json,http://54.235.29.9/FacialAge/BNav_EC2/DepthDuration/v2_depth_duration_MTurk/v2_DepthDuration_HTML.html#13,13,1536,714,1536,864,8-29-2022,13-25-39,39,depth_duration_stimuli/002989_2014-06-15_12-25-03_094959634447_rgbf000150-resize_3/002989_2014-06-15_12-25-03_094959634447_rgbf000150-resize_3-target.png,1000,4.1975,6,4648,1003,feet,jsons/v1_VE1000_randls_40.json,817978,1058483,30,Woman
39,309304,DepthScenes,duration_manipulation_targetAtFixation,jsons/v1_VE1000_randls_40.json,http://54.235.29.9/FacialAge/BNav_EC2/DepthDuration/v2_depth_duration_MTurk/v2_DepthDuration_HTML.html#13,13,1536,714,1536,864,8-29-2022,13-25-39,40,depth_duration_stimuli/000866_2014-06-09_20-45-42_260595134347_rgbf000139-resize_1/000866_2014-06-09_20-45-42_260595134347_rgbf000139-resize_1-target.png,1000,3.2155,1,4554,1008,feet,jsons/v1_VE1000_randls_40.json,817978,1058483,30,Woman
40,309304,DepthScenes,duration_manipulation_targetAtFixation,jsons/v1_VE1000_randls_40.json,http://54.235.29.9/FacialAge/BNav_EC2/DepthDuration/v2_depth_duration_MTurk/v2_DepthDuration_HTML.html#13,13,1536,714,1536,864,8-29-2022,13-25-39,41,depth_duration_stimuli/001808_2014-06-26_20-50-58_260595134347_rgbf000029-resize_1/001808_2014-06-26_20-50-58_260595134347_rgbf000029-resize_1-target.png,1000,4.249,6,6590,1002,feet,jsons/v1_VE1000_randls_40.json,817978,1058483,30,Woman
41,309304,DepthScenes,duration_manipulation_targetAtFixation,jsons/v1_VE1000_randls_40.json,http://54.235.29.9/FacialAge/BNav_EC2/DepthDuration/v2_depth_duration_MTurk/v2_DepthDuration_HTML.html#13,13,1536,714,1536,864,8-29-2022,13-25-39,42,depth_duration_stimuli/001815_2014-06-26_20-52-55_260595134347_rgbf000020-resize_0/001815_2014-06-26_20-52-55_260595134347_rgbf000020-resize_0-target.png,1000,3.3865,5,4985,1011,feet,jsons/v1_VE1000_randls_40.json,817978,1058483,30,Woman
42,309304,DepthScenes,duration_manipulation_targetAtFixation,jsons/v1_VE1000_randls_40.json,http://54.235.29.9/FacialAge/BNav_EC2/DepthDuration/v2_depth_duration_MTurk/v2_DepthDuration_HTML.html#13,13,1536,714,1536,864,8-29-2022,13-25-39,43,depth_duration_stimuli/000447_2014-06-08_16-15-46_260595134347_rgbf000130-resize_1/000447_2014-06-08_16-15-46_260595134347_rgbf000130-resize_1-target.png,1000,4.479,5,4673,1008,feet,jsons/v1_VE1000_randls_40.json,817978,1058483,30,Woman
43,309304,DepthScenes,duration_manipulation_targetAtFixation,jsons/v1_VE1000_randls_40.json,http://54.235.29.9/FacialAge/BNav_EC2/DepthDuration/v2_depth_duration_MTurk/v2_DepthDuration_HTML.html#13,13,1536,714,1536,864,8-29-2022,13-25-39,44,depth_duration_stimuli/001447_2014-06-19_17-00-32_260595134347_rgbf000082-resize_5/001447_2014-06-19_17-00-32_260595134347_rgbf000082-resize_5-target.png,1000,4.13775,3,5144,1010,feet,jsons/v1_VE1000_randls_40.json,817978,1058483,30,Woman
44,309304,DepthScenes,duration_manipulation_targetAtFixation,jsons/v1_VE1000_randls_40.json,http://54.235.29.9/FacialAge/BNav_EC2/DepthDuration/v2_depth_duration_MTurk/v2_DepthDuration_HTML.html#13,13,1536,714,1536,864,8-29-2022,13-25-39,45,depth_duration_stimuli/000787_2014-06-08_22-33-53_260595134347_rgbf000175-resize_1/000787_2014-06-08_22-33-53_260595134347_rgbf000175-resize-original.jpg,1000,4.784,0,4215,991,feet,jsons/v1_VE1000_randls_40.json,817978,1058483,30,Woman
45,309304,DepthScenes,duration_manipulation_targetAtFixation,jsons/v1_VE1000_randls_40.json,http://54.235.29.9/FacialAge/BNav_EC2/DepthDuration/v2_depth_duration_MTurk/v2_DepthDuration_HTML.html#13,13,1536,714,1536,864,8-29-2022,13-25-39,46,depth_duration_stimuli/001164_2014-06-17_15-35-46_260595134347_rgbf000085-resize_3/001164_2014-06-17_15-35-46_260595134347_rgbf000085-resize_3-target.png,1000,2.354,2,5767,988,feet,jsons/v1_VE1000_randls_40.json,817978,1058483,30,Woman
46,309304,DepthScenes,duration_manipulation_targetAtFixation,jsons/v1_VE1000_randls_40.json,http://54.235.29.9/FacialAge/BNav_EC2/DepthDuration/v2_depth_duration_MTurk/v2_DepthDuration_HTML.html#13,13,1536,714,1536,864,8-29-2022,13-25-39,47,depth_duration_stimuli/001136_2014-06-17_15-19-41_260595134347_rgbf000076-resize_3/001136_2014-06-17_15-19-41_260595134347_rgbf000076-resize_3-target.png,1000,1.8655,2,3310,1001,feet,jsons/v1_VE1000_randls_40.json,817978,1058483,30,Woman
47,309304,DepthScenes,duration_manipulation_targetAtFixation,jsons/v1_VE1000_randls_40.json,http://54.235.29.9/FacialAge/BNav_EC2/DepthDuration/v2_depth_duration_MTurk/v2_DepthDuration_HTML.html#13,13,1536,714,1536,864,8-29-2022,13-25-39,48,depth_duration_stimuli/001555_2014-06-20_17-12-10_260595134347_rgbf000065-resize_4/001555_2014-06-20_17-12-10_260595134347_rgbf000065-resize_4-target.png,1000,1.633,1,3199,997,feet,jsons/v1_VE1000_randls_40.json,817978,1058483,30,Woman
48,309304,DepthScenes,duration_manipulation_targetAtFixation,jsons/v1_VE1000_randls_40.json,http://54.235.29.9/FacialAge/BNav_EC2/DepthDuration/v2_depth_duration_MTurk/v2_DepthDuration_HTML.html#13,13,1536,714,1536,864,8-29-2022,13-25-39,49,depth_duration_stimuli/000103_2014-05-14_22-01-17_260595134347_rgbf000152-resize_5/000103_2014-05-14_22-01-17_260595134347_rgbf000152-resize_5-target.png,1000,1.993,3,3937,998,feet,jsons/v1_VE1000_randls_40.json,817978,1058483,30,Woman
49,309304,DepthScenes,duration_manipulation_targetAtFixation,jsons/v1_VE1000_randls_40.json,http://54.235.29.9/FacialAge/BNav_EC2/DepthDuration/v2_depth_duration_MTurk/v2_DepthDuration_HTML.html#13,13,1536,714,1536,864,8-29-2022,13-25-39,50,depth_duration_stimuli/001158_2014-06-17_15-32-16_260595134347_rgbf000138-resize_2/001158_2014-06-17_15-32-16_260595134347_rgbf000138-resize_2-target.png,1000,4.5315,6,10275,992,feet,jsons/v1_VE1000_randls_40.json,817978,1058483,30,Woman
50,309304,DepthScenes,duration_manipulation_targetAtFixation,jsons/v1_VE1000_randls_40.json,http://54.235.29.9/FacialAge/BNav_EC2/DepthDuration/v2_depth_duration_MTurk/v2_DepthDuration_HTML.html#13,13,1536,714,1536,864,8-29-2022,13-25-39,51,depth_duration_stimuli/000556_2014-06-09_22-42-56_260595134347_rgbf000214-resize_1/000556_2014-06-09_22-42-56_260595134347_rgbf000214-resize_1-target.png,1000,4.8415,4,4858,999,feet,jsons/v1_VE1000_randls_40.json,817978,1058483,30,Woman
51,309304,DepthScenes,duration_manipulation_targetAtFixation,jsons/v1_VE1000_randls_40.json,http://54.235.29.9/FacialAge/BNav_EC2/DepthDuration/v2_depth_duration_MTurk/v2_DepthDuration_HTML.html#13,13,1536,714,1536,864,8-29-2022,13-25-39,52,depth_duration_stimuli/002725_2014-06-22_11-47-51_094959634447_rgbf000070-resize_1/002725_2014-06-22_11-47-51_094959634447_rgbf000070-resize_1-target.png,1000,2.195,2,6252,993,feet,jsons/v1_VE1000_randls_40.json,817978,1058483,30,Woman
52,309304,DepthScenes,duration_manipulation_targetAtFixation,jsons/v1_VE1000_randls_40.json,http://54.235.29.9/FacialAge/BNav_EC2/DepthDuration/v2_depth_duration_MTurk/v2_DepthDuration_HTML.html#13,13,1536,714,1536,864,8-29-2022,13-25-39,53,depth_duration_stimuli/002344_2014-06-28_20-06-29_260595134347_rgbf000030-resize_1/002344_2014-06-28_20-06-29_260595134347_rgbf000030-resize_1-target.png,1000,1.5795,1,3187,993,feet,jsons/v1_VE1000_randls_40.json,817978,1058483,30,Woman
53,309304,DepthScenes,duration_manipulation_targetAtFixation,jsons/v1_VE1000_randls_40.json,http://54.235.29.9/FacialAge/BNav_EC2/DepthDuration/v2_depth_duration_MTurk/v2_DepthDuration_HTML.html#13,13,1536,714,1536,864,8-29-2022,13-25-39,54,depth_duration_stimuli/000414_2014-06-04_19-49-13_260595134347_rgbf000044-resize_0/000414_2014-06-04_19-49-13_260595134347_rgbf000044-resize_0-target.png,1000,4.329,8,5569,1003,feet,jsons/v1_VE1000_randls_40.json,817978,1058483,30,Woman
54,309304,DepthScenes,duration_manipulation_targetAtFixation,jsons/v1_VE1000_randls_40.json,http://54.235.29.9/FacialAge/BNav_EC2/DepthDuration/v2_depth_duration_MTurk/v2_DepthDuration_HTML.html#13,13,1536,714,1536,864,8-29-2022,13-25-39,55,depth_duration_stimuli/003129_2014-05-12_10-48-10_094959634447_rgbf000100-resize_0/003129_2014-05-12_10-48-10_094959634447_rgbf000100-resize_0-target.png,1000,4.9305,5,4879,996,feet,jsons/v1_VE1000_randls_40.json,817978,1058483,30,Woman
55,309304,DepthScenes,duration_manipulation_targetAtFixation,jsons/v1_VE1000_randls_40.json,http://54.235.29.9/FacialAge/BNav_EC2/DepthDuration/v2_depth_duration_MTurk/v2_DepthDuration_HTML.html#13,13,1536,714,1536,864,8-29-2022,13-25-39,56,depth_duration_stimuli/002043_2014-06-24_20-29-38_260595134347_rgbf000039-resize_4/002043_2014-06-24_20-29-38_260595134347_rgbf000039-resize_4-target.png,1000,2.8435,4,3920,997,feet,jsons/v1_VE1000_randls_40.json,817978,1058483,30,Woman
56,309304,DepthScenes,duration_manipulation_targetAtFixation,jsons/v1_VE1000_randls_40.json,http://54.235.29.9/FacialAge/BNav_EC2/DepthDuration/v2_depth_duration_MTurk/v2_DepthDuration_HTML.html#13,13,1536,714,1536,864,8-29-2022,13-25-39,57,depth_duration_stimuli/003048_2014-06-15_13-49-43_094959634447_rgbf000150-resize_1/003048_2014-06-15_13-49-43_094959634447_rgbf000150-resize_1-target.png,1000,4.0035,6,3866,1005,feet,jsons/v1_VE1000_randls_40.json,817978,1058483,30,Woman
57,309304,DepthScenes,duration_manipulation_targetAtFixation,jsons/v1_VE1000_randls_40.json,http://54.235.29.9/FacialAge/BNav_EC2/DepthDuration/v2_depth_duration_MTurk/v2_DepthDuration_HTML.html#13,13,1536,714,1536,864,8-29-2022,13-25-39,58,depth_duration_stimuli/002272_2014-06-28_18-53-56_260595134347_rgbf000067-resize_2/002272_2014-06-28_18-53-56_260595134347_rgbf000067-resize_2-target.png,1000,1.138,1,4051,996,feet,jsons/v1_VE1000_randls_40.json,817978,1058483,30,Woman
58,309304,DepthScenes,duration_manipulation_targetAtFixation,jsons/v1_VE1000_randls_40.json,http://54.235.29.9/FacialAge/BNav_EC2/DepthDuration/v2_depth_duration_MTurk/v2_DepthDuration_HTML.html#13,13,1536,714,1536,864,8-29-2022,13-25-39,59,depth_duration_stimuli/001571_2014-06-20_17-21-32_260595134347_rgbf000089-resize_1/001571_2014-06-20_17-21-32_260595134347_rgbf000089-resize_1-target.png,1000,1.86,1,3230,1002,feet,jsons/v1_VE1000_randls_40.json,817978,1058483,30,Woman
59,309304,DepthScenes,duration_manipulation_targetAtFixation,jsons/v1_VE1000_randls_40.json,http://54.235.29.9/FacialAge/BNav_EC2/DepthDuration/v2_depth_duration_MTurk/v2_DepthDuration_HTML.html#13,13,1536,714,1536,864,8-29-2022,13-25-39,60,depth_duration_stimuli/002763_2014-06-22_19-13-10_094959634447_rgbf000075-resize_4/002763_2014-06-22_19-13-10_094959634447_rgbf000075-resize_4-target.png,1000,1.68375,2,2903,989,feet,jsons/v1_VE1000_randls_40.json,817978,1058483,30,Woman
60,309304,DepthScenes,duration_manipulation_targetAtFixation,jsons/v1_VE1000_randls_40.json,http://54.235.29.9/FacialAge/BNav_EC2/DepthDuration/v2_depth_duration_MTurk/v2_DepthDuration_HTML.html#13,13,1536,714,1536,864,8-29-2022,13-25-39,61,depth_duration_stimuli/002209_2014-06-28_18-36-10_260595134347_rgbf000051-resize_1/002209_2014-06-28_18-36-10_260595134347_rgbf000051-resize_1-target.png,1000,2.057,1,4011,996,feet,jsons/v1_VE1000_randls_40.json,817978,1058483,30,Woman
61,309304,DepthScenes,duration_manipulation_targetAtFixation,jsons/v1_VE1000_randls_40.json,http://54.235.29.9/FacialAge/BNav_EC2/DepthDuration/v2_depth_duration_MTurk/v2_DepthDuration_HTML.html#13,13,1536,714,1536,864,8-29-2022,13-25-39,62,depth_duration_stimuli/000682_2014-06-08_23-14-58_260595134347_rgbf000041-resize_5/000682_2014-06-08_23-14-58_260595134347_rgbf000041-resize_5-target.png,1000,2.7239999999999998,3,4014,1008,feet,jsons/v1_VE1000_randls_40.json,817978,1058483,30,Woman
62,309304,DepthScenes,duration_manipulation_targetAtFixation,jsons/v1_VE1000_randls_40.json,http://54.235.29.9/FacialAge/BNav_EC2/DepthDuration/v2_depth_duration_MTurk/v2_DepthDuration_HTML.html#13,13,1536,714,1536,864,8-29-2022,13-25-39,63,depth_duration_stimuli/001650_2014-06-20_12-09-00_260595134347_rgbf000087-resize_3/001650_2014-06-20_12-09-00_260595134347_rgbf000087-resize_3-target.png,1000,1.9505,1,3787,999,feet,jsons/v1_VE1000_randls_40.json,817978,1058483,30,Woman
63,309304,DepthScenes,duration_manipulation_targetAtFixation,jsons/v1_VE1000_randls_40.json,http://54.235.29.9/FacialAge/BNav_EC2/DepthDuration/v2_depth_duration_MTurk/v2_DepthDuration_HTML.html#13,13,1536,714,1536,864,8-29-2022,13-25-39,64,depth_duration_stimuli/001570_2014-06-20_17-21-09_260595134347_rgbf000135-resize_4/001570_2014-06-20_17-21-09_260595134347_rgbf000135-resize_4-target.png,1000,4.467,4,4768,998,feet,jsons/v1_VE1000_randls_40.json,817978,1058483,30,Woman
64,309304,DepthScenes,duration_manipulation_targetAtFixation,jsons/v1_VE1000_randls_40.json,http://54.235.29.9/FacialAge/BNav_EC2/DepthDuration/v2_depth_duration_MTurk/v2_DepthDuration_HTML.html#13,13,1536,714,1536,864,8-29-2022,13-25-39,65,depth_duration_stimuli/001392_2014-06-19_16-07-59_260595134347_rgbf000046-resize_1/001392_2014-06-19_16-07-59_260595134347_rgbf000046-resize_1-target.png,1000,4.135,3,6786,1010,feet,jsons/v1_VE1000_randls_40.json,817978,1058483,30,Woman
65,309304,DepthScenes,duration_manipulation_targetAtFixation,jsons/v1_VE1000_randls_40.json,http://54.235.29.9/FacialAge/BNav_EC2/DepthDuration/v2_depth_duration_MTurk/v2_DepthDuration_HTML.html#13,13,1536,714,1536,864,8-29-2022,13-25-39,66,depth_duration_stimuli/001222_2014-06-17_16-24-06_260595134347_rgbf000073-resize_0/001222_2014-06-17_16-24-06_260595134347_rgbf000073-resize-original.jpg,1000,1.4385,0,4566,1005,feet,jsons/v1_VE1000_randls_40.json,817978,1058483,30,Woman
66,309304,DepthScenes,duration_manipulation_targetAtFixation,jsons/v1_VE1000_randls_40.json,http://54.235.29.9/FacialAge/BNav_EC2/DepthDuration/v2_depth_duration_MTurk/v2_DepthDuration_HTML.html#13,13,1536,714,1536,864,8-29-2022,13-25-39,67,depth_duration_stimuli/002279_2014-06-28_18-55-32_260595134347_rgbf000040-resize_5/002279_2014-06-28_18-55-32_260595134347_rgbf000040-resize_5-target.png,1000,1.5043333333333,1,3640,999,feet,jsons/v1_VE1000_randls_40.json,817978,1058483,30,Woman
67,309304,DepthScenes,duration_manipulation_targetAtFixation,jsons/v1_VE1000_randls_40.json,http://54.235.29.9/FacialAge/BNav_EC2/DepthDuration/v2_depth_duration_MTurk/v2_DepthDuration_HTML.html#13,13,1536,714,1536,864,8-29-2022,13-25-39,68,depth_duration_stimuli/000635_2014-06-08_16-38-42_260595134347_rgbf000106-resize_1/000635_2014-06-08_16-38-42_260595134347_rgbf000106-resize_1-target.png,1000,2.074,3,3866,996,feet,jsons/v1_VE1000_randls_40.json,817978,1058483,30,Woman
68,309304,DepthScenes,duration_manipulation_targetAtFixation,jsons/v1_VE1000_randls_40.json,http://54.235.29.9/FacialAge/BNav_EC2/DepthDuration/v2_depth_duration_MTurk/v2_DepthDuration_HTML.html#13,13,1536,714,1536,864,8-29-2022,13-25-39,69,depth_duration_stimuli/001150_2014-06-17_15-27-34_260595134347_rgbf000108-resize_2/001150_2014-06-17_15-27-34_260595134347_rgbf000108-resize_2-target.png,1000,4.0325,3,3332,998,feet,jsons/v1_VE1000_randls_40.json,817978,1058483,30,Woman
69,309304,DepthScenes,duration_manipulation_targetAtFixation,jsons/v1_VE1000_randls_40.json,http://54.235.29.9/FacialAge/BNav_EC2/DepthDuration/v2_depth_duration_MTurk/v2_DepthDuration_HTML.html#13,13,1536,714,1536,864,8-29-2022,13-25-39,70,depth_duration_stimuli/000665_2014-06-09_20-42-35_260595134347_rgbf000110-resize_1/000665_2014-06-09_20-42-35_260595134347_rgbf000110-resize_1-target.png,1000,3.057,2,5846,992,feet,jsons/v1_VE1000_randls_40.json,817978,1058483,30,Woman
70,309304,DepthScenes,duration_manipulation_targetAtFixation,jsons/v1_VE1000_randls_40.json,http://54.235.29.9/FacialAge/BNav_EC2/DepthDuration/v2_depth_duration_MTurk/v2_DepthDuration_HTML.html#13,13,1536,714,1536,864,8-29-2022,13-25-39,71,depth_duration_stimuli/002630_2014-06-24_14-47-50_094959634447_rgbf000055-resize_1/002630_2014-06-24_14-47-50_094959634447_rgbf000055-resize_1-target.png,1000,3.0095,3,5135,991,feet,jsons/v1_VE1000_randls_40.json,817978,1058483,30,Woman
71,309304,DepthScenes,duration_manipulation_targetAtFixation,jsons/v1_VE1000_randls_40.json,http://54.235.29.9/FacialAge/BNav_EC2/DepthDuration/v2_depth_duration_MTurk/v2_DepthDuration_HTML.html#13,13,1536,714,1536,864,8-29-2022,13-25-39,72,depth_duration_stimuli/002758_2014-06-22_19-11-20_094959634447_rgbf000128-resize_1/002758_2014-06-22_19-11-20_094959634447_rgbf000128-resize_1-target.png,1000,2.555,2,2663,1010,feet,jsons/v1_VE1000_randls_40.json,817978,1058483,30,Woman
72,309304,DepthScenes,duration_manipulation_targetAtFixation,jsons/v1_VE1000_randls_40.json,http://54.235.29.9/FacialAge/BNav_EC2/DepthDuration/v2_depth_duration_MTurk/v2_DepthDuration_HTML.html#13,13,1536,714,1536,864,8-29-2022,13-25-39,73,depth_duration_stimuli/000810_2014-06-08_17-20-01_260595134347_rgbf000105-resize_0/000810_2014-06-08_17-20-01_260595134347_rgbf000105-resize_0-target.png,1000,1.4865,2,2789,997,feet,jsons/v1_VE1000_randls_40.json,817978,1058483,30,Woman
73,309304,DepthScenes,duration_manipulation_targetAtFixation,jsons/v1_VE1000_randls_40.json,http://54.235.29.9/FacialAge/BNav_EC2/DepthDuration/v2_depth_duration_MTurk/v2_DepthDuration_HTML.html#13,13,1536,714,1536,864,8-29-2022,13-25-39,74,depth_duration_stimuli/001214_2014-06-17_16-13-55_260595134347_rgbf000111-resize_0/001214_2014-06-17_16-13-55_260595134347_rgbf000111-resize_0-target.png,1000,2.6505,2,2666,997,feet,jsons/v1_VE1000_randls_40.json,817978,1058483,30,Woman
74,309304,DepthScenes,duration_manipulation_targetAtFixation,jsons/v1_VE1000_randls_40.json,http://54.235.29.9/FacialAge/BNav_EC2/DepthDuration/v2_depth_duration_MTurk/v2_DepthDuration_HTML.html#13,13,1536,714,1536,864,8-29-2022,13-25-39,75,depth_duration_stimuli/002988_2014-06-15_12-24-20_094959634447_rgbf000150-resize_1/002988_2014-06-15_12-24-20_094959634447_rgbf000150-resize_1-target.png,1000,4.7669999999999995,6,4489,1011,feet,jsons/v1_VE1000_randls_40.json,817978,1058483,30,Woman
75,309304,DepthScenes,duration_manipulation_targetAtFixation,jsons/v1_VE1000_randls_40.json,http://54.235.29.9/FacialAge/BNav_EC2/DepthDuration/v2_depth_duration_MTurk/v2_DepthDuration_HTML.html#13,13,1536,714,1536,864,8-29-2022,13-25-39,76,depth_duration_stimuli/001052_2014-06-08_18-24-54_260595134347_rgbf000130-resize_1/001052_2014-06-08_18-24-54_260595134347_rgbf000130-resize_1-target.png,1000,4.1045,5,5862,1001,feet,jsons/v1_VE1000_randls_40.json,817978,1058483,30,Woman
76,309304,DepthScenes,duration_manipulation_targetAtFixation,jsons/v1_VE1000_randls_40.json,http://54.235.29.9/FacialAge/BNav_EC2/DepthDuration/v2_depth_duration_MTurk/v2_DepthDuration_HTML.html#13,13,1536,714,1536,864,8-29-2022,13-25-39,77,depth_duration_stimuli/002600_2014-06-24_14-27-04_094959634447_rgbf000074-resize_2/002600_2014-06-24_14-27-04_094959634447_rgbf000074-resize_2-target.png,1000,2.7575,3,3892,1000,feet,jsons/v1_VE1000_randls_40.json,817978,1058483,30,Woman
77,309304,DepthScenes,duration_manipulation_targetAtFixation,jsons/v1_VE1000_randls_40.json,http://54.235.29.9/FacialAge/BNav_EC2/DepthDuration/v2_depth_duration_MTurk/v2_DepthDuration_HTML.html#13,13,1536,714,1536,864,8-29-2022,13-25-39,78,depth_duration_stimuli/003228_2014-05-14_13-42-35_094959634447_rgbf000101-resize_1/003228_2014-05-14_13-42-35_094959634447_rgbf000101-resize_1-target.png,1000,1.9680000000000002,2,3406,990,feet,jsons/v1_VE1000_randls_40.json,817978,1058483,30,Woman
78,309304,DepthScenes,duration_manipulation_targetAtFixation,jsons/v1_VE1000_randls_40.json,http://54.235.29.9/FacialAge/BNav_EC2/DepthDuration/v2_depth_duration_MTurk/v2_DepthDuration_HTML.html#13,13,1536,714,1536,864,8-29-2022,13-25-39,79,depth_duration_stimuli/001055_2014-06-08_18-45-35_260595134347_rgbf000111-resize_4/001055_2014-06-08_18-45-35_260595134347_rgbf000111-resize_4-target.png,1000,2.4290000000000003,4,5519,1006,feet,jsons/v1_VE1000_randls_40.json,817978,1058483,30,Woman
79,309304,DepthScenes,duration_manipulation_targetAtFixation,jsons/v1_VE1000_randls_40.json,http://54.235.29.9/FacialAge/BNav_EC2/DepthDuration/v2_depth_duration_MTurk/v2_DepthDuration_HTML.html#13,13,1536,714,1536,864,8-29-2022,13-25-39,80,depth_duration_stimuli/000549_2014-06-08_22-10-24_260595134347_rgbf000247-resize_3/000549_2014-06-08_22-10-24_260595134347_rgbf000247-resize_3-target.png,1000,1.841,1,2545,986,feet,jsons/v1_VE1000_randls_40.json,817978,1058483,30,Woman
80,309304,DepthScenes,duration_manipulation_targetAtFixation,jsons/v1_VE1000_randls_40.json,http://54.235.29.9/FacialAge/BNav_EC2/DepthDuration/v2_depth_duration_MTurk/v2_DepthDuration_HTML.html#13,13,1536,714,1536,864,8-29-2022,13-25-39,81,depth_duration_stimuli/000788_2014-06-08_22-34-36_260595134347_rgbf000131-resize_1/000788_2014-06-08_22-34-36_260595134347_rgbf000131-resize_1-target.png,1000,3.359,3,4107,1006,feet,jsons/v1_VE1000_randls_40.json,817978,1058483,30,Woman
81,309304,DepthScenes,duration_manipulation_targetAtFixation,jsons/v1_VE1000_randls_40.json,http://54.235.29.9/FacialAge/BNav_EC2/DepthDuration/v2_depth_duration_MTurk/v2_DepthDuration_HTML.html#13,13,1536,714,1536,864,8-29-2022,13-25-39,82,depth_duration_stimuli/001235_2014-06-17_16-37-36_260595134347_rgbf000084-resize_4/001235_2014-06-17_16-37-36_260595134347_rgbf000084-resize_4-target.png,1000,3.6605,2,2786,998,feet,jsons/v1_VE1000_randls_40.json,817978,1058483,30,Woman
82,309304,DepthScenes,duration_manipulation_targetAtFixation,jsons/v1_VE1000_randls_40.json,http://54.235.29.9/FacialAge/BNav_EC2/DepthDuration/v2_depth_duration_MTurk/v2_DepthDuration_HTML.html#13,13,1536,714,1536,864,8-29-2022,13-25-39,83,depth_duration_stimuli/000739_2014-06-08_18-45-58_260595134347_rgbf000068-resize_1/000739_2014-06-08_18-45-58_260595134347_rgbf000068-resize_1-target.png,1000,3.534,4,2760,1012,feet,jsons/v1_VE1000_randls_40.json,817978,1058483,30,Woman
83,309304,DepthScenes,duration_manipulation_targetAtFixation,jsons/v1_VE1000_randls_40.json,http://54.235.29.9/FacialAge/BNav_EC2/DepthDuration/v2_depth_duration_MTurk/v2_DepthDuration_HTML.html#13,13,1536,714,1536,864,8-29-2022,13-25-39,84,depth_duration_stimuli/000734_2014-06-08_17-39-11_260595134347_rgbf000128-resize_2/000734_2014-06-08_17-39-11_260595134347_rgbf000128-resize_2-target.png,1000,4.098,2,2776,987,feet,jsons/v1_VE1000_randls_40.json,817978,1058483,30,Woman
84,309304,DepthScenes,duration_manipulation_targetAtFixation,jsons/v1_VE1000_randls_40.json,http://54.235.29.9/FacialAge/BNav_EC2/DepthDuration/v2_depth_duration_MTurk/v2_DepthDuration_HTML.html#13,13,1536,714,1536,864,8-29-2022,13-25-39,85,depth_duration_stimuli/001810_2014-06-26_20-51-35_260595134347_rgbf000040-resize_3/001810_2014-06-26_20-51-35_260595134347_rgbf000040-resize_3-target.png,1000,2.2525,1,3854,990,feet,jsons/v1_VE1000_randls_40.json,817978,1058483,30,Woman
85,309304,DepthScenes,duration_manipulation_targetAtFixation,jsons/v1_VE1000_randls_40.json,http://54.235.29.9/FacialAge/BNav_EC2/DepthDuration/v2_depth_duration_MTurk/v2_DepthDuration_HTML.html#13,13,1536,714,1536,864,8-29-2022,13-25-39,86,depth_duration_stimuli/003010_2014-06-15_12-54-35_094959634447_rgbf000112-resize_0/003010_2014-06-15_12-54-35_094959634447_rgbf000112-resize_0-target.png,1000,3.1185,6,4236,998,feet,jsons/v1_VE1000_randls_40.json,817978,1058483,30,Woman
86,309304,DepthScenes,duration_manipulation_targetAtFixation,jsons/v1_VE1000_randls_40.json,http://54.235.29.9/FacialAge/BNav_EC2/DepthDuration/v2_depth_duration_MTurk/v2_DepthDuration_HTML.html#13,13,1536,714,1536,864,8-29-2022,13-25-39,87,depth_duration_stimuli/001016_2014-06-09_16-16-10_260595134347_rgbf000112-resize_5/001016_2014-06-09_16-16-10_260595134347_rgbf000112-resize_5-target.png,1000,1.6565,2,8164,1003,feet,jsons/v1_VE1000_randls_40.json,817978,1058483,30,Woman
87,309304,DepthScenes,duration_manipulation_targetAtFixation,jsons/v1_VE1000_randls_40.json,http://54.235.29.9/FacialAge/BNav_EC2/DepthDuration/v2_depth_duration_MTurk/v2_DepthDuration_HTML.html#13,13,1536,714,1536,864,8-29-2022,13-25-39,88,depth_duration_stimuli/002340_2014-06-28_20-05-46_260595134347_rgbf000113-resize_0/002340_2014-06-28_20-05-46_260595134347_rgbf000113-resize_0-target.png,1000,2.4735,7,4438,993,feet,jsons/v1_VE1000_randls_40.json,817978,1058483,30,Woman
88,309304,DepthScenes,duration_manipulation_targetAtFixation,jsons/v1_VE1000_randls_40.json,http://54.235.29.9/FacialAge/BNav_EC2/DepthDuration/v2_depth_duration_MTurk/v2_DepthDuration_HTML.html#13,13,1536,714,1536,864,8-29-2022,13-25-39,89,depth_duration_stimuli/001059_2014-06-08_21-53-27_260595134347_rgbf000061-resize_4/001059_2014-06-08_21-53-27_260595134347_rgbf000061-resize_4-target.png,1000,2.4185,3,4603,998,feet,jsons/v1_VE1000_randls_40.json,817978,1058483,30,Woman
89,309304,DepthScenes,duration_manipulation_targetAtFixation,jsons/v1_VE1000_randls_40.json,http://54.235.29.9/FacialAge/BNav_EC2/DepthDuration/v2_depth_duration_MTurk/v2_DepthDuration_HTML.html#13,13,1536,714,1536,864,8-29-2022,13-25-39,90,depth_duration_stimuli/001032_2014-06-08_13-23-17_260595134347_rgbf000021-resize_3/001032_2014-06-08_13-23-17_260595134347_rgbf000021-resize_3-target.png,1000,3.2725,5,6942,997,feet,jsons/v1_VE1000_randls_40.json,817978,1058483,30,Woman
90,309304,DepthScenes,duration_manipulation_targetAtFixation,jsons/v1_VE1000_randls_40.json,http://54.235.29.9/FacialAge/BNav_EC2/DepthDuration/v2_depth_duration_MTurk/v2_DepthDuration_HTML.html#13,13,1536,714,1536,864,8-29-2022,13-25-39,91,depth_duration_stimuli/003492_2014-05-21_15-50-55_094959634447_rgbf000828-resize_1/003492_2014-05-21_15-50-55_094959634447_rgbf000828-resize_1-target.png,1000,4.06875,6,5054,996,feet,jsons/v1_VE1000_randls_40.json,817978,1058483,30,Woman
91,309304,DepthScenes,duration_manipulation_targetAtFixation,jsons/v1_VE1000_randls_40.json,http://54.235.29.9/FacialAge/BNav_EC2/DepthDuration/v2_depth_duration_MTurk/v2_DepthDuration_HTML.html#13,13,1536,714,1536,864,8-29-2022,13-25-39,92,depth_duration_stimuli/002568_2014-06-24_13-59-21_094959634447_rgbf000062-resize_4/002568_2014-06-24_13-59-21_094959634447_rgbf000062-resize_4-target.png,1000,3.015,4,3605,1014,feet,jsons/v1_VE1000_randls_40.json,817978,1058483,30,Woman
92,309304,DepthScenes,duration_manipulation_targetAtFixation,jsons/v1_VE1000_randls_40.json,http://54.235.29.9/FacialAge/BNav_EC2/DepthDuration/v2_depth_duration_MTurk/v2_DepthDuration_HTML.html#13,13,1536,714,1536,864,8-29-2022,13-25-39,93,depth_duration_stimuli/001167_2014-06-17_15-38-07_260595134347_rgbf000108-resize_0/001167_2014-06-17_15-38-07_260595134347_rgbf000108-resize_0-target.png,1000,1.8505,1,2866,987,feet,jsons/v1_VE1000_randls_40.json,817978,1058483,30,Woman
93,309304,DepthScenes,duration_manipulation_targetAtFixation,jsons/v1_VE1000_randls_40.json,http://54.235.29.9/FacialAge/BNav_EC2/DepthDuration/v2_depth_duration_MTurk/v2_DepthDuration_HTML.html#13,13,1536,714,1536,864,8-29-2022,13-25-39,94,depth_duration_stimuli/003587_2014-05-23_16-48-02_094959634447_rgbf002384-resize_2/003587_2014-05-23_16-48-02_094959634447_rgbf002384-resize_2-target.png,1000,1.357,1,4226,984,feet,jsons/v1_VE1000_randls_40.json,817978,1058483,30,Woman
94,309304,DepthScenes,duration_manipulation_targetAtFixation,jsons/v1_VE1000_randls_40.json,http://54.235.29.9/FacialAge/BNav_EC2/DepthDuration/v2_depth_duration_MTurk/v2_DepthDuration_HTML.html#13,13,1536,714,1536,864,8-29-2022,13-25-39,95,depth_duration_stimuli/002964_2014-06-08_17-46-11_094959634447_rgbf000091-resize_4/002964_2014-06-08_17-46-11_094959634447_rgbf000091-resize_4-target.png,1000,1.6909999999999998,1,2848,1001,feet,jsons/v1_VE1000_randls_40.json,817978,1058483,30,Woman
95,309304,DepthScenes,duration_manipulation_targetAtFixation,jsons/v1_VE1000_randls_40.json,http://54.235.29.9/FacialAge/BNav_EC2/DepthDuration/v2_depth_duration_MTurk/v2_DepthDuration_HTML.html#13,13,1536,714,1536,864,8-29-2022,13-25-39,96,depth_duration_stimuli/002136_2014-06-25_21-18-03_260595134347_rgbf000109-resize_3/002136_2014-06-25_21-18-03_260595134347_rgbf000109-resize_3-target.png,1000,1.9569999999999999,2,4837,993,feet,jsons/v1_VE1000_randls_40.json,817978,1058483,30,Woman
96,309304,DepthScenes,duration_manipulation_targetAtFixation,jsons/v1_VE1000_randls_40.json,http://54.235.29.9/FacialAge/BNav_EC2/DepthDuration/v2_depth_duration_MTurk/v2_DepthDuration_HTML.html#13,13,1536,714,1536,864,8-29-2022,13-25-39,97,depth_duration_stimuli/000929_2014-06-09_16-33-19_260595134347_rgbf000139-resize_0/000929_2014-06-09_16-33-19_260595134347_rgbf000139-resize_0-target.png,1000,2.8680000000000003,4,3464,994,feet,jsons/v1_VE1000_randls_40.json,817978,1058483,30,Woman
97,309304,DepthScenes,duration_manipulation_targetAtFixation,jsons/v1_VE1000_randls_40.json,http://54.235.29.9/FacialAge/BNav_EC2/DepthDuration/v2_depth_duration_MTurk/v2_DepthDuration_HTML.html#13,13,1536,714,1536,864,8-29-2022,13-25-39,98,depth_duration_stimuli/000457_2014-06-08_16-52-43_260595134347_rgbf000199-resize_1/000457_2014-06-08_16-52-43_260595134347_rgbf000199-resize_1-target.png,1000,3.6489999999999996,4,3485,1001,feet,jsons/v1_VE1000_randls_40.json,817978,1058483,30,Woman
98,309304,DepthScenes,duration_manipulation_targetAtFixation,jsons/v1_VE1000_randls_40.json,http://54.235.29.9/FacialAge/BNav_EC2/DepthDuration/v2_depth_duration_MTurk/v2_DepthDuration_HTML.html#13,13,1536,714,1536,864,8-29-2022,13-25-39,99,depth_duration_stimuli/001540_2014-06-20_17-01-05_260595134347_rgbf000086-resize_2/001540_2014-06-20_17-01-05_260595134347_rgbf000086-resize-original.jpg,1000,1.459,0,3618,1014,feet,jsons/v1_VE1000_randls_40.json,817978,1058483,30,Woman
99,309304,DepthScenes,duration_manipulation_targetAtFixation,jsons/v1_VE1000_randls_40.json,http://54.235.29.9/FacialAge/BNav_EC2/DepthDuration/v2_depth_duration_MTurk/v2_DepthDuration_HTML.html#13,13,1536,714,1536,864,8-29-2022,13-25-39,100,depth_duration_stimuli/000642_2014-06-08_16-59-25_260595134347_rgbf000098-resize_2/000642_2014-06-08_16-59-25_260595134347_rgbf000098-resize_2-target.png,1000,2.8815,4,3117,1005,feet,jsons/v1_VE1000_randls_40.json,817978,1058483,30,Woman
100,309304,DepthScenes,duration_manipulation_targetAtFixation,jsons/v1_VE1000_randls_40.json,http://54.235.29.9/FacialAge/BNav_EC2/DepthDuration/v2_depth_duration_MTurk/v2_DepthDuration_HTML.html#13,13,1536,714,1536,864,8-29-2022,13-25-39,101,depth_duration_stimuli/002425_2014-06-28_20-27-29_260595134347_rgbf000031-resize_8/002425_2014-06-28_20-27-29_260595134347_rgbf000031-resize_8-target.png,1000,3.8960000000000004,5,4723,1000,feet,jsons/v1_VE1000_randls_40.json,817978,1058483,30,Woman
101,309304,DepthScenes,duration_manipulation_targetAtFixation,jsons/v1_VE1000_randls_40.json,http://54.235.29.9/FacialAge/BNav_EC2/DepthDuration/v2_depth_duration_MTurk/v2_DepthDuration_HTML.html#13,13,1536,714,1536,864,8-29-2022,13-25-39,102,depth_duration_stimuli/000368_2014-06-09_15-53-01_260595134347_rgbf000155-resize_2/000368_2014-06-09_15-53-01_260595134347_rgbf000155-resize_2-target.png,1000,2.4859999999999998,2,4502,1009,feet,jsons/v1_VE1000_randls_40.json,817978,1058483,30,Woman
102,309304,DepthScenes,duration_manipulation_targetAtFixation,jsons/v1_VE1000_randls_40.json,http://54.235.29.9/FacialAge/BNav_EC2/DepthDuration/v2_depth_duration_MTurk/v2_DepthDuration_HTML.html#13,13,1536,714,1536,864,8-29-2022,13-25-39,103,depth_duration_stimuli/002678_2014-06-13_16-15-32_094959634447_rgbf000151-resize_6/002678_2014-06-13_16-15-32_094959634447_rgbf000151-resize_6-target.png,1000,2.1830000000000003,3,4738,996,feet,jsons/v1_VE1000_randls_40.json,817978,1058483,30,Woman
103,309304,DepthScenes,duration_manipulation_targetAtFixation,jsons/v1_VE1000_randls_40.json,http://54.235.29.9/FacialAge/BNav_EC2/DepthDuration/v2_depth_duration_MTurk/v2_DepthDuration_HTML.html#13,13,1536,714,1536,864,8-29-2022,13-25-39,104,depth_duration_stimuli/000736_2014-06-08_18-24-15_260595134347_rgbf000206-resize_3/000736_2014-06-08_18-24-15_260595134347_rgbf000206-resize_3-target.png,1000,3.515,4,3371,996,feet,jsons/v1_VE1000_randls_40.json,817978,1058483,30,Woman
104,309304,DepthScenes,duration_manipulation_targetAtFixation,jsons/v1_VE1000_randls_40.json,http://54.235.29.9/FacialAge/BNav_EC2/DepthDuration/v2_depth_duration_MTurk/v2_DepthDuration_HTML.html#13,13,1536,714,1536,864,8-29-2022,13-25-39,105,depth_duration_stimuli/000137_2014-05-20_17-04-49_260595134347_rgbf000120-resize_1/000137_2014-05-20_17-04-49_260595134347_rgbf000120-resize_1-target.png,1000,3.786,6,3673,1002,feet,jsons/v1_VE1000_randls_40.json,817978,1058483,30,Woman
105,309304,DepthScenes,duration_manipulation_targetAtFixation,jsons/v1_VE1000_randls_40.json,http://54.235.29.9/FacialAge/BNav_EC2/DepthDuration/v2_depth_duration_MTurk/v2_DepthDuration_HTML.html#13,13,1536,714,1536,864,8-29-2022,13-25-39,106,depth_duration_stimuli/001133_2014-06-17_14-49-16_260595134347_rgbf000100-resize_0/001133_2014-06-17_14-49-16_260595134347_rgbf000100-resize_0-target.png,1000,4.2115,7,3630,1003,feet,jsons/v1_VE1000_randls_40.json,817978,1058483,30,Woman
106,309304,DepthScenes,duration_manipulation_targetAtFixation,jsons/v1_VE1000_randls_40.json,http://54.235.29.9/FacialAge/BNav_EC2/DepthDuration/v2_depth_duration_MTurk/v2_DepthDuration_HTML.html#13,13,1536,714,1536,864,8-29-2022,13-25-39,107,depth_duration_stimuli/001132_2014-06-17_14-48-54_260595134347_rgbf000100-resize_2/001132_2014-06-17_14-48-54_260595134347_rgbf000100-resize_2-target.png,1000,3.753,5,4396,998,feet,jsons/v1_VE1000_randls_40.json,817978,1058483,30,Woman
107,309304,DepthScenes,duration_manipulation_targetAtFixation,jsons/v1_VE1000_randls_40.json,http://54.235.29.9/FacialAge/BNav_EC2/DepthDuration/v2_depth_duration_MTurk/v2_DepthDuration_HTML.html#13,13,1536,714,1536,864,8-29-2022,13-25-39,108,depth_duration_stimuli/002788_2014-06-22_19-36-03_094959634447_rgbf000088-resize_2/002788_2014-06-22_19-36-03_094959634447_rgbf000088-resize_2-target.png,1000,1.6465,3,5503,1007,feet,jsons/v1_VE1000_randls_40.json,817978,1058483,30,Woman
108,309304,DepthScenes,duration_manipulation_targetAtFixation,jsons/v1_VE1000_randls_40.json,http://54.235.29.9/FacialAge/BNav_EC2/DepthDuration/v2_depth_duration_MTurk/v2_DepthDuration_HTML.html#13,13,1536,714,1536,864,8-29-2022,13-25-39,109,depth_duration_stimuli/000749_2014-06-08_21-55-06_260595134347_rgbf000070-resize_2/000749_2014-06-08_21-55-06_260595134347_rgbf000070-resize_2-target.png,1000,2.331,3,3082,994,feet,jsons/v1_VE1000_randls_40.json,817978,1058483,30,Woman
109,309304,DepthScenes,duration_manipulation_targetAtFixation,jsons/v1_VE1000_randls_40.json,http://54.235.29.9/FacialAge/BNav_EC2/DepthDuration/v2_depth_duration_MTurk/v2_DepthDuration_HTML.html#13,13,1536,714,1536,864,8-29-2022,13-25-39,110,depth_duration_stimuli/001066_2014-06-08_22-03-20_260595134347_rgbf000066-resize_4/001066_2014-06-08_22-03-20_260595134347_rgbf000066-resize_4-target.png,1000,4.2330000000000005,7,4748,993,feet,jsons/v1_VE1000_randls_40.json,817978,1058483,30,Woman
110,309304,DepthScenes,duration_manipulation_targetAtFixation,jsons/v1_VE1000_randls_40.json,http://54.235.29.9/FacialAge/BNav_EC2/DepthDuration/v2_depth_duration_MTurk/v2_DepthDuration_HTML.html#13,13,1536,714,1536,864,8-29-2022,13-25-39,111,depth_duration_stimuli/000742_2014-06-08_18-48-09_260595134347_rgbf000164-resize_4/000742_2014-06-08_18-48-09_260595134347_rgbf000164-resize_4-target.png,1000,4.632,5,5253,1008,feet,jsons/v1_VE1000_randls_40.json,817978,1058483,30,Woman
111,309304,DepthScenes,duration_manipulation_targetAtFixation,jsons/v1_VE1000_randls_40.json,http://54.235.29.9/FacialAge/BNav_EC2/DepthDuration/v2_depth_duration_MTurk/v2_DepthDuration_HTML.html#13,13,1536,714,1536,864,8-29-2022,13-25-39,112,depth_duration_stimuli/002570_2014-06-24_13-59-54_094959634447_rgbf000059-resize_0/002570_2014-06-24_13-59-54_094959634447_rgbf000059-resize_0-target.png,1000,4.037,4,4696,992,feet,jsons/v1_VE1000_randls_40.json,817978,1058483,30,Woman
112,309304,DepthScenes,duration_manipulation_targetAtFixation,jsons/v1_VE1000_randls_40.json,http://54.235.29.9/FacialAge/BNav_EC2/DepthDuration/v2_depth_duration_MTurk/v2_DepthDuration_HTML.html#13,13,1536,714,1536,864,8-29-2022,13-25-39,113,depth_duration_stimuli/002467_2014-06-28_20-38-07_260595134347_rgbf000026-resize_2/002467_2014-06-28_20-38-07_260595134347_rgbf000026-resize_2-target.png,1000,4.742,6,5105,998,feet,jsons/v1_VE1000_randls_40.json,817978,1058483,30,Woman
113,309304,DepthScenes,duration_manipulation_targetAtFixation,jsons/v1_VE1000_randls_40.json,http://54.235.29.9/FacialAge/BNav_EC2/DepthDuration/v2_depth_duration_MTurk/v2_DepthDuration_HTML.html#13,13,1536,714,1536,864,8-29-2022,13-25-39,114,depth_duration_stimuli/002549_2014-06-24_13-41-39_094959634447_rgbf000022-resize_3/002549_2014-06-24_13-41-39_094959634447_rgbf000022-resize_3-target.png,1000,1.476,1,3651,991,feet,jsons/v1_VE1000_randls_40.json,817978,1058483,30,Woman
114,309304,DepthScenes,duration_manipulation_targetAtFixation,jsons/v1_VE1000_randls_40.json,http://54.235.29.9/FacialAge/BNav_EC2/DepthDuration/v2_depth_duration_MTurk/v2_DepthDuration_HTML.html#13,13,1536,714,1536,864,8-29-2022,13-25-39,115,depth_duration_stimuli/002750_2014-06-22_19-08-03_094959634447_rgbf000094-resize_4/002750_2014-06-22_19-08-03_094959634447_rgbf000094-resize_4-target.png,1000,2.354,2,6180,990,feet,jsons/v1_VE1000_randls_40.json,817978,1058483,30,Woman
115,309304,DepthScenes,duration_manipulation_targetAtFixation,jsons/v1_VE1000_randls_40.json,http://54.235.29.9/FacialAge/BNav_EC2/DepthDuration/v2_depth_duration_MTurk/v2_DepthDuration_HTML.html#13,13,1536,714,1536,864,8-29-2022,13-25-39,116,depth_duration_stimuli/001170_2014-06-17_15-43-44_260595134347_rgbf000096-resize_6/001170_2014-06-17_15-43-44_260595134347_rgbf000096-resize-original.jpg,1000,1.1909999999999998,0,3339,988,feet,jsons/v1_VE1000_randls_40.json,817978,1058483,30,Woman
116,309304,DepthScenes,duration_manipulation_targetAtFixation,jsons/v1_VE1000_randls_40.json,http://54.235.29.9/FacialAge/BNav_EC2/DepthDuration/v2_depth_duration_MTurk/v2_DepthDuration_HTML.html#13,13,1536,714,1536,864,8-29-2022,13-25-39,117,depth_duration_stimuli/001110_2014-06-15_17-25-28_260595134347_rgbf000150-resize_1/001110_2014-06-15_17-25-28_260595134347_rgbf000150-resize_1-target.png,1000,1.7115,2,3199,998,feet,jsons/v1_VE1000_randls_40.json,817978,1058483,30,Woman
117,309304,DepthScenes,duration_manipulation_targetAtFixation,jsons/v1_VE1000_randls_40.json,http://54.235.29.9/FacialAge/BNav_EC2/DepthDuration/v2_depth_duration_MTurk/v2_DepthDuration_HTML.html#13,13,1536,714,1536,864,8-29-2022,13-25-39,118,depth_duration_stimuli/000927_2014-06-09_16-32-30_260595134347_rgbf000123-resize_3/000927_2014-06-09_16-32-30_260595134347_rgbf000123-resize_3-target.png,1000,2.6785,2,3121,1002,feet,jsons/v1_VE1000_randls_40.json,817978,1058483,30,Woman
118,309304,DepthScenes,duration_manipulation_targetAtFixation,jsons/v1_VE1000_randls_40.json,http://54.235.29.9/FacialAge/BNav_EC2/DepthDuration/v2_depth_duration_MTurk/v2_DepthDuration_HTML.html#13,13,1536,714,1536,864,8-29-2022,13-25-39,119,depth_duration_stimuli/000522_2014-06-08_13-35-06_260595134347_rgbf000244-resize_1/000522_2014-06-08_13-35-06_260595134347_rgbf000244-resize_1-target.png,1000,2.3715,1,2588,994,feet,jsons/v1_VE1000_randls_40.json,817978,1058483,30,Woman
119,309304,DepthScenes,duration_manipulation_targetAtFixation,jsons/v1_VE1000_randls_40.json,http://54.235.29.9/FacialAge/BNav_EC2/DepthDuration/v2_depth_duration_MTurk/v2_DepthDuration_HTML.html#13,13,1536,714,1536,864,8-29-2022,13-25-39,120,depth_duration_stimuli/002949_2014-06-26_15-57-42_094959634447_rgbf000079-resize_1/002949_2014-06-26_15-57-42_094959634447_rgbf000079-resize_1-target.png,1000,1.8915,2,2637,993,feet,jsons/v1_VE1000_randls_40.json,817978,1058483,30,Woman
120,309304,DepthScenes,duration_manipulation_targetAtFixation,jsons/v1_VE1000_randls_40.json,http://54.235.29.9/FacialAge/BNav_EC2/DepthDuration/v2_depth_duration_MTurk/v2_DepthDuration_HTML.html#13,13,1536,714,1536,864,8-29-2022,13-25-39,121,depth_duration_stimuli/003070_2014-06-15_14-58-27_094959634447_rgbf000150-resize_3/003070_2014-06-15_14-58-27_094959634447_rgbf000150-resize_3-target.png,1000,2.9415,3,4969,999,feet,jsons/v1_VE1000_randls_40.json,817978,1058483,30,Woman
121,309304,DepthScenes,duration_manipulation_targetAtFixation,jsons/v1_VE1000_randls_40.json,http://54.235.29.9/FacialAge/BNav_EC2/DepthDuration/v2_depth_duration_MTurk/v2_DepthDuration_HTML.html#13,13,1536,714,1536,864,8-29-2022,13-25-39,122,depth_duration_stimuli/000943_2014-06-09_19-31-07_260595134347_rgbf000128-resize_1/000943_2014-06-09_19-31-07_260595134347_rgbf000128-resize_1-target.png,1000,1.9765,2,4283,994,feet,jsons/v1_VE1000_randls_40.json,817978,1058483,30,Woman
122,309304,DepthScenes,duration_manipulation_targetAtFixation,jsons/v1_VE1000_randls_40.json,http://54.235.29.9/FacialAge/BNav_EC2/DepthDuration/v2_depth_duration_MTurk/v2_DepthDuration_HTML.html#13,13,1536,714,1536,864,8-29-2022,13-25-39,123,depth_duration_stimuli/001417_2014-06-19_16-25-36_260595134347_rgbf000115-resize_5/001417_2014-06-19_16-25-36_260595134347_rgbf000115-resize_5-target.png,1000,4.6255,6,3953,998,feet,jsons/v1_VE1000_randls_40.json,817978,1058483,30,Woman
123,309304,DepthScenes,duration_manipulation_targetAtFixation,jsons/v1_VE1000_randls_40.json,http://54.235.29.9/FacialAge/BNav_EC2/DepthDuration/v2_depth_duration_MTurk/v2_DepthDuration_HTML.html#13,13,1536,714,1536,864,8-29-2022,13-25-39,124,depth_duration_stimuli/003081_2014-06-15_15-19-16_094959634447_rgbf000150-resize_1/003081_2014-06-15_15-19-16_094959634447_rgbf000150-resize_1-target.png,1000,3.9125,6,7303,1004,feet,jsons/v1_VE1000_randls_40.json,817978,1058483,30,Woman
124,309304,DepthScenes,duration_manipulation_targetAtFixation,jsons/v1_VE1000_randls_40.json,http://54.235.29.9/FacialAge/BNav_EC2/DepthDuration/v2_depth_duration_MTurk/v2_DepthDuration_HTML.html#13,13,1536,714,1536,864,8-29-2022,13-25-39,125,depth_duration_stimuli/000906_2014-06-08_13-35-43_260595134347_rgbf000155-resize_1/000906_2014-06-08_13-35-43_260595134347_rgbf000155-resize_1-target.png,1000,2.8489999999999998,7,4663,985,feet,jsons/v1_VE1000_randls_40.json,817978,1058483,30,Woman
125,309304,DepthScenes,duration_manipulation_targetAtFixation,jsons/v1_VE1000_randls_40.json,http://54.235.29.9/FacialAge/BNav_EC2/DepthDuration/v2_depth_duration_MTurk/v2_DepthDuration_HTML.html#13,13,1536,714,1536,864,8-29-2022,13-25-39,126,depth_duration_stimuli/002805_2014-06-22_19-54-03_094959634447_rgbf000079-resize_1/002805_2014-06-22_19-54-03_094959634447_rgbf000079-resize_1-target.png,1000,3.1439999999999997,6,3231,1002,feet,jsons/v1_VE1000_randls_40.json,817978,1058483,30,Woman
126,309304,DepthScenes,duration_manipulation_targetAtFixation,jsons/v1_VE1000_randls_40.json,http://54.235.29.9/FacialAge/BNav_EC2/DepthDuration/v2_depth_duration_MTurk/v2_DepthDuration_HTML.html#13,13,1536,714,1536,864,8-29-2022,13-25-39,127,depth_duration_stimuli/002445_2014-06-28_20-32-16_260595134347_rgbf000029-resize_4/002445_2014-06-28_20-32-16_260595134347_rgbf000029-resize_4-target.png,1000,2.5315,4,2912,1001,feet,jsons/v1_VE1000_randls_40.json,817978,1058483,30,Woman
127,309304,DepthScenes,duration_manipulation_targetAtFixation,jsons/v1_VE1000_randls_40.json,http://54.235.29.9/FacialAge/BNav_EC2/DepthDuration/v2_depth_duration_MTurk/v2_DepthDuration_HTML.html#13,13,1536,714,1536,864,8-29-2022,13-25-39,128,depth_duration_stimuli/000780_2014-06-08_22-28-29_260595134347_rgbf000126-resize_1/000780_2014-06-08_22-28-29_260595134347_rgbf000126-resize_1-target.png,1000,3.3825,5,3996,1000,feet,jsons/v1_VE1000_randls_40.json,817978,1058483,30,Woman
128,309304,DepthScenes,duration_manipulation_targetAtFixation,jsons/v1_VE1000_randls_40.json,http://54.235.29.9/FacialAge/BNav_EC2/DepthDuration/v2_depth_duration_MTurk/v2_DepthDuration_HTML.html#13,13,1536,714,1536,864,8-29-2022,13-25-39,129,depth_duration_stimuli/002039_2014-06-24_20-22-38_260595134347_rgbf000084-resize_1/002039_2014-06-24_20-22-38_260595134347_rgbf000084-resize_1-target.png,1000,4.408,7,3672,991,feet,jsons/v1_VE1000_randls_40.json,817978,1058483,30,Woman
129,309304,DepthScenes,duration_manipulation_targetAtFixation,jsons/v1_VE1000_randls_40.json,http://54.235.29.9/FacialAge/BNav_EC2/DepthDuration/v2_depth_duration_MTurk/v2_DepthDuration_HTML.html#13,13,1536,714,1536,864,8-29-2022,13-25-39,130,depth_duration_stimuli/002103_2014-06-25_20-00-40_260595134347_rgbf000049-resize_0/002103_2014-06-25_20-00-40_260595134347_rgbf000049-resize_0-target.png,1000,4.105,4,4497,991,feet,jsons/v1_VE1000_randls_40.json,817978,1058483,30,Woman
130,309304,DepthScenes,duration_manipulation_targetAtFixation,jsons/v1_VE1000_randls_40.json,http://54.235.29.9/FacialAge/BNav_EC2/DepthDuration/v2_depth_duration_MTurk/v2_DepthDuration_HTML.html#13,13,1536,714,1536,864,8-29-2022,13-25-39,131,depth_duration_stimuli/001244_2014-06-17_16-47-45_260595134347_rgbf000030-resize_4/001244_2014-06-17_16-47-45_260595134347_rgbf000030-resize_4-target.png,1000,2.0425,1,2612,989,feet,jsons/v1_VE1000_randls_40.json,817978,1058483,30,Woman
131,309304,DepthScenes,duration_manipulation_targetAtFixation,jsons/v1_VE1000_randls_40.json,http://54.235.29.9/FacialAge/BNav_EC2/DepthDuration/v2_depth_duration_MTurk/v2_DepthDuration_HTML.html#13,13,1536,714,1536,864,8-29-2022,13-25-39,132,depth_duration_stimuli/003495_2014-05-21_16-01-51_094959634447_rgbf000100-resize_3/003495_2014-05-21_16-01-51_094959634447_rgbf000100-resize_3-target.png,1000,1.6255,1,2608,1015,feet,jsons/v1_VE1000_randls_40.json,817978,1058483,30,Woman
132,309304,DepthScenes,duration_manipulation_targetAtFixation,jsons/v1_VE1000_randls_40.json,http://54.235.29.9/FacialAge/BNav_EC2/DepthDuration/v2_depth_duration_MTurk/v2_DepthDuration_HTML.html#13,13,1536,714,1536,864,8-29-2022,13-25-39,133,depth_duration_stimuli/003534_2014-05-22_15-06-10_094959634447_rgbf000102-resize_4/003534_2014-05-22_15-06-10_094959634447_rgbf000102-resize_4-target.png,1000,1.426,1,2530,988,feet,jsons/v1_VE1000_randls_40.json,817978,1058483,30,Woman
133,309304,DepthScenes,duration_manipulation_targetAtFixation,jsons/v1_VE1000_randls_40.json,http://54.235.29.9/FacialAge/BNav_EC2/DepthDuration/v2_depth_duration_MTurk/v2_DepthDuration_HTML.html#13,13,1536,714,1536,864,8-29-2022,13-25-39,134,depth_duration_stimuli/002637_2014-06-24_14-51-13_094959634447_rgbf000066-resize_4/002637_2014-06-24_14-51-13_094959634447_rgbf000066-resize_4-target.png,1000,1.9955,2,2741,999,feet,jsons/v1_VE1000_randls_40.json,817978,1058483,30,Woman
134,309304,DepthScenes,duration_manipulation_targetAtFixation,jsons/v1_VE1000_randls_40.json,http://54.235.29.9/FacialAge/BNav_EC2/DepthDuration/v2_depth_duration_MTurk/v2_DepthDuration_HTML.html#13,13,1536,714,1536,864,8-29-2022,13-25-39,135,depth_duration_stimuli/002072_2014-06-24_21-48-06_260595134347_rgbf000115-resize_0/002072_2014-06-24_21-48-06_260595134347_rgbf000115-resize-original.jpg,1000,4.702,0,3240,1011,feet,jsons/v1_VE1000_randls_40.json,817978,1058483,30,Woman
135,309304,DepthScenes,duration_manipulation_targetAtFixation,jsons/v1_VE1000_randls_40.json,http://54.235.29.9/FacialAge/BNav_EC2/DepthDuration/v2_depth_duration_MTurk/v2_DepthDuration_HTML.html#13,13,1536,714,1536,864,8-29-2022,13-25-39,136,depth_duration_stimuli/001056_2014-06-08_18-46-44_260595134347_rgbf000068-resize_0/001056_2014-06-08_18-46-44_260595134347_rgbf000068-resize_0-target.png,1000,2.6625,3,4132,1000,feet,jsons/v1_VE1000_randls_40.json,817978,1058483,30,Woman
136,309304,DepthScenes,duration_manipulation_targetAtFixation,jsons/v1_VE1000_randls_40.json,http://54.235.29.9/FacialAge/BNav_EC2/DepthDuration/v2_depth_duration_MTurk/v2_DepthDuration_HTML.html#13,13,1536,714,1536,864,8-29-2022,13-25-39,137,depth_duration_stimuli/002199_2014-06-28_18-33-56_260595134347_rgbf000074-resize_0/002199_2014-06-28_18-33-56_260595134347_rgbf000074-resize_0-target.png,1000,1.996,1,2468,1000,feet,jsons/v1_VE1000_randls_40.json,817978,1058483,30,Woman
137,309304,DepthScenes,duration_manipulation_targetAtFixation,jsons/v1_VE1000_randls_40.json,http://54.235.29.9/FacialAge/BNav_EC2/DepthDuration/v2_depth_duration_MTurk/v2_DepthDuration_HTML.html#13,13,1536,714,1536,864,8-29-2022,13-25-39,138,depth_duration_stimuli/001092_2014-06-15_17-34-58_260595134347_rgbf000171-resize_3/001092_2014-06-15_17-34-58_260595134347_rgbf000171-resize_3-target.png,1000,2.6935,2,2557,1000,feet,jsons/v1_VE1000_randls_40.json,817978,1058483,30,Woman
138,309304,DepthScenes,duration_manipulation_targetAtFixation,jsons/v1_VE1000_randls_40.json,http://54.235.29.9/FacialAge/BNav_EC2/DepthDuration/v2_depth_duration_MTurk/v2_DepthDuration_HTML.html#13,13,1536,714,1536,864,8-29-2022,13-25-39,139,depth_duration_stimuli/002545_2014-06-24_13-38-53_094959634447_rgbf000080-resize_4/002545_2014-06-24_13-38-53_094959634447_rgbf000080-resize_4-target.png,1000,1.9205,2,2771,999,feet,jsons/v1_VE1000_randls_40.json,817978,1058483,30,Woman
139,309304,DepthScenes,duration_manipulation_targetAtFixation,jsons/v1_VE1000_randls_40.json,http://54.235.29.9/FacialAge/BNav_EC2/DepthDuration/v2_depth_duration_MTurk/v2_DepthDuration_HTML.html#13,13,1536,714,1536,864,8-29-2022,13-25-39,140,depth_duration_stimuli/002509_2014-06-24_13-19-22_094959634447_rgbf000077-resize_0/002509_2014-06-24_13-19-22_094959634447_rgbf000077-resize_0-target.png,1000,1.3065,1,3243,998,feet,jsons/v1_VE1000_randls_40.json,817978,1058483,30,Woman
140,309304,DepthScenes,duration_manipulation_targetAtFixation,jsons/v1_VE1000_randls_40.json,http://54.235.29.9/FacialAge/BNav_EC2/DepthDuration/v2_depth_duration_MTurk/v2_DepthDuration_HTML.html#13,13,1536,714,1536,864,8-29-2022,13-25-39,141,depth_duration_stimuli/003338_2014-05-20_11-01-23_094959634447_rgbf000051-resize_6/003338_2014-05-20_11-01-23_094959634447_rgbf000051-resize_6-target.png,1000,1.693,2,2941,1004,feet,jsons/v1_VE1000_randls_40.json,817978,1058483,30,Woman
141,309304,DepthScenes,duration_manipulation_targetAtFixation,jsons/v1_VE1000_randls_40.json,http://54.235.29.9/FacialAge/BNav_EC2/DepthDuration/v2_depth_duration_MTurk/v2_DepthDuration_HTML.html#13,13,1536,714,1536,864,8-29-2022,13-25-39,142,depth_duration_stimuli/002153_2014-06-25_21-27-18_260595134347_rgbf000038-resize_5/002153_2014-06-25_21-27-18_260595134347_rgbf000038-resize_5-target.png,1000,2.505,3,2418,997,feet,jsons/v1_VE1000_randls_40.json,817978,1058483,30,Woman
142,309304,DepthScenes,duration_manipulation_targetAtFixation,jsons/v1_VE1000_randls_40.json,http://54.235.29.9/FacialAge/BNav_EC2/DepthDuration/v2_depth_duration_MTurk/v2_DepthDuration_HTML.html#13,13,1536,714,1536,864,8-29-2022,13-25-39,143,depth_duration_stimuli/002660_2014-06-13_15-44-18_094959634447_rgbf001878-resize_2/002660_2014-06-13_15-44-18_094959634447_rgbf001878-resize_2-target.png,1000,3.576,5,2985,999,feet,jsons/v1_VE1000_randls_40.json,817978,1058483,30,Woman
143,309304,DepthScenes,duration_manipulation_targetAtFixation,jsons/v1_VE1000_randls_40.json,http://54.235.29.9/FacialAge/BNav_EC2/DepthDuration/v2_depth_duration_MTurk/v2_DepthDuration_HTML.html#13,13,1536,714,1536,864,8-29-2022,13-25-39,144,depth_duration_stimuli/001199_2014-06-17_16-03-48_260595134347_rgbf000077-resize_0/001199_2014-06-17_16-03-48_260595134347_rgbf000077-resize_0-target.png,1000,3.4375,7,2947,1012,feet,jsons/v1_VE1000_randls_40.json,817978,1058483,30,Woman
144,309304,DepthScenes,duration_manipulation_targetAtFixation,jsons/v1_VE1000_randls_40.json,http://54.235.29.9/FacialAge/BNav_EC2/DepthDuration/v2_depth_duration_MTurk/v2_DepthDuration_HTML.html#13,13,1536,714,1536,864,8-29-2022,13-25-39,145,depth_duration_stimuli/000502_2014-06-08_23-02-32_260595134347_rgbf000063-resize_4/000502_2014-06-08_23-02-32_260595134347_rgbf000063-resize_4-target.png,1000,2.431,4,2536,992,feet,jsons/v1_VE1000_randls_40.json,817978,1058483,30,Woman
145,309304,DepthScenes,duration_manipulation_targetAtFixation,jsons/v1_VE1000_randls_40.json,http://54.235.29.9/FacialAge/BNav_EC2/DepthDuration/v2_depth_duration_MTurk/v2_DepthDuration_HTML.html#13,13,1536,714,1536,864,8-29-2022,13-25-39,146,depth_duration_stimuli/001498_2014-06-19_17-45-14_260595134347_rgbf000129-resize_4/001498_2014-06-19_17-45-14_260595134347_rgbf000129-resize-original.jpg,1000,1.4075,0,8381,992,feet,jsons/v1_VE1000_randls_40.json,817978,1058483,30,Woman
146,309304,DepthScenes,duration_manipulation_targetAtFixation,jsons/v1_VE1000_randls_40.json,http://54.235.29.9/FacialAge/BNav_EC2/DepthDuration/v2_depth_duration_MTurk/v2_DepthDuration_HTML.html#13,13,1536,714,1536,864,8-29-2022,13-25-39,147,depth_duration_stimuli/001806_2014-06-26_20-50-20_260595134347_rgbf000091-resize_1/001806_2014-06-26_20-50-20_260595134347_rgbf000091-resize_1-target.png,1000,2.7305,3,3400,1008,feet,jsons/v1_VE1000_randls_40.json,817978,1058483,30,Woman
147,309304,DepthScenes,duration_manipulation_targetAtFixation,jsons/v1_VE1000_randls_40.json,http://54.235.29.9/FacialAge/BNav_EC2/DepthDuration/v2_depth_duration_MTurk/v2_DepthDuration_HTML.html#13,13,1536,714,1536,864,8-29-2022,13-25-39,148,depth_duration_stimuli/001617_2014-06-20_11-35-32_260595134347_rgbf000066-resize_1/001617_2014-06-20_11-35-32_260595134347_rgbf000066-resize_1-target.png,1000,3.7910000000000004,5,3713,996,feet,jsons/v1_VE1000_randls_40.json,817978,1058483,30,Woman
148,309304,DepthScenes,duration_manipulation_targetAtFixation,jsons/v1_VE1000_randls_40.json,http://54.235.29.9/FacialAge/BNav_EC2/DepthDuration/v2_depth_duration_MTurk/v2_DepthDuration_HTML.html#13,13,1536,714,1536,864,8-29-2022,13-25-39,149,depth_duration_stimuli/002213_2014-06-28_18-37-58_260595134347_rgbf000055-resize_1/002213_2014-06-28_18-37-58_260595134347_rgbf000055-resize_1-target.png,1000,3.62,7,4333,1003,feet,jsons/v1_VE1000_randls_40.json,817978,1058483,30,Woman
149,309304,DepthScenes,duration_manipulation_targetAtFixation,jsons/v1_VE1000_randls_40.json,http://54.235.29.9/FacialAge/BNav_EC2/DepthDuration/v2_depth_duration_MTurk/v2_DepthDuration_HTML.html#13,13,1536,714,1536,864,8-29-2022,13-25-39,150,depth_duration_stimuli/000691_2014-06-08_13-08-50_260595134347_rgbf000132-resize_3/000691_2014-06-08_13-08-50_260595134347_rgbf000132-resize_3-target.png,1000,4.1530000000000005,5,5224,1002,feet,jsons/v1_VE1000_randls_40.json,817978,1058483,30,Woman
150,309304,DepthScenes,duration_manipulation_targetAtFixation,jsons/v1_VE1000_randls_40.json,http://54.235.29.9/FacialAge/BNav_EC2/DepthDuration/v2_depth_duration_MTurk/v2_DepthDuration_HTML.html#13,13,1536,714,1536,864,8-29-2022,13-25-39,151,depth_duration_stimuli/000878_2014-06-08_22-52-45_260595134347_rgbf000045-resize_2/000878_2014-06-08_22-52-45_260595134347_rgbf000045-resize_2-target.png,1000,2.092,3,2847,1003,feet,jsons/v1_VE1000_randls_40.json,817978,1058483,30,Woman
151,309304,DepthScenes,duration_manipulation_targetAtFixation,jsons/v1_VE1000_randls_40.json,http://54.235.29.9/FacialAge/BNav_EC2/DepthDuration/v2_depth_duration_MTurk/v2_DepthDuration_HTML.html#13,13,1536,714,1536,864,8-29-2022,13-25-39,152,depth_duration_stimuli/002953_2014-06-08_17-32-18_094959634447_rgbf000059-resize_5/002953_2014-06-08_17-32-18_094959634447_rgbf000059-resize_5-target.png,1000,1.551,1,4363,1009,feet,jsons/v1_VE1000_randls_40.json,817978,1058483,30,Woman
152,309304,DepthScenes,duration_manipulation_targetAtFixation,jsons/v1_VE1000_randls_40.json,http://54.235.29.9/FacialAge/BNav_EC2/DepthDuration/v2_depth_duration_MTurk/v2_DepthDuration_HTML.html#13,13,1536,714,1536,864,8-29-2022,13-25-39,153,depth_duration_stimuli/000436_2014-06-09_22-25-11_260595134347_rgbf000137-resize_1/000436_2014-06-09_22-25-11_260595134347_rgbf000137-resize_1-target.png,1000,4.0705,6,4097,998,feet,jsons/v1_VE1000_randls_40.json,817978,1058483,30,Woman
153,309304,DepthScenes,duration_manipulation_targetAtFixation,jsons/v1_VE1000_randls_40.json,http://54.235.29.9/FacialAge/BNav_EC2/DepthDuration/v2_depth_duration_MTurk/v2_DepthDuration_HTML.html#13,13,1536,714,1536,864,8-29-2022,13-25-39,154,depth_duration_stimuli/002444_2014-06-28_20-32-08_260595134347_rgbf000027-resize_0/002444_2014-06-28_20-32-08_260595134347_rgbf000027-resize_0-target.png,1000,4.388999999999999,7,3862,989,feet,jsons/v1_VE1000_randls_40.json,817978,1058483,30,Woman
154,309304,DepthScenes,duration_manipulation_targetAtFixation,jsons/v1_VE1000_randls_40.json,http://54.235.29.9/FacialAge/BNav_EC2/DepthDuration/v2_depth_duration_MTurk/v2_DepthDuration_HTML.html#13,13,1536,714,1536,864,8-29-2022,13-25-39,155,depth_duration_stimuli/000506_2014-06-08_23-21-00_260595134347_rgbf000070-resize_7/000506_2014-06-08_23-21-00_260595134347_rgbf000070-resize_7-target.png,1000,4.0585,6,5367,995,feet,jsons/v1_VE1000_randls_40.json,817978,1058483,30,Woman
155,309304,DepthScenes,duration_manipulation_targetAtFixation,jsons/v1_VE1000_randls_40.json,http://54.235.29.9/FacialAge/BNav_EC2/DepthDuration/v2_depth_duration_MTurk/v2_DepthDuration_HTML.html#13,13,1536,714,1536,864,8-29-2022,13-25-39,156,depth_duration_stimuli/003079_2014-06-15_15-18-20_094959634447_rgbf000152-resize_8/003079_2014-06-15_15-18-20_094959634447_rgbf000152-resize_8-target.png,1000,2.8775,5,3035,997,feet,jsons/v1_VE1000_randls_40.json,817978,1058483,30,Woman
156,309304,DepthScenes,duration_manipulation_targetAtFixation,jsons/v1_VE1000_randls_40.json,http://54.235.29.9/FacialAge/BNav_EC2/DepthDuration/v2_depth_duration_MTurk/v2_DepthDuration_HTML.html#13,13,1536,714,1536,864,8-29-2022,13-25-39,157,depth_duration_stimuli/002057_2014-06-24_21-00-13_260595134347_rgbf000120-resize_1/002057_2014-06-24_21-00-13_260595134347_rgbf000120-resize_1-target.png,1000,2.967,5,5714,999,feet,jsons/v1_VE1000_randls_40.json,817978,1058483,30,Woman
157,309304,DepthScenes,duration_manipulation_targetAtFixation,jsons/v1_VE1000_randls_40.json,http://54.235.29.9/FacialAge/BNav_EC2/DepthDuration/v2_depth_duration_MTurk/v2_DepthDuration_HTML.html#13,13,1536,714,1536,864,8-29-2022,13-25-39,158,depth_duration_stimuli/000709_2014-06-08_13-51-55_260595134347_rgbf000068-resize_3/000709_2014-06-08_13-51-55_260595134347_rgbf000068-resize_3-target.png,1000,1.8030000000000002,2,3140,1006,feet,jsons/v1_VE1000_randls_40.json,817978,1058483,30,Woman
158,309304,DepthScenes,duration_manipulation_targetAtFixation,jsons/v1_VE1000_randls_40.json,http://54.235.29.9/FacialAge/BNav_EC2/DepthDuration/v2_depth_duration_MTurk/v2_DepthDuration_HTML.html#13,13,1536,714,1536,864,8-29-2022,13-25-39,159,depth_duration_stimuli/002784_2014-06-22_19-26-30_094959634447_rgbf000083-resize_3/002784_2014-06-22_19-26-30_094959634447_rgbf000083-resize_3-target.png,1000,1.8046666666667,1,2483,993,feet,jsons/v1_VE1000_randls_40.json,817978,1058483,30,Woman
159,309304,DepthScenes,duration_manipulation_targetAtFixation,jsons/v1_VE1000_randls_40.json,http://54.235.29.9/FacialAge/BNav_EC2/DepthDuration/v2_depth_duration_MTurk/v2_DepthDuration_HTML.html#13,13,1536,714,1536,864,8-29-2022,13-25-39,160,depth_duration_stimuli/001100_2014-06-15_17-46-26_260595134347_rgbf000225-resize_2/001100_2014-06-15_17-46-26_260595134347_rgbf000225-resize_2-target.png,1000,2.24,1,2474,1006,feet,jsons/v1_VE1000_randls_40.json,817978,1058483,30,Woman
160,309304,DepthScenes,duration_manipulation_targetAtFixation,jsons/v1_VE1000_randls_40.json,http://54.235.29.9/FacialAge/BNav_EC2/DepthDuration/v2_depth_duration_MTurk/v2_DepthDuration_HTML.html#13,13,1536,714,1536,864,8-29-2022,13-25-39,161,depth_duration_stimuli/002905_2014-06-03_18-04-43_094959634447_rgbf000151-resize_2/002905_2014-06-03_18-04-43_094959634447_rgbf000151-resize_2-target.png,1000,2.0295,2,2514,999,feet,jsons/v1_VE1000_randls_40.json,817978,1058483,30,Woman
161,309304,DepthScenes,duration_manipulation_targetAtFixation,jsons/v1_VE1000_randls_40.json,http://54.235.29.9/FacialAge/BNav_EC2/DepthDuration/v2_depth_duration_MTurk/v2_DepthDuration_HTML.html#13,13,1536,714,1536,864,8-29-2022,13-25-39,162,depth_duration_stimuli/003423_2014-05-21_10-23-26_094959634447_rgbf002665-resize_2/003423_2014-05-21_10-23-26_094959634447_rgbf002665-resize_2-target.png,1000,3.2575,7,3687,1002,feet,jsons/v1_VE1000_randls_40.json,817978,1058483,30,Woman
162,309304,DepthScenes,duration_manipulation_targetAtFixation,jsons/v1_VE1000_randls_40.json,http://54.235.29.9/FacialAge/BNav_EC2/DepthDuration/v2_depth_duration_MTurk/v2_DepthDuration_HTML.html#13,13,1536,714,1536,864,8-29-2022,13-25-39,163,depth_duration_stimuli/000692_2014-06-08_13-09-42_260595134347_rgbf000199-resize_2/000692_2014-06-08_13-09-42_260595134347_rgbf000199-resize_2-target.png,1000,3.661,6,3013,1002,feet,jsons/v1_VE1000_randls_40.json,817978,1058483,30,Woman
163,309304,DepthScenes,duration_manipulation_targetAtFixation,jsons/v1_VE1000_randls_40.json,http://54.235.29.9/FacialAge/BNav_EC2/DepthDuration/v2_depth_duration_MTurk/v2_DepthDuration_HTML.html#13,13,1536,714,1536,864,8-29-2022,13-25-39,164,depth_duration_stimuli/001094_2014-06-15_17-36-00_260595134347_rgbf000205-resize_0/001094_2014-06-15_17-36-00_260595134347_rgbf000205-resize_0-target.png,1000,4.2175,7,3663,998,feet,jsons/v1_VE1000_randls_40.json,817978,1058483,30,Woman
