,subjID,experimentName,versionName,sequenceName,url,selected_row,windowWidth,windowHeight,screenWidth,screenHeight,startDate,startTime,trial,stimulus,duration,actual_depth,depth_estimate,trial_RT,log_sceneDuration,unitSelection,seq_filepath,experimentTime,totalTime,age,gender
0,310905,DepthScenes,duration_manipulation_targetAtFixation,jsons/v1_VE1000_randls_28_rotated.json,http://54.235.29.9/FacialAge/BNav_EC2/DepthDuration/v2_depth_duration_MTurk/v2_DepthDuration_HTML.html#26,26,1366,625,1366,768,8-22-2022,8-7-2,1,depth_duration_stimuli/002136_2014-06-25_21-18-03_260595134347_rgbf000109-resize_3/002136_2014-06-25_21-18-03_260595134347_rgbf000109-resize_3-target.png,1000,1.9569999999999999,1.0,5305,995,feet,jsons/v1_VE1000_randls_28_rotated.json,1232603,1936810,45,Man
1,310905,DepthScenes,duration_manipulation_targetAtFixation,jsons/v1_VE1000_randls_28_rotated.json,http://54.235.29.9/FacialAge/BNav_EC2/DepthDuration/v2_depth_duration_MTurk/v2_DepthDuration_HTML.html#26,26,1366,625,1366,768,8-22-2022,8-7-2,2,depth_duration_stimuli/002964_2014-06-08_17-46-11_094959634447_rgbf000091-resize_4/002964_2014-06-08_17-46-11_094959634447_rgbf000091-resize_4-target.png,1000,1.6909999999999998,2.0,5642,988,feet,jsons/v1_VE1000_randls_28_rotated.json,1232603,1936810,45,Man
2,310905,DepthScenes,duration_manipulation_targetAtFixation,jsons/v1_VE1000_randls_28_rotated.json,http://54.235.29.9/FacialAge/BNav_EC2/DepthDuration/v2_depth_duration_MTurk/v2_DepthDuration_HTML.html#26,26,1366,625,1366,768,8-22-2022,8-7-2,3,depth_duration_stimuli/000866_2014-06-09_20-45-42_260595134347_rgbf000139-resize_1/000866_2014-06-09_20-45-42_260595134347_rgbf000139-resize_1-target.png,1000,3.2155,1.5,8376,988,feet,jsons/v1_VE1000_randls_28_rotated.json,1232603,1936810,45,Man
3,310905,DepthScenes,duration_manipulation_targetAtFixation,jsons/v1_VE1000_randls_28_rotated.json,http://54.235.29.9/FacialAge/BNav_EC2/DepthDuration/v2_depth_duration_MTurk/v2_DepthDuration_HTML.html#26,26,1366,625,1366,768,8-22-2022,8-7-2,4,depth_duration_stimuli/002989_2014-06-15_12-25-03_094959634447_rgbf000150-resize_3/002989_2014-06-15_12-25-03_094959634447_rgbf000150-resize_3-target.png,1000,4.1975,2.0,8674,993,feet,jsons/v1_VE1000_randls_28_rotated.json,1232603,1936810,45,Man
4,310905,DepthScenes,duration_manipulation_targetAtFixation,jsons/v1_VE1000_randls_28_rotated.json,http://54.235.29.9/FacialAge/BNav_EC2/DepthDuration/v2_depth_duration_MTurk/v2_DepthDuration_HTML.html#26,26,1366,625,1366,768,8-22-2022,8-7-2,5,depth_duration_stimuli/000409_2014-06-04_19-23-33_260595134347_rgbf000067-resize_0/000409_2014-06-04_19-23-33_260595134347_rgbf000067-resize_0-target.png,1000,3.7335,1.75,12903,1002,feet,jsons/v1_VE1000_randls_28_rotated.json,1232603,1936810,45,Man
5,310905,DepthScenes,duration_manipulation_targetAtFixation,jsons/v1_VE1000_randls_28_rotated.json,http://54.235.29.9/FacialAge/BNav_EC2/DepthDuration/v2_depth_duration_MTurk/v2_DepthDuration_HTML.html#26,26,1366,625,1366,768,8-22-2022,8-7-2,6,depth_duration_stimuli/002663_2014-06-13_15-50-26_094959634447_rgbf000075-resize_1/002663_2014-06-13_15-50-26_094959634447_rgbf000075-resize_1-target.png,1000,4.7495,2.0,6672,998,feet,jsons/v1_VE1000_randls_28_rotated.json,1232603,1936810,45,Man
6,310905,DepthScenes,duration_manipulation_targetAtFixation,jsons/v1_VE1000_randls_28_rotated.json,http://54.235.29.9/FacialAge/BNav_EC2/DepthDuration/v2_depth_duration_MTurk/v2_DepthDuration_HTML.html#26,26,1366,625,1366,768,8-22-2022,8-7-2,7,depth_duration_stimuli/003495_2014-05-21_16-01-51_094959634447_rgbf000100-resize_3/003495_2014-05-21_16-01-51_094959634447_rgbf000100-resize_3-target.png,1000,1.6255,1.2,7238,993,feet,jsons/v1_VE1000_randls_28_rotated.json,1232603,1936810,45,Man
7,310905,DepthScenes,duration_manipulation_targetAtFixation,jsons/v1_VE1000_randls_28_rotated.json,http://54.235.29.9/FacialAge/BNav_EC2/DepthDuration/v2_depth_duration_MTurk/v2_DepthDuration_HTML.html#26,26,1366,625,1366,768,8-22-2022,8-7-2,8,depth_duration_stimuli/001244_2014-06-17_16-47-45_260595134347_rgbf000030-resize_4/001244_2014-06-17_16-47-45_260595134347_rgbf000030-resize_4-target.png,1000,2.0425,1.0,10125,1013,feet,jsons/v1_VE1000_randls_28_rotated.json,1232603,1936810,45,Man
8,310905,DepthScenes,duration_manipulation_targetAtFixation,jsons/v1_VE1000_randls_28_rotated.json,http://54.235.29.9/FacialAge/BNav_EC2/DepthDuration/v2_depth_duration_MTurk/v2_DepthDuration_HTML.html#26,26,1366,625,1366,768,8-22-2022,8-7-2,9,depth_duration_stimuli/000854_2014-06-09_19-43-13_260595134347_rgbf000066-resize_0/000854_2014-06-09_19-43-13_260595134347_rgbf000066-resize_0-target.png,1000,3.068,0.5,10719,974,feet,jsons/v1_VE1000_randls_28_rotated.json,1232603,1936810,45,Man
9,310905,DepthScenes,duration_manipulation_targetAtFixation,jsons/v1_VE1000_randls_28_rotated.json,http://54.235.29.9/FacialAge/BNav_EC2/DepthDuration/v2_depth_duration_MTurk/v2_DepthDuration_HTML.html#26,26,1366,625,1366,768,8-22-2022,8-7-2,10,depth_duration_stimuli/000758_2014-06-08_22-05-08_260595134347_rgbf000085-resize_0/000758_2014-06-08_22-05-08_260595134347_rgbf000085-resize_0-target.png,1000,3.3810000000000002,0.0,4350,1008,feet,jsons/v1_VE1000_randls_28_rotated.json,1232603,1936810,45,Man
10,310905,DepthScenes,duration_manipulation_targetAtFixation,jsons/v1_VE1000_randls_28_rotated.json,http://54.235.29.9/FacialAge/BNav_EC2/DepthDuration/v2_depth_duration_MTurk/v2_DepthDuration_HTML.html#26,26,1366,625,1366,768,8-22-2022,8-7-2,11,depth_duration_stimuli/001450_2014-06-19_17-02-03_260595134347_rgbf000203-resize_4/001450_2014-06-19_17-02-03_260595134347_rgbf000203-resize_4-target.png,1000,4.0106666666667,1.0,7424,991,feet,jsons/v1_VE1000_randls_28_rotated.json,1232603,1936810,45,Man
11,310905,DepthScenes,duration_manipulation_targetAtFixation,jsons/v1_VE1000_randls_28_rotated.json,http://54.235.29.9/FacialAge/BNav_EC2/DepthDuration/v2_depth_duration_MTurk/v2_DepthDuration_HTML.html#26,26,1366,625,1366,768,8-22-2022,8-7-2,12,depth_duration_stimuli/001449_2014-06-19_17-01-27_260595134347_rgbf000116-resize_2/001449_2014-06-19_17-01-27_260595134347_rgbf000116-resize_2-target.png,1000,3.452,1.0,5385,1000,feet,jsons/v1_VE1000_randls_28_rotated.json,1232603,1936810,45,Man
12,310905,DepthScenes,duration_manipulation_targetAtFixation,jsons/v1_VE1000_randls_28_rotated.json,http://54.235.29.9/FacialAge/BNav_EC2/DepthDuration/v2_depth_duration_MTurk/v2_DepthDuration_HTML.html#26,26,1366,625,1366,768,8-22-2022,8-7-2,13,depth_duration_stimuli/001617_2014-06-20_11-35-32_260595134347_rgbf000066-resize_1/001617_2014-06-20_11-35-32_260595134347_rgbf000066-resize_1-target.png,1000,3.7910000000000004,2.0,5536,994,feet,jsons/v1_VE1000_randls_28_rotated.json,1232603,1936810,45,Man
13,310905,DepthScenes,duration_manipulation_targetAtFixation,jsons/v1_VE1000_randls_28_rotated.json,http://54.235.29.9/FacialAge/BNav_EC2/DepthDuration/v2_depth_duration_MTurk/v2_DepthDuration_HTML.html#26,26,1366,625,1366,768,8-22-2022,8-7-2,14,depth_duration_stimuli/001806_2014-06-26_20-50-20_260595134347_rgbf000091-resize_1/001806_2014-06-26_20-50-20_260595134347_rgbf000091-resize_1-target.png,1000,2.7305,1.4,10861,1012,feet,jsons/v1_VE1000_randls_28_rotated.json,1232603,1936810,45,Man
14,310905,DepthScenes,duration_manipulation_targetAtFixation,jsons/v1_VE1000_randls_28_rotated.json,http://54.235.29.9/FacialAge/BNav_EC2/DepthDuration/v2_depth_duration_MTurk/v2_DepthDuration_HTML.html#26,26,1366,625,1366,768,8-22-2022,8-7-2,15,depth_duration_stimuli/002750_2014-06-22_19-08-03_094959634447_rgbf000094-resize_4/002750_2014-06-22_19-08-03_094959634447_rgbf000094-resize_4-target.png,1000,2.354,1.0,6411,1004,feet,jsons/v1_VE1000_randls_28_rotated.json,1232603,1936810,45,Man
15,310905,DepthScenes,duration_manipulation_targetAtFixation,jsons/v1_VE1000_randls_28_rotated.json,http://54.235.29.9/FacialAge/BNav_EC2/DepthDuration/v2_depth_duration_MTurk/v2_DepthDuration_HTML.html#26,26,1366,625,1366,768,8-22-2022,8-7-2,16,depth_duration_stimuli/002549_2014-06-24_13-41-39_094959634447_rgbf000022-resize_3/002549_2014-06-24_13-41-39_094959634447_rgbf000022-resize_3-target.png,1000,1.476,0.4,6363,983,feet,jsons/v1_VE1000_randls_28_rotated.json,1232603,1936810,45,Man
16,310905,DepthScenes,duration_manipulation_targetAtFixation,jsons/v1_VE1000_randls_28_rotated.json,http://54.235.29.9/FacialAge/BNav_EC2/DepthDuration/v2_depth_duration_MTurk/v2_DepthDuration_HTML.html#26,26,1366,625,1366,768,8-22-2022,8-7-2,17,depth_duration_stimuli/003423_2014-05-21_10-23-26_094959634447_rgbf002665-resize_2/003423_2014-05-21_10-23-26_094959634447_rgbf002665-resize_2-target.png,1000,3.2575,1.6,11960,1003,feet,jsons/v1_VE1000_randls_28_rotated.json,1232603,1936810,45,Man
17,310905,DepthScenes,duration_manipulation_targetAtFixation,jsons/v1_VE1000_randls_28_rotated.json,http://54.235.29.9/FacialAge/BNav_EC2/DepthDuration/v2_depth_duration_MTurk/v2_DepthDuration_HTML.html#26,26,1366,625,1366,768,8-22-2022,8-7-2,18,depth_duration_stimuli/002905_2014-06-03_18-04-43_094959634447_rgbf000151-resize_2/002905_2014-06-03_18-04-43_094959634447_rgbf000151-resize_2-target.png,1000,2.0295,1.0,5150,999,feet,jsons/v1_VE1000_randls_28_rotated.json,1232603,1936810,45,Man
18,310905,DepthScenes,duration_manipulation_targetAtFixation,jsons/v1_VE1000_randls_28_rotated.json,http://54.235.29.9/FacialAge/BNav_EC2/DepthDuration/v2_depth_duration_MTurk/v2_DepthDuration_HTML.html#26,26,1366,625,1366,768,8-22-2022,8-7-2,19,depth_duration_stimuli/001498_2014-06-19_17-45-14_260595134347_rgbf000129-resize_4/001498_2014-06-19_17-45-14_260595134347_rgbf000129-resize-original.jpg,1000,1.4075,0.0,4269,1002,feet,jsons/v1_VE1000_randls_28_rotated.json,1232603,1936810,45,Man
19,310905,DepthScenes,duration_manipulation_targetAtFixation,jsons/v1_VE1000_randls_28_rotated.json,http://54.235.29.9/FacialAge/BNav_EC2/DepthDuration/v2_depth_duration_MTurk/v2_DepthDuration_HTML.html#26,26,1366,625,1366,768,8-22-2022,8-7-2,20,depth_duration_stimuli/000137_2014-05-20_17-04-49_260595134347_rgbf000120-resize_1/000137_2014-05-20_17-04-49_260595134347_rgbf000120-resize_1-target.png,1000,3.786,2.0,4716,995,feet,jsons/v1_VE1000_randls_28_rotated.json,1232603,1936810,45,Man
20,310905,DepthScenes,duration_manipulation_targetAtFixation,jsons/v1_VE1000_randls_28_rotated.json,http://54.235.29.9/FacialAge/BNav_EC2/DepthDuration/v2_depth_duration_MTurk/v2_DepthDuration_HTML.html#26,26,1366,625,1366,768,8-22-2022,8-7-2,21,depth_duration_stimuli/000736_2014-06-08_18-24-15_260595134347_rgbf000206-resize_3/000736_2014-06-08_18-24-15_260595134347_rgbf000206-resize_3-target.png,1000,3.515,0.5,10553,1000,feet,jsons/v1_VE1000_randls_28_rotated.json,1232603,1936810,45,Man
21,310905,DepthScenes,duration_manipulation_targetAtFixation,jsons/v1_VE1000_randls_28_rotated.json,http://54.235.29.9/FacialAge/BNav_EC2/DepthDuration/v2_depth_duration_MTurk/v2_DepthDuration_HTML.html#26,26,1366,625,1366,768,8-22-2022,8-7-2,22,depth_duration_stimuli/000709_2014-06-08_13-51-55_260595134347_rgbf000068-resize_3/000709_2014-06-08_13-51-55_260595134347_rgbf000068-resize_3-target.png,1000,1.8030000000000002,0.2,7504,998,feet,jsons/v1_VE1000_randls_28_rotated.json,1232603,1936810,45,Man
22,310905,DepthScenes,duration_manipulation_targetAtFixation,jsons/v1_VE1000_randls_28_rotated.json,http://54.235.29.9/FacialAge/BNav_EC2/DepthDuration/v2_depth_duration_MTurk/v2_DepthDuration_HTML.html#26,26,1366,625,1366,768,8-22-2022,8-7-2,23,depth_duration_stimuli/002057_2014-06-24_21-00-13_260595134347_rgbf000120-resize_1/002057_2014-06-24_21-00-13_260595134347_rgbf000120-resize_1-target.png,1000,2.967,0.5,5736,996,feet,jsons/v1_VE1000_randls_28_rotated.json,1232603,1936810,45,Man
23,310905,DepthScenes,duration_manipulation_targetAtFixation,jsons/v1_VE1000_randls_28_rotated.json,http://54.235.29.9/FacialAge/BNav_EC2/DepthDuration/v2_depth_duration_MTurk/v2_DepthDuration_HTML.html#26,26,1366,625,1366,768,8-22-2022,8-7-2,24,depth_duration_stimuli/002209_2014-06-28_18-36-10_260595134347_rgbf000051-resize_1/002209_2014-06-28_18-36-10_260595134347_rgbf000051-resize_1-target.png,1000,2.057,1.0,9199,1000,feet,jsons/v1_VE1000_randls_28_rotated.json,1232603,1936810,45,Man
24,310905,DepthScenes,duration_manipulation_targetAtFixation,jsons/v1_VE1000_randls_28_rotated.json,http://54.235.29.9/FacialAge/BNav_EC2/DepthDuration/v2_depth_duration_MTurk/v2_DepthDuration_HTML.html#26,26,1366,625,1366,768,8-22-2022,8-7-2,25,depth_duration_stimuli/002763_2014-06-22_19-13-10_094959634447_rgbf000075-resize_4/002763_2014-06-22_19-13-10_094959634447_rgbf000075-resize_4-target.png,1000,1.68375,0.5,5564,1000,feet,jsons/v1_VE1000_randls_28_rotated.json,1232603,1936810,45,Man
25,310905,DepthScenes,duration_manipulation_targetAtFixation,jsons/v1_VE1000_randls_28_rotated.json,http://54.235.29.9/FacialAge/BNav_EC2/DepthDuration/v2_depth_duration_MTurk/v2_DepthDuration_HTML.html#26,26,1366,625,1366,768,8-22-2022,8-7-2,26,depth_duration_stimuli/000191_2014-05-12_17-07-38_260595134347_rgbf000199-resize_0/000191_2014-05-12_17-07-38_260595134347_rgbf000199-resize_0-target.png,1000,3.7995,0.0,4083,993,feet,jsons/v1_VE1000_randls_28_rotated.json,1232603,1936810,45,Man
26,310905,DepthScenes,duration_manipulation_targetAtFixation,jsons/v1_VE1000_randls_28_rotated.json,http://54.235.29.9/FacialAge/BNav_EC2/DepthDuration/v2_depth_duration_MTurk/v2_DepthDuration_HTML.html#26,26,1366,625,1366,768,8-22-2022,8-7-2,27,depth_duration_stimuli/000493_2014-06-09_21-01-18_260595134347_rgbf000196-resize_3/000493_2014-06-09_21-01-18_260595134347_rgbf000196-resize_3-target.png,1000,3.44,1.0,6063,1000,feet,jsons/v1_VE1000_randls_28_rotated.json,1232603,1936810,45,Man
27,310905,DepthScenes,duration_manipulation_targetAtFixation,jsons/v1_VE1000_randls_28_rotated.json,http://54.235.29.9/FacialAge/BNav_EC2/DepthDuration/v2_depth_duration_MTurk/v2_DepthDuration_HTML.html#26,26,1366,625,1366,768,8-22-2022,8-7-2,28,depth_duration_stimuli/001650_2014-06-20_12-09-00_260595134347_rgbf000087-resize_3/001650_2014-06-20_12-09-00_260595134347_rgbf000087-resize_3-target.png,1000,1.9505,0.0,4207,998,feet,jsons/v1_VE1000_randls_28_rotated.json,1232603,1936810,45,Man
28,310905,DepthScenes,duration_manipulation_targetAtFixation,jsons/v1_VE1000_randls_28_rotated.json,http://54.235.29.9/FacialAge/BNav_EC2/DepthDuration/v2_depth_duration_MTurk/v2_DepthDuration_HTML.html#26,26,1366,625,1366,768,8-22-2022,8-7-2,29,depth_duration_stimuli/000682_2014-06-08_23-14-58_260595134347_rgbf000041-resize_5/000682_2014-06-08_23-14-58_260595134347_rgbf000041-resize_5-target.png,1000,2.7239999999999998,0.7,6176,994,feet,jsons/v1_VE1000_randls_28_rotated.json,1232603,1936810,45,Man
29,310905,DepthScenes,duration_manipulation_targetAtFixation,jsons/v1_VE1000_randls_28_rotated.json,http://54.235.29.9/FacialAge/BNav_EC2/DepthDuration/v2_depth_duration_MTurk/v2_DepthDuration_HTML.html#26,26,1366,625,1366,768,8-22-2022,8-7-2,30,depth_duration_stimuli/002072_2014-06-24_21-48-06_260595134347_rgbf000115-resize_0/002072_2014-06-24_21-48-06_260595134347_rgbf000115-resize-original.jpg,1000,4.702,0.0,3926,992,feet,jsons/v1_VE1000_randls_28_rotated.json,1232603,1936810,45,Man
30,310905,DepthScenes,duration_manipulation_targetAtFixation,jsons/v1_VE1000_randls_28_rotated.json,http://54.235.29.9/FacialAge/BNav_EC2/DepthDuration/v2_depth_duration_MTurk/v2_DepthDuration_HTML.html#26,26,1366,625,1366,768,8-22-2022,8-7-2,31,depth_duration_stimuli/000943_2014-06-09_19-31-07_260595134347_rgbf000128-resize_1/000943_2014-06-09_19-31-07_260595134347_rgbf000128-resize_1-target.png,1000,1.9765,0.2,5155,1000,feet,jsons/v1_VE1000_randls_28_rotated.json,1232603,1936810,45,Man
31,310905,DepthScenes,duration_manipulation_targetAtFixation,jsons/v1_VE1000_randls_28_rotated.json,http://54.235.29.9/FacialAge/BNav_EC2/DepthDuration/v2_depth_duration_MTurk/v2_DepthDuration_HTML.html#26,26,1366,625,1366,768,8-22-2022,8-7-2,32,depth_duration_stimuli/003070_2014-06-15_14-58-27_094959634447_rgbf000150-resize_3/003070_2014-06-15_14-58-27_094959634447_rgbf000150-resize_3-target.png,1000,2.9415,1.0,4460,1010,feet,jsons/v1_VE1000_randls_28_rotated.json,1232603,1936810,45,Man
32,310905,DepthScenes,duration_manipulation_targetAtFixation,jsons/v1_VE1000_randls_28_rotated.json,http://54.235.29.9/FacialAge/BNav_EC2/DepthDuration/v2_depth_duration_MTurk/v2_DepthDuration_HTML.html#26,26,1366,625,1366,768,8-22-2022,8-7-2,33,depth_duration_stimuli/000635_2014-06-08_16-38-42_260595134347_rgbf000106-resize_1/000635_2014-06-08_16-38-42_260595134347_rgbf000106-resize_1-target.png,1000,2.074,0.5,5419,1009,feet,jsons/v1_VE1000_randls_28_rotated.json,1232603,1936810,45,Man
33,310905,DepthScenes,duration_manipulation_targetAtFixation,jsons/v1_VE1000_randls_28_rotated.json,http://54.235.29.9/FacialAge/BNav_EC2/DepthDuration/v2_depth_duration_MTurk/v2_DepthDuration_HTML.html#26,26,1366,625,1366,768,8-22-2022,8-7-2,34,depth_duration_stimuli/002279_2014-06-28_18-55-32_260595134347_rgbf000040-resize_5/002279_2014-06-28_18-55-32_260595134347_rgbf000040-resize_5-target.png,1000,1.5043333333333,1.0,4752,1001,feet,jsons/v1_VE1000_randls_28_rotated.json,1232603,1936810,45,Man
34,310905,DepthScenes,duration_manipulation_targetAtFixation,jsons/v1_VE1000_randls_28_rotated.json,http://54.235.29.9/FacialAge/BNav_EC2/DepthDuration/v2_depth_duration_MTurk/v2_DepthDuration_HTML.html#26,26,1366,625,1366,768,8-22-2022,8-7-2,35,depth_duration_stimuli/002340_2014-06-28_20-05-46_260595134347_rgbf000113-resize_0/002340_2014-06-28_20-05-46_260595134347_rgbf000113-resize_0-target.png,1000,2.4735,1.0,4380,1003,feet,jsons/v1_VE1000_randls_28_rotated.json,1232603,1936810,45,Man
35,310905,DepthScenes,duration_manipulation_targetAtFixation,jsons/v1_VE1000_randls_28_rotated.json,http://54.235.29.9/FacialAge/BNav_EC2/DepthDuration/v2_depth_duration_MTurk/v2_DepthDuration_HTML.html#26,26,1366,625,1366,768,8-22-2022,8-7-2,36,depth_duration_stimuli/001016_2014-06-09_16-16-10_260595134347_rgbf000112-resize_5/001016_2014-06-09_16-16-10_260595134347_rgbf000112-resize_5-target.png,1000,1.6565,0.7,5164,984,feet,jsons/v1_VE1000_randls_28_rotated.json,1232603,1936810,45,Man
36,310905,DepthScenes,duration_manipulation_targetAtFixation,jsons/v1_VE1000_randls_28_rotated.json,http://54.235.29.9/FacialAge/BNav_EC2/DepthDuration/v2_depth_duration_MTurk/v2_DepthDuration_HTML.html#26,26,1366,625,1366,768,8-22-2022,8-7-2,37,depth_duration_stimuli/003587_2014-05-23_16-48-02_094959634447_rgbf002384-resize_2/003587_2014-05-23_16-48-02_094959634447_rgbf002384-resize_2-target.png,1000,1.357,1.0,11402,991,feet,jsons/v1_VE1000_randls_28_rotated.json,1232603,1936810,45,Man
37,310905,DepthScenes,duration_manipulation_targetAtFixation,jsons/v1_VE1000_randls_28_rotated.json,http://54.235.29.9/FacialAge/BNav_EC2/DepthDuration/v2_depth_duration_MTurk/v2_DepthDuration_HTML.html#26,26,1366,625,1366,768,8-22-2022,8-7-2,38,depth_duration_stimuli/001167_2014-06-17_15-38-07_260595134347_rgbf000108-resize_0/001167_2014-06-17_15-38-07_260595134347_rgbf000108-resize_0-target.png,1000,1.8505,1.0,15128,1001,feet,jsons/v1_VE1000_randls_28_rotated.json,1232603,1936810,45,Man
38,310905,DepthScenes,duration_manipulation_targetAtFixation,jsons/v1_VE1000_randls_28_rotated.json,http://54.235.29.9/FacialAge/BNav_EC2/DepthDuration/v2_depth_duration_MTurk/v2_DepthDuration_HTML.html#26,26,1366,625,1366,768,8-22-2022,8-7-2,39,depth_duration_stimuli/002657_2014-06-13_15-29-54_094959634447_rgbf000150-resize_1/002657_2014-06-13_15-29-54_094959634447_rgbf000150-resize_1-target.png,1000,4.919,2.0,4070,1002,feet,jsons/v1_VE1000_randls_28_rotated.json,1232603,1936810,45,Man
39,310905,DepthScenes,duration_manipulation_targetAtFixation,jsons/v1_VE1000_randls_28_rotated.json,http://54.235.29.9/FacialAge/BNav_EC2/DepthDuration/v2_depth_duration_MTurk/v2_DepthDuration_HTML.html#26,26,1366,625,1366,768,8-22-2022,8-7-2,40,depth_duration_stimuli/002375_2014-06-28_20-13-44_260595134347_rgbf000032-resize_1/002375_2014-06-28_20-13-44_260595134347_rgbf000032-resize_1-target.png,1000,4.0175,1.0,5652,1006,feet,jsons/v1_VE1000_randls_28_rotated.json,1232603,1936810,45,Man
40,310905,DepthScenes,duration_manipulation_targetAtFixation,jsons/v1_VE1000_randls_28_rotated.json,http://54.235.29.9/FacialAge/BNav_EC2/DepthDuration/v2_depth_duration_MTurk/v2_DepthDuration_HTML.html#26,26,1366,625,1366,768,8-22-2022,8-7-2,41,depth_duration_stimuli/000665_2014-06-09_20-42-35_260595134347_rgbf000110-resize_1/000665_2014-06-09_20-42-35_260595134347_rgbf000110-resize_1-target.png,1000,3.057,0.8,10149,1004,feet,jsons/v1_VE1000_randls_28_rotated.json,1232603,1936810,45,Man
41,310905,DepthScenes,duration_manipulation_targetAtFixation,jsons/v1_VE1000_randls_28_rotated.json,http://54.235.29.9/FacialAge/BNav_EC2/DepthDuration/v2_depth_duration_MTurk/v2_DepthDuration_HTML.html#26,26,1366,625,1366,768,8-22-2022,8-7-2,42,depth_duration_stimuli/001150_2014-06-17_15-27-34_260595134347_rgbf000108-resize_2/001150_2014-06-17_15-27-34_260595134347_rgbf000108-resize_2-target.png,1000,4.0325,1.0,6684,1001,feet,jsons/v1_VE1000_randls_28_rotated.json,1232603,1936810,45,Man
42,310905,DepthScenes,duration_manipulation_targetAtFixation,jsons/v1_VE1000_randls_28_rotated.json,http://54.235.29.9/FacialAge/BNav_EC2/DepthDuration/v2_depth_duration_MTurk/v2_DepthDuration_HTML.html#26,26,1366,625,1366,768,8-22-2022,8-7-2,43,depth_duration_stimuli/002199_2014-06-28_18-33-56_260595134347_rgbf000074-resize_0/002199_2014-06-28_18-33-56_260595134347_rgbf000074-resize_0-target.png,1000,1.996,1.5,5496,995,feet,jsons/v1_VE1000_randls_28_rotated.json,1232603,1936810,45,Man
43,310905,DepthScenes,duration_manipulation_targetAtFixation,jsons/v1_VE1000_randls_28_rotated.json,http://54.235.29.9/FacialAge/BNav_EC2/DepthDuration/v2_depth_duration_MTurk/v2_DepthDuration_HTML.html#26,26,1366,625,1366,768,8-22-2022,8-7-2,44,depth_duration_stimuli/001056_2014-06-08_18-46-44_260595134347_rgbf000068-resize_0/001056_2014-06-08_18-46-44_260595134347_rgbf000068-resize_0-target.png,1000,2.6625,1.0,6751,997,feet,jsons/v1_VE1000_randls_28_rotated.json,1232603,1936810,45,Man
44,310905,DepthScenes,duration_manipulation_targetAtFixation,jsons/v1_VE1000_randls_28_rotated.json,http://54.235.29.9/FacialAge/BNav_EC2/DepthDuration/v2_depth_duration_MTurk/v2_DepthDuration_HTML.html#26,26,1366,625,1366,768,8-22-2022,8-7-2,45,depth_duration_stimuli/002660_2014-06-13_15-44-18_094959634447_rgbf001878-resize_2/002660_2014-06-13_15-44-18_094959634447_rgbf001878-resize_2-target.png,1000,3.576,1.0,7614,1010,feet,jsons/v1_VE1000_randls_28_rotated.json,1232603,1936810,45,Man
45,310905,DepthScenes,duration_manipulation_targetAtFixation,jsons/v1_VE1000_randls_28_rotated.json,http://54.235.29.9/FacialAge/BNav_EC2/DepthDuration/v2_depth_duration_MTurk/v2_DepthDuration_HTML.html#26,26,1366,625,1366,768,8-22-2022,8-7-2,46,depth_duration_stimuli/002153_2014-06-25_21-27-18_260595134347_rgbf000038-resize_5/002153_2014-06-25_21-27-18_260595134347_rgbf000038-resize_5-target.png,1000,2.505,0.5,7093,1003,feet,jsons/v1_VE1000_randls_28_rotated.json,1232603,1936810,45,Man
46,310905,DepthScenes,duration_manipulation_targetAtFixation,jsons/v1_VE1000_randls_28_rotated.json,http://54.235.29.9/FacialAge/BNav_EC2/DepthDuration/v2_depth_duration_MTurk/v2_DepthDuration_HTML.html#26,26,1366,625,1366,768,8-22-2022,8-7-2,47,depth_duration_stimuli/002323_2014-06-28_20-01-54_260595134347_rgbf000051-resize_4/002323_2014-06-28_20-01-54_260595134347_rgbf000051-resize_4-target.png,1000,3.7310000000000003,0.6,6941,1005,feet,jsons/v1_VE1000_randls_28_rotated.json,1232603,1936810,45,Man
47,310905,DepthScenes,duration_manipulation_targetAtFixation,jsons/v1_VE1000_randls_28_rotated.json,http://54.235.29.9/FacialAge/BNav_EC2/DepthDuration/v2_depth_duration_MTurk/v2_DepthDuration_HTML.html#26,26,1366,625,1366,768,8-22-2022,8-7-2,48,depth_duration_stimuli/000917_2014-06-09_22-45-29_260595134347_rgbf000149-resize_3/000917_2014-06-09_22-45-29_260595134347_rgbf000149-resize_3-target.png,1000,4.1865,0.4,7032,1006,feet,jsons/v1_VE1000_randls_28_rotated.json,1232603,1936810,45,Man
48,310905,DepthScenes,duration_manipulation_targetAtFixation,jsons/v1_VE1000_randls_28_rotated.json,http://54.235.29.9/FacialAge/BNav_EC2/DepthDuration/v2_depth_duration_MTurk/v2_DepthDuration_HTML.html#26,26,1366,625,1366,768,8-22-2022,8-7-2,49,depth_duration_stimuli/001170_2014-06-17_15-43-44_260595134347_rgbf000096-resize_6/001170_2014-06-17_15-43-44_260595134347_rgbf000096-resize-original.jpg,1000,1.1909999999999998,0.0,6210,995,feet,jsons/v1_VE1000_randls_28_rotated.json,1232603,1936810,45,Man
49,310905,DepthScenes,duration_manipulation_targetAtFixation,jsons/v1_VE1000_randls_28_rotated.json,http://54.235.29.9/FacialAge/BNav_EC2/DepthDuration/v2_depth_duration_MTurk/v2_DepthDuration_HTML.html#26,26,1366,625,1366,768,8-22-2022,8-7-2,50,depth_duration_stimuli/003081_2014-06-15_15-19-16_094959634447_rgbf000150-resize_1/003081_2014-06-15_15-19-16_094959634447_rgbf000150-resize_1-target.png,1000,3.9125,0.4,6551,994,feet,jsons/v1_VE1000_randls_28_rotated.json,1232603,1936810,45,Man
50,310905,DepthScenes,duration_manipulation_targetAtFixation,jsons/v1_VE1000_randls_28_rotated.json,http://54.235.29.9/FacialAge/BNav_EC2/DepthDuration/v2_depth_duration_MTurk/v2_DepthDuration_HTML.html#26,26,1366,625,1366,768,8-22-2022,8-7-2,51,depth_duration_stimuli/001417_2014-06-19_16-25-36_260595134347_rgbf000115-resize_5/001417_2014-06-19_16-25-36_260595134347_rgbf000115-resize_5-target.png,1000,4.6255,1.0,6615,997,feet,jsons/v1_VE1000_randls_28_rotated.json,1232603,1936810,45,Man
51,310905,DepthScenes,duration_manipulation_targetAtFixation,jsons/v1_VE1000_randls_28_rotated.json,http://54.235.29.9/FacialAge/BNav_EC2/DepthDuration/v2_depth_duration_MTurk/v2_DepthDuration_HTML.html#26,26,1366,625,1366,768,8-22-2022,8-7-2,52,depth_duration_stimuli/000927_2014-06-09_16-32-30_260595134347_rgbf000123-resize_3/000927_2014-06-09_16-32-30_260595134347_rgbf000123-resize_3-target.png,1000,2.6785,1.0,4836,998,feet,jsons/v1_VE1000_randls_28_rotated.json,1232603,1936810,45,Man
52,310905,DepthScenes,duration_manipulation_targetAtFixation,jsons/v1_VE1000_randls_28_rotated.json,http://54.235.29.9/FacialAge/BNav_EC2/DepthDuration/v2_depth_duration_MTurk/v2_DepthDuration_HTML.html#26,26,1366,625,1366,768,8-22-2022,8-7-2,53,depth_duration_stimuli/001110_2014-06-15_17-25-28_260595134347_rgbf000150-resize_1/001110_2014-06-15_17-25-28_260595134347_rgbf000150-resize_1-target.png,1000,1.7115,0.5,6030,1026,feet,jsons/v1_VE1000_randls_28_rotated.json,1232603,1936810,45,Man
53,310905,DepthScenes,duration_manipulation_targetAtFixation,jsons/v1_VE1000_randls_28_rotated.json,http://54.235.29.9/FacialAge/BNav_EC2/DepthDuration/v2_depth_duration_MTurk/v2_DepthDuration_HTML.html#26,26,1366,625,1366,768,8-22-2022,8-7-2,54,depth_duration_stimuli/001136_2014-06-17_15-19-41_260595134347_rgbf000076-resize_3/001136_2014-06-17_15-19-41_260595134347_rgbf000076-resize_3-target.png,1000,1.8655,1.0,4593,993,feet,jsons/v1_VE1000_randls_28_rotated.json,1232603,1936810,45,Man
54,310905,DepthScenes,duration_manipulation_targetAtFixation,jsons/v1_VE1000_randls_28_rotated.json,http://54.235.29.9/FacialAge/BNav_EC2/DepthDuration/v2_depth_duration_MTurk/v2_DepthDuration_HTML.html#26,26,1366,625,1366,768,8-22-2022,8-7-2,55,depth_duration_stimuli/001164_2014-06-17_15-35-46_260595134347_rgbf000085-resize_3/001164_2014-06-17_15-35-46_260595134347_rgbf000085-resize_3-target.png,1000,2.354,0.3,9541,1009,feet,jsons/v1_VE1000_randls_28_rotated.json,1232603,1936810,45,Man
55,310905,DepthScenes,duration_manipulation_targetAtFixation,jsons/v1_VE1000_randls_28_rotated.json,http://54.235.29.9/FacialAge/BNav_EC2/DepthDuration/v2_depth_duration_MTurk/v2_DepthDuration_HTML.html#26,26,1366,625,1366,768,8-22-2022,8-7-2,56,depth_duration_stimuli/001132_2014-06-17_14-48-54_260595134347_rgbf000100-resize_2/001132_2014-06-17_14-48-54_260595134347_rgbf000100-resize_2-target.png,1000,3.753,0.3,10126,1007,feet,jsons/v1_VE1000_randls_28_rotated.json,1232603,1936810,45,Man
56,310905,DepthScenes,duration_manipulation_targetAtFixation,jsons/v1_VE1000_randls_28_rotated.json,http://54.235.29.9/FacialAge/BNav_EC2/DepthDuration/v2_depth_duration_MTurk/v2_DepthDuration_HTML.html#26,26,1366,625,1366,768,8-22-2022,8-7-2,57,depth_duration_stimuli/001133_2014-06-17_14-49-16_260595134347_rgbf000100-resize_0/001133_2014-06-17_14-49-16_260595134347_rgbf000100-resize_0-target.png,1000,4.2115,0.2,7551,1009,feet,jsons/v1_VE1000_randls_28_rotated.json,1232603,1936810,45,Man
57,310905,DepthScenes,duration_manipulation_targetAtFixation,jsons/v1_VE1000_randls_28_rotated.json,http://54.235.29.9/FacialAge/BNav_EC2/DepthDuration/v2_depth_duration_MTurk/v2_DepthDuration_HTML.html#26,26,1366,625,1366,768,8-22-2022,8-7-2,58,depth_duration_stimuli/002425_2014-06-28_20-27-29_260595134347_rgbf000031-resize_8/002425_2014-06-28_20-27-29_260595134347_rgbf000031-resize_8-target.png,1000,3.8960000000000004,0.3,5800,991,feet,jsons/v1_VE1000_randls_28_rotated.json,1232603,1936810,45,Man
58,310905,DepthScenes,duration_manipulation_targetAtFixation,jsons/v1_VE1000_randls_28_rotated.json,http://54.235.29.9/FacialAge/BNav_EC2/DepthDuration/v2_depth_duration_MTurk/v2_DepthDuration_HTML.html#26,26,1366,625,1366,768,8-22-2022,8-7-2,59,depth_duration_stimuli/000642_2014-06-08_16-59-25_260595134347_rgbf000098-resize_2/000642_2014-06-08_16-59-25_260595134347_rgbf000098-resize_2-target.png,1000,2.8815,0.2,8458,1003,feet,jsons/v1_VE1000_randls_28_rotated.json,1232603,1936810,45,Man
59,310905,DepthScenes,duration_manipulation_targetAtFixation,jsons/v1_VE1000_randls_28_rotated.json,http://54.235.29.9/FacialAge/BNav_EC2/DepthDuration/v2_depth_duration_MTurk/v2_DepthDuration_HTML.html#26,26,1366,625,1366,768,8-22-2022,8-7-2,60,depth_duration_stimuli/000780_2014-06-08_22-28-29_260595134347_rgbf000126-resize_1/000780_2014-06-08_22-28-29_260595134347_rgbf000126-resize_1-target.png,1000,3.3825,1.0,4136,987,feet,jsons/v1_VE1000_randls_28_rotated.json,1232603,1936810,45,Man
60,310905,DepthScenes,duration_manipulation_targetAtFixation,jsons/v1_VE1000_randls_28_rotated.json,http://54.235.29.9/FacialAge/BNav_EC2/DepthDuration/v2_depth_duration_MTurk/v2_DepthDuration_HTML.html#26,26,1366,625,1366,768,8-22-2022,8-7-2,61,depth_duration_stimuli/002445_2014-06-28_20-32-16_260595134347_rgbf000029-resize_4/002445_2014-06-28_20-32-16_260595134347_rgbf000029-resize_4-target.png,1000,2.5315,1.0,6839,986,feet,jsons/v1_VE1000_randls_28_rotated.json,1232603,1936810,45,Man
61,310905,DepthScenes,duration_manipulation_targetAtFixation,jsons/v1_VE1000_randls_28_rotated.json,http://54.235.29.9/FacialAge/BNav_EC2/DepthDuration/v2_depth_duration_MTurk/v2_DepthDuration_HTML.html#26,26,1366,625,1366,768,8-22-2022,8-7-2,62,depth_duration_stimuli/002758_2014-06-22_19-11-20_094959634447_rgbf000128-resize_1/002758_2014-06-22_19-11-20_094959634447_rgbf000128-resize_1-target.png,1000,2.555,0.3,9069,1000,feet,jsons/v1_VE1000_randls_28_rotated.json,1232603,1936810,45,Man
62,310905,DepthScenes,duration_manipulation_targetAtFixation,jsons/v1_VE1000_randls_28_rotated.json,http://54.235.29.9/FacialAge/BNav_EC2/DepthDuration/v2_depth_duration_MTurk/v2_DepthDuration_HTML.html#26,26,1366,625,1366,768,8-22-2022,8-7-2,63,depth_duration_stimuli/002630_2014-06-24_14-47-50_094959634447_rgbf000055-resize_1/002630_2014-06-24_14-47-50_094959634447_rgbf000055-resize_1-target.png,1000,3.0095,0.2,7757,989,feet,jsons/v1_VE1000_randls_28_rotated.json,1232603,1936810,45,Man
63,310905,DepthScenes,duration_manipulation_targetAtFixation,jsons/v1_VE1000_randls_28_rotated.json,http://54.235.29.9/FacialAge/BNav_EC2/DepthDuration/v2_depth_duration_MTurk/v2_DepthDuration_HTML.html#26,26,1366,625,1366,768,8-22-2022,8-7-2,64,depth_duration_stimuli/002953_2014-06-08_17-32-18_094959634447_rgbf000059-resize_5/002953_2014-06-08_17-32-18_094959634447_rgbf000059-resize_5-target.png,1000,1.551,0.2,7140,1000,feet,jsons/v1_VE1000_randls_28_rotated.json,1232603,1936810,45,Man
64,310905,DepthScenes,duration_manipulation_targetAtFixation,jsons/v1_VE1000_randls_28_rotated.json,http://54.235.29.9/FacialAge/BNav_EC2/DepthDuration/v2_depth_duration_MTurk/v2_DepthDuration_HTML.html#26,26,1366,625,1366,768,8-22-2022,8-7-2,65,depth_duration_stimuli/000878_2014-06-08_22-52-45_260595134347_rgbf000045-resize_2/000878_2014-06-08_22-52-45_260595134347_rgbf000045-resize_2-target.png,1000,2.092,0.1,7277,995,feet,jsons/v1_VE1000_randls_28_rotated.json,1232603,1936810,45,Man
65,310905,DepthScenes,duration_manipulation_targetAtFixation,jsons/v1_VE1000_randls_28_rotated.json,http://54.235.29.9/FacialAge/BNav_EC2/DepthDuration/v2_depth_duration_MTurk/v2_DepthDuration_HTML.html#26,26,1366,625,1366,768,8-22-2022,8-7-2,66,depth_duration_stimuli/001540_2014-06-20_17-01-05_260595134347_rgbf000086-resize_2/001540_2014-06-20_17-01-05_260595134347_rgbf000086-resize-original.jpg,1000,1.459,0.0,6833,998,feet,jsons/v1_VE1000_randls_28_rotated.json,1232603,1936810,45,Man
66,310905,DepthScenes,duration_manipulation_targetAtFixation,jsons/v1_VE1000_randls_28_rotated.json,http://54.235.29.9/FacialAge/BNav_EC2/DepthDuration/v2_depth_duration_MTurk/v2_DepthDuration_HTML.html#26,26,1366,625,1366,768,8-22-2022,8-7-2,67,depth_duration_stimuli/002344_2014-06-28_20-06-29_260595134347_rgbf000030-resize_1/002344_2014-06-28_20-06-29_260595134347_rgbf000030-resize_1-target.png,1000,1.5795,0.2,7610,997,feet,jsons/v1_VE1000_randls_28_rotated.json,1232603,1936810,45,Man
67,310905,DepthScenes,duration_manipulation_targetAtFixation,jsons/v1_VE1000_randls_28_rotated.json,http://54.235.29.9/FacialAge/BNav_EC2/DepthDuration/v2_depth_duration_MTurk/v2_DepthDuration_HTML.html#26,26,1366,625,1366,768,8-22-2022,8-7-2,68,depth_duration_stimuli/002725_2014-06-22_11-47-51_094959634447_rgbf000070-resize_1/002725_2014-06-22_11-47-51_094959634447_rgbf000070-resize_1-target.png,1000,2.195,0.3,7390,986,feet,jsons/v1_VE1000_randls_28_rotated.json,1232603,1936810,45,Man
68,310905,DepthScenes,duration_manipulation_targetAtFixation,jsons/v1_VE1000_randls_28_rotated.json,http://54.235.29.9/FacialAge/BNav_EC2/DepthDuration/v2_depth_duration_MTurk/v2_DepthDuration_HTML.html#26,26,1366,625,1366,768,8-22-2022,8-7-2,69,depth_duration_stimuli/000549_2014-06-08_22-10-24_260595134347_rgbf000247-resize_3/000549_2014-06-08_22-10-24_260595134347_rgbf000247-resize_3-target.png,1000,1.841,0.2,6739,999,feet,jsons/v1_VE1000_randls_28_rotated.json,1232603,1936810,45,Man
69,310905,DepthScenes,duration_manipulation_targetAtFixation,jsons/v1_VE1000_randls_28_rotated.json,http://54.235.29.9/FacialAge/BNav_EC2/DepthDuration/v2_depth_duration_MTurk/v2_DepthDuration_HTML.html#26,26,1366,625,1366,768,8-22-2022,8-7-2,70,depth_duration_stimuli/001055_2014-06-08_18-45-35_260595134347_rgbf000111-resize_4/001055_2014-06-08_18-45-35_260595134347_rgbf000111-resize_4-target.png,1000,2.4290000000000003,0.2,6132,992,feet,jsons/v1_VE1000_randls_28_rotated.json,1232603,1936810,45,Man
70,310905,DepthScenes,duration_manipulation_targetAtFixation,jsons/v1_VE1000_randls_28_rotated.json,http://54.235.29.9/FacialAge/BNav_EC2/DepthDuration/v2_depth_duration_MTurk/v2_DepthDuration_HTML.html#26,26,1366,625,1366,768,8-22-2022,8-7-2,71,depth_duration_stimuli/001516_2014-06-20_16-25-09_260595134347_rgbf000076-resize_2/001516_2014-06-20_16-25-09_260595134347_rgbf000076-resize_2-target.png,1000,1.7445,0.3,5517,998,feet,jsons/v1_VE1000_randls_28_rotated.json,1232603,1936810,45,Man
71,310905,DepthScenes,duration_manipulation_targetAtFixation,jsons/v1_VE1000_randls_28_rotated.json,http://54.235.29.9/FacialAge/BNav_EC2/DepthDuration/v2_depth_duration_MTurk/v2_DepthDuration_HTML.html#26,26,1366,625,1366,768,8-22-2022,8-7-2,72,depth_duration_stimuli/002118_2014-06-25_20-32-08_260595134347_rgbf000078-resize_1/002118_2014-06-25_20-32-08_260595134347_rgbf000078-resize_1-target.png,1000,2.6460000000000004,0.1,8915,996,feet,jsons/v1_VE1000_randls_28_rotated.json,1232603,1936810,45,Man
72,310905,DepthScenes,duration_manipulation_targetAtFixation,jsons/v1_VE1000_randls_28_rotated.json,http://54.235.29.9/FacialAge/BNav_EC2/DepthDuration/v2_depth_duration_MTurk/v2_DepthDuration_HTML.html#26,26,1366,625,1366,768,8-22-2022,8-7-2,73,depth_duration_stimuli/001828_2014-06-26_21-40-03_260595134347_rgbf000024-resize_0/001828_2014-06-26_21-40-03_260595134347_rgbf000024-resize_0-target.png,1000,4.8260000000000005,0.0,4752,993,feet,jsons/v1_VE1000_randls_28_rotated.json,1232603,1936810,45,Man
73,310905,DepthScenes,duration_manipulation_targetAtFixation,jsons/v1_VE1000_randls_28_rotated.json,http://54.235.29.9/FacialAge/BNav_EC2/DepthDuration/v2_depth_duration_MTurk/v2_DepthDuration_HTML.html#26,26,1366,625,1366,768,8-22-2022,8-7-2,74,depth_duration_stimuli/000009_2014-05-26_14-32-05_260595134347_rgbf000034-resize_3/000009_2014-05-26_14-32-05_260595134347_rgbf000034-resize_3-target.png,1000,3.8715,1.0,5062,999,feet,jsons/v1_VE1000_randls_28_rotated.json,1232603,1936810,45,Man
74,310905,DepthScenes,duration_manipulation_targetAtFixation,jsons/v1_VE1000_randls_28_rotated.json,http://54.235.29.9/FacialAge/BNav_EC2/DepthDuration/v2_depth_duration_MTurk/v2_DepthDuration_HTML.html#26,26,1366,625,1366,768,8-22-2022,8-7-2,75,depth_duration_stimuli/000109_2014-05-14_23-41-52_260595134347_rgbf000035-resize_9/000109_2014-05-14_23-41-52_260595134347_rgbf000035-resize_9-target.png,1000,1.3545,0.2,5244,997,feet,jsons/v1_VE1000_randls_28_rotated.json,1232603,1936810,45,Man
75,310905,DepthScenes,duration_manipulation_targetAtFixation,jsons/v1_VE1000_randls_28_rotated.json,http://54.235.29.9/FacialAge/BNav_EC2/DepthDuration/v2_depth_duration_MTurk/v2_DepthDuration_HTML.html#26,26,1366,625,1366,768,8-22-2022,8-7-2,76,depth_duration_stimuli/000470_2014-06-09_19-42-40_260595134347_rgbf000094-resize_1/000470_2014-06-09_19-42-40_260595134347_rgbf000094-resize_1-target.png,1000,1.831,0.3,5792,987,feet,jsons/v1_VE1000_randls_28_rotated.json,1232603,1936810,45,Man
76,310905,DepthScenes,duration_manipulation_targetAtFixation,jsons/v1_VE1000_randls_28_rotated.json,http://54.235.29.9/FacialAge/BNav_EC2/DepthDuration/v2_depth_duration_MTurk/v2_DepthDuration_HTML.html#26,26,1366,625,1366,768,8-22-2022,8-7-2,77,depth_duration_stimuli/001815_2014-06-26_20-52-55_260595134347_rgbf000020-resize_0/001815_2014-06-26_20-52-55_260595134347_rgbf000020-resize_0-target.png,1000,3.3865,1.0,6009,993,feet,jsons/v1_VE1000_randls_28_rotated.json,1232603,1936810,45,Man
77,310905,DepthScenes,duration_manipulation_targetAtFixation,jsons/v1_VE1000_randls_28_rotated.json,http://54.235.29.9/FacialAge/BNav_EC2/DepthDuration/v2_depth_duration_MTurk/v2_DepthDuration_HTML.html#26,26,1366,625,1366,768,8-22-2022,8-7-2,78,depth_duration_stimuli/001808_2014-06-26_20-50-58_260595134347_rgbf000029-resize_1/001808_2014-06-26_20-50-58_260595134347_rgbf000029-resize_1-target.png,1000,4.249,0.0,5059,999,feet,jsons/v1_VE1000_randls_28_rotated.json,1232603,1936810,45,Man
78,310905,DepthScenes,duration_manipulation_targetAtFixation,jsons/v1_VE1000_randls_28_rotated.json,http://54.235.29.9/FacialAge/BNav_EC2/DepthDuration/v2_depth_duration_MTurk/v2_DepthDuration_HTML.html#26,26,1366,625,1366,768,8-22-2022,8-7-2,79,depth_duration_stimuli/000502_2014-06-08_23-02-32_260595134347_rgbf000063-resize_4/000502_2014-06-08_23-02-32_260595134347_rgbf000063-resize_4-target.png,1000,2.431,0.3,9987,1006,feet,jsons/v1_VE1000_randls_28_rotated.json,1232603,1936810,45,Man
79,310905,DepthScenes,duration_manipulation_targetAtFixation,jsons/v1_VE1000_randls_28_rotated.json,http://54.235.29.9/FacialAge/BNav_EC2/DepthDuration/v2_depth_duration_MTurk/v2_DepthDuration_HTML.html#26,26,1366,625,1366,768,8-22-2022,8-7-2,80,depth_duration_stimuli/001199_2014-06-17_16-03-48_260595134347_rgbf000077-resize_0/001199_2014-06-17_16-03-48_260595134347_rgbf000077-resize_0-target.png,1000,3.4375,0.4,5384,1004,feet,jsons/v1_VE1000_randls_28_rotated.json,1232603,1936810,45,Man
80,310905,DepthScenes,duration_manipulation_targetAtFixation,jsons/v1_VE1000_randls_28_rotated.json,http://54.235.29.9/FacialAge/BNav_EC2/DepthDuration/v2_depth_duration_MTurk/v2_DepthDuration_HTML.html#26,26,1366,625,1366,768,8-22-2022,8-7-2,81,depth_duration_stimuli/003048_2014-06-15_13-49-43_094959634447_rgbf000150-resize_1/003048_2014-06-15_13-49-43_094959634447_rgbf000150-resize_1-target.png,1000,4.0035,0.1,6454,981,feet,jsons/v1_VE1000_randls_28_rotated.json,1232603,1936810,45,Man
81,310905,DepthScenes,duration_manipulation_targetAtFixation,jsons/v1_VE1000_randls_28_rotated.json,http://54.235.29.9/FacialAge/BNav_EC2/DepthDuration/v2_depth_duration_MTurk/v2_DepthDuration_HTML.html#26,26,1366,625,1366,768,8-22-2022,8-7-2,82,depth_duration_stimuli/002043_2014-06-24_20-29-38_260595134347_rgbf000039-resize_4/002043_2014-06-24_20-29-38_260595134347_rgbf000039-resize_4-target.png,1000,2.8435,0.0,5272,994,feet,jsons/v1_VE1000_randls_28_rotated.json,1232603,1936810,45,Man
82,310905,DepthScenes,duration_manipulation_targetAtFixation,jsons/v1_VE1000_randls_28_rotated.json,http://54.235.29.9/FacialAge/BNav_EC2/DepthDuration/v2_depth_duration_MTurk/v2_DepthDuration_HTML.html#26,26,1366,625,1366,768,8-22-2022,8-7-2,83,depth_duration_stimuli/000691_2014-06-08_13-08-50_260595134347_rgbf000132-resize_3/000691_2014-06-08_13-08-50_260595134347_rgbf000132-resize_3-target.png,1000,4.1530000000000005,0.3,6090,1002,feet,jsons/v1_VE1000_randls_28_rotated.json,1232603,1936810,45,Man
83,310905,DepthScenes,duration_manipulation_targetAtFixation,jsons/v1_VE1000_randls_28_rotated.json,http://54.235.29.9/FacialAge/BNav_EC2/DepthDuration/v2_depth_duration_MTurk/v2_DepthDuration_HTML.html#26,26,1366,625,1366,768,8-22-2022,8-7-2,84,depth_duration_stimuli/002213_2014-06-28_18-37-58_260595134347_rgbf000055-resize_1/002213_2014-06-28_18-37-58_260595134347_rgbf000055-resize_1-target.png,1000,3.62,0.4,4924,1012,feet,jsons/v1_VE1000_randls_28_rotated.json,1232603,1936810,45,Man
84,310905,DepthScenes,duration_manipulation_targetAtFixation,jsons/v1_VE1000_randls_28_rotated.json,http://54.235.29.9/FacialAge/BNav_EC2/DepthDuration/v2_depth_duration_MTurk/v2_DepthDuration_HTML.html#26,26,1366,625,1366,768,8-22-2022,8-7-2,85,depth_duration_stimuli/001235_2014-06-17_16-37-36_260595134347_rgbf000084-resize_4/001235_2014-06-17_16-37-36_260595134347_rgbf000084-resize_4-target.png,1000,3.6605,0.4,4775,992,feet,jsons/v1_VE1000_randls_28_rotated.json,1232603,1936810,45,Man
85,310905,DepthScenes,duration_manipulation_targetAtFixation,jsons/v1_VE1000_randls_28_rotated.json,http://54.235.29.9/FacialAge/BNav_EC2/DepthDuration/v2_depth_duration_MTurk/v2_DepthDuration_HTML.html#26,26,1366,625,1366,768,8-22-2022,8-7-2,86,depth_duration_stimuli/000788_2014-06-08_22-34-36_260595134347_rgbf000131-resize_1/000788_2014-06-08_22-34-36_260595134347_rgbf000131-resize_1-target.png,1000,3.359,0.0,6445,1011,feet,jsons/v1_VE1000_randls_28_rotated.json,1232603,1936810,45,Man
86,310905,DepthScenes,duration_manipulation_targetAtFixation,jsons/v1_VE1000_randls_28_rotated.json,http://54.235.29.9/FacialAge/BNav_EC2/DepthDuration/v2_depth_duration_MTurk/v2_DepthDuration_HTML.html#26,26,1366,625,1366,768,8-22-2022,8-7-2,87,depth_duration_stimuli/002875_2014-06-01_15-19-00_094959634447_rgbf000151-resize_1/002875_2014-06-01_15-19-00_094959634447_rgbf000151-resize_1-target.png,1000,1.9675,0.2,8781,1000,feet,jsons/v1_VE1000_randls_28_rotated.json,1232603,1936810,45,Man
87,310905,DepthScenes,duration_manipulation_targetAtFixation,jsons/v1_VE1000_randls_28_rotated.json,http://54.235.29.9/FacialAge/BNav_EC2/DepthDuration/v2_depth_duration_MTurk/v2_DepthDuration_HTML.html#26,26,1366,625,1366,768,8-22-2022,8-7-2,88,depth_duration_stimuli/001011_2014-06-08_23-18-54_260595134347_rgbf000044-resize_4/001011_2014-06-08_23-18-54_260595134347_rgbf000044-resize_4-target.png,1000,2.4730000000000003,0.0,3934,1005,feet,jsons/v1_VE1000_randls_28_rotated.json,1232603,1936810,45,Man
88,310905,DepthScenes,duration_manipulation_targetAtFixation,jsons/v1_VE1000_randls_28_rotated.json,http://54.235.29.9/FacialAge/BNav_EC2/DepthDuration/v2_depth_duration_MTurk/v2_DepthDuration_HTML.html#26,26,1366,625,1366,768,8-22-2022,8-7-2,89,depth_duration_stimuli/002637_2014-06-24_14-51-13_094959634447_rgbf000066-resize_4/002637_2014-06-24_14-51-13_094959634447_rgbf000066-resize_4-target.png,1000,1.9955,0.3,5815,993,feet,jsons/v1_VE1000_randls_28_rotated.json,1232603,1936810,45,Man
89,310905,DepthScenes,duration_manipulation_targetAtFixation,jsons/v1_VE1000_randls_28_rotated.json,http://54.235.29.9/FacialAge/BNav_EC2/DepthDuration/v2_depth_duration_MTurk/v2_DepthDuration_HTML.html#26,26,1366,625,1366,768,8-22-2022,8-7-2,90,depth_duration_stimuli/003534_2014-05-22_15-06-10_094959634447_rgbf000102-resize_4/003534_2014-05-22_15-06-10_094959634447_rgbf000102-resize_4-target.png,1000,1.426,0.2,4784,1004,feet,jsons/v1_VE1000_randls_28_rotated.json,1232603,1936810,45,Man
90,310905,DepthScenes,duration_manipulation_targetAtFixation,jsons/v1_VE1000_randls_28_rotated.json,http://54.235.29.9/FacialAge/BNav_EC2/DepthDuration/v2_depth_duration_MTurk/v2_DepthDuration_HTML.html#26,26,1366,625,1366,768,8-22-2022,8-7-2,91,depth_duration_stimuli/002805_2014-06-22_19-54-03_094959634447_rgbf000079-resize_1/002805_2014-06-22_19-54-03_094959634447_rgbf000079-resize_1-target.png,1000,3.1439999999999997,0.0,3813,1009,feet,jsons/v1_VE1000_randls_28_rotated.json,1232603,1936810,45,Man
91,310905,DepthScenes,duration_manipulation_targetAtFixation,jsons/v1_VE1000_randls_28_rotated.json,http://54.235.29.9/FacialAge/BNav_EC2/DepthDuration/v2_depth_duration_MTurk/v2_DepthDuration_HTML.html#26,26,1366,625,1366,768,8-22-2022,8-7-2,92,depth_duration_stimuli/000906_2014-06-08_13-35-43_260595134347_rgbf000155-resize_1/000906_2014-06-08_13-35-43_260595134347_rgbf000155-resize_1-target.png,1000,2.8489999999999998,0.3,7345,1011,feet,jsons/v1_VE1000_randls_28_rotated.json,1232603,1936810,45,Man
92,310905,DepthScenes,duration_manipulation_targetAtFixation,jsons/v1_VE1000_randls_28_rotated.json,http://54.235.29.9/FacialAge/BNav_EC2/DepthDuration/v2_depth_duration_MTurk/v2_DepthDuration_HTML.html#26,26,1366,625,1366,768,8-22-2022,8-7-2,93,depth_duration_stimuli/000103_2014-05-14_22-01-17_260595134347_rgbf000152-resize_5/000103_2014-05-14_22-01-17_260595134347_rgbf000152-resize_5-target.png,1000,1.993,0.0,3706,1005,feet,jsons/v1_VE1000_randls_28_rotated.json,1232603,1936810,45,Man
93,310905,DepthScenes,duration_manipulation_targetAtFixation,jsons/v1_VE1000_randls_28_rotated.json,http://54.235.29.9/FacialAge/BNav_EC2/DepthDuration/v2_depth_duration_MTurk/v2_DepthDuration_HTML.html#26,26,1366,625,1366,768,8-22-2022,8-7-2,94,depth_duration_stimuli/001555_2014-06-20_17-12-10_260595134347_rgbf000065-resize_4/001555_2014-06-20_17-12-10_260595134347_rgbf000065-resize_4-target.png,1000,1.633,0.0,6635,1007,feet,jsons/v1_VE1000_randls_28_rotated.json,1232603,1936810,45,Man
94,310905,DepthScenes,duration_manipulation_targetAtFixation,jsons/v1_VE1000_randls_28_rotated.json,http://54.235.29.9/FacialAge/BNav_EC2/DepthDuration/v2_depth_duration_MTurk/v2_DepthDuration_HTML.html#26,26,1366,625,1366,768,8-22-2022,8-7-2,95,depth_duration_stimuli/002678_2014-06-13_16-15-32_094959634447_rgbf000151-resize_6/002678_2014-06-13_16-15-32_094959634447_rgbf000151-resize_6-target.png,1000,2.1830000000000003,0.3,6606,1008,feet,jsons/v1_VE1000_randls_28_rotated.json,1232603,1936810,45,Man
95,310905,DepthScenes,duration_manipulation_targetAtFixation,jsons/v1_VE1000_randls_28_rotated.json,http://54.235.29.9/FacialAge/BNav_EC2/DepthDuration/v2_depth_duration_MTurk/v2_DepthDuration_HTML.html#26,26,1366,625,1366,768,8-22-2022,8-7-2,96,depth_duration_stimuli/000368_2014-06-09_15-53-01_260595134347_rgbf000155-resize_2/000368_2014-06-09_15-53-01_260595134347_rgbf000155-resize_2-target.png,1000,2.4859999999999998,0.2,4903,1012,feet,jsons/v1_VE1000_randls_28_rotated.json,1232603,1936810,45,Man
96,310905,DepthScenes,duration_manipulation_targetAtFixation,jsons/v1_VE1000_randls_28_rotated.json,http://54.235.29.9/FacialAge/BNav_EC2/DepthDuration/v2_depth_duration_MTurk/v2_DepthDuration_HTML.html#26,26,1366,625,1366,768,8-22-2022,8-7-2,97,depth_duration_stimuli/002568_2014-06-24_13-59-21_094959634447_rgbf000062-resize_4/002568_2014-06-24_13-59-21_094959634447_rgbf000062-resize_4-target.png,1000,3.015,0.3,5346,999,feet,jsons/v1_VE1000_randls_28_rotated.json,1232603,1936810,45,Man
97,310905,DepthScenes,duration_manipulation_targetAtFixation,jsons/v1_VE1000_randls_28_rotated.json,http://54.235.29.9/FacialAge/BNav_EC2/DepthDuration/v2_depth_duration_MTurk/v2_DepthDuration_HTML.html#26,26,1366,625,1366,768,8-22-2022,8-7-2,98,depth_duration_stimuli/003492_2014-05-21_15-50-55_094959634447_rgbf000828-resize_1/003492_2014-05-21_15-50-55_094959634447_rgbf000828-resize_1-target.png,1000,4.06875,1.0,3743,1010,feet,jsons/v1_VE1000_randls_28_rotated.json,1232603,1936810,45,Man
98,310905,DepthScenes,duration_manipulation_targetAtFixation,jsons/v1_VE1000_randls_28_rotated.json,http://54.235.29.9/FacialAge/BNav_EC2/DepthDuration/v2_depth_duration_MTurk/v2_DepthDuration_HTML.html#26,26,1366,625,1366,768,8-22-2022,8-7-2,99,depth_duration_stimuli/001222_2014-06-17_16-24-06_260595134347_rgbf000073-resize_0/001222_2014-06-17_16-24-06_260595134347_rgbf000073-resize-original.jpg,1000,1.4385,0.0,5370,1001,feet,jsons/v1_VE1000_randls_28_rotated.json,1232603,1936810,45,Man
99,310905,DepthScenes,duration_manipulation_targetAtFixation,jsons/v1_VE1000_randls_28_rotated.json,http://54.235.29.9/FacialAge/BNav_EC2/DepthDuration/v2_depth_duration_MTurk/v2_DepthDuration_HTML.html#26,26,1366,625,1366,768,8-22-2022,8-7-2,100,depth_duration_stimuli/000457_2014-06-08_16-52-43_260595134347_rgbf000199-resize_1/000457_2014-06-08_16-52-43_260595134347_rgbf000199-resize_1-target.png,1000,3.6489999999999996,0.4,6373,1000,feet,jsons/v1_VE1000_randls_28_rotated.json,1232603,1936810,45,Man
100,310905,DepthScenes,duration_manipulation_targetAtFixation,jsons/v1_VE1000_randls_28_rotated.json,http://54.235.29.9/FacialAge/BNav_EC2/DepthDuration/v2_depth_duration_MTurk/v2_DepthDuration_HTML.html#26,26,1366,625,1366,768,8-22-2022,8-7-2,101,depth_duration_stimuli/000929_2014-06-09_16-33-19_260595134347_rgbf000139-resize_0/000929_2014-06-09_16-33-19_260595134347_rgbf000139-resize_0-target.png,1000,2.8680000000000003,0.2,5408,1012,feet,jsons/v1_VE1000_randls_28_rotated.json,1232603,1936810,45,Man
101,310905,DepthScenes,duration_manipulation_targetAtFixation,jsons/v1_VE1000_randls_28_rotated.json,http://54.235.29.9/FacialAge/BNav_EC2/DepthDuration/v2_depth_duration_MTurk/v2_DepthDuration_HTML.html#26,26,1366,625,1366,768,8-22-2022,8-7-2,102,depth_duration_stimuli/001100_2014-06-15_17-46-26_260595134347_rgbf000225-resize_2/001100_2014-06-15_17-46-26_260595134347_rgbf000225-resize_2-target.png,1000,2.24,0.5,5141,994,feet,jsons/v1_VE1000_randls_28_rotated.json,1232603,1936810,45,Man
102,310905,DepthScenes,duration_manipulation_targetAtFixation,jsons/v1_VE1000_randls_28_rotated.json,http://54.235.29.9/FacialAge/BNav_EC2/DepthDuration/v2_depth_duration_MTurk/v2_DepthDuration_HTML.html#26,26,1366,625,1366,768,8-22-2022,8-7-2,103,depth_duration_stimuli/002784_2014-06-22_19-26-30_094959634447_rgbf000083-resize_3/002784_2014-06-22_19-26-30_094959634447_rgbf000083-resize_3-target.png,1000,1.8046666666667,0.0,5067,999,feet,jsons/v1_VE1000_randls_28_rotated.json,1232603,1936810,45,Man
103,310905,DepthScenes,duration_manipulation_targetAtFixation,jsons/v1_VE1000_randls_28_rotated.json,http://54.235.29.9/FacialAge/BNav_EC2/DepthDuration/v2_depth_duration_MTurk/v2_DepthDuration_HTML.html#26,26,1366,625,1366,768,8-22-2022,8-7-2,104,depth_duration_stimuli/000677_2014-06-08_23-10-32_260595134347_rgbf000158-resize_6/000677_2014-06-08_23-10-32_260595134347_rgbf000158-resize_6-target.png,1000,3.556,0.2,5485,988,feet,jsons/v1_VE1000_randls_28_rotated.json,1232603,1936810,45,Man
104,310905,DepthScenes,duration_manipulation_targetAtFixation,jsons/v1_VE1000_randls_28_rotated.json,http://54.235.29.9/FacialAge/BNav_EC2/DepthDuration/v2_depth_duration_MTurk/v2_DepthDuration_HTML.html#26,26,1366,625,1366,768,8-22-2022,8-7-2,105,depth_duration_stimuli/001029_2014-06-08_13-17-57_260595134347_rgbf000065-resize_1/001029_2014-06-08_13-17-57_260595134347_rgbf000065-resize_1-target.png,1000,3.0835,0.4,7312,1006,feet,jsons/v1_VE1000_randls_28_rotated.json,1232603,1936810,45,Man
105,310905,DepthScenes,duration_manipulation_targetAtFixation,jsons/v1_VE1000_randls_28_rotated.json,http://54.235.29.9/FacialAge/BNav_EC2/DepthDuration/v2_depth_duration_MTurk/v2_DepthDuration_HTML.html#26,26,1366,625,1366,768,8-22-2022,8-7-2,106,depth_duration_stimuli/003129_2014-05-12_10-48-10_094959634447_rgbf000100-resize_0/003129_2014-05-12_10-48-10_094959634447_rgbf000100-resize_0-target.png,1000,4.9305,0.3,10222,1006,feet,jsons/v1_VE1000_randls_28_rotated.json,1232603,1936810,45,Man
106,310905,DepthScenes,duration_manipulation_targetAtFixation,jsons/v1_VE1000_randls_28_rotated.json,http://54.235.29.9/FacialAge/BNav_EC2/DepthDuration/v2_depth_duration_MTurk/v2_DepthDuration_HTML.html#26,26,1366,625,1366,768,8-22-2022,8-7-2,107,depth_duration_stimuli/000414_2014-06-04_19-49-13_260595134347_rgbf000044-resize_0/000414_2014-06-04_19-49-13_260595134347_rgbf000044-resize_0-target.png,1000,4.329,1.0,5217,984,feet,jsons/v1_VE1000_randls_28_rotated.json,1232603,1936810,45,Man
107,310905,DepthScenes,duration_manipulation_targetAtFixation,jsons/v1_VE1000_randls_28_rotated.json,http://54.235.29.9/FacialAge/BNav_EC2/DepthDuration/v2_depth_duration_MTurk/v2_DepthDuration_HTML.html#26,26,1366,625,1366,768,8-22-2022,8-7-2,108,depth_duration_stimuli/003083_2014-06-15_15-21-03_094959634447_rgbf000063-resize_1/003083_2014-06-15_15-21-03_094959634447_rgbf000063-resize_1-target.png,1000,4.1405,1.0,4794,1009,feet,jsons/v1_VE1000_randls_28_rotated.json,1232603,1936810,45,Man
108,310905,DepthScenes,duration_manipulation_targetAtFixation,jsons/v1_VE1000_randls_28_rotated.json,http://54.235.29.9/FacialAge/BNav_EC2/DepthDuration/v2_depth_duration_MTurk/v2_DepthDuration_HTML.html#26,26,1366,625,1366,768,8-22-2022,8-7-2,109,depth_duration_stimuli/000486_2014-06-09_20-47-20_260595134347_rgbf000143-resize_2/000486_2014-06-09_20-47-20_260595134347_rgbf000143-resize_2-target.png,1000,4.8325,0.0,5035,1005,feet,jsons/v1_VE1000_randls_28_rotated.json,1232603,1936810,45,Man
109,310905,DepthScenes,duration_manipulation_targetAtFixation,jsons/v1_VE1000_randls_28_rotated.json,http://54.235.29.9/FacialAge/BNav_EC2/DepthDuration/v2_depth_duration_MTurk/v2_DepthDuration_HTML.html#26,26,1366,625,1366,768,8-22-2022,8-7-2,110,depth_duration_stimuli/002639_2014-06-24_14-51-37_094959634447_rgbf000074-resize_4/002639_2014-06-24_14-51-37_094959634447_rgbf000074-resize_4-target.png,1000,4.0375,1.0,4261,991,feet,jsons/v1_VE1000_randls_28_rotated.json,1232603,1936810,45,Man
110,310905,DepthScenes,duration_manipulation_targetAtFixation,jsons/v1_VE1000_randls_28_rotated.json,http://54.235.29.9/FacialAge/BNav_EC2/DepthDuration/v2_depth_duration_MTurk/v2_DepthDuration_HTML.html#26,26,1366,625,1366,768,8-22-2022,8-7-2,111,depth_duration_stimuli/003292_2014-05-14_21-53-49_094959634447_rgbf000100-resize_2/003292_2014-05-14_21-53-49_094959634447_rgbf000100-resize_2-target.png,1000,3.4815,0.2,5649,998,feet,jsons/v1_VE1000_randls_28_rotated.json,1232603,1936810,45,Man
111,310905,DepthScenes,duration_manipulation_targetAtFixation,jsons/v1_VE1000_randls_28_rotated.json,http://54.235.29.9/FacialAge/BNav_EC2/DepthDuration/v2_depth_duration_MTurk/v2_DepthDuration_HTML.html#26,26,1366,625,1366,768,8-22-2022,8-7-2,112,depth_duration_stimuli/003228_2014-05-14_13-42-35_094959634447_rgbf000101-resize_1/003228_2014-05-14_13-42-35_094959634447_rgbf000101-resize_1-target.png,1000,1.9680000000000002,0.3,6545,993,feet,jsons/v1_VE1000_randls_28_rotated.json,1232603,1936810,45,Man
112,310905,DepthScenes,duration_manipulation_targetAtFixation,jsons/v1_VE1000_randls_28_rotated.json,http://54.235.29.9/FacialAge/BNav_EC2/DepthDuration/v2_depth_duration_MTurk/v2_DepthDuration_HTML.html#26,26,1366,625,1366,768,8-22-2022,8-7-2,113,depth_duration_stimuli/002600_2014-06-24_14-27-04_094959634447_rgbf000074-resize_2/002600_2014-06-24_14-27-04_094959634447_rgbf000074-resize_2-target.png,1000,2.7575,0.3,8371,997,feet,jsons/v1_VE1000_randls_28_rotated.json,1232603,1936810,45,Man
113,310905,DepthScenes,duration_manipulation_targetAtFixation,jsons/v1_VE1000_randls_28_rotated.json,http://54.235.29.9/FacialAge/BNav_EC2/DepthDuration/v2_depth_duration_MTurk/v2_DepthDuration_HTML.html#26,26,1366,625,1366,768,8-22-2022,8-7-2,114,depth_duration_stimuli/002103_2014-06-25_20-00-40_260595134347_rgbf000049-resize_0/002103_2014-06-25_20-00-40_260595134347_rgbf000049-resize_0-target.png,1000,4.105,0.5,5980,985,feet,jsons/v1_VE1000_randls_28_rotated.json,1232603,1936810,45,Man
114,310905,DepthScenes,duration_manipulation_targetAtFixation,jsons/v1_VE1000_randls_28_rotated.json,http://54.235.29.9/FacialAge/BNav_EC2/DepthDuration/v2_depth_duration_MTurk/v2_DepthDuration_HTML.html#26,26,1366,625,1366,768,8-22-2022,8-7-2,115,depth_duration_stimuli/002039_2014-06-24_20-22-38_260595134347_rgbf000084-resize_1/002039_2014-06-24_20-22-38_260595134347_rgbf000084-resize_1-target.png,1000,4.408,0.3,6577,1003,feet,jsons/v1_VE1000_randls_28_rotated.json,1232603,1936810,45,Man
115,310905,DepthScenes,duration_manipulation_targetAtFixation,jsons/v1_VE1000_randls_28_rotated.json,http://54.235.29.9/FacialAge/BNav_EC2/DepthDuration/v2_depth_duration_MTurk/v2_DepthDuration_HTML.html#26,26,1366,625,1366,768,8-22-2022,8-7-2,116,depth_duration_stimuli/002995_2014-06-15_12-31-26_094959634447_rgbf000150-resize_1/002995_2014-06-15_12-31-26_094959634447_rgbf000150-resize_1-target.png,1000,3.8360000000000003,0.2,6163,1001,feet,jsons/v1_VE1000_randls_28_rotated.json,1232603,1936810,45,Man
116,310905,DepthScenes,duration_manipulation_targetAtFixation,jsons/v1_VE1000_randls_28_rotated.json,http://54.235.29.9/FacialAge/BNav_EC2/DepthDuration/v2_depth_duration_MTurk/v2_DepthDuration_HTML.html#26,26,1366,625,1366,768,8-22-2022,8-7-2,117,depth_duration_stimuli/002748_2014-06-22_19-07-22_094959634447_rgbf000078-resize_1/002748_2014-06-22_19-07-22_094959634447_rgbf000078-resize_1-target.png,1000,4.6705,0.3,7724,1001,feet,jsons/v1_VE1000_randls_28_rotated.json,1232603,1936810,45,Man
117,310905,DepthScenes,duration_manipulation_targetAtFixation,jsons/v1_VE1000_randls_28_rotated.json,http://54.235.29.9/FacialAge/BNav_EC2/DepthDuration/v2_depth_duration_MTurk/v2_DepthDuration_HTML.html#26,26,1366,625,1366,768,8-22-2022,8-7-2,118,depth_duration_stimuli/001052_2014-06-08_18-24-54_260595134347_rgbf000130-resize_1/001052_2014-06-08_18-24-54_260595134347_rgbf000130-resize_1-target.png,1000,4.1045,0.3,10265,1002,feet,jsons/v1_VE1000_randls_28_rotated.json,1232603,1936810,45,Man
118,310905,DepthScenes,duration_manipulation_targetAtFixation,jsons/v1_VE1000_randls_28_rotated.json,http://54.235.29.9/FacialAge/BNav_EC2/DepthDuration/v2_depth_duration_MTurk/v2_DepthDuration_HTML.html#26,26,1366,625,1366,768,8-22-2022,8-7-2,119,depth_duration_stimuli/002988_2014-06-15_12-24-20_094959634447_rgbf000150-resize_1/002988_2014-06-15_12-24-20_094959634447_rgbf000150-resize_1-target.png,1000,4.7669999999999995,0.1,9882,1002,feet,jsons/v1_VE1000_randls_28_rotated.json,1232603,1936810,45,Man
119,310905,DepthScenes,duration_manipulation_targetAtFixation,jsons/v1_VE1000_randls_28_rotated.json,http://54.235.29.9/FacialAge/BNav_EC2/DepthDuration/v2_depth_duration_MTurk/v2_DepthDuration_HTML.html#26,26,1366,625,1366,768,8-22-2022,8-7-2,120,depth_duration_stimuli/000787_2014-06-08_22-33-53_260595134347_rgbf000175-resize_1/000787_2014-06-08_22-33-53_260595134347_rgbf000175-resize-original.jpg,1000,4.784,0.0,4393,1000,feet,jsons/v1_VE1000_randls_28_rotated.json,1232603,1936810,45,Man
120,310905,DepthScenes,duration_manipulation_targetAtFixation,jsons/v1_VE1000_randls_28_rotated.json,http://54.235.29.9/FacialAge/BNav_EC2/DepthDuration/v2_depth_duration_MTurk/v2_DepthDuration_HTML.html#26,26,1366,625,1366,768,8-22-2022,8-7-2,121,depth_duration_stimuli/001571_2014-06-20_17-21-32_260595134347_rgbf000089-resize_1/001571_2014-06-20_17-21-32_260595134347_rgbf000089-resize_1-target.png,1000,1.86,0.1,5743,1006,feet,jsons/v1_VE1000_randls_28_rotated.json,1232603,1936810,45,Man
121,310905,DepthScenes,duration_manipulation_targetAtFixation,jsons/v1_VE1000_randls_28_rotated.json,http://54.235.29.9/FacialAge/BNav_EC2/DepthDuration/v2_depth_duration_MTurk/v2_DepthDuration_HTML.html#26,26,1366,625,1366,768,8-22-2022,8-7-2,122,depth_duration_stimuli/002272_2014-06-28_18-53-56_260595134347_rgbf000067-resize_2/002272_2014-06-28_18-53-56_260595134347_rgbf000067-resize_2-target.png,1000,1.138,0.2,6116,988,feet,jsons/v1_VE1000_randls_28_rotated.json,1232603,1936810,45,Man
122,310905,DepthScenes,duration_manipulation_targetAtFixation,jsons/v1_VE1000_randls_28_rotated.json,http://54.235.29.9/FacialAge/BNav_EC2/DepthDuration/v2_depth_duration_MTurk/v2_DepthDuration_HTML.html#26,26,1366,625,1366,768,8-22-2022,8-7-2,123,depth_duration_stimuli/002545_2014-06-24_13-38-53_094959634447_rgbf000080-resize_4/002545_2014-06-24_13-38-53_094959634447_rgbf000080-resize_4-target.png,1000,1.9205,0.2,7692,993,feet,jsons/v1_VE1000_randls_28_rotated.json,1232603,1936810,45,Man
123,310905,DepthScenes,duration_manipulation_targetAtFixation,jsons/v1_VE1000_randls_28_rotated.json,http://54.235.29.9/FacialAge/BNav_EC2/DepthDuration/v2_depth_duration_MTurk/v2_DepthDuration_HTML.html#26,26,1366,625,1366,768,8-22-2022,8-7-2,124,depth_duration_stimuli/001092_2014-06-15_17-34-58_260595134347_rgbf000171-resize_3/001092_2014-06-15_17-34-58_260595134347_rgbf000171-resize_3-target.png,1000,2.6935,0.2,12965,1003,feet,jsons/v1_VE1000_randls_28_rotated.json,1232603,1936810,45,Man
124,310905,DepthScenes,duration_manipulation_targetAtFixation,jsons/v1_VE1000_randls_28_rotated.json,http://54.235.29.9/FacialAge/BNav_EC2/DepthDuration/v2_depth_duration_MTurk/v2_DepthDuration_HTML.html#26,26,1366,625,1366,768,8-22-2022,8-7-2,125,depth_duration_stimuli/003079_2014-06-15_15-18-20_094959634447_rgbf000152-resize_8/003079_2014-06-15_15-18-20_094959634447_rgbf000152-resize_8-target.png,1000,2.8775,0.3,12002,994,feet,jsons/v1_VE1000_randls_28_rotated.json,1232603,1936810,45,Man
125,310905,DepthScenes,duration_manipulation_targetAtFixation,jsons/v1_VE1000_randls_28_rotated.json,http://54.235.29.9/FacialAge/BNav_EC2/DepthDuration/v2_depth_duration_MTurk/v2_DepthDuration_HTML.html#26,26,1366,625,1366,768,8-22-2022,8-7-2,126,depth_duration_stimuli/000506_2014-06-08_23-21-00_260595134347_rgbf000070-resize_7/000506_2014-06-08_23-21-00_260595134347_rgbf000070-resize_7-target.png,1000,4.0585,0.2,7175,1014,feet,jsons/v1_VE1000_randls_28_rotated.json,1232603,1936810,45,Man
126,310905,DepthScenes,duration_manipulation_targetAtFixation,jsons/v1_VE1000_randls_28_rotated.json,http://54.235.29.9/FacialAge/BNav_EC2/DepthDuration/v2_depth_duration_MTurk/v2_DepthDuration_HTML.html#26,26,1366,625,1366,768,8-22-2022,8-7-2,127,depth_duration_stimuli/000556_2014-06-09_22-42-56_260595134347_rgbf000214-resize_1/000556_2014-06-09_22-42-56_260595134347_rgbf000214-resize_1-target.png,1000,4.8415,0.2,7270,1012,feet,jsons/v1_VE1000_randls_28_rotated.json,1232603,1936810,45,Man
127,310905,DepthScenes,duration_manipulation_targetAtFixation,jsons/v1_VE1000_randls_28_rotated.json,http://54.235.29.9/FacialAge/BNav_EC2/DepthDuration/v2_depth_duration_MTurk/v2_DepthDuration_HTML.html#26,26,1366,625,1366,768,8-22-2022,8-7-2,128,depth_duration_stimuli/001158_2014-06-17_15-32-16_260595134347_rgbf000138-resize_2/001158_2014-06-17_15-32-16_260595134347_rgbf000138-resize_2-target.png,1000,4.5315,0.1,8279,1004,feet,jsons/v1_VE1000_randls_28_rotated.json,1232603,1936810,45,Man
128,310905,DepthScenes,duration_manipulation_targetAtFixation,jsons/v1_VE1000_randls_28_rotated.json,http://54.235.29.9/FacialAge/BNav_EC2/DepthDuration/v2_depth_duration_MTurk/v2_DepthDuration_HTML.html#26,26,1366,625,1366,768,8-22-2022,8-7-2,129,depth_duration_stimuli/001214_2014-06-17_16-13-55_260595134347_rgbf000111-resize_0/001214_2014-06-17_16-13-55_260595134347_rgbf000111-resize_0-target.png,1000,2.6505,0.2,7208,1007,feet,jsons/v1_VE1000_randls_28_rotated.json,1232603,1936810,45,Man
129,310905,DepthScenes,duration_manipulation_targetAtFixation,jsons/v1_VE1000_randls_28_rotated.json,http://54.235.29.9/FacialAge/BNav_EC2/DepthDuration/v2_depth_duration_MTurk/v2_DepthDuration_HTML.html#26,26,1366,625,1366,768,8-22-2022,8-7-2,130,depth_duration_stimuli/000810_2014-06-08_17-20-01_260595134347_rgbf000105-resize_0/000810_2014-06-08_17-20-01_260595134347_rgbf000105-resize_0-target.png,1000,1.4865,0.1,6770,992,feet,jsons/v1_VE1000_randls_28_rotated.json,1232603,1936810,45,Man
130,310905,DepthScenes,duration_manipulation_targetAtFixation,jsons/v1_VE1000_randls_28_rotated.json,http://54.235.29.9/FacialAge/BNav_EC2/DepthDuration/v2_depth_duration_MTurk/v2_DepthDuration_HTML.html#26,26,1366,625,1366,768,8-22-2022,8-7-2,131,depth_duration_stimuli/003490_2014-05-21_15-50-11_094959634447_rgbf000101-resize_3/003490_2014-05-21_15-50-11_094959634447_rgbf000101-resize_3-target.png,1000,3.6445,0.3,6887,993,feet,jsons/v1_VE1000_randls_28_rotated.json,1232603,1936810,45,Man
131,310905,DepthScenes,duration_manipulation_targetAtFixation,jsons/v1_VE1000_randls_28_rotated.json,http://54.235.29.9/FacialAge/BNav_EC2/DepthDuration/v2_depth_duration_MTurk/v2_DepthDuration_HTML.html#26,26,1366,625,1366,768,8-22-2022,8-7-2,132,depth_duration_stimuli/001175_2014-06-17_15-45-55_260595134347_rgbf000129-resize_4/001175_2014-06-17_15-45-55_260595134347_rgbf000129-resize_4-target.png,1000,4.255,0.4,6597,1012,feet,jsons/v1_VE1000_randls_28_rotated.json,1232603,1936810,45,Man
132,310905,DepthScenes,duration_manipulation_targetAtFixation,jsons/v1_VE1000_randls_28_rotated.json,http://54.235.29.9/FacialAge/BNav_EC2/DepthDuration/v2_depth_duration_MTurk/v2_DepthDuration_HTML.html#26,26,1366,625,1366,768,8-22-2022,8-7-2,133,depth_duration_stimuli/002444_2014-06-28_20-32-08_260595134347_rgbf000027-resize_0/002444_2014-06-28_20-32-08_260595134347_rgbf000027-resize_0-target.png,1000,4.388999999999999,0.3,8702,989,feet,jsons/v1_VE1000_randls_28_rotated.json,1232603,1936810,45,Man
133,310905,DepthScenes,duration_manipulation_targetAtFixation,jsons/v1_VE1000_randls_28_rotated.json,http://54.235.29.9/FacialAge/BNav_EC2/DepthDuration/v2_depth_duration_MTurk/v2_DepthDuration_HTML.html#26,26,1366,625,1366,768,8-22-2022,8-7-2,134,depth_duration_stimuli/000436_2014-06-09_22-25-11_260595134347_rgbf000137-resize_1/000436_2014-06-09_22-25-11_260595134347_rgbf000137-resize_1-target.png,1000,4.0705,0.2,8956,1020,feet,jsons/v1_VE1000_randls_28_rotated.json,1232603,1936810,45,Man
134,310905,DepthScenes,duration_manipulation_targetAtFixation,jsons/v1_VE1000_randls_28_rotated.json,http://54.235.29.9/FacialAge/BNav_EC2/DepthDuration/v2_depth_duration_MTurk/v2_DepthDuration_HTML.html#26,26,1366,625,1366,768,8-22-2022,8-7-2,135,depth_duration_stimuli/000375_2014-06-08_11-17-29_260595134347_rgbf000133-resize_2/000375_2014-06-08_11-17-29_260595134347_rgbf000133-resize-original.jpg,1000,4.718,0.0,4101,1006,feet,jsons/v1_VE1000_randls_28_rotated.json,1232603,1936810,45,Man
135,310905,DepthScenes,duration_manipulation_targetAtFixation,jsons/v1_VE1000_randls_28_rotated.json,http://54.235.29.9/FacialAge/BNav_EC2/DepthDuration/v2_depth_duration_MTurk/v2_DepthDuration_HTML.html#26,26,1366,625,1366,768,8-22-2022,8-7-2,136,depth_duration_stimuli/001032_2014-06-08_13-23-17_260595134347_rgbf000021-resize_3/001032_2014-06-08_13-23-17_260595134347_rgbf000021-resize_3-target.png,1000,3.2725,0.1,5407,977,feet,jsons/v1_VE1000_randls_28_rotated.json,1232603,1936810,45,Man
136,310905,DepthScenes,duration_manipulation_targetAtFixation,jsons/v1_VE1000_randls_28_rotated.json,http://54.235.29.9/FacialAge/BNav_EC2/DepthDuration/v2_depth_duration_MTurk/v2_DepthDuration_HTML.html#26,26,1366,625,1366,768,8-22-2022,8-7-2,137,depth_duration_stimuli/001059_2014-06-08_21-53-27_260595134347_rgbf000061-resize_4/001059_2014-06-08_21-53-27_260595134347_rgbf000061-resize_4-target.png,1000,2.4185,0.2,5075,1016,feet,jsons/v1_VE1000_randls_28_rotated.json,1232603,1936810,45,Man
137,310905,DepthScenes,duration_manipulation_targetAtFixation,jsons/v1_VE1000_randls_28_rotated.json,http://54.235.29.9/FacialAge/BNav_EC2/DepthDuration/v2_depth_duration_MTurk/v2_DepthDuration_HTML.html#26,26,1366,625,1366,768,8-22-2022,8-7-2,138,depth_duration_stimuli/003010_2014-06-15_12-54-35_094959634447_rgbf000112-resize_0/003010_2014-06-15_12-54-35_094959634447_rgbf000112-resize_0-target.png,1000,3.1185,0.5,5905,987,feet,jsons/v1_VE1000_randls_28_rotated.json,1232603,1936810,45,Man
138,310905,DepthScenes,duration_manipulation_targetAtFixation,jsons/v1_VE1000_randls_28_rotated.json,http://54.235.29.9/FacialAge/BNav_EC2/DepthDuration/v2_depth_duration_MTurk/v2_DepthDuration_HTML.html#26,26,1366,625,1366,768,8-22-2022,8-7-2,139,depth_duration_stimuli/001810_2014-06-26_20-51-35_260595134347_rgbf000040-resize_3/001810_2014-06-26_20-51-35_260595134347_rgbf000040-resize_3-target.png,1000,2.2525,0.2,5369,1002,feet,jsons/v1_VE1000_randls_28_rotated.json,1232603,1936810,45,Man
139,310905,DepthScenes,duration_manipulation_targetAtFixation,jsons/v1_VE1000_randls_28_rotated.json,http://54.235.29.9/FacialAge/BNav_EC2/DepthDuration/v2_depth_duration_MTurk/v2_DepthDuration_HTML.html#26,26,1366,625,1366,768,8-22-2022,8-7-2,140,depth_duration_stimuli/000483_2014-06-09_20-41-45_260595134347_rgbf000116-resize_4/000483_2014-06-09_20-41-45_260595134347_rgbf000116-resize_4-target.png,1000,1.337,0.3,4490,1007,feet,jsons/v1_VE1000_randls_28_rotated.json,1232603,1936810,45,Man
140,310905,DepthScenes,duration_manipulation_targetAtFixation,jsons/v1_VE1000_randls_28_rotated.json,http://54.235.29.9/FacialAge/BNav_EC2/DepthDuration/v2_depth_duration_MTurk/v2_DepthDuration_HTML.html#26,26,1366,625,1366,768,8-22-2022,8-7-2,141,depth_duration_stimuli/000469_2014-06-09_19-42-10_260595134347_rgbf000081-resize_1/000469_2014-06-09_19-42-10_260595134347_rgbf000081-resize_1-target.png,1000,1.652,0.3,6834,1001,feet,jsons/v1_VE1000_randls_28_rotated.json,1232603,1936810,45,Man
141,310905,DepthScenes,duration_manipulation_targetAtFixation,jsons/v1_VE1000_randls_28_rotated.json,http://54.235.29.9/FacialAge/BNav_EC2/DepthDuration/v2_depth_duration_MTurk/v2_DepthDuration_HTML.html#26,26,1366,625,1366,768,8-22-2022,8-7-2,142,depth_duration_stimuli/000742_2014-06-08_18-48-09_260595134347_rgbf000164-resize_4/000742_2014-06-08_18-48-09_260595134347_rgbf000164-resize_4-target.png,1000,4.632,0.3,5626,989,feet,jsons/v1_VE1000_randls_28_rotated.json,1232603,1936810,45,Man
142,310905,DepthScenes,duration_manipulation_targetAtFixation,jsons/v1_VE1000_randls_28_rotated.json,http://54.235.29.9/FacialAge/BNav_EC2/DepthDuration/v2_depth_duration_MTurk/v2_DepthDuration_HTML.html#26,26,1366,625,1366,768,8-22-2022,8-7-2,143,depth_duration_stimuli/001066_2014-06-08_22-03-20_260595134347_rgbf000066-resize_4/001066_2014-06-08_22-03-20_260595134347_rgbf000066-resize_4-target.png,1000,4.2330000000000005,0.2,5428,976,feet,jsons/v1_VE1000_randls_28_rotated.json,1232603,1936810,45,Man
143,310905,DepthScenes,duration_manipulation_targetAtFixation,jsons/v1_VE1000_randls_28_rotated.json,http://54.235.29.9/FacialAge/BNav_EC2/DepthDuration/v2_depth_duration_MTurk/v2_DepthDuration_HTML.html#26,26,1366,625,1366,768,8-22-2022,8-7-2,144,depth_duration_stimuli/001447_2014-06-19_17-00-32_260595134347_rgbf000082-resize_5/001447_2014-06-19_17-00-32_260595134347_rgbf000082-resize_5-target.png,1000,4.13775,0.1,5489,1004,feet,jsons/v1_VE1000_randls_28_rotated.json,1232603,1936810,45,Man
144,310905,DepthScenes,duration_manipulation_targetAtFixation,jsons/v1_VE1000_randls_28_rotated.json,http://54.235.29.9/FacialAge/BNav_EC2/DepthDuration/v2_depth_duration_MTurk/v2_DepthDuration_HTML.html#26,26,1366,625,1366,768,8-22-2022,8-7-2,145,depth_duration_stimuli/000447_2014-06-08_16-15-46_260595134347_rgbf000130-resize_1/000447_2014-06-08_16-15-46_260595134347_rgbf000130-resize_1-target.png,1000,4.479,0.3,5103,992,feet,jsons/v1_VE1000_randls_28_rotated.json,1232603,1936810,45,Man
145,310905,DepthScenes,duration_manipulation_targetAtFixation,jsons/v1_VE1000_randls_28_rotated.json,http://54.235.29.9/FacialAge/BNav_EC2/DepthDuration/v2_depth_duration_MTurk/v2_DepthDuration_HTML.html#26,26,1366,625,1366,768,8-22-2022,8-7-2,146,depth_duration_stimuli/000734_2014-06-08_17-39-11_260595134347_rgbf000128-resize_2/000734_2014-06-08_17-39-11_260595134347_rgbf000128-resize_2-target.png,1000,4.098,0.2,7035,989,feet,jsons/v1_VE1000_randls_28_rotated.json,1232603,1936810,45,Man
146,310905,DepthScenes,duration_manipulation_targetAtFixation,jsons/v1_VE1000_randls_28_rotated.json,http://54.235.29.9/FacialAge/BNav_EC2/DepthDuration/v2_depth_duration_MTurk/v2_DepthDuration_HTML.html#26,26,1366,625,1366,768,8-22-2022,8-7-2,147,depth_duration_stimuli/000739_2014-06-08_18-45-58_260595134347_rgbf000068-resize_1/000739_2014-06-08_18-45-58_260595134347_rgbf000068-resize_1-target.png,1000,3.534,0.2,5543,999,feet,jsons/v1_VE1000_randls_28_rotated.json,1232603,1936810,45,Man
147,310905,DepthScenes,duration_manipulation_targetAtFixation,jsons/v1_VE1000_randls_28_rotated.json,http://54.235.29.9/FacialAge/BNav_EC2/DepthDuration/v2_depth_duration_MTurk/v2_DepthDuration_HTML.html#26,26,1366,625,1366,768,8-22-2022,8-7-2,148,depth_duration_stimuli/000749_2014-06-08_21-55-06_260595134347_rgbf000070-resize_2/000749_2014-06-08_21-55-06_260595134347_rgbf000070-resize_2-target.png,1000,2.331,0.1,9993,1001,feet,jsons/v1_VE1000_randls_28_rotated.json,1232603,1936810,45,Man
148,310905,DepthScenes,duration_manipulation_targetAtFixation,jsons/v1_VE1000_randls_28_rotated.json,http://54.235.29.9/FacialAge/BNav_EC2/DepthDuration/v2_depth_duration_MTurk/v2_DepthDuration_HTML.html#26,26,1366,625,1366,768,8-22-2022,8-7-2,149,depth_duration_stimuli/002788_2014-06-22_19-36-03_094959634447_rgbf000088-resize_2/002788_2014-06-22_19-36-03_094959634447_rgbf000088-resize_2-target.png,1000,1.6465,0.3,4925,1019,feet,jsons/v1_VE1000_randls_28_rotated.json,1232603,1936810,45,Man
149,310905,DepthScenes,duration_manipulation_targetAtFixation,jsons/v1_VE1000_randls_28_rotated.json,http://54.235.29.9/FacialAge/BNav_EC2/DepthDuration/v2_depth_duration_MTurk/v2_DepthDuration_HTML.html#26,26,1366,625,1366,768,8-22-2022,8-7-2,150,depth_duration_stimuli/001584_2014-06-20_11-07-43_260595134347_rgbf000002-resize_1/001584_2014-06-20_11-07-43_260595134347_rgbf000002-resize_1-target.png,1000,3.53,0.2,7067,1001,feet,jsons/v1_VE1000_randls_28_rotated.json,1232603,1936810,45,Man
150,310905,DepthScenes,duration_manipulation_targetAtFixation,jsons/v1_VE1000_randls_28_rotated.json,http://54.235.29.9/FacialAge/BNav_EC2/DepthDuration/v2_depth_duration_MTurk/v2_DepthDuration_HTML.html#26,26,1366,625,1366,768,8-22-2022,8-7-2,151,depth_duration_stimuli/003621_2014-05-23_18-06-08_094959634447_rgbf000101-resize_1/003621_2014-05-23_18-06-08_094959634447_rgbf000101-resize_1-target.png,1000,3.9835,0.4,5442,1017,feet,jsons/v1_VE1000_randls_28_rotated.json,1232603,1936810,45,Man
151,310905,DepthScenes,duration_manipulation_targetAtFixation,jsons/v1_VE1000_randls_28_rotated.json,http://54.235.29.9/FacialAge/BNav_EC2/DepthDuration/v2_depth_duration_MTurk/v2_DepthDuration_HTML.html#26,26,1366,625,1366,768,8-22-2022,8-7-2,152,depth_duration_stimuli/000569_2014-06-09_22-51-47_260595134347_rgbf000141-resize_3/000569_2014-06-09_22-51-47_260595134347_rgbf000141-resize-original.jpg,1000,4.512,0.0,4186,1003,feet,jsons/v1_VE1000_randls_28_rotated.json,1232603,1936810,45,Man
152,310905,DepthScenes,duration_manipulation_targetAtFixation,jsons/v1_VE1000_randls_28_rotated.json,http://54.235.29.9/FacialAge/BNav_EC2/DepthDuration/v2_depth_duration_MTurk/v2_DepthDuration_HTML.html#26,26,1366,625,1366,768,8-22-2022,8-7-2,153,depth_duration_stimuli/001094_2014-06-15_17-36-00_260595134347_rgbf000205-resize_0/001094_2014-06-15_17-36-00_260595134347_rgbf000205-resize_0-target.png,1000,4.2175,0.4,19151,1004,feet,jsons/v1_VE1000_randls_28_rotated.json,1232603,1936810,45,Man
153,310905,DepthScenes,duration_manipulation_targetAtFixation,jsons/v1_VE1000_randls_28_rotated.json,http://54.235.29.9/FacialAge/BNav_EC2/DepthDuration/v2_depth_duration_MTurk/v2_DepthDuration_HTML.html#26,26,1366,625,1366,768,8-22-2022,8-7-2,154,depth_duration_stimuli/000692_2014-06-08_13-09-42_260595134347_rgbf000199-resize_2/000692_2014-06-08_13-09-42_260595134347_rgbf000199-resize_2-target.png,1000,3.661,0.2,6052,989,feet,jsons/v1_VE1000_randls_28_rotated.json,1232603,1936810,45,Man
154,310905,DepthScenes,duration_manipulation_targetAtFixation,jsons/v1_VE1000_randls_28_rotated.json,http://54.235.29.9/FacialAge/BNav_EC2/DepthDuration/v2_depth_duration_MTurk/v2_DepthDuration_HTML.html#26,26,1366,625,1366,768,8-22-2022,8-7-2,155,depth_duration_stimuli/002949_2014-06-26_15-57-42_094959634447_rgbf000079-resize_1/002949_2014-06-26_15-57-42_094959634447_rgbf000079-resize_1-target.png,1000,1.8915,0.1,4953,1001,feet,jsons/v1_VE1000_randls_28_rotated.json,1232603,1936810,45,Man
155,310905,DepthScenes,duration_manipulation_targetAtFixation,jsons/v1_VE1000_randls_28_rotated.json,http://54.235.29.9/FacialAge/BNav_EC2/DepthDuration/v2_depth_duration_MTurk/v2_DepthDuration_HTML.html#26,26,1366,625,1366,768,8-22-2022,8-7-2,156,depth_duration_stimuli/000522_2014-06-08_13-35-06_260595134347_rgbf000244-resize_1/000522_2014-06-08_13-35-06_260595134347_rgbf000244-resize_1-target.png,1000,2.3715,0.3,8345,1002,feet,jsons/v1_VE1000_randls_28_rotated.json,1232603,1936810,45,Man
156,310905,DepthScenes,duration_manipulation_targetAtFixation,jsons/v1_VE1000_randls_28_rotated.json,http://54.235.29.9/FacialAge/BNav_EC2/DepthDuration/v2_depth_duration_MTurk/v2_DepthDuration_HTML.html#26,26,1366,625,1366,768,8-22-2022,8-7-2,157,depth_duration_stimuli/003338_2014-05-20_11-01-23_094959634447_rgbf000051-resize_6/003338_2014-05-20_11-01-23_094959634447_rgbf000051-resize_6-target.png,1000,1.693,0.3,45696,1012,feet,jsons/v1_VE1000_randls_28_rotated.json,1232603,1936810,45,Man
157,310905,DepthScenes,duration_manipulation_targetAtFixation,jsons/v1_VE1000_randls_28_rotated.json,http://54.235.29.9/FacialAge/BNav_EC2/DepthDuration/v2_depth_duration_MTurk/v2_DepthDuration_HTML.html#26,26,1366,625,1366,768,8-22-2022,8-7-2,158,depth_duration_stimuli/002509_2014-06-24_13-19-22_094959634447_rgbf000077-resize_0/002509_2014-06-24_13-19-22_094959634447_rgbf000077-resize_0-target.png,1000,1.3065,0.2,6300,1029,feet,jsons/v1_VE1000_randls_28_rotated.json,1232603,1936810,45,Man
158,310905,DepthScenes,duration_manipulation_targetAtFixation,jsons/v1_VE1000_randls_28_rotated.json,http://54.235.29.9/FacialAge/BNav_EC2/DepthDuration/v2_depth_duration_MTurk/v2_DepthDuration_HTML.html#26,26,1366,625,1366,768,8-22-2022,8-7-2,159,depth_duration_stimuli/002414_2014-06-28_20-24-58_260595134347_rgbf000067-resize_4/002414_2014-06-28_20-24-58_260595134347_rgbf000067-resize_4-target.png,1000,4.363,0.1,5768,1002,feet,jsons/v1_VE1000_randls_28_rotated.json,1232603,1936810,45,Man
159,310905,DepthScenes,duration_manipulation_targetAtFixation,jsons/v1_VE1000_randls_28_rotated.json,http://54.235.29.9/FacialAge/BNav_EC2/DepthDuration/v2_depth_duration_MTurk/v2_DepthDuration_HTML.html#26,26,1366,625,1366,768,8-22-2022,8-7-2,160,depth_duration_stimuli/000773_2014-06-08_22-24-54_260595134347_rgbf000093-resize_1/000773_2014-06-08_22-24-54_260595134347_rgbf000093-resize_1-target.png,1000,4.973,0.2,4998,1005,feet,jsons/v1_VE1000_randls_28_rotated.json,1232603,1936810,45,Man
160,310905,DepthScenes,duration_manipulation_targetAtFixation,jsons/v1_VE1000_randls_28_rotated.json,http://54.235.29.9/FacialAge/BNav_EC2/DepthDuration/v2_depth_duration_MTurk/v2_DepthDuration_HTML.html#26,26,1366,625,1366,768,8-22-2022,8-7-2,161,depth_duration_stimuli/002467_2014-06-28_20-38-07_260595134347_rgbf000026-resize_2/002467_2014-06-28_20-38-07_260595134347_rgbf000026-resize_2-target.png,1000,4.742,0.1,5255,986,feet,jsons/v1_VE1000_randls_28_rotated.json,1232603,1936810,45,Man
161,310905,DepthScenes,duration_manipulation_targetAtFixation,jsons/v1_VE1000_randls_28_rotated.json,http://54.235.29.9/FacialAge/BNav_EC2/DepthDuration/v2_depth_duration_MTurk/v2_DepthDuration_HTML.html#26,26,1366,625,1366,768,8-22-2022,8-7-2,162,depth_duration_stimuli/002570_2014-06-24_13-59-54_094959634447_rgbf000059-resize_0/002570_2014-06-24_13-59-54_094959634447_rgbf000059-resize_0-target.png,1000,4.037,0.2,13291,1001,feet,jsons/v1_VE1000_randls_28_rotated.json,1232603,1936810,45,Man
162,310905,DepthScenes,duration_manipulation_targetAtFixation,jsons/v1_VE1000_randls_28_rotated.json,http://54.235.29.9/FacialAge/BNav_EC2/DepthDuration/v2_depth_duration_MTurk/v2_DepthDuration_HTML.html#26,26,1366,625,1366,768,8-22-2022,8-7-2,163,depth_duration_stimuli/001392_2014-06-19_16-07-59_260595134347_rgbf000046-resize_1/001392_2014-06-19_16-07-59_260595134347_rgbf000046-resize_1-target.png,1000,4.135,0.2,14404,996,feet,jsons/v1_VE1000_randls_28_rotated.json,1232603,1936810,45,Man
163,310905,DepthScenes,duration_manipulation_targetAtFixation,jsons/v1_VE1000_randls_28_rotated.json,http://54.235.29.9/FacialAge/BNav_EC2/DepthDuration/v2_depth_duration_MTurk/v2_DepthDuration_HTML.html#26,26,1366,625,1366,768,8-22-2022,8-7-2,164,depth_duration_stimuli/001570_2014-06-20_17-21-09_260595134347_rgbf000135-resize_4/001570_2014-06-20_17-21-09_260595134347_rgbf000135-resize_4-target.png,1000,4.467,0.4,9437,1005,feet,jsons/v1_VE1000_randls_28_rotated.json,1232603,1936810,45,Man
