,subjID,experimentName,versionName,sequenceName,url,selected_row,windowWidth,windowHeight,screenWidth,screenHeight,startDate,startTime,trial,stimulus,duration,actual_depth,depth_estimate,trial_RT,log_sceneDuration,unitSelection,seq_filepath,experimentTime,totalTime,age,gender
0,312187,DepthScenes,duration_manipulation_targetAtFixation,jsons/VE125_randls_59.json,http://54.235.29.9/FacialAge/BNav_EC2/DepthDuration/v2_depth_duration_MTurk/v2_DepthDuration_HTML.html#68,68,500,285,1366,768,9-4-2022,23-20-35,1,depth_duration_stimuli/000736_2014-06-08_18-24-15_260595134347_rgbf000206-resize_3/000736_2014-06-08_18-24-15_260595134347_rgbf000206-resize_3-target.png,125,3.515,0,4354,122,meters,jsons/VE125_randls_59.json,521111,771567,35,Man
1,312187,DepthScenes,duration_manipulation_targetAtFixation,jsons/VE125_randls_59.json,http://54.235.29.9/FacialAge/BNav_EC2/DepthDuration/v2_depth_duration_MTurk/v2_DepthDuration_HTML.html#68,68,500,285,1366,768,9-4-2022,23-20-35,2,depth_duration_stimuli/000137_2014-05-20_17-04-49_260595134347_rgbf000120-resize_1/000137_2014-05-20_17-04-49_260595134347_rgbf000120-resize_1-target.png,125,3.786,0,1037,129,meters,jsons/VE125_randls_59.json,521111,771567,35,Man
2,312187,DepthScenes,duration_manipulation_targetAtFixation,jsons/VE125_randls_59.json,http://54.235.29.9/FacialAge/BNav_EC2/DepthDuration/v2_depth_duration_MTurk/v2_DepthDuration_HTML.html#68,68,500,285,1366,768,9-4-2022,23-20-35,3,depth_duration_stimuli/003534_2014-05-22_15-06-10_094959634447_rgbf000102-resize_4/003534_2014-05-22_15-06-10_094959634447_rgbf000102-resize_4-target.png,125,1.426,0,1027,130,meters,jsons/VE125_randls_59.json,521111,771567,35,Man
3,312187,DepthScenes,duration_manipulation_targetAtFixation,jsons/VE125_randls_59.json,http://54.235.29.9/FacialAge/BNav_EC2/DepthDuration/v2_depth_duration_MTurk/v2_DepthDuration_HTML.html#68,68,500,285,1366,768,9-4-2022,23-20-35,4,depth_duration_stimuli/002637_2014-06-24_14-51-13_094959634447_rgbf000066-resize_4/002637_2014-06-24_14-51-13_094959634447_rgbf000066-resize_4-target.png,125,1.9955,0,1096,128,meters,jsons/VE125_randls_59.json,521111,771567,35,Man
4,312187,DepthScenes,duration_manipulation_targetAtFixation,jsons/VE125_randls_59.json,http://54.235.29.9/FacialAge/BNav_EC2/DepthDuration/v2_depth_duration_MTurk/v2_DepthDuration_HTML.html#68,68,500,285,1366,768,9-4-2022,23-20-35,5,depth_duration_stimuli/000878_2014-06-08_22-52-45_260595134347_rgbf000045-resize_2/000878_2014-06-08_22-52-45_260595134347_rgbf000045-resize_2-target.png,125,2.092,0,1028,128,meters,jsons/VE125_randls_59.json,521111,771567,35,Man
5,312187,DepthScenes,duration_manipulation_targetAtFixation,jsons/VE125_randls_59.json,http://54.235.29.9/FacialAge/BNav_EC2/DepthDuration/v2_depth_duration_MTurk/v2_DepthDuration_HTML.html#68,68,500,285,1366,768,9-4-2022,23-20-35,6,depth_duration_stimuli/002953_2014-06-08_17-32-18_094959634447_rgbf000059-resize_5/002953_2014-06-08_17-32-18_094959634447_rgbf000059-resize_5-target.png,125,1.551,0,1099,128,meters,jsons/VE125_randls_59.json,521111,771567,35,Man
6,312187,DepthScenes,duration_manipulation_targetAtFixation,jsons/VE125_randls_59.json,http://54.235.29.9/FacialAge/BNav_EC2/DepthDuration/v2_depth_duration_MTurk/v2_DepthDuration_HTML.html#68,68,500,285,1366,768,9-4-2022,23-20-35,7,depth_duration_stimuli/000436_2014-06-09_22-25-11_260595134347_rgbf000137-resize_1/000436_2014-06-09_22-25-11_260595134347_rgbf000137-resize_1-target.png,125,4.0705,0,1072,118,meters,jsons/VE125_randls_59.json,521111,771567,35,Man
7,312187,DepthScenes,duration_manipulation_targetAtFixation,jsons/VE125_randls_59.json,http://54.235.29.9/FacialAge/BNav_EC2/DepthDuration/v2_depth_duration_MTurk/v2_DepthDuration_HTML.html#68,68,500,285,1366,768,9-4-2022,23-20-35,8,depth_duration_stimuli/002444_2014-06-28_20-32-08_260595134347_rgbf000027-resize_0/002444_2014-06-28_20-32-08_260595134347_rgbf000027-resize_0-target.png,125,4.388999999999999,0,1027,117,meters,jsons/VE125_randls_59.json,521111,771567,35,Man
8,312187,DepthScenes,duration_manipulation_targetAtFixation,jsons/VE125_randls_59.json,http://54.235.29.9/FacialAge/BNav_EC2/DepthDuration/v2_depth_duration_MTurk/v2_DepthDuration_HTML.html#68,68,500,285,1366,768,9-4-2022,23-20-35,9,depth_duration_stimuli/001066_2014-06-08_22-03-20_260595134347_rgbf000066-resize_4/001066_2014-06-08_22-03-20_260595134347_rgbf000066-resize_4-target.png,125,4.2330000000000005,0,1101,129,meters,jsons/VE125_randls_59.json,521111,771567,35,Man
9,312187,DepthScenes,duration_manipulation_targetAtFixation,jsons/VE125_randls_59.json,http://54.235.29.9/FacialAge/BNav_EC2/DepthDuration/v2_depth_duration_MTurk/v2_DepthDuration_HTML.html#68,68,500,285,1366,768,9-4-2022,23-20-35,10,depth_duration_stimuli/000742_2014-06-08_18-48-09_260595134347_rgbf000164-resize_4/000742_2014-06-08_18-48-09_260595134347_rgbf000164-resize_4-target.png,125,4.632,0,1100,124,meters,jsons/VE125_randls_59.json,521111,771567,35,Man
10,312187,DepthScenes,duration_manipulation_targetAtFixation,jsons/VE125_randls_59.json,http://54.235.29.9/FacialAge/BNav_EC2/DepthDuration/v2_depth_duration_MTurk/v2_DepthDuration_HTML.html#68,68,500,285,1366,768,9-4-2022,23-20-35,11,depth_duration_stimuli/001808_2014-06-26_20-50-58_260595134347_rgbf000029-resize_1/001808_2014-06-26_20-50-58_260595134347_rgbf000029-resize_1-target.png,125,4.249,0,1118,118,meters,jsons/VE125_randls_59.json,521111,771567,35,Man
11,312187,DepthScenes,duration_manipulation_targetAtFixation,jsons/VE125_randls_59.json,http://54.235.29.9/FacialAge/BNav_EC2/DepthDuration/v2_depth_duration_MTurk/v2_DepthDuration_HTML.html#68,68,500,285,1366,768,9-4-2022,23-20-35,12,depth_duration_stimuli/001815_2014-06-26_20-52-55_260595134347_rgbf000020-resize_0/001815_2014-06-26_20-52-55_260595134347_rgbf000020-resize_0-target.png,125,3.3865,0,1293,128,meters,jsons/VE125_randls_59.json,521111,771567,35,Man
12,312187,DepthScenes,duration_manipulation_targetAtFixation,jsons/VE125_randls_59.json,http://54.235.29.9/FacialAge/BNav_EC2/DepthDuration/v2_depth_duration_MTurk/v2_DepthDuration_HTML.html#68,68,500,285,1366,768,9-4-2022,23-20-35,13,depth_duration_stimuli/000569_2014-06-09_22-51-47_260595134347_rgbf000141-resize_3/000569_2014-06-09_22-51-47_260595134347_rgbf000141-resize-original.jpg,125,4.512,0,1105,118,meters,jsons/VE125_randls_59.json,521111,771567,35,Man
13,312187,DepthScenes,duration_manipulation_targetAtFixation,jsons/VE125_randls_59.json,http://54.235.29.9/FacialAge/BNav_EC2/DepthDuration/v2_depth_duration_MTurk/v2_DepthDuration_HTML.html#68,68,500,285,1366,768,9-4-2022,23-20-35,14,depth_duration_stimuli/001016_2014-06-09_16-16-10_260595134347_rgbf000112-resize_5/001016_2014-06-09_16-16-10_260595134347_rgbf000112-resize_5-target.png,125,1.6565,0,1144,128,meters,jsons/VE125_randls_59.json,521111,771567,35,Man
14,312187,DepthScenes,duration_manipulation_targetAtFixation,jsons/VE125_randls_59.json,http://54.235.29.9/FacialAge/BNav_EC2/DepthDuration/v2_depth_duration_MTurk/v2_DepthDuration_HTML.html#68,68,500,285,1366,768,9-4-2022,23-20-35,15,depth_duration_stimuli/002340_2014-06-28_20-05-46_260595134347_rgbf000113-resize_0/002340_2014-06-28_20-05-46_260595134347_rgbf000113-resize_0-target.png,125,2.4735,0,1181,128,meters,jsons/VE125_randls_59.json,521111,771567,35,Man
15,312187,DepthScenes,duration_manipulation_targetAtFixation,jsons/VE125_randls_59.json,http://54.235.29.9/FacialAge/BNav_EC2/DepthDuration/v2_depth_duration_MTurk/v2_DepthDuration_HTML.html#68,68,500,285,1366,768,9-4-2022,23-20-35,16,depth_duration_stimuli/002748_2014-06-22_19-07-22_094959634447_rgbf000078-resize_1/002748_2014-06-22_19-07-22_094959634447_rgbf000078-resize_1-target.png,125,4.6705,0,1139,116,meters,jsons/VE125_randls_59.json,521111,771567,35,Man
16,312187,DepthScenes,duration_manipulation_targetAtFixation,jsons/VE125_randls_59.json,http://54.235.29.9/FacialAge/BNav_EC2/DepthDuration/v2_depth_duration_MTurk/v2_DepthDuration_HTML.html#68,68,500,285,1366,768,9-4-2022,23-20-35,17,depth_duration_stimuli/002995_2014-06-15_12-31-26_094959634447_rgbf000150-resize_1/002995_2014-06-15_12-31-26_094959634447_rgbf000150-resize_1-target.png,125,3.8360000000000003,0,1134,119,meters,jsons/VE125_randls_59.json,521111,771567,35,Man
17,312187,DepthScenes,duration_manipulation_targetAtFixation,jsons/VE125_randls_59.json,http://54.235.29.9/FacialAge/BNav_EC2/DepthDuration/v2_depth_duration_MTurk/v2_DepthDuration_HTML.html#68,68,500,285,1366,768,9-4-2022,23-20-35,18,depth_duration_stimuli/000682_2014-06-08_23-14-58_260595134347_rgbf000041-resize_5/000682_2014-06-08_23-14-58_260595134347_rgbf000041-resize_5-target.png,125,2.7239999999999998,0,1156,119,meters,jsons/VE125_randls_59.json,521111,771567,35,Man
18,312187,DepthScenes,duration_manipulation_targetAtFixation,jsons/VE125_randls_59.json,http://54.235.29.9/FacialAge/BNav_EC2/DepthDuration/v2_depth_duration_MTurk/v2_DepthDuration_HTML.html#68,68,500,285,1366,768,9-4-2022,23-20-35,19,depth_duration_stimuli/001650_2014-06-20_12-09-00_260595134347_rgbf000087-resize_3/001650_2014-06-20_12-09-00_260595134347_rgbf000087-resize_3-target.png,125,1.9505,0,1132,129,meters,jsons/VE125_randls_59.json,521111,771567,35,Man
19,312187,DepthScenes,duration_manipulation_targetAtFixation,jsons/VE125_randls_59.json,http://54.235.29.9/FacialAge/BNav_EC2/DepthDuration/v2_depth_duration_MTurk/v2_DepthDuration_HTML.html#68,68,500,285,1366,768,9-4-2022,23-20-35,20,depth_duration_stimuli/001167_2014-06-17_15-38-07_260595134347_rgbf000108-resize_0/001167_2014-06-17_15-38-07_260595134347_rgbf000108-resize_0-target.png,125,1.8505,0,1107,119,meters,jsons/VE125_randls_59.json,521111,771567,35,Man
20,312187,DepthScenes,duration_manipulation_targetAtFixation,jsons/VE125_randls_59.json,http://54.235.29.9/FacialAge/BNav_EC2/DepthDuration/v2_depth_duration_MTurk/v2_DepthDuration_HTML.html#68,68,500,285,1366,768,9-4-2022,23-20-35,21,depth_duration_stimuli/003587_2014-05-23_16-48-02_094959634447_rgbf002384-resize_2/003587_2014-05-23_16-48-02_094959634447_rgbf002384-resize_2-target.png,125,1.357,0,3444,128,meters,jsons/VE125_randls_59.json,521111,771567,35,Man
21,312187,DepthScenes,duration_manipulation_targetAtFixation,jsons/VE125_randls_59.json,http://54.235.29.9/FacialAge/BNav_EC2/DepthDuration/v2_depth_duration_MTurk/v2_DepthDuration_HTML.html#68,68,500,285,1366,768,9-4-2022,23-20-35,22,depth_duration_stimuli/002375_2014-06-28_20-13-44_260595134347_rgbf000032-resize_1/002375_2014-06-28_20-13-44_260595134347_rgbf000032-resize_1-target.png,125,4.0175,0,1183,128,meters,jsons/VE125_randls_59.json,521111,771567,35,Man
22,312187,DepthScenes,duration_manipulation_targetAtFixation,jsons/VE125_randls_59.json,http://54.235.29.9/FacialAge/BNav_EC2/DepthDuration/v2_depth_duration_MTurk/v2_DepthDuration_HTML.html#68,68,500,285,1366,768,9-4-2022,23-20-35,23,depth_duration_stimuli/002657_2014-06-13_15-29-54_094959634447_rgbf000150-resize_1/002657_2014-06-13_15-29-54_094959634447_rgbf000150-resize_1-target.png,125,4.919,0,43814,119,meters,jsons/VE125_randls_59.json,521111,771567,35,Man
23,312187,DepthScenes,duration_manipulation_targetAtFixation,jsons/VE125_randls_59.json,http://54.235.29.9/FacialAge/BNav_EC2/DepthDuration/v2_depth_duration_MTurk/v2_DepthDuration_HTML.html#68,68,500,285,1366,768,9-4-2022,23-20-35,24,depth_duration_stimuli/001199_2014-06-17_16-03-48_260595134347_rgbf000077-resize_0/001199_2014-06-17_16-03-48_260595134347_rgbf000077-resize_0-target.png,125,3.4375,0,1150,123,meters,jsons/VE125_randls_59.json,521111,771567,35,Man
24,312187,DepthScenes,duration_manipulation_targetAtFixation,jsons/VE125_randls_59.json,http://54.235.29.9/FacialAge/BNav_EC2/DepthDuration/v2_depth_duration_MTurk/v2_DepthDuration_HTML.html#68,68,500,285,1366,768,9-4-2022,23-20-35,25,depth_duration_stimuli/000502_2014-06-08_23-02-32_260595134347_rgbf000063-resize_4/000502_2014-06-08_23-02-32_260595134347_rgbf000063-resize_4-target.png,125,2.431,0,1086,119,meters,jsons/VE125_randls_59.json,521111,771567,35,Man
25,312187,DepthScenes,duration_manipulation_targetAtFixation,jsons/VE125_randls_59.json,http://54.235.29.9/FacialAge/BNav_EC2/DepthDuration/v2_depth_duration_MTurk/v2_DepthDuration_HTML.html#68,68,500,285,1366,768,9-4-2022,23-20-35,26,depth_duration_stimuli/001164_2014-06-17_15-35-46_260595134347_rgbf000085-resize_3/001164_2014-06-17_15-35-46_260595134347_rgbf000085-resize_3-target.png,125,2.354,0,1101,128,meters,jsons/VE125_randls_59.json,521111,771567,35,Man
26,312187,DepthScenes,duration_manipulation_targetAtFixation,jsons/VE125_randls_59.json,http://54.235.29.9/FacialAge/BNav_EC2/DepthDuration/v2_depth_duration_MTurk/v2_DepthDuration_HTML.html#68,68,500,285,1366,768,9-4-2022,23-20-35,27,depth_duration_stimuli/001136_2014-06-17_15-19-41_260595134347_rgbf000076-resize_3/001136_2014-06-17_15-19-41_260595134347_rgbf000076-resize_3-target.png,125,1.8655,0,69949,119,meters,jsons/VE125_randls_59.json,521111,771567,35,Man
27,312187,DepthScenes,duration_manipulation_targetAtFixation,jsons/VE125_randls_59.json,http://54.235.29.9/FacialAge/BNav_EC2/DepthDuration/v2_depth_duration_MTurk/v2_DepthDuration_HTML.html#68,68,500,285,1366,768,9-4-2022,23-20-35,28,depth_duration_stimuli/002213_2014-06-28_18-37-58_260595134347_rgbf000055-resize_1/002213_2014-06-28_18-37-58_260595134347_rgbf000055-resize_1-target.png,125,3.62,0,2141,124,meters,jsons/VE125_randls_59.json,521111,771567,35,Man
28,312187,DepthScenes,duration_manipulation_targetAtFixation,jsons/VE125_randls_59.json,http://54.235.29.9/FacialAge/BNav_EC2/DepthDuration/v2_depth_duration_MTurk/v2_DepthDuration_HTML.html#68,68,500,285,1366,768,9-4-2022,23-20-35,29,depth_duration_stimuli/000691_2014-06-08_13-08-50_260595134347_rgbf000132-resize_3/000691_2014-06-08_13-08-50_260595134347_rgbf000132-resize_3-target.png,125,4.1530000000000005,0,1378,129,meters,jsons/VE125_randls_59.json,521111,771567,35,Man
29,312187,DepthScenes,duration_manipulation_targetAtFixation,jsons/VE125_randls_59.json,http://54.235.29.9/FacialAge/BNav_EC2/DepthDuration/v2_depth_duration_MTurk/v2_DepthDuration_HTML.html#68,68,500,285,1366,768,9-4-2022,23-20-35,30,depth_duration_stimuli/000375_2014-06-08_11-17-29_260595134347_rgbf000133-resize_2/000375_2014-06-08_11-17-29_260595134347_rgbf000133-resize-original.jpg,125,4.718,0,1061,129,meters,jsons/VE125_randls_59.json,521111,771567,35,Man
30,312187,DepthScenes,duration_manipulation_targetAtFixation,jsons/VE125_randls_59.json,http://54.235.29.9/FacialAge/BNav_EC2/DepthDuration/v2_depth_duration_MTurk/v2_DepthDuration_HTML.html#68,68,500,285,1366,768,9-4-2022,23-20-35,31,depth_duration_stimuli/001110_2014-06-15_17-25-28_260595134347_rgbf000150-resize_1/001110_2014-06-15_17-25-28_260595134347_rgbf000150-resize_1-target.png,125,1.7115,0,2042,118,meters,jsons/VE125_randls_59.json,521111,771567,35,Man
31,312187,DepthScenes,duration_manipulation_targetAtFixation,jsons/VE125_randls_59.json,http://54.235.29.9/FacialAge/BNav_EC2/DepthDuration/v2_depth_duration_MTurk/v2_DepthDuration_HTML.html#68,68,500,285,1366,768,9-4-2022,23-20-35,32,depth_duration_stimuli/000927_2014-06-09_16-32-30_260595134347_rgbf000123-resize_3/000927_2014-06-09_16-32-30_260595134347_rgbf000123-resize_3-target.png,125,2.6785,0,1362,119,meters,jsons/VE125_randls_59.json,521111,771567,35,Man
32,312187,DepthScenes,duration_manipulation_targetAtFixation,jsons/VE125_randls_59.json,http://54.235.29.9/FacialAge/BNav_EC2/DepthDuration/v2_depth_duration_MTurk/v2_DepthDuration_HTML.html#68,68,500,285,1366,768,9-4-2022,23-20-35,33,depth_duration_stimuli/003070_2014-06-15_14-58-27_094959634447_rgbf000150-resize_3/003070_2014-06-15_14-58-27_094959634447_rgbf000150-resize_3-target.png,125,2.9415,0,1372,118,meters,jsons/VE125_randls_59.json,521111,771567,35,Man
33,312187,DepthScenes,duration_manipulation_targetAtFixation,jsons/VE125_randls_59.json,http://54.235.29.9/FacialAge/BNav_EC2/DepthDuration/v2_depth_duration_MTurk/v2_DepthDuration_HTML.html#68,68,500,285,1366,768,9-4-2022,23-20-35,34,depth_duration_stimuli/000943_2014-06-09_19-31-07_260595134347_rgbf000128-resize_1/000943_2014-06-09_19-31-07_260595134347_rgbf000128-resize_1-target.png,125,1.9765,0,1285,119,meters,jsons/VE125_randls_59.json,521111,771567,35,Man
34,312187,DepthScenes,duration_manipulation_targetAtFixation,jsons/VE125_randls_59.json,http://54.235.29.9/FacialAge/BNav_EC2/DepthDuration/v2_depth_duration_MTurk/v2_DepthDuration_HTML.html#68,68,500,285,1366,768,9-4-2022,23-20-35,35,depth_duration_stimuli/001449_2014-06-19_17-01-27_260595134347_rgbf000116-resize_2/001449_2014-06-19_17-01-27_260595134347_rgbf000116-resize_2-target.png,125,3.452,0,1133,129,meters,jsons/VE125_randls_59.json,521111,771567,35,Man
35,312187,DepthScenes,duration_manipulation_targetAtFixation,jsons/VE125_randls_59.json,http://54.235.29.9/FacialAge/BNav_EC2/DepthDuration/v2_depth_duration_MTurk/v2_DepthDuration_HTML.html#68,68,500,285,1366,768,9-4-2022,23-20-35,36,depth_duration_stimuli/001450_2014-06-19_17-02-03_260595134347_rgbf000203-resize_4/001450_2014-06-19_17-02-03_260595134347_rgbf000203-resize_4-target.png,125,4.0106666666667,0,1144,128,meters,jsons/VE125_randls_59.json,521111,771567,35,Man
36,312187,DepthScenes,duration_manipulation_targetAtFixation,jsons/VE125_randls_59.json,http://54.235.29.9/FacialAge/BNav_EC2/DepthDuration/v2_depth_duration_MTurk/v2_DepthDuration_HTML.html#68,68,500,285,1366,768,9-4-2022,23-20-35,37,depth_duration_stimuli/001150_2014-06-17_15-27-34_260595134347_rgbf000108-resize_2/001150_2014-06-17_15-27-34_260595134347_rgbf000108-resize_2-target.png,125,4.0325,0,1053,128,meters,jsons/VE125_randls_59.json,521111,771567,35,Man
37,312187,DepthScenes,duration_manipulation_targetAtFixation,jsons/VE125_randls_59.json,http://54.235.29.9/FacialAge/BNav_EC2/DepthDuration/v2_depth_duration_MTurk/v2_DepthDuration_HTML.html#68,68,500,285,1366,768,9-4-2022,23-20-35,38,depth_duration_stimuli/000665_2014-06-09_20-42-35_260595134347_rgbf000110-resize_1/000665_2014-06-09_20-42-35_260595134347_rgbf000110-resize_1-target.png,125,3.057,0,113099,108,meters,jsons/VE125_randls_59.json,521111,771567,35,Man
38,312187,DepthScenes,duration_manipulation_targetAtFixation,jsons/VE125_randls_59.json,http://54.235.29.9/FacialAge/BNav_EC2/DepthDuration/v2_depth_duration_MTurk/v2_DepthDuration_HTML.html#68,68,500,285,1366,768,9-4-2022,23-20-35,39,depth_duration_stimuli/002905_2014-06-03_18-04-43_094959634447_rgbf000151-resize_2/002905_2014-06-03_18-04-43_094959634447_rgbf000151-resize_2-target.png,125,2.0295,0,970,118,meters,jsons/VE125_randls_59.json,521111,771567,35,Man
39,312187,DepthScenes,duration_manipulation_targetAtFixation,jsons/VE125_randls_59.json,http://54.235.29.9/FacialAge/BNav_EC2/DepthDuration/v2_depth_duration_MTurk/v2_DepthDuration_HTML.html#68,68,500,285,1366,768,9-4-2022,23-20-35,40,depth_duration_stimuli/003423_2014-05-21_10-23-26_094959634447_rgbf002665-resize_2/003423_2014-05-21_10-23-26_094959634447_rgbf002665-resize_2-target.png,125,3.2575,0,941,119,meters,jsons/VE125_randls_59.json,521111,771567,35,Man
40,312187,DepthScenes,duration_manipulation_targetAtFixation,jsons/VE125_randls_59.json,http://54.235.29.9/FacialAge/BNav_EC2/DepthDuration/v2_depth_duration_MTurk/v2_DepthDuration_HTML.html#68,68,500,285,1366,768,9-4-2022,23-20-35,41,depth_duration_stimuli/002057_2014-06-24_21-00-13_260595134347_rgbf000120-resize_1/002057_2014-06-24_21-00-13_260595134347_rgbf000120-resize_1-target.png,125,2.967,0,1008,119,meters,jsons/VE125_randls_59.json,521111,771567,35,Man
41,312187,DepthScenes,duration_manipulation_targetAtFixation,jsons/VE125_randls_59.json,http://54.235.29.9/FacialAge/BNav_EC2/DepthDuration/v2_depth_duration_MTurk/v2_DepthDuration_HTML.html#68,68,500,285,1366,768,9-4-2022,23-20-35,42,depth_duration_stimuli/000709_2014-06-08_13-51-55_260595134347_rgbf000068-resize_3/000709_2014-06-08_13-51-55_260595134347_rgbf000068-resize_3-target.png,125,1.8030000000000002,0,997,129,meters,jsons/VE125_randls_59.json,521111,771567,35,Man
42,312187,DepthScenes,duration_manipulation_targetAtFixation,jsons/VE125_randls_59.json,http://54.235.29.9/FacialAge/BNav_EC2/DepthDuration/v2_depth_duration_MTurk/v2_DepthDuration_HTML.html#68,68,500,285,1366,768,9-4-2022,23-20-35,43,depth_duration_stimuli/000469_2014-06-09_19-42-10_260595134347_rgbf000081-resize_1/000469_2014-06-09_19-42-10_260595134347_rgbf000081-resize_1-target.png,125,1.652,0,1009,128,meters,jsons/VE125_randls_59.json,521111,771567,35,Man
43,312187,DepthScenes,duration_manipulation_targetAtFixation,jsons/VE125_randls_59.json,http://54.235.29.9/FacialAge/BNav_EC2/DepthDuration/v2_depth_duration_MTurk/v2_DepthDuration_HTML.html#68,68,500,285,1366,768,9-4-2022,23-20-35,44,depth_duration_stimuli/000483_2014-06-09_20-41-45_260595134347_rgbf000116-resize_4/000483_2014-06-09_20-41-45_260595134347_rgbf000116-resize_4-target.png,125,1.337,0,1045,118,meters,jsons/VE125_randls_59.json,521111,771567,35,Man
44,312187,DepthScenes,duration_manipulation_targetAtFixation,jsons/VE125_randls_59.json,http://54.235.29.9/FacialAge/BNav_EC2/DepthDuration/v2_depth_duration_MTurk/v2_DepthDuration_HTML.html#68,68,500,285,1366,768,9-4-2022,23-20-35,45,depth_duration_stimuli/000787_2014-06-08_22-33-53_260595134347_rgbf000175-resize_1/000787_2014-06-08_22-33-53_260595134347_rgbf000175-resize-original.jpg,125,4.784,0,1555,129,meters,jsons/VE125_randls_59.json,521111,771567,35,Man
45,312187,DepthScenes,duration_manipulation_targetAtFixation,jsons/VE125_randls_59.json,http://54.235.29.9/FacialAge/BNav_EC2/DepthDuration/v2_depth_duration_MTurk/v2_DepthDuration_HTML.html#68,68,500,285,1366,768,9-4-2022,23-20-35,46,depth_duration_stimuli/002989_2014-06-15_12-25-03_094959634447_rgbf000150-resize_3/002989_2014-06-15_12-25-03_094959634447_rgbf000150-resize_3-target.png,125,4.1975,0,1430,128,meters,jsons/VE125_randls_59.json,521111,771567,35,Man
46,312187,DepthScenes,duration_manipulation_targetAtFixation,jsons/VE125_randls_59.json,http://54.235.29.9/FacialAge/BNav_EC2/DepthDuration/v2_depth_duration_MTurk/v2_DepthDuration_HTML.html#68,68,500,285,1366,768,9-4-2022,23-20-35,47,depth_duration_stimuli/000866_2014-06-09_20-45-42_260595134347_rgbf000139-resize_1/000866_2014-06-09_20-45-42_260595134347_rgbf000139-resize_1-target.png,125,3.2155,0,1236,119,meters,jsons/VE125_randls_59.json,521111,771567,35,Man
47,312187,DepthScenes,duration_manipulation_targetAtFixation,jsons/VE125_randls_59.json,http://54.235.29.9/FacialAge/BNav_EC2/DepthDuration/v2_depth_duration_MTurk/v2_DepthDuration_HTML.html#68,68,500,285,1366,768,9-4-2022,23-20-35,48,depth_duration_stimuli/000906_2014-06-08_13-35-43_260595134347_rgbf000155-resize_1/000906_2014-06-08_13-35-43_260595134347_rgbf000155-resize_1-target.png,125,2.8489999999999998,0,1122,128,meters,jsons/VE125_randls_59.json,521111,771567,35,Man
48,312187,DepthScenes,duration_manipulation_targetAtFixation,jsons/VE125_randls_59.json,http://54.235.29.9/FacialAge/BNav_EC2/DepthDuration/v2_depth_duration_MTurk/v2_DepthDuration_HTML.html#68,68,500,285,1366,768,9-4-2022,23-20-35,49,depth_duration_stimuli/002805_2014-06-22_19-54-03_094959634447_rgbf000079-resize_1/002805_2014-06-22_19-54-03_094959634447_rgbf000079-resize_1-target.png,125,3.1439999999999997,0,1445,119,meters,jsons/VE125_randls_59.json,521111,771567,35,Man
49,312187,DepthScenes,duration_manipulation_targetAtFixation,jsons/VE125_randls_59.json,http://54.235.29.9/FacialAge/BNav_EC2/DepthDuration/v2_depth_duration_MTurk/v2_DepthDuration_HTML.html#68,68,500,285,1366,768,9-4-2022,23-20-35,50,depth_duration_stimuli/000506_2014-06-08_23-21-00_260595134347_rgbf000070-resize_7/000506_2014-06-08_23-21-00_260595134347_rgbf000070-resize_7-target.png,125,4.0585,0,1146,128,meters,jsons/VE125_randls_59.json,521111,771567,35,Man
50,312187,DepthScenes,duration_manipulation_targetAtFixation,jsons/VE125_randls_59.json,http://54.235.29.9/FacialAge/BNav_EC2/DepthDuration/v2_depth_duration_MTurk/v2_DepthDuration_HTML.html#68,68,500,285,1366,768,9-4-2022,23-20-35,51,depth_duration_stimuli/003079_2014-06-15_15-18-20_094959634447_rgbf000152-resize_8/003079_2014-06-15_15-18-20_094959634447_rgbf000152-resize_8-target.png,125,2.8775,0,1131,128,meters,jsons/VE125_randls_59.json,521111,771567,35,Man
51,312187,DepthScenes,duration_manipulation_targetAtFixation,jsons/VE125_randls_59.json,http://54.235.29.9/FacialAge/BNav_EC2/DepthDuration/v2_depth_duration_MTurk/v2_DepthDuration_HTML.html#68,68,500,285,1366,768,9-4-2022,23-20-35,52,depth_duration_stimuli/002509_2014-06-24_13-19-22_094959634447_rgbf000077-resize_0/002509_2014-06-24_13-19-22_094959634447_rgbf000077-resize_0-target.png,125,1.3065,0,1185,117,meters,jsons/VE125_randls_59.json,521111,771567,35,Man
52,312187,DepthScenes,duration_manipulation_targetAtFixation,jsons/VE125_randls_59.json,http://54.235.29.9/FacialAge/BNav_EC2/DepthDuration/v2_depth_duration_MTurk/v2_DepthDuration_HTML.html#68,68,500,285,1366,768,9-4-2022,23-20-35,53,depth_duration_stimuli/003338_2014-05-20_11-01-23_094959634447_rgbf000051-resize_6/003338_2014-05-20_11-01-23_094959634447_rgbf000051-resize_6-target.png,125,1.693,0,1300,128,meters,jsons/VE125_randls_59.json,521111,771567,35,Man
53,312187,DepthScenes,duration_manipulation_targetAtFixation,jsons/VE125_randls_59.json,http://54.235.29.9/FacialAge/BNav_EC2/DepthDuration/v2_depth_duration_MTurk/v2_DepthDuration_HTML.html#68,68,500,285,1366,768,9-4-2022,23-20-35,54,depth_duration_stimuli/001158_2014-06-17_15-32-16_260595134347_rgbf000138-resize_2/001158_2014-06-17_15-32-16_260595134347_rgbf000138-resize_2-target.png,125,4.5315,0,1158,118,meters,jsons/VE125_randls_59.json,521111,771567,35,Man
54,312187,DepthScenes,duration_manipulation_targetAtFixation,jsons/VE125_randls_59.json,http://54.235.29.9/FacialAge/BNav_EC2/DepthDuration/v2_depth_duration_MTurk/v2_DepthDuration_HTML.html#68,68,500,285,1366,768,9-4-2022,23-20-35,55,depth_duration_stimuli/000556_2014-06-09_22-42-56_260595134347_rgbf000214-resize_1/000556_2014-06-09_22-42-56_260595134347_rgbf000214-resize_1-target.png,125,4.8415,0,1073,119,meters,jsons/VE125_randls_59.json,521111,771567,35,Man
55,312187,DepthScenes,duration_manipulation_targetAtFixation,jsons/VE125_randls_59.json,http://54.235.29.9/FacialAge/BNav_EC2/DepthDuration/v2_depth_duration_MTurk/v2_DepthDuration_HTML.html#68,68,500,285,1366,768,9-4-2022,23-20-35,56,depth_duration_stimuli/000788_2014-06-08_22-34-36_260595134347_rgbf000131-resize_1/000788_2014-06-08_22-34-36_260595134347_rgbf000131-resize_1-target.png,125,3.359,0,1209,118,meters,jsons/VE125_randls_59.json,521111,771567,35,Man
56,312187,DepthScenes,duration_manipulation_targetAtFixation,jsons/VE125_randls_59.json,http://54.235.29.9/FacialAge/BNav_EC2/DepthDuration/v2_depth_duration_MTurk/v2_DepthDuration_HTML.html#68,68,500,285,1366,768,9-4-2022,23-20-35,57,depth_duration_stimuli/001235_2014-06-17_16-37-36_260595134347_rgbf000084-resize_4/001235_2014-06-17_16-37-36_260595134347_rgbf000084-resize_4-target.png,125,3.6605,0,1124,119,meters,jsons/VE125_randls_59.json,521111,771567,35,Man
57,312187,DepthScenes,duration_manipulation_targetAtFixation,jsons/VE125_randls_59.json,http://54.235.29.9/FacialAge/BNav_EC2/DepthDuration/v2_depth_duration_MTurk/v2_DepthDuration_HTML.html#68,68,500,285,1366,768,9-4-2022,23-20-35,58,depth_duration_stimuli/002153_2014-06-25_21-27-18_260595134347_rgbf000038-resize_5/002153_2014-06-25_21-27-18_260595134347_rgbf000038-resize_5-target.png,125,2.505,0,1014,127,meters,jsons/VE125_randls_59.json,521111,771567,35,Man
58,312187,DepthScenes,duration_manipulation_targetAtFixation,jsons/VE125_randls_59.json,http://54.235.29.9/FacialAge/BNav_EC2/DepthDuration/v2_depth_duration_MTurk/v2_DepthDuration_HTML.html#68,68,500,285,1366,768,9-4-2022,23-20-35,59,depth_duration_stimuli/002660_2014-06-13_15-44-18_094959634447_rgbf001878-resize_2/002660_2014-06-13_15-44-18_094959634447_rgbf001878-resize_2-target.png,125,3.576,0,1012,128,meters,jsons/VE125_randls_59.json,521111,771567,35,Man
59,312187,DepthScenes,duration_manipulation_targetAtFixation,jsons/VE125_randls_59.json,http://54.235.29.9/FacialAge/BNav_EC2/DepthDuration/v2_depth_duration_MTurk/v2_DepthDuration_HTML.html#68,68,500,285,1366,768,9-4-2022,23-20-35,60,depth_duration_stimuli/000810_2014-06-08_17-20-01_260595134347_rgbf000105-resize_0/000810_2014-06-08_17-20-01_260595134347_rgbf000105-resize_0-target.png,125,1.4865,0,1096,118,meters,jsons/VE125_randls_59.json,521111,771567,35,Man
60,312187,DepthScenes,duration_manipulation_targetAtFixation,jsons/VE125_randls_59.json,http://54.235.29.9/FacialAge/BNav_EC2/DepthDuration/v2_depth_duration_MTurk/v2_DepthDuration_HTML.html#68,68,500,285,1366,768,9-4-2022,23-20-35,61,depth_duration_stimuli/001214_2014-06-17_16-13-55_260595134347_rgbf000111-resize_0/001214_2014-06-17_16-13-55_260595134347_rgbf000111-resize_0-target.png,125,2.6505,0,10253,129,meters,jsons/VE125_randls_59.json,521111,771567,35,Man
61,312187,DepthScenes,duration_manipulation_targetAtFixation,jsons/VE125_randls_59.json,http://54.235.29.9/FacialAge/BNav_EC2/DepthDuration/v2_depth_duration_MTurk/v2_DepthDuration_HTML.html#68,68,500,285,1366,768,9-4-2022,23-20-35,62,depth_duration_stimuli/002039_2014-06-24_20-22-38_260595134347_rgbf000084-resize_1/002039_2014-06-24_20-22-38_260595134347_rgbf000084-resize_1-target.png,125,4.408,0,1116,119,meters,jsons/VE125_randls_59.json,521111,771567,35,Man
62,312187,DepthScenes,duration_manipulation_targetAtFixation,jsons/VE125_randls_59.json,http://54.235.29.9/FacialAge/BNav_EC2/DepthDuration/v2_depth_duration_MTurk/v2_DepthDuration_HTML.html#68,68,500,285,1366,768,9-4-2022,23-20-35,63,depth_duration_stimuli/002103_2014-06-25_20-00-40_260595134347_rgbf000049-resize_0/002103_2014-06-25_20-00-40_260595134347_rgbf000049-resize_0-target.png,125,4.105,0,1137,128,meters,jsons/VE125_randls_59.json,521111,771567,35,Man
63,312187,DepthScenes,duration_manipulation_targetAtFixation,jsons/VE125_randls_59.json,http://54.235.29.9/FacialAge/BNav_EC2/DepthDuration/v2_depth_duration_MTurk/v2_DepthDuration_HTML.html#68,68,500,285,1366,768,9-4-2022,23-20-35,64,depth_duration_stimuli/003292_2014-05-14_21-53-49_094959634447_rgbf000100-resize_2/003292_2014-05-14_21-53-49_094959634447_rgbf000100-resize_2-target.png,125,3.4815,0,1082,128,meters,jsons/VE125_randls_59.json,521111,771567,35,Man
64,312187,DepthScenes,duration_manipulation_targetAtFixation,jsons/VE125_randls_59.json,http://54.235.29.9/FacialAge/BNav_EC2/DepthDuration/v2_depth_duration_MTurk/v2_DepthDuration_HTML.html#68,68,500,285,1366,768,9-4-2022,23-20-35,65,depth_duration_stimuli/002639_2014-06-24_14-51-37_094959634447_rgbf000074-resize_4/002639_2014-06-24_14-51-37_094959634447_rgbf000074-resize_4-target.png,125,4.0375,0,1137,119,meters,jsons/VE125_randls_59.json,521111,771567,35,Man
65,312187,DepthScenes,duration_manipulation_targetAtFixation,jsons/VE125_randls_59.json,http://54.235.29.9/FacialAge/BNav_EC2/DepthDuration/v2_depth_duration_MTurk/v2_DepthDuration_HTML.html#68,68,500,285,1366,768,9-4-2022,23-20-35,66,depth_duration_stimuli/001222_2014-06-17_16-24-06_260595134347_rgbf000073-resize_0/001222_2014-06-17_16-24-06_260595134347_rgbf000073-resize-original.jpg,125,1.4385,0,1121,128,meters,jsons/VE125_randls_59.json,521111,771567,35,Man
66,312187,DepthScenes,duration_manipulation_targetAtFixation,jsons/VE125_randls_59.json,http://54.235.29.9/FacialAge/BNav_EC2/DepthDuration/v2_depth_duration_MTurk/v2_DepthDuration_HTML.html#68,68,500,285,1366,768,9-4-2022,23-20-35,67,depth_duration_stimuli/003621_2014-05-23_18-06-08_094959634447_rgbf000101-resize_1/003621_2014-05-23_18-06-08_094959634447_rgbf000101-resize_1-target.png,125,3.9835,0,1144,117,meters,jsons/VE125_randls_59.json,521111,771567,35,Man
67,312187,DepthScenes,duration_manipulation_targetAtFixation,jsons/VE125_randls_59.json,http://54.235.29.9/FacialAge/BNav_EC2/DepthDuration/v2_depth_duration_MTurk/v2_DepthDuration_HTML.html#68,68,500,285,1366,768,9-4-2022,23-20-35,68,depth_duration_stimuli/001584_2014-06-20_11-07-43_260595134347_rgbf000002-resize_1/001584_2014-06-20_11-07-43_260595134347_rgbf000002-resize_1-target.png,125,3.53,0,1261,128,meters,jsons/VE125_randls_59.json,521111,771567,35,Man
68,312187,DepthScenes,duration_manipulation_targetAtFixation,jsons/VE125_randls_59.json,http://54.235.29.9/FacialAge/BNav_EC2/DepthDuration/v2_depth_duration_MTurk/v2_DepthDuration_HTML.html#68,68,500,285,1366,768,9-4-2022,23-20-35,69,depth_duration_stimuli/000773_2014-06-08_22-24-54_260595134347_rgbf000093-resize_1/000773_2014-06-08_22-24-54_260595134347_rgbf000093-resize_1-target.png,125,4.973,0,1202,118,meters,jsons/VE125_randls_59.json,521111,771567,35,Man
69,312187,DepthScenes,duration_manipulation_targetAtFixation,jsons/VE125_randls_59.json,http://54.235.29.9/FacialAge/BNav_EC2/DepthDuration/v2_depth_duration_MTurk/v2_DepthDuration_HTML.html#68,68,500,285,1366,768,9-4-2022,23-20-35,70,depth_duration_stimuli/002414_2014-06-28_20-24-58_260595134347_rgbf000067-resize_4/002414_2014-06-28_20-24-58_260595134347_rgbf000067-resize_4-target.png,125,4.363,0,1123,119,meters,jsons/VE125_randls_59.json,521111,771567,35,Man
70,312187,DepthScenes,duration_manipulation_targetAtFixation,jsons/VE125_randls_59.json,http://54.235.29.9/FacialAge/BNav_EC2/DepthDuration/v2_depth_duration_MTurk/v2_DepthDuration_HTML.html#68,68,500,285,1366,768,9-4-2022,23-20-35,71,depth_duration_stimuli/001806_2014-06-26_20-50-20_260595134347_rgbf000091-resize_1/001806_2014-06-26_20-50-20_260595134347_rgbf000091-resize_1-target.png,125,2.7305,0,1095,128,meters,jsons/VE125_randls_59.json,521111,771567,35,Man
71,312187,DepthScenes,duration_manipulation_targetAtFixation,jsons/VE125_randls_59.json,http://54.235.29.9/FacialAge/BNav_EC2/DepthDuration/v2_depth_duration_MTurk/v2_DepthDuration_HTML.html#68,68,500,285,1366,768,9-4-2022,23-20-35,72,depth_duration_stimuli/001617_2014-06-20_11-35-32_260595134347_rgbf000066-resize_1/001617_2014-06-20_11-35-32_260595134347_rgbf000066-resize_1-target.png,125,3.7910000000000004,0,1122,129,meters,jsons/VE125_randls_59.json,521111,771567,35,Man
72,312187,DepthScenes,duration_manipulation_targetAtFixation,jsons/VE125_randls_59.json,http://54.235.29.9/FacialAge/BNav_EC2/DepthDuration/v2_depth_duration_MTurk/v2_DepthDuration_HTML.html#68,68,500,285,1366,768,9-4-2022,23-20-35,73,depth_duration_stimuli/001056_2014-06-08_18-46-44_260595134347_rgbf000068-resize_0/001056_2014-06-08_18-46-44_260595134347_rgbf000068-resize_0-target.png,125,2.6625,0,1153,119,meters,jsons/VE125_randls_59.json,521111,771567,35,Man
73,312187,DepthScenes,duration_manipulation_targetAtFixation,jsons/VE125_randls_59.json,http://54.235.29.9/FacialAge/BNav_EC2/DepthDuration/v2_depth_duration_MTurk/v2_DepthDuration_HTML.html#68,68,500,285,1366,768,9-4-2022,23-20-35,74,depth_duration_stimuli/002199_2014-06-28_18-33-56_260595134347_rgbf000074-resize_0/002199_2014-06-28_18-33-56_260595134347_rgbf000074-resize_0-target.png,125,1.996,0,1133,119,meters,jsons/VE125_randls_59.json,521111,771567,35,Man
74,312187,DepthScenes,duration_manipulation_targetAtFixation,jsons/VE125_randls_59.json,http://54.235.29.9/FacialAge/BNav_EC2/DepthDuration/v2_depth_duration_MTurk/v2_DepthDuration_HTML.html#68,68,500,285,1366,768,9-4-2022,23-20-35,75,depth_duration_stimuli/001555_2014-06-20_17-12-10_260595134347_rgbf000065-resize_4/001555_2014-06-20_17-12-10_260595134347_rgbf000065-resize_4-target.png,125,1.633,0,2325,129,meters,jsons/VE125_randls_59.json,521111,771567,35,Man
75,312187,DepthScenes,duration_manipulation_targetAtFixation,jsons/VE125_randls_59.json,http://54.235.29.9/FacialAge/BNav_EC2/DepthDuration/v2_depth_duration_MTurk/v2_DepthDuration_HTML.html#68,68,500,285,1366,768,9-4-2022,23-20-35,76,depth_duration_stimuli/000103_2014-05-14_22-01-17_260595134347_rgbf000152-resize_5/000103_2014-05-14_22-01-17_260595134347_rgbf000152-resize_5-target.png,125,1.993,0,1144,129,meters,jsons/VE125_randls_59.json,521111,771567,35,Man
76,312187,DepthScenes,duration_manipulation_targetAtFixation,jsons/VE125_randls_59.json,http://54.235.29.9/FacialAge/BNav_EC2/DepthDuration/v2_depth_duration_MTurk/v2_DepthDuration_HTML.html#68,68,500,285,1366,768,9-4-2022,23-20-35,77,depth_duration_stimuli/000758_2014-06-08_22-05-08_260595134347_rgbf000085-resize_0/000758_2014-06-08_22-05-08_260595134347_rgbf000085-resize_0-target.png,125,3.3810000000000002,0,1157,118,meters,jsons/VE125_randls_59.json,521111,771567,35,Man
77,312187,DepthScenes,duration_manipulation_targetAtFixation,jsons/VE125_randls_59.json,http://54.235.29.9/FacialAge/BNav_EC2/DepthDuration/v2_depth_duration_MTurk/v2_DepthDuration_HTML.html#68,68,500,285,1366,768,9-4-2022,23-20-35,78,depth_duration_stimuli/000854_2014-06-09_19-43-13_260595134347_rgbf000066-resize_0/000854_2014-06-09_19-43-13_260595134347_rgbf000066-resize_0-target.png,125,3.068,0,1194,129,meters,jsons/VE125_randls_59.json,521111,771567,35,Man
78,312187,DepthScenes,duration_manipulation_targetAtFixation,jsons/VE125_randls_59.json,http://54.235.29.9/FacialAge/BNav_EC2/DepthDuration/v2_depth_duration_MTurk/v2_DepthDuration_HTML.html#68,68,500,285,1366,768,9-4-2022,23-20-35,79,depth_duration_stimuli/000692_2014-06-08_13-09-42_260595134347_rgbf000199-resize_2/000692_2014-06-08_13-09-42_260595134347_rgbf000199-resize_2-target.png,125,3.661,0,1295,119,meters,jsons/VE125_randls_59.json,521111,771567,35,Man
79,312187,DepthScenes,duration_manipulation_targetAtFixation,jsons/VE125_randls_59.json,http://54.235.29.9/FacialAge/BNav_EC2/DepthDuration/v2_depth_duration_MTurk/v2_DepthDuration_HTML.html#68,68,500,285,1366,768,9-4-2022,23-20-35,80,depth_duration_stimuli/001094_2014-06-15_17-36-00_260595134347_rgbf000205-resize_0/001094_2014-06-15_17-36-00_260595134347_rgbf000205-resize_0-target.png,125,4.2175,0,1125,117,meters,jsons/VE125_randls_59.json,521111,771567,35,Man
80,312187,DepthScenes,duration_manipulation_targetAtFixation,jsons/VE125_randls_59.json,http://54.235.29.9/FacialAge/BNav_EC2/DepthDuration/v2_depth_duration_MTurk/v2_DepthDuration_HTML.html#68,68,500,285,1366,768,9-4-2022,23-20-35,81,depth_duration_stimuli/002043_2014-06-24_20-29-38_260595134347_rgbf000039-resize_4/002043_2014-06-24_20-29-38_260595134347_rgbf000039-resize_4-target.png,125,2.8435,0,1075,129,meters,jsons/VE125_randls_59.json,521111,771567,35,Man
81,312187,DepthScenes,duration_manipulation_targetAtFixation,jsons/VE125_randls_59.json,http://54.235.29.9/FacialAge/BNav_EC2/DepthDuration/v2_depth_duration_MTurk/v2_DepthDuration_HTML.html#68,68,500,285,1366,768,9-4-2022,23-20-35,82,depth_duration_stimuli/003048_2014-06-15_13-49-43_094959634447_rgbf000150-resize_1/003048_2014-06-15_13-49-43_094959634447_rgbf000150-resize_1-target.png,125,4.0035,0,1075,128,meters,jsons/VE125_randls_59.json,521111,771567,35,Man
82,312187,DepthScenes,duration_manipulation_targetAtFixation,jsons/VE125_randls_59.json,http://54.235.29.9/FacialAge/BNav_EC2/DepthDuration/v2_depth_duration_MTurk/v2_DepthDuration_HTML.html#68,68,500,285,1366,768,9-4-2022,23-20-35,83,depth_duration_stimuli/002964_2014-06-08_17-46-11_094959634447_rgbf000091-resize_4/002964_2014-06-08_17-46-11_094959634447_rgbf000091-resize_4-target.png,125,1.6909999999999998,0,1067,128,meters,jsons/VE125_randls_59.json,521111,771567,35,Man
83,312187,DepthScenes,duration_manipulation_targetAtFixation,jsons/VE125_randls_59.json,http://54.235.29.9/FacialAge/BNav_EC2/DepthDuration/v2_depth_duration_MTurk/v2_DepthDuration_HTML.html#68,68,500,285,1366,768,9-4-2022,23-20-35,84,depth_duration_stimuli/002136_2014-06-25_21-18-03_260595134347_rgbf000109-resize_3/002136_2014-06-25_21-18-03_260595134347_rgbf000109-resize_3-target.png,125,1.9569999999999999,0,1046,128,meters,jsons/VE125_randls_59.json,521111,771567,35,Man
84,312187,DepthScenes,duration_manipulation_targetAtFixation,jsons/VE125_randls_59.json,http://54.235.29.9/FacialAge/BNav_EC2/DepthDuration/v2_depth_duration_MTurk/v2_DepthDuration_HTML.html#68,68,500,285,1366,768,9-4-2022,23-20-35,85,depth_duration_stimuli/000447_2014-06-08_16-15-46_260595134347_rgbf000130-resize_1/000447_2014-06-08_16-15-46_260595134347_rgbf000130-resize_1-target.png,125,4.479,0,1063,128,meters,jsons/VE125_randls_59.json,521111,771567,35,Man
85,312187,DepthScenes,duration_manipulation_targetAtFixation,jsons/VE125_randls_59.json,http://54.235.29.9/FacialAge/BNav_EC2/DepthDuration/v2_depth_duration_MTurk/v2_DepthDuration_HTML.html#68,68,500,285,1366,768,9-4-2022,23-20-35,86,depth_duration_stimuli/001447_2014-06-19_17-00-32_260595134347_rgbf000082-resize_5/001447_2014-06-19_17-00-32_260595134347_rgbf000082-resize_5-target.png,125,4.13775,0,1059,129,meters,jsons/VE125_randls_59.json,521111,771567,35,Man
86,312187,DepthScenes,duration_manipulation_targetAtFixation,jsons/VE125_randls_59.json,http://54.235.29.9/FacialAge/BNav_EC2/DepthDuration/v2_depth_duration_MTurk/v2_DepthDuration_HTML.html#68,68,500,285,1366,768,9-4-2022,23-20-35,87,depth_duration_stimuli/001059_2014-06-08_21-53-27_260595134347_rgbf000061-resize_4/001059_2014-06-08_21-53-27_260595134347_rgbf000061-resize_4-target.png,125,2.4185,0,1013,118,meters,jsons/VE125_randls_59.json,521111,771567,35,Man
87,312187,DepthScenes,duration_manipulation_targetAtFixation,jsons/VE125_randls_59.json,http://54.235.29.9/FacialAge/BNav_EC2/DepthDuration/v2_depth_duration_MTurk/v2_DepthDuration_HTML.html#68,68,500,285,1366,768,9-4-2022,23-20-35,88,depth_duration_stimuli/001032_2014-06-08_13-23-17_260595134347_rgbf000021-resize_3/001032_2014-06-08_13-23-17_260595134347_rgbf000021-resize_3-target.png,125,3.2725,0,1005,128,meters,jsons/VE125_randls_59.json,521111,771567,35,Man
88,312187,DepthScenes,duration_manipulation_targetAtFixation,jsons/VE125_randls_59.json,http://54.235.29.9/FacialAge/BNav_EC2/DepthDuration/v2_depth_duration_MTurk/v2_DepthDuration_HTML.html#68,68,500,285,1366,768,9-4-2022,23-20-35,89,depth_duration_stimuli/001092_2014-06-15_17-34-58_260595134347_rgbf000171-resize_3/001092_2014-06-15_17-34-58_260595134347_rgbf000171-resize_3-target.png,125,2.6935,0,1061,129,meters,jsons/VE125_randls_59.json,521111,771567,35,Man
89,312187,DepthScenes,duration_manipulation_targetAtFixation,jsons/VE125_randls_59.json,http://54.235.29.9/FacialAge/BNav_EC2/DepthDuration/v2_depth_duration_MTurk/v2_DepthDuration_HTML.html#68,68,500,285,1366,768,9-4-2022,23-20-35,90,depth_duration_stimuli/002545_2014-06-24_13-38-53_094959634447_rgbf000080-resize_4/002545_2014-06-24_13-38-53_094959634447_rgbf000080-resize_4-target.png,125,1.9205,0,1076,119,meters,jsons/VE125_randls_59.json,521111,771567,35,Man
90,312187,DepthScenes,duration_manipulation_targetAtFixation,jsons/VE125_randls_59.json,http://54.235.29.9/FacialAge/BNav_EC2/DepthDuration/v2_depth_duration_MTurk/v2_DepthDuration_HTML.html#68,68,500,285,1366,768,9-4-2022,23-20-35,91,depth_duration_stimuli/002763_2014-06-22_19-13-10_094959634447_rgbf000075-resize_4/002763_2014-06-22_19-13-10_094959634447_rgbf000075-resize_4-target.png,125,1.68375,0,1149,128,meters,jsons/VE125_randls_59.json,521111,771567,35,Man
91,312187,DepthScenes,duration_manipulation_targetAtFixation,jsons/VE125_randls_59.json,http://54.235.29.9/FacialAge/BNav_EC2/DepthDuration/v2_depth_duration_MTurk/v2_DepthDuration_HTML.html#68,68,500,285,1366,768,9-4-2022,23-20-35,92,depth_duration_stimuli/002209_2014-06-28_18-36-10_260595134347_rgbf000051-resize_1/002209_2014-06-28_18-36-10_260595134347_rgbf000051-resize_1-target.png,125,2.057,0,1061,119,meters,jsons/VE125_randls_59.json,521111,771567,35,Man
92,312187,DepthScenes,duration_manipulation_targetAtFixation,jsons/VE125_randls_59.json,http://54.235.29.9/FacialAge/BNav_EC2/DepthDuration/v2_depth_duration_MTurk/v2_DepthDuration_HTML.html#68,68,500,285,1366,768,9-4-2022,23-20-35,93,depth_duration_stimuli/000414_2014-06-04_19-49-13_260595134347_rgbf000044-resize_0/000414_2014-06-04_19-49-13_260595134347_rgbf000044-resize_0-target.png,125,4.329,0,1049,123,meters,jsons/VE125_randls_59.json,521111,771567,35,Man
93,312187,DepthScenes,duration_manipulation_targetAtFixation,jsons/VE125_randls_59.json,http://54.235.29.9/FacialAge/BNav_EC2/DepthDuration/v2_depth_duration_MTurk/v2_DepthDuration_HTML.html#68,68,500,285,1366,768,9-4-2022,23-20-35,94,depth_duration_stimuli/003129_2014-05-12_10-48-10_094959634447_rgbf000100-resize_0/003129_2014-05-12_10-48-10_094959634447_rgbf000100-resize_0-target.png,125,4.9305,0,2385,119,meters,jsons/VE125_randls_59.json,521111,771567,35,Man
94,312187,DepthScenes,duration_manipulation_targetAtFixation,jsons/VE125_randls_59.json,http://54.235.29.9/FacialAge/BNav_EC2/DepthDuration/v2_depth_duration_MTurk/v2_DepthDuration_HTML.html#68,68,500,285,1366,768,9-4-2022,23-20-35,95,depth_duration_stimuli/000929_2014-06-09_16-33-19_260595134347_rgbf000139-resize_0/000929_2014-06-09_16-33-19_260595134347_rgbf000139-resize_0-target.png,125,2.8680000000000003,0,1159,129,meters,jsons/VE125_randls_59.json,521111,771567,35,Man
95,312187,DepthScenes,duration_manipulation_targetAtFixation,jsons/VE125_randls_59.json,http://54.235.29.9/FacialAge/BNav_EC2/DepthDuration/v2_depth_duration_MTurk/v2_DepthDuration_HTML.html#68,68,500,285,1366,768,9-4-2022,23-20-35,96,depth_duration_stimuli/000457_2014-06-08_16-52-43_260595134347_rgbf000199-resize_1/000457_2014-06-08_16-52-43_260595134347_rgbf000199-resize_1-target.png,125,3.6489999999999996,0,1158,118,meters,jsons/VE125_randls_59.json,521111,771567,35,Man
96,312187,DepthScenes,duration_manipulation_targetAtFixation,jsons/VE125_randls_59.json,http://54.235.29.9/FacialAge/BNav_EC2/DepthDuration/v2_depth_duration_MTurk/v2_DepthDuration_HTML.html#68,68,500,285,1366,768,9-4-2022,23-20-35,97,depth_duration_stimuli/001133_2014-06-17_14-49-16_260595134347_rgbf000100-resize_0/001133_2014-06-17_14-49-16_260595134347_rgbf000100-resize_0-target.png,125,4.2115,0,1084,119,meters,jsons/VE125_randls_59.json,521111,771567,35,Man
97,312187,DepthScenes,duration_manipulation_targetAtFixation,jsons/VE125_randls_59.json,http://54.235.29.9/FacialAge/BNav_EC2/DepthDuration/v2_depth_duration_MTurk/v2_DepthDuration_HTML.html#68,68,500,285,1366,768,9-4-2022,23-20-35,98,depth_duration_stimuli/001132_2014-06-17_14-48-54_260595134347_rgbf000100-resize_2/001132_2014-06-17_14-48-54_260595134347_rgbf000100-resize_2-target.png,125,3.753,0,1072,128,meters,jsons/VE125_randls_59.json,521111,771567,35,Man
98,312187,DepthScenes,duration_manipulation_targetAtFixation,jsons/VE125_randls_59.json,http://54.235.29.9/FacialAge/BNav_EC2/DepthDuration/v2_depth_duration_MTurk/v2_DepthDuration_HTML.html#68,68,500,285,1366,768,9-4-2022,23-20-35,99,depth_duration_stimuli/001540_2014-06-20_17-01-05_260595134347_rgbf000086-resize_2/001540_2014-06-20_17-01-05_260595134347_rgbf000086-resize-original.jpg,125,1.459,0,1084,119,meters,jsons/VE125_randls_59.json,521111,771567,35,Man
99,312187,DepthScenes,duration_manipulation_targetAtFixation,jsons/VE125_randls_59.json,http://54.235.29.9/FacialAge/BNav_EC2/DepthDuration/v2_depth_duration_MTurk/v2_DepthDuration_HTML.html#68,68,500,285,1366,768,9-4-2022,23-20-35,100,depth_duration_stimuli/002570_2014-06-24_13-59-54_094959634447_rgbf000059-resize_0/002570_2014-06-24_13-59-54_094959634447_rgbf000059-resize_0-target.png,125,4.037,0,1065,129,meters,jsons/VE125_randls_59.json,521111,771567,35,Man
100,312187,DepthScenes,duration_manipulation_targetAtFixation,jsons/VE125_randls_59.json,http://54.235.29.9/FacialAge/BNav_EC2/DepthDuration/v2_depth_duration_MTurk/v2_DepthDuration_HTML.html#68,68,500,285,1366,768,9-4-2022,23-20-35,101,depth_duration_stimuli/002467_2014-06-28_20-38-07_260595134347_rgbf000026-resize_2/002467_2014-06-28_20-38-07_260595134347_rgbf000026-resize_2-target.png,125,4.742,0,1074,129,meters,jsons/VE125_randls_59.json,521111,771567,35,Man
101,312187,DepthScenes,duration_manipulation_targetAtFixation,jsons/VE125_randls_59.json,http://54.235.29.9/FacialAge/BNav_EC2/DepthDuration/v2_depth_duration_MTurk/v2_DepthDuration_HTML.html#68,68,500,285,1366,768,9-4-2022,23-20-35,102,depth_duration_stimuli/001011_2014-06-08_23-18-54_260595134347_rgbf000044-resize_4/001011_2014-06-08_23-18-54_260595134347_rgbf000044-resize_4-target.png,125,2.4730000000000003,0,1096,129,meters,jsons/VE125_randls_59.json,521111,771567,35,Man
102,312187,DepthScenes,duration_manipulation_targetAtFixation,jsons/VE125_randls_59.json,http://54.235.29.9/FacialAge/BNav_EC2/DepthDuration/v2_depth_duration_MTurk/v2_DepthDuration_HTML.html#68,68,500,285,1366,768,9-4-2022,23-20-35,103,depth_duration_stimuli/002875_2014-06-01_15-19-00_094959634447_rgbf000151-resize_1/002875_2014-06-01_15-19-00_094959634447_rgbf000151-resize_1-target.png,125,1.9675,0,1158,129,meters,jsons/VE125_randls_59.json,521111,771567,35,Man
103,312187,DepthScenes,duration_manipulation_targetAtFixation,jsons/VE125_randls_59.json,http://54.235.29.9/FacialAge/BNav_EC2/DepthDuration/v2_depth_duration_MTurk/v2_DepthDuration_HTML.html#68,68,500,285,1366,768,9-4-2022,23-20-35,104,depth_duration_stimuli/002279_2014-06-28_18-55-32_260595134347_rgbf000040-resize_5/002279_2014-06-28_18-55-32_260595134347_rgbf000040-resize_5-target.png,125,1.5043333333333,0,1208,127,meters,jsons/VE125_randls_59.json,521111,771567,35,Man
104,312187,DepthScenes,duration_manipulation_targetAtFixation,jsons/VE125_randls_59.json,http://54.235.29.9/FacialAge/BNav_EC2/DepthDuration/v2_depth_duration_MTurk/v2_DepthDuration_HTML.html#68,68,500,285,1366,768,9-4-2022,23-20-35,105,depth_duration_stimuli/000635_2014-06-08_16-38-42_260595134347_rgbf000106-resize_1/000635_2014-06-08_16-38-42_260595134347_rgbf000106-resize_1-target.png,125,2.074,0,1103,128,meters,jsons/VE125_randls_59.json,521111,771567,35,Man
105,312187,DepthScenes,duration_manipulation_targetAtFixation,jsons/VE125_randls_59.json,http://54.235.29.9/FacialAge/BNav_EC2/DepthDuration/v2_depth_duration_MTurk/v2_DepthDuration_HTML.html#68,68,500,285,1366,768,9-4-2022,23-20-35,106,depth_duration_stimuli/002630_2014-06-24_14-47-50_094959634447_rgbf000055-resize_1/002630_2014-06-24_14-47-50_094959634447_rgbf000055-resize_1-target.png,125,3.0095,0,1078,124,meters,jsons/VE125_randls_59.json,521111,771567,35,Man
106,312187,DepthScenes,duration_manipulation_targetAtFixation,jsons/VE125_randls_59.json,http://54.235.29.9/FacialAge/BNav_EC2/DepthDuration/v2_depth_duration_MTurk/v2_DepthDuration_HTML.html#68,68,500,285,1366,768,9-4-2022,23-20-35,107,depth_duration_stimuli/002758_2014-06-22_19-11-20_094959634447_rgbf000128-resize_1/002758_2014-06-22_19-11-20_094959634447_rgbf000128-resize_1-target.png,125,2.555,0,1009,129,meters,jsons/VE125_randls_59.json,521111,771567,35,Man
107,312187,DepthScenes,duration_manipulation_targetAtFixation,jsons/VE125_randls_59.json,http://54.235.29.9/FacialAge/BNav_EC2/DepthDuration/v2_depth_duration_MTurk/v2_DepthDuration_HTML.html#68,68,500,285,1366,768,9-4-2022,23-20-35,108,depth_duration_stimuli/000642_2014-06-08_16-59-25_260595134347_rgbf000098-resize_2/000642_2014-06-08_16-59-25_260595134347_rgbf000098-resize_2-target.png,125,2.8815,0,1045,119,meters,jsons/VE125_randls_59.json,521111,771567,35,Man
108,312187,DepthScenes,duration_manipulation_targetAtFixation,jsons/VE125_randls_59.json,http://54.235.29.9/FacialAge/BNav_EC2/DepthDuration/v2_depth_duration_MTurk/v2_DepthDuration_HTML.html#68,68,500,285,1366,768,9-4-2022,23-20-35,109,depth_duration_stimuli/002425_2014-06-28_20-27-29_260595134347_rgbf000031-resize_8/002425_2014-06-28_20-27-29_260595134347_rgbf000031-resize_8-target.png,125,3.8960000000000004,0,1057,128,meters,jsons/VE125_randls_59.json,521111,771567,35,Man
109,312187,DepthScenes,duration_manipulation_targetAtFixation,jsons/VE125_randls_59.json,http://54.235.29.9/FacialAge/BNav_EC2/DepthDuration/v2_depth_duration_MTurk/v2_DepthDuration_HTML.html#68,68,500,285,1366,768,9-4-2022,23-20-35,110,depth_duration_stimuli/002118_2014-06-25_20-32-08_260595134347_rgbf000078-resize_1/002118_2014-06-25_20-32-08_260595134347_rgbf000078-resize_1-target.png,125,2.6460000000000004,0,1071,128,meters,jsons/VE125_randls_59.json,521111,771567,35,Man
110,312187,DepthScenes,duration_manipulation_targetAtFixation,jsons/VE125_randls_59.json,http://54.235.29.9/FacialAge/BNav_EC2/DepthDuration/v2_depth_duration_MTurk/v2_DepthDuration_HTML.html#68,68,500,285,1366,768,9-4-2022,23-20-35,111,depth_duration_stimuli/001516_2014-06-20_16-25-09_260595134347_rgbf000076-resize_2/001516_2014-06-20_16-25-09_260595134347_rgbf000076-resize_2-target.png,125,1.7445,0,1077,119,meters,jsons/VE125_randls_59.json,521111,771567,35,Man
111,312187,DepthScenes,duration_manipulation_targetAtFixation,jsons/VE125_randls_59.json,http://54.235.29.9/FacialAge/BNav_EC2/DepthDuration/v2_depth_duration_MTurk/v2_DepthDuration_HTML.html#68,68,500,285,1366,768,9-4-2022,23-20-35,112,depth_duration_stimuli/003492_2014-05-21_15-50-55_094959634447_rgbf000828-resize_1/003492_2014-05-21_15-50-55_094959634447_rgbf000828-resize_1-target.png,125,4.06875,0,1051,129,meters,jsons/VE125_randls_59.json,521111,771567,35,Man
112,312187,DepthScenes,duration_manipulation_targetAtFixation,jsons/VE125_randls_59.json,http://54.235.29.9/FacialAge/BNav_EC2/DepthDuration/v2_depth_duration_MTurk/v2_DepthDuration_HTML.html#68,68,500,285,1366,768,9-4-2022,23-20-35,113,depth_duration_stimuli/002568_2014-06-24_13-59-21_094959634447_rgbf000062-resize_4/002568_2014-06-24_13-59-21_094959634447_rgbf000062-resize_4-target.png,125,3.015,0,1247,118,meters,jsons/VE125_randls_59.json,521111,771567,35,Man
113,312187,DepthScenes,duration_manipulation_targetAtFixation,jsons/VE125_randls_59.json,http://54.235.29.9/FacialAge/BNav_EC2/DepthDuration/v2_depth_duration_MTurk/v2_DepthDuration_HTML.html#68,68,500,285,1366,768,9-4-2022,23-20-35,114,depth_duration_stimuli/001175_2014-06-17_15-45-55_260595134347_rgbf000129-resize_4/001175_2014-06-17_15-45-55_260595134347_rgbf000129-resize_4-target.png,125,4.255,0,1106,128,meters,jsons/VE125_randls_59.json,521111,771567,35,Man
114,312187,DepthScenes,duration_manipulation_targetAtFixation,jsons/VE125_randls_59.json,http://54.235.29.9/FacialAge/BNav_EC2/DepthDuration/v2_depth_duration_MTurk/v2_DepthDuration_HTML.html#68,68,500,285,1366,768,9-4-2022,23-20-35,115,depth_duration_stimuli/003490_2014-05-21_15-50-11_094959634447_rgbf000101-resize_3/003490_2014-05-21_15-50-11_094959634447_rgbf000101-resize_3-target.png,125,3.6445,0,1176,128,meters,jsons/VE125_randls_59.json,521111,771567,35,Man
115,312187,DepthScenes,duration_manipulation_targetAtFixation,jsons/VE125_randls_59.json,http://54.235.29.9/FacialAge/BNav_EC2/DepthDuration/v2_depth_duration_MTurk/v2_DepthDuration_HTML.html#68,68,500,285,1366,768,9-4-2022,23-20-35,116,depth_duration_stimuli/001170_2014-06-17_15-43-44_260595134347_rgbf000096-resize_6/001170_2014-06-17_15-43-44_260595134347_rgbf000096-resize-original.jpg,125,1.1909999999999998,0,1068,129,meters,jsons/VE125_randls_59.json,521111,771567,35,Man
116,312187,DepthScenes,duration_manipulation_targetAtFixation,jsons/VE125_randls_59.json,http://54.235.29.9/FacialAge/BNav_EC2/DepthDuration/v2_depth_duration_MTurk/v2_DepthDuration_HTML.html#68,68,500,285,1366,768,9-4-2022,23-20-35,117,depth_duration_stimuli/000470_2014-06-09_19-42-40_260595134347_rgbf000094-resize_1/000470_2014-06-09_19-42-40_260595134347_rgbf000094-resize_1-target.png,125,1.831,0,1151,127,meters,jsons/VE125_randls_59.json,521111,771567,35,Man
117,312187,DepthScenes,duration_manipulation_targetAtFixation,jsons/VE125_randls_59.json,http://54.235.29.9/FacialAge/BNav_EC2/DepthDuration/v2_depth_duration_MTurk/v2_DepthDuration_HTML.html#68,68,500,285,1366,768,9-4-2022,23-20-35,118,depth_duration_stimuli/000109_2014-05-14_23-41-52_260595134347_rgbf000035-resize_9/000109_2014-05-14_23-41-52_260595134347_rgbf000035-resize_9-target.png,125,1.3545,0,1141,118,meters,jsons/VE125_randls_59.json,521111,771567,35,Man
118,312187,DepthScenes,duration_manipulation_targetAtFixation,jsons/VE125_randls_59.json,http://54.235.29.9/FacialAge/BNav_EC2/DepthDuration/v2_depth_duration_MTurk/v2_DepthDuration_HTML.html#68,68,500,285,1366,768,9-4-2022,23-20-35,119,depth_duration_stimuli/001029_2014-06-08_13-17-57_260595134347_rgbf000065-resize_1/001029_2014-06-08_13-17-57_260595134347_rgbf000065-resize_1-target.png,125,3.0835,0,1115,118,meters,jsons/VE125_randls_59.json,521111,771567,35,Man
119,312187,DepthScenes,duration_manipulation_targetAtFixation,jsons/VE125_randls_59.json,http://54.235.29.9/FacialAge/BNav_EC2/DepthDuration/v2_depth_duration_MTurk/v2_DepthDuration_HTML.html#68,68,500,285,1366,768,9-4-2022,23-20-35,120,depth_duration_stimuli/000677_2014-06-08_23-10-32_260595134347_rgbf000158-resize_6/000677_2014-06-08_23-10-32_260595134347_rgbf000158-resize_6-target.png,125,3.556,0,1134,128,meters,jsons/VE125_randls_59.json,521111,771567,35,Man
120,312187,DepthScenes,duration_manipulation_targetAtFixation,jsons/VE125_randls_59.json,http://54.235.29.9/FacialAge/BNav_EC2/DepthDuration/v2_depth_duration_MTurk/v2_DepthDuration_HTML.html#68,68,500,285,1366,768,9-4-2022,23-20-35,121,depth_duration_stimuli/000522_2014-06-08_13-35-06_260595134347_rgbf000244-resize_1/000522_2014-06-08_13-35-06_260595134347_rgbf000244-resize_1-target.png,125,2.3715,0,1187,127,meters,jsons/VE125_randls_59.json,521111,771567,35,Man
121,312187,DepthScenes,duration_manipulation_targetAtFixation,jsons/VE125_randls_59.json,http://54.235.29.9/FacialAge/BNav_EC2/DepthDuration/v2_depth_duration_MTurk/v2_DepthDuration_HTML.html#68,68,500,285,1366,768,9-4-2022,23-20-35,122,depth_duration_stimuli/002949_2014-06-26_15-57-42_094959634447_rgbf000079-resize_1/002949_2014-06-26_15-57-42_094959634447_rgbf000079-resize_1-target.png,125,1.8915,0,1122,128,meters,jsons/VE125_randls_59.json,521111,771567,35,Man
122,312187,DepthScenes,duration_manipulation_targetAtFixation,jsons/VE125_randls_59.json,http://54.235.29.9/FacialAge/BNav_EC2/DepthDuration/v2_depth_duration_MTurk/v2_DepthDuration_HTML.html#68,68,500,285,1366,768,9-4-2022,23-20-35,123,depth_duration_stimuli/000917_2014-06-09_22-45-29_260595134347_rgbf000149-resize_3/000917_2014-06-09_22-45-29_260595134347_rgbf000149-resize_3-target.png,125,4.1865,0,1082,117,meters,jsons/VE125_randls_59.json,521111,771567,35,Man
123,312187,DepthScenes,duration_manipulation_targetAtFixation,jsons/VE125_randls_59.json,http://54.235.29.9/FacialAge/BNav_EC2/DepthDuration/v2_depth_duration_MTurk/v2_DepthDuration_HTML.html#68,68,500,285,1366,768,9-4-2022,23-20-35,124,depth_duration_stimuli/002323_2014-06-28_20-01-54_260595134347_rgbf000051-resize_4/002323_2014-06-28_20-01-54_260595134347_rgbf000051-resize_4-target.png,125,3.7310000000000003,0,1129,117,meters,jsons/VE125_randls_59.json,521111,771567,35,Man
124,312187,DepthScenes,duration_manipulation_targetAtFixation,jsons/VE125_randls_59.json,http://54.235.29.9/FacialAge/BNav_EC2/DepthDuration/v2_depth_duration_MTurk/v2_DepthDuration_HTML.html#68,68,500,285,1366,768,9-4-2022,23-20-35,125,depth_duration_stimuli/000486_2014-06-09_20-47-20_260595134347_rgbf000143-resize_2/000486_2014-06-09_20-47-20_260595134347_rgbf000143-resize_2-target.png,125,4.8325,0,1529,119,meters,jsons/VE125_randls_59.json,521111,771567,35,Man
125,312187,DepthScenes,duration_manipulation_targetAtFixation,jsons/VE125_randls_59.json,http://54.235.29.9/FacialAge/BNav_EC2/DepthDuration/v2_depth_duration_MTurk/v2_DepthDuration_HTML.html#68,68,500,285,1366,768,9-4-2022,23-20-35,126,depth_duration_stimuli/003083_2014-06-15_15-21-03_094959634447_rgbf000063-resize_1/003083_2014-06-15_15-21-03_094959634447_rgbf000063-resize_1-target.png,125,4.1405,0,1282,119,meters,jsons/VE125_randls_59.json,521111,771567,35,Man
126,312187,DepthScenes,duration_manipulation_targetAtFixation,jsons/VE125_randls_59.json,http://54.235.29.9/FacialAge/BNav_EC2/DepthDuration/v2_depth_duration_MTurk/v2_DepthDuration_HTML.html#68,68,500,285,1366,768,9-4-2022,23-20-35,127,depth_duration_stimuli/001810_2014-06-26_20-51-35_260595134347_rgbf000040-resize_3/001810_2014-06-26_20-51-35_260595134347_rgbf000040-resize_3-target.png,125,2.2525,0,1170,117,meters,jsons/VE125_randls_59.json,521111,771567,35,Man
127,312187,DepthScenes,duration_manipulation_targetAtFixation,jsons/VE125_randls_59.json,http://54.235.29.9/FacialAge/BNav_EC2/DepthDuration/v2_depth_duration_MTurk/v2_DepthDuration_HTML.html#68,68,500,285,1366,768,9-4-2022,23-20-35,128,depth_duration_stimuli/003010_2014-06-15_12-54-35_094959634447_rgbf000112-resize_0/003010_2014-06-15_12-54-35_094959634447_rgbf000112-resize_0-target.png,125,3.1185,0,1280,119,meters,jsons/VE125_randls_59.json,521111,771567,35,Man
128,312187,DepthScenes,duration_manipulation_targetAtFixation,jsons/VE125_randls_59.json,http://54.235.29.9/FacialAge/BNav_EC2/DepthDuration/v2_depth_duration_MTurk/v2_DepthDuration_HTML.html#68,68,500,285,1366,768,9-4-2022,23-20-35,129,depth_duration_stimuli/002549_2014-06-24_13-41-39_094959634447_rgbf000022-resize_3/002549_2014-06-24_13-41-39_094959634447_rgbf000022-resize_3-target.png,125,1.476,0,1091,118,meters,jsons/VE125_randls_59.json,521111,771567,35,Man
129,312187,DepthScenes,duration_manipulation_targetAtFixation,jsons/VE125_randls_59.json,http://54.235.29.9/FacialAge/BNav_EC2/DepthDuration/v2_depth_duration_MTurk/v2_DepthDuration_HTML.html#68,68,500,285,1366,768,9-4-2022,23-20-35,130,depth_duration_stimuli/002750_2014-06-22_19-08-03_094959634447_rgbf000094-resize_4/002750_2014-06-22_19-08-03_094959634447_rgbf000094-resize_4-target.png,125,2.354,0,1232,117,meters,jsons/VE125_randls_59.json,521111,771567,35,Man
130,312187,DepthScenes,duration_manipulation_targetAtFixation,jsons/VE125_randls_59.json,http://54.235.29.9/FacialAge/BNav_EC2/DepthDuration/v2_depth_duration_MTurk/v2_DepthDuration_HTML.html#68,68,500,285,1366,768,9-4-2022,23-20-35,131,depth_duration_stimuli/002784_2014-06-22_19-26-30_094959634447_rgbf000083-resize_3/002784_2014-06-22_19-26-30_094959634447_rgbf000083-resize_3-target.png,125,1.8046666666667,0,1182,129,meters,jsons/VE125_randls_59.json,521111,771567,35,Man
131,312187,DepthScenes,duration_manipulation_targetAtFixation,jsons/VE125_randls_59.json,http://54.235.29.9/FacialAge/BNav_EC2/DepthDuration/v2_depth_duration_MTurk/v2_DepthDuration_HTML.html#68,68,500,285,1366,768,9-4-2022,23-20-35,132,depth_duration_stimuli/001100_2014-06-15_17-46-26_260595134347_rgbf000225-resize_2/001100_2014-06-15_17-46-26_260595134347_rgbf000225-resize_2-target.png,125,2.24,0,3586,119,meters,jsons/VE125_randls_59.json,521111,771567,35,Man
132,312187,DepthScenes,duration_manipulation_targetAtFixation,jsons/VE125_randls_59.json,http://54.235.29.9/FacialAge/BNav_EC2/DepthDuration/v2_depth_duration_MTurk/v2_DepthDuration_HTML.html#68,68,500,285,1366,768,9-4-2022,23-20-35,133,depth_duration_stimuli/002725_2014-06-22_11-47-51_094959634447_rgbf000070-resize_1/002725_2014-06-22_11-47-51_094959634447_rgbf000070-resize_1-target.png,125,2.195,0,1555,128,meters,jsons/VE125_randls_59.json,521111,771567,35,Man
133,312187,DepthScenes,duration_manipulation_targetAtFixation,jsons/VE125_randls_59.json,http://54.235.29.9/FacialAge/BNav_EC2/DepthDuration/v2_depth_duration_MTurk/v2_DepthDuration_HTML.html#68,68,500,285,1366,768,9-4-2022,23-20-35,134,depth_duration_stimuli/002344_2014-06-28_20-06-29_260595134347_rgbf000030-resize_1/002344_2014-06-28_20-06-29_260595134347_rgbf000030-resize_1-target.png,125,1.5795,0,1198,129,meters,jsons/VE125_randls_59.json,521111,771567,35,Man
134,312187,DepthScenes,duration_manipulation_targetAtFixation,jsons/VE125_randls_59.json,http://54.235.29.9/FacialAge/BNav_EC2/DepthDuration/v2_depth_duration_MTurk/v2_DepthDuration_HTML.html#68,68,500,285,1366,768,9-4-2022,23-20-35,135,depth_duration_stimuli/002072_2014-06-24_21-48-06_260595134347_rgbf000115-resize_0/002072_2014-06-24_21-48-06_260595134347_rgbf000115-resize-original.jpg,125,4.702,0,1271,128,meters,jsons/VE125_randls_59.json,521111,771567,35,Man
135,312187,DepthScenes,duration_manipulation_targetAtFixation,jsons/VE125_randls_59.json,http://54.235.29.9/FacialAge/BNav_EC2/DepthDuration/v2_depth_duration_MTurk/v2_DepthDuration_HTML.html#68,68,500,285,1366,768,9-4-2022,23-20-35,136,depth_duration_stimuli/001570_2014-06-20_17-21-09_260595134347_rgbf000135-resize_4/001570_2014-06-20_17-21-09_260595134347_rgbf000135-resize_4-target.png,125,4.467,0,1167,119,meters,jsons/VE125_randls_59.json,521111,771567,35,Man
136,312187,DepthScenes,duration_manipulation_targetAtFixation,jsons/VE125_randls_59.json,http://54.235.29.9/FacialAge/BNav_EC2/DepthDuration/v2_depth_duration_MTurk/v2_DepthDuration_HTML.html#68,68,500,285,1366,768,9-4-2022,23-20-35,137,depth_duration_stimuli/001392_2014-06-19_16-07-59_260595134347_rgbf000046-resize_1/001392_2014-06-19_16-07-59_260595134347_rgbf000046-resize_1-target.png,125,4.135,0,1169,129,meters,jsons/VE125_randls_59.json,521111,771567,35,Man
137,312187,DepthScenes,duration_manipulation_targetAtFixation,jsons/VE125_randls_59.json,http://54.235.29.9/FacialAge/BNav_EC2/DepthDuration/v2_depth_duration_MTurk/v2_DepthDuration_HTML.html#68,68,500,285,1366,768,9-4-2022,23-20-35,138,depth_duration_stimuli/002663_2014-06-13_15-50-26_094959634447_rgbf000075-resize_1/002663_2014-06-13_15-50-26_094959634447_rgbf000075-resize_1-target.png,125,4.7495,0,1128,118,meters,jsons/VE125_randls_59.json,521111,771567,35,Man
138,312187,DepthScenes,duration_manipulation_targetAtFixation,jsons/VE125_randls_59.json,http://54.235.29.9/FacialAge/BNav_EC2/DepthDuration/v2_depth_duration_MTurk/v2_DepthDuration_HTML.html#68,68,500,285,1366,768,9-4-2022,23-20-35,139,depth_duration_stimuli/000409_2014-06-04_19-23-33_260595134347_rgbf000067-resize_0/000409_2014-06-04_19-23-33_260595134347_rgbf000067-resize_0-target.png,125,3.7335,0,1285,128,meters,jsons/VE125_randls_59.json,521111,771567,35,Man
139,312187,DepthScenes,duration_manipulation_targetAtFixation,jsons/VE125_randls_59.json,http://54.235.29.9/FacialAge/BNav_EC2/DepthDuration/v2_depth_duration_MTurk/v2_DepthDuration_HTML.html#68,68,500,285,1366,768,9-4-2022,23-20-35,140,depth_duration_stimuli/000009_2014-05-26_14-32-05_260595134347_rgbf000034-resize_3/000009_2014-05-26_14-32-05_260595134347_rgbf000034-resize_3-target.png,125,3.8715,0,1168,129,meters,jsons/VE125_randls_59.json,521111,771567,35,Man
140,312187,DepthScenes,duration_manipulation_targetAtFixation,jsons/VE125_randls_59.json,http://54.235.29.9/FacialAge/BNav_EC2/DepthDuration/v2_depth_duration_MTurk/v2_DepthDuration_HTML.html#68,68,500,285,1366,768,9-4-2022,23-20-35,141,depth_duration_stimuli/001828_2014-06-26_21-40-03_260595134347_rgbf000024-resize_0/001828_2014-06-26_21-40-03_260595134347_rgbf000024-resize_0-target.png,125,4.8260000000000005,0,1111,128,meters,jsons/VE125_randls_59.json,521111,771567,35,Man
141,312187,DepthScenes,duration_manipulation_targetAtFixation,jsons/VE125_randls_59.json,http://54.235.29.9/FacialAge/BNav_EC2/DepthDuration/v2_depth_duration_MTurk/v2_DepthDuration_HTML.html#68,68,500,285,1366,768,9-4-2022,23-20-35,142,depth_duration_stimuli/002272_2014-06-28_18-53-56_260595134347_rgbf000067-resize_2/002272_2014-06-28_18-53-56_260595134347_rgbf000067-resize_2-target.png,125,1.138,0,1120,118,meters,jsons/VE125_randls_59.json,521111,771567,35,Man
142,312187,DepthScenes,duration_manipulation_targetAtFixation,jsons/VE125_randls_59.json,http://54.235.29.9/FacialAge/BNav_EC2/DepthDuration/v2_depth_duration_MTurk/v2_DepthDuration_HTML.html#68,68,500,285,1366,768,9-4-2022,23-20-35,143,depth_duration_stimuli/001571_2014-06-20_17-21-32_260595134347_rgbf000089-resize_1/001571_2014-06-20_17-21-32_260595134347_rgbf000089-resize_1-target.png,125,1.86,0,1110,119,meters,jsons/VE125_randls_59.json,521111,771567,35,Man
143,312187,DepthScenes,duration_manipulation_targetAtFixation,jsons/VE125_randls_59.json,http://54.235.29.9/FacialAge/BNav_EC2/DepthDuration/v2_depth_duration_MTurk/v2_DepthDuration_HTML.html#68,68,500,285,1366,768,9-4-2022,23-20-35,144,depth_duration_stimuli/002600_2014-06-24_14-27-04_094959634447_rgbf000074-resize_2/002600_2014-06-24_14-27-04_094959634447_rgbf000074-resize_2-target.png,125,2.7575,0,1126,118,meters,jsons/VE125_randls_59.json,521111,771567,35,Man
144,312187,DepthScenes,duration_manipulation_targetAtFixation,jsons/VE125_randls_59.json,http://54.235.29.9/FacialAge/BNav_EC2/DepthDuration/v2_depth_duration_MTurk/v2_DepthDuration_HTML.html#68,68,500,285,1366,768,9-4-2022,23-20-35,145,depth_duration_stimuli/003228_2014-05-14_13-42-35_094959634447_rgbf000101-resize_1/003228_2014-05-14_13-42-35_094959634447_rgbf000101-resize_1-target.png,125,1.9680000000000002,0,1034,129,meters,jsons/VE125_randls_59.json,521111,771567,35,Man
145,312187,DepthScenes,duration_manipulation_targetAtFixation,jsons/VE125_randls_59.json,http://54.235.29.9/FacialAge/BNav_EC2/DepthDuration/v2_depth_duration_MTurk/v2_DepthDuration_HTML.html#68,68,500,285,1366,768,9-4-2022,23-20-35,146,depth_duration_stimuli/001498_2014-06-19_17-45-14_260595134347_rgbf000129-resize_4/001498_2014-06-19_17-45-14_260595134347_rgbf000129-resize-original.jpg,125,1.4075,0,1078,129,meters,jsons/VE125_randls_59.json,521111,771567,35,Man
146,312187,DepthScenes,duration_manipulation_targetAtFixation,jsons/VE125_randls_59.json,http://54.235.29.9/FacialAge/BNav_EC2/DepthDuration/v2_depth_duration_MTurk/v2_DepthDuration_HTML.html#68,68,500,285,1366,768,9-4-2022,23-20-35,147,depth_duration_stimuli/002445_2014-06-28_20-32-16_260595134347_rgbf000029-resize_4/002445_2014-06-28_20-32-16_260595134347_rgbf000029-resize_4-target.png,125,2.5315,0,1180,128,meters,jsons/VE125_randls_59.json,521111,771567,35,Man
147,312187,DepthScenes,duration_manipulation_targetAtFixation,jsons/VE125_randls_59.json,http://54.235.29.9/FacialAge/BNav_EC2/DepthDuration/v2_depth_duration_MTurk/v2_DepthDuration_HTML.html#68,68,500,285,1366,768,9-4-2022,23-20-35,148,depth_duration_stimuli/000780_2014-06-08_22-28-29_260595134347_rgbf000126-resize_1/000780_2014-06-08_22-28-29_260595134347_rgbf000126-resize_1-target.png,125,3.3825,0,1115,118,meters,jsons/VE125_randls_59.json,521111,771567,35,Man
148,312187,DepthScenes,duration_manipulation_targetAtFixation,jsons/VE125_randls_59.json,http://54.235.29.9/FacialAge/BNav_EC2/DepthDuration/v2_depth_duration_MTurk/v2_DepthDuration_HTML.html#68,68,500,285,1366,768,9-4-2022,23-20-35,149,depth_duration_stimuli/001417_2014-06-19_16-25-36_260595134347_rgbf000115-resize_5/001417_2014-06-19_16-25-36_260595134347_rgbf000115-resize_5-target.png,125,4.6255,0,1117,127,meters,jsons/VE125_randls_59.json,521111,771567,35,Man
149,312187,DepthScenes,duration_manipulation_targetAtFixation,jsons/VE125_randls_59.json,http://54.235.29.9/FacialAge/BNav_EC2/DepthDuration/v2_depth_duration_MTurk/v2_DepthDuration_HTML.html#68,68,500,285,1366,768,9-4-2022,23-20-35,150,depth_duration_stimuli/003081_2014-06-15_15-19-16_094959634447_rgbf000150-resize_1/003081_2014-06-15_15-19-16_094959634447_rgbf000150-resize_1-target.png,125,3.9125,0,1113,128,meters,jsons/VE125_randls_59.json,521111,771567,35,Man
150,312187,DepthScenes,duration_manipulation_targetAtFixation,jsons/VE125_randls_59.json,http://54.235.29.9/FacialAge/BNav_EC2/DepthDuration/v2_depth_duration_MTurk/v2_DepthDuration_HTML.html#68,68,500,285,1366,768,9-4-2022,23-20-35,151,depth_duration_stimuli/001244_2014-06-17_16-47-45_260595134347_rgbf000030-resize_4/001244_2014-06-17_16-47-45_260595134347_rgbf000030-resize_4-target.png,125,2.0425,0,1089,118,meters,jsons/VE125_randls_59.json,521111,771567,35,Man
151,312187,DepthScenes,duration_manipulation_targetAtFixation,jsons/VE125_randls_59.json,http://54.235.29.9/FacialAge/BNav_EC2/DepthDuration/v2_depth_duration_MTurk/v2_DepthDuration_HTML.html#68,68,500,285,1366,768,9-4-2022,23-20-35,152,depth_duration_stimuli/003495_2014-05-21_16-01-51_094959634447_rgbf000100-resize_3/003495_2014-05-21_16-01-51_094959634447_rgbf000100-resize_3-target.png,125,1.6255,0,1038,117,meters,jsons/VE125_randls_59.json,521111,771567,35,Man
152,312187,DepthScenes,duration_manipulation_targetAtFixation,jsons/VE125_randls_59.json,http://54.235.29.9/FacialAge/BNav_EC2/DepthDuration/v2_depth_duration_MTurk/v2_DepthDuration_HTML.html#68,68,500,285,1366,768,9-4-2022,23-20-35,153,depth_duration_stimuli/000368_2014-06-09_15-53-01_260595134347_rgbf000155-resize_2/000368_2014-06-09_15-53-01_260595134347_rgbf000155-resize_2-target.png,125,2.4859999999999998,0,1067,128,meters,jsons/VE125_randls_59.json,521111,771567,35,Man
153,312187,DepthScenes,duration_manipulation_targetAtFixation,jsons/VE125_randls_59.json,http://54.235.29.9/FacialAge/BNav_EC2/DepthDuration/v2_depth_duration_MTurk/v2_DepthDuration_HTML.html#68,68,500,285,1366,768,9-4-2022,23-20-35,154,depth_duration_stimuli/002678_2014-06-13_16-15-32_094959634447_rgbf000151-resize_6/002678_2014-06-13_16-15-32_094959634447_rgbf000151-resize_6-target.png,125,2.1830000000000003,0,1056,129,meters,jsons/VE125_randls_59.json,521111,771567,35,Man
154,312187,DepthScenes,duration_manipulation_targetAtFixation,jsons/VE125_randls_59.json,http://54.235.29.9/FacialAge/BNav_EC2/DepthDuration/v2_depth_duration_MTurk/v2_DepthDuration_HTML.html#68,68,500,285,1366,768,9-4-2022,23-20-35,155,depth_duration_stimuli/000493_2014-06-09_21-01-18_260595134347_rgbf000196-resize_3/000493_2014-06-09_21-01-18_260595134347_rgbf000196-resize_3-target.png,125,3.44,0,1131,120,meters,jsons/VE125_randls_59.json,521111,771567,35,Man
155,312187,DepthScenes,duration_manipulation_targetAtFixation,jsons/VE125_randls_59.json,http://54.235.29.9/FacialAge/BNav_EC2/DepthDuration/v2_depth_duration_MTurk/v2_DepthDuration_HTML.html#68,68,500,285,1366,768,9-4-2022,23-20-35,156,depth_duration_stimuli/000191_2014-05-12_17-07-38_260595134347_rgbf000199-resize_0/000191_2014-05-12_17-07-38_260595134347_rgbf000199-resize_0-target.png,125,3.7995,0,1106,118,meters,jsons/VE125_randls_59.json,521111,771567,35,Man
156,312187,DepthScenes,duration_manipulation_targetAtFixation,jsons/VE125_randls_59.json,http://54.235.29.9/FacialAge/BNav_EC2/DepthDuration/v2_depth_duration_MTurk/v2_DepthDuration_HTML.html#68,68,500,285,1366,768,9-4-2022,23-20-35,157,depth_duration_stimuli/002988_2014-06-15_12-24-20_094959634447_rgbf000150-resize_1/002988_2014-06-15_12-24-20_094959634447_rgbf000150-resize_1-target.png,125,4.7669999999999995,0,1021,128,meters,jsons/VE125_randls_59.json,521111,771567,35,Man
157,312187,DepthScenes,duration_manipulation_targetAtFixation,jsons/VE125_randls_59.json,http://54.235.29.9/FacialAge/BNav_EC2/DepthDuration/v2_depth_duration_MTurk/v2_DepthDuration_HTML.html#68,68,500,285,1366,768,9-4-2022,23-20-35,158,depth_duration_stimuli/001052_2014-06-08_18-24-54_260595134347_rgbf000130-resize_1/001052_2014-06-08_18-24-54_260595134347_rgbf000130-resize_1-target.png,125,4.1045,0,1105,118,meters,jsons/VE125_randls_59.json,521111,771567,35,Man
158,312187,DepthScenes,duration_manipulation_targetAtFixation,jsons/VE125_randls_59.json,http://54.235.29.9/FacialAge/BNav_EC2/DepthDuration/v2_depth_duration_MTurk/v2_DepthDuration_HTML.html#68,68,500,285,1366,768,9-4-2022,23-20-35,159,depth_duration_stimuli/002788_2014-06-22_19-36-03_094959634447_rgbf000088-resize_2/002788_2014-06-22_19-36-03_094959634447_rgbf000088-resize_2-target.png,125,1.6465,0,1035,129,meters,jsons/VE125_randls_59.json,521111,771567,35,Man
159,312187,DepthScenes,duration_manipulation_targetAtFixation,jsons/VE125_randls_59.json,http://54.235.29.9/FacialAge/BNav_EC2/DepthDuration/v2_depth_duration_MTurk/v2_DepthDuration_HTML.html#68,68,500,285,1366,768,9-4-2022,23-20-35,160,depth_duration_stimuli/000749_2014-06-08_21-55-06_260595134347_rgbf000070-resize_2/000749_2014-06-08_21-55-06_260595134347_rgbf000070-resize_2-target.png,125,2.331,0,1045,128,meters,jsons/VE125_randls_59.json,521111,771567,35,Man
160,312187,DepthScenes,duration_manipulation_targetAtFixation,jsons/VE125_randls_59.json,http://54.235.29.9/FacialAge/BNav_EC2/DepthDuration/v2_depth_duration_MTurk/v2_DepthDuration_HTML.html#68,68,500,285,1366,768,9-4-2022,23-20-35,161,depth_duration_stimuli/000739_2014-06-08_18-45-58_260595134347_rgbf000068-resize_1/000739_2014-06-08_18-45-58_260595134347_rgbf000068-resize_1-target.png,125,3.534,0,7778,133,meters,jsons/VE125_randls_59.json,521111,771567,35,Man
161,312187,DepthScenes,duration_manipulation_targetAtFixation,jsons/VE125_randls_59.json,http://54.235.29.9/FacialAge/BNav_EC2/DepthDuration/v2_depth_duration_MTurk/v2_DepthDuration_HTML.html#68,68,500,285,1366,768,9-4-2022,23-20-35,162,depth_duration_stimuli/000734_2014-06-08_17-39-11_260595134347_rgbf000128-resize_2/000734_2014-06-08_17-39-11_260595134347_rgbf000128-resize_2-target.png,125,4.098,0,1040,128,meters,jsons/VE125_randls_59.json,521111,771567,35,Man
162,312187,DepthScenes,duration_manipulation_targetAtFixation,jsons/VE125_randls_59.json,http://54.235.29.9/FacialAge/BNav_EC2/DepthDuration/v2_depth_duration_MTurk/v2_DepthDuration_HTML.html#68,68,500,285,1366,768,9-4-2022,23-20-35,163,depth_duration_stimuli/001055_2014-06-08_18-45-35_260595134347_rgbf000111-resize_4/001055_2014-06-08_18-45-35_260595134347_rgbf000111-resize_4-target.png,125,2.4290000000000003,0,1828,118,meters,jsons/VE125_randls_59.json,521111,771567,35,Man
163,312187,DepthScenes,duration_manipulation_targetAtFixation,jsons/VE125_randls_59.json,http://54.235.29.9/FacialAge/BNav_EC2/DepthDuration/v2_depth_duration_MTurk/v2_DepthDuration_HTML.html#68,68,500,285,1366,768,9-4-2022,23-20-35,164,depth_duration_stimuli/000549_2014-06-08_22-10-24_260595134347_rgbf000247-resize_3/000549_2014-06-08_22-10-24_260595134347_rgbf000247-resize_3-target.png,125,1.841,0,1037,119,meters,jsons/VE125_randls_59.json,521111,771567,35,Man
