,subjID,experimentName,versionName,sequenceName,url,selected_row,windowWidth,windowHeight,screenWidth,screenHeight,startDate,startTime,trial,stimulus,duration,actual_depth,depth_estimate,trial_RT,log_sceneDuration,unitSelection,seq_filepath,experimentTime,totalTime,age,gender
0,314409,DepthScenes,duration_manipulation_targetAtFixation,jsons/v1_VE1000_randls_10_rotated.json,http://54.235.29.9/FacialAge/BNav_EC2/DepthDuration/v2_depth_duration_MTurk/v2_DepthDuration_HTML.html#289,289,2558,1285,5120,1440,8-30-2022,10-39-32,1,depth_duration_stimuli/003423_2014-05-21_10-23-26_094959634447_rgbf002665-resize_2/003423_2014-05-21_10-23-26_094959634447_rgbf002665-resize_2-target.png,1000,3.2575,12,2799,1000,feet,jsons/v1_VE1000_randls_10_rotated.json,557865,713993,40,Man
1,314409,DepthScenes,duration_manipulation_targetAtFixation,jsons/v1_VE1000_randls_10_rotated.json,http://54.235.29.9/FacialAge/BNav_EC2/DepthDuration/v2_depth_duration_MTurk/v2_DepthDuration_HTML.html#289,289,2558,1285,5120,1440,8-30-2022,10-39-32,2,depth_duration_stimuli/002905_2014-06-03_18-04-43_094959634447_rgbf000151-resize_2/002905_2014-06-03_18-04-43_094959634447_rgbf000151-resize_2-target.png,1000,2.0295,6,2730,1000,feet,jsons/v1_VE1000_randls_10_rotated.json,557865,713993,40,Man
2,314409,DepthScenes,duration_manipulation_targetAtFixation,jsons/v1_VE1000_randls_10_rotated.json,http://54.235.29.9/FacialAge/BNav_EC2/DepthDuration/v2_depth_duration_MTurk/v2_DepthDuration_HTML.html#289,289,2558,1285,5120,1440,8-30-2022,10-39-32,3,depth_duration_stimuli/003495_2014-05-21_16-01-51_094959634447_rgbf000100-resize_3/003495_2014-05-21_16-01-51_094959634447_rgbf000100-resize_3-target.png,1000,1.6255,3,2670,1000,feet,jsons/v1_VE1000_randls_10_rotated.json,557865,713993,40,Man
3,314409,DepthScenes,duration_manipulation_targetAtFixation,jsons/v1_VE1000_randls_10_rotated.json,http://54.235.29.9/FacialAge/BNav_EC2/DepthDuration/v2_depth_duration_MTurk/v2_DepthDuration_HTML.html#289,289,2558,1285,5120,1440,8-30-2022,10-39-32,4,depth_duration_stimuli/001244_2014-06-17_16-47-45_260595134347_rgbf000030-resize_4/001244_2014-06-17_16-47-45_260595134347_rgbf000030-resize_4-target.png,1000,2.0425,5,2611,1001,feet,jsons/v1_VE1000_randls_10_rotated.json,557865,713993,40,Man
4,314409,DepthScenes,duration_manipulation_targetAtFixation,jsons/v1_VE1000_randls_10_rotated.json,http://54.235.29.9/FacialAge/BNav_EC2/DepthDuration/v2_depth_duration_MTurk/v2_DepthDuration_HTML.html#289,289,2558,1285,5120,1440,8-30-2022,10-39-32,5,depth_duration_stimuli/002545_2014-06-24_13-38-53_094959634447_rgbf000080-resize_4/002545_2014-06-24_13-38-53_094959634447_rgbf000080-resize_4-target.png,1000,1.9205,8,2609,1009,feet,jsons/v1_VE1000_randls_10_rotated.json,557865,713993,40,Man
5,314409,DepthScenes,duration_manipulation_targetAtFixation,jsons/v1_VE1000_randls_10_rotated.json,http://54.235.29.9/FacialAge/BNav_EC2/DepthDuration/v2_depth_duration_MTurk/v2_DepthDuration_HTML.html#289,289,2558,1285,5120,1440,8-30-2022,10-39-32,6,depth_duration_stimuli/001092_2014-06-15_17-34-58_260595134347_rgbf000171-resize_3/001092_2014-06-15_17-34-58_260595134347_rgbf000171-resize_3-target.png,1000,2.6935,5,2392,992,feet,jsons/v1_VE1000_randls_10_rotated.json,557865,713993,40,Man
6,314409,DepthScenes,duration_manipulation_targetAtFixation,jsons/v1_VE1000_randls_10_rotated.json,http://54.235.29.9/FacialAge/BNav_EC2/DepthDuration/v2_depth_duration_MTurk/v2_DepthDuration_HTML.html#289,289,2558,1285,5120,1440,8-30-2022,10-39-32,7,depth_duration_stimuli/001136_2014-06-17_15-19-41_260595134347_rgbf000076-resize_3/001136_2014-06-17_15-19-41_260595134347_rgbf000076-resize_3-target.png,1000,1.8655,5,2499,991,feet,jsons/v1_VE1000_randls_10_rotated.json,557865,713993,40,Man
7,314409,DepthScenes,duration_manipulation_targetAtFixation,jsons/v1_VE1000_randls_10_rotated.json,http://54.235.29.9/FacialAge/BNav_EC2/DepthDuration/v2_depth_duration_MTurk/v2_DepthDuration_HTML.html#289,289,2558,1285,5120,1440,8-30-2022,10-39-32,8,depth_duration_stimuli/001164_2014-06-17_15-35-46_260595134347_rgbf000085-resize_3/001164_2014-06-17_15-35-46_260595134347_rgbf000085-resize_3-target.png,1000,2.354,5,2542,1001,feet,jsons/v1_VE1000_randls_10_rotated.json,557865,713993,40,Man
8,314409,DepthScenes,duration_manipulation_targetAtFixation,jsons/v1_VE1000_randls_10_rotated.json,http://54.235.29.9/FacialAge/BNav_EC2/DepthDuration/v2_depth_duration_MTurk/v2_DepthDuration_HTML.html#289,289,2558,1285,5120,1440,8-30-2022,10-39-32,9,depth_duration_stimuli/003490_2014-05-21_15-50-11_094959634447_rgbf000101-resize_3/003490_2014-05-21_15-50-11_094959634447_rgbf000101-resize_3-target.png,1000,3.6445,8,2702,1001,feet,jsons/v1_VE1000_randls_10_rotated.json,557865,713993,40,Man
9,314409,DepthScenes,duration_manipulation_targetAtFixation,jsons/v1_VE1000_randls_10_rotated.json,http://54.235.29.9/FacialAge/BNav_EC2/DepthDuration/v2_depth_duration_MTurk/v2_DepthDuration_HTML.html#289,289,2558,1285,5120,1440,8-30-2022,10-39-32,10,depth_duration_stimuli/001175_2014-06-17_15-45-55_260595134347_rgbf000129-resize_4/001175_2014-06-17_15-45-55_260595134347_rgbf000129-resize_4-target.png,1000,4.255,12,2626,989,feet,jsons/v1_VE1000_randls_10_rotated.json,557865,713993,40,Man
10,314409,DepthScenes,duration_manipulation_targetAtFixation,jsons/v1_VE1000_randls_10_rotated.json,http://54.235.29.9/FacialAge/BNav_EC2/DepthDuration/v2_depth_duration_MTurk/v2_DepthDuration_HTML.html#289,289,2558,1285,5120,1440,8-30-2022,10-39-32,11,depth_duration_stimuli/000137_2014-05-20_17-04-49_260595134347_rgbf000120-resize_1/000137_2014-05-20_17-04-49_260595134347_rgbf000120-resize_1-target.png,1000,3.786,10,2691,989,feet,jsons/v1_VE1000_randls_10_rotated.json,557865,713993,40,Man
11,314409,DepthScenes,duration_manipulation_targetAtFixation,jsons/v1_VE1000_randls_10_rotated.json,http://54.235.29.9/FacialAge/BNav_EC2/DepthDuration/v2_depth_duration_MTurk/v2_DepthDuration_HTML.html#289,289,2558,1285,5120,1440,8-30-2022,10-39-32,12,depth_duration_stimuli/000736_2014-06-08_18-24-15_260595134347_rgbf000206-resize_3/000736_2014-06-08_18-24-15_260595134347_rgbf000206-resize_3-target.png,1000,3.515,8,2543,1012,feet,jsons/v1_VE1000_randls_10_rotated.json,557865,713993,40,Man
12,314409,DepthScenes,duration_manipulation_targetAtFixation,jsons/v1_VE1000_randls_10_rotated.json,http://54.235.29.9/FacialAge/BNav_EC2/DepthDuration/v2_depth_duration_MTurk/v2_DepthDuration_HTML.html#289,289,2558,1285,5120,1440,8-30-2022,10-39-32,13,depth_duration_stimuli/002340_2014-06-28_20-05-46_260595134347_rgbf000113-resize_0/002340_2014-06-28_20-05-46_260595134347_rgbf000113-resize_0-target.png,1000,2.4735,10,2677,999,feet,jsons/v1_VE1000_randls_10_rotated.json,557865,713993,40,Man
13,314409,DepthScenes,duration_manipulation_targetAtFixation,jsons/v1_VE1000_randls_10_rotated.json,http://54.235.29.9/FacialAge/BNav_EC2/DepthDuration/v2_depth_duration_MTurk/v2_DepthDuration_HTML.html#289,289,2558,1285,5120,1440,8-30-2022,10-39-32,14,depth_duration_stimuli/001016_2014-06-09_16-16-10_260595134347_rgbf000112-resize_5/001016_2014-06-09_16-16-10_260595134347_rgbf000112-resize_5-target.png,1000,1.6565,8,2724,1000,feet,jsons/v1_VE1000_randls_10_rotated.json,557865,713993,40,Man
14,314409,DepthScenes,duration_manipulation_targetAtFixation,jsons/v1_VE1000_randls_10_rotated.json,http://54.235.29.9/FacialAge/BNav_EC2/DepthDuration/v2_depth_duration_MTurk/v2_DepthDuration_HTML.html#289,289,2558,1285,5120,1440,8-30-2022,10-39-32,15,depth_duration_stimuli/001584_2014-06-20_11-07-43_260595134347_rgbf000002-resize_1/001584_2014-06-20_11-07-43_260595134347_rgbf000002-resize_1-target.png,1000,3.53,12,3829,1010,feet,jsons/v1_VE1000_randls_10_rotated.json,557865,713993,40,Man
15,314409,DepthScenes,duration_manipulation_targetAtFixation,jsons/v1_VE1000_randls_10_rotated.json,http://54.235.29.9/FacialAge/BNav_EC2/DepthDuration/v2_depth_duration_MTurk/v2_DepthDuration_HTML.html#289,289,2558,1285,5120,1440,8-30-2022,10-39-32,16,depth_duration_stimuli/003621_2014-05-23_18-06-08_094959634447_rgbf000101-resize_1/003621_2014-05-23_18-06-08_094959634447_rgbf000101-resize_1-target.png,1000,3.9835,13,3481,1002,feet,jsons/v1_VE1000_randls_10_rotated.json,557865,713993,40,Man
16,314409,DepthScenes,duration_manipulation_targetAtFixation,jsons/v1_VE1000_randls_10_rotated.json,http://54.235.29.9/FacialAge/BNav_EC2/DepthDuration/v2_depth_duration_MTurk/v2_DepthDuration_HTML.html#289,289,2558,1285,5120,1440,8-30-2022,10-39-32,17,depth_duration_stimuli/002103_2014-06-25_20-00-40_260595134347_rgbf000049-resize_0/002103_2014-06-25_20-00-40_260595134347_rgbf000049-resize_0-target.png,1000,4.105,12,2657,988,feet,jsons/v1_VE1000_randls_10_rotated.json,557865,713993,40,Man
17,314409,DepthScenes,duration_manipulation_targetAtFixation,jsons/v1_VE1000_randls_10_rotated.json,http://54.235.29.9/FacialAge/BNav_EC2/DepthDuration/v2_depth_duration_MTurk/v2_DepthDuration_HTML.html#289,289,2558,1285,5120,1440,8-30-2022,10-39-32,18,depth_duration_stimuli/002039_2014-06-24_20-22-38_260595134347_rgbf000084-resize_1/002039_2014-06-24_20-22-38_260595134347_rgbf000084-resize_1-target.png,1000,4.408,16,2935,1014,feet,jsons/v1_VE1000_randls_10_rotated.json,557865,713993,40,Man
18,314409,DepthScenes,duration_manipulation_targetAtFixation,jsons/v1_VE1000_randls_10_rotated.json,http://54.235.29.9/FacialAge/BNav_EC2/DepthDuration/v2_depth_duration_MTurk/v2_DepthDuration_HTML.html#289,289,2558,1285,5120,1440,8-30-2022,10-39-32,19,depth_duration_stimuli/001498_2014-06-19_17-45-14_260595134347_rgbf000129-resize_4/001498_2014-06-19_17-45-14_260595134347_rgbf000129-resize-original.jpg,1000,1.4075,0,2638,1008,feet,jsons/v1_VE1000_randls_10_rotated.json,557865,713993,40,Man
19,314409,DepthScenes,duration_manipulation_targetAtFixation,jsons/v1_VE1000_randls_10_rotated.json,http://54.235.29.9/FacialAge/BNav_EC2/DepthDuration/v2_depth_duration_MTurk/v2_DepthDuration_HTML.html#289,289,2558,1285,5120,1440,8-30-2022,10-39-32,20,depth_duration_stimuli/002660_2014-06-13_15-44-18_094959634447_rgbf001878-resize_2/002660_2014-06-13_15-44-18_094959634447_rgbf001878-resize_2-target.png,1000,3.576,8,2425,1000,feet,jsons/v1_VE1000_randls_10_rotated.json,557865,713993,40,Man
20,314409,DepthScenes,duration_manipulation_targetAtFixation,jsons/v1_VE1000_randls_10_rotated.json,http://54.235.29.9/FacialAge/BNav_EC2/DepthDuration/v2_depth_duration_MTurk/v2_DepthDuration_HTML.html#289,289,2558,1285,5120,1440,8-30-2022,10-39-32,21,depth_duration_stimuli/002153_2014-06-25_21-27-18_260595134347_rgbf000038-resize_5/002153_2014-06-25_21-27-18_260595134347_rgbf000038-resize_5-target.png,1000,2.505,6,2499,998,feet,jsons/v1_VE1000_randls_10_rotated.json,557865,713993,40,Man
21,314409,DepthScenes,duration_manipulation_targetAtFixation,jsons/v1_VE1000_randls_10_rotated.json,http://54.235.29.9/FacialAge/BNav_EC2/DepthDuration/v2_depth_duration_MTurk/v2_DepthDuration_HTML.html#289,289,2558,1285,5120,1440,8-30-2022,10-39-32,22,depth_duration_stimuli/002209_2014-06-28_18-36-10_260595134347_rgbf000051-resize_1/002209_2014-06-28_18-36-10_260595134347_rgbf000051-resize_1-target.png,1000,2.057,5,2590,994,feet,jsons/v1_VE1000_randls_10_rotated.json,557865,713993,40,Man
22,314409,DepthScenes,duration_manipulation_targetAtFixation,jsons/v1_VE1000_randls_10_rotated.json,http://54.235.29.9/FacialAge/BNav_EC2/DepthDuration/v2_depth_duration_MTurk/v2_DepthDuration_HTML.html#289,289,2558,1285,5120,1440,8-30-2022,10-39-32,23,depth_duration_stimuli/002763_2014-06-22_19-13-10_094959634447_rgbf000075-resize_4/002763_2014-06-22_19-13-10_094959634447_rgbf000075-resize_4-target.png,1000,1.68375,6,2418,999,feet,jsons/v1_VE1000_randls_10_rotated.json,557865,713993,40,Man
23,314409,DepthScenes,duration_manipulation_targetAtFixation,jsons/v1_VE1000_randls_10_rotated.json,http://54.235.29.9/FacialAge/BNav_EC2/DepthDuration/v2_depth_duration_MTurk/v2_DepthDuration_HTML.html#289,289,2558,1285,5120,1440,8-30-2022,10-39-32,24,depth_duration_stimuli/002568_2014-06-24_13-59-21_094959634447_rgbf000062-resize_4/002568_2014-06-24_13-59-21_094959634447_rgbf000062-resize_4-target.png,1000,3.015,8,2388,1008,feet,jsons/v1_VE1000_randls_10_rotated.json,557865,713993,40,Man
24,314409,DepthScenes,duration_manipulation_targetAtFixation,jsons/v1_VE1000_randls_10_rotated.json,http://54.235.29.9/FacialAge/BNav_EC2/DepthDuration/v2_depth_duration_MTurk/v2_DepthDuration_HTML.html#289,289,2558,1285,5120,1440,8-30-2022,10-39-32,25,depth_duration_stimuli/003492_2014-05-21_15-50-55_094959634447_rgbf000828-resize_1/003492_2014-05-21_15-50-55_094959634447_rgbf000828-resize_1-target.png,1000,4.06875,14,9172,1005,feet,jsons/v1_VE1000_randls_10_rotated.json,557865,713993,40,Man
25,314409,DepthScenes,duration_manipulation_targetAtFixation,jsons/v1_VE1000_randls_10_rotated.json,http://54.235.29.9/FacialAge/BNav_EC2/DepthDuration/v2_depth_duration_MTurk/v2_DepthDuration_HTML.html#289,289,2558,1285,5120,1440,8-30-2022,10-39-32,26,depth_duration_stimuli/003079_2014-06-15_15-18-20_094959634447_rgbf000152-resize_8/003079_2014-06-15_15-18-20_094959634447_rgbf000152-resize_8-target.png,1000,2.8775,6,4731,1014,feet,jsons/v1_VE1000_randls_10_rotated.json,557865,713993,40,Man
26,314409,DepthScenes,duration_manipulation_targetAtFixation,jsons/v1_VE1000_randls_10_rotated.json,http://54.235.29.9/FacialAge/BNav_EC2/DepthDuration/v2_depth_duration_MTurk/v2_DepthDuration_HTML.html#289,289,2558,1285,5120,1440,8-30-2022,10-39-32,27,depth_duration_stimuli/000506_2014-06-08_23-21-00_260595134347_rgbf000070-resize_7/000506_2014-06-08_23-21-00_260595134347_rgbf000070-resize_7-target.png,1000,4.0585,10,2598,988,feet,jsons/v1_VE1000_randls_10_rotated.json,557865,713993,40,Man
27,314409,DepthScenes,duration_manipulation_targetAtFixation,jsons/v1_VE1000_randls_10_rotated.json,http://54.235.29.9/FacialAge/BNav_EC2/DepthDuration/v2_depth_duration_MTurk/v2_DepthDuration_HTML.html#289,289,2558,1285,5120,1440,8-30-2022,10-39-32,28,depth_duration_stimuli/003129_2014-05-12_10-48-10_094959634447_rgbf000100-resize_0/003129_2014-05-12_10-48-10_094959634447_rgbf000100-resize_0-target.png,1000,4.9305,14,3112,1004,feet,jsons/v1_VE1000_randls_10_rotated.json,557865,713993,40,Man
28,314409,DepthScenes,duration_manipulation_targetAtFixation,jsons/v1_VE1000_randls_10_rotated.json,http://54.235.29.9/FacialAge/BNav_EC2/DepthDuration/v2_depth_duration_MTurk/v2_DepthDuration_HTML.html#289,289,2558,1285,5120,1440,8-30-2022,10-39-32,29,depth_duration_stimuli/000414_2014-06-04_19-49-13_260595134347_rgbf000044-resize_0/000414_2014-06-04_19-49-13_260595134347_rgbf000044-resize_0-target.png,1000,4.329,13,4853,1000,feet,jsons/v1_VE1000_randls_10_rotated.json,557865,713993,40,Man
29,314409,DepthScenes,duration_manipulation_targetAtFixation,jsons/v1_VE1000_randls_10_rotated.json,http://54.235.29.9/FacialAge/BNav_EC2/DepthDuration/v2_depth_duration_MTurk/v2_DepthDuration_HTML.html#289,289,2558,1285,5120,1440,8-30-2022,10-39-32,30,depth_duration_stimuli/002072_2014-06-24_21-48-06_260595134347_rgbf000115-resize_0/002072_2014-06-24_21-48-06_260595134347_rgbf000115-resize-original.jpg,1000,4.702,0,2362,1009,feet,jsons/v1_VE1000_randls_10_rotated.json,557865,713993,40,Man
30,314409,DepthScenes,duration_manipulation_targetAtFixation,jsons/v1_VE1000_randls_10_rotated.json,http://54.235.29.9/FacialAge/BNav_EC2/DepthDuration/v2_depth_duration_MTurk/v2_DepthDuration_HTML.html#289,289,2558,1285,5120,1440,8-30-2022,10-39-32,31,depth_duration_stimuli/000780_2014-06-08_22-28-29_260595134347_rgbf000126-resize_1/000780_2014-06-08_22-28-29_260595134347_rgbf000126-resize_1-target.png,1000,3.3825,8,2431,1000,feet,jsons/v1_VE1000_randls_10_rotated.json,557865,713993,40,Man
31,314409,DepthScenes,duration_manipulation_targetAtFixation,jsons/v1_VE1000_randls_10_rotated.json,http://54.235.29.9/FacialAge/BNav_EC2/DepthDuration/v2_depth_duration_MTurk/v2_DepthDuration_HTML.html#289,289,2558,1285,5120,1440,8-30-2022,10-39-32,32,depth_duration_stimuli/002445_2014-06-28_20-32-16_260595134347_rgbf000029-resize_4/002445_2014-06-28_20-32-16_260595134347_rgbf000029-resize_4-target.png,1000,2.5315,6,2855,1001,feet,jsons/v1_VE1000_randls_10_rotated.json,557865,713993,40,Man
32,314409,DepthScenes,duration_manipulation_targetAtFixation,jsons/v1_VE1000_randls_10_rotated.json,http://54.235.29.9/FacialAge/BNav_EC2/DepthDuration/v2_depth_duration_MTurk/v2_DepthDuration_HTML.html#289,289,2558,1285,5120,1440,8-30-2022,10-39-32,33,depth_duration_stimuli/002750_2014-06-22_19-08-03_094959634447_rgbf000094-resize_4/002750_2014-06-22_19-08-03_094959634447_rgbf000094-resize_4-target.png,1000,2.354,10,3412,996,feet,jsons/v1_VE1000_randls_10_rotated.json,557865,713993,40,Man
33,314409,DepthScenes,duration_manipulation_targetAtFixation,jsons/v1_VE1000_randls_10_rotated.json,http://54.235.29.9/FacialAge/BNav_EC2/DepthDuration/v2_depth_duration_MTurk/v2_DepthDuration_HTML.html#289,289,2558,1285,5120,1440,8-30-2022,10-39-32,34,depth_duration_stimuli/002549_2014-06-24_13-41-39_094959634447_rgbf000022-resize_3/002549_2014-06-24_13-41-39_094959634447_rgbf000022-resize_3-target.png,1000,1.476,4,17056,999,feet,jsons/v1_VE1000_randls_10_rotated.json,557865,713993,40,Man
34,314409,DepthScenes,duration_manipulation_targetAtFixation,jsons/v1_VE1000_randls_10_rotated.json,http://54.235.29.9/FacialAge/BNav_EC2/DepthDuration/v2_depth_duration_MTurk/v2_DepthDuration_HTML.html#289,289,2558,1285,5120,1440,8-30-2022,10-39-32,35,depth_duration_stimuli/001235_2014-06-17_16-37-36_260595134347_rgbf000084-resize_4/001235_2014-06-17_16-37-36_260595134347_rgbf000084-resize_4-target.png,1000,3.6605,8,2956,989,feet,jsons/v1_VE1000_randls_10_rotated.json,557865,713993,40,Man
35,314409,DepthScenes,duration_manipulation_targetAtFixation,jsons/v1_VE1000_randls_10_rotated.json,http://54.235.29.9/FacialAge/BNav_EC2/DepthDuration/v2_depth_duration_MTurk/v2_DepthDuration_HTML.html#289,289,2558,1285,5120,1440,8-30-2022,10-39-32,36,depth_duration_stimuli/000788_2014-06-08_22-34-36_260595134347_rgbf000131-resize_1/000788_2014-06-08_22-34-36_260595134347_rgbf000131-resize_1-target.png,1000,3.359,12,2601,993,feet,jsons/v1_VE1000_randls_10_rotated.json,557865,713993,40,Man
36,314409,DepthScenes,duration_manipulation_targetAtFixation,jsons/v1_VE1000_randls_10_rotated.json,http://54.235.29.9/FacialAge/BNav_EC2/DepthDuration/v2_depth_duration_MTurk/v2_DepthDuration_HTML.html#289,289,2558,1285,5120,1440,8-30-2022,10-39-32,37,depth_duration_stimuli/002995_2014-06-15_12-31-26_094959634447_rgbf000150-resize_1/002995_2014-06-15_12-31-26_094959634447_rgbf000150-resize_1-target.png,1000,3.8360000000000003,14,2989,1016,feet,jsons/v1_VE1000_randls_10_rotated.json,557865,713993,40,Man
37,314409,DepthScenes,duration_manipulation_targetAtFixation,jsons/v1_VE1000_randls_10_rotated.json,http://54.235.29.9/FacialAge/BNav_EC2/DepthDuration/v2_depth_duration_MTurk/v2_DepthDuration_HTML.html#289,289,2558,1285,5120,1440,8-30-2022,10-39-32,38,depth_duration_stimuli/002748_2014-06-22_19-07-22_094959634447_rgbf000078-resize_1/002748_2014-06-22_19-07-22_094959634447_rgbf000078-resize_1-target.png,1000,4.6705,20,2569,997,feet,jsons/v1_VE1000_randls_10_rotated.json,557865,713993,40,Man
38,314409,DepthScenes,duration_manipulation_targetAtFixation,jsons/v1_VE1000_randls_10_rotated.json,http://54.235.29.9/FacialAge/BNav_EC2/DepthDuration/v2_depth_duration_MTurk/v2_DepthDuration_HTML.html#289,289,2558,1285,5120,1440,8-30-2022,10-39-32,39,depth_duration_stimuli/000943_2014-06-09_19-31-07_260595134347_rgbf000128-resize_1/000943_2014-06-09_19-31-07_260595134347_rgbf000128-resize_1-target.png,1000,1.9765,6,2957,1015,feet,jsons/v1_VE1000_randls_10_rotated.json,557865,713993,40,Man
39,314409,DepthScenes,duration_manipulation_targetAtFixation,jsons/v1_VE1000_randls_10_rotated.json,http://54.235.29.9/FacialAge/BNav_EC2/DepthDuration/v2_depth_duration_MTurk/v2_DepthDuration_HTML.html#289,289,2558,1285,5120,1440,8-30-2022,10-39-32,40,depth_duration_stimuli/003070_2014-06-15_14-58-27_094959634447_rgbf000150-resize_3/003070_2014-06-15_14-58-27_094959634447_rgbf000150-resize_3-target.png,1000,2.9415,10,2503,998,feet,jsons/v1_VE1000_randls_10_rotated.json,557865,713993,40,Man
40,314409,DepthScenes,duration_manipulation_targetAtFixation,jsons/v1_VE1000_randls_10_rotated.json,http://54.235.29.9/FacialAge/BNav_EC2/DepthDuration/v2_depth_duration_MTurk/v2_DepthDuration_HTML.html#289,289,2558,1285,5120,1440,8-30-2022,10-39-32,41,depth_duration_stimuli/002805_2014-06-22_19-54-03_094959634447_rgbf000079-resize_1/002805_2014-06-22_19-54-03_094959634447_rgbf000079-resize_1-target.png,1000,3.1439999999999997,12,3135,999,feet,jsons/v1_VE1000_randls_10_rotated.json,557865,713993,40,Man
41,314409,DepthScenes,duration_manipulation_targetAtFixation,jsons/v1_VE1000_randls_10_rotated.json,http://54.235.29.9/FacialAge/BNav_EC2/DepthDuration/v2_depth_duration_MTurk/v2_DepthDuration_HTML.html#289,289,2558,1285,5120,1440,8-30-2022,10-39-32,42,depth_duration_stimuli/000906_2014-06-08_13-35-43_260595134347_rgbf000155-resize_1/000906_2014-06-08_13-35-43_260595134347_rgbf000155-resize_1-target.png,1000,2.8489999999999998,14,2814,1000,feet,jsons/v1_VE1000_randls_10_rotated.json,557865,713993,40,Man
42,314409,DepthScenes,duration_manipulation_targetAtFixation,jsons/v1_VE1000_randls_10_rotated.json,http://54.235.29.9/FacialAge/BNav_EC2/DepthDuration/v2_depth_duration_MTurk/v2_DepthDuration_HTML.html#289,289,2558,1285,5120,1440,8-30-2022,10-39-32,43,depth_duration_stimuli/002344_2014-06-28_20-06-29_260595134347_rgbf000030-resize_1/002344_2014-06-28_20-06-29_260595134347_rgbf000030-resize_1-target.png,1000,1.5795,3,2744,1005,feet,jsons/v1_VE1000_randls_10_rotated.json,557865,713993,40,Man
43,314409,DepthScenes,duration_manipulation_targetAtFixation,jsons/v1_VE1000_randls_10_rotated.json,http://54.235.29.9/FacialAge/BNav_EC2/DepthDuration/v2_depth_duration_MTurk/v2_DepthDuration_HTML.html#289,289,2558,1285,5120,1440,8-30-2022,10-39-32,44,depth_duration_stimuli/002725_2014-06-22_11-47-51_094959634447_rgbf000070-resize_1/002725_2014-06-22_11-47-51_094959634447_rgbf000070-resize_1-target.png,1000,2.195,8,2312,1000,feet,jsons/v1_VE1000_randls_10_rotated.json,557865,713993,40,Man
44,314409,DepthScenes,duration_manipulation_targetAtFixation,jsons/v1_VE1000_randls_10_rotated.json,http://54.235.29.9/FacialAge/BNav_EC2/DepthDuration/v2_depth_duration_MTurk/v2_DepthDuration_HTML.html#289,289,2558,1285,5120,1440,8-30-2022,10-39-32,45,depth_duration_stimuli/000734_2014-06-08_17-39-11_260595134347_rgbf000128-resize_2/000734_2014-06-08_17-39-11_260595134347_rgbf000128-resize_2-target.png,1000,4.098,8,2954,993,feet,jsons/v1_VE1000_randls_10_rotated.json,557865,713993,40,Man
45,314409,DepthScenes,duration_manipulation_targetAtFixation,jsons/v1_VE1000_randls_10_rotated.json,http://54.235.29.9/FacialAge/BNav_EC2/DepthDuration/v2_depth_duration_MTurk/v2_DepthDuration_HTML.html#289,289,2558,1285,5120,1440,8-30-2022,10-39-32,46,depth_duration_stimuli/000739_2014-06-08_18-45-58_260595134347_rgbf000068-resize_1/000739_2014-06-08_18-45-58_260595134347_rgbf000068-resize_1-target.png,1000,3.534,12,2330,1000,feet,jsons/v1_VE1000_randls_10_rotated.json,557865,713993,40,Man
46,314409,DepthScenes,duration_manipulation_targetAtFixation,jsons/v1_VE1000_randls_10_rotated.json,http://54.235.29.9/FacialAge/BNav_EC2/DepthDuration/v2_depth_duration_MTurk/v2_DepthDuration_HTML.html#289,289,2558,1285,5120,1440,8-30-2022,10-39-32,47,depth_duration_stimuli/001650_2014-06-20_12-09-00_260595134347_rgbf000087-resize_3/001650_2014-06-20_12-09-00_260595134347_rgbf000087-resize_3-target.png,1000,1.9505,2,2525,1005,feet,jsons/v1_VE1000_randls_10_rotated.json,557865,713993,40,Man
47,314409,DepthScenes,duration_manipulation_targetAtFixation,jsons/v1_VE1000_randls_10_rotated.json,http://54.235.29.9/FacialAge/BNav_EC2/DepthDuration/v2_depth_duration_MTurk/v2_DepthDuration_HTML.html#289,289,2558,1285,5120,1440,8-30-2022,10-39-32,48,depth_duration_stimuli/000682_2014-06-08_23-14-58_260595134347_rgbf000041-resize_5/000682_2014-06-08_23-14-58_260595134347_rgbf000041-resize_5-target.png,1000,2.7239999999999998,7,2468,996,feet,jsons/v1_VE1000_randls_10_rotated.json,557865,713993,40,Man
48,314409,DepthScenes,duration_manipulation_targetAtFixation,jsons/v1_VE1000_randls_10_rotated.json,http://54.235.29.9/FacialAge/BNav_EC2/DepthDuration/v2_depth_duration_MTurk/v2_DepthDuration_HTML.html#289,289,2558,1285,5120,1440,8-30-2022,10-39-32,49,depth_duration_stimuli/001170_2014-06-17_15-43-44_260595134347_rgbf000096-resize_6/001170_2014-06-17_15-43-44_260595134347_rgbf000096-resize-original.jpg,1000,1.1909999999999998,0,2710,1003,feet,jsons/v1_VE1000_randls_10_rotated.json,557865,713993,40,Man
49,314409,DepthScenes,duration_manipulation_targetAtFixation,jsons/v1_VE1000_randls_10_rotated.json,http://54.235.29.9/FacialAge/BNav_EC2/DepthDuration/v2_depth_duration_MTurk/v2_DepthDuration_HTML.html#289,289,2558,1285,5120,1440,8-30-2022,10-39-32,50,depth_duration_stimuli/002467_2014-06-28_20-38-07_260595134347_rgbf000026-resize_2/002467_2014-06-28_20-38-07_260595134347_rgbf000026-resize_2-target.png,1000,4.742,14,3165,1011,feet,jsons/v1_VE1000_randls_10_rotated.json,557865,713993,40,Man
50,314409,DepthScenes,duration_manipulation_targetAtFixation,jsons/v1_VE1000_randls_10_rotated.json,http://54.235.29.9/FacialAge/BNav_EC2/DepthDuration/v2_depth_duration_MTurk/v2_DepthDuration_HTML.html#289,289,2558,1285,5120,1440,8-30-2022,10-39-32,51,depth_duration_stimuli/002570_2014-06-24_13-59-54_094959634447_rgbf000059-resize_0/002570_2014-06-24_13-59-54_094959634447_rgbf000059-resize_0-target.png,1000,4.037,16,3030,995,feet,jsons/v1_VE1000_randls_10_rotated.json,557865,713993,40,Man
51,314409,DepthScenes,duration_manipulation_targetAtFixation,jsons/v1_VE1000_randls_10_rotated.json,http://54.235.29.9/FacialAge/BNav_EC2/DepthDuration/v2_depth_duration_MTurk/v2_DepthDuration_HTML.html#289,289,2558,1285,5120,1440,8-30-2022,10-39-32,52,depth_duration_stimuli/000502_2014-06-08_23-02-32_260595134347_rgbf000063-resize_4/000502_2014-06-08_23-02-32_260595134347_rgbf000063-resize_4-target.png,1000,2.431,6,2756,995,feet,jsons/v1_VE1000_randls_10_rotated.json,557865,713993,40,Man
52,314409,DepthScenes,duration_manipulation_targetAtFixation,jsons/v1_VE1000_randls_10_rotated.json,http://54.235.29.9/FacialAge/BNav_EC2/DepthDuration/v2_depth_duration_MTurk/v2_DepthDuration_HTML.html#289,289,2558,1285,5120,1440,8-30-2022,10-39-32,53,depth_duration_stimuli/001199_2014-06-17_16-03-48_260595134347_rgbf000077-resize_0/001199_2014-06-17_16-03-48_260595134347_rgbf000077-resize_0-target.png,1000,3.4375,20,2700,992,feet,jsons/v1_VE1000_randls_10_rotated.json,557865,713993,40,Man
53,314409,DepthScenes,duration_manipulation_targetAtFixation,jsons/v1_VE1000_randls_10_rotated.json,http://54.235.29.9/FacialAge/BNav_EC2/DepthDuration/v2_depth_duration_MTurk/v2_DepthDuration_HTML.html#289,289,2558,1285,5120,1440,8-30-2022,10-39-32,54,depth_duration_stimuli/003010_2014-06-15_12-54-35_094959634447_rgbf000112-resize_0/003010_2014-06-15_12-54-35_094959634447_rgbf000112-resize_0-target.png,1000,3.1185,14,2530,1002,feet,jsons/v1_VE1000_randls_10_rotated.json,557865,713993,40,Man
54,314409,DepthScenes,duration_manipulation_targetAtFixation,jsons/v1_VE1000_randls_10_rotated.json,http://54.235.29.9/FacialAge/BNav_EC2/DepthDuration/v2_depth_duration_MTurk/v2_DepthDuration_HTML.html#289,289,2558,1285,5120,1440,8-30-2022,10-39-32,55,depth_duration_stimuli/001810_2014-06-26_20-51-35_260595134347_rgbf000040-resize_3/001810_2014-06-26_20-51-35_260595134347_rgbf000040-resize_3-target.png,1000,2.2525,5,2425,999,feet,jsons/v1_VE1000_randls_10_rotated.json,557865,713993,40,Man
55,314409,DepthScenes,duration_manipulation_targetAtFixation,jsons/v1_VE1000_randls_10_rotated.json,http://54.235.29.9/FacialAge/BNav_EC2/DepthDuration/v2_depth_duration_MTurk/v2_DepthDuration_HTML.html#289,289,2558,1285,5120,1440,8-30-2022,10-39-32,56,depth_duration_stimuli/000854_2014-06-09_19-43-13_260595134347_rgbf000066-resize_0/000854_2014-06-09_19-43-13_260595134347_rgbf000066-resize_0-target.png,1000,3.068,6,2595,994,feet,jsons/v1_VE1000_randls_10_rotated.json,557865,713993,40,Man
56,314409,DepthScenes,duration_manipulation_targetAtFixation,jsons/v1_VE1000_randls_10_rotated.json,http://54.235.29.9/FacialAge/BNav_EC2/DepthDuration/v2_depth_duration_MTurk/v2_DepthDuration_HTML.html#289,289,2558,1285,5120,1440,8-30-2022,10-39-32,57,depth_duration_stimuli/000758_2014-06-08_22-05-08_260595134347_rgbf000085-resize_0/000758_2014-06-08_22-05-08_260595134347_rgbf000085-resize_0-target.png,1000,3.3810000000000002,12,2527,996,feet,jsons/v1_VE1000_randls_10_rotated.json,557865,713993,40,Man
57,314409,DepthScenes,duration_manipulation_targetAtFixation,jsons/v1_VE1000_randls_10_rotated.json,http://54.235.29.9/FacialAge/BNav_EC2/DepthDuration/v2_depth_duration_MTurk/v2_DepthDuration_HTML.html#289,289,2558,1285,5120,1440,8-30-2022,10-39-32,58,depth_duration_stimuli/003338_2014-05-20_11-01-23_094959634447_rgbf000051-resize_6/003338_2014-05-20_11-01-23_094959634447_rgbf000051-resize_6-target.png,1000,1.693,4,2075,994,feet,jsons/v1_VE1000_randls_10_rotated.json,557865,713993,40,Man
58,314409,DepthScenes,duration_manipulation_targetAtFixation,jsons/v1_VE1000_randls_10_rotated.json,http://54.235.29.9/FacialAge/BNav_EC2/DepthDuration/v2_depth_duration_MTurk/v2_DepthDuration_HTML.html#289,289,2558,1285,5120,1440,8-30-2022,10-39-32,59,depth_duration_stimuli/002509_2014-06-24_13-19-22_094959634447_rgbf000077-resize_0/002509_2014-06-24_13-19-22_094959634447_rgbf000077-resize_0-target.png,1000,1.3065,4,2078,994,feet,jsons/v1_VE1000_randls_10_rotated.json,557865,713993,40,Man
59,314409,DepthScenes,duration_manipulation_targetAtFixation,jsons/v1_VE1000_randls_10_rotated.json,http://54.235.29.9/FacialAge/BNav_EC2/DepthDuration/v2_depth_duration_MTurk/v2_DepthDuration_HTML.html#289,289,2558,1285,5120,1440,8-30-2022,10-39-32,60,depth_duration_stimuli/000677_2014-06-08_23-10-32_260595134347_rgbf000158-resize_6/000677_2014-06-08_23-10-32_260595134347_rgbf000158-resize_6-target.png,1000,3.556,10,2189,1012,feet,jsons/v1_VE1000_randls_10_rotated.json,557865,713993,40,Man
60,314409,DepthScenes,duration_manipulation_targetAtFixation,jsons/v1_VE1000_randls_10_rotated.json,http://54.235.29.9/FacialAge/BNav_EC2/DepthDuration/v2_depth_duration_MTurk/v2_DepthDuration_HTML.html#289,289,2558,1285,5120,1440,8-30-2022,10-39-32,61,depth_duration_stimuli/001029_2014-06-08_13-17-57_260595134347_rgbf000065-resize_1/001029_2014-06-08_13-17-57_260595134347_rgbf000065-resize_1-target.png,1000,3.0835,8,2064,998,feet,jsons/v1_VE1000_randls_10_rotated.json,557865,713993,40,Man
61,314409,DepthScenes,duration_manipulation_targetAtFixation,jsons/v1_VE1000_randls_10_rotated.json,http://54.235.29.9/FacialAge/BNav_EC2/DepthDuration/v2_depth_duration_MTurk/v2_DepthDuration_HTML.html#289,289,2558,1285,5120,1440,8-30-2022,10-39-32,62,depth_duration_stimuli/001447_2014-06-19_17-00-32_260595134347_rgbf000082-resize_5/001447_2014-06-19_17-00-32_260595134347_rgbf000082-resize_5-target.png,1000,4.13775,8,2121,996,feet,jsons/v1_VE1000_randls_10_rotated.json,557865,713993,40,Man
62,314409,DepthScenes,duration_manipulation_targetAtFixation,jsons/v1_VE1000_randls_10_rotated.json,http://54.235.29.9/FacialAge/BNav_EC2/DepthDuration/v2_depth_duration_MTurk/v2_DepthDuration_HTML.html#289,289,2558,1285,5120,1440,8-30-2022,10-39-32,63,depth_duration_stimuli/000447_2014-06-08_16-15-46_260595134347_rgbf000130-resize_1/000447_2014-06-08_16-15-46_260595134347_rgbf000130-resize_1-target.png,1000,4.479,18,3427,999,feet,jsons/v1_VE1000_randls_10_rotated.json,557865,713993,40,Man
63,314409,DepthScenes,duration_manipulation_targetAtFixation,jsons/v1_VE1000_randls_10_rotated.json,http://54.235.29.9/FacialAge/BNav_EC2/DepthDuration/v2_depth_duration_MTurk/v2_DepthDuration_HTML.html#289,289,2558,1285,5120,1440,8-30-2022,10-39-32,64,depth_duration_stimuli/000866_2014-06-09_20-45-42_260595134347_rgbf000139-resize_1/000866_2014-06-09_20-45-42_260595134347_rgbf000139-resize_1-target.png,1000,3.2155,8,2814,996,feet,jsons/v1_VE1000_randls_10_rotated.json,557865,713993,40,Man
64,314409,DepthScenes,duration_manipulation_targetAtFixation,jsons/v1_VE1000_randls_10_rotated.json,http://54.235.29.9/FacialAge/BNav_EC2/DepthDuration/v2_depth_duration_MTurk/v2_DepthDuration_HTML.html#289,289,2558,1285,5120,1440,8-30-2022,10-39-32,65,depth_duration_stimuli/002989_2014-06-15_12-25-03_094959634447_rgbf000150-resize_3/002989_2014-06-15_12-25-03_094959634447_rgbf000150-resize_3-target.png,1000,4.1975,14,2760,994,feet,jsons/v1_VE1000_randls_10_rotated.json,557865,713993,40,Man
65,314409,DepthScenes,duration_manipulation_targetAtFixation,jsons/v1_VE1000_randls_10_rotated.json,http://54.235.29.9/FacialAge/BNav_EC2/DepthDuration/v2_depth_duration_MTurk/v2_DepthDuration_HTML.html#289,289,2558,1285,5120,1440,8-30-2022,10-39-32,66,depth_duration_stimuli/001540_2014-06-20_17-01-05_260595134347_rgbf000086-resize_2/001540_2014-06-20_17-01-05_260595134347_rgbf000086-resize-original.jpg,1000,1.459,0,2118,993,feet,jsons/v1_VE1000_randls_10_rotated.json,557865,713993,40,Man
66,314409,DepthScenes,duration_manipulation_targetAtFixation,jsons/v1_VE1000_randls_10_rotated.json,http://54.235.29.9/FacialAge/BNav_EC2/DepthDuration/v2_depth_duration_MTurk/v2_DepthDuration_HTML.html#289,289,2558,1285,5120,1440,8-30-2022,10-39-32,67,depth_duration_stimuli/000635_2014-06-08_16-38-42_260595134347_rgbf000106-resize_1/000635_2014-06-08_16-38-42_260595134347_rgbf000106-resize_1-target.png,1000,2.074,8,2344,995,feet,jsons/v1_VE1000_randls_10_rotated.json,557865,713993,40,Man
67,314409,DepthScenes,duration_manipulation_targetAtFixation,jsons/v1_VE1000_randls_10_rotated.json,http://54.235.29.9/FacialAge/BNav_EC2/DepthDuration/v2_depth_duration_MTurk/v2_DepthDuration_HTML.html#289,289,2558,1285,5120,1440,8-30-2022,10-39-32,68,depth_duration_stimuli/002279_2014-06-28_18-55-32_260595134347_rgbf000040-resize_5/002279_2014-06-28_18-55-32_260595134347_rgbf000040-resize_5-target.png,1000,1.5043333333333,3,2495,1004,feet,jsons/v1_VE1000_randls_10_rotated.json,557865,713993,40,Man
68,314409,DepthScenes,duration_manipulation_targetAtFixation,jsons/v1_VE1000_randls_10_rotated.json,http://54.235.29.9/FacialAge/BNav_EC2/DepthDuration/v2_depth_duration_MTurk/v2_DepthDuration_HTML.html#289,289,2558,1285,5120,1440,8-30-2022,10-39-32,69,depth_duration_stimuli/002875_2014-06-01_15-19-00_094959634447_rgbf000151-resize_1/002875_2014-06-01_15-19-00_094959634447_rgbf000151-resize_1-target.png,1000,1.9675,4,2233,998,feet,jsons/v1_VE1000_randls_10_rotated.json,557865,713993,40,Man
69,314409,DepthScenes,duration_manipulation_targetAtFixation,jsons/v1_VE1000_randls_10_rotated.json,http://54.235.29.9/FacialAge/BNav_EC2/DepthDuration/v2_depth_duration_MTurk/v2_DepthDuration_HTML.html#289,289,2558,1285,5120,1440,8-30-2022,10-39-32,70,depth_duration_stimuli/001011_2014-06-08_23-18-54_260595134347_rgbf000044-resize_4/001011_2014-06-08_23-18-54_260595134347_rgbf000044-resize_4-target.png,1000,2.4730000000000003,8,2939,999,feet,jsons/v1_VE1000_randls_10_rotated.json,557865,713993,40,Man
70,314409,DepthScenes,duration_manipulation_targetAtFixation,jsons/v1_VE1000_randls_10_rotated.json,http://54.235.29.9/FacialAge/BNav_EC2/DepthDuration/v2_depth_duration_MTurk/v2_DepthDuration_HTML.html#289,289,2558,1285,5120,1440,8-30-2022,10-39-32,71,depth_duration_stimuli/003228_2014-05-14_13-42-35_094959634447_rgbf000101-resize_1/003228_2014-05-14_13-42-35_094959634447_rgbf000101-resize_1-target.png,1000,1.9680000000000002,4,2473,997,feet,jsons/v1_VE1000_randls_10_rotated.json,557865,713993,40,Man
71,314409,DepthScenes,duration_manipulation_targetAtFixation,jsons/v1_VE1000_randls_10_rotated.json,http://54.235.29.9/FacialAge/BNav_EC2/DepthDuration/v2_depth_duration_MTurk/v2_DepthDuration_HTML.html#289,289,2558,1285,5120,1440,8-30-2022,10-39-32,72,depth_duration_stimuli/002600_2014-06-24_14-27-04_094959634447_rgbf000074-resize_2/002600_2014-06-24_14-27-04_094959634447_rgbf000074-resize_2-target.png,1000,2.7575,8,2169,1003,feet,jsons/v1_VE1000_randls_10_rotated.json,557865,713993,40,Man
72,314409,DepthScenes,duration_manipulation_targetAtFixation,jsons/v1_VE1000_randls_10_rotated.json,http://54.235.29.9/FacialAge/BNav_EC2/DepthDuration/v2_depth_duration_MTurk/v2_DepthDuration_HTML.html#289,289,2558,1285,5120,1440,8-30-2022,10-39-32,73,depth_duration_stimuli/000483_2014-06-09_20-41-45_260595134347_rgbf000116-resize_4/000483_2014-06-09_20-41-45_260595134347_rgbf000116-resize_4-target.png,1000,1.337,3,2877,999,feet,jsons/v1_VE1000_randls_10_rotated.json,557865,713993,40,Man
73,314409,DepthScenes,duration_manipulation_targetAtFixation,jsons/v1_VE1000_randls_10_rotated.json,http://54.235.29.9/FacialAge/BNav_EC2/DepthDuration/v2_depth_duration_MTurk/v2_DepthDuration_HTML.html#289,289,2558,1285,5120,1440,8-30-2022,10-39-32,74,depth_duration_stimuli/000469_2014-06-09_19-42-10_260595134347_rgbf000081-resize_1/000469_2014-06-09_19-42-10_260595134347_rgbf000081-resize_1-target.png,1000,1.652,3,2116,1000,feet,jsons/v1_VE1000_randls_10_rotated.json,557865,713993,40,Man
74,314409,DepthScenes,duration_manipulation_targetAtFixation,jsons/v1_VE1000_randls_10_rotated.json,http://54.235.29.9/FacialAge/BNav_EC2/DepthDuration/v2_depth_duration_MTurk/v2_DepthDuration_HTML.html#289,289,2558,1285,5120,1440,8-30-2022,10-39-32,75,depth_duration_stimuli/000665_2014-06-09_20-42-35_260595134347_rgbf000110-resize_1/000665_2014-06-09_20-42-35_260595134347_rgbf000110-resize_1-target.png,1000,3.057,7,2719,1007,feet,jsons/v1_VE1000_randls_10_rotated.json,557865,713993,40,Man
75,314409,DepthScenes,duration_manipulation_targetAtFixation,jsons/v1_VE1000_randls_10_rotated.json,http://54.235.29.9/FacialAge/BNav_EC2/DepthDuration/v2_depth_duration_MTurk/v2_DepthDuration_HTML.html#289,289,2558,1285,5120,1440,8-30-2022,10-39-32,76,depth_duration_stimuli/001150_2014-06-17_15-27-34_260595134347_rgbf000108-resize_2/001150_2014-06-17_15-27-34_260595134347_rgbf000108-resize_2-target.png,1000,4.0325,10,2431,993,feet,jsons/v1_VE1000_randls_10_rotated.json,557865,713993,40,Man
76,314409,DepthScenes,duration_manipulation_targetAtFixation,jsons/v1_VE1000_randls_10_rotated.json,http://54.235.29.9/FacialAge/BNav_EC2/DepthDuration/v2_depth_duration_MTurk/v2_DepthDuration_HTML.html#289,289,2558,1285,5120,1440,8-30-2022,10-39-32,77,depth_duration_stimuli/002758_2014-06-22_19-11-20_094959634447_rgbf000128-resize_1/002758_2014-06-22_19-11-20_094959634447_rgbf000128-resize_1-target.png,1000,2.555,6,2266,1010,feet,jsons/v1_VE1000_randls_10_rotated.json,557865,713993,40,Man
77,314409,DepthScenes,duration_manipulation_targetAtFixation,jsons/v1_VE1000_randls_10_rotated.json,http://54.235.29.9/FacialAge/BNav_EC2/DepthDuration/v2_depth_duration_MTurk/v2_DepthDuration_HTML.html#289,289,2558,1285,5120,1440,8-30-2022,10-39-32,78,depth_duration_stimuli/002630_2014-06-24_14-47-50_094959634447_rgbf000055-resize_1/002630_2014-06-24_14-47-50_094959634447_rgbf000055-resize_1-target.png,1000,3.0095,16,2939,1000,feet,jsons/v1_VE1000_randls_10_rotated.json,557865,713993,40,Man
78,314409,DepthScenes,duration_manipulation_targetAtFixation,jsons/v1_VE1000_randls_10_rotated.json,http://54.235.29.9/FacialAge/BNav_EC2/DepthDuration/v2_depth_duration_MTurk/v2_DepthDuration_HTML.html#289,289,2558,1285,5120,1440,8-30-2022,10-39-32,79,depth_duration_stimuli/003048_2014-06-15_13-49-43_094959634447_rgbf000150-resize_1/003048_2014-06-15_13-49-43_094959634447_rgbf000150-resize_1-target.png,1000,4.0035,14,2934,996,feet,jsons/v1_VE1000_randls_10_rotated.json,557865,713993,40,Man
79,314409,DepthScenes,duration_manipulation_targetAtFixation,jsons/v1_VE1000_randls_10_rotated.json,http://54.235.29.9/FacialAge/BNav_EC2/DepthDuration/v2_depth_duration_MTurk/v2_DepthDuration_HTML.html#289,289,2558,1285,5120,1440,8-30-2022,10-39-32,80,depth_duration_stimuli/002043_2014-06-24_20-29-38_260595134347_rgbf000039-resize_4/002043_2014-06-24_20-29-38_260595134347_rgbf000039-resize_4-target.png,1000,2.8435,10,2359,997,feet,jsons/v1_VE1000_randls_10_rotated.json,557865,713993,40,Man
80,314409,DepthScenes,duration_manipulation_targetAtFixation,jsons/v1_VE1000_randls_10_rotated.json,http://54.235.29.9/FacialAge/BNav_EC2/DepthDuration/v2_depth_duration_MTurk/v2_DepthDuration_HTML.html#289,289,2558,1285,5120,1440,8-30-2022,10-39-32,81,depth_duration_stimuli/001571_2014-06-20_17-21-32_260595134347_rgbf000089-resize_1/001571_2014-06-20_17-21-32_260595134347_rgbf000089-resize_1-target.png,1000,1.86,8,2432,997,feet,jsons/v1_VE1000_randls_10_rotated.json,557865,713993,40,Man
81,314409,DepthScenes,duration_manipulation_targetAtFixation,jsons/v1_VE1000_randls_10_rotated.json,http://54.235.29.9/FacialAge/BNav_EC2/DepthDuration/v2_depth_duration_MTurk/v2_DepthDuration_HTML.html#289,289,2558,1285,5120,1440,8-30-2022,10-39-32,82,depth_duration_stimuli/002272_2014-06-28_18-53-56_260595134347_rgbf000067-resize_2/002272_2014-06-28_18-53-56_260595134347_rgbf000067-resize_2-target.png,1000,1.138,3,2739,1011,feet,jsons/v1_VE1000_randls_10_rotated.json,557865,713993,40,Man
82,314409,DepthScenes,duration_manipulation_targetAtFixation,jsons/v1_VE1000_randls_10_rotated.json,http://54.235.29.9/FacialAge/BNav_EC2/DepthDuration/v2_depth_duration_MTurk/v2_DepthDuration_HTML.html#289,289,2558,1285,5120,1440,8-30-2022,10-39-32,83,depth_duration_stimuli/001828_2014-06-26_21-40-03_260595134347_rgbf000024-resize_0/001828_2014-06-26_21-40-03_260595134347_rgbf000024-resize_0-target.png,1000,4.8260000000000005,15,2615,994,feet,jsons/v1_VE1000_randls_10_rotated.json,557865,713993,40,Man
83,314409,DepthScenes,duration_manipulation_targetAtFixation,jsons/v1_VE1000_randls_10_rotated.json,http://54.235.29.9/FacialAge/BNav_EC2/DepthDuration/v2_depth_duration_MTurk/v2_DepthDuration_HTML.html#289,289,2558,1285,5120,1440,8-30-2022,10-39-32,84,depth_duration_stimuli/000009_2014-05-26_14-32-05_260595134347_rgbf000034-resize_3/000009_2014-05-26_14-32-05_260595134347_rgbf000034-resize_3-target.png,1000,3.8715,12,3462,1009,feet,jsons/v1_VE1000_randls_10_rotated.json,557865,713993,40,Man
84,314409,DepthScenes,duration_manipulation_targetAtFixation,jsons/v1_VE1000_randls_10_rotated.json,http://54.235.29.9/FacialAge/BNav_EC2/DepthDuration/v2_depth_duration_MTurk/v2_DepthDuration_HTML.html#289,289,2558,1285,5120,1440,8-30-2022,10-39-32,85,depth_duration_stimuli/000457_2014-06-08_16-52-43_260595134347_rgbf000199-resize_1/000457_2014-06-08_16-52-43_260595134347_rgbf000199-resize_1-target.png,1000,3.6489999999999996,10,2747,996,feet,jsons/v1_VE1000_randls_10_rotated.json,557865,713993,40,Man
85,314409,DepthScenes,duration_manipulation_targetAtFixation,jsons/v1_VE1000_randls_10_rotated.json,http://54.235.29.9/FacialAge/BNav_EC2/DepthDuration/v2_depth_duration_MTurk/v2_DepthDuration_HTML.html#289,289,2558,1285,5120,1440,8-30-2022,10-39-32,86,depth_duration_stimuli/000929_2014-06-09_16-33-19_260595134347_rgbf000139-resize_0/000929_2014-06-09_16-33-19_260595134347_rgbf000139-resize_0-target.png,1000,2.8680000000000003,8,2268,999,feet,jsons/v1_VE1000_randls_10_rotated.json,557865,713993,40,Man
86,314409,DepthScenes,duration_manipulation_targetAtFixation,jsons/v1_VE1000_randls_10_rotated.json,http://54.235.29.9/FacialAge/BNav_EC2/DepthDuration/v2_depth_duration_MTurk/v2_DepthDuration_HTML.html#289,289,2558,1285,5120,1440,8-30-2022,10-39-32,87,depth_duration_stimuli/000709_2014-06-08_13-51-55_260595134347_rgbf000068-resize_3/000709_2014-06-08_13-51-55_260595134347_rgbf000068-resize_3-target.png,1000,1.8030000000000002,6,2061,995,feet,jsons/v1_VE1000_randls_10_rotated.json,557865,713993,40,Man
87,314409,DepthScenes,duration_manipulation_targetAtFixation,jsons/v1_VE1000_randls_10_rotated.json,http://54.235.29.9/FacialAge/BNav_EC2/DepthDuration/v2_depth_duration_MTurk/v2_DepthDuration_HTML.html#289,289,2558,1285,5120,1440,8-30-2022,10-39-32,88,depth_duration_stimuli/002057_2014-06-24_21-00-13_260595134347_rgbf000120-resize_1/002057_2014-06-24_21-00-13_260595134347_rgbf000120-resize_1-target.png,1000,2.967,8,2473,1001,feet,jsons/v1_VE1000_randls_10_rotated.json,557865,713993,40,Man
88,314409,DepthScenes,duration_manipulation_targetAtFixation,jsons/v1_VE1000_randls_10_rotated.json,http://54.235.29.9/FacialAge/BNav_EC2/DepthDuration/v2_depth_duration_MTurk/v2_DepthDuration_HTML.html#289,289,2558,1285,5120,1440,8-30-2022,10-39-32,89,depth_duration_stimuli/001516_2014-06-20_16-25-09_260595134347_rgbf000076-resize_2/001516_2014-06-20_16-25-09_260595134347_rgbf000076-resize_2-target.png,1000,1.7445,6,2212,997,feet,jsons/v1_VE1000_randls_10_rotated.json,557865,713993,40,Man
89,314409,DepthScenes,duration_manipulation_targetAtFixation,jsons/v1_VE1000_randls_10_rotated.json,http://54.235.29.9/FacialAge/BNav_EC2/DepthDuration/v2_depth_duration_MTurk/v2_DepthDuration_HTML.html#289,289,2558,1285,5120,1440,8-30-2022,10-39-32,90,depth_duration_stimuli/002118_2014-06-25_20-32-08_260595134347_rgbf000078-resize_1/002118_2014-06-25_20-32-08_260595134347_rgbf000078-resize_1-target.png,1000,2.6460000000000004,7,2176,995,feet,jsons/v1_VE1000_randls_10_rotated.json,557865,713993,40,Man
90,314409,DepthScenes,duration_manipulation_targetAtFixation,jsons/v1_VE1000_randls_10_rotated.json,http://54.235.29.9/FacialAge/BNav_EC2/DepthDuration/v2_depth_duration_MTurk/v2_DepthDuration_HTML.html#289,289,2558,1285,5120,1440,8-30-2022,10-39-32,91,depth_duration_stimuli/001032_2014-06-08_13-23-17_260595134347_rgbf000021-resize_3/001032_2014-06-08_13-23-17_260595134347_rgbf000021-resize_3-target.png,1000,3.2725,7,2299,999,feet,jsons/v1_VE1000_randls_10_rotated.json,557865,713993,40,Man
91,314409,DepthScenes,duration_manipulation_targetAtFixation,jsons/v1_VE1000_randls_10_rotated.json,http://54.235.29.9/FacialAge/BNav_EC2/DepthDuration/v2_depth_duration_MTurk/v2_DepthDuration_HTML.html#289,289,2558,1285,5120,1440,8-30-2022,10-39-32,92,depth_duration_stimuli/001059_2014-06-08_21-53-27_260595134347_rgbf000061-resize_4/001059_2014-06-08_21-53-27_260595134347_rgbf000061-resize_4-target.png,1000,2.4185,6,2157,992,feet,jsons/v1_VE1000_randls_10_rotated.json,557865,713993,40,Man
92,314409,DepthScenes,duration_manipulation_targetAtFixation,jsons/v1_VE1000_randls_10_rotated.json,http://54.235.29.9/FacialAge/BNav_EC2/DepthDuration/v2_depth_duration_MTurk/v2_DepthDuration_HTML.html#289,289,2558,1285,5120,1440,8-30-2022,10-39-32,93,depth_duration_stimuli/001052_2014-06-08_18-24-54_260595134347_rgbf000130-resize_1/001052_2014-06-08_18-24-54_260595134347_rgbf000130-resize_1-target.png,1000,4.1045,8,3001,1015,feet,jsons/v1_VE1000_randls_10_rotated.json,557865,713993,40,Man
93,314409,DepthScenes,duration_manipulation_targetAtFixation,jsons/v1_VE1000_randls_10_rotated.json,http://54.235.29.9/FacialAge/BNav_EC2/DepthDuration/v2_depth_duration_MTurk/v2_DepthDuration_HTML.html#289,289,2558,1285,5120,1440,8-30-2022,10-39-32,94,depth_duration_stimuli/002988_2014-06-15_12-24-20_094959634447_rgbf000150-resize_1/002988_2014-06-15_12-24-20_094959634447_rgbf000150-resize_1-target.png,1000,4.7669999999999995,10,2208,998,feet,jsons/v1_VE1000_randls_10_rotated.json,557865,713993,40,Man
94,314409,DepthScenes,duration_manipulation_targetAtFixation,jsons/v1_VE1000_randls_10_rotated.json,http://54.235.29.9/FacialAge/BNav_EC2/DepthDuration/v2_depth_duration_MTurk/v2_DepthDuration_HTML.html#289,289,2558,1285,5120,1440,8-30-2022,10-39-32,95,depth_duration_stimuli/001617_2014-06-20_11-35-32_260595134347_rgbf000066-resize_1/001617_2014-06-20_11-35-32_260595134347_rgbf000066-resize_1-target.png,1000,3.7910000000000004,12,2520,994,feet,jsons/v1_VE1000_randls_10_rotated.json,557865,713993,40,Man
95,314409,DepthScenes,duration_manipulation_targetAtFixation,jsons/v1_VE1000_randls_10_rotated.json,http://54.235.29.9/FacialAge/BNav_EC2/DepthDuration/v2_depth_duration_MTurk/v2_DepthDuration_HTML.html#289,289,2558,1285,5120,1440,8-30-2022,10-39-32,96,depth_duration_stimuli/001806_2014-06-26_20-50-20_260595134347_rgbf000091-resize_1/001806_2014-06-26_20-50-20_260595134347_rgbf000091-resize_1-target.png,1000,2.7305,6,2496,1001,feet,jsons/v1_VE1000_randls_10_rotated.json,557865,713993,40,Man
96,314409,DepthScenes,duration_manipulation_targetAtFixation,jsons/v1_VE1000_randls_10_rotated.json,http://54.235.29.9/FacialAge/BNav_EC2/DepthDuration/v2_depth_duration_MTurk/v2_DepthDuration_HTML.html#289,289,2558,1285,5120,1440,8-30-2022,10-39-32,97,depth_duration_stimuli/002414_2014-06-28_20-24-58_260595134347_rgbf000067-resize_4/002414_2014-06-28_20-24-58_260595134347_rgbf000067-resize_4-target.png,1000,4.363,12,2750,1006,feet,jsons/v1_VE1000_randls_10_rotated.json,557865,713993,40,Man
97,314409,DepthScenes,duration_manipulation_targetAtFixation,jsons/v1_VE1000_randls_10_rotated.json,http://54.235.29.9/FacialAge/BNav_EC2/DepthDuration/v2_depth_duration_MTurk/v2_DepthDuration_HTML.html#289,289,2558,1285,5120,1440,8-30-2022,10-39-32,98,depth_duration_stimuli/000773_2014-06-08_22-24-54_260595134347_rgbf000093-resize_1/000773_2014-06-08_22-24-54_260595134347_rgbf000093-resize_1-target.png,1000,4.973,12,2496,987,feet,jsons/v1_VE1000_randls_10_rotated.json,557865,713993,40,Man
98,314409,DepthScenes,duration_manipulation_targetAtFixation,jsons/v1_VE1000_randls_10_rotated.json,http://54.235.29.9/FacialAge/BNav_EC2/DepthDuration/v2_depth_duration_MTurk/v2_DepthDuration_HTML.html#289,289,2558,1285,5120,1440,8-30-2022,10-39-32,99,depth_duration_stimuli/001222_2014-06-17_16-24-06_260595134347_rgbf000073-resize_0/001222_2014-06-17_16-24-06_260595134347_rgbf000073-resize-original.jpg,1000,1.4385,0,2128,1004,feet,jsons/v1_VE1000_randls_10_rotated.json,557865,713993,40,Man
99,314409,DepthScenes,duration_manipulation_targetAtFixation,jsons/v1_VE1000_randls_10_rotated.json,http://54.235.29.9/FacialAge/BNav_EC2/DepthDuration/v2_depth_duration_MTurk/v2_DepthDuration_HTML.html#289,289,2558,1285,5120,1440,8-30-2022,10-39-32,100,depth_duration_stimuli/000556_2014-06-09_22-42-56_260595134347_rgbf000214-resize_1/000556_2014-06-09_22-42-56_260595134347_rgbf000214-resize_1-target.png,1000,4.8415,10,2164,988,feet,jsons/v1_VE1000_randls_10_rotated.json,557865,713993,40,Man
100,314409,DepthScenes,duration_manipulation_targetAtFixation,jsons/v1_VE1000_randls_10_rotated.json,http://54.235.29.9/FacialAge/BNav_EC2/DepthDuration/v2_depth_duration_MTurk/v2_DepthDuration_HTML.html#289,289,2558,1285,5120,1440,8-30-2022,10-39-32,101,depth_duration_stimuli/001158_2014-06-17_15-32-16_260595134347_rgbf000138-resize_2/001158_2014-06-17_15-32-16_260595134347_rgbf000138-resize_2-target.png,1000,4.5315,14,2795,992,feet,jsons/v1_VE1000_randls_10_rotated.json,557865,713993,40,Man
101,314409,DepthScenes,duration_manipulation_targetAtFixation,jsons/v1_VE1000_randls_10_rotated.json,http://54.235.29.9/FacialAge/BNav_EC2/DepthDuration/v2_depth_duration_MTurk/v2_DepthDuration_HTML.html#289,289,2558,1285,5120,1440,8-30-2022,10-39-32,102,depth_duration_stimuli/000691_2014-06-08_13-08-50_260595134347_rgbf000132-resize_3/000691_2014-06-08_13-08-50_260595134347_rgbf000132-resize_3-target.png,1000,4.1530000000000005,10,3495,999,feet,jsons/v1_VE1000_randls_10_rotated.json,557865,713993,40,Man
102,314409,DepthScenes,duration_manipulation_targetAtFixation,jsons/v1_VE1000_randls_10_rotated.json,http://54.235.29.9/FacialAge/BNav_EC2/DepthDuration/v2_depth_duration_MTurk/v2_DepthDuration_HTML.html#289,289,2558,1285,5120,1440,8-30-2022,10-39-32,103,depth_duration_stimuli/002213_2014-06-28_18-37-58_260595134347_rgbf000055-resize_1/002213_2014-06-28_18-37-58_260595134347_rgbf000055-resize_1-target.png,1000,3.62,10,2834,999,feet,jsons/v1_VE1000_randls_10_rotated.json,557865,713993,40,Man
103,314409,DepthScenes,duration_manipulation_targetAtFixation,jsons/v1_VE1000_randls_10_rotated.json,http://54.235.29.9/FacialAge/BNav_EC2/DepthDuration/v2_depth_duration_MTurk/v2_DepthDuration_HTML.html#289,289,2558,1285,5120,1440,8-30-2022,10-39-32,104,depth_duration_stimuli/002953_2014-06-08_17-32-18_094959634447_rgbf000059-resize_5/002953_2014-06-08_17-32-18_094959634447_rgbf000059-resize_5-target.png,1000,1.551,4,2784,1001,feet,jsons/v1_VE1000_randls_10_rotated.json,557865,713993,40,Man
104,314409,DepthScenes,duration_manipulation_targetAtFixation,jsons/v1_VE1000_randls_10_rotated.json,http://54.235.29.9/FacialAge/BNav_EC2/DepthDuration/v2_depth_duration_MTurk/v2_DepthDuration_HTML.html#289,289,2558,1285,5120,1440,8-30-2022,10-39-32,105,depth_duration_stimuli/000878_2014-06-08_22-52-45_260595134347_rgbf000045-resize_2/000878_2014-06-08_22-52-45_260595134347_rgbf000045-resize_2-target.png,1000,2.092,6,2146,994,feet,jsons/v1_VE1000_randls_10_rotated.json,557865,713993,40,Man
105,314409,DepthScenes,duration_manipulation_targetAtFixation,jsons/v1_VE1000_randls_10_rotated.json,http://54.235.29.9/FacialAge/BNav_EC2/DepthDuration/v2_depth_duration_MTurk/v2_DepthDuration_HTML.html#289,289,2558,1285,5120,1440,8-30-2022,10-39-32,106,depth_duration_stimuli/002444_2014-06-28_20-32-08_260595134347_rgbf000027-resize_0/002444_2014-06-28_20-32-08_260595134347_rgbf000027-resize_0-target.png,1000,4.388999999999999,8,2053,999,feet,jsons/v1_VE1000_randls_10_rotated.json,557865,713993,40,Man
106,314409,DepthScenes,duration_manipulation_targetAtFixation,jsons/v1_VE1000_randls_10_rotated.json,http://54.235.29.9/FacialAge/BNav_EC2/DepthDuration/v2_depth_duration_MTurk/v2_DepthDuration_HTML.html#289,289,2558,1285,5120,1440,8-30-2022,10-39-32,107,depth_duration_stimuli/000436_2014-06-09_22-25-11_260595134347_rgbf000137-resize_1/000436_2014-06-09_22-25-11_260595134347_rgbf000137-resize_1-target.png,1000,4.0705,10,2165,999,feet,jsons/v1_VE1000_randls_10_rotated.json,557865,713993,40,Man
107,314409,DepthScenes,duration_manipulation_targetAtFixation,jsons/v1_VE1000_randls_10_rotated.json,http://54.235.29.9/FacialAge/BNav_EC2/DepthDuration/v2_depth_duration_MTurk/v2_DepthDuration_HTML.html#289,289,2558,1285,5120,1440,8-30-2022,10-39-32,108,depth_duration_stimuli/000749_2014-06-08_21-55-06_260595134347_rgbf000070-resize_2/000749_2014-06-08_21-55-06_260595134347_rgbf000070-resize_2-target.png,1000,2.331,8,5202,1011,feet,jsons/v1_VE1000_randls_10_rotated.json,557865,713993,40,Man
108,314409,DepthScenes,duration_manipulation_targetAtFixation,jsons/v1_VE1000_randls_10_rotated.json,http://54.235.29.9/FacialAge/BNav_EC2/DepthDuration/v2_depth_duration_MTurk/v2_DepthDuration_HTML.html#289,289,2558,1285,5120,1440,8-30-2022,10-39-32,109,depth_duration_stimuli/002788_2014-06-22_19-36-03_094959634447_rgbf000088-resize_2/002788_2014-06-22_19-36-03_094959634447_rgbf000088-resize_2-target.png,1000,1.6465,8,3906,999,feet,jsons/v1_VE1000_randls_10_rotated.json,557865,713993,40,Man
109,314409,DepthScenes,duration_manipulation_targetAtFixation,jsons/v1_VE1000_randls_10_rotated.json,http://54.235.29.9/FacialAge/BNav_EC2/DepthDuration/v2_depth_duration_MTurk/v2_DepthDuration_HTML.html#289,289,2558,1285,5120,1440,8-30-2022,10-39-32,110,depth_duration_stimuli/000409_2014-06-04_19-23-33_260595134347_rgbf000067-resize_0/000409_2014-06-04_19-23-33_260595134347_rgbf000067-resize_0-target.png,1000,3.7335,8,21383,999,feet,jsons/v1_VE1000_randls_10_rotated.json,557865,713993,40,Man
110,314409,DepthScenes,duration_manipulation_targetAtFixation,jsons/v1_VE1000_randls_10_rotated.json,http://54.235.29.9/FacialAge/BNav_EC2/DepthDuration/v2_depth_duration_MTurk/v2_DepthDuration_HTML.html#289,289,2558,1285,5120,1440,8-30-2022,10-39-32,111,depth_duration_stimuli/002663_2014-06-13_15-50-26_094959634447_rgbf000075-resize_1/002663_2014-06-13_15-50-26_094959634447_rgbf000075-resize_1-target.png,1000,4.7495,12,2542,989,feet,jsons/v1_VE1000_randls_10_rotated.json,557865,713993,40,Man
111,314409,DepthScenes,duration_manipulation_targetAtFixation,jsons/v1_VE1000_randls_10_rotated.json,http://54.235.29.9/FacialAge/BNav_EC2/DepthDuration/v2_depth_duration_MTurk/v2_DepthDuration_HTML.html#289,289,2558,1285,5120,1440,8-30-2022,10-39-32,112,depth_duration_stimuli/001450_2014-06-19_17-02-03_260595134347_rgbf000203-resize_4/001450_2014-06-19_17-02-03_260595134347_rgbf000203-resize_4-target.png,1000,4.0106666666667,14,2586,996,feet,jsons/v1_VE1000_randls_10_rotated.json,557865,713993,40,Man
112,314409,DepthScenes,duration_manipulation_targetAtFixation,jsons/v1_VE1000_randls_10_rotated.json,http://54.235.29.9/FacialAge/BNav_EC2/DepthDuration/v2_depth_duration_MTurk/v2_DepthDuration_HTML.html#289,289,2558,1285,5120,1440,8-30-2022,10-39-32,113,depth_duration_stimuli/001449_2014-06-19_17-01-27_260595134347_rgbf000116-resize_2/001449_2014-06-19_17-01-27_260595134347_rgbf000116-resize_2-target.png,1000,3.452,8,2330,999,feet,jsons/v1_VE1000_randls_10_rotated.json,557865,713993,40,Man
113,314409,DepthScenes,duration_manipulation_targetAtFixation,jsons/v1_VE1000_randls_10_rotated.json,http://54.235.29.9/FacialAge/BNav_EC2/DepthDuration/v2_depth_duration_MTurk/v2_DepthDuration_HTML.html#289,289,2558,1285,5120,1440,8-30-2022,10-39-32,114,depth_duration_stimuli/002199_2014-06-28_18-33-56_260595134347_rgbf000074-resize_0/002199_2014-06-28_18-33-56_260595134347_rgbf000074-resize_0-target.png,1000,1.996,3,2220,992,feet,jsons/v1_VE1000_randls_10_rotated.json,557865,713993,40,Man
114,314409,DepthScenes,duration_manipulation_targetAtFixation,jsons/v1_VE1000_randls_10_rotated.json,http://54.235.29.9/FacialAge/BNav_EC2/DepthDuration/v2_depth_duration_MTurk/v2_DepthDuration_HTML.html#289,289,2558,1285,5120,1440,8-30-2022,10-39-32,115,depth_duration_stimuli/001056_2014-06-08_18-46-44_260595134347_rgbf000068-resize_0/001056_2014-06-08_18-46-44_260595134347_rgbf000068-resize_0-target.png,1000,2.6625,6,2749,1009,feet,jsons/v1_VE1000_randls_10_rotated.json,557865,713993,40,Man
115,314409,DepthScenes,duration_manipulation_targetAtFixation,jsons/v1_VE1000_randls_10_rotated.json,http://54.235.29.9/FacialAge/BNav_EC2/DepthDuration/v2_depth_duration_MTurk/v2_DepthDuration_HTML.html#289,289,2558,1285,5120,1440,8-30-2022,10-39-32,116,depth_duration_stimuli/000191_2014-05-12_17-07-38_260595134347_rgbf000199-resize_0/000191_2014-05-12_17-07-38_260595134347_rgbf000199-resize_0-target.png,1000,3.7995,10,2476,995,feet,jsons/v1_VE1000_randls_10_rotated.json,557865,713993,40,Man
116,314409,DepthScenes,duration_manipulation_targetAtFixation,jsons/v1_VE1000_randls_10_rotated.json,http://54.235.29.9/FacialAge/BNav_EC2/DepthDuration/v2_depth_duration_MTurk/v2_DepthDuration_HTML.html#289,289,2558,1285,5120,1440,8-30-2022,10-39-32,117,depth_duration_stimuli/000493_2014-06-09_21-01-18_260595134347_rgbf000196-resize_3/000493_2014-06-09_21-01-18_260595134347_rgbf000196-resize_3-target.png,1000,3.44,10,3827,1009,feet,jsons/v1_VE1000_randls_10_rotated.json,557865,713993,40,Man
117,314409,DepthScenes,duration_manipulation_targetAtFixation,jsons/v1_VE1000_randls_10_rotated.json,http://54.235.29.9/FacialAge/BNav_EC2/DepthDuration/v2_depth_duration_MTurk/v2_DepthDuration_HTML.html#289,289,2558,1285,5120,1440,8-30-2022,10-39-32,118,depth_duration_stimuli/002637_2014-06-24_14-51-13_094959634447_rgbf000066-resize_4/002637_2014-06-24_14-51-13_094959634447_rgbf000066-resize_4-target.png,1000,1.9955,7,2784,998,feet,jsons/v1_VE1000_randls_10_rotated.json,557865,713993,40,Man
118,314409,DepthScenes,duration_manipulation_targetAtFixation,jsons/v1_VE1000_randls_10_rotated.json,http://54.235.29.9/FacialAge/BNav_EC2/DepthDuration/v2_depth_duration_MTurk/v2_DepthDuration_HTML.html#289,289,2558,1285,5120,1440,8-30-2022,10-39-32,119,depth_duration_stimuli/003534_2014-05-22_15-06-10_094959634447_rgbf000102-resize_4/003534_2014-05-22_15-06-10_094959634447_rgbf000102-resize_4-target.png,1000,1.426,3,2237,1004,feet,jsons/v1_VE1000_randls_10_rotated.json,557865,713993,40,Man
119,314409,DepthScenes,duration_manipulation_targetAtFixation,jsons/v1_VE1000_randls_10_rotated.json,http://54.235.29.9/FacialAge/BNav_EC2/DepthDuration/v2_depth_duration_MTurk/v2_DepthDuration_HTML.html#289,289,2558,1285,5120,1440,8-30-2022,10-39-32,120,depth_duration_stimuli/000787_2014-06-08_22-33-53_260595134347_rgbf000175-resize_1/000787_2014-06-08_22-33-53_260595134347_rgbf000175-resize-original.jpg,1000,4.784,0,2320,998,feet,jsons/v1_VE1000_randls_10_rotated.json,557865,713993,40,Man
120,314409,DepthScenes,duration_manipulation_targetAtFixation,jsons/v1_VE1000_randls_10_rotated.json,http://54.235.29.9/FacialAge/BNav_EC2/DepthDuration/v2_depth_duration_MTurk/v2_DepthDuration_HTML.html#289,289,2558,1285,5120,1440,8-30-2022,10-39-32,121,depth_duration_stimuli/001094_2014-06-15_17-36-00_260595134347_rgbf000205-resize_0/001094_2014-06-15_17-36-00_260595134347_rgbf000205-resize_0-target.png,1000,4.2175,16,2982,998,feet,jsons/v1_VE1000_randls_10_rotated.json,557865,713993,40,Man
121,314409,DepthScenes,duration_manipulation_targetAtFixation,jsons/v1_VE1000_randls_10_rotated.json,http://54.235.29.9/FacialAge/BNav_EC2/DepthDuration/v2_depth_duration_MTurk/v2_DepthDuration_HTML.html#289,289,2558,1285,5120,1440,8-30-2022,10-39-32,122,depth_duration_stimuli/000692_2014-06-08_13-09-42_260595134347_rgbf000199-resize_2/000692_2014-06-08_13-09-42_260595134347_rgbf000199-resize_2-target.png,1000,3.661,12,2571,998,feet,jsons/v1_VE1000_randls_10_rotated.json,557865,713993,40,Man
122,314409,DepthScenes,duration_manipulation_targetAtFixation,jsons/v1_VE1000_randls_10_rotated.json,http://54.235.29.9/FacialAge/BNav_EC2/DepthDuration/v2_depth_duration_MTurk/v2_DepthDuration_HTML.html#289,289,2558,1285,5120,1440,8-30-2022,10-39-32,123,depth_duration_stimuli/001214_2014-06-17_16-13-55_260595134347_rgbf000111-resize_0/001214_2014-06-17_16-13-55_260595134347_rgbf000111-resize_0-target.png,1000,2.6505,8,3097,996,feet,jsons/v1_VE1000_randls_10_rotated.json,557865,713993,40,Man
123,314409,DepthScenes,duration_manipulation_targetAtFixation,jsons/v1_VE1000_randls_10_rotated.json,http://54.235.29.9/FacialAge/BNav_EC2/DepthDuration/v2_depth_duration_MTurk/v2_DepthDuration_HTML.html#289,289,2558,1285,5120,1440,8-30-2022,10-39-32,124,depth_duration_stimuli/000810_2014-06-08_17-20-01_260595134347_rgbf000105-resize_0/000810_2014-06-08_17-20-01_260595134347_rgbf000105-resize_0-target.png,1000,1.4865,6,2298,987,feet,jsons/v1_VE1000_randls_10_rotated.json,557865,713993,40,Man
124,314409,DepthScenes,duration_manipulation_targetAtFixation,jsons/v1_VE1000_randls_10_rotated.json,http://54.235.29.9/FacialAge/BNav_EC2/DepthDuration/v2_depth_duration_MTurk/v2_DepthDuration_HTML.html#289,289,2558,1285,5120,1440,8-30-2022,10-39-32,125,depth_duration_stimuli/003083_2014-06-15_15-21-03_094959634447_rgbf000063-resize_1/003083_2014-06-15_15-21-03_094959634447_rgbf000063-resize_1-target.png,1000,4.1405,12,2940,1000,feet,jsons/v1_VE1000_randls_10_rotated.json,557865,713993,40,Man
125,314409,DepthScenes,duration_manipulation_targetAtFixation,jsons/v1_VE1000_randls_10_rotated.json,http://54.235.29.9/FacialAge/BNav_EC2/DepthDuration/v2_depth_duration_MTurk/v2_DepthDuration_HTML.html#289,289,2558,1285,5120,1440,8-30-2022,10-39-32,126,depth_duration_stimuli/000486_2014-06-09_20-47-20_260595134347_rgbf000143-resize_2/000486_2014-06-09_20-47-20_260595134347_rgbf000143-resize_2-target.png,1000,4.8325,14,3113,1000,feet,jsons/v1_VE1000_randls_10_rotated.json,557865,713993,40,Man
126,314409,DepthScenes,duration_manipulation_targetAtFixation,jsons/v1_VE1000_randls_10_rotated.json,http://54.235.29.9/FacialAge/BNav_EC2/DepthDuration/v2_depth_duration_MTurk/v2_DepthDuration_HTML.html#289,289,2558,1285,5120,1440,8-30-2022,10-39-32,127,depth_duration_stimuli/003587_2014-05-23_16-48-02_094959634447_rgbf002384-resize_2/003587_2014-05-23_16-48-02_094959634447_rgbf002384-resize_2-target.png,1000,1.357,2,2734,990,feet,jsons/v1_VE1000_randls_10_rotated.json,557865,713993,40,Man
127,314409,DepthScenes,duration_manipulation_targetAtFixation,jsons/v1_VE1000_randls_10_rotated.json,http://54.235.29.9/FacialAge/BNav_EC2/DepthDuration/v2_depth_duration_MTurk/v2_DepthDuration_HTML.html#289,289,2558,1285,5120,1440,8-30-2022,10-39-32,128,depth_duration_stimuli/001167_2014-06-17_15-38-07_260595134347_rgbf000108-resize_0/001167_2014-06-17_15-38-07_260595134347_rgbf000108-resize_0-target.png,1000,1.8505,3,2324,1000,feet,jsons/v1_VE1000_randls_10_rotated.json,557865,713993,40,Man
128,314409,DepthScenes,duration_manipulation_targetAtFixation,jsons/v1_VE1000_randls_10_rotated.json,http://54.235.29.9/FacialAge/BNav_EC2/DepthDuration/v2_depth_duration_MTurk/v2_DepthDuration_HTML.html#289,289,2558,1285,5120,1440,8-30-2022,10-39-32,129,depth_duration_stimuli/001392_2014-06-19_16-07-59_260595134347_rgbf000046-resize_1/001392_2014-06-19_16-07-59_260595134347_rgbf000046-resize_1-target.png,1000,4.135,10,2457,999,feet,jsons/v1_VE1000_randls_10_rotated.json,557865,713993,40,Man
129,314409,DepthScenes,duration_manipulation_targetAtFixation,jsons/v1_VE1000_randls_10_rotated.json,http://54.235.29.9/FacialAge/BNav_EC2/DepthDuration/v2_depth_duration_MTurk/v2_DepthDuration_HTML.html#289,289,2558,1285,5120,1440,8-30-2022,10-39-32,130,depth_duration_stimuli/001570_2014-06-20_17-21-09_260595134347_rgbf000135-resize_4/001570_2014-06-20_17-21-09_260595134347_rgbf000135-resize_4-target.png,1000,4.467,12,2806,999,feet,jsons/v1_VE1000_randls_10_rotated.json,557865,713993,40,Man
130,314409,DepthScenes,duration_manipulation_targetAtFixation,jsons/v1_VE1000_randls_10_rotated.json,http://54.235.29.9/FacialAge/BNav_EC2/DepthDuration/v2_depth_duration_MTurk/v2_DepthDuration_HTML.html#289,289,2558,1285,5120,1440,8-30-2022,10-39-32,131,depth_duration_stimuli/002678_2014-06-13_16-15-32_094959634447_rgbf000151-resize_6/002678_2014-06-13_16-15-32_094959634447_rgbf000151-resize_6-target.png,1000,2.1830000000000003,8,3004,1006,feet,jsons/v1_VE1000_randls_10_rotated.json,557865,713993,40,Man
131,314409,DepthScenes,duration_manipulation_targetAtFixation,jsons/v1_VE1000_randls_10_rotated.json,http://54.235.29.9/FacialAge/BNav_EC2/DepthDuration/v2_depth_duration_MTurk/v2_DepthDuration_HTML.html#289,289,2558,1285,5120,1440,8-30-2022,10-39-32,132,depth_duration_stimuli/000368_2014-06-09_15-53-01_260595134347_rgbf000155-resize_2/000368_2014-06-09_15-53-01_260595134347_rgbf000155-resize_2-target.png,1000,2.4859999999999998,6,2571,1003,feet,jsons/v1_VE1000_randls_10_rotated.json,557865,713993,40,Man
132,314409,DepthScenes,duration_manipulation_targetAtFixation,jsons/v1_VE1000_randls_10_rotated.json,http://54.235.29.9/FacialAge/BNav_EC2/DepthDuration/v2_depth_duration_MTurk/v2_DepthDuration_HTML.html#289,289,2558,1285,5120,1440,8-30-2022,10-39-32,133,depth_duration_stimuli/002639_2014-06-24_14-51-37_094959634447_rgbf000074-resize_4/002639_2014-06-24_14-51-37_094959634447_rgbf000074-resize_4-target.png,1000,4.0375,12,2513,999,feet,jsons/v1_VE1000_randls_10_rotated.json,557865,713993,40,Man
133,314409,DepthScenes,duration_manipulation_targetAtFixation,jsons/v1_VE1000_randls_10_rotated.json,http://54.235.29.9/FacialAge/BNav_EC2/DepthDuration/v2_depth_duration_MTurk/v2_DepthDuration_HTML.html#289,289,2558,1285,5120,1440,8-30-2022,10-39-32,134,depth_duration_stimuli/003292_2014-05-14_21-53-49_094959634447_rgbf000100-resize_2/003292_2014-05-14_21-53-49_094959634447_rgbf000100-resize_2-target.png,1000,3.4815,8,2466,996,feet,jsons/v1_VE1000_randls_10_rotated.json,557865,713993,40,Man
134,314409,DepthScenes,duration_manipulation_targetAtFixation,jsons/v1_VE1000_randls_10_rotated.json,http://54.235.29.9/FacialAge/BNav_EC2/DepthDuration/v2_depth_duration_MTurk/v2_DepthDuration_HTML.html#289,289,2558,1285,5120,1440,8-30-2022,10-39-32,135,depth_duration_stimuli/000375_2014-06-08_11-17-29_260595134347_rgbf000133-resize_2/000375_2014-06-08_11-17-29_260595134347_rgbf000133-resize-original.jpg,1000,4.718,0,2581,1008,feet,jsons/v1_VE1000_randls_10_rotated.json,557865,713993,40,Man
135,314409,DepthScenes,duration_manipulation_targetAtFixation,jsons/v1_VE1000_randls_10_rotated.json,http://54.235.29.9/FacialAge/BNav_EC2/DepthDuration/v2_depth_duration_MTurk/v2_DepthDuration_HTML.html#289,289,2558,1285,5120,1440,8-30-2022,10-39-32,136,depth_duration_stimuli/000927_2014-06-09_16-32-30_260595134347_rgbf000123-resize_3/000927_2014-06-09_16-32-30_260595134347_rgbf000123-resize_3-target.png,1000,2.6785,8,2384,991,feet,jsons/v1_VE1000_randls_10_rotated.json,557865,713993,40,Man
136,314409,DepthScenes,duration_manipulation_targetAtFixation,jsons/v1_VE1000_randls_10_rotated.json,http://54.235.29.9/FacialAge/BNav_EC2/DepthDuration/v2_depth_duration_MTurk/v2_DepthDuration_HTML.html#289,289,2558,1285,5120,1440,8-30-2022,10-39-32,137,depth_duration_stimuli/001110_2014-06-15_17-25-28_260595134347_rgbf000150-resize_1/001110_2014-06-15_17-25-28_260595134347_rgbf000150-resize_1-target.png,1000,1.7115,6,2359,986,feet,jsons/v1_VE1000_randls_10_rotated.json,557865,713993,40,Man
137,314409,DepthScenes,duration_manipulation_targetAtFixation,jsons/v1_VE1000_randls_10_rotated.json,http://54.235.29.9/FacialAge/BNav_EC2/DepthDuration/v2_depth_duration_MTurk/v2_DepthDuration_HTML.html#289,289,2558,1285,5120,1440,8-30-2022,10-39-32,138,depth_duration_stimuli/000103_2014-05-14_22-01-17_260595134347_rgbf000152-resize_5/000103_2014-05-14_22-01-17_260595134347_rgbf000152-resize_5-target.png,1000,1.993,8,2230,986,feet,jsons/v1_VE1000_randls_10_rotated.json,557865,713993,40,Man
138,314409,DepthScenes,duration_manipulation_targetAtFixation,jsons/v1_VE1000_randls_10_rotated.json,http://54.235.29.9/FacialAge/BNav_EC2/DepthDuration/v2_depth_duration_MTurk/v2_DepthDuration_HTML.html#289,289,2558,1285,5120,1440,8-30-2022,10-39-32,139,depth_duration_stimuli/001555_2014-06-20_17-12-10_260595134347_rgbf000065-resize_4/001555_2014-06-20_17-12-10_260595134347_rgbf000065-resize_4-target.png,1000,1.633,3,2220,1015,feet,jsons/v1_VE1000_randls_10_rotated.json,557865,713993,40,Man
139,314409,DepthScenes,duration_manipulation_targetAtFixation,jsons/v1_VE1000_randls_10_rotated.json,http://54.235.29.9/FacialAge/BNav_EC2/DepthDuration/v2_depth_duration_MTurk/v2_DepthDuration_HTML.html#289,289,2558,1285,5120,1440,8-30-2022,10-39-32,140,depth_duration_stimuli/000109_2014-05-14_23-41-52_260595134347_rgbf000035-resize_9/000109_2014-05-14_23-41-52_260595134347_rgbf000035-resize_9-target.png,1000,1.3545,3,2589,1010,feet,jsons/v1_VE1000_randls_10_rotated.json,557865,713993,40,Man
140,314409,DepthScenes,duration_manipulation_targetAtFixation,jsons/v1_VE1000_randls_10_rotated.json,http://54.235.29.9/FacialAge/BNav_EC2/DepthDuration/v2_depth_duration_MTurk/v2_DepthDuration_HTML.html#289,289,2558,1285,5120,1440,8-30-2022,10-39-32,141,depth_duration_stimuli/000470_2014-06-09_19-42-40_260595134347_rgbf000094-resize_1/000470_2014-06-09_19-42-40_260595134347_rgbf000094-resize_1-target.png,1000,1.831,4,2416,1000,feet,jsons/v1_VE1000_randls_10_rotated.json,557865,713993,40,Man
141,314409,DepthScenes,duration_manipulation_targetAtFixation,jsons/v1_VE1000_randls_10_rotated.json,http://54.235.29.9/FacialAge/BNav_EC2/DepthDuration/v2_depth_duration_MTurk/v2_DepthDuration_HTML.html#289,289,2558,1285,5120,1440,8-30-2022,10-39-32,142,depth_duration_stimuli/001100_2014-06-15_17-46-26_260595134347_rgbf000225-resize_2/001100_2014-06-15_17-46-26_260595134347_rgbf000225-resize_2-target.png,1000,2.24,3,2262,1012,feet,jsons/v1_VE1000_randls_10_rotated.json,557865,713993,40,Man
142,314409,DepthScenes,duration_manipulation_targetAtFixation,jsons/v1_VE1000_randls_10_rotated.json,http://54.235.29.9/FacialAge/BNav_EC2/DepthDuration/v2_depth_duration_MTurk/v2_DepthDuration_HTML.html#289,289,2558,1285,5120,1440,8-30-2022,10-39-32,143,depth_duration_stimuli/002784_2014-06-22_19-26-30_094959634447_rgbf000083-resize_3/002784_2014-06-22_19-26-30_094959634447_rgbf000083-resize_3-target.png,1000,1.8046666666667,4,2205,999,feet,jsons/v1_VE1000_randls_10_rotated.json,557865,713993,40,Man
143,314409,DepthScenes,duration_manipulation_targetAtFixation,jsons/v1_VE1000_randls_10_rotated.json,http://54.235.29.9/FacialAge/BNav_EC2/DepthDuration/v2_depth_duration_MTurk/v2_DepthDuration_HTML.html#289,289,2558,1285,5120,1440,8-30-2022,10-39-32,144,depth_duration_stimuli/002425_2014-06-28_20-27-29_260595134347_rgbf000031-resize_8/002425_2014-06-28_20-27-29_260595134347_rgbf000031-resize_8-target.png,1000,3.8960000000000004,10,2206,997,feet,jsons/v1_VE1000_randls_10_rotated.json,557865,713993,40,Man
144,314409,DepthScenes,duration_manipulation_targetAtFixation,jsons/v1_VE1000_randls_10_rotated.json,http://54.235.29.9/FacialAge/BNav_EC2/DepthDuration/v2_depth_duration_MTurk/v2_DepthDuration_HTML.html#289,289,2558,1285,5120,1440,8-30-2022,10-39-32,145,depth_duration_stimuli/000642_2014-06-08_16-59-25_260595134347_rgbf000098-resize_2/000642_2014-06-08_16-59-25_260595134347_rgbf000098-resize_2-target.png,1000,2.8815,6,2272,997,feet,jsons/v1_VE1000_randls_10_rotated.json,557865,713993,40,Man
145,314409,DepthScenes,duration_manipulation_targetAtFixation,jsons/v1_VE1000_randls_10_rotated.json,http://54.235.29.9/FacialAge/BNav_EC2/DepthDuration/v2_depth_duration_MTurk/v2_DepthDuration_HTML.html#289,289,2558,1285,5120,1440,8-30-2022,10-39-32,146,depth_duration_stimuli/003081_2014-06-15_15-19-16_094959634447_rgbf000150-resize_1/003081_2014-06-15_15-19-16_094959634447_rgbf000150-resize_1-target.png,1000,3.9125,10,3117,998,feet,jsons/v1_VE1000_randls_10_rotated.json,557865,713993,40,Man
146,314409,DepthScenes,duration_manipulation_targetAtFixation,jsons/v1_VE1000_randls_10_rotated.json,http://54.235.29.9/FacialAge/BNav_EC2/DepthDuration/v2_depth_duration_MTurk/v2_DepthDuration_HTML.html#289,289,2558,1285,5120,1440,8-30-2022,10-39-32,147,depth_duration_stimuli/001417_2014-06-19_16-25-36_260595134347_rgbf000115-resize_5/001417_2014-06-19_16-25-36_260595134347_rgbf000115-resize_5-target.png,1000,4.6255,8,3959,1000,feet,jsons/v1_VE1000_randls_10_rotated.json,557865,713993,40,Man
147,314409,DepthScenes,duration_manipulation_targetAtFixation,jsons/v1_VE1000_randls_10_rotated.json,http://54.235.29.9/FacialAge/BNav_EC2/DepthDuration/v2_depth_duration_MTurk/v2_DepthDuration_HTML.html#289,289,2558,1285,5120,1440,8-30-2022,10-39-32,148,depth_duration_stimuli/000742_2014-06-08_18-48-09_260595134347_rgbf000164-resize_4/000742_2014-06-08_18-48-09_260595134347_rgbf000164-resize_4-target.png,1000,4.632,10,3383,996,feet,jsons/v1_VE1000_randls_10_rotated.json,557865,713993,40,Man
148,314409,DepthScenes,duration_manipulation_targetAtFixation,jsons/v1_VE1000_randls_10_rotated.json,http://54.235.29.9/FacialAge/BNav_EC2/DepthDuration/v2_depth_duration_MTurk/v2_DepthDuration_HTML.html#289,289,2558,1285,5120,1440,8-30-2022,10-39-32,149,depth_duration_stimuli/001066_2014-06-08_22-03-20_260595134347_rgbf000066-resize_4/001066_2014-06-08_22-03-20_260595134347_rgbf000066-resize_4-target.png,1000,4.2330000000000005,12,3054,998,feet,jsons/v1_VE1000_randls_10_rotated.json,557865,713993,40,Man
149,314409,DepthScenes,duration_manipulation_targetAtFixation,jsons/v1_VE1000_randls_10_rotated.json,http://54.235.29.9/FacialAge/BNav_EC2/DepthDuration/v2_depth_duration_MTurk/v2_DepthDuration_HTML.html#289,289,2558,1285,5120,1440,8-30-2022,10-39-32,150,depth_duration_stimuli/001815_2014-06-26_20-52-55_260595134347_rgbf000020-resize_0/001815_2014-06-26_20-52-55_260595134347_rgbf000020-resize_0-target.png,1000,3.3865,12,2390,997,feet,jsons/v1_VE1000_randls_10_rotated.json,557865,713993,40,Man
150,314409,DepthScenes,duration_manipulation_targetAtFixation,jsons/v1_VE1000_randls_10_rotated.json,http://54.235.29.9/FacialAge/BNav_EC2/DepthDuration/v2_depth_duration_MTurk/v2_DepthDuration_HTML.html#289,289,2558,1285,5120,1440,8-30-2022,10-39-32,151,depth_duration_stimuli/001808_2014-06-26_20-50-58_260595134347_rgbf000029-resize_1/001808_2014-06-26_20-50-58_260595134347_rgbf000029-resize_1-target.png,1000,4.249,12,2810,987,feet,jsons/v1_VE1000_randls_10_rotated.json,557865,713993,40,Man
151,314409,DepthScenes,duration_manipulation_targetAtFixation,jsons/v1_VE1000_randls_10_rotated.json,http://54.235.29.9/FacialAge/BNav_EC2/DepthDuration/v2_depth_duration_MTurk/v2_DepthDuration_HTML.html#289,289,2558,1285,5120,1440,8-30-2022,10-39-32,152,depth_duration_stimuli/000569_2014-06-09_22-51-47_260595134347_rgbf000141-resize_3/000569_2014-06-09_22-51-47_260595134347_rgbf000141-resize-original.jpg,1000,4.512,0,2103,991,feet,jsons/v1_VE1000_randls_10_rotated.json,557865,713993,40,Man
152,314409,DepthScenes,duration_manipulation_targetAtFixation,jsons/v1_VE1000_randls_10_rotated.json,http://54.235.29.9/FacialAge/BNav_EC2/DepthDuration/v2_depth_duration_MTurk/v2_DepthDuration_HTML.html#289,289,2558,1285,5120,1440,8-30-2022,10-39-32,153,depth_duration_stimuli/002657_2014-06-13_15-29-54_094959634447_rgbf000150-resize_1/002657_2014-06-13_15-29-54_094959634447_rgbf000150-resize_1-target.png,1000,4.919,8,2350,997,feet,jsons/v1_VE1000_randls_10_rotated.json,557865,713993,40,Man
153,314409,DepthScenes,duration_manipulation_targetAtFixation,jsons/v1_VE1000_randls_10_rotated.json,http://54.235.29.9/FacialAge/BNav_EC2/DepthDuration/v2_depth_duration_MTurk/v2_DepthDuration_HTML.html#289,289,2558,1285,5120,1440,8-30-2022,10-39-32,154,depth_duration_stimuli/002375_2014-06-28_20-13-44_260595134347_rgbf000032-resize_1/002375_2014-06-28_20-13-44_260595134347_rgbf000032-resize_1-target.png,1000,4.0175,8,2812,1015,feet,jsons/v1_VE1000_randls_10_rotated.json,557865,713993,40,Man
154,314409,DepthScenes,duration_manipulation_targetAtFixation,jsons/v1_VE1000_randls_10_rotated.json,http://54.235.29.9/FacialAge/BNav_EC2/DepthDuration/v2_depth_duration_MTurk/v2_DepthDuration_HTML.html#289,289,2558,1285,5120,1440,8-30-2022,10-39-32,155,depth_duration_stimuli/002136_2014-06-25_21-18-03_260595134347_rgbf000109-resize_3/002136_2014-06-25_21-18-03_260595134347_rgbf000109-resize_3-target.png,1000,1.9569999999999999,6,2293,1000,feet,jsons/v1_VE1000_randls_10_rotated.json,557865,713993,40,Man
155,314409,DepthScenes,duration_manipulation_targetAtFixation,jsons/v1_VE1000_randls_10_rotated.json,http://54.235.29.9/FacialAge/BNav_EC2/DepthDuration/v2_depth_duration_MTurk/v2_DepthDuration_HTML.html#289,289,2558,1285,5120,1440,8-30-2022,10-39-32,156,depth_duration_stimuli/002964_2014-06-08_17-46-11_094959634447_rgbf000091-resize_4/002964_2014-06-08_17-46-11_094959634447_rgbf000091-resize_4-target.png,1000,1.6909999999999998,4,2476,995,feet,jsons/v1_VE1000_randls_10_rotated.json,557865,713993,40,Man
156,314409,DepthScenes,duration_manipulation_targetAtFixation,jsons/v1_VE1000_randls_10_rotated.json,http://54.235.29.9/FacialAge/BNav_EC2/DepthDuration/v2_depth_duration_MTurk/v2_DepthDuration_HTML.html#289,289,2558,1285,5120,1440,8-30-2022,10-39-32,157,depth_duration_stimuli/000549_2014-06-08_22-10-24_260595134347_rgbf000247-resize_3/000549_2014-06-08_22-10-24_260595134347_rgbf000247-resize_3-target.png,1000,1.841,4,2442,996,feet,jsons/v1_VE1000_randls_10_rotated.json,557865,713993,40,Man
157,314409,DepthScenes,duration_manipulation_targetAtFixation,jsons/v1_VE1000_randls_10_rotated.json,http://54.235.29.9/FacialAge/BNav_EC2/DepthDuration/v2_depth_duration_MTurk/v2_DepthDuration_HTML.html#289,289,2558,1285,5120,1440,8-30-2022,10-39-32,158,depth_duration_stimuli/001055_2014-06-08_18-45-35_260595134347_rgbf000111-resize_4/001055_2014-06-08_18-45-35_260595134347_rgbf000111-resize_4-target.png,1000,2.4290000000000003,10,2413,998,feet,jsons/v1_VE1000_randls_10_rotated.json,557865,713993,40,Man
158,314409,DepthScenes,duration_manipulation_targetAtFixation,jsons/v1_VE1000_randls_10_rotated.json,http://54.235.29.9/FacialAge/BNav_EC2/DepthDuration/v2_depth_duration_MTurk/v2_DepthDuration_HTML.html#289,289,2558,1285,5120,1440,8-30-2022,10-39-32,159,depth_duration_stimuli/002949_2014-06-26_15-57-42_094959634447_rgbf000079-resize_1/002949_2014-06-26_15-57-42_094959634447_rgbf000079-resize_1-target.png,1000,1.8915,6,2471,996,feet,jsons/v1_VE1000_randls_10_rotated.json,557865,713993,40,Man
159,314409,DepthScenes,duration_manipulation_targetAtFixation,jsons/v1_VE1000_randls_10_rotated.json,http://54.235.29.9/FacialAge/BNav_EC2/DepthDuration/v2_depth_duration_MTurk/v2_DepthDuration_HTML.html#289,289,2558,1285,5120,1440,8-30-2022,10-39-32,160,depth_duration_stimuli/000522_2014-06-08_13-35-06_260595134347_rgbf000244-resize_1/000522_2014-06-08_13-35-06_260595134347_rgbf000244-resize_1-target.png,1000,2.3715,4,2521,1007,feet,jsons/v1_VE1000_randls_10_rotated.json,557865,713993,40,Man
160,314409,DepthScenes,duration_manipulation_targetAtFixation,jsons/v1_VE1000_randls_10_rotated.json,http://54.235.29.9/FacialAge/BNav_EC2/DepthDuration/v2_depth_duration_MTurk/v2_DepthDuration_HTML.html#289,289,2558,1285,5120,1440,8-30-2022,10-39-32,161,depth_duration_stimuli/001132_2014-06-17_14-48-54_260595134347_rgbf000100-resize_2/001132_2014-06-17_14-48-54_260595134347_rgbf000100-resize_2-target.png,1000,3.753,8,2565,1000,feet,jsons/v1_VE1000_randls_10_rotated.json,557865,713993,40,Man
161,314409,DepthScenes,duration_manipulation_targetAtFixation,jsons/v1_VE1000_randls_10_rotated.json,http://54.235.29.9/FacialAge/BNav_EC2/DepthDuration/v2_depth_duration_MTurk/v2_DepthDuration_HTML.html#289,289,2558,1285,5120,1440,8-30-2022,10-39-32,162,depth_duration_stimuli/001133_2014-06-17_14-49-16_260595134347_rgbf000100-resize_0/001133_2014-06-17_14-49-16_260595134347_rgbf000100-resize_0-target.png,1000,4.2115,10,2595,995,feet,jsons/v1_VE1000_randls_10_rotated.json,557865,713993,40,Man
162,314409,DepthScenes,duration_manipulation_targetAtFixation,jsons/v1_VE1000_randls_10_rotated.json,http://54.235.29.9/FacialAge/BNav_EC2/DepthDuration/v2_depth_duration_MTurk/v2_DepthDuration_HTML.html#289,289,2558,1285,5120,1440,8-30-2022,10-39-32,163,depth_duration_stimuli/002323_2014-06-28_20-01-54_260595134347_rgbf000051-resize_4/002323_2014-06-28_20-01-54_260595134347_rgbf000051-resize_4-target.png,1000,3.7310000000000003,10,2271,1006,feet,jsons/v1_VE1000_randls_10_rotated.json,557865,713993,40,Man
163,314409,DepthScenes,duration_manipulation_targetAtFixation,jsons/v1_VE1000_randls_10_rotated.json,http://54.235.29.9/FacialAge/BNav_EC2/DepthDuration/v2_depth_duration_MTurk/v2_DepthDuration_HTML.html#289,289,2558,1285,5120,1440,8-30-2022,10-39-32,164,depth_duration_stimuli/000917_2014-06-09_22-45-29_260595134347_rgbf000149-resize_3/000917_2014-06-09_22-45-29_260595134347_rgbf000149-resize_3-target.png,1000,4.1865,10,2489,1011,feet,jsons/v1_VE1000_randls_10_rotated.json,557865,713993,40,Man
