,subjID,experimentName,versionName,sequenceName,url,selected_row,windowWidth,windowHeight,screenWidth,screenHeight,startDate,startTime,trial,stimulus,duration,actual_depth,depth_estimate,trial_RT,log_sceneDuration,unitSelection,seq_filepath,experimentTime,totalTime,age,gender
0,315058,DepthScenes,duration_manipulation_targetAtFixation,jsons/VE125_randls_65_rotated.json,http://54.235.29.9/FacialAge/BNav_EC2/DepthDuration/v2_depth_duration_MTurk/v2_DepthDuration_HTML.html#45,45,1360,768,1360,768,8-21-2022,9-43-31,1,depth_duration_stimuli/002568_2014-06-24_13-59-21_094959634447_rgbf000062-resize_4/002568_2014-06-24_13-59-21_094959634447_rgbf000062-resize_4-target.png,125,3.015,8,3864,125,feet,jsons/VE125_randls_65_rotated.json,709362,988098,44,Woman
1,315058,DepthScenes,duration_manipulation_targetAtFixation,jsons/VE125_randls_65_rotated.json,http://54.235.29.9/FacialAge/BNav_EC2/DepthDuration/v2_depth_duration_MTurk/v2_DepthDuration_HTML.html#45,45,1360,768,1360,768,8-21-2022,9-43-31,2,depth_duration_stimuli/003492_2014-05-21_15-50-55_094959634447_rgbf000828-resize_1/003492_2014-05-21_15-50-55_094959634447_rgbf000828-resize_1-target.png,125,4.06875,9,3319,122,feet,jsons/VE125_randls_65_rotated.json,709362,988098,44,Woman
2,315058,DepthScenes,duration_manipulation_targetAtFixation,jsons/VE125_randls_65_rotated.json,http://54.235.29.9/FacialAge/BNav_EC2/DepthDuration/v2_depth_duration_MTurk/v2_DepthDuration_HTML.html#45,45,1360,768,1360,768,8-21-2022,9-43-31,3,depth_duration_stimuli/002657_2014-06-13_15-29-54_094959634447_rgbf000150-resize_1/002657_2014-06-13_15-29-54_094959634447_rgbf000150-resize_1-target.png,125,4.919,7,3977,116,feet,jsons/VE125_randls_65_rotated.json,709362,988098,44,Woman
3,315058,DepthScenes,duration_manipulation_targetAtFixation,jsons/VE125_randls_65_rotated.json,http://54.235.29.9/FacialAge/BNav_EC2/DepthDuration/v2_depth_duration_MTurk/v2_DepthDuration_HTML.html#45,45,1360,768,1360,768,8-21-2022,9-43-31,4,depth_duration_stimuli/002375_2014-06-28_20-13-44_260595134347_rgbf000032-resize_1/002375_2014-06-28_20-13-44_260595134347_rgbf000032-resize_1-target.png,125,4.0175,9,3683,122,feet,jsons/VE125_randls_65_rotated.json,709362,988098,44,Woman
4,315058,DepthScenes,duration_manipulation_targetAtFixation,jsons/VE125_randls_65_rotated.json,http://54.235.29.9/FacialAge/BNav_EC2/DepthDuration/v2_depth_duration_MTurk/v2_DepthDuration_HTML.html#45,45,1360,768,1360,768,8-21-2022,9-43-31,5,depth_duration_stimuli/002949_2014-06-26_15-57-42_094959634447_rgbf000079-resize_1/002949_2014-06-26_15-57-42_094959634447_rgbf000079-resize_1-target.png,125,1.8915,6,4078,116,feet,jsons/VE125_randls_65_rotated.json,709362,988098,44,Woman
5,315058,DepthScenes,duration_manipulation_targetAtFixation,jsons/VE125_randls_65_rotated.json,http://54.235.29.9/FacialAge/BNav_EC2/DepthDuration/v2_depth_duration_MTurk/v2_DepthDuration_HTML.html#45,45,1360,768,1360,768,8-21-2022,9-43-31,6,depth_duration_stimuli/000522_2014-06-08_13-35-06_260595134347_rgbf000244-resize_1/000522_2014-06-08_13-35-06_260595134347_rgbf000244-resize_1-target.png,125,2.3715,5,3747,122,feet,jsons/VE125_randls_65_rotated.json,709362,988098,44,Woman
6,315058,DepthScenes,duration_manipulation_targetAtFixation,jsons/VE125_randls_65_rotated.json,http://54.235.29.9/FacialAge/BNav_EC2/DepthDuration/v2_depth_duration_MTurk/v2_DepthDuration_HTML.html#45,45,1360,768,1360,768,8-21-2022,9-43-31,7,depth_duration_stimuli/001650_2014-06-20_12-09-00_260595134347_rgbf000087-resize_3/001650_2014-06-20_12-09-00_260595134347_rgbf000087-resize_3-target.png,125,1.9505,3,4475,135,feet,jsons/VE125_randls_65_rotated.json,709362,988098,44,Woman
7,315058,DepthScenes,duration_manipulation_targetAtFixation,jsons/VE125_randls_65_rotated.json,http://54.235.29.9/FacialAge/BNav_EC2/DepthDuration/v2_depth_duration_MTurk/v2_DepthDuration_HTML.html#45,45,1360,768,1360,768,8-21-2022,9-43-31,8,depth_duration_stimuli/000682_2014-06-08_23-14-58_260595134347_rgbf000041-resize_5/000682_2014-06-08_23-14-58_260595134347_rgbf000041-resize_5-target.png,125,2.7239999999999998,6,3784,125,feet,jsons/VE125_randls_65_rotated.json,709362,988098,44,Woman
8,315058,DepthScenes,duration_manipulation_targetAtFixation,jsons/VE125_randls_65_rotated.json,http://54.235.29.9/FacialAge/BNav_EC2/DepthDuration/v2_depth_duration_MTurk/v2_DepthDuration_HTML.html#45,45,1360,768,1360,768,8-21-2022,9-43-31,9,depth_duration_stimuli/002344_2014-06-28_20-06-29_260595134347_rgbf000030-resize_1/002344_2014-06-28_20-06-29_260595134347_rgbf000030-resize_1-target.png,125,1.5795,3,3795,130,feet,jsons/VE125_randls_65_rotated.json,709362,988098,44,Woman
9,315058,DepthScenes,duration_manipulation_targetAtFixation,jsons/VE125_randls_65_rotated.json,http://54.235.29.9/FacialAge/BNav_EC2/DepthDuration/v2_depth_duration_MTurk/v2_DepthDuration_HTML.html#45,45,1360,768,1360,768,8-21-2022,9-43-31,10,depth_duration_stimuli/002725_2014-06-22_11-47-51_094959634447_rgbf000070-resize_1/002725_2014-06-22_11-47-51_094959634447_rgbf000070-resize_1-target.png,125,2.195,10,4085,123,feet,jsons/VE125_randls_65_rotated.json,709362,988098,44,Woman
10,315058,DepthScenes,duration_manipulation_targetAtFixation,jsons/VE125_randls_65_rotated.json,http://54.235.29.9/FacialAge/BNav_EC2/DepthDuration/v2_depth_duration_MTurk/v2_DepthDuration_HTML.html#45,45,1360,768,1360,768,8-21-2022,9-43-31,11,depth_duration_stimuli/002209_2014-06-28_18-36-10_260595134347_rgbf000051-resize_1/002209_2014-06-28_18-36-10_260595134347_rgbf000051-resize_1-target.png,125,2.057,4,4932,137,feet,jsons/VE125_randls_65_rotated.json,709362,988098,44,Woman
11,315058,DepthScenes,duration_manipulation_targetAtFixation,jsons/VE125_randls_65_rotated.json,http://54.235.29.9/FacialAge/BNav_EC2/DepthDuration/v2_depth_duration_MTurk/v2_DepthDuration_HTML.html#45,45,1360,768,1360,768,8-21-2022,9-43-31,12,depth_duration_stimuli/002763_2014-06-22_19-13-10_094959634447_rgbf000075-resize_4/002763_2014-06-22_19-13-10_094959634447_rgbf000075-resize_4-target.png,125,1.68375,5,3724,132,feet,jsons/VE125_randls_65_rotated.json,709362,988098,44,Woman
12,315058,DepthScenes,duration_manipulation_targetAtFixation,jsons/VE125_randls_65_rotated.json,http://54.235.29.9/FacialAge/BNav_EC2/DepthDuration/v2_depth_duration_MTurk/v2_DepthDuration_HTML.html#45,45,1360,768,1360,768,8-21-2022,9-43-31,13,depth_duration_stimuli/001815_2014-06-26_20-52-55_260595134347_rgbf000020-resize_0/001815_2014-06-26_20-52-55_260595134347_rgbf000020-resize_0-target.png,125,3.3865,10,5233,120,feet,jsons/VE125_randls_65_rotated.json,709362,988098,44,Woman
13,315058,DepthScenes,duration_manipulation_targetAtFixation,jsons/VE125_randls_65_rotated.json,http://54.235.29.9/FacialAge/BNav_EC2/DepthDuration/v2_depth_duration_MTurk/v2_DepthDuration_HTML.html#45,45,1360,768,1360,768,8-21-2022,9-43-31,14,depth_duration_stimuli/001808_2014-06-26_20-50-58_260595134347_rgbf000029-resize_1/001808_2014-06-26_20-50-58_260595134347_rgbf000029-resize_1-target.png,125,4.249,16,5031,137,feet,jsons/VE125_randls_65_rotated.json,709362,988098,44,Woman
14,315058,DepthScenes,duration_manipulation_targetAtFixation,jsons/VE125_randls_65_rotated.json,http://54.235.29.9/FacialAge/BNav_EC2/DepthDuration/v2_depth_duration_MTurk/v2_DepthDuration_HTML.html#45,45,1360,768,1360,768,8-21-2022,9-43-31,15,depth_duration_stimuli/000109_2014-05-14_23-41-52_260595134347_rgbf000035-resize_9/000109_2014-05-14_23-41-52_260595134347_rgbf000035-resize_9-target.png,125,1.3545,4,4594,115,feet,jsons/VE125_randls_65_rotated.json,709362,988098,44,Woman
15,315058,DepthScenes,duration_manipulation_targetAtFixation,jsons/VE125_randls_65_rotated.json,http://54.235.29.9/FacialAge/BNav_EC2/DepthDuration/v2_depth_duration_MTurk/v2_DepthDuration_HTML.html#45,45,1360,768,1360,768,8-21-2022,9-43-31,16,depth_duration_stimuli/000470_2014-06-09_19-42-40_260595134347_rgbf000094-resize_1/000470_2014-06-09_19-42-40_260595134347_rgbf000094-resize_1-target.png,125,1.831,5,3026,115,feet,jsons/VE125_randls_65_rotated.json,709362,988098,44,Woman
16,315058,DepthScenes,duration_manipulation_targetAtFixation,jsons/VE125_randls_65_rotated.json,http://54.235.29.9/FacialAge/BNav_EC2/DepthDuration/v2_depth_duration_MTurk/v2_DepthDuration_HTML.html#45,45,1360,768,1360,768,8-21-2022,9-43-31,17,depth_duration_stimuli/000927_2014-06-09_16-32-30_260595134347_rgbf000123-resize_3/000927_2014-06-09_16-32-30_260595134347_rgbf000123-resize_3-target.png,125,2.6785,8,3340,129,feet,jsons/VE125_randls_65_rotated.json,709362,988098,44,Woman
17,315058,DepthScenes,duration_manipulation_targetAtFixation,jsons/VE125_randls_65_rotated.json,http://54.235.29.9/FacialAge/BNav_EC2/DepthDuration/v2_depth_duration_MTurk/v2_DepthDuration_HTML.html#45,45,1360,768,1360,768,8-21-2022,9-43-31,18,depth_duration_stimuli/001110_2014-06-15_17-25-28_260595134347_rgbf000150-resize_1/001110_2014-06-15_17-25-28_260595134347_rgbf000150-resize_1-target.png,125,1.7115,6,3521,117,feet,jsons/VE125_randls_65_rotated.json,709362,988098,44,Woman
18,315058,DepthScenes,duration_manipulation_targetAtFixation,jsons/VE125_randls_65_rotated.json,http://54.235.29.9/FacialAge/BNav_EC2/DepthDuration/v2_depth_duration_MTurk/v2_DepthDuration_HTML.html#45,45,1360,768,1360,768,8-21-2022,9-43-31,19,depth_duration_stimuli/001498_2014-06-19_17-45-14_260595134347_rgbf000129-resize_4/001498_2014-06-19_17-45-14_260595134347_rgbf000129-resize-original.jpg,125,1.4075,0,3430,131,feet,jsons/VE125_randls_65_rotated.json,709362,988098,44,Woman
19,315058,DepthScenes,duration_manipulation_targetAtFixation,jsons/VE125_randls_65_rotated.json,http://54.235.29.9/FacialAge/BNav_EC2/DepthDuration/v2_depth_duration_MTurk/v2_DepthDuration_HTML.html#45,45,1360,768,1360,768,8-21-2022,9-43-31,20,depth_duration_stimuli/000483_2014-06-09_20-41-45_260595134347_rgbf000116-resize_4/000483_2014-06-09_20-41-45_260595134347_rgbf000116-resize_4-target.png,125,1.337,4,3498,128,feet,jsons/VE125_randls_65_rotated.json,709362,988098,44,Woman
20,315058,DepthScenes,duration_manipulation_targetAtFixation,jsons/VE125_randls_65_rotated.json,http://54.235.29.9/FacialAge/BNav_EC2/DepthDuration/v2_depth_duration_MTurk/v2_DepthDuration_HTML.html#45,45,1360,768,1360,768,8-21-2022,9-43-31,21,depth_duration_stimuli/000469_2014-06-09_19-42-10_260595134347_rgbf000081-resize_1/000469_2014-06-09_19-42-10_260595134347_rgbf000081-resize_1-target.png,125,1.652,5,3749,117,feet,jsons/VE125_randls_65_rotated.json,709362,988098,44,Woman
21,315058,DepthScenes,duration_manipulation_targetAtFixation,jsons/VE125_randls_65_rotated.json,http://54.235.29.9/FacialAge/BNav_EC2/DepthDuration/v2_depth_duration_MTurk/v2_DepthDuration_HTML.html#45,45,1360,768,1360,768,8-21-2022,9-43-31,22,depth_duration_stimuli/003423_2014-05-21_10-23-26_094959634447_rgbf002665-resize_2/003423_2014-05-21_10-23-26_094959634447_rgbf002665-resize_2-target.png,125,3.2575,18,6005,115,feet,jsons/VE125_randls_65_rotated.json,709362,988098,44,Woman
22,315058,DepthScenes,duration_manipulation_targetAtFixation,jsons/VE125_randls_65_rotated.json,http://54.235.29.9/FacialAge/BNav_EC2/DepthDuration/v2_depth_duration_MTurk/v2_DepthDuration_HTML.html#45,45,1360,768,1360,768,8-21-2022,9-43-31,23,depth_duration_stimuli/002905_2014-06-03_18-04-43_094959634447_rgbf000151-resize_2/002905_2014-06-03_18-04-43_094959634447_rgbf000151-resize_2-target.png,125,2.0295,6,4574,116,feet,jsons/VE125_randls_65_rotated.json,709362,988098,44,Woman
23,315058,DepthScenes,duration_manipulation_targetAtFixation,jsons/VE125_randls_65_rotated.json,http://54.235.29.9/FacialAge/BNav_EC2/DepthDuration/v2_depth_duration_MTurk/v2_DepthDuration_HTML.html#45,45,1360,768,1360,768,8-21-2022,9-43-31,24,depth_duration_stimuli/000780_2014-06-08_22-28-29_260595134347_rgbf000126-resize_1/000780_2014-06-08_22-28-29_260595134347_rgbf000126-resize_1-target.png,125,3.3825,10,3947,116,feet,jsons/VE125_randls_65_rotated.json,709362,988098,44,Woman
24,315058,DepthScenes,duration_manipulation_targetAtFixation,jsons/VE125_randls_65_rotated.json,http://54.235.29.9/FacialAge/BNav_EC2/DepthDuration/v2_depth_duration_MTurk/v2_DepthDuration_HTML.html#45,45,1360,768,1360,768,8-21-2022,9-43-31,25,depth_duration_stimuli/002445_2014-06-28_20-32-16_260595134347_rgbf000029-resize_4/002445_2014-06-28_20-32-16_260595134347_rgbf000029-resize_4-target.png,125,2.5315,8,4450,141,feet,jsons/VE125_randls_65_rotated.json,709362,988098,44,Woman
25,315058,DepthScenes,duration_manipulation_targetAtFixation,jsons/VE125_randls_65_rotated.json,http://54.235.29.9/FacialAge/BNav_EC2/DepthDuration/v2_depth_duration_MTurk/v2_DepthDuration_HTML.html#45,45,1360,768,1360,768,8-21-2022,9-43-31,26,depth_duration_stimuli/001235_2014-06-17_16-37-36_260595134347_rgbf000084-resize_4/001235_2014-06-17_16-37-36_260595134347_rgbf000084-resize_4-target.png,125,3.6605,12,4969,125,feet,jsons/VE125_randls_65_rotated.json,709362,988098,44,Woman
26,315058,DepthScenes,duration_manipulation_targetAtFixation,jsons/VE125_randls_65_rotated.json,http://54.235.29.9/FacialAge/BNav_EC2/DepthDuration/v2_depth_duration_MTurk/v2_DepthDuration_HTML.html#45,45,1360,768,1360,768,8-21-2022,9-43-31,27,depth_duration_stimuli/000788_2014-06-08_22-34-36_260595134347_rgbf000131-resize_1/000788_2014-06-08_22-34-36_260595134347_rgbf000131-resize_1-target.png,125,3.359,10,3301,110,feet,jsons/VE125_randls_65_rotated.json,709362,988098,44,Woman
27,315058,DepthScenes,duration_manipulation_targetAtFixation,jsons/VE125_randls_65_rotated.json,http://54.235.29.9/FacialAge/BNav_EC2/DepthDuration/v2_depth_duration_MTurk/v2_DepthDuration_HTML.html#45,45,1360,768,1360,768,8-21-2022,9-43-31,28,depth_duration_stimuli/000866_2014-06-09_20-45-42_260595134347_rgbf000139-resize_1/000866_2014-06-09_20-45-42_260595134347_rgbf000139-resize_1-target.png,125,3.2155,12,4562,130,feet,jsons/VE125_randls_65_rotated.json,709362,988098,44,Woman
28,315058,DepthScenes,duration_manipulation_targetAtFixation,jsons/VE125_randls_65_rotated.json,http://54.235.29.9/FacialAge/BNav_EC2/DepthDuration/v2_depth_duration_MTurk/v2_DepthDuration_HTML.html#45,45,1360,768,1360,768,8-21-2022,9-43-31,29,depth_duration_stimuli/002989_2014-06-15_12-25-03_094959634447_rgbf000150-resize_3/002989_2014-06-15_12-25-03_094959634447_rgbf000150-resize_3-target.png,125,4.1975,15,4595,136,feet,jsons/VE125_randls_65_rotated.json,709362,988098,44,Woman
29,315058,DepthScenes,duration_manipulation_targetAtFixation,jsons/VE125_randls_65_rotated.json,http://54.235.29.9/FacialAge/BNav_EC2/DepthDuration/v2_depth_duration_MTurk/v2_DepthDuration_HTML.html#45,45,1360,768,1360,768,8-21-2022,9-43-31,30,depth_duration_stimuli/002072_2014-06-24_21-48-06_260595134347_rgbf000115-resize_0/002072_2014-06-24_21-48-06_260595134347_rgbf000115-resize-original.jpg,125,4.702,0,3351,116,feet,jsons/VE125_randls_65_rotated.json,709362,988098,44,Woman
30,315058,DepthScenes,duration_manipulation_targetAtFixation,jsons/VE125_randls_65_rotated.json,http://54.235.29.9/FacialAge/BNav_EC2/DepthDuration/v2_depth_duration_MTurk/v2_DepthDuration_HTML.html#45,45,1360,768,1360,768,8-21-2022,9-43-31,31,depth_duration_stimuli/002750_2014-06-22_19-08-03_094959634447_rgbf000094-resize_4/002750_2014-06-22_19-08-03_094959634447_rgbf000094-resize_4-target.png,125,2.354,14,4400,108,feet,jsons/VE125_randls_65_rotated.json,709362,988098,44,Woman
31,315058,DepthScenes,duration_manipulation_targetAtFixation,jsons/VE125_randls_65_rotated.json,http://54.235.29.9/FacialAge/BNav_EC2/DepthDuration/v2_depth_duration_MTurk/v2_DepthDuration_HTML.html#45,45,1360,768,1360,768,8-21-2022,9-43-31,32,depth_duration_stimuli/002549_2014-06-24_13-41-39_094959634447_rgbf000022-resize_3/002549_2014-06-24_13-41-39_094959634447_rgbf000022-resize_3-target.png,125,1.476,5,3122,116,feet,jsons/VE125_randls_65_rotated.json,709362,988098,44,Woman
32,315058,DepthScenes,duration_manipulation_targetAtFixation,jsons/VE125_randls_65_rotated.json,http://54.235.29.9/FacialAge/BNav_EC2/DepthDuration/v2_depth_duration_MTurk/v2_DepthDuration_HTML.html#45,45,1360,768,1360,768,8-21-2022,9-43-31,33,depth_duration_stimuli/003083_2014-06-15_15-21-03_094959634447_rgbf000063-resize_1/003083_2014-06-15_15-21-03_094959634447_rgbf000063-resize_1-target.png,125,4.1405,18,3611,138,feet,jsons/VE125_randls_65_rotated.json,709362,988098,44,Woman
33,315058,DepthScenes,duration_manipulation_targetAtFixation,jsons/VE125_randls_65_rotated.json,http://54.235.29.9/FacialAge/BNav_EC2/DepthDuration/v2_depth_duration_MTurk/v2_DepthDuration_HTML.html#45,45,1360,768,1360,768,8-21-2022,9-43-31,34,depth_duration_stimuli/000486_2014-06-09_20-47-20_260595134347_rgbf000143-resize_2/000486_2014-06-09_20-47-20_260595134347_rgbf000143-resize_2-target.png,125,4.8325,12,3261,128,feet,jsons/VE125_randls_65_rotated.json,709362,988098,44,Woman
34,315058,DepthScenes,duration_manipulation_targetAtFixation,jsons/VE125_randls_65_rotated.json,http://54.235.29.9/FacialAge/BNav_EC2/DepthDuration/v2_depth_duration_MTurk/v2_DepthDuration_HTML.html#45,45,1360,768,1360,768,8-21-2022,9-43-31,35,depth_duration_stimuli/002444_2014-06-28_20-32-08_260595134347_rgbf000027-resize_0/002444_2014-06-28_20-32-08_260595134347_rgbf000027-resize_0-target.png,125,4.388999999999999,16,3766,112,feet,jsons/VE125_randls_65_rotated.json,709362,988098,44,Woman
35,315058,DepthScenes,duration_manipulation_targetAtFixation,jsons/VE125_randls_65_rotated.json,http://54.235.29.9/FacialAge/BNav_EC2/DepthDuration/v2_depth_duration_MTurk/v2_DepthDuration_HTML.html#45,45,1360,768,1360,768,8-21-2022,9-43-31,36,depth_duration_stimuli/000436_2014-06-09_22-25-11_260595134347_rgbf000137-resize_1/000436_2014-06-09_22-25-11_260595134347_rgbf000137-resize_1-target.png,125,4.0705,20,3276,120,feet,jsons/VE125_randls_65_rotated.json,709362,988098,44,Woman
36,315058,DepthScenes,duration_manipulation_targetAtFixation,jsons/VE125_randls_65_rotated.json,http://54.235.29.9/FacialAge/BNav_EC2/DepthDuration/v2_depth_duration_MTurk/v2_DepthDuration_HTML.html#45,45,1360,768,1360,768,8-21-2022,9-43-31,37,depth_duration_stimuli/001094_2014-06-15_17-36-00_260595134347_rgbf000205-resize_0/001094_2014-06-15_17-36-00_260595134347_rgbf000205-resize_0-target.png,125,4.2175,16,4420,126,feet,jsons/VE125_randls_65_rotated.json,709362,988098,44,Woman
37,315058,DepthScenes,duration_manipulation_targetAtFixation,jsons/VE125_randls_65_rotated.json,http://54.235.29.9/FacialAge/BNav_EC2/DepthDuration/v2_depth_duration_MTurk/v2_DepthDuration_HTML.html#45,45,1360,768,1360,768,8-21-2022,9-43-31,38,depth_duration_stimuli/000692_2014-06-08_13-09-42_260595134347_rgbf000199-resize_2/000692_2014-06-08_13-09-42_260595134347_rgbf000199-resize_2-target.png,125,3.661,22,3785,121,feet,jsons/VE125_randls_65_rotated.json,709362,988098,44,Woman
38,315058,DepthScenes,duration_manipulation_targetAtFixation,jsons/VE125_randls_65_rotated.json,http://54.235.29.9/FacialAge/BNav_EC2/DepthDuration/v2_depth_duration_MTurk/v2_DepthDuration_HTML.html#45,45,1360,768,1360,768,8-21-2022,9-43-31,39,depth_duration_stimuli/000734_2014-06-08_17-39-11_260595134347_rgbf000128-resize_2/000734_2014-06-08_17-39-11_260595134347_rgbf000128-resize_2-target.png,125,4.098,14,4218,137,feet,jsons/VE125_randls_65_rotated.json,709362,988098,44,Woman
39,315058,DepthScenes,duration_manipulation_targetAtFixation,jsons/VE125_randls_65_rotated.json,http://54.235.29.9/FacialAge/BNav_EC2/DepthDuration/v2_depth_duration_MTurk/v2_DepthDuration_HTML.html#45,45,1360,768,1360,768,8-21-2022,9-43-31,40,depth_duration_stimuli/000739_2014-06-08_18-45-58_260595134347_rgbf000068-resize_1/000739_2014-06-08_18-45-58_260595134347_rgbf000068-resize_1-target.png,125,3.534,14,4245,121,feet,jsons/VE125_randls_65_rotated.json,709362,988098,44,Woman
40,315058,DepthScenes,duration_manipulation_targetAtFixation,jsons/VE125_randls_65_rotated.json,http://54.235.29.9/FacialAge/BNav_EC2/DepthDuration/v2_depth_duration_MTurk/v2_DepthDuration_HTML.html#45,45,1360,768,1360,768,8-21-2022,9-43-31,41,depth_duration_stimuli/001516_2014-06-20_16-25-09_260595134347_rgbf000076-resize_2/001516_2014-06-20_16-25-09_260595134347_rgbf000076-resize_2-target.png,125,1.7445,12,4358,121,feet,jsons/VE125_randls_65_rotated.json,709362,988098,44,Woman
41,315058,DepthScenes,duration_manipulation_targetAtFixation,jsons/VE125_randls_65_rotated.json,http://54.235.29.9/FacialAge/BNav_EC2/DepthDuration/v2_depth_duration_MTurk/v2_DepthDuration_HTML.html#45,45,1360,768,1360,768,8-21-2022,9-43-31,42,depth_duration_stimuli/002118_2014-06-25_20-32-08_260595134347_rgbf000078-resize_1/002118_2014-06-25_20-32-08_260595134347_rgbf000078-resize_1-target.png,125,2.6460000000000004,14,3844,120,feet,jsons/VE125_randls_65_rotated.json,709362,988098,44,Woman
42,315058,DepthScenes,duration_manipulation_targetAtFixation,jsons/VE125_randls_65_rotated.json,http://54.235.29.9/FacialAge/BNav_EC2/DepthDuration/v2_depth_duration_MTurk/v2_DepthDuration_HTML.html#45,45,1360,768,1360,768,8-21-2022,9-43-31,43,depth_duration_stimuli/002758_2014-06-22_19-11-20_094959634447_rgbf000128-resize_1/002758_2014-06-22_19-11-20_094959634447_rgbf000128-resize_1-target.png,125,2.555,7,3653,122,feet,jsons/VE125_randls_65_rotated.json,709362,988098,44,Woman
43,315058,DepthScenes,duration_manipulation_targetAtFixation,jsons/VE125_randls_65_rotated.json,http://54.235.29.9/FacialAge/BNav_EC2/DepthDuration/v2_depth_duration_MTurk/v2_DepthDuration_HTML.html#45,45,1360,768,1360,768,8-21-2022,9-43-31,44,depth_duration_stimuli/002630_2014-06-24_14-47-50_094959634447_rgbf000055-resize_1/002630_2014-06-24_14-47-50_094959634447_rgbf000055-resize_1-target.png,125,3.0095,12,3417,138,feet,jsons/VE125_randls_65_rotated.json,709362,988098,44,Woman
44,315058,DepthScenes,duration_manipulation_targetAtFixation,jsons/VE125_randls_65_rotated.json,http://54.235.29.9/FacialAge/BNav_EC2/DepthDuration/v2_depth_duration_MTurk/v2_DepthDuration_HTML.html#45,45,1360,768,1360,768,8-21-2022,9-43-31,45,depth_duration_stimuli/002637_2014-06-24_14-51-13_094959634447_rgbf000066-resize_4/002637_2014-06-24_14-51-13_094959634447_rgbf000066-resize_4-target.png,125,1.9955,8,2877,116,feet,jsons/VE125_randls_65_rotated.json,709362,988098,44,Woman
45,315058,DepthScenes,duration_manipulation_targetAtFixation,jsons/VE125_randls_65_rotated.json,http://54.235.29.9/FacialAge/BNav_EC2/DepthDuration/v2_depth_duration_MTurk/v2_DepthDuration_HTML.html#45,45,1360,768,1360,768,8-21-2022,9-43-31,46,depth_duration_stimuli/003534_2014-05-22_15-06-10_094959634447_rgbf000102-resize_4/003534_2014-05-22_15-06-10_094959634447_rgbf000102-resize_4-target.png,125,1.426,5,3180,122,feet,jsons/VE125_randls_65_rotated.json,709362,988098,44,Woman
46,315058,DepthScenes,duration_manipulation_targetAtFixation,jsons/VE125_randls_65_rotated.json,http://54.235.29.9/FacialAge/BNav_EC2/DepthDuration/v2_depth_duration_MTurk/v2_DepthDuration_HTML.html#45,45,1360,768,1360,768,8-21-2022,9-43-31,47,depth_duration_stimuli/002414_2014-06-28_20-24-58_260595134347_rgbf000067-resize_4/002414_2014-06-28_20-24-58_260595134347_rgbf000067-resize_4-target.png,125,4.363,12,3159,137,feet,jsons/VE125_randls_65_rotated.json,709362,988098,44,Woman
47,315058,DepthScenes,duration_manipulation_targetAtFixation,jsons/VE125_randls_65_rotated.json,http://54.235.29.9/FacialAge/BNav_EC2/DepthDuration/v2_depth_duration_MTurk/v2_DepthDuration_HTML.html#45,45,1360,768,1360,768,8-21-2022,9-43-31,48,depth_duration_stimuli/000773_2014-06-08_22-24-54_260595134347_rgbf000093-resize_1/000773_2014-06-08_22-24-54_260595134347_rgbf000093-resize_1-target.png,125,4.973,15,3530,118,feet,jsons/VE125_randls_65_rotated.json,709362,988098,44,Woman
48,315058,DepthScenes,duration_manipulation_targetAtFixation,jsons/VE125_randls_65_rotated.json,http://54.235.29.9/FacialAge/BNav_EC2/DepthDuration/v2_depth_duration_MTurk/v2_DepthDuration_HTML.html#45,45,1360,768,1360,768,8-21-2022,9-43-31,49,depth_duration_stimuli/001170_2014-06-17_15-43-44_260595134347_rgbf000096-resize_6/001170_2014-06-17_15-43-44_260595134347_rgbf000096-resize-original.jpg,125,1.1909999999999998,0,5476,135,feet,jsons/VE125_randls_65_rotated.json,709362,988098,44,Woman
49,315058,DepthScenes,duration_manipulation_targetAtFixation,jsons/VE125_randls_65_rotated.json,http://54.235.29.9/FacialAge/BNav_EC2/DepthDuration/v2_depth_duration_MTurk/v2_DepthDuration_HTML.html#45,45,1360,768,1360,768,8-21-2022,9-43-31,50,depth_duration_stimuli/000556_2014-06-09_22-42-56_260595134347_rgbf000214-resize_1/000556_2014-06-09_22-42-56_260595134347_rgbf000214-resize_1-target.png,125,4.8415,14,3848,124,feet,jsons/VE125_randls_65_rotated.json,709362,988098,44,Woman
50,315058,DepthScenes,duration_manipulation_targetAtFixation,jsons/VE125_randls_65_rotated.json,http://54.235.29.9/FacialAge/BNav_EC2/DepthDuration/v2_depth_duration_MTurk/v2_DepthDuration_HTML.html#45,45,1360,768,1360,768,8-21-2022,9-43-31,51,depth_duration_stimuli/001158_2014-06-17_15-32-16_260595134347_rgbf000138-resize_2/001158_2014-06-17_15-32-16_260595134347_rgbf000138-resize_2-target.png,125,4.5315,18,4462,129,feet,jsons/VE125_randls_65_rotated.json,709362,988098,44,Woman
51,315058,DepthScenes,duration_manipulation_targetAtFixation,jsons/VE125_randls_65_rotated.json,http://54.235.29.9/FacialAge/BNav_EC2/DepthDuration/v2_depth_duration_MTurk/v2_DepthDuration_HTML.html#45,45,1360,768,1360,768,8-21-2022,9-43-31,52,depth_duration_stimuli/001052_2014-06-08_18-24-54_260595134347_rgbf000130-resize_1/001052_2014-06-08_18-24-54_260595134347_rgbf000130-resize_1-target.png,125,4.1045,18,3428,131,feet,jsons/VE125_randls_65_rotated.json,709362,988098,44,Woman
52,315058,DepthScenes,duration_manipulation_targetAtFixation,jsons/VE125_randls_65_rotated.json,http://54.235.29.9/FacialAge/BNav_EC2/DepthDuration/v2_depth_duration_MTurk/v2_DepthDuration_HTML.html#45,45,1360,768,1360,768,8-21-2022,9-43-31,53,depth_duration_stimuli/002988_2014-06-15_12-24-20_094959634447_rgbf000150-resize_1/002988_2014-06-15_12-24-20_094959634447_rgbf000150-resize_1-target.png,125,4.7669999999999995,20,3349,127,feet,jsons/VE125_randls_65_rotated.json,709362,988098,44,Woman
53,315058,DepthScenes,duration_manipulation_targetAtFixation,jsons/VE125_randls_65_rotated.json,http://54.235.29.9/FacialAge/BNav_EC2/DepthDuration/v2_depth_duration_MTurk/v2_DepthDuration_HTML.html#45,45,1360,768,1360,768,8-21-2022,9-43-31,54,depth_duration_stimuli/001447_2014-06-19_17-00-32_260595134347_rgbf000082-resize_5/001447_2014-06-19_17-00-32_260595134347_rgbf000082-resize_5-target.png,125,4.13775,8,3056,126,feet,jsons/VE125_randls_65_rotated.json,709362,988098,44,Woman
54,315058,DepthScenes,duration_manipulation_targetAtFixation,jsons/VE125_randls_65_rotated.json,http://54.235.29.9/FacialAge/BNav_EC2/DepthDuration/v2_depth_duration_MTurk/v2_DepthDuration_HTML.html#45,45,1360,768,1360,768,8-21-2022,9-43-31,55,depth_duration_stimuli/000447_2014-06-08_16-15-46_260595134347_rgbf000130-resize_1/000447_2014-06-08_16-15-46_260595134347_rgbf000130-resize_1-target.png,125,4.479,16,3287,124,feet,jsons/VE125_randls_65_rotated.json,709362,988098,44,Woman
55,315058,DepthScenes,duration_manipulation_targetAtFixation,jsons/VE125_randls_65_rotated.json,http://54.235.29.9/FacialAge/BNav_EC2/DepthDuration/v2_depth_duration_MTurk/v2_DepthDuration_HTML.html#45,45,1360,768,1360,768,8-21-2022,9-43-31,56,depth_duration_stimuli/001584_2014-06-20_11-07-43_260595134347_rgbf000002-resize_1/001584_2014-06-20_11-07-43_260595134347_rgbf000002-resize_1-target.png,125,3.53,15,3408,131,feet,jsons/VE125_randls_65_rotated.json,709362,988098,44,Woman
56,315058,DepthScenes,duration_manipulation_targetAtFixation,jsons/VE125_randls_65_rotated.json,http://54.235.29.9/FacialAge/BNav_EC2/DepthDuration/v2_depth_duration_MTurk/v2_DepthDuration_HTML.html#45,45,1360,768,1360,768,8-21-2022,9-43-31,57,depth_duration_stimuli/003621_2014-05-23_18-06-08_094959634447_rgbf000101-resize_1/003621_2014-05-23_18-06-08_094959634447_rgbf000101-resize_1-target.png,125,3.9835,20,3849,131,feet,jsons/VE125_randls_65_rotated.json,709362,988098,44,Woman
57,315058,DepthScenes,duration_manipulation_targetAtFixation,jsons/VE125_randls_65_rotated.json,http://54.235.29.9/FacialAge/BNav_EC2/DepthDuration/v2_depth_duration_MTurk/v2_DepthDuration_HTML.html#45,45,1360,768,1360,768,8-21-2022,9-43-31,58,depth_duration_stimuli/001617_2014-06-20_11-35-32_260595134347_rgbf000066-resize_1/001617_2014-06-20_11-35-32_260595134347_rgbf000066-resize_1-target.png,125,3.7910000000000004,17,3482,131,feet,jsons/VE125_randls_65_rotated.json,709362,988098,44,Woman
58,315058,DepthScenes,duration_manipulation_targetAtFixation,jsons/VE125_randls_65_rotated.json,http://54.235.29.9/FacialAge/BNav_EC2/DepthDuration/v2_depth_duration_MTurk/v2_DepthDuration_HTML.html#45,45,1360,768,1360,768,8-21-2022,9-43-31,59,depth_duration_stimuli/001806_2014-06-26_20-50-20_260595134347_rgbf000091-resize_1/001806_2014-06-26_20-50-20_260595134347_rgbf000091-resize_1-target.png,125,2.7305,5,3281,123,feet,jsons/VE125_randls_65_rotated.json,709362,988098,44,Woman
59,315058,DepthScenes,duration_manipulation_targetAtFixation,jsons/VE125_randls_65_rotated.json,http://54.235.29.9/FacialAge/BNav_EC2/DepthDuration/v2_depth_duration_MTurk/v2_DepthDuration_HTML.html#45,45,1360,768,1360,768,8-21-2022,9-43-31,60,depth_duration_stimuli/002805_2014-06-22_19-54-03_094959634447_rgbf000079-resize_1/002805_2014-06-22_19-54-03_094959634447_rgbf000079-resize_1-target.png,125,3.1439999999999997,14,6431,115,feet,jsons/VE125_randls_65_rotated.json,709362,988098,44,Woman
60,315058,DepthScenes,duration_manipulation_targetAtFixation,jsons/VE125_randls_65_rotated.json,http://54.235.29.9/FacialAge/BNav_EC2/DepthDuration/v2_depth_duration_MTurk/v2_DepthDuration_HTML.html#45,45,1360,768,1360,768,8-21-2022,9-43-31,61,depth_duration_stimuli/000906_2014-06-08_13-35-43_260595134347_rgbf000155-resize_1/000906_2014-06-08_13-35-43_260595134347_rgbf000155-resize_1-target.png,125,2.8489999999999998,22,3823,116,feet,jsons/VE125_randls_65_rotated.json,709362,988098,44,Woman
61,315058,DepthScenes,duration_manipulation_targetAtFixation,jsons/VE125_randls_65_rotated.json,http://54.235.29.9/FacialAge/BNav_EC2/DepthDuration/v2_depth_duration_MTurk/v2_DepthDuration_HTML.html#45,45,1360,768,1360,768,8-21-2022,9-43-31,62,depth_duration_stimuli/001032_2014-06-08_13-23-17_260595134347_rgbf000021-resize_3/001032_2014-06-08_13-23-17_260595134347_rgbf000021-resize_3-target.png,125,3.2725,10,3669,115,feet,jsons/VE125_randls_65_rotated.json,709362,988098,44,Woman
62,315058,DepthScenes,duration_manipulation_targetAtFixation,jsons/VE125_randls_65_rotated.json,http://54.235.29.9/FacialAge/BNav_EC2/DepthDuration/v2_depth_duration_MTurk/v2_DepthDuration_HTML.html#45,45,1360,768,1360,768,8-21-2022,9-43-31,63,depth_duration_stimuli/001059_2014-06-08_21-53-27_260595134347_rgbf000061-resize_4/001059_2014-06-08_21-53-27_260595134347_rgbf000061-resize_4-target.png,125,2.4185,12,3929,116,feet,jsons/VE125_randls_65_rotated.json,709362,988098,44,Woman
63,315058,DepthScenes,duration_manipulation_targetAtFixation,jsons/VE125_randls_65_rotated.json,http://54.235.29.9/FacialAge/BNav_EC2/DepthDuration/v2_depth_duration_MTurk/v2_DepthDuration_HTML.html#45,45,1360,768,1360,768,8-21-2022,9-43-31,64,depth_duration_stimuli/001214_2014-06-17_16-13-55_260595134347_rgbf000111-resize_0/001214_2014-06-17_16-13-55_260595134347_rgbf000111-resize_0-target.png,125,2.6505,8,3182,127,feet,jsons/VE125_randls_65_rotated.json,709362,988098,44,Woman
64,315058,DepthScenes,duration_manipulation_targetAtFixation,jsons/VE125_randls_65_rotated.json,http://54.235.29.9/FacialAge/BNav_EC2/DepthDuration/v2_depth_duration_MTurk/v2_DepthDuration_HTML.html#45,45,1360,768,1360,768,8-21-2022,9-43-31,65,depth_duration_stimuli/000810_2014-06-08_17-20-01_260595134347_rgbf000105-resize_0/000810_2014-06-08_17-20-01_260595134347_rgbf000105-resize_0-target.png,125,1.4865,9,4461,120,feet,jsons/VE125_randls_65_rotated.json,709362,988098,44,Woman
65,315058,DepthScenes,duration_manipulation_targetAtFixation,jsons/VE125_randls_65_rotated.json,http://54.235.29.9/FacialAge/BNav_EC2/DepthDuration/v2_depth_duration_MTurk/v2_DepthDuration_HTML.html#45,45,1360,768,1360,768,8-21-2022,9-43-31,66,depth_duration_stimuli/001540_2014-06-20_17-01-05_260595134347_rgbf000086-resize_2/001540_2014-06-20_17-01-05_260595134347_rgbf000086-resize-original.jpg,125,1.459,0,3392,109,feet,jsons/VE125_randls_65_rotated.json,709362,988098,44,Woman
66,315058,DepthScenes,duration_manipulation_targetAtFixation,jsons/VE125_randls_65_rotated.json,http://54.235.29.9/FacialAge/BNav_EC2/DepthDuration/v2_depth_duration_MTurk/v2_DepthDuration_HTML.html#45,45,1360,768,1360,768,8-21-2022,9-43-31,67,depth_duration_stimuli/002953_2014-06-08_17-32-18_094959634447_rgbf000059-resize_5/002953_2014-06-08_17-32-18_094959634447_rgbf000059-resize_5-target.png,125,1.551,4,3182,115,feet,jsons/VE125_randls_65_rotated.json,709362,988098,44,Woman
67,315058,DepthScenes,duration_manipulation_targetAtFixation,jsons/VE125_randls_65_rotated.json,http://54.235.29.9/FacialAge/BNav_EC2/DepthDuration/v2_depth_duration_MTurk/v2_DepthDuration_HTML.html#45,45,1360,768,1360,768,8-21-2022,9-43-31,68,depth_duration_stimuli/000878_2014-06-08_22-52-45_260595134347_rgbf000045-resize_2/000878_2014-06-08_22-52-45_260595134347_rgbf000045-resize_2-target.png,125,2.092,10,4301,119,feet,jsons/VE125_randls_65_rotated.json,709362,988098,44,Woman
68,315058,DepthScenes,duration_manipulation_targetAtFixation,jsons/VE125_randls_65_rotated.json,http://54.235.29.9/FacialAge/BNav_EC2/DepthDuration/v2_depth_duration_MTurk/v2_DepthDuration_HTML.html#45,45,1360,768,1360,768,8-21-2022,9-43-31,69,depth_duration_stimuli/001132_2014-06-17_14-48-54_260595134347_rgbf000100-resize_2/001132_2014-06-17_14-48-54_260595134347_rgbf000100-resize_2-target.png,125,3.753,12,5903,130,feet,jsons/VE125_randls_65_rotated.json,709362,988098,44,Woman
69,315058,DepthScenes,duration_manipulation_targetAtFixation,jsons/VE125_randls_65_rotated.json,http://54.235.29.9/FacialAge/BNav_EC2/DepthDuration/v2_depth_duration_MTurk/v2_DepthDuration_HTML.html#45,45,1360,768,1360,768,8-21-2022,9-43-31,70,depth_duration_stimuli/001133_2014-06-17_14-49-16_260595134347_rgbf000100-resize_0/001133_2014-06-17_14-49-16_260595134347_rgbf000100-resize_0-target.png,125,4.2115,15,3323,130,feet,jsons/VE125_randls_65_rotated.json,709362,988098,44,Woman
70,315058,DepthScenes,duration_manipulation_targetAtFixation,jsons/VE125_randls_65_rotated.json,http://54.235.29.9/FacialAge/BNav_EC2/DepthDuration/v2_depth_duration_MTurk/v2_DepthDuration_HTML.html#45,45,1360,768,1360,768,8-21-2022,9-43-31,71,depth_duration_stimuli/000854_2014-06-09_19-43-13_260595134347_rgbf000066-resize_0/000854_2014-06-09_19-43-13_260595134347_rgbf000066-resize_0-target.png,125,3.068,7,3293,118,feet,jsons/VE125_randls_65_rotated.json,709362,988098,44,Woman
71,315058,DepthScenes,duration_manipulation_targetAtFixation,jsons/VE125_randls_65_rotated.json,http://54.235.29.9/FacialAge/BNav_EC2/DepthDuration/v2_depth_duration_MTurk/v2_DepthDuration_HTML.html#45,45,1360,768,1360,768,8-21-2022,9-43-31,72,depth_duration_stimuli/000758_2014-06-08_22-05-08_260595134347_rgbf000085-resize_0/000758_2014-06-08_22-05-08_260595134347_rgbf000085-resize_0-target.png,125,3.3810000000000002,12,3523,120,feet,jsons/VE125_randls_65_rotated.json,709362,988098,44,Woman
72,315058,DepthScenes,duration_manipulation_targetAtFixation,jsons/VE125_randls_65_rotated.json,http://54.235.29.9/FacialAge/BNav_EC2/DepthDuration/v2_depth_duration_MTurk/v2_DepthDuration_HTML.html#45,45,1360,768,1360,768,8-21-2022,9-43-31,73,depth_duration_stimuli/000665_2014-06-09_20-42-35_260595134347_rgbf000110-resize_1/000665_2014-06-09_20-42-35_260595134347_rgbf000110-resize_1-target.png,125,3.057,12,4569,110,feet,jsons/VE125_randls_65_rotated.json,709362,988098,44,Woman
73,315058,DepthScenes,duration_manipulation_targetAtFixation,jsons/VE125_randls_65_rotated.json,http://54.235.29.9/FacialAge/BNav_EC2/DepthDuration/v2_depth_duration_MTurk/v2_DepthDuration_HTML.html#45,45,1360,768,1360,768,8-21-2022,9-43-31,74,depth_duration_stimuli/001150_2014-06-17_15-27-34_260595134347_rgbf000108-resize_2/001150_2014-06-17_15-27-34_260595134347_rgbf000108-resize_2-target.png,125,4.0325,13,3377,136,feet,jsons/VE125_randls_65_rotated.json,709362,988098,44,Woman
74,315058,DepthScenes,duration_manipulation_targetAtFixation,jsons/VE125_randls_65_rotated.json,http://54.235.29.9/FacialAge/BNav_EC2/DepthDuration/v2_depth_duration_MTurk/v2_DepthDuration_HTML.html#45,45,1360,768,1360,768,8-21-2022,9-43-31,75,depth_duration_stimuli/000677_2014-06-08_23-10-32_260595134347_rgbf000158-resize_6/000677_2014-06-08_23-10-32_260595134347_rgbf000158-resize_6-target.png,125,3.556,9,3399,124,feet,jsons/VE125_randls_65_rotated.json,709362,988098,44,Woman
75,315058,DepthScenes,duration_manipulation_targetAtFixation,jsons/VE125_randls_65_rotated.json,http://54.235.29.9/FacialAge/BNav_EC2/DepthDuration/v2_depth_duration_MTurk/v2_DepthDuration_HTML.html#45,45,1360,768,1360,768,8-21-2022,9-43-31,76,depth_duration_stimuli/001029_2014-06-08_13-17-57_260595134347_rgbf000065-resize_1/001029_2014-06-08_13-17-57_260595134347_rgbf000065-resize_1-target.png,125,3.0835,12,4128,116,feet,jsons/VE125_randls_65_rotated.json,709362,988098,44,Woman
76,315058,DepthScenes,duration_manipulation_targetAtFixation,jsons/VE125_randls_65_rotated.json,http://54.235.29.9/FacialAge/BNav_EC2/DepthDuration/v2_depth_duration_MTurk/v2_DepthDuration_HTML.html#45,45,1360,768,1360,768,8-21-2022,9-43-31,77,depth_duration_stimuli/000749_2014-06-08_21-55-06_260595134347_rgbf000070-resize_2/000749_2014-06-08_21-55-06_260595134347_rgbf000070-resize_2-target.png,125,2.331,8,2887,114,feet,jsons/VE125_randls_65_rotated.json,709362,988098,44,Woman
77,315058,DepthScenes,duration_manipulation_targetAtFixation,jsons/VE125_randls_65_rotated.json,http://54.235.29.9/FacialAge/BNav_EC2/DepthDuration/v2_depth_duration_MTurk/v2_DepthDuration_HTML.html#45,45,1360,768,1360,768,8-21-2022,9-43-31,78,depth_duration_stimuli/002788_2014-06-22_19-36-03_094959634447_rgbf000088-resize_2/002788_2014-06-22_19-36-03_094959634447_rgbf000088-resize_2-target.png,125,1.6465,9,3695,137,feet,jsons/VE125_randls_65_rotated.json,709362,988098,44,Woman
78,315058,DepthScenes,duration_manipulation_targetAtFixation,jsons/VE125_randls_65_rotated.json,http://54.235.29.9/FacialAge/BNav_EC2/DepthDuration/v2_depth_duration_MTurk/v2_DepthDuration_HTML.html#45,45,1360,768,1360,768,8-21-2022,9-43-31,79,depth_duration_stimuli/000103_2014-05-14_22-01-17_260595134347_rgbf000152-resize_5/000103_2014-05-14_22-01-17_260595134347_rgbf000152-resize_5-target.png,125,1.993,16,5347,129,feet,jsons/VE125_randls_65_rotated.json,709362,988098,44,Woman
79,315058,DepthScenes,duration_manipulation_targetAtFixation,jsons/VE125_randls_65_rotated.json,http://54.235.29.9/FacialAge/BNav_EC2/DepthDuration/v2_depth_duration_MTurk/v2_DepthDuration_HTML.html#45,45,1360,768,1360,768,8-21-2022,9-43-31,80,depth_duration_stimuli/001555_2014-06-20_17-12-10_260595134347_rgbf000065-resize_4/001555_2014-06-20_17-12-10_260595134347_rgbf000065-resize_4-target.png,125,1.633,5,3489,120,feet,jsons/VE125_randls_65_rotated.json,709362,988098,44,Woman
80,315058,DepthScenes,duration_manipulation_targetAtFixation,jsons/VE125_randls_65_rotated.json,http://54.235.29.9/FacialAge/BNav_EC2/DepthDuration/v2_depth_duration_MTurk/v2_DepthDuration_HTML.html#45,45,1360,768,1360,768,8-21-2022,9-43-31,81,depth_duration_stimuli/000742_2014-06-08_18-48-09_260595134347_rgbf000164-resize_4/000742_2014-06-08_18-48-09_260595134347_rgbf000164-resize_4-target.png,125,4.632,16,4672,99,feet,jsons/VE125_randls_65_rotated.json,709362,988098,44,Woman
81,315058,DepthScenes,duration_manipulation_targetAtFixation,jsons/VE125_randls_65_rotated.json,http://54.235.29.9/FacialAge/BNav_EC2/DepthDuration/v2_depth_duration_MTurk/v2_DepthDuration_HTML.html#45,45,1360,768,1360,768,8-21-2022,9-43-31,82,depth_duration_stimuli/001066_2014-06-08_22-03-20_260595134347_rgbf000066-resize_4/001066_2014-06-08_22-03-20_260595134347_rgbf000066-resize_4-target.png,125,4.2330000000000005,22,4303,120,feet,jsons/VE125_randls_65_rotated.json,709362,988098,44,Woman
82,315058,DepthScenes,duration_manipulation_targetAtFixation,jsons/VE125_randls_65_rotated.json,http://54.235.29.9/FacialAge/BNav_EC2/DepthDuration/v2_depth_duration_MTurk/v2_DepthDuration_HTML.html#45,45,1360,768,1360,768,8-21-2022,9-43-31,83,depth_duration_stimuli/000457_2014-06-08_16-52-43_260595134347_rgbf000199-resize_1/000457_2014-06-08_16-52-43_260595134347_rgbf000199-resize_1-target.png,125,3.6489999999999996,15,3528,126,feet,jsons/VE125_randls_65_rotated.json,709362,988098,44,Woman
83,315058,DepthScenes,duration_manipulation_targetAtFixation,jsons/VE125_randls_65_rotated.json,http://54.235.29.9/FacialAge/BNav_EC2/DepthDuration/v2_depth_duration_MTurk/v2_DepthDuration_HTML.html#45,45,1360,768,1360,768,8-21-2022,9-43-31,84,depth_duration_stimuli/000929_2014-06-09_16-33-19_260595134347_rgbf000139-resize_0/000929_2014-06-09_16-33-19_260595134347_rgbf000139-resize_0-target.png,125,2.8680000000000003,8,3758,119,feet,jsons/VE125_randls_65_rotated.json,709362,988098,44,Woman
84,315058,DepthScenes,duration_manipulation_targetAtFixation,jsons/VE125_randls_65_rotated.json,http://54.235.29.9/FacialAge/BNav_EC2/DepthDuration/v2_depth_duration_MTurk/v2_DepthDuration_HTML.html#45,45,1360,768,1360,768,8-21-2022,9-43-31,85,depth_duration_stimuli/002340_2014-06-28_20-05-46_260595134347_rgbf000113-resize_0/002340_2014-06-28_20-05-46_260595134347_rgbf000113-resize_0-target.png,125,2.4735,16,4522,116,feet,jsons/VE125_randls_65_rotated.json,709362,988098,44,Woman
85,315058,DepthScenes,duration_manipulation_targetAtFixation,jsons/VE125_randls_65_rotated.json,http://54.235.29.9/FacialAge/BNav_EC2/DepthDuration/v2_depth_duration_MTurk/v2_DepthDuration_HTML.html#45,45,1360,768,1360,768,8-21-2022,9-43-31,86,depth_duration_stimuli/001016_2014-06-09_16-16-10_260595134347_rgbf000112-resize_5/001016_2014-06-09_16-16-10_260595134347_rgbf000112-resize_5-target.png,125,1.6565,9,3161,131,feet,jsons/VE125_randls_65_rotated.json,709362,988098,44,Woman
86,315058,DepthScenes,duration_manipulation_targetAtFixation,jsons/VE125_randls_65_rotated.json,http://54.235.29.9/FacialAge/BNav_EC2/DepthDuration/v2_depth_duration_MTurk/v2_DepthDuration_HTML.html#45,45,1360,768,1360,768,8-21-2022,9-43-31,87,depth_duration_stimuli/002323_2014-06-28_20-01-54_260595134347_rgbf000051-resize_4/002323_2014-06-28_20-01-54_260595134347_rgbf000051-resize_4-target.png,125,3.7310000000000003,11,4330,138,feet,jsons/VE125_randls_65_rotated.json,709362,988098,44,Woman
87,315058,DepthScenes,duration_manipulation_targetAtFixation,jsons/VE125_randls_65_rotated.json,http://54.235.29.9/FacialAge/BNav_EC2/DepthDuration/v2_depth_duration_MTurk/v2_DepthDuration_HTML.html#45,45,1360,768,1360,768,8-21-2022,9-43-31,88,depth_duration_stimuli/000917_2014-06-09_22-45-29_260595134347_rgbf000149-resize_3/000917_2014-06-09_22-45-29_260595134347_rgbf000149-resize_3-target.png,125,4.1865,15,6944,121,feet,jsons/VE125_randls_65_rotated.json,709362,988098,44,Woman
88,315058,DepthScenes,duration_manipulation_targetAtFixation,jsons/VE125_randls_65_rotated.json,http://54.235.29.9/FacialAge/BNav_EC2/DepthDuration/v2_depth_duration_MTurk/v2_DepthDuration_HTML.html#45,45,1360,768,1360,768,8-21-2022,9-43-31,89,depth_duration_stimuli/002875_2014-06-01_15-19-00_094959634447_rgbf000151-resize_1/002875_2014-06-01_15-19-00_094959634447_rgbf000151-resize_1-target.png,125,1.9675,5,3622,125,feet,jsons/VE125_randls_65_rotated.json,709362,988098,44,Woman
89,315058,DepthScenes,duration_manipulation_targetAtFixation,jsons/VE125_randls_65_rotated.json,http://54.235.29.9/FacialAge/BNav_EC2/DepthDuration/v2_depth_duration_MTurk/v2_DepthDuration_HTML.html#45,45,1360,768,1360,768,8-21-2022,9-43-31,90,depth_duration_stimuli/001011_2014-06-08_23-18-54_260595134347_rgbf000044-resize_4/001011_2014-06-08_23-18-54_260595134347_rgbf000044-resize_4-target.png,125,2.4730000000000003,8,4518,132,feet,jsons/VE125_randls_65_rotated.json,709362,988098,44,Woman
90,315058,DepthScenes,duration_manipulation_targetAtFixation,jsons/VE125_randls_65_rotated.json,http://54.235.29.9/FacialAge/BNav_EC2/DepthDuration/v2_depth_duration_MTurk/v2_DepthDuration_HTML.html#45,45,1360,768,1360,768,8-21-2022,9-43-31,91,depth_duration_stimuli/003228_2014-05-14_13-42-35_094959634447_rgbf000101-resize_1/003228_2014-05-14_13-42-35_094959634447_rgbf000101-resize_1-target.png,125,1.9680000000000002,4,3183,125,feet,jsons/VE125_randls_65_rotated.json,709362,988098,44,Woman
91,315058,DepthScenes,duration_manipulation_targetAtFixation,jsons/VE125_randls_65_rotated.json,http://54.235.29.9/FacialAge/BNav_EC2/DepthDuration/v2_depth_duration_MTurk/v2_DepthDuration_HTML.html#45,45,1360,768,1360,768,8-21-2022,9-43-31,92,depth_duration_stimuli/002600_2014-06-24_14-27-04_094959634447_rgbf000074-resize_2/002600_2014-06-24_14-27-04_094959634447_rgbf000074-resize_2-target.png,125,2.7575,9,4044,129,feet,jsons/VE125_randls_65_rotated.json,709362,988098,44,Woman
92,315058,DepthScenes,duration_manipulation_targetAtFixation,jsons/VE125_randls_65_rotated.json,http://54.235.29.9/FacialAge/BNav_EC2/DepthDuration/v2_depth_duration_MTurk/v2_DepthDuration_HTML.html#45,45,1360,768,1360,768,8-21-2022,9-43-31,93,depth_duration_stimuli/003010_2014-06-15_12-54-35_094959634447_rgbf000112-resize_0/003010_2014-06-15_12-54-35_094959634447_rgbf000112-resize_0-target.png,125,3.1185,15,3217,117,feet,jsons/VE125_randls_65_rotated.json,709362,988098,44,Woman
93,315058,DepthScenes,duration_manipulation_targetAtFixation,jsons/VE125_randls_65_rotated.json,http://54.235.29.9/FacialAge/BNav_EC2/DepthDuration/v2_depth_duration_MTurk/v2_DepthDuration_HTML.html#45,45,1360,768,1360,768,8-21-2022,9-43-31,94,depth_duration_stimuli/001810_2014-06-26_20-51-35_260595134347_rgbf000040-resize_3/001810_2014-06-26_20-51-35_260595134347_rgbf000040-resize_3-target.png,125,2.2525,6,4134,115,feet,jsons/VE125_randls_65_rotated.json,709362,988098,44,Woman
94,315058,DepthScenes,duration_manipulation_targetAtFixation,jsons/VE125_randls_65_rotated.json,http://54.235.29.9/FacialAge/BNav_EC2/DepthDuration/v2_depth_duration_MTurk/v2_DepthDuration_HTML.html#45,45,1360,768,1360,768,8-21-2022,9-43-31,95,depth_duration_stimuli/002995_2014-06-15_12-31-26_094959634447_rgbf000150-resize_1/002995_2014-06-15_12-31-26_094959634447_rgbf000150-resize_1-target.png,125,3.8360000000000003,12,4002,122,feet,jsons/VE125_randls_65_rotated.json,709362,988098,44,Woman
95,315058,DepthScenes,duration_manipulation_targetAtFixation,jsons/VE125_randls_65_rotated.json,http://54.235.29.9/FacialAge/BNav_EC2/DepthDuration/v2_depth_duration_MTurk/v2_DepthDuration_HTML.html#45,45,1360,768,1360,768,8-21-2022,9-43-31,96,depth_duration_stimuli/002748_2014-06-22_19-07-22_094959634447_rgbf000078-resize_1/002748_2014-06-22_19-07-22_094959634447_rgbf000078-resize_1-target.png,125,4.6705,18,4844,127,feet,jsons/VE125_randls_65_rotated.json,709362,988098,44,Woman
96,315058,DepthScenes,duration_manipulation_targetAtFixation,jsons/VE125_randls_65_rotated.json,http://54.235.29.9/FacialAge/BNav_EC2/DepthDuration/v2_depth_duration_MTurk/v2_DepthDuration_HTML.html#45,45,1360,768,1360,768,8-21-2022,9-43-31,97,depth_duration_stimuli/002467_2014-06-28_20-38-07_260595134347_rgbf000026-resize_2/002467_2014-06-28_20-38-07_260595134347_rgbf000026-resize_2-target.png,125,4.742,20,3235,129,feet,jsons/VE125_randls_65_rotated.json,709362,988098,44,Woman
97,315058,DepthScenes,duration_manipulation_targetAtFixation,jsons/VE125_randls_65_rotated.json,http://54.235.29.9/FacialAge/BNav_EC2/DepthDuration/v2_depth_duration_MTurk/v2_DepthDuration_HTML.html#45,45,1360,768,1360,768,8-21-2022,9-43-31,98,depth_duration_stimuli/002570_2014-06-24_13-59-54_094959634447_rgbf000059-resize_0/002570_2014-06-24_13-59-54_094959634447_rgbf000059-resize_0-target.png,125,4.037,8,3639,121,feet,jsons/VE125_randls_65_rotated.json,709362,988098,44,Woman
98,315058,DepthScenes,duration_manipulation_targetAtFixation,jsons/VE125_randls_65_rotated.json,http://54.235.29.9/FacialAge/BNav_EC2/DepthDuration/v2_depth_duration_MTurk/v2_DepthDuration_HTML.html#45,45,1360,768,1360,768,8-21-2022,9-43-31,99,depth_duration_stimuli/001222_2014-06-17_16-24-06_260595134347_rgbf000073-resize_0/001222_2014-06-17_16-24-06_260595134347_rgbf000073-resize-original.jpg,125,1.4385,0,3348,120,feet,jsons/VE125_randls_65_rotated.json,709362,988098,44,Woman
99,315058,DepthScenes,duration_manipulation_targetAtFixation,jsons/VE125_randls_65_rotated.json,http://54.235.29.9/FacialAge/BNav_EC2/DepthDuration/v2_depth_duration_MTurk/v2_DepthDuration_HTML.html#45,45,1360,768,1360,768,8-21-2022,9-43-31,100,depth_duration_stimuli/003495_2014-05-21_16-01-51_094959634447_rgbf000100-resize_3/003495_2014-05-21_16-01-51_094959634447_rgbf000100-resize_3-target.png,125,1.6255,5,4523,137,feet,jsons/VE125_randls_65_rotated.json,709362,988098,44,Woman
100,315058,DepthScenes,duration_manipulation_targetAtFixation,jsons/VE125_randls_65_rotated.json,http://54.235.29.9/FacialAge/BNav_EC2/DepthDuration/v2_depth_duration_MTurk/v2_DepthDuration_HTML.html#45,45,1360,768,1360,768,8-21-2022,9-43-31,101,depth_duration_stimuli/001244_2014-06-17_16-47-45_260595134347_rgbf000030-resize_4/001244_2014-06-17_16-47-45_260595134347_rgbf000030-resize_4-target.png,125,2.0425,7,3066,115,feet,jsons/VE125_randls_65_rotated.json,709362,988098,44,Woman
101,315058,DepthScenes,duration_manipulation_targetAtFixation,jsons/VE125_randls_65_rotated.json,http://54.235.29.9/FacialAge/BNav_EC2/DepthDuration/v2_depth_duration_MTurk/v2_DepthDuration_HTML.html#45,45,1360,768,1360,768,8-21-2022,9-43-31,102,depth_duration_stimuli/000137_2014-05-20_17-04-49_260595134347_rgbf000120-resize_1/000137_2014-05-20_17-04-49_260595134347_rgbf000120-resize_1-target.png,125,3.786,9,4252,114,feet,jsons/VE125_randls_65_rotated.json,709362,988098,44,Woman
102,315058,DepthScenes,duration_manipulation_targetAtFixation,jsons/VE125_randls_65_rotated.json,http://54.235.29.9/FacialAge/BNav_EC2/DepthDuration/v2_depth_duration_MTurk/v2_DepthDuration_HTML.html#45,45,1360,768,1360,768,8-21-2022,9-43-31,103,depth_duration_stimuli/000736_2014-06-08_18-24-15_260595134347_rgbf000206-resize_3/000736_2014-06-08_18-24-15_260595134347_rgbf000206-resize_3-target.png,125,3.515,9,4284,138,feet,jsons/VE125_randls_65_rotated.json,709362,988098,44,Woman
103,315058,DepthScenes,duration_manipulation_targetAtFixation,jsons/VE125_randls_65_rotated.json,http://54.235.29.9/FacialAge/BNav_EC2/DepthDuration/v2_depth_duration_MTurk/v2_DepthDuration_HTML.html#45,45,1360,768,1360,768,8-21-2022,9-43-31,104,depth_duration_stimuli/001828_2014-06-26_21-40-03_260595134347_rgbf000024-resize_0/001828_2014-06-26_21-40-03_260595134347_rgbf000024-resize_0-target.png,125,4.8260000000000005,12,3205,116,feet,jsons/VE125_randls_65_rotated.json,709362,988098,44,Woman
104,315058,DepthScenes,duration_manipulation_targetAtFixation,jsons/VE125_randls_65_rotated.json,http://54.235.29.9/FacialAge/BNav_EC2/DepthDuration/v2_depth_duration_MTurk/v2_DepthDuration_HTML.html#45,45,1360,768,1360,768,8-21-2022,9-43-31,105,depth_duration_stimuli/000009_2014-05-26_14-32-05_260595134347_rgbf000034-resize_3/000009_2014-05-26_14-32-05_260595134347_rgbf000034-resize_3-target.png,125,3.8715,16,4449,130,feet,jsons/VE125_randls_65_rotated.json,709362,988098,44,Woman
105,315058,DepthScenes,duration_manipulation_targetAtFixation,jsons/VE125_randls_65_rotated.json,http://54.235.29.9/FacialAge/BNav_EC2/DepthDuration/v2_depth_duration_MTurk/v2_DepthDuration_HTML.html#45,45,1360,768,1360,768,8-21-2022,9-43-31,106,depth_duration_stimuli/002136_2014-06-25_21-18-03_260595134347_rgbf000109-resize_3/002136_2014-06-25_21-18-03_260595134347_rgbf000109-resize_3-target.png,125,1.9569999999999999,5,3244,126,feet,jsons/VE125_randls_65_rotated.json,709362,988098,44,Woman
106,315058,DepthScenes,duration_manipulation_targetAtFixation,jsons/VE125_randls_65_rotated.json,http://54.235.29.9/FacialAge/BNav_EC2/DepthDuration/v2_depth_duration_MTurk/v2_DepthDuration_HTML.html#45,45,1360,768,1360,768,8-21-2022,9-43-31,107,depth_duration_stimuli/002964_2014-06-08_17-46-11_094959634447_rgbf000091-resize_4/002964_2014-06-08_17-46-11_094959634447_rgbf000091-resize_4-target.png,125,1.6909999999999998,4,2876,119,feet,jsons/VE125_randls_65_rotated.json,709362,988098,44,Woman
107,315058,DepthScenes,duration_manipulation_targetAtFixation,jsons/VE125_randls_65_rotated.json,http://54.235.29.9/FacialAge/BNav_EC2/DepthDuration/v2_depth_duration_MTurk/v2_DepthDuration_HTML.html#45,45,1360,768,1360,768,8-21-2022,9-43-31,108,depth_duration_stimuli/000191_2014-05-12_17-07-38_260595134347_rgbf000199-resize_0/000191_2014-05-12_17-07-38_260595134347_rgbf000199-resize_0-target.png,125,3.7995,15,3532,133,feet,jsons/VE125_randls_65_rotated.json,709362,988098,44,Woman
108,315058,DepthScenes,duration_manipulation_targetAtFixation,jsons/VE125_randls_65_rotated.json,http://54.235.29.9/FacialAge/BNav_EC2/DepthDuration/v2_depth_duration_MTurk/v2_DepthDuration_HTML.html#45,45,1360,768,1360,768,8-21-2022,9-43-31,109,depth_duration_stimuli/000493_2014-06-09_21-01-18_260595134347_rgbf000196-resize_3/000493_2014-06-09_21-01-18_260595134347_rgbf000196-resize_3-target.png,125,3.44,14,3893,122,feet,jsons/VE125_randls_65_rotated.json,709362,988098,44,Woman
109,315058,DepthScenes,duration_manipulation_targetAtFixation,jsons/VE125_randls_65_rotated.json,http://54.235.29.9/FacialAge/BNav_EC2/DepthDuration/v2_depth_duration_MTurk/v2_DepthDuration_HTML.html#45,45,1360,768,1360,768,8-21-2022,9-43-31,110,depth_duration_stimuli/001100_2014-06-15_17-46-26_260595134347_rgbf000225-resize_2/001100_2014-06-15_17-46-26_260595134347_rgbf000225-resize_2-target.png,125,2.24,3,3748,121,feet,jsons/VE125_randls_65_rotated.json,709362,988098,44,Woman
110,315058,DepthScenes,duration_manipulation_targetAtFixation,jsons/VE125_randls_65_rotated.json,http://54.235.29.9/FacialAge/BNav_EC2/DepthDuration/v2_depth_duration_MTurk/v2_DepthDuration_HTML.html#45,45,1360,768,1360,768,8-21-2022,9-43-31,111,depth_duration_stimuli/002784_2014-06-22_19-26-30_094959634447_rgbf000083-resize_3/002784_2014-06-22_19-26-30_094959634447_rgbf000083-resize_3-target.png,125,1.8046666666667,6,3460,138,feet,jsons/VE125_randls_65_rotated.json,709362,988098,44,Woman
111,315058,DepthScenes,duration_manipulation_targetAtFixation,jsons/VE125_randls_65_rotated.json,http://54.235.29.9/FacialAge/BNav_EC2/DepthDuration/v2_depth_duration_MTurk/v2_DepthDuration_HTML.html#45,45,1360,768,1360,768,8-21-2022,9-43-31,112,depth_duration_stimuli/002545_2014-06-24_13-38-53_094959634447_rgbf000080-resize_4/002545_2014-06-24_13-38-53_094959634447_rgbf000080-resize_4-target.png,125,1.9205,9,3460,121,feet,jsons/VE125_randls_65_rotated.json,709362,988098,44,Woman
112,315058,DepthScenes,duration_manipulation_targetAtFixation,jsons/VE125_randls_65_rotated.json,http://54.235.29.9/FacialAge/BNav_EC2/DepthDuration/v2_depth_duration_MTurk/v2_DepthDuration_HTML.html#45,45,1360,768,1360,768,8-21-2022,9-43-31,113,depth_duration_stimuli/001092_2014-06-15_17-34-58_260595134347_rgbf000171-resize_3/001092_2014-06-15_17-34-58_260595134347_rgbf000171-resize_3-target.png,125,2.6935,7,3807,138,feet,jsons/VE125_randls_65_rotated.json,709362,988098,44,Woman
113,315058,DepthScenes,duration_manipulation_targetAtFixation,jsons/VE125_randls_65_rotated.json,http://54.235.29.9/FacialAge/BNav_EC2/DepthDuration/v2_depth_duration_MTurk/v2_DepthDuration_HTML.html#45,45,1360,768,1360,768,8-21-2022,9-43-31,114,depth_duration_stimuli/003048_2014-06-15_13-49-43_094959634447_rgbf000150-resize_1/003048_2014-06-15_13-49-43_094959634447_rgbf000150-resize_1-target.png,125,4.0035,0,3321,129,feet,jsons/VE125_randls_65_rotated.json,709362,988098,44,Woman
114,315058,DepthScenes,duration_manipulation_targetAtFixation,jsons/VE125_randls_65_rotated.json,http://54.235.29.9/FacialAge/BNav_EC2/DepthDuration/v2_depth_duration_MTurk/v2_DepthDuration_HTML.html#45,45,1360,768,1360,768,8-21-2022,9-43-31,115,depth_duration_stimuli/002043_2014-06-24_20-29-38_260595134347_rgbf000039-resize_4/002043_2014-06-24_20-29-38_260595134347_rgbf000039-resize_4-target.png,125,2.8435,10,3586,118,feet,jsons/VE125_randls_65_rotated.json,709362,988098,44,Woman
115,315058,DepthScenes,duration_manipulation_targetAtFixation,jsons/VE125_randls_65_rotated.json,http://54.235.29.9/FacialAge/BNav_EC2/DepthDuration/v2_depth_duration_MTurk/v2_DepthDuration_HTML.html#45,45,1360,768,1360,768,8-21-2022,9-43-31,116,depth_duration_stimuli/000691_2014-06-08_13-08-50_260595134347_rgbf000132-resize_3/000691_2014-06-08_13-08-50_260595134347_rgbf000132-resize_3-target.png,125,4.1530000000000005,10,3941,130,feet,jsons/VE125_randls_65_rotated.json,709362,988098,44,Woman
116,315058,DepthScenes,duration_manipulation_targetAtFixation,jsons/VE125_randls_65_rotated.json,http://54.235.29.9/FacialAge/BNav_EC2/DepthDuration/v2_depth_duration_MTurk/v2_DepthDuration_HTML.html#45,45,1360,768,1360,768,8-21-2022,9-43-31,117,depth_duration_stimuli/002213_2014-06-28_18-37-58_260595134347_rgbf000055-resize_1/002213_2014-06-28_18-37-58_260595134347_rgbf000055-resize_1-target.png,125,3.62,14,4358,121,feet,jsons/VE125_randls_65_rotated.json,709362,988098,44,Woman
117,315058,DepthScenes,duration_manipulation_targetAtFixation,jsons/VE125_randls_65_rotated.json,http://54.235.29.9/FacialAge/BNav_EC2/DepthDuration/v2_depth_duration_MTurk/v2_DepthDuration_HTML.html#45,45,1360,768,1360,768,8-21-2022,9-43-31,118,depth_duration_stimuli/002678_2014-06-13_16-15-32_094959634447_rgbf000151-resize_6/002678_2014-06-13_16-15-32_094959634447_rgbf000151-resize_6-target.png,125,2.1830000000000003,18,4283,120,feet,jsons/VE125_randls_65_rotated.json,709362,988098,44,Woman
118,315058,DepthScenes,duration_manipulation_targetAtFixation,jsons/VE125_randls_65_rotated.json,http://54.235.29.9/FacialAge/BNav_EC2/DepthDuration/v2_depth_duration_MTurk/v2_DepthDuration_HTML.html#45,45,1360,768,1360,768,8-21-2022,9-43-31,119,depth_duration_stimuli/000368_2014-06-09_15-53-01_260595134347_rgbf000155-resize_2/000368_2014-06-09_15-53-01_260595134347_rgbf000155-resize_2-target.png,125,2.4859999999999998,6,3058,115,feet,jsons/VE125_randls_65_rotated.json,709362,988098,44,Woman
119,315058,DepthScenes,duration_manipulation_targetAtFixation,jsons/VE125_randls_65_rotated.json,http://54.235.29.9/FacialAge/BNav_EC2/DepthDuration/v2_depth_duration_MTurk/v2_DepthDuration_HTML.html#45,45,1360,768,1360,768,8-21-2022,9-43-31,120,depth_duration_stimuli/000787_2014-06-08_22-33-53_260595134347_rgbf000175-resize_1/000787_2014-06-08_22-33-53_260595134347_rgbf000175-resize-original.jpg,125,4.784,0,3323,124,feet,jsons/VE125_randls_65_rotated.json,709362,988098,44,Woman
120,315058,DepthScenes,duration_manipulation_targetAtFixation,jsons/VE125_randls_65_rotated.json,http://54.235.29.9/FacialAge/BNav_EC2/DepthDuration/v2_depth_duration_MTurk/v2_DepthDuration_HTML.html#45,45,1360,768,1360,768,8-21-2022,9-43-31,121,depth_duration_stimuli/001450_2014-06-19_17-02-03_260595134347_rgbf000203-resize_4/001450_2014-06-19_17-02-03_260595134347_rgbf000203-resize_4-target.png,125,4.0106666666667,15,4094,121,feet,jsons/VE125_randls_65_rotated.json,709362,988098,44,Woman
121,315058,DepthScenes,duration_manipulation_targetAtFixation,jsons/VE125_randls_65_rotated.json,http://54.235.29.9/FacialAge/BNav_EC2/DepthDuration/v2_depth_duration_MTurk/v2_DepthDuration_HTML.html#45,45,1360,768,1360,768,8-21-2022,9-43-31,122,depth_duration_stimuli/001449_2014-06-19_17-01-27_260595134347_rgbf000116-resize_2/001449_2014-06-19_17-01-27_260595134347_rgbf000116-resize_2-target.png,125,3.452,12,3427,130,feet,jsons/VE125_randls_65_rotated.json,709362,988098,44,Woman
122,315058,DepthScenes,duration_manipulation_targetAtFixation,jsons/VE125_randls_65_rotated.json,http://54.235.29.9/FacialAge/BNav_EC2/DepthDuration/v2_depth_duration_MTurk/v2_DepthDuration_HTML.html#45,45,1360,768,1360,768,8-21-2022,9-43-31,123,depth_duration_stimuli/002639_2014-06-24_14-51-37_094959634447_rgbf000074-resize_4/002639_2014-06-24_14-51-37_094959634447_rgbf000074-resize_4-target.png,125,4.0375,13,4476,121,feet,jsons/VE125_randls_65_rotated.json,709362,988098,44,Woman
123,315058,DepthScenes,duration_manipulation_targetAtFixation,jsons/VE125_randls_65_rotated.json,http://54.235.29.9/FacialAge/BNav_EC2/DepthDuration/v2_depth_duration_MTurk/v2_DepthDuration_HTML.html#45,45,1360,768,1360,768,8-21-2022,9-43-31,124,depth_duration_stimuli/003292_2014-05-14_21-53-49_094959634447_rgbf000100-resize_2/003292_2014-05-14_21-53-49_094959634447_rgbf000100-resize_2-target.png,125,3.4815,8,3362,126,feet,jsons/VE125_randls_65_rotated.json,709362,988098,44,Woman
124,315058,DepthScenes,duration_manipulation_targetAtFixation,jsons/VE125_randls_65_rotated.json,http://54.235.29.9/FacialAge/BNav_EC2/DepthDuration/v2_depth_duration_MTurk/v2_DepthDuration_HTML.html#45,45,1360,768,1360,768,8-21-2022,9-43-31,125,depth_duration_stimuli/000943_2014-06-09_19-31-07_260595134347_rgbf000128-resize_1/000943_2014-06-09_19-31-07_260595134347_rgbf000128-resize_1-target.png,125,1.9765,6,2949,132,feet,jsons/VE125_randls_65_rotated.json,709362,988098,44,Woman
125,315058,DepthScenes,duration_manipulation_targetAtFixation,jsons/VE125_randls_65_rotated.json,http://54.235.29.9/FacialAge/BNav_EC2/DepthDuration/v2_depth_duration_MTurk/v2_DepthDuration_HTML.html#45,45,1360,768,1360,768,8-21-2022,9-43-31,126,depth_duration_stimuli/003070_2014-06-15_14-58-27_094959634447_rgbf000150-resize_3/003070_2014-06-15_14-58-27_094959634447_rgbf000150-resize_3-target.png,125,2.9415,10,3835,124,feet,jsons/VE125_randls_65_rotated.json,709362,988098,44,Woman
126,315058,DepthScenes,duration_manipulation_targetAtFixation,jsons/VE125_randls_65_rotated.json,http://54.235.29.9/FacialAge/BNav_EC2/DepthDuration/v2_depth_duration_MTurk/v2_DepthDuration_HTML.html#45,45,1360,768,1360,768,8-21-2022,9-43-31,127,depth_duration_stimuli/003338_2014-05-20_11-01-23_094959634447_rgbf000051-resize_6/003338_2014-05-20_11-01-23_094959634447_rgbf000051-resize_6-target.png,125,1.693,6,3288,138,feet,jsons/VE125_randls_65_rotated.json,709362,988098,44,Woman
127,315058,DepthScenes,duration_manipulation_targetAtFixation,jsons/VE125_randls_65_rotated.json,http://54.235.29.9/FacialAge/BNav_EC2/DepthDuration/v2_depth_duration_MTurk/v2_DepthDuration_HTML.html#45,45,1360,768,1360,768,8-21-2022,9-43-31,128,depth_duration_stimuli/002509_2014-06-24_13-19-22_094959634447_rgbf000077-resize_0/002509_2014-06-24_13-19-22_094959634447_rgbf000077-resize_0-target.png,125,1.3065,5,2965,124,feet,jsons/VE125_randls_65_rotated.json,709362,988098,44,Woman
128,315058,DepthScenes,duration_manipulation_targetAtFixation,jsons/VE125_randls_65_rotated.json,http://54.235.29.9/FacialAge/BNav_EC2/DepthDuration/v2_depth_duration_MTurk/v2_DepthDuration_HTML.html#45,45,1360,768,1360,768,8-21-2022,9-43-31,129,depth_duration_stimuli/001136_2014-06-17_15-19-41_260595134347_rgbf000076-resize_3/001136_2014-06-17_15-19-41_260595134347_rgbf000076-resize_3-target.png,125,1.8655,10,4574,133,feet,jsons/VE125_randls_65_rotated.json,709362,988098,44,Woman
129,315058,DepthScenes,duration_manipulation_targetAtFixation,jsons/VE125_randls_65_rotated.json,http://54.235.29.9/FacialAge/BNav_EC2/DepthDuration/v2_depth_duration_MTurk/v2_DepthDuration_HTML.html#45,45,1360,768,1360,768,8-21-2022,9-43-31,130,depth_duration_stimuli/001164_2014-06-17_15-35-46_260595134347_rgbf000085-resize_3/001164_2014-06-17_15-35-46_260595134347_rgbf000085-resize_3-target.png,125,2.354,8,3552,146,feet,jsons/VE125_randls_65_rotated.json,709362,988098,44,Woman
130,315058,DepthScenes,duration_manipulation_targetAtFixation,jsons/VE125_randls_65_rotated.json,http://54.235.29.9/FacialAge/BNav_EC2/DepthDuration/v2_depth_duration_MTurk/v2_DepthDuration_HTML.html#45,45,1360,768,1360,768,8-21-2022,9-43-31,131,depth_duration_stimuli/000635_2014-06-08_16-38-42_260595134347_rgbf000106-resize_1/000635_2014-06-08_16-38-42_260595134347_rgbf000106-resize_1-target.png,125,2.074,9,3287,128,feet,jsons/VE125_randls_65_rotated.json,709362,988098,44,Woman
131,315058,DepthScenes,duration_manipulation_targetAtFixation,jsons/VE125_randls_65_rotated.json,http://54.235.29.9/FacialAge/BNav_EC2/DepthDuration/v2_depth_duration_MTurk/v2_DepthDuration_HTML.html#45,45,1360,768,1360,768,8-21-2022,9-43-31,132,depth_duration_stimuli/002279_2014-06-28_18-55-32_260595134347_rgbf000040-resize_5/002279_2014-06-28_18-55-32_260595134347_rgbf000040-resize_5-target.png,125,1.5043333333333,5,3048,130,feet,jsons/VE125_randls_65_rotated.json,709362,988098,44,Woman
132,315058,DepthScenes,duration_manipulation_targetAtFixation,jsons/VE125_randls_65_rotated.json,http://54.235.29.9/FacialAge/BNav_EC2/DepthDuration/v2_depth_duration_MTurk/v2_DepthDuration_HTML.html#45,45,1360,768,1360,768,8-21-2022,9-43-31,133,depth_duration_stimuli/003587_2014-05-23_16-48-02_094959634447_rgbf002384-resize_2/003587_2014-05-23_16-48-02_094959634447_rgbf002384-resize_2-target.png,125,1.357,3,3277,131,feet,jsons/VE125_randls_65_rotated.json,709362,988098,44,Woman
133,315058,DepthScenes,duration_manipulation_targetAtFixation,jsons/VE125_randls_65_rotated.json,http://54.235.29.9/FacialAge/BNav_EC2/DepthDuration/v2_depth_duration_MTurk/v2_DepthDuration_HTML.html#45,45,1360,768,1360,768,8-21-2022,9-43-31,134,depth_duration_stimuli/001167_2014-06-17_15-38-07_260595134347_rgbf000108-resize_0/001167_2014-06-17_15-38-07_260595134347_rgbf000108-resize_0-target.png,125,1.8505,5,3379,123,feet,jsons/VE125_randls_65_rotated.json,709362,988098,44,Woman
134,315058,DepthScenes,duration_manipulation_targetAtFixation,jsons/VE125_randls_65_rotated.json,http://54.235.29.9/FacialAge/BNav_EC2/DepthDuration/v2_depth_duration_MTurk/v2_DepthDuration_HTML.html#45,45,1360,768,1360,768,8-21-2022,9-43-31,135,depth_duration_stimuli/000375_2014-06-08_11-17-29_260595134347_rgbf000133-resize_2/000375_2014-06-08_11-17-29_260595134347_rgbf000133-resize-original.jpg,125,4.718,0,3325,117,feet,jsons/VE125_randls_65_rotated.json,709362,988098,44,Woman
135,315058,DepthScenes,duration_manipulation_targetAtFixation,jsons/VE125_randls_65_rotated.json,http://54.235.29.9/FacialAge/BNav_EC2/DepthDuration/v2_depth_duration_MTurk/v2_DepthDuration_HTML.html#45,45,1360,768,1360,768,8-21-2022,9-43-31,136,depth_duration_stimuli/002425_2014-06-28_20-27-29_260595134347_rgbf000031-resize_8/002425_2014-06-28_20-27-29_260595134347_rgbf000031-resize_8-target.png,125,3.8960000000000004,14,4336,127,feet,jsons/VE125_randls_65_rotated.json,709362,988098,44,Woman
136,315058,DepthScenes,duration_manipulation_targetAtFixation,jsons/VE125_randls_65_rotated.json,http://54.235.29.9/FacialAge/BNav_EC2/DepthDuration/v2_depth_duration_MTurk/v2_DepthDuration_HTML.html#45,45,1360,768,1360,768,8-21-2022,9-43-31,137,depth_duration_stimuli/000642_2014-06-08_16-59-25_260595134347_rgbf000098-resize_2/000642_2014-06-08_16-59-25_260595134347_rgbf000098-resize_2-target.png,125,2.8815,11,4152,135,feet,jsons/VE125_randls_65_rotated.json,709362,988098,44,Woman
137,315058,DepthScenes,duration_manipulation_targetAtFixation,jsons/VE125_randls_65_rotated.json,http://54.235.29.9/FacialAge/BNav_EC2/DepthDuration/v2_depth_duration_MTurk/v2_DepthDuration_HTML.html#45,45,1360,768,1360,768,8-21-2022,9-43-31,138,depth_duration_stimuli/000409_2014-06-04_19-23-33_260595134347_rgbf000067-resize_0/000409_2014-06-04_19-23-33_260595134347_rgbf000067-resize_0-target.png,125,3.7335,12,4724,122,feet,jsons/VE125_randls_65_rotated.json,709362,988098,44,Woman
138,315058,DepthScenes,duration_manipulation_targetAtFixation,jsons/VE125_randls_65_rotated.json,http://54.235.29.9/FacialAge/BNav_EC2/DepthDuration/v2_depth_duration_MTurk/v2_DepthDuration_HTML.html#45,45,1360,768,1360,768,8-21-2022,9-43-31,139,depth_duration_stimuli/002663_2014-06-13_15-50-26_094959634447_rgbf000075-resize_1/002663_2014-06-13_15-50-26_094959634447_rgbf000075-resize_1-target.png,125,4.7495,14,3180,137,feet,jsons/VE125_randls_65_rotated.json,709362,988098,44,Woman
139,315058,DepthScenes,duration_manipulation_targetAtFixation,jsons/VE125_randls_65_rotated.json,http://54.235.29.9/FacialAge/BNav_EC2/DepthDuration/v2_depth_duration_MTurk/v2_DepthDuration_HTML.html#45,45,1360,768,1360,768,8-21-2022,9-43-31,140,depth_duration_stimuli/003490_2014-05-21_15-50-11_094959634447_rgbf000101-resize_3/003490_2014-05-21_15-50-11_094959634447_rgbf000101-resize_3-target.png,125,3.6445,15,3231,120,feet,jsons/VE125_randls_65_rotated.json,709362,988098,44,Woman
140,315058,DepthScenes,duration_manipulation_targetAtFixation,jsons/VE125_randls_65_rotated.json,http://54.235.29.9/FacialAge/BNav_EC2/DepthDuration/v2_depth_duration_MTurk/v2_DepthDuration_HTML.html#45,45,1360,768,1360,768,8-21-2022,9-43-31,141,depth_duration_stimuli/001175_2014-06-17_15-45-55_260595134347_rgbf000129-resize_4/001175_2014-06-17_15-45-55_260595134347_rgbf000129-resize_4-target.png,125,4.255,22,3446,108,feet,jsons/VE125_randls_65_rotated.json,709362,988098,44,Woman
141,315058,DepthScenes,duration_manipulation_targetAtFixation,jsons/VE125_randls_65_rotated.json,http://54.235.29.9/FacialAge/BNav_EC2/DepthDuration/v2_depth_duration_MTurk/v2_DepthDuration_HTML.html#45,45,1360,768,1360,768,8-21-2022,9-43-31,142,depth_duration_stimuli/000502_2014-06-08_23-02-32_260595134347_rgbf000063-resize_4/000502_2014-06-08_23-02-32_260595134347_rgbf000063-resize_4-target.png,125,2.431,7,3422,137,feet,jsons/VE125_randls_65_rotated.json,709362,988098,44,Woman
142,315058,DepthScenes,duration_manipulation_targetAtFixation,jsons/VE125_randls_65_rotated.json,http://54.235.29.9/FacialAge/BNav_EC2/DepthDuration/v2_depth_duration_MTurk/v2_DepthDuration_HTML.html#45,45,1360,768,1360,768,8-21-2022,9-43-31,143,depth_duration_stimuli/001199_2014-06-17_16-03-48_260595134347_rgbf000077-resize_0/001199_2014-06-17_16-03-48_260595134347_rgbf000077-resize_0-target.png,125,3.4375,13,4114,136,feet,jsons/VE125_randls_65_rotated.json,709362,988098,44,Woman
143,315058,DepthScenes,duration_manipulation_targetAtFixation,jsons/VE125_randls_65_rotated.json,http://54.235.29.9/FacialAge/BNav_EC2/DepthDuration/v2_depth_duration_MTurk/v2_DepthDuration_HTML.html#45,45,1360,768,1360,768,8-21-2022,9-43-31,144,depth_duration_stimuli/003081_2014-06-15_15-19-16_094959634447_rgbf000150-resize_1/003081_2014-06-15_15-19-16_094959634447_rgbf000150-resize_1-target.png,125,3.9125,14,4072,114,feet,jsons/VE125_randls_65_rotated.json,709362,988098,44,Woman
144,315058,DepthScenes,duration_manipulation_targetAtFixation,jsons/VE125_randls_65_rotated.json,http://54.235.29.9/FacialAge/BNav_EC2/DepthDuration/v2_depth_duration_MTurk/v2_DepthDuration_HTML.html#45,45,1360,768,1360,768,8-21-2022,9-43-31,145,depth_duration_stimuli/001417_2014-06-19_16-25-36_260595134347_rgbf000115-resize_5/001417_2014-06-19_16-25-36_260595134347_rgbf000115-resize_5-target.png,125,4.6255,14,4178,121,feet,jsons/VE125_randls_65_rotated.json,709362,988098,44,Woman
145,315058,DepthScenes,duration_manipulation_targetAtFixation,jsons/VE125_randls_65_rotated.json,http://54.235.29.9/FacialAge/BNav_EC2/DepthDuration/v2_depth_duration_MTurk/v2_DepthDuration_HTML.html#45,45,1360,768,1360,768,8-21-2022,9-43-31,146,depth_duration_stimuli/003079_2014-06-15_15-18-20_094959634447_rgbf000152-resize_8/003079_2014-06-15_15-18-20_094959634447_rgbf000152-resize_8-target.png,125,2.8775,15,3994,133,feet,jsons/VE125_randls_65_rotated.json,709362,988098,44,Woman
146,315058,DepthScenes,duration_manipulation_targetAtFixation,jsons/VE125_randls_65_rotated.json,http://54.235.29.9/FacialAge/BNav_EC2/DepthDuration/v2_depth_duration_MTurk/v2_DepthDuration_HTML.html#45,45,1360,768,1360,768,8-21-2022,9-43-31,147,depth_duration_stimuli/000506_2014-06-08_23-21-00_260595134347_rgbf000070-resize_7/000506_2014-06-08_23-21-00_260595134347_rgbf000070-resize_7-target.png,125,4.0585,15,3130,139,feet,jsons/VE125_randls_65_rotated.json,709362,988098,44,Woman
147,315058,DepthScenes,duration_manipulation_targetAtFixation,jsons/VE125_randls_65_rotated.json,http://54.235.29.9/FacialAge/BNav_EC2/DepthDuration/v2_depth_duration_MTurk/v2_DepthDuration_HTML.html#45,45,1360,768,1360,768,8-21-2022,9-43-31,148,depth_duration_stimuli/002199_2014-06-28_18-33-56_260595134347_rgbf000074-resize_0/002199_2014-06-28_18-33-56_260595134347_rgbf000074-resize_0-target.png,125,1.996,4,3095,113,feet,jsons/VE125_randls_65_rotated.json,709362,988098,44,Woman
148,315058,DepthScenes,duration_manipulation_targetAtFixation,jsons/VE125_randls_65_rotated.json,http://54.235.29.9/FacialAge/BNav_EC2/DepthDuration/v2_depth_duration_MTurk/v2_DepthDuration_HTML.html#45,45,1360,768,1360,768,8-21-2022,9-43-31,149,depth_duration_stimuli/001056_2014-06-08_18-46-44_260595134347_rgbf000068-resize_0/001056_2014-06-08_18-46-44_260595134347_rgbf000068-resize_0-target.png,125,2.6625,8,3156,122,feet,jsons/VE125_randls_65_rotated.json,709362,988098,44,Woman
149,315058,DepthScenes,duration_manipulation_targetAtFixation,jsons/VE125_randls_65_rotated.json,http://54.235.29.9/FacialAge/BNav_EC2/DepthDuration/v2_depth_duration_MTurk/v2_DepthDuration_HTML.html#45,45,1360,768,1360,768,8-21-2022,9-43-31,150,depth_duration_stimuli/002660_2014-06-13_15-44-18_094959634447_rgbf001878-resize_2/002660_2014-06-13_15-44-18_094959634447_rgbf001878-resize_2-target.png,125,3.576,11,3479,134,feet,jsons/VE125_randls_65_rotated.json,709362,988098,44,Woman
150,315058,DepthScenes,duration_manipulation_targetAtFixation,jsons/VE125_randls_65_rotated.json,http://54.235.29.9/FacialAge/BNav_EC2/DepthDuration/v2_depth_duration_MTurk/v2_DepthDuration_HTML.html#45,45,1360,768,1360,768,8-21-2022,9-43-31,151,depth_duration_stimuli/002153_2014-06-25_21-27-18_260595134347_rgbf000038-resize_5/002153_2014-06-25_21-27-18_260595134347_rgbf000038-resize_5-target.png,125,2.505,8,2883,111,feet,jsons/VE125_randls_65_rotated.json,709362,988098,44,Woman
151,315058,DepthScenes,duration_manipulation_targetAtFixation,jsons/VE125_randls_65_rotated.json,http://54.235.29.9/FacialAge/BNav_EC2/DepthDuration/v2_depth_duration_MTurk/v2_DepthDuration_HTML.html#45,45,1360,768,1360,768,8-21-2022,9-43-31,152,depth_duration_stimuli/000569_2014-06-09_22-51-47_260595134347_rgbf000141-resize_3/000569_2014-06-09_22-51-47_260595134347_rgbf000141-resize-original.jpg,125,4.512,0,3313,124,feet,jsons/VE125_randls_65_rotated.json,709362,988098,44,Woman
152,315058,DepthScenes,duration_manipulation_targetAtFixation,jsons/VE125_randls_65_rotated.json,http://54.235.29.9/FacialAge/BNav_EC2/DepthDuration/v2_depth_duration_MTurk/v2_DepthDuration_HTML.html#45,45,1360,768,1360,768,8-21-2022,9-43-31,153,depth_duration_stimuli/001571_2014-06-20_17-21-32_260595134347_rgbf000089-resize_1/001571_2014-06-20_17-21-32_260595134347_rgbf000089-resize_1-target.png,125,1.86,6,3074,129,feet,jsons/VE125_randls_65_rotated.json,709362,988098,44,Woman
153,315058,DepthScenes,duration_manipulation_targetAtFixation,jsons/VE125_randls_65_rotated.json,http://54.235.29.9/FacialAge/BNav_EC2/DepthDuration/v2_depth_duration_MTurk/v2_DepthDuration_HTML.html#45,45,1360,768,1360,768,8-21-2022,9-43-31,154,depth_duration_stimuli/002272_2014-06-28_18-53-56_260595134347_rgbf000067-resize_2/002272_2014-06-28_18-53-56_260595134347_rgbf000067-resize_2-target.png,125,1.138,5,2806,115,feet,jsons/VE125_randls_65_rotated.json,709362,988098,44,Woman
154,315058,DepthScenes,duration_manipulation_targetAtFixation,jsons/VE125_randls_65_rotated.json,http://54.235.29.9/FacialAge/BNav_EC2/DepthDuration/v2_depth_duration_MTurk/v2_DepthDuration_HTML.html#45,45,1360,768,1360,768,8-21-2022,9-43-31,155,depth_duration_stimuli/003129_2014-05-12_10-48-10_094959634447_rgbf000100-resize_0/003129_2014-05-12_10-48-10_094959634447_rgbf000100-resize_0-target.png,125,4.9305,10,3582,130,feet,jsons/VE125_randls_65_rotated.json,709362,988098,44,Woman
155,315058,DepthScenes,duration_manipulation_targetAtFixation,jsons/VE125_randls_65_rotated.json,http://54.235.29.9/FacialAge/BNav_EC2/DepthDuration/v2_depth_duration_MTurk/v2_DepthDuration_HTML.html#45,45,1360,768,1360,768,8-21-2022,9-43-31,156,depth_duration_stimuli/000414_2014-06-04_19-49-13_260595134347_rgbf000044-resize_0/000414_2014-06-04_19-49-13_260595134347_rgbf000044-resize_0-target.png,125,4.329,18,4736,126,feet,jsons/VE125_randls_65_rotated.json,709362,988098,44,Woman
156,315058,DepthScenes,duration_manipulation_targetAtFixation,jsons/VE125_randls_65_rotated.json,http://54.235.29.9/FacialAge/BNav_EC2/DepthDuration/v2_depth_duration_MTurk/v2_DepthDuration_HTML.html#45,45,1360,768,1360,768,8-21-2022,9-43-31,157,depth_duration_stimuli/001392_2014-06-19_16-07-59_260595134347_rgbf000046-resize_1/001392_2014-06-19_16-07-59_260595134347_rgbf000046-resize_1-target.png,125,4.135,17,3243,120,feet,jsons/VE125_randls_65_rotated.json,709362,988098,44,Woman
157,315058,DepthScenes,duration_manipulation_targetAtFixation,jsons/VE125_randls_65_rotated.json,http://54.235.29.9/FacialAge/BNav_EC2/DepthDuration/v2_depth_duration_MTurk/v2_DepthDuration_HTML.html#45,45,1360,768,1360,768,8-21-2022,9-43-31,158,depth_duration_stimuli/001570_2014-06-20_17-21-09_260595134347_rgbf000135-resize_4/001570_2014-06-20_17-21-09_260595134347_rgbf000135-resize_4-target.png,125,4.467,16,3718,131,feet,jsons/VE125_randls_65_rotated.json,709362,988098,44,Woman
158,315058,DepthScenes,duration_manipulation_targetAtFixation,jsons/VE125_randls_65_rotated.json,http://54.235.29.9/FacialAge/BNav_EC2/DepthDuration/v2_depth_duration_MTurk/v2_DepthDuration_HTML.html#45,45,1360,768,1360,768,8-21-2022,9-43-31,159,depth_duration_stimuli/002103_2014-06-25_20-00-40_260595134347_rgbf000049-resize_0/002103_2014-06-25_20-00-40_260595134347_rgbf000049-resize_0-target.png,125,4.105,7,3664,115,feet,jsons/VE125_randls_65_rotated.json,709362,988098,44,Woman
159,315058,DepthScenes,duration_manipulation_targetAtFixation,jsons/VE125_randls_65_rotated.json,http://54.235.29.9/FacialAge/BNav_EC2/DepthDuration/v2_depth_duration_MTurk/v2_DepthDuration_HTML.html#45,45,1360,768,1360,768,8-21-2022,9-43-31,160,depth_duration_stimuli/002039_2014-06-24_20-22-38_260595134347_rgbf000084-resize_1/002039_2014-06-24_20-22-38_260595134347_rgbf000084-resize_1-target.png,125,4.408,12,3608,134,feet,jsons/VE125_randls_65_rotated.json,709362,988098,44,Woman
160,315058,DepthScenes,duration_manipulation_targetAtFixation,jsons/VE125_randls_65_rotated.json,http://54.235.29.9/FacialAge/BNav_EC2/DepthDuration/v2_depth_duration_MTurk/v2_DepthDuration_HTML.html#45,45,1360,768,1360,768,8-21-2022,9-43-31,161,depth_duration_stimuli/000709_2014-06-08_13-51-55_260595134347_rgbf000068-resize_3/000709_2014-06-08_13-51-55_260595134347_rgbf000068-resize_3-target.png,125,1.8030000000000002,9,3171,115,feet,jsons/VE125_randls_65_rotated.json,709362,988098,44,Woman
161,315058,DepthScenes,duration_manipulation_targetAtFixation,jsons/VE125_randls_65_rotated.json,http://54.235.29.9/FacialAge/BNav_EC2/DepthDuration/v2_depth_duration_MTurk/v2_DepthDuration_HTML.html#45,45,1360,768,1360,768,8-21-2022,9-43-31,162,depth_duration_stimuli/002057_2014-06-24_21-00-13_260595134347_rgbf000120-resize_1/002057_2014-06-24_21-00-13_260595134347_rgbf000120-resize_1-target.png,125,2.967,11,4227,117,feet,jsons/VE125_randls_65_rotated.json,709362,988098,44,Woman
162,315058,DepthScenes,duration_manipulation_targetAtFixation,jsons/VE125_randls_65_rotated.json,http://54.235.29.9/FacialAge/BNav_EC2/DepthDuration/v2_depth_duration_MTurk/v2_DepthDuration_HTML.html#45,45,1360,768,1360,768,8-21-2022,9-43-31,163,depth_duration_stimuli/000549_2014-06-08_22-10-24_260595134347_rgbf000247-resize_3/000549_2014-06-08_22-10-24_260595134347_rgbf000247-resize_3-target.png,125,1.841,4,3627,121,feet,jsons/VE125_randls_65_rotated.json,709362,988098,44,Woman
163,315058,DepthScenes,duration_manipulation_targetAtFixation,jsons/VE125_randls_65_rotated.json,http://54.235.29.9/FacialAge/BNav_EC2/DepthDuration/v2_depth_duration_MTurk/v2_DepthDuration_HTML.html#45,45,1360,768,1360,768,8-21-2022,9-43-31,164,depth_duration_stimuli/001055_2014-06-08_18-45-35_260595134347_rgbf000111-resize_4/001055_2014-06-08_18-45-35_260595134347_rgbf000111-resize_4-target.png,125,2.4290000000000003,14,3947,131,feet,jsons/VE125_randls_65_rotated.json,709362,988098,44,Woman
