,subjID,experimentName,versionName,sequenceName,url,selected_row,windowWidth,windowHeight,screenWidth,screenHeight,startDate,startTime,trial,stimulus,duration,actual_depth,depth_estimate,trial_RT,log_sceneDuration,unitSelection,seq_filepath,experimentTime,totalTime,age,gender
0,315674,DepthScenes,duration_manipulation_targetAtFixation,jsons/VE125_randls_0_rotated.json,http://54.235.29.9/FacialAge/BNav_EC2/DepthDuration/v2_depth_duration_MTurk/v2_DepthDuration_HTML.html#150,150,1364,768,1364,768,8-21-2022,10-35-43,1,depth_duration_stimuli/000854_2014-06-09_19-43-13_260595134347_rgbf000066-resize_0/000854_2014-06-09_19-43-13_260595134347_rgbf000066-resize_0-target.png,125,3.068,2,12259,124,feet,jsons/VE125_randls_0_rotated.json,987917,1499326,30,Woman
1,315674,DepthScenes,duration_manipulation_targetAtFixation,jsons/VE125_randls_0_rotated.json,http://54.235.29.9/FacialAge/BNav_EC2/DepthDuration/v2_depth_duration_MTurk/v2_DepthDuration_HTML.html#150,150,1364,768,1364,768,8-21-2022,10-35-43,2,depth_duration_stimuli/000758_2014-06-08_22-05-08_260595134347_rgbf000085-resize_0/000758_2014-06-08_22-05-08_260595134347_rgbf000085-resize_0-target.png,125,3.3810000000000002,3,8081,123,feet,jsons/VE125_randls_0_rotated.json,987917,1499326,30,Woman
2,315674,DepthScenes,duration_manipulation_targetAtFixation,jsons/VE125_randls_0_rotated.json,http://54.235.29.9/FacialAge/BNav_EC2/DepthDuration/v2_depth_duration_MTurk/v2_DepthDuration_HTML.html#150,150,1364,768,1364,768,8-21-2022,10-35-43,3,depth_duration_stimuli/002103_2014-06-25_20-00-40_260595134347_rgbf000049-resize_0/002103_2014-06-25_20-00-40_260595134347_rgbf000049-resize_0-target.png,125,4.105,4,8688,135,feet,jsons/VE125_randls_0_rotated.json,987917,1499326,30,Woman
3,315674,DepthScenes,duration_manipulation_targetAtFixation,jsons/VE125_randls_0_rotated.json,http://54.235.29.9/FacialAge/BNav_EC2/DepthDuration/v2_depth_duration_MTurk/v2_DepthDuration_HTML.html#150,150,1364,768,1364,768,8-21-2022,10-35-43,4,depth_duration_stimuli/002039_2014-06-24_20-22-38_260595134347_rgbf000084-resize_1/002039_2014-06-24_20-22-38_260595134347_rgbf000084-resize_1-target.png,125,4.408,6,7236,116,feet,jsons/VE125_randls_0_rotated.json,987917,1499326,30,Woman
4,315674,DepthScenes,duration_manipulation_targetAtFixation,jsons/VE125_randls_0_rotated.json,http://54.235.29.9/FacialAge/BNav_EC2/DepthDuration/v2_depth_duration_MTurk/v2_DepthDuration_HTML.html#150,150,1364,768,1364,768,8-21-2022,10-35-43,5,depth_duration_stimuli/000742_2014-06-08_18-48-09_260595134347_rgbf000164-resize_4/000742_2014-06-08_18-48-09_260595134347_rgbf000164-resize_4-target.png,125,4.632,4,6317,126,feet,jsons/VE125_randls_0_rotated.json,987917,1499326,30,Woman
5,315674,DepthScenes,duration_manipulation_targetAtFixation,jsons/VE125_randls_0_rotated.json,http://54.235.29.9/FacialAge/BNav_EC2/DepthDuration/v2_depth_duration_MTurk/v2_DepthDuration_HTML.html#150,150,1364,768,1364,768,8-21-2022,10-35-43,6,depth_duration_stimuli/001066_2014-06-08_22-03-20_260595134347_rgbf000066-resize_4/001066_2014-06-08_22-03-20_260595134347_rgbf000066-resize_4-target.png,125,4.2330000000000005,5,5736,117,feet,jsons/VE125_randls_0_rotated.json,987917,1499326,30,Woman
6,315674,DepthScenes,duration_manipulation_targetAtFixation,jsons/VE125_randls_0_rotated.json,http://54.235.29.9/FacialAge/BNav_EC2/DepthDuration/v2_depth_duration_MTurk/v2_DepthDuration_HTML.html#150,150,1364,768,1364,768,8-21-2022,10-35-43,7,depth_duration_stimuli/002568_2014-06-24_13-59-21_094959634447_rgbf000062-resize_4/002568_2014-06-24_13-59-21_094959634447_rgbf000062-resize_4-target.png,125,3.015,3,11515,123,feet,jsons/VE125_randls_0_rotated.json,987917,1499326,30,Woman
7,315674,DepthScenes,duration_manipulation_targetAtFixation,jsons/VE125_randls_0_rotated.json,http://54.235.29.9/FacialAge/BNav_EC2/DepthDuration/v2_depth_duration_MTurk/v2_DepthDuration_HTML.html#150,150,1364,768,1364,768,8-21-2022,10-35-43,8,depth_duration_stimuli/003492_2014-05-21_15-50-55_094959634447_rgbf000828-resize_1/003492_2014-05-21_15-50-55_094959634447_rgbf000828-resize_1-target.png,125,4.06875,3,5588,124,feet,jsons/VE125_randls_0_rotated.json,987917,1499326,30,Woman
8,315674,DepthScenes,duration_manipulation_targetAtFixation,jsons/VE125_randls_0_rotated.json,http://54.235.29.9/FacialAge/BNav_EC2/DepthDuration/v2_depth_duration_MTurk/v2_DepthDuration_HTML.html#150,150,1364,768,1364,768,8-21-2022,10-35-43,9,depth_duration_stimuli/002637_2014-06-24_14-51-13_094959634447_rgbf000066-resize_4/002637_2014-06-24_14-51-13_094959634447_rgbf000066-resize_4-target.png,125,1.9955,2,6249,136,feet,jsons/VE125_randls_0_rotated.json,987917,1499326,30,Woman
9,315674,DepthScenes,duration_manipulation_targetAtFixation,jsons/VE125_randls_0_rotated.json,http://54.235.29.9/FacialAge/BNav_EC2/DepthDuration/v2_depth_duration_MTurk/v2_DepthDuration_HTML.html#150,150,1364,768,1364,768,8-21-2022,10-35-43,10,depth_duration_stimuli/003534_2014-05-22_15-06-10_094959634447_rgbf000102-resize_4/003534_2014-05-22_15-06-10_094959634447_rgbf000102-resize_4-target.png,125,1.426,3,4390,122,feet,jsons/VE125_randls_0_rotated.json,987917,1499326,30,Woman
10,315674,DepthScenes,duration_manipulation_targetAtFixation,jsons/VE125_randls_0_rotated.json,http://54.235.29.9/FacialAge/BNav_EC2/DepthDuration/v2_depth_duration_MTurk/v2_DepthDuration_HTML.html#150,150,1364,768,1364,768,8-21-2022,10-35-43,11,depth_duration_stimuli/000556_2014-06-09_22-42-56_260595134347_rgbf000214-resize_1/000556_2014-06-09_22-42-56_260595134347_rgbf000214-resize_1-target.png,125,4.8415,3,6878,124,feet,jsons/VE125_randls_0_rotated.json,987917,1499326,30,Woman
11,315674,DepthScenes,duration_manipulation_targetAtFixation,jsons/VE125_randls_0_rotated.json,http://54.235.29.9/FacialAge/BNav_EC2/DepthDuration/v2_depth_duration_MTurk/v2_DepthDuration_HTML.html#150,150,1364,768,1364,768,8-21-2022,10-35-43,12,depth_duration_stimuli/001158_2014-06-17_15-32-16_260595134347_rgbf000138-resize_2/001158_2014-06-17_15-32-16_260595134347_rgbf000138-resize_2-target.png,125,4.5315,4,6201,154,feet,jsons/VE125_randls_0_rotated.json,987917,1499326,30,Woman
12,315674,DepthScenes,duration_manipulation_targetAtFixation,jsons/VE125_randls_0_rotated.json,http://54.235.29.9/FacialAge/BNav_EC2/DepthDuration/v2_depth_duration_MTurk/v2_DepthDuration_HTML.html#150,150,1364,768,1364,768,8-21-2022,10-35-43,13,depth_duration_stimuli/002545_2014-06-24_13-38-53_094959634447_rgbf000080-resize_4/002545_2014-06-24_13-38-53_094959634447_rgbf000080-resize_4-target.png,125,1.9205,4,5409,113,feet,jsons/VE125_randls_0_rotated.json,987917,1499326,30,Woman
13,315674,DepthScenes,duration_manipulation_targetAtFixation,jsons/VE125_randls_0_rotated.json,http://54.235.29.9/FacialAge/BNav_EC2/DepthDuration/v2_depth_duration_MTurk/v2_DepthDuration_HTML.html#150,150,1364,768,1364,768,8-21-2022,10-35-43,14,depth_duration_stimuli/001092_2014-06-15_17-34-58_260595134347_rgbf000171-resize_3/001092_2014-06-15_17-34-58_260595134347_rgbf000171-resize_3-target.png,125,2.6935,4,5862,113,feet,jsons/VE125_randls_0_rotated.json,987917,1499326,30,Woman
14,315674,DepthScenes,duration_manipulation_targetAtFixation,jsons/VE125_randls_0_rotated.json,http://54.235.29.9/FacialAge/BNav_EC2/DepthDuration/v2_depth_duration_MTurk/v2_DepthDuration_HTML.html#150,150,1364,768,1364,768,8-21-2022,10-35-43,15,depth_duration_stimuli/000191_2014-05-12_17-07-38_260595134347_rgbf000199-resize_0/000191_2014-05-12_17-07-38_260595134347_rgbf000199-resize_0-target.png,125,3.7995,5,14172,113,feet,jsons/VE125_randls_0_rotated.json,987917,1499326,30,Woman
15,315674,DepthScenes,duration_manipulation_targetAtFixation,jsons/VE125_randls_0_rotated.json,http://54.235.29.9/FacialAge/BNav_EC2/DepthDuration/v2_depth_duration_MTurk/v2_DepthDuration_HTML.html#150,150,1364,768,1364,768,8-21-2022,10-35-43,16,depth_duration_stimuli/000493_2014-06-09_21-01-18_260595134347_rgbf000196-resize_3/000493_2014-06-09_21-01-18_260595134347_rgbf000196-resize_3-target.png,125,3.44,3,4518,134,feet,jsons/VE125_randls_0_rotated.json,987917,1499326,30,Woman
16,315674,DepthScenes,duration_manipulation_targetAtFixation,jsons/VE125_randls_0_rotated.json,http://54.235.29.9/FacialAge/BNav_EC2/DepthDuration/v2_depth_duration_MTurk/v2_DepthDuration_HTML.html#150,150,1364,768,1364,768,8-21-2022,10-35-43,17,depth_duration_stimuli/002444_2014-06-28_20-32-08_260595134347_rgbf000027-resize_0/002444_2014-06-28_20-32-08_260595134347_rgbf000027-resize_0-target.png,125,4.388999999999999,4,6101,123,feet,jsons/VE125_randls_0_rotated.json,987917,1499326,30,Woman
17,315674,DepthScenes,duration_manipulation_targetAtFixation,jsons/VE125_randls_0_rotated.json,http://54.235.29.9/FacialAge/BNav_EC2/DepthDuration/v2_depth_duration_MTurk/v2_DepthDuration_HTML.html#150,150,1364,768,1364,768,8-21-2022,10-35-43,18,depth_duration_stimuli/000436_2014-06-09_22-25-11_260595134347_rgbf000137-resize_1/000436_2014-06-09_22-25-11_260595134347_rgbf000137-resize_1-target.png,125,4.0705,2,4288,126,feet,jsons/VE125_randls_0_rotated.json,987917,1499326,30,Woman
18,315674,DepthScenes,duration_manipulation_targetAtFixation,jsons/VE125_randls_0_rotated.json,http://54.235.29.9/FacialAge/BNav_EC2/DepthDuration/v2_depth_duration_MTurk/v2_DepthDuration_HTML.html#150,150,1364,768,1364,768,8-21-2022,10-35-43,19,depth_duration_stimuli/001498_2014-06-19_17-45-14_260595134347_rgbf000129-resize_4/001498_2014-06-19_17-45-14_260595134347_rgbf000129-resize-original.jpg,125,1.4075,0,7359,125,feet,jsons/VE125_randls_0_rotated.json,987917,1499326,30,Woman
19,315674,DepthScenes,duration_manipulation_targetAtFixation,jsons/VE125_randls_0_rotated.json,http://54.235.29.9/FacialAge/BNav_EC2/DepthDuration/v2_depth_duration_MTurk/v2_DepthDuration_HTML.html#150,150,1364,768,1364,768,8-21-2022,10-35-43,20,depth_duration_stimuli/000109_2014-05-14_23-41-52_260595134347_rgbf000035-resize_9/000109_2014-05-14_23-41-52_260595134347_rgbf000035-resize_9-target.png,125,1.3545,1,8758,133,feet,jsons/VE125_randls_0_rotated.json,987917,1499326,30,Woman
20,315674,DepthScenes,duration_manipulation_targetAtFixation,jsons/VE125_randls_0_rotated.json,http://54.235.29.9/FacialAge/BNav_EC2/DepthDuration/v2_depth_duration_MTurk/v2_DepthDuration_HTML.html#150,150,1364,768,1364,768,8-21-2022,10-35-43,21,depth_duration_stimuli/000470_2014-06-09_19-42-40_260595134347_rgbf000094-resize_1/000470_2014-06-09_19-42-40_260595134347_rgbf000094-resize_1-target.png,125,1.831,3,6349,125,feet,jsons/VE125_randls_0_rotated.json,987917,1499326,30,Woman
21,315674,DepthScenes,duration_manipulation_targetAtFixation,jsons/VE125_randls_0_rotated.json,http://54.235.29.9/FacialAge/BNav_EC2/DepthDuration/v2_depth_duration_MTurk/v2_DepthDuration_HTML.html#150,150,1364,768,1364,768,8-21-2022,10-35-43,22,depth_duration_stimuli/002414_2014-06-28_20-24-58_260595134347_rgbf000067-resize_4/002414_2014-06-28_20-24-58_260595134347_rgbf000067-resize_4-target.png,125,4.363,4,9357,129,feet,jsons/VE125_randls_0_rotated.json,987917,1499326,30,Woman
22,315674,DepthScenes,duration_manipulation_targetAtFixation,jsons/VE125_randls_0_rotated.json,http://54.235.29.9/FacialAge/BNav_EC2/DepthDuration/v2_depth_duration_MTurk/v2_DepthDuration_HTML.html#150,150,1364,768,1364,768,8-21-2022,10-35-43,23,depth_duration_stimuli/000773_2014-06-08_22-24-54_260595134347_rgbf000093-resize_1/000773_2014-06-08_22-24-54_260595134347_rgbf000093-resize_1-target.png,125,4.973,4,4216,110,feet,jsons/VE125_randls_0_rotated.json,987917,1499326,30,Woman
23,315674,DepthScenes,duration_manipulation_targetAtFixation,jsons/VE125_randls_0_rotated.json,http://54.235.29.9/FacialAge/BNav_EC2/DepthDuration/v2_depth_duration_MTurk/v2_DepthDuration_HTML.html#150,150,1364,768,1364,768,8-21-2022,10-35-43,24,depth_duration_stimuli/000927_2014-06-09_16-32-30_260595134347_rgbf000123-resize_3/000927_2014-06-09_16-32-30_260595134347_rgbf000123-resize_3-target.png,125,2.6785,4,6609,125,feet,jsons/VE125_randls_0_rotated.json,987917,1499326,30,Woman
24,315674,DepthScenes,duration_manipulation_targetAtFixation,jsons/VE125_randls_0_rotated.json,http://54.235.29.9/FacialAge/BNav_EC2/DepthDuration/v2_depth_duration_MTurk/v2_DepthDuration_HTML.html#150,150,1364,768,1364,768,8-21-2022,10-35-43,25,depth_duration_stimuli/001110_2014-06-15_17-25-28_260595134347_rgbf000150-resize_1/001110_2014-06-15_17-25-28_260595134347_rgbf000150-resize_1-target.png,125,1.7115,5,4174,124,feet,jsons/VE125_randls_0_rotated.json,987917,1499326,30,Woman
25,315674,DepthScenes,duration_manipulation_targetAtFixation,jsons/VE125_randls_0_rotated.json,http://54.235.29.9/FacialAge/BNav_EC2/DepthDuration/v2_depth_duration_MTurk/v2_DepthDuration_HTML.html#150,150,1364,768,1364,768,8-21-2022,10-35-43,26,depth_duration_stimuli/000665_2014-06-09_20-42-35_260595134347_rgbf000110-resize_1/000665_2014-06-09_20-42-35_260595134347_rgbf000110-resize_1-target.png,125,3.057,3,5301,136,feet,jsons/VE125_randls_0_rotated.json,987917,1499326,30,Woman
26,315674,DepthScenes,duration_manipulation_targetAtFixation,jsons/VE125_randls_0_rotated.json,http://54.235.29.9/FacialAge/BNav_EC2/DepthDuration/v2_depth_duration_MTurk/v2_DepthDuration_HTML.html#150,150,1364,768,1364,768,8-21-2022,10-35-43,27,depth_duration_stimuli/001150_2014-06-17_15-27-34_260595134347_rgbf000108-resize_2/001150_2014-06-17_15-27-34_260595134347_rgbf000108-resize_2-target.png,125,4.0325,4,5028,125,feet,jsons/VE125_randls_0_rotated.json,987917,1499326,30,Woman
27,315674,DepthScenes,duration_manipulation_targetAtFixation,jsons/VE125_randls_0_rotated.json,http://54.235.29.9/FacialAge/BNav_EC2/DepthDuration/v2_depth_duration_MTurk/v2_DepthDuration_HTML.html#150,150,1364,768,1364,768,8-21-2022,10-35-43,28,depth_duration_stimuli/002875_2014-06-01_15-19-00_094959634447_rgbf000151-resize_1/002875_2014-06-01_15-19-00_094959634447_rgbf000151-resize_1-target.png,125,1.9675,2,6443,123,feet,jsons/VE125_randls_0_rotated.json,987917,1499326,30,Woman
28,315674,DepthScenes,duration_manipulation_targetAtFixation,jsons/VE125_randls_0_rotated.json,http://54.235.29.9/FacialAge/BNav_EC2/DepthDuration/v2_depth_duration_MTurk/v2_DepthDuration_HTML.html#150,150,1364,768,1364,768,8-21-2022,10-35-43,29,depth_duration_stimuli/001011_2014-06-08_23-18-54_260595134347_rgbf000044-resize_4/001011_2014-06-08_23-18-54_260595134347_rgbf000044-resize_4-target.png,125,2.4730000000000003,3,6993,124,feet,jsons/VE125_randls_0_rotated.json,987917,1499326,30,Woman
29,315674,DepthScenes,duration_manipulation_targetAtFixation,jsons/VE125_randls_0_rotated.json,http://54.235.29.9/FacialAge/BNav_EC2/DepthDuration/v2_depth_duration_MTurk/v2_DepthDuration_HTML.html#150,150,1364,768,1364,768,8-21-2022,10-35-43,30,depth_duration_stimuli/002072_2014-06-24_21-48-06_260595134347_rgbf000115-resize_0/002072_2014-06-24_21-48-06_260595134347_rgbf000115-resize-original.jpg,125,4.702,0,5427,124,feet,jsons/VE125_randls_0_rotated.json,987917,1499326,30,Woman
30,315674,DepthScenes,duration_manipulation_targetAtFixation,jsons/VE125_randls_0_rotated.json,http://54.235.29.9/FacialAge/BNav_EC2/DepthDuration/v2_depth_duration_MTurk/v2_DepthDuration_HTML.html#150,150,1364,768,1364,768,8-21-2022,10-35-43,31,depth_duration_stimuli/000549_2014-06-08_22-10-24_260595134347_rgbf000247-resize_3/000549_2014-06-08_22-10-24_260595134347_rgbf000247-resize_3-target.png,125,1.841,2,4969,124,feet,jsons/VE125_randls_0_rotated.json,987917,1499326,30,Woman
31,315674,DepthScenes,duration_manipulation_targetAtFixation,jsons/VE125_randls_0_rotated.json,http://54.235.29.9/FacialAge/BNav_EC2/DepthDuration/v2_depth_duration_MTurk/v2_DepthDuration_HTML.html#150,150,1364,768,1364,768,8-21-2022,10-35-43,32,depth_duration_stimuli/001055_2014-06-08_18-45-35_260595134347_rgbf000111-resize_4/001055_2014-06-08_18-45-35_260595134347_rgbf000111-resize_4-target.png,125,2.4290000000000003,3,7708,124,feet,jsons/VE125_randls_0_rotated.json,987917,1499326,30,Woman
32,315674,DepthScenes,duration_manipulation_targetAtFixation,jsons/VE125_randls_0_rotated.json,http://54.235.29.9/FacialAge/BNav_EC2/DepthDuration/v2_depth_duration_MTurk/v2_DepthDuration_HTML.html#150,150,1364,768,1364,768,8-21-2022,10-35-43,33,depth_duration_stimuli/000502_2014-06-08_23-02-32_260595134347_rgbf000063-resize_4/000502_2014-06-08_23-02-32_260595134347_rgbf000063-resize_4-target.png,125,2.431,3,5694,131,feet,jsons/VE125_randls_0_rotated.json,987917,1499326,30,Woman
33,315674,DepthScenes,duration_manipulation_targetAtFixation,jsons/VE125_randls_0_rotated.json,http://54.235.29.9/FacialAge/BNav_EC2/DepthDuration/v2_depth_duration_MTurk/v2_DepthDuration_HTML.html#150,150,1364,768,1364,768,8-21-2022,10-35-43,34,depth_duration_stimuli/001199_2014-06-17_16-03-48_260595134347_rgbf000077-resize_0/001199_2014-06-17_16-03-48_260595134347_rgbf000077-resize_0-target.png,125,3.4375,4,7112,125,feet,jsons/VE125_randls_0_rotated.json,987917,1499326,30,Woman
34,315674,DepthScenes,duration_manipulation_targetAtFixation,jsons/VE125_randls_0_rotated.json,http://54.235.29.9/FacialAge/BNav_EC2/DepthDuration/v2_depth_duration_MTurk/v2_DepthDuration_HTML.html#150,150,1364,768,1364,768,8-21-2022,10-35-43,35,depth_duration_stimuli/003490_2014-05-21_15-50-11_094959634447_rgbf000101-resize_3/003490_2014-05-21_15-50-11_094959634447_rgbf000101-resize_3-target.png,125,3.6445,4,5345,123,feet,jsons/VE125_randls_0_rotated.json,987917,1499326,30,Woman
35,315674,DepthScenes,duration_manipulation_targetAtFixation,jsons/VE125_randls_0_rotated.json,http://54.235.29.9/FacialAge/BNav_EC2/DepthDuration/v2_depth_duration_MTurk/v2_DepthDuration_HTML.html#150,150,1364,768,1364,768,8-21-2022,10-35-43,36,depth_duration_stimuli/001175_2014-06-17_15-45-55_260595134347_rgbf000129-resize_4/001175_2014-06-17_15-45-55_260595134347_rgbf000129-resize_4-target.png,125,4.255,5,4214,123,feet,jsons/VE125_randls_0_rotated.json,987917,1499326,30,Woman
36,315674,DepthScenes,duration_manipulation_targetAtFixation,jsons/VE125_randls_0_rotated.json,http://54.235.29.9/FacialAge/BNav_EC2/DepthDuration/v2_depth_duration_MTurk/v2_DepthDuration_HTML.html#150,150,1364,768,1364,768,8-21-2022,10-35-43,37,depth_duration_stimuli/002949_2014-06-26_15-57-42_094959634447_rgbf000079-resize_1/002949_2014-06-26_15-57-42_094959634447_rgbf000079-resize_1-target.png,125,1.8915,3,5642,123,feet,jsons/VE125_randls_0_rotated.json,987917,1499326,30,Woman
37,315674,DepthScenes,duration_manipulation_targetAtFixation,jsons/VE125_randls_0_rotated.json,http://54.235.29.9/FacialAge/BNav_EC2/DepthDuration/v2_depth_duration_MTurk/v2_DepthDuration_HTML.html#150,150,1364,768,1364,768,8-21-2022,10-35-43,38,depth_duration_stimuli/000522_2014-06-08_13-35-06_260595134347_rgbf000244-resize_1/000522_2014-06-08_13-35-06_260595134347_rgbf000244-resize_1-target.png,125,2.3715,3,4272,124,feet,jsons/VE125_randls_0_rotated.json,987917,1499326,30,Woman
38,315674,DepthScenes,duration_manipulation_targetAtFixation,jsons/VE125_randls_0_rotated.json,http://54.235.29.9/FacialAge/BNav_EC2/DepthDuration/v2_depth_duration_MTurk/v2_DepthDuration_HTML.html#150,150,1364,768,1364,768,8-21-2022,10-35-43,39,depth_duration_stimuli/002340_2014-06-28_20-05-46_260595134347_rgbf000113-resize_0/002340_2014-06-28_20-05-46_260595134347_rgbf000113-resize_0-target.png,125,2.4735,3,4859,123,feet,jsons/VE125_randls_0_rotated.json,987917,1499326,30,Woman
39,315674,DepthScenes,duration_manipulation_targetAtFixation,jsons/VE125_randls_0_rotated.json,http://54.235.29.9/FacialAge/BNav_EC2/DepthDuration/v2_depth_duration_MTurk/v2_DepthDuration_HTML.html#150,150,1364,768,1364,768,8-21-2022,10-35-43,40,depth_duration_stimuli/001016_2014-06-09_16-16-10_260595134347_rgbf000112-resize_5/001016_2014-06-09_16-16-10_260595134347_rgbf000112-resize_5-target.png,125,1.6565,4,5256,135,feet,jsons/VE125_randls_0_rotated.json,987917,1499326,30,Woman
40,315674,DepthScenes,duration_manipulation_targetAtFixation,jsons/VE125_randls_0_rotated.json,http://54.235.29.9/FacialAge/BNav_EC2/DepthDuration/v2_depth_duration_MTurk/v2_DepthDuration_HTML.html#150,150,1364,768,1364,768,8-21-2022,10-35-43,41,depth_duration_stimuli/001100_2014-06-15_17-46-26_260595134347_rgbf000225-resize_2/001100_2014-06-15_17-46-26_260595134347_rgbf000225-resize_2-target.png,125,2.24,3,5718,169,feet,jsons/VE125_randls_0_rotated.json,987917,1499326,30,Woman
41,315674,DepthScenes,duration_manipulation_targetAtFixation,jsons/VE125_randls_0_rotated.json,http://54.235.29.9/FacialAge/BNav_EC2/DepthDuration/v2_depth_duration_MTurk/v2_DepthDuration_HTML.html#150,150,1364,768,1364,768,8-21-2022,10-35-43,42,depth_duration_stimuli/002784_2014-06-22_19-26-30_094959634447_rgbf000083-resize_3/002784_2014-06-22_19-26-30_094959634447_rgbf000083-resize_3-target.png,125,1.8046666666667,2,8599,124,feet,jsons/VE125_randls_0_rotated.json,987917,1499326,30,Woman
42,315674,DepthScenes,duration_manipulation_targetAtFixation,jsons/VE125_randls_0_rotated.json,http://54.235.29.9/FacialAge/BNav_EC2/DepthDuration/v2_depth_duration_MTurk/v2_DepthDuration_HTML.html#150,150,1364,768,1364,768,8-21-2022,10-35-43,43,depth_duration_stimuli/001235_2014-06-17_16-37-36_260595134347_rgbf000084-resize_4/001235_2014-06-17_16-37-36_260595134347_rgbf000084-resize_4-target.png,125,3.6605,3,8935,125,feet,jsons/VE125_randls_0_rotated.json,987917,1499326,30,Woman
43,315674,DepthScenes,duration_manipulation_targetAtFixation,jsons/VE125_randls_0_rotated.json,http://54.235.29.9/FacialAge/BNav_EC2/DepthDuration/v2_depth_duration_MTurk/v2_DepthDuration_HTML.html#150,150,1364,768,1364,768,8-21-2022,10-35-43,44,depth_duration_stimuli/000788_2014-06-08_22-34-36_260595134347_rgbf000131-resize_1/000788_2014-06-08_22-34-36_260595134347_rgbf000131-resize_1-target.png,125,3.359,4,4354,123,feet,jsons/VE125_randls_0_rotated.json,987917,1499326,30,Woman
44,315674,DepthScenes,duration_manipulation_targetAtFixation,jsons/VE125_randls_0_rotated.json,http://54.235.29.9/FacialAge/BNav_EC2/DepthDuration/v2_depth_duration_MTurk/v2_DepthDuration_HTML.html#150,150,1364,768,1364,768,8-21-2022,10-35-43,45,depth_duration_stimuli/002639_2014-06-24_14-51-37_094959634447_rgbf000074-resize_4/002639_2014-06-24_14-51-37_094959634447_rgbf000074-resize_4-target.png,125,4.0375,4,5173,124,feet,jsons/VE125_randls_0_rotated.json,987917,1499326,30,Woman
45,315674,DepthScenes,duration_manipulation_targetAtFixation,jsons/VE125_randls_0_rotated.json,http://54.235.29.9/FacialAge/BNav_EC2/DepthDuration/v2_depth_duration_MTurk/v2_DepthDuration_HTML.html#150,150,1364,768,1364,768,8-21-2022,10-35-43,46,depth_duration_stimuli/003292_2014-05-14_21-53-49_094959634447_rgbf000100-resize_2/003292_2014-05-14_21-53-49_094959634447_rgbf000100-resize_2-target.png,125,3.4815,2,15816,124,feet,jsons/VE125_randls_0_rotated.json,987917,1499326,30,Woman
46,315674,DepthScenes,duration_manipulation_targetAtFixation,jsons/VE125_randls_0_rotated.json,http://54.235.29.9/FacialAge/BNav_EC2/DepthDuration/v2_depth_duration_MTurk/v2_DepthDuration_HTML.html#150,150,1364,768,1364,768,8-21-2022,10-35-43,47,depth_duration_stimuli/003423_2014-05-21_10-23-26_094959634447_rgbf002665-resize_2/003423_2014-05-21_10-23-26_094959634447_rgbf002665-resize_2-target.png,125,3.2575,4,5652,120,feet,jsons/VE125_randls_0_rotated.json,987917,1499326,30,Woman
47,315674,DepthScenes,duration_manipulation_targetAtFixation,jsons/VE125_randls_0_rotated.json,http://54.235.29.9/FacialAge/BNav_EC2/DepthDuration/v2_depth_duration_MTurk/v2_DepthDuration_HTML.html#150,150,1364,768,1364,768,8-21-2022,10-35-43,48,depth_duration_stimuli/002905_2014-06-03_18-04-43_094959634447_rgbf000151-resize_2/002905_2014-06-03_18-04-43_094959634447_rgbf000151-resize_2-target.png,125,2.0295,4,4400,124,feet,jsons/VE125_randls_0_rotated.json,987917,1499326,30,Woman
48,315674,DepthScenes,duration_manipulation_targetAtFixation,jsons/VE125_randls_0_rotated.json,http://54.235.29.9/FacialAge/BNav_EC2/DepthDuration/v2_depth_duration_MTurk/v2_DepthDuration_HTML.html#150,150,1364,768,1364,768,8-21-2022,10-35-43,49,depth_duration_stimuli/001170_2014-06-17_15-43-44_260595134347_rgbf000096-resize_6/001170_2014-06-17_15-43-44_260595134347_rgbf000096-resize-original.jpg,125,1.1909999999999998,0,5092,111,feet,jsons/VE125_randls_0_rotated.json,987917,1499326,30,Woman
49,315674,DepthScenes,duration_manipulation_targetAtFixation,jsons/VE125_randls_0_rotated.json,http://54.235.29.9/FacialAge/BNav_EC2/DepthDuration/v2_depth_duration_MTurk/v2_DepthDuration_HTML.html#150,150,1364,768,1364,768,8-21-2022,10-35-43,50,depth_duration_stimuli/003048_2014-06-15_13-49-43_094959634447_rgbf000150-resize_1/003048_2014-06-15_13-49-43_094959634447_rgbf000150-resize_1-target.png,125,4.0035,3,11508,124,feet,jsons/VE125_randls_0_rotated.json,987917,1499326,30,Woman
50,315674,DepthScenes,duration_manipulation_targetAtFixation,jsons/VE125_randls_0_rotated.json,http://54.235.29.9/FacialAge/BNav_EC2/DepthDuration/v2_depth_duration_MTurk/v2_DepthDuration_HTML.html#150,150,1364,768,1364,768,8-21-2022,10-35-43,51,depth_duration_stimuli/002043_2014-06-24_20-29-38_260595134347_rgbf000039-resize_4/002043_2014-06-24_20-29-38_260595134347_rgbf000039-resize_4-target.png,125,2.8435,4,6017,145,feet,jsons/VE125_randls_0_rotated.json,987917,1499326,30,Woman
51,315674,DepthScenes,duration_manipulation_targetAtFixation,jsons/VE125_randls_0_rotated.json,http://54.235.29.9/FacialAge/BNav_EC2/DepthDuration/v2_depth_duration_MTurk/v2_DepthDuration_HTML.html#150,150,1364,768,1364,768,8-21-2022,10-35-43,52,depth_duration_stimuli/003129_2014-05-12_10-48-10_094959634447_rgbf000100-resize_0/003129_2014-05-12_10-48-10_094959634447_rgbf000100-resize_0-target.png,125,4.9305,4,9168,123,feet,jsons/VE125_randls_0_rotated.json,987917,1499326,30,Woman
52,315674,DepthScenes,duration_manipulation_targetAtFixation,jsons/VE125_randls_0_rotated.json,http://54.235.29.9/FacialAge/BNav_EC2/DepthDuration/v2_depth_duration_MTurk/v2_DepthDuration_HTML.html#150,150,1364,768,1364,768,8-21-2022,10-35-43,53,depth_duration_stimuli/000414_2014-06-04_19-49-13_260595134347_rgbf000044-resize_0/000414_2014-06-04_19-49-13_260595134347_rgbf000044-resize_0-target.png,125,4.329,3,4325,122,feet,jsons/VE125_randls_0_rotated.json,987917,1499326,30,Woman
53,315674,DepthScenes,duration_manipulation_targetAtFixation,jsons/VE125_randls_0_rotated.json,http://54.235.29.9/FacialAge/BNav_EC2/DepthDuration/v2_depth_duration_MTurk/v2_DepthDuration_HTML.html#150,150,1364,768,1364,768,8-21-2022,10-35-43,54,depth_duration_stimuli/003228_2014-05-14_13-42-35_094959634447_rgbf000101-resize_1/003228_2014-05-14_13-42-35_094959634447_rgbf000101-resize_1-target.png,125,1.9680000000000002,4,5202,124,feet,jsons/VE125_randls_0_rotated.json,987917,1499326,30,Woman
54,315674,DepthScenes,duration_manipulation_targetAtFixation,jsons/VE125_randls_0_rotated.json,http://54.235.29.9/FacialAge/BNav_EC2/DepthDuration/v2_depth_duration_MTurk/v2_DepthDuration_HTML.html#150,150,1364,768,1364,768,8-21-2022,10-35-43,55,depth_duration_stimuli/002600_2014-06-24_14-27-04_094959634447_rgbf000074-resize_2/002600_2014-06-24_14-27-04_094959634447_rgbf000074-resize_2-target.png,125,2.7575,3,4402,122,feet,jsons/VE125_randls_0_rotated.json,987917,1499326,30,Woman
55,315674,DepthScenes,duration_manipulation_targetAtFixation,jsons/VE125_randls_0_rotated.json,http://54.235.29.9/FacialAge/BNav_EC2/DepthDuration/v2_depth_duration_MTurk/v2_DepthDuration_HTML.html#150,150,1364,768,1364,768,8-21-2022,10-35-43,56,depth_duration_stimuli/000709_2014-06-08_13-51-55_260595134347_rgbf000068-resize_3/000709_2014-06-08_13-51-55_260595134347_rgbf000068-resize_3-target.png,125,1.8030000000000002,3,4907,124,feet,jsons/VE125_randls_0_rotated.json,987917,1499326,30,Woman
56,315674,DepthScenes,duration_manipulation_targetAtFixation,jsons/VE125_randls_0_rotated.json,http://54.235.29.9/FacialAge/BNav_EC2/DepthDuration/v2_depth_duration_MTurk/v2_DepthDuration_HTML.html#150,150,1364,768,1364,768,8-21-2022,10-35-43,57,depth_duration_stimuli/002057_2014-06-24_21-00-13_260595134347_rgbf000120-resize_1/002057_2014-06-24_21-00-13_260595134347_rgbf000120-resize_1-target.png,125,2.967,5,5021,123,feet,jsons/VE125_randls_0_rotated.json,987917,1499326,30,Woman
57,315674,DepthScenes,duration_manipulation_targetAtFixation,jsons/VE125_randls_0_rotated.json,http://54.235.29.9/FacialAge/BNav_EC2/DepthDuration/v2_depth_duration_MTurk/v2_DepthDuration_HTML.html#150,150,1364,768,1364,768,8-21-2022,10-35-43,58,depth_duration_stimuli/000483_2014-06-09_20-41-45_260595134347_rgbf000116-resize_4/000483_2014-06-09_20-41-45_260595134347_rgbf000116-resize_4-target.png,125,1.337,4,4856,138,feet,jsons/VE125_randls_0_rotated.json,987917,1499326,30,Woman
58,315674,DepthScenes,duration_manipulation_targetAtFixation,jsons/VE125_randls_0_rotated.json,http://54.235.29.9/FacialAge/BNav_EC2/DepthDuration/v2_depth_duration_MTurk/v2_DepthDuration_HTML.html#150,150,1364,768,1364,768,8-21-2022,10-35-43,59,depth_duration_stimuli/000469_2014-06-09_19-42-10_260595134347_rgbf000081-resize_1/000469_2014-06-09_19-42-10_260595134347_rgbf000081-resize_1-target.png,125,1.652,4,4336,124,feet,jsons/VE125_randls_0_rotated.json,987917,1499326,30,Woman
59,315674,DepthScenes,duration_manipulation_targetAtFixation,jsons/VE125_randls_0_rotated.json,http://54.235.29.9/FacialAge/BNav_EC2/DepthDuration/v2_depth_duration_MTurk/v2_DepthDuration_HTML.html#150,150,1364,768,1364,768,8-21-2022,10-35-43,60,depth_duration_stimuli/001516_2014-06-20_16-25-09_260595134347_rgbf000076-resize_2/001516_2014-06-20_16-25-09_260595134347_rgbf000076-resize_2-target.png,125,1.7445,2,4510,123,feet,jsons/VE125_randls_0_rotated.json,987917,1499326,30,Woman
60,315674,DepthScenes,duration_manipulation_targetAtFixation,jsons/VE125_randls_0_rotated.json,http://54.235.29.9/FacialAge/BNav_EC2/DepthDuration/v2_depth_duration_MTurk/v2_DepthDuration_HTML.html#150,150,1364,768,1364,768,8-21-2022,10-35-43,61,depth_duration_stimuli/002118_2014-06-25_20-32-08_260595134347_rgbf000078-resize_1/002118_2014-06-25_20-32-08_260595134347_rgbf000078-resize_1-target.png,125,2.6460000000000004,3,6106,123,feet,jsons/VE125_randls_0_rotated.json,987917,1499326,30,Woman
61,315674,DepthScenes,duration_manipulation_targetAtFixation,jsons/VE125_randls_0_rotated.json,http://54.235.29.9/FacialAge/BNav_EC2/DepthDuration/v2_depth_duration_MTurk/v2_DepthDuration_HTML.html#150,150,1364,768,1364,768,8-21-2022,10-35-43,62,depth_duration_stimuli/000691_2014-06-08_13-08-50_260595134347_rgbf000132-resize_3/000691_2014-06-08_13-08-50_260595134347_rgbf000132-resize_3-target.png,125,4.1530000000000005,3,5138,125,feet,jsons/VE125_randls_0_rotated.json,987917,1499326,30,Woman
62,315674,DepthScenes,duration_manipulation_targetAtFixation,jsons/VE125_randls_0_rotated.json,http://54.235.29.9/FacialAge/BNav_EC2/DepthDuration/v2_depth_duration_MTurk/v2_DepthDuration_HTML.html#150,150,1364,768,1364,768,8-21-2022,10-35-43,63,depth_duration_stimuli/002213_2014-06-28_18-37-58_260595134347_rgbf000055-resize_1/002213_2014-06-28_18-37-58_260595134347_rgbf000055-resize_1-target.png,125,3.62,3,5126,122,feet,jsons/VE125_randls_0_rotated.json,987917,1499326,30,Woman
63,315674,DepthScenes,duration_manipulation_targetAtFixation,jsons/VE125_randls_0_rotated.json,http://54.235.29.9/FacialAge/BNav_EC2/DepthDuration/v2_depth_duration_MTurk/v2_DepthDuration_HTML.html#150,150,1364,768,1364,768,8-21-2022,10-35-43,64,depth_duration_stimuli/003495_2014-05-21_16-01-51_094959634447_rgbf000100-resize_3/003495_2014-05-21_16-01-51_094959634447_rgbf000100-resize_3-target.png,125,1.6255,4,4299,124,feet,jsons/VE125_randls_0_rotated.json,987917,1499326,30,Woman
64,315674,DepthScenes,duration_manipulation_targetAtFixation,jsons/VE125_randls_0_rotated.json,http://54.235.29.9/FacialAge/BNav_EC2/DepthDuration/v2_depth_duration_MTurk/v2_DepthDuration_HTML.html#150,150,1364,768,1364,768,8-21-2022,10-35-43,65,depth_duration_stimuli/001244_2014-06-17_16-47-45_260595134347_rgbf000030-resize_4/001244_2014-06-17_16-47-45_260595134347_rgbf000030-resize_4-target.png,125,2.0425,4,4590,124,feet,jsons/VE125_randls_0_rotated.json,987917,1499326,30,Woman
65,315674,DepthScenes,duration_manipulation_targetAtFixation,jsons/VE125_randls_0_rotated.json,http://54.235.29.9/FacialAge/BNav_EC2/DepthDuration/v2_depth_duration_MTurk/v2_DepthDuration_HTML.html#150,150,1364,768,1364,768,8-21-2022,10-35-43,66,depth_duration_stimuli/001540_2014-06-20_17-01-05_260595134347_rgbf000086-resize_2/001540_2014-06-20_17-01-05_260595134347_rgbf000086-resize-original.jpg,125,1.459,0,4481,124,feet,jsons/VE125_randls_0_rotated.json,987917,1499326,30,Woman
66,315674,DepthScenes,duration_manipulation_targetAtFixation,jsons/VE125_randls_0_rotated.json,http://54.235.29.9/FacialAge/BNav_EC2/DepthDuration/v2_depth_duration_MTurk/v2_DepthDuration_HTML.html#150,150,1364,768,1364,768,8-21-2022,10-35-43,67,depth_duration_stimuli/001032_2014-06-08_13-23-17_260595134347_rgbf000021-resize_3/001032_2014-06-08_13-23-17_260595134347_rgbf000021-resize_3-target.png,125,3.2725,2,4152,125,feet,jsons/VE125_randls_0_rotated.json,987917,1499326,30,Woman
67,315674,DepthScenes,duration_manipulation_targetAtFixation,jsons/VE125_randls_0_rotated.json,http://54.235.29.9/FacialAge/BNav_EC2/DepthDuration/v2_depth_duration_MTurk/v2_DepthDuration_HTML.html#150,150,1364,768,1364,768,8-21-2022,10-35-43,68,depth_duration_stimuli/001059_2014-06-08_21-53-27_260595134347_rgbf000061-resize_4/001059_2014-06-08_21-53-27_260595134347_rgbf000061-resize_4-target.png,125,2.4185,3,4132,105,feet,jsons/VE125_randls_0_rotated.json,987917,1499326,30,Woman
68,315674,DepthScenes,duration_manipulation_targetAtFixation,jsons/VE125_randls_0_rotated.json,http://54.235.29.9/FacialAge/BNav_EC2/DepthDuration/v2_depth_duration_MTurk/v2_DepthDuration_HTML.html#150,150,1364,768,1364,768,8-21-2022,10-35-43,69,depth_duration_stimuli/000635_2014-06-08_16-38-42_260595134347_rgbf000106-resize_1/000635_2014-06-08_16-38-42_260595134347_rgbf000106-resize_1-target.png,125,2.074,2,3779,130,feet,jsons/VE125_randls_0_rotated.json,987917,1499326,30,Woman
69,315674,DepthScenes,duration_manipulation_targetAtFixation,jsons/VE125_randls_0_rotated.json,http://54.235.29.9/FacialAge/BNav_EC2/DepthDuration/v2_depth_duration_MTurk/v2_DepthDuration_HTML.html#150,150,1364,768,1364,768,8-21-2022,10-35-43,70,depth_duration_stimuli/002279_2014-06-28_18-55-32_260595134347_rgbf000040-resize_5/002279_2014-06-28_18-55-32_260595134347_rgbf000040-resize_5-target.png,125,1.5043333333333,2,4168,125,feet,jsons/VE125_randls_0_rotated.json,987917,1499326,30,Woman
70,315674,DepthScenes,duration_manipulation_targetAtFixation,jsons/VE125_randls_0_rotated.json,http://54.235.29.9/FacialAge/BNav_EC2/DepthDuration/v2_depth_duration_MTurk/v2_DepthDuration_HTML.html#150,150,1364,768,1364,768,8-21-2022,10-35-43,71,depth_duration_stimuli/001094_2014-06-15_17-36-00_260595134347_rgbf000205-resize_0/001094_2014-06-15_17-36-00_260595134347_rgbf000205-resize_0-target.png,125,4.2175,3,3901,124,feet,jsons/VE125_randls_0_rotated.json,987917,1499326,30,Woman
71,315674,DepthScenes,duration_manipulation_targetAtFixation,jsons/VE125_randls_0_rotated.json,http://54.235.29.9/FacialAge/BNav_EC2/DepthDuration/v2_depth_duration_MTurk/v2_DepthDuration_HTML.html#150,150,1364,768,1364,768,8-21-2022,10-35-43,72,depth_duration_stimuli/000692_2014-06-08_13-09-42_260595134347_rgbf000199-resize_2/000692_2014-06-08_13-09-42_260595134347_rgbf000199-resize_2-target.png,125,3.661,4,3560,125,feet,jsons/VE125_randls_0_rotated.json,987917,1499326,30,Woman
72,315674,DepthScenes,duration_manipulation_targetAtFixation,jsons/VE125_randls_0_rotated.json,http://54.235.29.9/FacialAge/BNav_EC2/DepthDuration/v2_depth_duration_MTurk/v2_DepthDuration_HTML.html#150,150,1364,768,1364,768,8-21-2022,10-35-43,73,depth_duration_stimuli/003010_2014-06-15_12-54-35_094959634447_rgbf000112-resize_0/003010_2014-06-15_12-54-35_094959634447_rgbf000112-resize_0-target.png,125,3.1185,4,4656,120,feet,jsons/VE125_randls_0_rotated.json,987917,1499326,30,Woman
73,315674,DepthScenes,duration_manipulation_targetAtFixation,jsons/VE125_randls_0_rotated.json,http://54.235.29.9/FacialAge/BNav_EC2/DepthDuration/v2_depth_duration_MTurk/v2_DepthDuration_HTML.html#150,150,1364,768,1364,768,8-21-2022,10-35-43,74,depth_duration_stimuli/001810_2014-06-26_20-51-35_260595134347_rgbf000040-resize_3/001810_2014-06-26_20-51-35_260595134347_rgbf000040-resize_3-target.png,125,2.2525,4,4653,124,feet,jsons/VE125_randls_0_rotated.json,987917,1499326,30,Woman
74,315674,DepthScenes,duration_manipulation_targetAtFixation,jsons/VE125_randls_0_rotated.json,http://54.235.29.9/FacialAge/BNav_EC2/DepthDuration/v2_depth_duration_MTurk/v2_DepthDuration_HTML.html#150,150,1364,768,1364,768,8-21-2022,10-35-43,75,depth_duration_stimuli/002805_2014-06-22_19-54-03_094959634447_rgbf000079-resize_1/002805_2014-06-22_19-54-03_094959634447_rgbf000079-resize_1-target.png,125,3.1439999999999997,3,4482,125,feet,jsons/VE125_randls_0_rotated.json,987917,1499326,30,Woman
75,315674,DepthScenes,duration_manipulation_targetAtFixation,jsons/VE125_randls_0_rotated.json,http://54.235.29.9/FacialAge/BNav_EC2/DepthDuration/v2_depth_duration_MTurk/v2_DepthDuration_HTML.html#150,150,1364,768,1364,768,8-21-2022,10-35-43,76,depth_duration_stimuli/000906_2014-06-08_13-35-43_260595134347_rgbf000155-resize_1/000906_2014-06-08_13-35-43_260595134347_rgbf000155-resize_1-target.png,125,2.8489999999999998,3,3827,123,feet,jsons/VE125_randls_0_rotated.json,987917,1499326,30,Woman
76,315674,DepthScenes,duration_manipulation_targetAtFixation,jsons/VE125_randls_0_rotated.json,http://54.235.29.9/FacialAge/BNav_EC2/DepthDuration/v2_depth_duration_MTurk/v2_DepthDuration_HTML.html#150,150,1364,768,1364,768,8-21-2022,10-35-43,77,depth_duration_stimuli/001584_2014-06-20_11-07-43_260595134347_rgbf000002-resize_1/001584_2014-06-20_11-07-43_260595134347_rgbf000002-resize_1-target.png,125,3.53,3,5089,125,feet,jsons/VE125_randls_0_rotated.json,987917,1499326,30,Woman
77,315674,DepthScenes,duration_manipulation_targetAtFixation,jsons/VE125_randls_0_rotated.json,http://54.235.29.9/FacialAge/BNav_EC2/DepthDuration/v2_depth_duration_MTurk/v2_DepthDuration_HTML.html#150,150,1364,768,1364,768,8-21-2022,10-35-43,78,depth_duration_stimuli/003621_2014-05-23_18-06-08_094959634447_rgbf000101-resize_1/003621_2014-05-23_18-06-08_094959634447_rgbf000101-resize_1-target.png,125,3.9835,4,4641,124,feet,jsons/VE125_randls_0_rotated.json,987917,1499326,30,Woman
78,315674,DepthScenes,duration_manipulation_targetAtFixation,jsons/VE125_randls_0_rotated.json,http://54.235.29.9/FacialAge/BNav_EC2/DepthDuration/v2_depth_duration_MTurk/v2_DepthDuration_HTML.html#150,150,1364,768,1364,768,8-21-2022,10-35-43,79,depth_duration_stimuli/000866_2014-06-09_20-45-42_260595134347_rgbf000139-resize_1/000866_2014-06-09_20-45-42_260595134347_rgbf000139-resize_1-target.png,125,3.2155,3,5287,123,feet,jsons/VE125_randls_0_rotated.json,987917,1499326,30,Woman
79,315674,DepthScenes,duration_manipulation_targetAtFixation,jsons/VE125_randls_0_rotated.json,http://54.235.29.9/FacialAge/BNav_EC2/DepthDuration/v2_depth_duration_MTurk/v2_DepthDuration_HTML.html#150,150,1364,768,1364,768,8-21-2022,10-35-43,80,depth_duration_stimuli/002989_2014-06-15_12-25-03_094959634447_rgbf000150-resize_3/002989_2014-06-15_12-25-03_094959634447_rgbf000150-resize_3-target.png,125,4.1975,4,6316,124,feet,jsons/VE125_randls_0_rotated.json,987917,1499326,30,Woman
80,315674,DepthScenes,duration_manipulation_targetAtFixation,jsons/VE125_randls_0_rotated.json,http://54.235.29.9/FacialAge/BNav_EC2/DepthDuration/v2_depth_duration_MTurk/v2_DepthDuration_HTML.html#150,150,1364,768,1364,768,8-21-2022,10-35-43,81,depth_duration_stimuli/002344_2014-06-28_20-06-29_260595134347_rgbf000030-resize_1/002344_2014-06-28_20-06-29_260595134347_rgbf000030-resize_1-target.png,125,1.5795,2,5830,128,feet,jsons/VE125_randls_0_rotated.json,987917,1499326,30,Woman
81,315674,DepthScenes,duration_manipulation_targetAtFixation,jsons/VE125_randls_0_rotated.json,http://54.235.29.9/FacialAge/BNav_EC2/DepthDuration/v2_depth_duration_MTurk/v2_DepthDuration_HTML.html#150,150,1364,768,1364,768,8-21-2022,10-35-43,82,depth_duration_stimuli/002725_2014-06-22_11-47-51_094959634447_rgbf000070-resize_1/002725_2014-06-22_11-47-51_094959634447_rgbf000070-resize_1-target.png,125,2.195,3,9919,123,feet,jsons/VE125_randls_0_rotated.json,987917,1499326,30,Woman
82,315674,DepthScenes,duration_manipulation_targetAtFixation,jsons/VE125_randls_0_rotated.json,http://54.235.29.9/FacialAge/BNav_EC2/DepthDuration/v2_depth_duration_MTurk/v2_DepthDuration_HTML.html#150,150,1364,768,1364,768,8-21-2022,10-35-43,83,depth_duration_stimuli/001052_2014-06-08_18-24-54_260595134347_rgbf000130-resize_1/001052_2014-06-08_18-24-54_260595134347_rgbf000130-resize_1-target.png,125,4.1045,5,4986,124,feet,jsons/VE125_randls_0_rotated.json,987917,1499326,30,Woman
83,315674,DepthScenes,duration_manipulation_targetAtFixation,jsons/VE125_randls_0_rotated.json,http://54.235.29.9/FacialAge/BNav_EC2/DepthDuration/v2_depth_duration_MTurk/v2_DepthDuration_HTML.html#150,150,1364,768,1364,768,8-21-2022,10-35-43,84,depth_duration_stimuli/002988_2014-06-15_12-24-20_094959634447_rgbf000150-resize_1/002988_2014-06-15_12-24-20_094959634447_rgbf000150-resize_1-target.png,125,4.7669999999999995,4,5139,123,feet,jsons/VE125_randls_0_rotated.json,987917,1499326,30,Woman
84,315674,DepthScenes,duration_manipulation_targetAtFixation,jsons/VE125_randls_0_rotated.json,http://54.235.29.9/FacialAge/BNav_EC2/DepthDuration/v2_depth_duration_MTurk/v2_DepthDuration_HTML.html#150,150,1364,768,1364,768,8-21-2022,10-35-43,85,depth_duration_stimuli/002750_2014-06-22_19-08-03_094959634447_rgbf000094-resize_4/002750_2014-06-22_19-08-03_094959634447_rgbf000094-resize_4-target.png,125,2.354,4,5074,120,feet,jsons/VE125_randls_0_rotated.json,987917,1499326,30,Woman
85,315674,DepthScenes,duration_manipulation_targetAtFixation,jsons/VE125_randls_0_rotated.json,http://54.235.29.9/FacialAge/BNav_EC2/DepthDuration/v2_depth_duration_MTurk/v2_DepthDuration_HTML.html#150,150,1364,768,1364,768,8-21-2022,10-35-43,86,depth_duration_stimuli/002549_2014-06-24_13-41-39_094959634447_rgbf000022-resize_3/002549_2014-06-24_13-41-39_094959634447_rgbf000022-resize_3-target.png,125,1.476,3,3959,124,feet,jsons/VE125_randls_0_rotated.json,987917,1499326,30,Woman
86,315674,DepthScenes,duration_manipulation_targetAtFixation,jsons/VE125_randls_0_rotated.json,http://54.235.29.9/FacialAge/BNav_EC2/DepthDuration/v2_depth_duration_MTurk/v2_DepthDuration_HTML.html#150,150,1364,768,1364,768,8-21-2022,10-35-43,87,depth_duration_stimuli/000780_2014-06-08_22-28-29_260595134347_rgbf000126-resize_1/000780_2014-06-08_22-28-29_260595134347_rgbf000126-resize_1-target.png,125,3.3825,5,4808,125,feet,jsons/VE125_randls_0_rotated.json,987917,1499326,30,Woman
87,315674,DepthScenes,duration_manipulation_targetAtFixation,jsons/VE125_randls_0_rotated.json,http://54.235.29.9/FacialAge/BNav_EC2/DepthDuration/v2_depth_duration_MTurk/v2_DepthDuration_HTML.html#150,150,1364,768,1364,768,8-21-2022,10-35-43,88,depth_duration_stimuli/002445_2014-06-28_20-32-16_260595134347_rgbf000029-resize_4/002445_2014-06-28_20-32-16_260595134347_rgbf000029-resize_4-target.png,125,2.5315,4,3828,125,feet,jsons/VE125_randls_0_rotated.json,987917,1499326,30,Woman
88,315674,DepthScenes,duration_manipulation_targetAtFixation,jsons/VE125_randls_0_rotated.json,http://54.235.29.9/FacialAge/BNav_EC2/DepthDuration/v2_depth_duration_MTurk/v2_DepthDuration_HTML.html#150,150,1364,768,1364,768,8-21-2022,10-35-43,89,depth_duration_stimuli/001447_2014-06-19_17-00-32_260595134347_rgbf000082-resize_5/001447_2014-06-19_17-00-32_260595134347_rgbf000082-resize_5-target.png,125,4.13775,5,4599,125,feet,jsons/VE125_randls_0_rotated.json,987917,1499326,30,Woman
89,315674,DepthScenes,duration_manipulation_targetAtFixation,jsons/VE125_randls_0_rotated.json,http://54.235.29.9/FacialAge/BNav_EC2/DepthDuration/v2_depth_duration_MTurk/v2_DepthDuration_HTML.html#150,150,1364,768,1364,768,8-21-2022,10-35-43,90,depth_duration_stimuli/000447_2014-06-08_16-15-46_260595134347_rgbf000130-resize_1/000447_2014-06-08_16-15-46_260595134347_rgbf000130-resize_1-target.png,125,4.479,5,7389,124,feet,jsons/VE125_randls_0_rotated.json,987917,1499326,30,Woman
90,315674,DepthScenes,duration_manipulation_targetAtFixation,jsons/VE125_randls_0_rotated.json,http://54.235.29.9/FacialAge/BNav_EC2/DepthDuration/v2_depth_duration_MTurk/v2_DepthDuration_HTML.html#150,150,1364,768,1364,768,8-21-2022,10-35-43,91,depth_duration_stimuli/000457_2014-06-08_16-52-43_260595134347_rgbf000199-resize_1/000457_2014-06-08_16-52-43_260595134347_rgbf000199-resize_1-target.png,125,3.6489999999999996,6,6755,123,feet,jsons/VE125_randls_0_rotated.json,987917,1499326,30,Woman
91,315674,DepthScenes,duration_manipulation_targetAtFixation,jsons/VE125_randls_0_rotated.json,http://54.235.29.9/FacialAge/BNav_EC2/DepthDuration/v2_depth_duration_MTurk/v2_DepthDuration_HTML.html#150,150,1364,768,1364,768,8-21-2022,10-35-43,92,depth_duration_stimuli/000929_2014-06-09_16-33-19_260595134347_rgbf000139-resize_0/000929_2014-06-09_16-33-19_260595134347_rgbf000139-resize_0-target.png,125,2.8680000000000003,3,10941,124,feet,jsons/VE125_randls_0_rotated.json,987917,1499326,30,Woman
92,315674,DepthScenes,duration_manipulation_targetAtFixation,jsons/VE125_randls_0_rotated.json,http://54.235.29.9/FacialAge/BNav_EC2/DepthDuration/v2_depth_duration_MTurk/v2_DepthDuration_HTML.html#150,150,1364,768,1364,768,8-21-2022,10-35-43,93,depth_duration_stimuli/002660_2014-06-13_15-44-18_094959634447_rgbf001878-resize_2/002660_2014-06-13_15-44-18_094959634447_rgbf001878-resize_2-target.png,125,3.576,5,10827,124,feet,jsons/VE125_randls_0_rotated.json,987917,1499326,30,Woman
93,315674,DepthScenes,duration_manipulation_targetAtFixation,jsons/VE125_randls_0_rotated.json,http://54.235.29.9/FacialAge/BNav_EC2/DepthDuration/v2_depth_duration_MTurk/v2_DepthDuration_HTML.html#150,150,1364,768,1364,768,8-21-2022,10-35-43,94,depth_duration_stimuli/002153_2014-06-25_21-27-18_260595134347_rgbf000038-resize_5/002153_2014-06-25_21-27-18_260595134347_rgbf000038-resize_5-target.png,125,2.505,2,6891,125,feet,jsons/VE125_randls_0_rotated.json,987917,1499326,30,Woman
94,315674,DepthScenes,duration_manipulation_targetAtFixation,jsons/VE125_randls_0_rotated.json,http://54.235.29.9/FacialAge/BNav_EC2/DepthDuration/v2_depth_duration_MTurk/v2_DepthDuration_HTML.html#150,150,1364,768,1364,768,8-21-2022,10-35-43,95,depth_duration_stimuli/001392_2014-06-19_16-07-59_260595134347_rgbf000046-resize_1/001392_2014-06-19_16-07-59_260595134347_rgbf000046-resize_1-target.png,125,4.135,6,6849,122,feet,jsons/VE125_randls_0_rotated.json,987917,1499326,30,Woman
95,315674,DepthScenes,duration_manipulation_targetAtFixation,jsons/VE125_randls_0_rotated.json,http://54.235.29.9/FacialAge/BNav_EC2/DepthDuration/v2_depth_duration_MTurk/v2_DepthDuration_HTML.html#150,150,1364,768,1364,768,8-21-2022,10-35-43,96,depth_duration_stimuli/001570_2014-06-20_17-21-09_260595134347_rgbf000135-resize_4/001570_2014-06-20_17-21-09_260595134347_rgbf000135-resize_4-target.png,125,4.467,6,6066,126,feet,jsons/VE125_randls_0_rotated.json,987917,1499326,30,Woman
96,315674,DepthScenes,duration_manipulation_targetAtFixation,jsons/VE125_randls_0_rotated.json,http://54.235.29.9/FacialAge/BNav_EC2/DepthDuration/v2_depth_duration_MTurk/v2_DepthDuration_HTML.html#150,150,1364,768,1364,768,8-21-2022,10-35-43,97,depth_duration_stimuli/002425_2014-06-28_20-27-29_260595134347_rgbf000031-resize_8/002425_2014-06-28_20-27-29_260595134347_rgbf000031-resize_8-target.png,125,3.8960000000000004,7,5143,114,feet,jsons/VE125_randls_0_rotated.json,987917,1499326,30,Woman
97,315674,DepthScenes,duration_manipulation_targetAtFixation,jsons/VE125_randls_0_rotated.json,http://54.235.29.9/FacialAge/BNav_EC2/DepthDuration/v2_depth_duration_MTurk/v2_DepthDuration_HTML.html#150,150,1364,768,1364,768,8-21-2022,10-35-43,98,depth_duration_stimuli/000642_2014-06-08_16-59-25_260595134347_rgbf000098-resize_2/000642_2014-06-08_16-59-25_260595134347_rgbf000098-resize_2-target.png,125,2.8815,5,6169,124,feet,jsons/VE125_randls_0_rotated.json,987917,1499326,30,Woman
98,315674,DepthScenes,duration_manipulation_targetAtFixation,jsons/VE125_randls_0_rotated.json,http://54.235.29.9/FacialAge/BNav_EC2/DepthDuration/v2_depth_duration_MTurk/v2_DepthDuration_HTML.html#150,150,1364,768,1364,768,8-21-2022,10-35-43,99,depth_duration_stimuli/001222_2014-06-17_16-24-06_260595134347_rgbf000073-resize_0/001222_2014-06-17_16-24-06_260595134347_rgbf000073-resize-original.jpg,125,1.4385,0,8050,112,feet,jsons/VE125_randls_0_rotated.json,987917,1499326,30,Woman
99,315674,DepthScenes,duration_manipulation_targetAtFixation,jsons/VE125_randls_0_rotated.json,http://54.235.29.9/FacialAge/BNav_EC2/DepthDuration/v2_depth_duration_MTurk/v2_DepthDuration_HTML.html#150,150,1364,768,1364,768,8-21-2022,10-35-43,100,depth_duration_stimuli/000103_2014-05-14_22-01-17_260595134347_rgbf000152-resize_5/000103_2014-05-14_22-01-17_260595134347_rgbf000152-resize_5-target.png,125,1.993,5,9533,113,feet,jsons/VE125_randls_0_rotated.json,987917,1499326,30,Woman
100,315674,DepthScenes,duration_manipulation_targetAtFixation,jsons/VE125_randls_0_rotated.json,http://54.235.29.9/FacialAge/BNav_EC2/DepthDuration/v2_depth_duration_MTurk/v2_DepthDuration_HTML.html#150,150,1364,768,1364,768,8-21-2022,10-35-43,101,depth_duration_stimuli/001555_2014-06-20_17-12-10_260595134347_rgbf000065-resize_4/001555_2014-06-20_17-12-10_260595134347_rgbf000065-resize_4-target.png,125,1.633,4,6613,115,feet,jsons/VE125_randls_0_rotated.json,987917,1499326,30,Woman
101,315674,DepthScenes,duration_manipulation_targetAtFixation,jsons/VE125_randls_0_rotated.json,http://54.235.29.9/FacialAge/BNav_EC2/DepthDuration/v2_depth_duration_MTurk/v2_DepthDuration_HTML.html#150,150,1364,768,1364,768,8-21-2022,10-35-43,102,depth_duration_stimuli/000734_2014-06-08_17-39-11_260595134347_rgbf000128-resize_2/000734_2014-06-08_17-39-11_260595134347_rgbf000128-resize_2-target.png,125,4.098,5,5768,116,feet,jsons/VE125_randls_0_rotated.json,987917,1499326,30,Woman
102,315674,DepthScenes,duration_manipulation_targetAtFixation,jsons/VE125_randls_0_rotated.json,http://54.235.29.9/FacialAge/BNav_EC2/DepthDuration/v2_depth_duration_MTurk/v2_DepthDuration_HTML.html#150,150,1364,768,1364,768,8-21-2022,10-35-43,103,depth_duration_stimuli/000739_2014-06-08_18-45-58_260595134347_rgbf000068-resize_1/000739_2014-06-08_18-45-58_260595134347_rgbf000068-resize_1-target.png,125,3.534,7,5176,113,feet,jsons/VE125_randls_0_rotated.json,987917,1499326,30,Woman
103,315674,DepthScenes,duration_manipulation_targetAtFixation,jsons/VE125_randls_0_rotated.json,http://54.235.29.9/FacialAge/BNav_EC2/DepthDuration/v2_depth_duration_MTurk/v2_DepthDuration_HTML.html#150,150,1364,768,1364,768,8-21-2022,10-35-43,104,depth_duration_stimuli/003079_2014-06-15_15-18-20_094959634447_rgbf000152-resize_8/003079_2014-06-15_15-18-20_094959634447_rgbf000152-resize_8-target.png,125,2.8775,7,5720,117,feet,jsons/VE125_randls_0_rotated.json,987917,1499326,30,Woman
104,315674,DepthScenes,duration_manipulation_targetAtFixation,jsons/VE125_randls_0_rotated.json,http://54.235.29.9/FacialAge/BNav_EC2/DepthDuration/v2_depth_duration_MTurk/v2_DepthDuration_HTML.html#150,150,1364,768,1364,768,8-21-2022,10-35-43,105,depth_duration_stimuli/000506_2014-06-08_23-21-00_260595134347_rgbf000070-resize_7/000506_2014-06-08_23-21-00_260595134347_rgbf000070-resize_7-target.png,125,4.0585,5,4333,111,feet,jsons/VE125_randls_0_rotated.json,987917,1499326,30,Woman
105,315674,DepthScenes,duration_manipulation_targetAtFixation,jsons/VE125_randls_0_rotated.json,http://54.235.29.9/FacialAge/BNav_EC2/DepthDuration/v2_depth_duration_MTurk/v2_DepthDuration_HTML.html#150,150,1364,768,1364,768,8-21-2022,10-35-43,106,depth_duration_stimuli/001136_2014-06-17_15-19-41_260595134347_rgbf000076-resize_3/001136_2014-06-17_15-19-41_260595134347_rgbf000076-resize_3-target.png,125,1.8655,6,5756,116,feet,jsons/VE125_randls_0_rotated.json,987917,1499326,30,Woman
106,315674,DepthScenes,duration_manipulation_targetAtFixation,jsons/VE125_randls_0_rotated.json,http://54.235.29.9/FacialAge/BNav_EC2/DepthDuration/v2_depth_duration_MTurk/v2_DepthDuration_HTML.html#150,150,1364,768,1364,768,8-21-2022,10-35-43,107,depth_duration_stimuli/001164_2014-06-17_15-35-46_260595134347_rgbf000085-resize_3/001164_2014-06-17_15-35-46_260595134347_rgbf000085-resize_3-target.png,125,2.354,4,4237,122,feet,jsons/VE125_randls_0_rotated.json,987917,1499326,30,Woman
107,315674,DepthScenes,duration_manipulation_targetAtFixation,jsons/VE125_randls_0_rotated.json,http://54.235.29.9/FacialAge/BNav_EC2/DepthDuration/v2_depth_duration_MTurk/v2_DepthDuration_HTML.html#150,150,1364,768,1364,768,8-21-2022,10-35-43,108,depth_duration_stimuli/001815_2014-06-26_20-52-55_260595134347_rgbf000020-resize_0/001815_2014-06-26_20-52-55_260595134347_rgbf000020-resize_0-target.png,125,3.3865,5,5159,110,feet,jsons/VE125_randls_0_rotated.json,987917,1499326,30,Woman
108,315674,DepthScenes,duration_manipulation_targetAtFixation,jsons/VE125_randls_0_rotated.json,http://54.235.29.9/FacialAge/BNav_EC2/DepthDuration/v2_depth_duration_MTurk/v2_DepthDuration_HTML.html#150,150,1364,768,1364,768,8-21-2022,10-35-43,109,depth_duration_stimuli/001808_2014-06-26_20-50-58_260595134347_rgbf000029-resize_1/001808_2014-06-26_20-50-58_260595134347_rgbf000029-resize_1-target.png,125,4.249,4,5360,123,feet,jsons/VE125_randls_0_rotated.json,987917,1499326,30,Woman
109,315674,DepthScenes,duration_manipulation_targetAtFixation,jsons/VE125_randls_0_rotated.json,http://54.235.29.9/FacialAge/BNav_EC2/DepthDuration/v2_depth_duration_MTurk/v2_DepthDuration_HTML.html#150,150,1364,768,1364,768,8-21-2022,10-35-43,110,depth_duration_stimuli/002995_2014-06-15_12-31-26_094959634447_rgbf000150-resize_1/002995_2014-06-15_12-31-26_094959634447_rgbf000150-resize_1-target.png,125,3.8360000000000003,5,4656,137,feet,jsons/VE125_randls_0_rotated.json,987917,1499326,30,Woman
110,315674,DepthScenes,duration_manipulation_targetAtFixation,jsons/VE125_randls_0_rotated.json,http://54.235.29.9/FacialAge/BNav_EC2/DepthDuration/v2_depth_duration_MTurk/v2_DepthDuration_HTML.html#150,150,1364,768,1364,768,8-21-2022,10-35-43,111,depth_duration_stimuli/002748_2014-06-22_19-07-22_094959634447_rgbf000078-resize_1/002748_2014-06-22_19-07-22_094959634447_rgbf000078-resize_1-target.png,125,4.6705,6,4065,124,feet,jsons/VE125_randls_0_rotated.json,987917,1499326,30,Woman
111,315674,DepthScenes,duration_manipulation_targetAtFixation,jsons/VE125_randls_0_rotated.json,http://54.235.29.9/FacialAge/BNav_EC2/DepthDuration/v2_depth_duration_MTurk/v2_DepthDuration_HTML.html#150,150,1364,768,1364,768,8-21-2022,10-35-43,112,depth_duration_stimuli/002758_2014-06-22_19-11-20_094959634447_rgbf000128-resize_1/002758_2014-06-22_19-11-20_094959634447_rgbf000128-resize_1-target.png,125,2.555,3,4299,114,feet,jsons/VE125_randls_0_rotated.json,987917,1499326,30,Woman
112,315674,DepthScenes,duration_manipulation_targetAtFixation,jsons/VE125_randls_0_rotated.json,http://54.235.29.9/FacialAge/BNav_EC2/DepthDuration/v2_depth_duration_MTurk/v2_DepthDuration_HTML.html#150,150,1364,768,1364,768,8-21-2022,10-35-43,113,depth_duration_stimuli/002630_2014-06-24_14-47-50_094959634447_rgbf000055-resize_1/002630_2014-06-24_14-47-50_094959634447_rgbf000055-resize_1-target.png,125,3.0095,3,4520,112,feet,jsons/VE125_randls_0_rotated.json,987917,1499326,30,Woman
113,315674,DepthScenes,duration_manipulation_targetAtFixation,jsons/VE125_randls_0_rotated.json,http://54.235.29.9/FacialAge/BNav_EC2/DepthDuration/v2_depth_duration_MTurk/v2_DepthDuration_HTML.html#150,150,1364,768,1364,768,8-21-2022,10-35-43,114,depth_duration_stimuli/002678_2014-06-13_16-15-32_094959634447_rgbf000151-resize_6/002678_2014-06-13_16-15-32_094959634447_rgbf000151-resize_6-target.png,125,2.1830000000000003,5,4221,125,feet,jsons/VE125_randls_0_rotated.json,987917,1499326,30,Woman
114,315674,DepthScenes,duration_manipulation_targetAtFixation,jsons/VE125_randls_0_rotated.json,http://54.235.29.9/FacialAge/BNav_EC2/DepthDuration/v2_depth_duration_MTurk/v2_DepthDuration_HTML.html#150,150,1364,768,1364,768,8-21-2022,10-35-43,115,depth_duration_stimuli/000368_2014-06-09_15-53-01_260595134347_rgbf000155-resize_2/000368_2014-06-09_15-53-01_260595134347_rgbf000155-resize_2-target.png,125,2.4859999999999998,4,3930,115,feet,jsons/VE125_randls_0_rotated.json,987917,1499326,30,Woman
115,315674,DepthScenes,duration_manipulation_targetAtFixation,jsons/VE125_randls_0_rotated.json,http://54.235.29.9/FacialAge/BNav_EC2/DepthDuration/v2_depth_duration_MTurk/v2_DepthDuration_HTML.html#150,150,1364,768,1364,768,8-21-2022,10-35-43,116,depth_duration_stimuli/001828_2014-06-26_21-40-03_260595134347_rgbf000024-resize_0/001828_2014-06-26_21-40-03_260595134347_rgbf000024-resize_0-target.png,125,4.8260000000000005,6,5937,123,feet,jsons/VE125_randls_0_rotated.json,987917,1499326,30,Woman
116,315674,DepthScenes,duration_manipulation_targetAtFixation,jsons/VE125_randls_0_rotated.json,http://54.235.29.9/FacialAge/BNav_EC2/DepthDuration/v2_depth_duration_MTurk/v2_DepthDuration_HTML.html#150,150,1364,768,1364,768,8-21-2022,10-35-43,117,depth_duration_stimuli/000009_2014-05-26_14-32-05_260595134347_rgbf000034-resize_3/000009_2014-05-26_14-32-05_260595134347_rgbf000034-resize_3-target.png,125,3.8715,5,3985,110,feet,jsons/VE125_randls_0_rotated.json,987917,1499326,30,Woman
117,315674,DepthScenes,duration_manipulation_targetAtFixation,jsons/VE125_randls_0_rotated.json,http://54.235.29.9/FacialAge/BNav_EC2/DepthDuration/v2_depth_duration_MTurk/v2_DepthDuration_HTML.html#150,150,1364,768,1364,768,8-21-2022,10-35-43,118,depth_duration_stimuli/002657_2014-06-13_15-29-54_094959634447_rgbf000150-resize_1/002657_2014-06-13_15-29-54_094959634447_rgbf000150-resize_1-target.png,125,4.919,4,4553,124,feet,jsons/VE125_randls_0_rotated.json,987917,1499326,30,Woman
118,315674,DepthScenes,duration_manipulation_targetAtFixation,jsons/VE125_randls_0_rotated.json,http://54.235.29.9/FacialAge/BNav_EC2/DepthDuration/v2_depth_duration_MTurk/v2_DepthDuration_HTML.html#150,150,1364,768,1364,768,8-21-2022,10-35-43,119,depth_duration_stimuli/002375_2014-06-28_20-13-44_260595134347_rgbf000032-resize_1/002375_2014-06-28_20-13-44_260595134347_rgbf000032-resize_1-target.png,125,4.0175,4,4005,120,feet,jsons/VE125_randls_0_rotated.json,987917,1499326,30,Woman
119,315674,DepthScenes,duration_manipulation_targetAtFixation,jsons/VE125_randls_0_rotated.json,http://54.235.29.9/FacialAge/BNav_EC2/DepthDuration/v2_depth_duration_MTurk/v2_DepthDuration_HTML.html#150,150,1364,768,1364,768,8-21-2022,10-35-43,120,depth_duration_stimuli/000787_2014-06-08_22-33-53_260595134347_rgbf000175-resize_1/000787_2014-06-08_22-33-53_260595134347_rgbf000175-resize-original.jpg,125,4.784,0,4222,115,feet,jsons/VE125_randls_0_rotated.json,987917,1499326,30,Woman
120,315674,DepthScenes,duration_manipulation_targetAtFixation,jsons/VE125_randls_0_rotated.json,http://54.235.29.9/FacialAge/BNav_EC2/DepthDuration/v2_depth_duration_MTurk/v2_DepthDuration_HTML.html#150,150,1364,768,1364,768,8-21-2022,10-35-43,121,depth_duration_stimuli/003587_2014-05-23_16-48-02_094959634447_rgbf002384-resize_2/003587_2014-05-23_16-48-02_094959634447_rgbf002384-resize_2-target.png,125,1.357,2,5409,118,feet,jsons/VE125_randls_0_rotated.json,987917,1499326,30,Woman
121,315674,DepthScenes,duration_manipulation_targetAtFixation,jsons/VE125_randls_0_rotated.json,http://54.235.29.9/FacialAge/BNav_EC2/DepthDuration/v2_depth_duration_MTurk/v2_DepthDuration_HTML.html#150,150,1364,768,1364,768,8-21-2022,10-35-43,122,depth_duration_stimuli/001167_2014-06-17_15-38-07_260595134347_rgbf000108-resize_0/001167_2014-06-17_15-38-07_260595134347_rgbf000108-resize_0-target.png,125,1.8505,3,3952,124,feet,jsons/VE125_randls_0_rotated.json,987917,1499326,30,Woman
122,315674,DepthScenes,duration_manipulation_targetAtFixation,jsons/VE125_randls_0_rotated.json,http://54.235.29.9/FacialAge/BNav_EC2/DepthDuration/v2_depth_duration_MTurk/v2_DepthDuration_HTML.html#150,150,1364,768,1364,768,8-21-2022,10-35-43,123,depth_duration_stimuli/003081_2014-06-15_15-19-16_094959634447_rgbf000150-resize_1/003081_2014-06-15_15-19-16_094959634447_rgbf000150-resize_1-target.png,125,3.9125,5,4640,125,feet,jsons/VE125_randls_0_rotated.json,987917,1499326,30,Woman
123,315674,DepthScenes,duration_manipulation_targetAtFixation,jsons/VE125_randls_0_rotated.json,http://54.235.29.9/FacialAge/BNav_EC2/DepthDuration/v2_depth_duration_MTurk/v2_DepthDuration_HTML.html#150,150,1364,768,1364,768,8-21-2022,10-35-43,124,depth_duration_stimuli/001417_2014-06-19_16-25-36_260595134347_rgbf000115-resize_5/001417_2014-06-19_16-25-36_260595134347_rgbf000115-resize_5-target.png,125,4.6255,4,3738,117,feet,jsons/VE125_randls_0_rotated.json,987917,1499326,30,Woman
124,315674,DepthScenes,duration_manipulation_targetAtFixation,jsons/VE125_randls_0_rotated.json,http://54.235.29.9/FacialAge/BNav_EC2/DepthDuration/v2_depth_duration_MTurk/v2_DepthDuration_HTML.html#150,150,1364,768,1364,768,8-21-2022,10-35-43,125,depth_duration_stimuli/002953_2014-06-08_17-32-18_094959634447_rgbf000059-resize_5/002953_2014-06-08_17-32-18_094959634447_rgbf000059-resize_5-target.png,125,1.551,3,4641,113,feet,jsons/VE125_randls_0_rotated.json,987917,1499326,30,Woman
125,315674,DepthScenes,duration_manipulation_targetAtFixation,jsons/VE125_randls_0_rotated.json,http://54.235.29.9/FacialAge/BNav_EC2/DepthDuration/v2_depth_duration_MTurk/v2_DepthDuration_HTML.html#150,150,1364,768,1364,768,8-21-2022,10-35-43,126,depth_duration_stimuli/000878_2014-06-08_22-52-45_260595134347_rgbf000045-resize_2/000878_2014-06-08_22-52-45_260595134347_rgbf000045-resize_2-target.png,125,2.092,7,4100,111,feet,jsons/VE125_randls_0_rotated.json,987917,1499326,30,Woman
126,315674,DepthScenes,duration_manipulation_targetAtFixation,jsons/VE125_randls_0_rotated.json,http://54.235.29.9/FacialAge/BNav_EC2/DepthDuration/v2_depth_duration_MTurk/v2_DepthDuration_HTML.html#150,150,1364,768,1364,768,8-21-2022,10-35-43,127,depth_duration_stimuli/001650_2014-06-20_12-09-00_260595134347_rgbf000087-resize_3/001650_2014-06-20_12-09-00_260595134347_rgbf000087-resize_3-target.png,125,1.9505,3,4893,122,feet,jsons/VE125_randls_0_rotated.json,987917,1499326,30,Woman
127,315674,DepthScenes,duration_manipulation_targetAtFixation,jsons/VE125_randls_0_rotated.json,http://54.235.29.9/FacialAge/BNav_EC2/DepthDuration/v2_depth_duration_MTurk/v2_DepthDuration_HTML.html#150,150,1364,768,1364,768,8-21-2022,10-35-43,128,depth_duration_stimuli/000682_2014-06-08_23-14-58_260595134347_rgbf000041-resize_5/000682_2014-06-08_23-14-58_260595134347_rgbf000041-resize_5-target.png,125,2.7239999999999998,2,4064,125,feet,jsons/VE125_randls_0_rotated.json,987917,1499326,30,Woman
128,315674,DepthScenes,duration_manipulation_targetAtFixation,jsons/VE125_randls_0_rotated.json,http://54.235.29.9/FacialAge/BNav_EC2/DepthDuration/v2_depth_duration_MTurk/v2_DepthDuration_HTML.html#150,150,1364,768,1364,768,8-21-2022,10-35-43,129,depth_duration_stimuli/002199_2014-06-28_18-33-56_260595134347_rgbf000074-resize_0/002199_2014-06-28_18-33-56_260595134347_rgbf000074-resize_0-target.png,125,1.996,2,5127,110,feet,jsons/VE125_randls_0_rotated.json,987917,1499326,30,Woman
129,315674,DepthScenes,duration_manipulation_targetAtFixation,jsons/VE125_randls_0_rotated.json,http://54.235.29.9/FacialAge/BNav_EC2/DepthDuration/v2_depth_duration_MTurk/v2_DepthDuration_HTML.html#150,150,1364,768,1364,768,8-21-2022,10-35-43,130,depth_duration_stimuli/001056_2014-06-08_18-46-44_260595134347_rgbf000068-resize_0/001056_2014-06-08_18-46-44_260595134347_rgbf000068-resize_0-target.png,125,2.6625,3,3924,113,feet,jsons/VE125_randls_0_rotated.json,987917,1499326,30,Woman
130,315674,DepthScenes,duration_manipulation_targetAtFixation,jsons/VE125_randls_0_rotated.json,http://54.235.29.9/FacialAge/BNav_EC2/DepthDuration/v2_depth_duration_MTurk/v2_DepthDuration_HTML.html#150,150,1364,768,1364,768,8-21-2022,10-35-43,131,depth_duration_stimuli/001571_2014-06-20_17-21-32_260595134347_rgbf000089-resize_1/001571_2014-06-20_17-21-32_260595134347_rgbf000089-resize_1-target.png,125,1.86,4,4358,125,feet,jsons/VE125_randls_0_rotated.json,987917,1499326,30,Woman
131,315674,DepthScenes,duration_manipulation_targetAtFixation,jsons/VE125_randls_0_rotated.json,http://54.235.29.9/FacialAge/BNav_EC2/DepthDuration/v2_depth_duration_MTurk/v2_DepthDuration_HTML.html#150,150,1364,768,1364,768,8-21-2022,10-35-43,132,depth_duration_stimuli/002272_2014-06-28_18-53-56_260595134347_rgbf000067-resize_2/002272_2014-06-28_18-53-56_260595134347_rgbf000067-resize_2-target.png,125,1.138,4,5065,112,feet,jsons/VE125_randls_0_rotated.json,987917,1499326,30,Woman
132,315674,DepthScenes,duration_manipulation_targetAtFixation,jsons/VE125_randls_0_rotated.json,http://54.235.29.9/FacialAge/BNav_EC2/DepthDuration/v2_depth_duration_MTurk/v2_DepthDuration_HTML.html#150,150,1364,768,1364,768,8-21-2022,10-35-43,133,depth_duration_stimuli/001617_2014-06-20_11-35-32_260595134347_rgbf000066-resize_1/001617_2014-06-20_11-35-32_260595134347_rgbf000066-resize_1-target.png,125,3.7910000000000004,6,4082,115,feet,jsons/VE125_randls_0_rotated.json,987917,1499326,30,Woman
133,315674,DepthScenes,duration_manipulation_targetAtFixation,jsons/VE125_randls_0_rotated.json,http://54.235.29.9/FacialAge/BNav_EC2/DepthDuration/v2_depth_duration_MTurk/v2_DepthDuration_HTML.html#150,150,1364,768,1364,768,8-21-2022,10-35-43,134,depth_duration_stimuli/001806_2014-06-26_20-50-20_260595134347_rgbf000091-resize_1/001806_2014-06-26_20-50-20_260595134347_rgbf000091-resize_1-target.png,125,2.7305,4,4423,124,feet,jsons/VE125_randls_0_rotated.json,987917,1499326,30,Woman
134,315674,DepthScenes,duration_manipulation_targetAtFixation,jsons/VE125_randls_0_rotated.json,http://54.235.29.9/FacialAge/BNav_EC2/DepthDuration/v2_depth_duration_MTurk/v2_DepthDuration_HTML.html#150,150,1364,768,1364,768,8-21-2022,10-35-43,135,depth_duration_stimuli/000375_2014-06-08_11-17-29_260595134347_rgbf000133-resize_2/000375_2014-06-08_11-17-29_260595134347_rgbf000133-resize-original.jpg,125,4.718,0,4179,124,feet,jsons/VE125_randls_0_rotated.json,987917,1499326,30,Woman
135,315674,DepthScenes,duration_manipulation_targetAtFixation,jsons/VE125_randls_0_rotated.json,http://54.235.29.9/FacialAge/BNav_EC2/DepthDuration/v2_depth_duration_MTurk/v2_DepthDuration_HTML.html#150,150,1364,768,1364,768,8-21-2022,10-35-43,136,depth_duration_stimuli/000409_2014-06-04_19-23-33_260595134347_rgbf000067-resize_0/000409_2014-06-04_19-23-33_260595134347_rgbf000067-resize_0-target.png,125,3.7335,4,4927,116,feet,jsons/VE125_randls_0_rotated.json,987917,1499326,30,Woman
136,315674,DepthScenes,duration_manipulation_targetAtFixation,jsons/VE125_randls_0_rotated.json,http://54.235.29.9/FacialAge/BNav_EC2/DepthDuration/v2_depth_duration_MTurk/v2_DepthDuration_HTML.html#150,150,1364,768,1364,768,8-21-2022,10-35-43,137,depth_duration_stimuli/002663_2014-06-13_15-50-26_094959634447_rgbf000075-resize_1/002663_2014-06-13_15-50-26_094959634447_rgbf000075-resize_1-target.png,125,4.7495,6,4339,115,feet,jsons/VE125_randls_0_rotated.json,987917,1499326,30,Woman
137,315674,DepthScenes,duration_manipulation_targetAtFixation,jsons/VE125_randls_0_rotated.json,http://54.235.29.9/FacialAge/BNav_EC2/DepthDuration/v2_depth_duration_MTurk/v2_DepthDuration_HTML.html#150,150,1364,768,1364,768,8-21-2022,10-35-43,138,depth_duration_stimuli/000677_2014-06-08_23-10-32_260595134347_rgbf000158-resize_6/000677_2014-06-08_23-10-32_260595134347_rgbf000158-resize_6-target.png,125,3.556,4,4393,123,feet,jsons/VE125_randls_0_rotated.json,987917,1499326,30,Woman
138,315674,DepthScenes,duration_manipulation_targetAtFixation,jsons/VE125_randls_0_rotated.json,http://54.235.29.9/FacialAge/BNav_EC2/DepthDuration/v2_depth_duration_MTurk/v2_DepthDuration_HTML.html#150,150,1364,768,1364,768,8-21-2022,10-35-43,139,depth_duration_stimuli/001029_2014-06-08_13-17-57_260595134347_rgbf000065-resize_1/001029_2014-06-08_13-17-57_260595134347_rgbf000065-resize_1-target.png,125,3.0835,6,5044,125,feet,jsons/VE125_randls_0_rotated.json,987917,1499326,30,Woman
139,315674,DepthScenes,duration_manipulation_targetAtFixation,jsons/VE125_randls_0_rotated.json,http://54.235.29.9/FacialAge/BNav_EC2/DepthDuration/v2_depth_duration_MTurk/v2_DepthDuration_HTML.html#150,150,1364,768,1364,768,8-21-2022,10-35-43,140,depth_duration_stimuli/002209_2014-06-28_18-36-10_260595134347_rgbf000051-resize_1/002209_2014-06-28_18-36-10_260595134347_rgbf000051-resize_1-target.png,125,2.057,4,4641,125,feet,jsons/VE125_randls_0_rotated.json,987917,1499326,30,Woman
140,315674,DepthScenes,duration_manipulation_targetAtFixation,jsons/VE125_randls_0_rotated.json,http://54.235.29.9/FacialAge/BNav_EC2/DepthDuration/v2_depth_duration_MTurk/v2_DepthDuration_HTML.html#150,150,1364,768,1364,768,8-21-2022,10-35-43,141,depth_duration_stimuli/002763_2014-06-22_19-13-10_094959634447_rgbf000075-resize_4/002763_2014-06-22_19-13-10_094959634447_rgbf000075-resize_4-target.png,125,1.68375,5,4142,137,feet,jsons/VE125_randls_0_rotated.json,987917,1499326,30,Woman
141,315674,DepthScenes,duration_manipulation_targetAtFixation,jsons/VE125_randls_0_rotated.json,http://54.235.29.9/FacialAge/BNav_EC2/DepthDuration/v2_depth_duration_MTurk/v2_DepthDuration_HTML.html#150,150,1364,768,1364,768,8-21-2022,10-35-43,142,depth_duration_stimuli/000749_2014-06-08_21-55-06_260595134347_rgbf000070-resize_2/000749_2014-06-08_21-55-06_260595134347_rgbf000070-resize_2-target.png,125,2.331,4,4417,125,feet,jsons/VE125_randls_0_rotated.json,987917,1499326,30,Woman
142,315674,DepthScenes,duration_manipulation_targetAtFixation,jsons/VE125_randls_0_rotated.json,http://54.235.29.9/FacialAge/BNav_EC2/DepthDuration/v2_depth_duration_MTurk/v2_DepthDuration_HTML.html#150,150,1364,768,1364,768,8-21-2022,10-35-43,143,depth_duration_stimuli/002788_2014-06-22_19-36-03_094959634447_rgbf000088-resize_2/002788_2014-06-22_19-36-03_094959634447_rgbf000088-resize_2-target.png,125,1.6465,4,4003,113,feet,jsons/VE125_randls_0_rotated.json,987917,1499326,30,Woman
143,315674,DepthScenes,duration_manipulation_targetAtFixation,jsons/VE125_randls_0_rotated.json,http://54.235.29.9/FacialAge/BNav_EC2/DepthDuration/v2_depth_duration_MTurk/v2_DepthDuration_HTML.html#150,150,1364,768,1364,768,8-21-2022,10-35-43,144,depth_duration_stimuli/003083_2014-06-15_15-21-03_094959634447_rgbf000063-resize_1/003083_2014-06-15_15-21-03_094959634447_rgbf000063-resize_1-target.png,125,4.1405,6,4122,125,feet,jsons/VE125_randls_0_rotated.json,987917,1499326,30,Woman
144,315674,DepthScenes,duration_manipulation_targetAtFixation,jsons/VE125_randls_0_rotated.json,http://54.235.29.9/FacialAge/BNav_EC2/DepthDuration/v2_depth_duration_MTurk/v2_DepthDuration_HTML.html#150,150,1364,768,1364,768,8-21-2022,10-35-43,145,depth_duration_stimuli/000486_2014-06-09_20-47-20_260595134347_rgbf000143-resize_2/000486_2014-06-09_20-47-20_260595134347_rgbf000143-resize_2-target.png,125,4.8325,4,4144,130,feet,jsons/VE125_randls_0_rotated.json,987917,1499326,30,Woman
145,315674,DepthScenes,duration_manipulation_targetAtFixation,jsons/VE125_randls_0_rotated.json,http://54.235.29.9/FacialAge/BNav_EC2/DepthDuration/v2_depth_duration_MTurk/v2_DepthDuration_HTML.html#150,150,1364,768,1364,768,8-21-2022,10-35-43,146,depth_duration_stimuli/001214_2014-06-17_16-13-55_260595134347_rgbf000111-resize_0/001214_2014-06-17_16-13-55_260595134347_rgbf000111-resize_0-target.png,125,2.6505,3,4205,124,feet,jsons/VE125_randls_0_rotated.json,987917,1499326,30,Woman
146,315674,DepthScenes,duration_manipulation_targetAtFixation,jsons/VE125_randls_0_rotated.json,http://54.235.29.9/FacialAge/BNav_EC2/DepthDuration/v2_depth_duration_MTurk/v2_DepthDuration_HTML.html#150,150,1364,768,1364,768,8-21-2022,10-35-43,147,depth_duration_stimuli/000810_2014-06-08_17-20-01_260595134347_rgbf000105-resize_0/000810_2014-06-08_17-20-01_260595134347_rgbf000105-resize_0-target.png,125,1.4865,4,4562,124,feet,jsons/VE125_randls_0_rotated.json,987917,1499326,30,Woman
147,315674,DepthScenes,duration_manipulation_targetAtFixation,jsons/VE125_randls_0_rotated.json,http://54.235.29.9/FacialAge/BNav_EC2/DepthDuration/v2_depth_duration_MTurk/v2_DepthDuration_HTML.html#150,150,1364,768,1364,768,8-21-2022,10-35-43,148,depth_duration_stimuli/003338_2014-05-20_11-01-23_094959634447_rgbf000051-resize_6/003338_2014-05-20_11-01-23_094959634447_rgbf000051-resize_6-target.png,125,1.693,3,5191,115,feet,jsons/VE125_randls_0_rotated.json,987917,1499326,30,Woman
148,315674,DepthScenes,duration_manipulation_targetAtFixation,jsons/VE125_randls_0_rotated.json,http://54.235.29.9/FacialAge/BNav_EC2/DepthDuration/v2_depth_duration_MTurk/v2_DepthDuration_HTML.html#150,150,1364,768,1364,768,8-21-2022,10-35-43,149,depth_duration_stimuli/002509_2014-06-24_13-19-22_094959634447_rgbf000077-resize_0/002509_2014-06-24_13-19-22_094959634447_rgbf000077-resize_0-target.png,125,1.3065,2,4988,120,feet,jsons/VE125_randls_0_rotated.json,987917,1499326,30,Woman
149,315674,DepthScenes,duration_manipulation_targetAtFixation,jsons/VE125_randls_0_rotated.json,http://54.235.29.9/FacialAge/BNav_EC2/DepthDuration/v2_depth_duration_MTurk/v2_DepthDuration_HTML.html#150,150,1364,768,1364,768,8-21-2022,10-35-43,150,depth_duration_stimuli/000137_2014-05-20_17-04-49_260595134347_rgbf000120-resize_1/000137_2014-05-20_17-04-49_260595134347_rgbf000120-resize_1-target.png,125,3.786,5,6851,124,feet,jsons/VE125_randls_0_rotated.json,987917,1499326,30,Woman
150,315674,DepthScenes,duration_manipulation_targetAtFixation,jsons/VE125_randls_0_rotated.json,http://54.235.29.9/FacialAge/BNav_EC2/DepthDuration/v2_depth_duration_MTurk/v2_DepthDuration_HTML.html#150,150,1364,768,1364,768,8-21-2022,10-35-43,151,depth_duration_stimuli/000736_2014-06-08_18-24-15_260595134347_rgbf000206-resize_3/000736_2014-06-08_18-24-15_260595134347_rgbf000206-resize_3-target.png,125,3.515,4,3847,110,feet,jsons/VE125_randls_0_rotated.json,987917,1499326,30,Woman
151,315674,DepthScenes,duration_manipulation_targetAtFixation,jsons/VE125_randls_0_rotated.json,http://54.235.29.9/FacialAge/BNav_EC2/DepthDuration/v2_depth_duration_MTurk/v2_DepthDuration_HTML.html#150,150,1364,768,1364,768,8-21-2022,10-35-43,152,depth_duration_stimuli/000569_2014-06-09_22-51-47_260595134347_rgbf000141-resize_3/000569_2014-06-09_22-51-47_260595134347_rgbf000141-resize-original.jpg,125,4.512,0,4427,114,feet,jsons/VE125_randls_0_rotated.json,987917,1499326,30,Woman
152,315674,DepthScenes,duration_manipulation_targetAtFixation,jsons/VE125_randls_0_rotated.json,http://54.235.29.9/FacialAge/BNav_EC2/DepthDuration/v2_depth_duration_MTurk/v2_DepthDuration_HTML.html#150,150,1364,768,1364,768,8-21-2022,10-35-43,153,depth_duration_stimuli/001450_2014-06-19_17-02-03_260595134347_rgbf000203-resize_4/001450_2014-06-19_17-02-03_260595134347_rgbf000203-resize_4-target.png,125,4.0106666666667,6,4374,124,feet,jsons/VE125_randls_0_rotated.json,987917,1499326,30,Woman
153,315674,DepthScenes,duration_manipulation_targetAtFixation,jsons/VE125_randls_0_rotated.json,http://54.235.29.9/FacialAge/BNav_EC2/DepthDuration/v2_depth_duration_MTurk/v2_DepthDuration_HTML.html#150,150,1364,768,1364,768,8-21-2022,10-35-43,154,depth_duration_stimuli/001449_2014-06-19_17-01-27_260595134347_rgbf000116-resize_2/001449_2014-06-19_17-01-27_260595134347_rgbf000116-resize_2-target.png,125,3.452,5,4167,124,feet,jsons/VE125_randls_0_rotated.json,987917,1499326,30,Woman
154,315674,DepthScenes,duration_manipulation_targetAtFixation,jsons/VE125_randls_0_rotated.json,http://54.235.29.9/FacialAge/BNav_EC2/DepthDuration/v2_depth_duration_MTurk/v2_DepthDuration_HTML.html#150,150,1364,768,1364,768,8-21-2022,10-35-43,155,depth_duration_stimuli/002467_2014-06-28_20-38-07_260595134347_rgbf000026-resize_2/002467_2014-06-28_20-38-07_260595134347_rgbf000026-resize_2-target.png,125,4.742,5,4660,125,feet,jsons/VE125_randls_0_rotated.json,987917,1499326,30,Woman
155,315674,DepthScenes,duration_manipulation_targetAtFixation,jsons/VE125_randls_0_rotated.json,http://54.235.29.9/FacialAge/BNav_EC2/DepthDuration/v2_depth_duration_MTurk/v2_DepthDuration_HTML.html#150,150,1364,768,1364,768,8-21-2022,10-35-43,156,depth_duration_stimuli/002570_2014-06-24_13-59-54_094959634447_rgbf000059-resize_0/002570_2014-06-24_13-59-54_094959634447_rgbf000059-resize_0-target.png,125,4.037,4,4120,126,feet,jsons/VE125_randls_0_rotated.json,987917,1499326,30,Woman
156,315674,DepthScenes,duration_manipulation_targetAtFixation,jsons/VE125_randls_0_rotated.json,http://54.235.29.9/FacialAge/BNav_EC2/DepthDuration/v2_depth_duration_MTurk/v2_DepthDuration_HTML.html#150,150,1364,768,1364,768,8-21-2022,10-35-43,157,depth_duration_stimuli/002323_2014-06-28_20-01-54_260595134347_rgbf000051-resize_4/002323_2014-06-28_20-01-54_260595134347_rgbf000051-resize_4-target.png,125,3.7310000000000003,4,3937,123,feet,jsons/VE125_randls_0_rotated.json,987917,1499326,30,Woman
157,315674,DepthScenes,duration_manipulation_targetAtFixation,jsons/VE125_randls_0_rotated.json,http://54.235.29.9/FacialAge/BNav_EC2/DepthDuration/v2_depth_duration_MTurk/v2_DepthDuration_HTML.html#150,150,1364,768,1364,768,8-21-2022,10-35-43,158,depth_duration_stimuli/000917_2014-06-09_22-45-29_260595134347_rgbf000149-resize_3/000917_2014-06-09_22-45-29_260595134347_rgbf000149-resize_3-target.png,125,4.1865,3,4282,116,feet,jsons/VE125_randls_0_rotated.json,987917,1499326,30,Woman
158,315674,DepthScenes,duration_manipulation_targetAtFixation,jsons/VE125_randls_0_rotated.json,http://54.235.29.9/FacialAge/BNav_EC2/DepthDuration/v2_depth_duration_MTurk/v2_DepthDuration_HTML.html#150,150,1364,768,1364,768,8-21-2022,10-35-43,159,depth_duration_stimuli/002136_2014-06-25_21-18-03_260595134347_rgbf000109-resize_3/002136_2014-06-25_21-18-03_260595134347_rgbf000109-resize_3-target.png,125,1.9569999999999999,3,4332,113,feet,jsons/VE125_randls_0_rotated.json,987917,1499326,30,Woman
159,315674,DepthScenes,duration_manipulation_targetAtFixation,jsons/VE125_randls_0_rotated.json,http://54.235.29.9/FacialAge/BNav_EC2/DepthDuration/v2_depth_duration_MTurk/v2_DepthDuration_HTML.html#150,150,1364,768,1364,768,8-21-2022,10-35-43,160,depth_duration_stimuli/002964_2014-06-08_17-46-11_094959634447_rgbf000091-resize_4/002964_2014-06-08_17-46-11_094959634447_rgbf000091-resize_4-target.png,125,1.6909999999999998,4,4050,126,feet,jsons/VE125_randls_0_rotated.json,987917,1499326,30,Woman
160,315674,DepthScenes,duration_manipulation_targetAtFixation,jsons/VE125_randls_0_rotated.json,http://54.235.29.9/FacialAge/BNav_EC2/DepthDuration/v2_depth_duration_MTurk/v2_DepthDuration_HTML.html#150,150,1364,768,1364,768,8-21-2022,10-35-43,161,depth_duration_stimuli/000943_2014-06-09_19-31-07_260595134347_rgbf000128-resize_1/000943_2014-06-09_19-31-07_260595134347_rgbf000128-resize_1-target.png,125,1.9765,4,4295,137,feet,jsons/VE125_randls_0_rotated.json,987917,1499326,30,Woman
161,315674,DepthScenes,duration_manipulation_targetAtFixation,jsons/VE125_randls_0_rotated.json,http://54.235.29.9/FacialAge/BNav_EC2/DepthDuration/v2_depth_duration_MTurk/v2_DepthDuration_HTML.html#150,150,1364,768,1364,768,8-21-2022,10-35-43,162,depth_duration_stimuli/003070_2014-06-15_14-58-27_094959634447_rgbf000150-resize_3/003070_2014-06-15_14-58-27_094959634447_rgbf000150-resize_3-target.png,125,2.9415,5,3895,114,feet,jsons/VE125_randls_0_rotated.json,987917,1499326,30,Woman
162,315674,DepthScenes,duration_manipulation_targetAtFixation,jsons/VE125_randls_0_rotated.json,http://54.235.29.9/FacialAge/BNav_EC2/DepthDuration/v2_depth_duration_MTurk/v2_DepthDuration_HTML.html#150,150,1364,768,1364,768,8-21-2022,10-35-43,163,depth_duration_stimuli/001132_2014-06-17_14-48-54_260595134347_rgbf000100-resize_2/001132_2014-06-17_14-48-54_260595134347_rgbf000100-resize_2-target.png,125,3.753,5,3904,124,feet,jsons/VE125_randls_0_rotated.json,987917,1499326,30,Woman
163,315674,DepthScenes,duration_manipulation_targetAtFixation,jsons/VE125_randls_0_rotated.json,http://54.235.29.9/FacialAge/BNav_EC2/DepthDuration/v2_depth_duration_MTurk/v2_DepthDuration_HTML.html#150,150,1364,768,1364,768,8-21-2022,10-35-43,164,depth_duration_stimuli/001133_2014-06-17_14-49-16_260595134347_rgbf000100-resize_0/001133_2014-06-17_14-49-16_260595134347_rgbf000100-resize_0-target.png,125,4.2115,4,3855,130,feet,jsons/VE125_randls_0_rotated.json,987917,1499326,30,Woman
