,subjID,experimentName,versionName,sequenceName,url,selected_row,windowWidth,windowHeight,screenWidth,screenHeight,startDate,startTime,trial,stimulus,duration,actual_depth,depth_estimate,trial_RT,log_sceneDuration,unitSelection,seq_filepath,experimentTime,totalTime,age,gender
0,316277,DepthScenes,duration_manipulation_targetAtFixation,jsons/v1_VE1000_randls_29_rotated.json,http://54.235.29.9/FacialAge/BNav_EC2/DepthDuration/v2_depth_duration_MTurk/v2_DepthDuration_HTML.html#43,43,1366,625,1366,768,8-29-2022,14-24-51,1,depth_duration_stimuli/001815_2014-06-26_20-52-55_260595134347_rgbf000020-resize_0/001815_2014-06-26_20-52-55_260595134347_rgbf000020-resize_0-target.png,1000,3.3865,5,6121,952,meters,jsons/v1_VE1000_randls_29_rotated.json,794237,1552074,48,Woman
1,316277,DepthScenes,duration_manipulation_targetAtFixation,jsons/v1_VE1000_randls_29_rotated.json,http://54.235.29.9/FacialAge/BNav_EC2/DepthDuration/v2_depth_duration_MTurk/v2_DepthDuration_HTML.html#43,43,1366,625,1366,768,8-29-2022,14-24-51,2,depth_duration_stimuli/001808_2014-06-26_20-50-58_260595134347_rgbf000029-resize_1/001808_2014-06-26_20-50-58_260595134347_rgbf000029-resize_1-target.png,1000,4.249,2,4704,983,meters,jsons/v1_VE1000_randls_29_rotated.json,794237,1552074,48,Woman
2,316277,DepthScenes,duration_manipulation_targetAtFixation,jsons/v1_VE1000_randls_29_rotated.json,http://54.235.29.9/FacialAge/BNav_EC2/DepthDuration/v2_depth_duration_MTurk/v2_DepthDuration_HTML.html#43,43,1366,625,1366,768,8-29-2022,14-24-51,3,depth_duration_stimuli/001235_2014-06-17_16-37-36_260595134347_rgbf000084-resize_4/001235_2014-06-17_16-37-36_260595134347_rgbf000084-resize_4-target.png,1000,3.6605,8,3738,1001,meters,jsons/v1_VE1000_randls_29_rotated.json,794237,1552074,48,Woman
3,316277,DepthScenes,duration_manipulation_targetAtFixation,jsons/v1_VE1000_randls_29_rotated.json,http://54.235.29.9/FacialAge/BNav_EC2/DepthDuration/v2_depth_duration_MTurk/v2_DepthDuration_HTML.html#43,43,1366,625,1366,768,8-29-2022,14-24-51,4,depth_duration_stimuli/000788_2014-06-08_22-34-36_260595134347_rgbf000131-resize_1/000788_2014-06-08_22-34-36_260595134347_rgbf000131-resize_1-target.png,1000,3.359,6,3594,998,meters,jsons/v1_VE1000_randls_29_rotated.json,794237,1552074,48,Woman
4,316277,DepthScenes,duration_manipulation_targetAtFixation,jsons/v1_VE1000_randls_29_rotated.json,http://54.235.29.9/FacialAge/BNav_EC2/DepthDuration/v2_depth_duration_MTurk/v2_DepthDuration_HTML.html#43,43,1366,625,1366,768,8-29-2022,14-24-51,5,depth_duration_stimuli/000665_2014-06-09_20-42-35_260595134347_rgbf000110-resize_1/000665_2014-06-09_20-42-35_260595134347_rgbf000110-resize_1-target.png,1000,3.057,4,4252,999,meters,jsons/v1_VE1000_randls_29_rotated.json,794237,1552074,48,Woman
5,316277,DepthScenes,duration_manipulation_targetAtFixation,jsons/v1_VE1000_randls_29_rotated.json,http://54.235.29.9/FacialAge/BNav_EC2/DepthDuration/v2_depth_duration_MTurk/v2_DepthDuration_HTML.html#43,43,1366,625,1366,768,8-29-2022,14-24-51,6,depth_duration_stimuli/001150_2014-06-17_15-27-34_260595134347_rgbf000108-resize_2/001150_2014-06-17_15-27-34_260595134347_rgbf000108-resize_2-target.png,1000,4.0325,8,3944,1093,meters,jsons/v1_VE1000_randls_29_rotated.json,794237,1552074,48,Woman
6,316277,DepthScenes,duration_manipulation_targetAtFixation,jsons/v1_VE1000_randls_29_rotated.json,http://54.235.29.9/FacialAge/BNav_EC2/DepthDuration/v2_depth_duration_MTurk/v2_DepthDuration_HTML.html#43,43,1366,625,1366,768,8-29-2022,14-24-51,7,depth_duration_stimuli/002875_2014-06-01_15-19-00_094959634447_rgbf000151-resize_1/002875_2014-06-01_15-19-00_094959634447_rgbf000151-resize_1-target.png,1000,1.9675,5,3973,1050,meters,jsons/v1_VE1000_randls_29_rotated.json,794237,1552074,48,Woman
7,316277,DepthScenes,duration_manipulation_targetAtFixation,jsons/v1_VE1000_randls_29_rotated.json,http://54.235.29.9/FacialAge/BNav_EC2/DepthDuration/v2_depth_duration_MTurk/v2_DepthDuration_HTML.html#43,43,1366,625,1366,768,8-29-2022,14-24-51,8,depth_duration_stimuli/001011_2014-06-08_23-18-54_260595134347_rgbf000044-resize_4/001011_2014-06-08_23-18-54_260595134347_rgbf000044-resize_4-target.png,1000,2.4730000000000003,6,3933,999,meters,jsons/v1_VE1000_randls_29_rotated.json,794237,1552074,48,Woman
8,316277,DepthScenes,duration_manipulation_targetAtFixation,jsons/v1_VE1000_randls_29_rotated.json,http://54.235.29.9/FacialAge/BNav_EC2/DepthDuration/v2_depth_duration_MTurk/v2_DepthDuration_HTML.html#43,43,1366,625,1366,768,8-29-2022,14-24-51,9,depth_duration_stimuli/002340_2014-06-28_20-05-46_260595134347_rgbf000113-resize_0/002340_2014-06-28_20-05-46_260595134347_rgbf000113-resize_0-target.png,1000,2.4735,4,3547,918,meters,jsons/v1_VE1000_randls_29_rotated.json,794237,1552074,48,Woman
9,316277,DepthScenes,duration_manipulation_targetAtFixation,jsons/v1_VE1000_randls_29_rotated.json,http://54.235.29.9/FacialAge/BNav_EC2/DepthDuration/v2_depth_duration_MTurk/v2_DepthDuration_HTML.html#43,43,1366,625,1366,768,8-29-2022,14-24-51,10,depth_duration_stimuli/001016_2014-06-09_16-16-10_260595134347_rgbf000112-resize_5/001016_2014-06-09_16-16-10_260595134347_rgbf000112-resize_5-target.png,1000,1.6565,8,3441,997,meters,jsons/v1_VE1000_randls_29_rotated.json,794237,1552074,48,Woman
10,316277,DepthScenes,duration_manipulation_targetAtFixation,jsons/v1_VE1000_randls_29_rotated.json,http://54.235.29.9/FacialAge/BNav_EC2/DepthDuration/v2_depth_duration_MTurk/v2_DepthDuration_HTML.html#43,43,1366,625,1366,768,8-29-2022,14-24-51,11,depth_duration_stimuli/000109_2014-05-14_23-41-52_260595134347_rgbf000035-resize_9/000109_2014-05-14_23-41-52_260595134347_rgbf000035-resize_9-target.png,1000,1.3545,1,3195,943,meters,jsons/v1_VE1000_randls_29_rotated.json,794237,1552074,48,Woman
11,316277,DepthScenes,duration_manipulation_targetAtFixation,jsons/v1_VE1000_randls_29_rotated.json,http://54.235.29.9/FacialAge/BNav_EC2/DepthDuration/v2_depth_duration_MTurk/v2_DepthDuration_HTML.html#43,43,1366,625,1366,768,8-29-2022,14-24-51,12,depth_duration_stimuli/000470_2014-06-09_19-42-40_260595134347_rgbf000094-resize_1/000470_2014-06-09_19-42-40_260595134347_rgbf000094-resize_1-target.png,1000,1.831,2,3133,999,meters,jsons/v1_VE1000_randls_29_rotated.json,794237,1552074,48,Woman
12,316277,DepthScenes,duration_manipulation_targetAtFixation,jsons/v1_VE1000_randls_29_rotated.json,http://54.235.29.9/FacialAge/BNav_EC2/DepthDuration/v2_depth_duration_MTurk/v2_DepthDuration_HTML.html#43,43,1366,625,1366,768,8-29-2022,14-24-51,13,depth_duration_stimuli/001214_2014-06-17_16-13-55_260595134347_rgbf000111-resize_0/001214_2014-06-17_16-13-55_260595134347_rgbf000111-resize_0-target.png,1000,2.6505,5,3931,1000,meters,jsons/v1_VE1000_randls_29_rotated.json,794237,1552074,48,Woman
13,316277,DepthScenes,duration_manipulation_targetAtFixation,jsons/v1_VE1000_randls_29_rotated.json,http://54.235.29.9/FacialAge/BNav_EC2/DepthDuration/v2_depth_duration_MTurk/v2_DepthDuration_HTML.html#43,43,1366,625,1366,768,8-29-2022,14-24-51,14,depth_duration_stimuli/000810_2014-06-08_17-20-01_260595134347_rgbf000105-resize_0/000810_2014-06-08_17-20-01_260595134347_rgbf000105-resize_0-target.png,1000,1.4865,3,3252,999,meters,jsons/v1_VE1000_randls_29_rotated.json,794237,1552074,48,Woman
14,316277,DepthScenes,duration_manipulation_targetAtFixation,jsons/v1_VE1000_randls_29_rotated.json,http://54.235.29.9/FacialAge/BNav_EC2/DepthDuration/v2_depth_duration_MTurk/v2_DepthDuration_HTML.html#43,43,1366,625,1366,768,8-29-2022,14-24-51,15,depth_duration_stimuli/002209_2014-06-28_18-36-10_260595134347_rgbf000051-resize_1/002209_2014-06-28_18-36-10_260595134347_rgbf000051-resize_1-target.png,1000,2.057,6,3745,999,meters,jsons/v1_VE1000_randls_29_rotated.json,794237,1552074,48,Woman
15,316277,DepthScenes,duration_manipulation_targetAtFixation,jsons/v1_VE1000_randls_29_rotated.json,http://54.235.29.9/FacialAge/BNav_EC2/DepthDuration/v2_depth_duration_MTurk/v2_DepthDuration_HTML.html#43,43,1366,625,1366,768,8-29-2022,14-24-51,16,depth_duration_stimuli/002763_2014-06-22_19-13-10_094959634447_rgbf000075-resize_4/002763_2014-06-22_19-13-10_094959634447_rgbf000075-resize_4-target.png,1000,1.68375,5,4495,910,meters,jsons/v1_VE1000_randls_29_rotated.json,794237,1552074,48,Woman
16,316277,DepthScenes,duration_manipulation_targetAtFixation,jsons/v1_VE1000_randls_29_rotated.json,http://54.235.29.9/FacialAge/BNav_EC2/DepthDuration/v2_depth_duration_MTurk/v2_DepthDuration_HTML.html#43,43,1366,625,1366,768,8-29-2022,14-24-51,17,depth_duration_stimuli/002660_2014-06-13_15-44-18_094959634447_rgbf001878-resize_2/002660_2014-06-13_15-44-18_094959634447_rgbf001878-resize_2-target.png,1000,3.576,3,3692,892,meters,jsons/v1_VE1000_randls_29_rotated.json,794237,1552074,48,Woman
17,316277,DepthScenes,duration_manipulation_targetAtFixation,jsons/v1_VE1000_randls_29_rotated.json,http://54.235.29.9/FacialAge/BNav_EC2/DepthDuration/v2_depth_duration_MTurk/v2_DepthDuration_HTML.html#43,43,1366,625,1366,768,8-29-2022,14-24-51,18,depth_duration_stimuli/002153_2014-06-25_21-27-18_260595134347_rgbf000038-resize_5/002153_2014-06-25_21-27-18_260595134347_rgbf000038-resize_5-target.png,1000,2.505,1,3555,1093,meters,jsons/v1_VE1000_randls_29_rotated.json,794237,1552074,48,Woman
18,316277,DepthScenes,duration_manipulation_targetAtFixation,jsons/v1_VE1000_randls_29_rotated.json,http://54.235.29.9/FacialAge/BNav_EC2/DepthDuration/v2_depth_duration_MTurk/v2_DepthDuration_HTML.html#43,43,1366,625,1366,768,8-29-2022,14-24-51,19,depth_duration_stimuli/001498_2014-06-19_17-45-14_260595134347_rgbf000129-resize_4/001498_2014-06-19_17-45-14_260595134347_rgbf000129-resize-original.jpg,1000,1.4075,0,4324,999,meters,jsons/v1_VE1000_randls_29_rotated.json,794237,1552074,48,Woman
19,316277,DepthScenes,duration_manipulation_targetAtFixation,jsons/v1_VE1000_randls_29_rotated.json,http://54.235.29.9/FacialAge/BNav_EC2/DepthDuration/v2_depth_duration_MTurk/v2_DepthDuration_HTML.html#43,43,1366,625,1366,768,8-29-2022,14-24-51,20,depth_duration_stimuli/001571_2014-06-20_17-21-32_260595134347_rgbf000089-resize_1/001571_2014-06-20_17-21-32_260595134347_rgbf000089-resize_1-target.png,1000,1.86,7,3001,999,meters,jsons/v1_VE1000_randls_29_rotated.json,794237,1552074,48,Woman
20,316277,DepthScenes,duration_manipulation_targetAtFixation,jsons/v1_VE1000_randls_29_rotated.json,http://54.235.29.9/FacialAge/BNav_EC2/DepthDuration/v2_depth_duration_MTurk/v2_DepthDuration_HTML.html#43,43,1366,625,1366,768,8-29-2022,14-24-51,21,depth_duration_stimuli/002272_2014-06-28_18-53-56_260595134347_rgbf000067-resize_2/002272_2014-06-28_18-53-56_260595134347_rgbf000067-resize_2-target.png,1000,1.138,4,4845,997,meters,jsons/v1_VE1000_randls_29_rotated.json,794237,1552074,48,Woman
21,316277,DepthScenes,duration_manipulation_targetAtFixation,jsons/v1_VE1000_randls_29_rotated.json,http://54.235.29.9/FacialAge/BNav_EC2/DepthDuration/v2_depth_duration_MTurk/v2_DepthDuration_HTML.html#43,43,1366,625,1366,768,8-29-2022,14-24-51,22,depth_duration_stimuli/001828_2014-06-26_21-40-03_260595134347_rgbf000024-resize_0/001828_2014-06-26_21-40-03_260595134347_rgbf000024-resize_0-target.png,1000,4.8260000000000005,5,3199,914,meters,jsons/v1_VE1000_randls_29_rotated.json,794237,1552074,48,Woman
22,316277,DepthScenes,duration_manipulation_targetAtFixation,jsons/v1_VE1000_randls_29_rotated.json,http://54.235.29.9/FacialAge/BNav_EC2/DepthDuration/v2_depth_duration_MTurk/v2_DepthDuration_HTML.html#43,43,1366,625,1366,768,8-29-2022,14-24-51,23,depth_duration_stimuli/000009_2014-05-26_14-32-05_260595134347_rgbf000034-resize_3/000009_2014-05-26_14-32-05_260595134347_rgbf000034-resize_3-target.png,1000,3.8715,2,3456,1000,meters,jsons/v1_VE1000_randls_29_rotated.json,794237,1552074,48,Woman
23,316277,DepthScenes,duration_manipulation_targetAtFixation,jsons/v1_VE1000_randls_29_rotated.json,http://54.235.29.9/FacialAge/BNav_EC2/DepthDuration/v2_depth_duration_MTurk/v2_DepthDuration_HTML.html#43,43,1366,625,1366,768,8-29-2022,14-24-51,24,depth_duration_stimuli/002425_2014-06-28_20-27-29_260595134347_rgbf000031-resize_8/002425_2014-06-28_20-27-29_260595134347_rgbf000031-resize_8-target.png,1000,3.8960000000000004,7,3437,998,meters,jsons/v1_VE1000_randls_29_rotated.json,794237,1552074,48,Woman
24,316277,DepthScenes,duration_manipulation_targetAtFixation,jsons/v1_VE1000_randls_29_rotated.json,http://54.235.29.9/FacialAge/BNav_EC2/DepthDuration/v2_depth_duration_MTurk/v2_DepthDuration_HTML.html#43,43,1366,625,1366,768,8-29-2022,14-24-51,25,depth_duration_stimuli/000642_2014-06-08_16-59-25_260595134347_rgbf000098-resize_2/000642_2014-06-08_16-59-25_260595134347_rgbf000098-resize_2-target.png,1000,2.8815,3,3130,999,meters,jsons/v1_VE1000_randls_29_rotated.json,794237,1552074,48,Woman
25,316277,DepthScenes,duration_manipulation_targetAtFixation,jsons/v1_VE1000_randls_29_rotated.json,http://54.235.29.9/FacialAge/BNav_EC2/DepthDuration/v2_depth_duration_MTurk/v2_DepthDuration_HTML.html#43,43,1366,625,1366,768,8-29-2022,14-24-51,26,depth_duration_stimuli/000927_2014-06-09_16-32-30_260595134347_rgbf000123-resize_3/000927_2014-06-09_16-32-30_260595134347_rgbf000123-resize_3-target.png,1000,2.6785,9,4751,999,meters,jsons/v1_VE1000_randls_29_rotated.json,794237,1552074,48,Woman
26,316277,DepthScenes,duration_manipulation_targetAtFixation,jsons/v1_VE1000_randls_29_rotated.json,http://54.235.29.9/FacialAge/BNav_EC2/DepthDuration/v2_depth_duration_MTurk/v2_DepthDuration_HTML.html#43,43,1366,625,1366,768,8-29-2022,14-24-51,27,depth_duration_stimuli/001110_2014-06-15_17-25-28_260595134347_rgbf000150-resize_1/001110_2014-06-15_17-25-28_260595134347_rgbf000150-resize_1-target.png,1000,1.7115,1,3329,1024,meters,jsons/v1_VE1000_randls_29_rotated.json,794237,1552074,48,Woman
27,316277,DepthScenes,duration_manipulation_targetAtFixation,jsons/v1_VE1000_randls_29_rotated.json,http://54.235.29.9/FacialAge/BNav_EC2/DepthDuration/v2_depth_duration_MTurk/v2_DepthDuration_HTML.html#43,43,1366,625,1366,768,8-29-2022,14-24-51,28,depth_duration_stimuli/002953_2014-06-08_17-32-18_094959634447_rgbf000059-resize_5/002953_2014-06-08_17-32-18_094959634447_rgbf000059-resize_5-target.png,1000,1.551,2,3002,834,meters,jsons/v1_VE1000_randls_29_rotated.json,794237,1552074,48,Woman
28,316277,DepthScenes,duration_manipulation_targetAtFixation,jsons/v1_VE1000_randls_29_rotated.json,http://54.235.29.9/FacialAge/BNav_EC2/DepthDuration/v2_depth_duration_MTurk/v2_DepthDuration_HTML.html#43,43,1366,625,1366,768,8-29-2022,14-24-51,29,depth_duration_stimuli/000878_2014-06-08_22-52-45_260595134347_rgbf000045-resize_2/000878_2014-06-08_22-52-45_260595134347_rgbf000045-resize_2-target.png,1000,2.092,3,4518,999,meters,jsons/v1_VE1000_randls_29_rotated.json,794237,1552074,48,Woman
29,316277,DepthScenes,duration_manipulation_targetAtFixation,jsons/v1_VE1000_randls_29_rotated.json,http://54.235.29.9/FacialAge/BNav_EC2/DepthDuration/v2_depth_duration_MTurk/v2_DepthDuration_HTML.html#43,43,1366,625,1366,768,8-29-2022,14-24-51,30,depth_duration_stimuli/002072_2014-06-24_21-48-06_260595134347_rgbf000115-resize_0/002072_2014-06-24_21-48-06_260595134347_rgbf000115-resize-original.jpg,1000,4.702,0,3709,999,meters,jsons/v1_VE1000_randls_29_rotated.json,794237,1552074,48,Woman
30,316277,DepthScenes,duration_manipulation_targetAtFixation,jsons/v1_VE1000_randls_29_rotated.json,http://54.235.29.9/FacialAge/BNav_EC2/DepthDuration/v2_depth_duration_MTurk/v2_DepthDuration_HTML.html#43,43,1366,625,1366,768,8-29-2022,14-24-51,31,depth_duration_stimuli/000635_2014-06-08_16-38-42_260595134347_rgbf000106-resize_1/000635_2014-06-08_16-38-42_260595134347_rgbf000106-resize_1-target.png,1000,2.074,3,3468,1013,meters,jsons/v1_VE1000_randls_29_rotated.json,794237,1552074,48,Woman
31,316277,DepthScenes,duration_manipulation_targetAtFixation,jsons/v1_VE1000_randls_29_rotated.json,http://54.235.29.9/FacialAge/BNav_EC2/DepthDuration/v2_depth_duration_MTurk/v2_DepthDuration_HTML.html#43,43,1366,625,1366,768,8-29-2022,14-24-51,32,depth_duration_stimuli/002279_2014-06-28_18-55-32_260595134347_rgbf000040-resize_5/002279_2014-06-28_18-55-32_260595134347_rgbf000040-resize_5-target.png,1000,1.5043333333333,2,5933,999,meters,jsons/v1_VE1000_randls_29_rotated.json,794237,1552074,48,Woman
32,316277,DepthScenes,duration_manipulation_targetAtFixation,jsons/v1_VE1000_randls_29_rotated.json,http://54.235.29.9/FacialAge/BNav_EC2/DepthDuration/v2_depth_duration_MTurk/v2_DepthDuration_HTML.html#43,43,1366,625,1366,768,8-29-2022,14-24-51,33,depth_duration_stimuli/001516_2014-06-20_16-25-09_260595134347_rgbf000076-resize_2/001516_2014-06-20_16-25-09_260595134347_rgbf000076-resize_2-target.png,1000,1.7445,2,3816,998,meters,jsons/v1_VE1000_randls_29_rotated.json,794237,1552074,48,Woman
33,316277,DepthScenes,duration_manipulation_targetAtFixation,jsons/v1_VE1000_randls_29_rotated.json,http://54.235.29.9/FacialAge/BNav_EC2/DepthDuration/v2_depth_duration_MTurk/v2_DepthDuration_HTML.html#43,43,1366,625,1366,768,8-29-2022,14-24-51,34,depth_duration_stimuli/002118_2014-06-25_20-32-08_260595134347_rgbf000078-resize_1/002118_2014-06-25_20-32-08_260595134347_rgbf000078-resize_1-target.png,1000,2.6460000000000004,6,3599,889,meters,jsons/v1_VE1000_randls_29_rotated.json,794237,1552074,48,Woman
34,316277,DepthScenes,duration_manipulation_targetAtFixation,jsons/v1_VE1000_randls_29_rotated.json,http://54.235.29.9/FacialAge/BNav_EC2/DepthDuration/v2_depth_duration_MTurk/v2_DepthDuration_HTML.html#43,43,1366,625,1366,768,8-29-2022,14-24-51,35,depth_duration_stimuli/001032_2014-06-08_13-23-17_260595134347_rgbf000021-resize_3/001032_2014-06-08_13-23-17_260595134347_rgbf000021-resize_3-target.png,1000,3.2725,4,4164,998,meters,jsons/v1_VE1000_randls_29_rotated.json,794237,1552074,48,Woman
35,316277,DepthScenes,duration_manipulation_targetAtFixation,jsons/v1_VE1000_randls_29_rotated.json,http://54.235.29.9/FacialAge/BNav_EC2/DepthDuration/v2_depth_duration_MTurk/v2_DepthDuration_HTML.html#43,43,1366,625,1366,768,8-29-2022,14-24-51,36,depth_duration_stimuli/001059_2014-06-08_21-53-27_260595134347_rgbf000061-resize_4/001059_2014-06-08_21-53-27_260595134347_rgbf000061-resize_4-target.png,1000,2.4185,1,3511,998,meters,jsons/v1_VE1000_randls_29_rotated.json,794237,1552074,48,Woman
36,316277,DepthScenes,duration_manipulation_targetAtFixation,jsons/v1_VE1000_randls_29_rotated.json,http://54.235.29.9/FacialAge/BNav_EC2/DepthDuration/v2_depth_duration_MTurk/v2_DepthDuration_HTML.html#43,43,1366,625,1366,768,8-29-2022,14-24-51,37,depth_duration_stimuli/001650_2014-06-20_12-09-00_260595134347_rgbf000087-resize_3/001650_2014-06-20_12-09-00_260595134347_rgbf000087-resize_3-target.png,1000,1.9505,3,3383,999,meters,jsons/v1_VE1000_randls_29_rotated.json,794237,1552074,48,Woman
37,316277,DepthScenes,duration_manipulation_targetAtFixation,jsons/v1_VE1000_randls_29_rotated.json,http://54.235.29.9/FacialAge/BNav_EC2/DepthDuration/v2_depth_duration_MTurk/v2_DepthDuration_HTML.html#43,43,1366,625,1366,768,8-29-2022,14-24-51,38,depth_duration_stimuli/000682_2014-06-08_23-14-58_260595134347_rgbf000041-resize_5/000682_2014-06-08_23-14-58_260595134347_rgbf000041-resize_5-target.png,1000,2.7239999999999998,9,5497,998,meters,jsons/v1_VE1000_randls_29_rotated.json,794237,1552074,48,Woman
38,316277,DepthScenes,duration_manipulation_targetAtFixation,jsons/v1_VE1000_randls_29_rotated.json,http://54.235.29.9/FacialAge/BNav_EC2/DepthDuration/v2_depth_duration_MTurk/v2_DepthDuration_HTML.html#43,43,1366,625,1366,768,8-29-2022,14-24-51,39,depth_duration_stimuli/002758_2014-06-22_19-11-20_094959634447_rgbf000128-resize_1/002758_2014-06-22_19-11-20_094959634447_rgbf000128-resize_1-target.png,1000,2.555,5,3916,999,meters,jsons/v1_VE1000_randls_29_rotated.json,794237,1552074,48,Woman
39,316277,DepthScenes,duration_manipulation_targetAtFixation,jsons/v1_VE1000_randls_29_rotated.json,http://54.235.29.9/FacialAge/BNav_EC2/DepthDuration/v2_depth_duration_MTurk/v2_DepthDuration_HTML.html#43,43,1366,625,1366,768,8-29-2022,14-24-51,40,depth_duration_stimuli/002630_2014-06-24_14-47-50_094959634447_rgbf000055-resize_1/002630_2014-06-24_14-47-50_094959634447_rgbf000055-resize_1-target.png,1000,3.0095,4,3992,998,meters,jsons/v1_VE1000_randls_29_rotated.json,794237,1552074,48,Woman
40,316277,DepthScenes,duration_manipulation_targetAtFixation,jsons/v1_VE1000_randls_29_rotated.json,http://54.235.29.9/FacialAge/BNav_EC2/DepthDuration/v2_depth_duration_MTurk/v2_DepthDuration_HTML.html#43,43,1366,625,1366,768,8-29-2022,14-24-51,41,depth_duration_stimuli/001450_2014-06-19_17-02-03_260595134347_rgbf000203-resize_4/001450_2014-06-19_17-02-03_260595134347_rgbf000203-resize_4-target.png,1000,4.0106666666667,7,3628,987,meters,jsons/v1_VE1000_randls_29_rotated.json,794237,1552074,48,Woman
41,316277,DepthScenes,duration_manipulation_targetAtFixation,jsons/v1_VE1000_randls_29_rotated.json,http://54.235.29.9/FacialAge/BNav_EC2/DepthDuration/v2_depth_duration_MTurk/v2_DepthDuration_HTML.html#43,43,1366,625,1366,768,8-29-2022,14-24-51,42,depth_duration_stimuli/001449_2014-06-19_17-01-27_260595134347_rgbf000116-resize_2/001449_2014-06-19_17-01-27_260595134347_rgbf000116-resize_2-target.png,1000,3.452,5,3958,999,meters,jsons/v1_VE1000_randls_29_rotated.json,794237,1552074,48,Woman
42,316277,DepthScenes,duration_manipulation_targetAtFixation,jsons/v1_VE1000_randls_29_rotated.json,http://54.235.29.9/FacialAge/BNav_EC2/DepthDuration/v2_depth_duration_MTurk/v2_DepthDuration_HTML.html#43,43,1366,625,1366,768,8-29-2022,14-24-51,43,depth_duration_stimuli/003338_2014-05-20_11-01-23_094959634447_rgbf000051-resize_6/003338_2014-05-20_11-01-23_094959634447_rgbf000051-resize_6-target.png,1000,1.693,1,3578,999,meters,jsons/v1_VE1000_randls_29_rotated.json,794237,1552074,48,Woman
43,316277,DepthScenes,duration_manipulation_targetAtFixation,jsons/v1_VE1000_randls_29_rotated.json,http://54.235.29.9/FacialAge/BNav_EC2/DepthDuration/v2_depth_duration_MTurk/v2_DepthDuration_HTML.html#43,43,1366,625,1366,768,8-29-2022,14-24-51,44,depth_duration_stimuli/002509_2014-06-24_13-19-22_094959634447_rgbf000077-resize_0/002509_2014-06-24_13-19-22_094959634447_rgbf000077-resize_0-target.png,1000,1.3065,2,3339,999,meters,jsons/v1_VE1000_randls_29_rotated.json,794237,1552074,48,Woman
44,316277,DepthScenes,duration_manipulation_targetAtFixation,jsons/v1_VE1000_randls_29_rotated.json,http://54.235.29.9/FacialAge/BNav_EC2/DepthDuration/v2_depth_duration_MTurk/v2_DepthDuration_HTML.html#43,43,1366,625,1366,768,8-29-2022,14-24-51,45,depth_duration_stimuli/002136_2014-06-25_21-18-03_260595134347_rgbf000109-resize_3/002136_2014-06-25_21-18-03_260595134347_rgbf000109-resize_3-target.png,1000,1.9569999999999999,3,3768,1000,meters,jsons/v1_VE1000_randls_29_rotated.json,794237,1552074,48,Woman
45,316277,DepthScenes,duration_manipulation_targetAtFixation,jsons/v1_VE1000_randls_29_rotated.json,http://54.235.29.9/FacialAge/BNav_EC2/DepthDuration/v2_depth_duration_MTurk/v2_DepthDuration_HTML.html#43,43,1366,625,1366,768,8-29-2022,14-24-51,46,depth_duration_stimuli/002964_2014-06-08_17-46-11_094959634447_rgbf000091-resize_4/002964_2014-06-08_17-46-11_094959634447_rgbf000091-resize_4-target.png,1000,1.6909999999999998,2,3244,999,meters,jsons/v1_VE1000_randls_29_rotated.json,794237,1552074,48,Woman
46,316277,DepthScenes,duration_manipulation_targetAtFixation,jsons/v1_VE1000_randls_29_rotated.json,http://54.235.29.9/FacialAge/BNav_EC2/DepthDuration/v2_depth_duration_MTurk/v2_DepthDuration_HTML.html#43,43,1366,625,1366,768,8-29-2022,14-24-51,47,depth_duration_stimuli/002657_2014-06-13_15-29-54_094959634447_rgbf000150-resize_1/002657_2014-06-13_15-29-54_094959634447_rgbf000150-resize_1-target.png,1000,4.919,6,7288,1000,meters,jsons/v1_VE1000_randls_29_rotated.json,794237,1552074,48,Woman
47,316277,DepthScenes,duration_manipulation_targetAtFixation,jsons/v1_VE1000_randls_29_rotated.json,http://54.235.29.9/FacialAge/BNav_EC2/DepthDuration/v2_depth_duration_MTurk/v2_DepthDuration_HTML.html#43,43,1366,625,1366,768,8-29-2022,14-24-51,48,depth_duration_stimuli/002375_2014-06-28_20-13-44_260595134347_rgbf000032-resize_1/002375_2014-06-28_20-13-44_260595134347_rgbf000032-resize_1-target.png,1000,4.0175,5,3263,994,meters,jsons/v1_VE1000_randls_29_rotated.json,794237,1552074,48,Woman
48,316277,DepthScenes,duration_manipulation_targetAtFixation,jsons/v1_VE1000_randls_29_rotated.json,http://54.235.29.9/FacialAge/BNav_EC2/DepthDuration/v2_depth_duration_MTurk/v2_DepthDuration_HTML.html#43,43,1366,625,1366,768,8-29-2022,14-24-51,49,depth_duration_stimuli/001170_2014-06-17_15-43-44_260595134347_rgbf000096-resize_6/001170_2014-06-17_15-43-44_260595134347_rgbf000096-resize-original.jpg,1000,1.1909999999999998,0,7154,1000,meters,jsons/v1_VE1000_randls_29_rotated.json,794237,1552074,48,Woman
49,316277,DepthScenes,duration_manipulation_targetAtFixation,jsons/v1_VE1000_randls_29_rotated.json,http://54.235.29.9/FacialAge/BNav_EC2/DepthDuration/v2_depth_duration_MTurk/v2_DepthDuration_HTML.html#43,43,1366,625,1366,768,8-29-2022,14-24-51,50,depth_duration_stimuli/001617_2014-06-20_11-35-32_260595134347_rgbf000066-resize_1/001617_2014-06-20_11-35-32_260595134347_rgbf000066-resize_1-target.png,1000,3.7910000000000004,5,4512,1000,meters,jsons/v1_VE1000_randls_29_rotated.json,794237,1552074,48,Woman
50,316277,DepthScenes,duration_manipulation_targetAtFixation,jsons/v1_VE1000_randls_29_rotated.json,http://54.235.29.9/FacialAge/BNav_EC2/DepthDuration/v2_depth_duration_MTurk/v2_DepthDuration_HTML.html#43,43,1366,625,1366,768,8-29-2022,14-24-51,51,depth_duration_stimuli/001806_2014-06-26_20-50-20_260595134347_rgbf000091-resize_1/001806_2014-06-26_20-50-20_260595134347_rgbf000091-resize_1-target.png,1000,2.7305,4,5173,999,meters,jsons/v1_VE1000_randls_29_rotated.json,794237,1552074,48,Woman
51,316277,DepthScenes,duration_manipulation_targetAtFixation,jsons/v1_VE1000_randls_29_rotated.json,http://54.235.29.9/FacialAge/BNav_EC2/DepthDuration/v2_depth_duration_MTurk/v2_DepthDuration_HTML.html#43,43,1366,625,1366,768,8-29-2022,14-24-51,52,depth_duration_stimuli/000854_2014-06-09_19-43-13_260595134347_rgbf000066-resize_0/000854_2014-06-09_19-43-13_260595134347_rgbf000066-resize_0-target.png,1000,3.068,6,4260,993,meters,jsons/v1_VE1000_randls_29_rotated.json,794237,1552074,48,Woman
52,316277,DepthScenes,duration_manipulation_targetAtFixation,jsons/v1_VE1000_randls_29_rotated.json,http://54.235.29.9/FacialAge/BNav_EC2/DepthDuration/v2_depth_duration_MTurk/v2_DepthDuration_HTML.html#43,43,1366,625,1366,768,8-29-2022,14-24-51,53,depth_duration_stimuli/000758_2014-06-08_22-05-08_260595134347_rgbf000085-resize_0/000758_2014-06-08_22-05-08_260595134347_rgbf000085-resize_0-target.png,1000,3.3810000000000002,4,4628,1015,meters,jsons/v1_VE1000_randls_29_rotated.json,794237,1552074,48,Woman
53,316277,DepthScenes,duration_manipulation_targetAtFixation,jsons/v1_VE1000_randls_29_rotated.json,http://54.235.29.9/FacialAge/BNav_EC2/DepthDuration/v2_depth_duration_MTurk/v2_DepthDuration_HTML.html#43,43,1366,625,1366,768,8-29-2022,14-24-51,54,depth_duration_stimuli/003587_2014-05-23_16-48-02_094959634447_rgbf002384-resize_2/003587_2014-05-23_16-48-02_094959634447_rgbf002384-resize_2-target.png,1000,1.357,9,5195,998,meters,jsons/v1_VE1000_randls_29_rotated.json,794237,1552074,48,Woman
54,316277,DepthScenes,duration_manipulation_targetAtFixation,jsons/v1_VE1000_randls_29_rotated.json,http://54.235.29.9/FacialAge/BNav_EC2/DepthDuration/v2_depth_duration_MTurk/v2_DepthDuration_HTML.html#43,43,1366,625,1366,768,8-29-2022,14-24-51,55,depth_duration_stimuli/001167_2014-06-17_15-38-07_260595134347_rgbf000108-resize_0/001167_2014-06-17_15-38-07_260595134347_rgbf000108-resize_0-target.png,1000,1.8505,7,3601,998,meters,jsons/v1_VE1000_randls_29_rotated.json,794237,1552074,48,Woman
55,316277,DepthScenes,duration_manipulation_targetAtFixation,jsons/v1_VE1000_randls_29_rotated.json,http://54.235.29.9/FacialAge/BNav_EC2/DepthDuration/v2_depth_duration_MTurk/v2_DepthDuration_HTML.html#43,43,1366,625,1366,768,8-29-2022,14-24-51,56,depth_duration_stimuli/000502_2014-06-08_23-02-32_260595134347_rgbf000063-resize_4/000502_2014-06-08_23-02-32_260595134347_rgbf000063-resize_4-target.png,1000,2.431,3,4946,993,meters,jsons/v1_VE1000_randls_29_rotated.json,794237,1552074,48,Woman
56,316277,DepthScenes,duration_manipulation_targetAtFixation,jsons/v1_VE1000_randls_29_rotated.json,http://54.235.29.9/FacialAge/BNav_EC2/DepthDuration/v2_depth_duration_MTurk/v2_DepthDuration_HTML.html#43,43,1366,625,1366,768,8-29-2022,14-24-51,57,depth_duration_stimuli/001199_2014-06-17_16-03-48_260595134347_rgbf000077-resize_0/001199_2014-06-17_16-03-48_260595134347_rgbf000077-resize_0-target.png,1000,3.4375,4,4392,999,meters,jsons/v1_VE1000_randls_29_rotated.json,794237,1552074,48,Woman
57,316277,DepthScenes,duration_manipulation_targetAtFixation,jsons/v1_VE1000_randls_29_rotated.json,http://54.235.29.9/FacialAge/BNav_EC2/DepthDuration/v2_depth_duration_MTurk/v2_DepthDuration_HTML.html#43,43,1366,625,1366,768,8-29-2022,14-24-51,58,depth_duration_stimuli/000943_2014-06-09_19-31-07_260595134347_rgbf000128-resize_1/000943_2014-06-09_19-31-07_260595134347_rgbf000128-resize_1-target.png,1000,1.9765,7,4502,995,meters,jsons/v1_VE1000_randls_29_rotated.json,794237,1552074,48,Woman
58,316277,DepthScenes,duration_manipulation_targetAtFixation,jsons/v1_VE1000_randls_29_rotated.json,http://54.235.29.9/FacialAge/BNav_EC2/DepthDuration/v2_depth_duration_MTurk/v2_DepthDuration_HTML.html#43,43,1366,625,1366,768,8-29-2022,14-24-51,59,depth_duration_stimuli/003070_2014-06-15_14-58-27_094959634447_rgbf000150-resize_3/003070_2014-06-15_14-58-27_094959634447_rgbf000150-resize_3-target.png,1000,2.9415,10,4355,1134,meters,jsons/v1_VE1000_randls_29_rotated.json,794237,1552074,48,Woman
59,316277,DepthScenes,duration_manipulation_targetAtFixation,jsons/v1_VE1000_randls_29_rotated.json,http://54.235.29.9/FacialAge/BNav_EC2/DepthDuration/v2_depth_duration_MTurk/v2_DepthDuration_HTML.html#43,43,1366,625,1366,768,8-29-2022,14-24-51,60,depth_duration_stimuli/002949_2014-06-26_15-57-42_094959634447_rgbf000079-resize_1/002949_2014-06-26_15-57-42_094959634447_rgbf000079-resize_1-target.png,1000,1.8915,5,6153,923,meters,jsons/v1_VE1000_randls_29_rotated.json,794237,1552074,48,Woman
60,316277,DepthScenes,duration_manipulation_targetAtFixation,jsons/v1_VE1000_randls_29_rotated.json,http://54.235.29.9/FacialAge/BNav_EC2/DepthDuration/v2_depth_duration_MTurk/v2_DepthDuration_HTML.html#43,43,1366,625,1366,768,8-29-2022,14-24-51,61,depth_duration_stimuli/000522_2014-06-08_13-35-06_260595134347_rgbf000244-resize_1/000522_2014-06-08_13-35-06_260595134347_rgbf000244-resize_1-target.png,1000,2.3715,2,4360,998,meters,jsons/v1_VE1000_randls_29_rotated.json,794237,1552074,48,Woman
61,316277,DepthScenes,duration_manipulation_targetAtFixation,jsons/v1_VE1000_randls_29_rotated.json,http://54.235.29.9/FacialAge/BNav_EC2/DepthDuration/v2_depth_duration_MTurk/v2_DepthDuration_HTML.html#43,43,1366,625,1366,768,8-29-2022,14-24-51,62,depth_duration_stimuli/000457_2014-06-08_16-52-43_260595134347_rgbf000199-resize_1/000457_2014-06-08_16-52-43_260595134347_rgbf000199-resize_1-target.png,1000,3.6489999999999996,4,3784,1000,meters,jsons/v1_VE1000_randls_29_rotated.json,794237,1552074,48,Woman
62,316277,DepthScenes,duration_manipulation_targetAtFixation,jsons/v1_VE1000_randls_29_rotated.json,http://54.235.29.9/FacialAge/BNav_EC2/DepthDuration/v2_depth_duration_MTurk/v2_DepthDuration_HTML.html#43,43,1366,625,1366,768,8-29-2022,14-24-51,63,depth_duration_stimuli/000929_2014-06-09_16-33-19_260595134347_rgbf000139-resize_0/000929_2014-06-09_16-33-19_260595134347_rgbf000139-resize_0-target.png,1000,2.8680000000000003,4,3564,899,meters,jsons/v1_VE1000_randls_29_rotated.json,794237,1552074,48,Woman
63,316277,DepthScenes,duration_manipulation_targetAtFixation,jsons/v1_VE1000_randls_29_rotated.json,http://54.235.29.9/FacialAge/BNav_EC2/DepthDuration/v2_depth_duration_MTurk/v2_DepthDuration_HTML.html#43,43,1366,625,1366,768,8-29-2022,14-24-51,64,depth_duration_stimuli/001392_2014-06-19_16-07-59_260595134347_rgbf000046-resize_1/001392_2014-06-19_16-07-59_260595134347_rgbf000046-resize_1-target.png,1000,4.135,2,5524,962,meters,jsons/v1_VE1000_randls_29_rotated.json,794237,1552074,48,Woman
64,316277,DepthScenes,duration_manipulation_targetAtFixation,jsons/v1_VE1000_randls_29_rotated.json,http://54.235.29.9/FacialAge/BNav_EC2/DepthDuration/v2_depth_duration_MTurk/v2_DepthDuration_HTML.html#43,43,1366,625,1366,768,8-29-2022,14-24-51,65,depth_duration_stimuli/001570_2014-06-20_17-21-09_260595134347_rgbf000135-resize_4/001570_2014-06-20_17-21-09_260595134347_rgbf000135-resize_4-target.png,1000,4.467,8,3937,979,meters,jsons/v1_VE1000_randls_29_rotated.json,794237,1552074,48,Woman
65,316277,DepthScenes,duration_manipulation_targetAtFixation,jsons/v1_VE1000_randls_29_rotated.json,http://54.235.29.9/FacialAge/BNav_EC2/DepthDuration/v2_depth_duration_MTurk/v2_DepthDuration_HTML.html#43,43,1366,625,1366,768,8-29-2022,14-24-51,66,depth_duration_stimuli/001540_2014-06-20_17-01-05_260595134347_rgbf000086-resize_2/001540_2014-06-20_17-01-05_260595134347_rgbf000086-resize-original.jpg,1000,1.459,0,3771,998,meters,jsons/v1_VE1000_randls_29_rotated.json,794237,1552074,48,Woman
66,316277,DepthScenes,duration_manipulation_targetAtFixation,jsons/v1_VE1000_randls_29_rotated.json,http://54.235.29.9/FacialAge/BNav_EC2/DepthDuration/v2_depth_duration_MTurk/v2_DepthDuration_HTML.html#43,43,1366,625,1366,768,8-29-2022,14-24-51,67,depth_duration_stimuli/002199_2014-06-28_18-33-56_260595134347_rgbf000074-resize_0/002199_2014-06-28_18-33-56_260595134347_rgbf000074-resize_0-target.png,1000,1.996,8,3800,1000,meters,jsons/v1_VE1000_randls_29_rotated.json,794237,1552074,48,Woman
67,316277,DepthScenes,duration_manipulation_targetAtFixation,jsons/v1_VE1000_randls_29_rotated.json,http://54.235.29.9/FacialAge/BNav_EC2/DepthDuration/v2_depth_duration_MTurk/v2_DepthDuration_HTML.html#43,43,1366,625,1366,768,8-29-2022,14-24-51,68,depth_duration_stimuli/001056_2014-06-08_18-46-44_260595134347_rgbf000068-resize_0/001056_2014-06-08_18-46-44_260595134347_rgbf000068-resize_0-target.png,1000,2.6625,5,3612,1000,meters,jsons/v1_VE1000_randls_29_rotated.json,794237,1552074,48,Woman
68,316277,DepthScenes,duration_manipulation_targetAtFixation,jsons/v1_VE1000_randls_29_rotated.json,http://54.235.29.9/FacialAge/BNav_EC2/DepthDuration/v2_depth_duration_MTurk/v2_DepthDuration_HTML.html#43,43,1366,625,1366,768,8-29-2022,14-24-51,69,depth_duration_stimuli/003495_2014-05-21_16-01-51_094959634447_rgbf000100-resize_3/003495_2014-05-21_16-01-51_094959634447_rgbf000100-resize_3-target.png,1000,1.6255,6,3289,1001,meters,jsons/v1_VE1000_randls_29_rotated.json,794237,1552074,48,Woman
69,316277,DepthScenes,duration_manipulation_targetAtFixation,jsons/v1_VE1000_randls_29_rotated.json,http://54.235.29.9/FacialAge/BNav_EC2/DepthDuration/v2_depth_duration_MTurk/v2_DepthDuration_HTML.html#43,43,1366,625,1366,768,8-29-2022,14-24-51,70,depth_duration_stimuli/001244_2014-06-17_16-47-45_260595134347_rgbf000030-resize_4/001244_2014-06-17_16-47-45_260595134347_rgbf000030-resize_4-target.png,1000,2.0425,5,3481,855,meters,jsons/v1_VE1000_randls_29_rotated.json,794237,1552074,48,Woman
70,316277,DepthScenes,duration_manipulation_targetAtFixation,jsons/v1_VE1000_randls_29_rotated.json,http://54.235.29.9/FacialAge/BNav_EC2/DepthDuration/v2_depth_duration_MTurk/v2_DepthDuration_HTML.html#43,43,1366,625,1366,768,8-29-2022,14-24-51,71,depth_duration_stimuli/001100_2014-06-15_17-46-26_260595134347_rgbf000225-resize_2/001100_2014-06-15_17-46-26_260595134347_rgbf000225-resize_2-target.png,1000,2.24,6,3380,999,meters,jsons/v1_VE1000_randls_29_rotated.json,794237,1552074,48,Woman
71,316277,DepthScenes,duration_manipulation_targetAtFixation,jsons/v1_VE1000_randls_29_rotated.json,http://54.235.29.9/FacialAge/BNav_EC2/DepthDuration/v2_depth_duration_MTurk/v2_DepthDuration_HTML.html#43,43,1366,625,1366,768,8-29-2022,14-24-51,72,depth_duration_stimuli/002784_2014-06-22_19-26-30_094959634447_rgbf000083-resize_3/002784_2014-06-22_19-26-30_094959634447_rgbf000083-resize_3-target.png,1000,1.8046666666667,7,4252,1029,meters,jsons/v1_VE1000_randls_29_rotated.json,794237,1552074,48,Woman
72,316277,DepthScenes,duration_manipulation_targetAtFixation,jsons/v1_VE1000_randls_29_rotated.json,http://54.235.29.9/FacialAge/BNav_EC2/DepthDuration/v2_depth_duration_MTurk/v2_DepthDuration_HTML.html#43,43,1366,625,1366,768,8-29-2022,14-24-51,73,depth_duration_stimuli/003048_2014-06-15_13-49-43_094959634447_rgbf000150-resize_1/003048_2014-06-15_13-49-43_094959634447_rgbf000150-resize_1-target.png,1000,4.0035,3,3253,962,meters,jsons/v1_VE1000_randls_29_rotated.json,794237,1552074,48,Woman
73,316277,DepthScenes,duration_manipulation_targetAtFixation,jsons/v1_VE1000_randls_29_rotated.json,http://54.235.29.9/FacialAge/BNav_EC2/DepthDuration/v2_depth_duration_MTurk/v2_DepthDuration_HTML.html#43,43,1366,625,1366,768,8-29-2022,14-24-51,74,depth_duration_stimuli/002043_2014-06-24_20-29-38_260595134347_rgbf000039-resize_4/002043_2014-06-24_20-29-38_260595134347_rgbf000039-resize_4-target.png,1000,2.8435,9,4263,999,meters,jsons/v1_VE1000_randls_29_rotated.json,794237,1552074,48,Woman
74,316277,DepthScenes,duration_manipulation_targetAtFixation,jsons/v1_VE1000_randls_29_rotated.json,http://54.235.29.9/FacialAge/BNav_EC2/DepthDuration/v2_depth_duration_MTurk/v2_DepthDuration_HTML.html#43,43,1366,625,1366,768,8-29-2022,14-24-51,75,depth_duration_stimuli/003079_2014-06-15_15-18-20_094959634447_rgbf000152-resize_8/003079_2014-06-15_15-18-20_094959634447_rgbf000152-resize_8-target.png,1000,2.8775,4,3635,1011,meters,jsons/v1_VE1000_randls_29_rotated.json,794237,1552074,48,Woman
75,316277,DepthScenes,duration_manipulation_targetAtFixation,jsons/v1_VE1000_randls_29_rotated.json,http://54.235.29.9/FacialAge/BNav_EC2/DepthDuration/v2_depth_duration_MTurk/v2_DepthDuration_HTML.html#43,43,1366,625,1366,768,8-29-2022,14-24-51,76,depth_duration_stimuli/000506_2014-06-08_23-21-00_260595134347_rgbf000070-resize_7/000506_2014-06-08_23-21-00_260595134347_rgbf000070-resize_7-target.png,1000,4.0585,7,3964,999,meters,jsons/v1_VE1000_randls_29_rotated.json,794237,1552074,48,Woman
76,316277,DepthScenes,duration_manipulation_targetAtFixation,jsons/v1_VE1000_randls_29_rotated.json,http://54.235.29.9/FacialAge/BNav_EC2/DepthDuration/v2_depth_duration_MTurk/v2_DepthDuration_HTML.html#43,43,1366,625,1366,768,8-29-2022,14-24-51,77,depth_duration_stimuli/000483_2014-06-09_20-41-45_260595134347_rgbf000116-resize_4/000483_2014-06-09_20-41-45_260595134347_rgbf000116-resize_4-target.png,1000,1.337,7,4018,999,meters,jsons/v1_VE1000_randls_29_rotated.json,794237,1552074,48,Woman
77,316277,DepthScenes,duration_manipulation_targetAtFixation,jsons/v1_VE1000_randls_29_rotated.json,http://54.235.29.9/FacialAge/BNav_EC2/DepthDuration/v2_depth_duration_MTurk/v2_DepthDuration_HTML.html#43,43,1366,625,1366,768,8-29-2022,14-24-51,78,depth_duration_stimuli/000469_2014-06-09_19-42-10_260595134347_rgbf000081-resize_1/000469_2014-06-09_19-42-10_260595134347_rgbf000081-resize_1-target.png,1000,1.652,8,9476,999,meters,jsons/v1_VE1000_randls_29_rotated.json,794237,1552074,48,Woman
78,316277,DepthScenes,duration_manipulation_targetAtFixation,jsons/v1_VE1000_randls_29_rotated.json,http://54.235.29.9/FacialAge/BNav_EC2/DepthDuration/v2_depth_duration_MTurk/v2_DepthDuration_HTML.html#43,43,1366,625,1366,768,8-29-2022,14-24-51,79,depth_duration_stimuli/002414_2014-06-28_20-24-58_260595134347_rgbf000067-resize_4/002414_2014-06-28_20-24-58_260595134347_rgbf000067-resize_4-target.png,1000,4.363,6,4812,999,meters,jsons/v1_VE1000_randls_29_rotated.json,794237,1552074,48,Woman
79,316277,DepthScenes,duration_manipulation_targetAtFixation,jsons/v1_VE1000_randls_29_rotated.json,http://54.235.29.9/FacialAge/BNav_EC2/DepthDuration/v2_depth_duration_MTurk/v2_DepthDuration_HTML.html#43,43,1366,625,1366,768,8-29-2022,14-24-51,80,depth_duration_stimuli/000773_2014-06-08_22-24-54_260595134347_rgbf000093-resize_1/000773_2014-06-08_22-24-54_260595134347_rgbf000093-resize_1-target.png,1000,4.973,8,7757,998,meters,jsons/v1_VE1000_randls_29_rotated.json,794237,1552074,48,Woman
80,316277,DepthScenes,duration_manipulation_targetAtFixation,jsons/v1_VE1000_randls_29_rotated.json,http://54.235.29.9/FacialAge/BNav_EC2/DepthDuration/v2_depth_duration_MTurk/v2_DepthDuration_HTML.html#43,43,1366,625,1366,768,8-29-2022,14-24-51,81,depth_duration_stimuli/002995_2014-06-15_12-31-26_094959634447_rgbf000150-resize_1/002995_2014-06-15_12-31-26_094959634447_rgbf000150-resize_1-target.png,1000,3.8360000000000003,5,3580,996,meters,jsons/v1_VE1000_randls_29_rotated.json,794237,1552074,48,Woman
81,316277,DepthScenes,duration_manipulation_targetAtFixation,jsons/v1_VE1000_randls_29_rotated.json,http://54.235.29.9/FacialAge/BNav_EC2/DepthDuration/v2_depth_duration_MTurk/v2_DepthDuration_HTML.html#43,43,1366,625,1366,768,8-29-2022,14-24-51,82,depth_duration_stimuli/002748_2014-06-22_19-07-22_094959634447_rgbf000078-resize_1/002748_2014-06-22_19-07-22_094959634447_rgbf000078-resize_1-target.png,1000,4.6705,8,3513,999,meters,jsons/v1_VE1000_randls_29_rotated.json,794237,1552074,48,Woman
82,316277,DepthScenes,duration_manipulation_targetAtFixation,jsons/v1_VE1000_randls_29_rotated.json,http://54.235.29.9/FacialAge/BNav_EC2/DepthDuration/v2_depth_duration_MTurk/v2_DepthDuration_HTML.html#43,43,1366,625,1366,768,8-29-2022,14-24-51,83,depth_duration_stimuli/000137_2014-05-20_17-04-49_260595134347_rgbf000120-resize_1/000137_2014-05-20_17-04-49_260595134347_rgbf000120-resize_1-target.png,1000,3.786,3,3282,999,meters,jsons/v1_VE1000_randls_29_rotated.json,794237,1552074,48,Woman
83,316277,DepthScenes,duration_manipulation_targetAtFixation,jsons/v1_VE1000_randls_29_rotated.json,http://54.235.29.9/FacialAge/BNav_EC2/DepthDuration/v2_depth_duration_MTurk/v2_DepthDuration_HTML.html#43,43,1366,625,1366,768,8-29-2022,14-24-51,84,depth_duration_stimuli/000736_2014-06-08_18-24-15_260595134347_rgbf000206-resize_3/000736_2014-06-08_18-24-15_260595134347_rgbf000206-resize_3-target.png,1000,3.515,5,3900,904,meters,jsons/v1_VE1000_randls_29_rotated.json,794237,1552074,48,Woman
84,316277,DepthScenes,duration_manipulation_targetAtFixation,jsons/v1_VE1000_randls_29_rotated.json,http://54.235.29.9/FacialAge/BNav_EC2/DepthDuration/v2_depth_duration_MTurk/v2_DepthDuration_HTML.html#43,43,1366,625,1366,768,8-29-2022,14-24-51,85,depth_duration_stimuli/002344_2014-06-28_20-06-29_260595134347_rgbf000030-resize_1/002344_2014-06-28_20-06-29_260595134347_rgbf000030-resize_1-target.png,1000,1.5795,1,5032,1000,meters,jsons/v1_VE1000_randls_29_rotated.json,794237,1552074,48,Woman
85,316277,DepthScenes,duration_manipulation_targetAtFixation,jsons/v1_VE1000_randls_29_rotated.json,http://54.235.29.9/FacialAge/BNav_EC2/DepthDuration/v2_depth_duration_MTurk/v2_DepthDuration_HTML.html#43,43,1366,625,1366,768,8-29-2022,14-24-51,86,depth_duration_stimuli/002725_2014-06-22_11-47-51_094959634447_rgbf000070-resize_1/002725_2014-06-22_11-47-51_094959634447_rgbf000070-resize_1-target.png,1000,2.195,3,4228,921,meters,jsons/v1_VE1000_randls_29_rotated.json,794237,1552074,48,Woman
86,316277,DepthScenes,duration_manipulation_targetAtFixation,jsons/v1_VE1000_randls_29_rotated.json,http://54.235.29.9/FacialAge/BNav_EC2/DepthDuration/v2_depth_duration_MTurk/v2_DepthDuration_HTML.html#43,43,1366,625,1366,768,8-29-2022,14-24-51,87,depth_duration_stimuli/002639_2014-06-24_14-51-37_094959634447_rgbf000074-resize_4/002639_2014-06-24_14-51-37_094959634447_rgbf000074-resize_4-target.png,1000,4.0375,4,4052,1000,meters,jsons/v1_VE1000_randls_29_rotated.json,794237,1552074,48,Woman
87,316277,DepthScenes,duration_manipulation_targetAtFixation,jsons/v1_VE1000_randls_29_rotated.json,http://54.235.29.9/FacialAge/BNav_EC2/DepthDuration/v2_depth_duration_MTurk/v2_DepthDuration_HTML.html#43,43,1366,625,1366,768,8-29-2022,14-24-51,88,depth_duration_stimuli/003292_2014-05-14_21-53-49_094959634447_rgbf000100-resize_2/003292_2014-05-14_21-53-49_094959634447_rgbf000100-resize_2-target.png,1000,3.4815,6,4247,999,meters,jsons/v1_VE1000_randls_29_rotated.json,794237,1552074,48,Woman
88,316277,DepthScenes,duration_manipulation_targetAtFixation,jsons/v1_VE1000_randls_29_rotated.json,http://54.235.29.9/FacialAge/BNav_EC2/DepthDuration/v2_depth_duration_MTurk/v2_DepthDuration_HTML.html#43,43,1366,625,1366,768,8-29-2022,14-24-51,89,depth_duration_stimuli/000866_2014-06-09_20-45-42_260595134347_rgbf000139-resize_1/000866_2014-06-09_20-45-42_260595134347_rgbf000139-resize_1-target.png,1000,3.2155,2,3537,999,meters,jsons/v1_VE1000_randls_29_rotated.json,794237,1552074,48,Woman
89,316277,DepthScenes,duration_manipulation_targetAtFixation,jsons/v1_VE1000_randls_29_rotated.json,http://54.235.29.9/FacialAge/BNav_EC2/DepthDuration/v2_depth_duration_MTurk/v2_DepthDuration_HTML.html#43,43,1366,625,1366,768,8-29-2022,14-24-51,90,depth_duration_stimuli/002989_2014-06-15_12-25-03_094959634447_rgbf000150-resize_3/002989_2014-06-15_12-25-03_094959634447_rgbf000150-resize_3-target.png,1000,4.1975,8,4660,1092,meters,jsons/v1_VE1000_randls_29_rotated.json,794237,1552074,48,Woman
90,316277,DepthScenes,duration_manipulation_targetAtFixation,jsons/v1_VE1000_randls_29_rotated.json,http://54.235.29.9/FacialAge/BNav_EC2/DepthDuration/v2_depth_duration_MTurk/v2_DepthDuration_HTML.html#43,43,1366,625,1366,768,8-29-2022,14-24-51,91,depth_duration_stimuli/002444_2014-06-28_20-32-08_260595134347_rgbf000027-resize_0/002444_2014-06-28_20-32-08_260595134347_rgbf000027-resize_0-target.png,1000,4.388999999999999,9,5566,999,meters,jsons/v1_VE1000_randls_29_rotated.json,794237,1552074,48,Woman
91,316277,DepthScenes,duration_manipulation_targetAtFixation,jsons/v1_VE1000_randls_29_rotated.json,http://54.235.29.9/FacialAge/BNav_EC2/DepthDuration/v2_depth_duration_MTurk/v2_DepthDuration_HTML.html#43,43,1366,625,1366,768,8-29-2022,14-24-51,92,depth_duration_stimuli/000436_2014-06-09_22-25-11_260595134347_rgbf000137-resize_1/000436_2014-06-09_22-25-11_260595134347_rgbf000137-resize_1-target.png,1000,4.0705,7,3798,998,meters,jsons/v1_VE1000_randls_29_rotated.json,794237,1552074,48,Woman
92,316277,DepthScenes,duration_manipulation_targetAtFixation,jsons/v1_VE1000_randls_29_rotated.json,http://54.235.29.9/FacialAge/BNav_EC2/DepthDuration/v2_depth_duration_MTurk/v2_DepthDuration_HTML.html#43,43,1366,625,1366,768,8-29-2022,14-24-51,93,depth_duration_stimuli/003423_2014-05-21_10-23-26_094959634447_rgbf002665-resize_2/003423_2014-05-21_10-23-26_094959634447_rgbf002665-resize_2-target.png,1000,3.2575,8,9108,995,meters,jsons/v1_VE1000_randls_29_rotated.json,794237,1552074,48,Woman
93,316277,DepthScenes,duration_manipulation_targetAtFixation,jsons/v1_VE1000_randls_29_rotated.json,http://54.235.29.9/FacialAge/BNav_EC2/DepthDuration/v2_depth_duration_MTurk/v2_DepthDuration_HTML.html#43,43,1366,625,1366,768,8-29-2022,14-24-51,94,depth_duration_stimuli/002905_2014-06-03_18-04-43_094959634447_rgbf000151-resize_2/002905_2014-06-03_18-04-43_094959634447_rgbf000151-resize_2-target.png,1000,2.0295,5,4815,999,meters,jsons/v1_VE1000_randls_29_rotated.json,794237,1552074,48,Woman
94,316277,DepthScenes,duration_manipulation_targetAtFixation,jsons/v1_VE1000_randls_29_rotated.json,http://54.235.29.9/FacialAge/BNav_EC2/DepthDuration/v2_depth_duration_MTurk/v2_DepthDuration_HTML.html#43,43,1366,625,1366,768,8-29-2022,14-24-51,95,depth_duration_stimuli/003081_2014-06-15_15-19-16_094959634447_rgbf000150-resize_1/003081_2014-06-15_15-19-16_094959634447_rgbf000150-resize_1-target.png,1000,3.9125,4,4364,999,meters,jsons/v1_VE1000_randls_29_rotated.json,794237,1552074,48,Woman
95,316277,DepthScenes,duration_manipulation_targetAtFixation,jsons/v1_VE1000_randls_29_rotated.json,http://54.235.29.9/FacialAge/BNav_EC2/DepthDuration/v2_depth_duration_MTurk/v2_DepthDuration_HTML.html#43,43,1366,625,1366,768,8-29-2022,14-24-51,96,depth_duration_stimuli/001417_2014-06-19_16-25-36_260595134347_rgbf000115-resize_5/001417_2014-06-19_16-25-36_260595134347_rgbf000115-resize_5-target.png,1000,4.6255,5,3270,1000,meters,jsons/v1_VE1000_randls_29_rotated.json,794237,1552074,48,Woman
96,316277,DepthScenes,duration_manipulation_targetAtFixation,jsons/v1_VE1000_randls_29_rotated.json,http://54.235.29.9/FacialAge/BNav_EC2/DepthDuration/v2_depth_duration_MTurk/v2_DepthDuration_HTML.html#43,43,1366,625,1366,768,8-29-2022,14-24-51,97,depth_duration_stimuli/003228_2014-05-14_13-42-35_094959634447_rgbf000101-resize_1/003228_2014-05-14_13-42-35_094959634447_rgbf000101-resize_1-target.png,1000,1.9680000000000002,3,3218,1000,meters,jsons/v1_VE1000_randls_29_rotated.json,794237,1552074,48,Woman
97,316277,DepthScenes,duration_manipulation_targetAtFixation,jsons/v1_VE1000_randls_29_rotated.json,http://54.235.29.9/FacialAge/BNav_EC2/DepthDuration/v2_depth_duration_MTurk/v2_DepthDuration_HTML.html#43,43,1366,625,1366,768,8-29-2022,14-24-51,98,depth_duration_stimuli/002600_2014-06-24_14-27-04_094959634447_rgbf000074-resize_2/002600_2014-06-24_14-27-04_094959634447_rgbf000074-resize_2-target.png,1000,2.7575,8,3408,998,meters,jsons/v1_VE1000_randls_29_rotated.json,794237,1552074,48,Woman
98,316277,DepthScenes,duration_manipulation_targetAtFixation,jsons/v1_VE1000_randls_29_rotated.json,http://54.235.29.9/FacialAge/BNav_EC2/DepthDuration/v2_depth_duration_MTurk/v2_DepthDuration_HTML.html#43,43,1366,625,1366,768,8-29-2022,14-24-51,99,depth_duration_stimuli/001222_2014-06-17_16-24-06_260595134347_rgbf000073-resize_0/001222_2014-06-17_16-24-06_260595134347_rgbf000073-resize-original.jpg,1000,1.4385,0,4990,1164,meters,jsons/v1_VE1000_randls_29_rotated.json,794237,1552074,48,Woman
99,316277,DepthScenes,duration_manipulation_targetAtFixation,jsons/v1_VE1000_randls_29_rotated.json,http://54.235.29.9/FacialAge/BNav_EC2/DepthDuration/v2_depth_duration_MTurk/v2_DepthDuration_HTML.html#43,43,1366,625,1366,768,8-29-2022,14-24-51,100,depth_duration_stimuli/001132_2014-06-17_14-48-54_260595134347_rgbf000100-resize_2/001132_2014-06-17_14-48-54_260595134347_rgbf000100-resize_2-target.png,1000,3.753,5,3663,999,meters,jsons/v1_VE1000_randls_29_rotated.json,794237,1552074,48,Woman
100,316277,DepthScenes,duration_manipulation_targetAtFixation,jsons/v1_VE1000_randls_29_rotated.json,http://54.235.29.9/FacialAge/BNav_EC2/DepthDuration/v2_depth_duration_MTurk/v2_DepthDuration_HTML.html#43,43,1366,625,1366,768,8-29-2022,14-24-51,101,depth_duration_stimuli/001133_2014-06-17_14-49-16_260595134347_rgbf000100-resize_0/001133_2014-06-17_14-49-16_260595134347_rgbf000100-resize_0-target.png,1000,4.2115,7,4492,999,meters,jsons/v1_VE1000_randls_29_rotated.json,794237,1552074,48,Woman
101,316277,DepthScenes,duration_manipulation_targetAtFixation,jsons/v1_VE1000_randls_29_rotated.json,http://54.235.29.9/FacialAge/BNav_EC2/DepthDuration/v2_depth_duration_MTurk/v2_DepthDuration_HTML.html#43,43,1366,625,1366,768,8-29-2022,14-24-51,102,depth_duration_stimuli/003010_2014-06-15_12-54-35_094959634447_rgbf000112-resize_0/003010_2014-06-15_12-54-35_094959634447_rgbf000112-resize_0-target.png,1000,3.1185,8,4504,998,meters,jsons/v1_VE1000_randls_29_rotated.json,794237,1552074,48,Woman
102,316277,DepthScenes,duration_manipulation_targetAtFixation,jsons/v1_VE1000_randls_29_rotated.json,http://54.235.29.9/FacialAge/BNav_EC2/DepthDuration/v2_depth_duration_MTurk/v2_DepthDuration_HTML.html#43,43,1366,625,1366,768,8-29-2022,14-24-51,103,depth_duration_stimuli/001810_2014-06-26_20-51-35_260595134347_rgbf000040-resize_3/001810_2014-06-26_20-51-35_260595134347_rgbf000040-resize_3-target.png,1000,2.2525,8,5248,999,meters,jsons/v1_VE1000_randls_29_rotated.json,794237,1552074,48,Woman
103,316277,DepthScenes,duration_manipulation_targetAtFixation,jsons/v1_VE1000_randls_29_rotated.json,http://54.235.29.9/FacialAge/BNav_EC2/DepthDuration/v2_depth_duration_MTurk/v2_DepthDuration_HTML.html#43,43,1366,625,1366,768,8-29-2022,14-24-51,104,depth_duration_stimuli/000409_2014-06-04_19-23-33_260595134347_rgbf000067-resize_0/000409_2014-06-04_19-23-33_260595134347_rgbf000067-resize_0-target.png,1000,3.7335,6,5720,951,meters,jsons/v1_VE1000_randls_29_rotated.json,794237,1552074,48,Woman
104,316277,DepthScenes,duration_manipulation_targetAtFixation,jsons/v1_VE1000_randls_29_rotated.json,http://54.235.29.9/FacialAge/BNav_EC2/DepthDuration/v2_depth_duration_MTurk/v2_DepthDuration_HTML.html#43,43,1366,625,1366,768,8-29-2022,14-24-51,105,depth_duration_stimuli/002663_2014-06-13_15-50-26_094959634447_rgbf000075-resize_1/002663_2014-06-13_15-50-26_094959634447_rgbf000075-resize_1-target.png,1000,4.7495,4,7562,998,meters,jsons/v1_VE1000_randls_29_rotated.json,794237,1552074,48,Woman
105,316277,DepthScenes,duration_manipulation_targetAtFixation,jsons/v1_VE1000_randls_29_rotated.json,http://54.235.29.9/FacialAge/BNav_EC2/DepthDuration/v2_depth_duration_MTurk/v2_DepthDuration_HTML.html#43,43,1366,625,1366,768,8-29-2022,14-24-51,106,depth_duration_stimuli/000734_2014-06-08_17-39-11_260595134347_rgbf000128-resize_2/000734_2014-06-08_17-39-11_260595134347_rgbf000128-resize_2-target.png,1000,4.098,3,3555,1018,meters,jsons/v1_VE1000_randls_29_rotated.json,794237,1552074,48,Woman
106,316277,DepthScenes,duration_manipulation_targetAtFixation,jsons/v1_VE1000_randls_29_rotated.json,http://54.235.29.9/FacialAge/BNav_EC2/DepthDuration/v2_depth_duration_MTurk/v2_DepthDuration_HTML.html#43,43,1366,625,1366,768,8-29-2022,14-24-51,107,depth_duration_stimuli/000739_2014-06-08_18-45-58_260595134347_rgbf000068-resize_1/000739_2014-06-08_18-45-58_260595134347_rgbf000068-resize_1-target.png,1000,3.534,4,2993,1011,meters,jsons/v1_VE1000_randls_29_rotated.json,794237,1552074,48,Woman
107,316277,DepthScenes,duration_manipulation_targetAtFixation,jsons/v1_VE1000_randls_29_rotated.json,http://54.235.29.9/FacialAge/BNav_EC2/DepthDuration/v2_depth_duration_MTurk/v2_DepthDuration_HTML.html#43,43,1366,625,1366,768,8-29-2022,14-24-51,108,depth_duration_stimuli/001447_2014-06-19_17-00-32_260595134347_rgbf000082-resize_5/001447_2014-06-19_17-00-32_260595134347_rgbf000082-resize_5-target.png,1000,4.13775,9,3639,1000,meters,jsons/v1_VE1000_randls_29_rotated.json,794237,1552074,48,Woman
108,316277,DepthScenes,duration_manipulation_targetAtFixation,jsons/v1_VE1000_randls_29_rotated.json,http://54.235.29.9/FacialAge/BNav_EC2/DepthDuration/v2_depth_duration_MTurk/v2_DepthDuration_HTML.html#43,43,1366,625,1366,768,8-29-2022,14-24-51,109,depth_duration_stimuli/000447_2014-06-08_16-15-46_260595134347_rgbf000130-resize_1/000447_2014-06-08_16-15-46_260595134347_rgbf000130-resize_1-target.png,1000,4.479,5,3247,999,meters,jsons/v1_VE1000_randls_29_rotated.json,794237,1552074,48,Woman
109,316277,DepthScenes,duration_manipulation_targetAtFixation,jsons/v1_VE1000_randls_29_rotated.json,http://54.235.29.9/FacialAge/BNav_EC2/DepthDuration/v2_depth_duration_MTurk/v2_DepthDuration_HTML.html#43,43,1366,625,1366,768,8-29-2022,14-24-51,110,depth_duration_stimuli/000749_2014-06-08_21-55-06_260595134347_rgbf000070-resize_2/000749_2014-06-08_21-55-06_260595134347_rgbf000070-resize_2-target.png,1000,2.331,5,4031,998,meters,jsons/v1_VE1000_randls_29_rotated.json,794237,1552074,48,Woman
110,316277,DepthScenes,duration_manipulation_targetAtFixation,jsons/v1_VE1000_randls_29_rotated.json,http://54.235.29.9/FacialAge/BNav_EC2/DepthDuration/v2_depth_duration_MTurk/v2_DepthDuration_HTML.html#43,43,1366,625,1366,768,8-29-2022,14-24-51,111,depth_duration_stimuli/002788_2014-06-22_19-36-03_094959634447_rgbf000088-resize_2/002788_2014-06-22_19-36-03_094959634447_rgbf000088-resize_2-target.png,1000,1.6465,6,3689,999,meters,jsons/v1_VE1000_randls_29_rotated.json,794237,1552074,48,Woman
111,316277,DepthScenes,duration_manipulation_targetAtFixation,jsons/v1_VE1000_randls_29_rotated.json,http://54.235.29.9/FacialAge/BNav_EC2/DepthDuration/v2_depth_duration_MTurk/v2_DepthDuration_HTML.html#43,43,1366,625,1366,768,8-29-2022,14-24-51,112,depth_duration_stimuli/002805_2014-06-22_19-54-03_094959634447_rgbf000079-resize_1/002805_2014-06-22_19-54-03_094959634447_rgbf000079-resize_1-target.png,1000,3.1439999999999997,6,3543,999,meters,jsons/v1_VE1000_randls_29_rotated.json,794237,1552074,48,Woman
112,316277,DepthScenes,duration_manipulation_targetAtFixation,jsons/v1_VE1000_randls_29_rotated.json,http://54.235.29.9/FacialAge/BNav_EC2/DepthDuration/v2_depth_duration_MTurk/v2_DepthDuration_HTML.html#43,43,1366,625,1366,768,8-29-2022,14-24-51,113,depth_duration_stimuli/000906_2014-06-08_13-35-43_260595134347_rgbf000155-resize_1/000906_2014-06-08_13-35-43_260595134347_rgbf000155-resize_1-target.png,1000,2.8489999999999998,7,3763,1000,meters,jsons/v1_VE1000_randls_29_rotated.json,794237,1552074,48,Woman
113,316277,DepthScenes,duration_manipulation_targetAtFixation,jsons/v1_VE1000_randls_29_rotated.json,http://54.235.29.9/FacialAge/BNav_EC2/DepthDuration/v2_depth_duration_MTurk/v2_DepthDuration_HTML.html#43,43,1366,625,1366,768,8-29-2022,14-24-51,114,depth_duration_stimuli/000103_2014-05-14_22-01-17_260595134347_rgbf000152-resize_5/000103_2014-05-14_22-01-17_260595134347_rgbf000152-resize_5-target.png,1000,1.993,2,3817,998,meters,jsons/v1_VE1000_randls_29_rotated.json,794237,1552074,48,Woman
114,316277,DepthScenes,duration_manipulation_targetAtFixation,jsons/v1_VE1000_randls_29_rotated.json,http://54.235.29.9/FacialAge/BNav_EC2/DepthDuration/v2_depth_duration_MTurk/v2_DepthDuration_HTML.html#43,43,1366,625,1366,768,8-29-2022,14-24-51,115,depth_duration_stimuli/001555_2014-06-20_17-12-10_260595134347_rgbf000065-resize_4/001555_2014-06-20_17-12-10_260595134347_rgbf000065-resize_4-target.png,1000,1.633,4,3676,999,meters,jsons/v1_VE1000_randls_29_rotated.json,794237,1552074,48,Woman
115,316277,DepthScenes,duration_manipulation_targetAtFixation,jsons/v1_VE1000_randls_29_rotated.json,http://54.235.29.9/FacialAge/BNav_EC2/DepthDuration/v2_depth_duration_MTurk/v2_DepthDuration_HTML.html#43,43,1366,625,1366,768,8-29-2022,14-24-51,116,depth_duration_stimuli/002103_2014-06-25_20-00-40_260595134347_rgbf000049-resize_0/002103_2014-06-25_20-00-40_260595134347_rgbf000049-resize_0-target.png,1000,4.105,4,5453,992,meters,jsons/v1_VE1000_randls_29_rotated.json,794237,1552074,48,Woman
116,316277,DepthScenes,duration_manipulation_targetAtFixation,jsons/v1_VE1000_randls_29_rotated.json,http://54.235.29.9/FacialAge/BNav_EC2/DepthDuration/v2_depth_duration_MTurk/v2_DepthDuration_HTML.html#43,43,1366,625,1366,768,8-29-2022,14-24-51,117,depth_duration_stimuli/002039_2014-06-24_20-22-38_260595134347_rgbf000084-resize_1/002039_2014-06-24_20-22-38_260595134347_rgbf000084-resize_1-target.png,1000,4.408,1,4278,999,meters,jsons/v1_VE1000_randls_29_rotated.json,794237,1552074,48,Woman
117,316277,DepthScenes,duration_manipulation_targetAtFixation,jsons/v1_VE1000_randls_29_rotated.json,http://54.235.29.9/FacialAge/BNav_EC2/DepthDuration/v2_depth_duration_MTurk/v2_DepthDuration_HTML.html#43,43,1366,625,1366,768,8-29-2022,14-24-51,118,depth_duration_stimuli/003129_2014-05-12_10-48-10_094959634447_rgbf000100-resize_0/003129_2014-05-12_10-48-10_094959634447_rgbf000100-resize_0-target.png,1000,4.9305,3,3827,999,meters,jsons/v1_VE1000_randls_29_rotated.json,794237,1552074,48,Woman
118,316277,DepthScenes,duration_manipulation_targetAtFixation,jsons/v1_VE1000_randls_29_rotated.json,http://54.235.29.9/FacialAge/BNav_EC2/DepthDuration/v2_depth_duration_MTurk/v2_DepthDuration_HTML.html#43,43,1366,625,1366,768,8-29-2022,14-24-51,119,depth_duration_stimuli/000414_2014-06-04_19-49-13_260595134347_rgbf000044-resize_0/000414_2014-06-04_19-49-13_260595134347_rgbf000044-resize_0-target.png,1000,4.329,6,5180,1000,meters,jsons/v1_VE1000_randls_29_rotated.json,794237,1552074,48,Woman
119,316277,DepthScenes,duration_manipulation_targetAtFixation,jsons/v1_VE1000_randls_29_rotated.json,http://54.235.29.9/FacialAge/BNav_EC2/DepthDuration/v2_depth_duration_MTurk/v2_DepthDuration_HTML.html#43,43,1366,625,1366,768,8-29-2022,14-24-51,120,depth_duration_stimuli/000787_2014-06-08_22-33-53_260595134347_rgbf000175-resize_1/000787_2014-06-08_22-33-53_260595134347_rgbf000175-resize-original.jpg,1000,4.784,7,3511,998,meters,jsons/v1_VE1000_randls_29_rotated.json,794237,1552074,48,Woman
120,316277,DepthScenes,duration_manipulation_targetAtFixation,jsons/v1_VE1000_randls_29_rotated.json,http://54.235.29.9/FacialAge/BNav_EC2/DepthDuration/v2_depth_duration_MTurk/v2_DepthDuration_HTML.html#43,43,1366,625,1366,768,8-29-2022,14-24-51,121,depth_duration_stimuli/000742_2014-06-08_18-48-09_260595134347_rgbf000164-resize_4/000742_2014-06-08_18-48-09_260595134347_rgbf000164-resize_4-target.png,1000,4.632,9,3920,995,meters,jsons/v1_VE1000_randls_29_rotated.json,794237,1552074,48,Woman
121,316277,DepthScenes,duration_manipulation_targetAtFixation,jsons/v1_VE1000_randls_29_rotated.json,http://54.235.29.9/FacialAge/BNav_EC2/DepthDuration/v2_depth_duration_MTurk/v2_DepthDuration_HTML.html#43,43,1366,625,1366,768,8-29-2022,14-24-51,122,depth_duration_stimuli/001066_2014-06-08_22-03-20_260595134347_rgbf000066-resize_4/001066_2014-06-08_22-03-20_260595134347_rgbf000066-resize_4-target.png,1000,4.2330000000000005,8,3805,1000,meters,jsons/v1_VE1000_randls_29_rotated.json,794237,1552074,48,Woman
122,316277,DepthScenes,duration_manipulation_targetAtFixation,jsons/v1_VE1000_randls_29_rotated.json,http://54.235.29.9/FacialAge/BNav_EC2/DepthDuration/v2_depth_duration_MTurk/v2_DepthDuration_HTML.html#43,43,1366,625,1366,768,8-29-2022,14-24-51,123,depth_duration_stimuli/002323_2014-06-28_20-01-54_260595134347_rgbf000051-resize_4/002323_2014-06-28_20-01-54_260595134347_rgbf000051-resize_4-target.png,1000,3.7310000000000003,3,3355,1006,meters,jsons/v1_VE1000_randls_29_rotated.json,794237,1552074,48,Woman
123,316277,DepthScenes,duration_manipulation_targetAtFixation,jsons/v1_VE1000_randls_29_rotated.json,http://54.235.29.9/FacialAge/BNav_EC2/DepthDuration/v2_depth_duration_MTurk/v2_DepthDuration_HTML.html#43,43,1366,625,1366,768,8-29-2022,14-24-51,124,depth_duration_stimuli/000917_2014-06-09_22-45-29_260595134347_rgbf000149-resize_3/000917_2014-06-09_22-45-29_260595134347_rgbf000149-resize_3-target.png,1000,4.1865,10,5835,999,meters,jsons/v1_VE1000_randls_29_rotated.json,794237,1552074,48,Woman
124,316277,DepthScenes,duration_manipulation_targetAtFixation,jsons/v1_VE1000_randls_29_rotated.json,http://54.235.29.9/FacialAge/BNav_EC2/DepthDuration/v2_depth_duration_MTurk/v2_DepthDuration_HTML.html#43,43,1366,625,1366,768,8-29-2022,14-24-51,125,depth_duration_stimuli/002467_2014-06-28_20-38-07_260595134347_rgbf000026-resize_2/002467_2014-06-28_20-38-07_260595134347_rgbf000026-resize_2-target.png,1000,4.742,5,4339,1000,meters,jsons/v1_VE1000_randls_29_rotated.json,794237,1552074,48,Woman
125,316277,DepthScenes,duration_manipulation_targetAtFixation,jsons/v1_VE1000_randls_29_rotated.json,http://54.235.29.9/FacialAge/BNav_EC2/DepthDuration/v2_depth_duration_MTurk/v2_DepthDuration_HTML.html#43,43,1366,625,1366,768,8-29-2022,14-24-51,126,depth_duration_stimuli/002570_2014-06-24_13-59-54_094959634447_rgbf000059-resize_0/002570_2014-06-24_13-59-54_094959634447_rgbf000059-resize_0-target.png,1000,4.037,5,3770,1001,meters,jsons/v1_VE1000_randls_29_rotated.json,794237,1552074,48,Woman
126,316277,DepthScenes,duration_manipulation_targetAtFixation,jsons/v1_VE1000_randls_29_rotated.json,http://54.235.29.9/FacialAge/BNav_EC2/DepthDuration/v2_depth_duration_MTurk/v2_DepthDuration_HTML.html#43,43,1366,625,1366,768,8-29-2022,14-24-51,127,depth_duration_stimuli/000549_2014-06-08_22-10-24_260595134347_rgbf000247-resize_3/000549_2014-06-08_22-10-24_260595134347_rgbf000247-resize_3-target.png,1000,1.841,6,4274,991,meters,jsons/v1_VE1000_randls_29_rotated.json,794237,1552074,48,Woman
127,316277,DepthScenes,duration_manipulation_targetAtFixation,jsons/v1_VE1000_randls_29_rotated.json,http://54.235.29.9/FacialAge/BNav_EC2/DepthDuration/v2_depth_duration_MTurk/v2_DepthDuration_HTML.html#43,43,1366,625,1366,768,8-29-2022,14-24-51,128,depth_duration_stimuli/001055_2014-06-08_18-45-35_260595134347_rgbf000111-resize_4/001055_2014-06-08_18-45-35_260595134347_rgbf000111-resize_4-target.png,1000,2.4290000000000003,8,4435,995,meters,jsons/v1_VE1000_randls_29_rotated.json,794237,1552074,48,Woman
128,316277,DepthScenes,duration_manipulation_targetAtFixation,jsons/v1_VE1000_randls_29_rotated.json,http://54.235.29.9/FacialAge/BNav_EC2/DepthDuration/v2_depth_duration_MTurk/v2_DepthDuration_HTML.html#43,43,1366,625,1366,768,8-29-2022,14-24-51,129,depth_duration_stimuli/002545_2014-06-24_13-38-53_094959634447_rgbf000080-resize_4/002545_2014-06-24_13-38-53_094959634447_rgbf000080-resize_4-target.png,1000,1.9205,5,4140,1000,meters,jsons/v1_VE1000_randls_29_rotated.json,794237,1552074,48,Woman
129,316277,DepthScenes,duration_manipulation_targetAtFixation,jsons/v1_VE1000_randls_29_rotated.json,http://54.235.29.9/FacialAge/BNav_EC2/DepthDuration/v2_depth_duration_MTurk/v2_DepthDuration_HTML.html#43,43,1366,625,1366,768,8-29-2022,14-24-51,130,depth_duration_stimuli/001092_2014-06-15_17-34-58_260595134347_rgbf000171-resize_3/001092_2014-06-15_17-34-58_260595134347_rgbf000171-resize_3-target.png,1000,2.6935,8,4403,1001,meters,jsons/v1_VE1000_randls_29_rotated.json,794237,1552074,48,Woman
130,316277,DepthScenes,duration_manipulation_targetAtFixation,jsons/v1_VE1000_randls_29_rotated.json,http://54.235.29.9/FacialAge/BNav_EC2/DepthDuration/v2_depth_duration_MTurk/v2_DepthDuration_HTML.html#43,43,1366,625,1366,768,8-29-2022,14-24-51,131,depth_duration_stimuli/000709_2014-06-08_13-51-55_260595134347_rgbf000068-resize_3/000709_2014-06-08_13-51-55_260595134347_rgbf000068-resize_3-target.png,1000,1.8030000000000002,3,4241,1000,meters,jsons/v1_VE1000_randls_29_rotated.json,794237,1552074,48,Woman
131,316277,DepthScenes,duration_manipulation_targetAtFixation,jsons/v1_VE1000_randls_29_rotated.json,http://54.235.29.9/FacialAge/BNav_EC2/DepthDuration/v2_depth_duration_MTurk/v2_DepthDuration_HTML.html#43,43,1366,625,1366,768,8-29-2022,14-24-51,132,depth_duration_stimuli/002057_2014-06-24_21-00-13_260595134347_rgbf000120-resize_1/002057_2014-06-24_21-00-13_260595134347_rgbf000120-resize_1-target.png,1000,2.967,6,5710,1000,meters,jsons/v1_VE1000_randls_29_rotated.json,794237,1552074,48,Woman
132,316277,DepthScenes,duration_manipulation_targetAtFixation,jsons/v1_VE1000_randls_29_rotated.json,http://54.235.29.9/FacialAge/BNav_EC2/DepthDuration/v2_depth_duration_MTurk/v2_DepthDuration_HTML.html#43,43,1366,625,1366,768,8-29-2022,14-24-51,133,depth_duration_stimuli/001052_2014-06-08_18-24-54_260595134347_rgbf000130-resize_1/001052_2014-06-08_18-24-54_260595134347_rgbf000130-resize_1-target.png,1000,4.1045,7,31798,999,meters,jsons/v1_VE1000_randls_29_rotated.json,794237,1552074,48,Woman
133,316277,DepthScenes,duration_manipulation_targetAtFixation,jsons/v1_VE1000_randls_29_rotated.json,http://54.235.29.9/FacialAge/BNav_EC2/DepthDuration/v2_depth_duration_MTurk/v2_DepthDuration_HTML.html#43,43,1366,625,1366,768,8-29-2022,14-24-51,134,depth_duration_stimuli/002988_2014-06-15_12-24-20_094959634447_rgbf000150-resize_1/002988_2014-06-15_12-24-20_094959634447_rgbf000150-resize_1-target.png,1000,4.7669999999999995,9,7950,998,meters,jsons/v1_VE1000_randls_29_rotated.json,794237,1552074,48,Woman
134,316277,DepthScenes,duration_manipulation_targetAtFixation,jsons/v1_VE1000_randls_29_rotated.json,http://54.235.29.9/FacialAge/BNav_EC2/DepthDuration/v2_depth_duration_MTurk/v2_DepthDuration_HTML.html#43,43,1366,625,1366,768,8-29-2022,14-24-51,135,depth_duration_stimuli/000375_2014-06-08_11-17-29_260595134347_rgbf000133-resize_2/000375_2014-06-08_11-17-29_260595134347_rgbf000133-resize-original.jpg,1000,4.718,0,3645,951,meters,jsons/v1_VE1000_randls_29_rotated.json,794237,1552074,48,Woman
135,316277,DepthScenes,duration_manipulation_targetAtFixation,jsons/v1_VE1000_randls_29_rotated.json,http://54.235.29.9/FacialAge/BNav_EC2/DepthDuration/v2_depth_duration_MTurk/v2_DepthDuration_HTML.html#43,43,1366,625,1366,768,8-29-2022,14-24-51,136,depth_duration_stimuli/001094_2014-06-15_17-36-00_260595134347_rgbf000205-resize_0/001094_2014-06-15_17-36-00_260595134347_rgbf000205-resize_0-target.png,1000,4.2175,6,4812,999,meters,jsons/v1_VE1000_randls_29_rotated.json,794237,1552074,48,Woman
136,316277,DepthScenes,duration_manipulation_targetAtFixation,jsons/v1_VE1000_randls_29_rotated.json,http://54.235.29.9/FacialAge/BNav_EC2/DepthDuration/v2_depth_duration_MTurk/v2_DepthDuration_HTML.html#43,43,1366,625,1366,768,8-29-2022,14-24-51,137,depth_duration_stimuli/000692_2014-06-08_13-09-42_260595134347_rgbf000199-resize_2/000692_2014-06-08_13-09-42_260595134347_rgbf000199-resize_2-target.png,1000,3.661,7,4855,1001,meters,jsons/v1_VE1000_randls_29_rotated.json,794237,1552074,48,Woman
137,316277,DepthScenes,duration_manipulation_targetAtFixation,jsons/v1_VE1000_randls_29_rotated.json,http://54.235.29.9/FacialAge/BNav_EC2/DepthDuration/v2_depth_duration_MTurk/v2_DepthDuration_HTML.html#43,43,1366,625,1366,768,8-29-2022,14-24-51,138,depth_duration_stimuli/000691_2014-06-08_13-08-50_260595134347_rgbf000132-resize_3/000691_2014-06-08_13-08-50_260595134347_rgbf000132-resize_3-target.png,1000,4.1530000000000005,3,3230,999,meters,jsons/v1_VE1000_randls_29_rotated.json,794237,1552074,48,Woman
138,316277,DepthScenes,duration_manipulation_targetAtFixation,jsons/v1_VE1000_randls_29_rotated.json,http://54.235.29.9/FacialAge/BNav_EC2/DepthDuration/v2_depth_duration_MTurk/v2_DepthDuration_HTML.html#43,43,1366,625,1366,768,8-29-2022,14-24-51,139,depth_duration_stimuli/002213_2014-06-28_18-37-58_260595134347_rgbf000055-resize_1/002213_2014-06-28_18-37-58_260595134347_rgbf000055-resize_1-target.png,1000,3.62,4,3539,999,meters,jsons/v1_VE1000_randls_29_rotated.json,794237,1552074,48,Woman
139,316277,DepthScenes,duration_manipulation_targetAtFixation,jsons/v1_VE1000_randls_29_rotated.json,http://54.235.29.9/FacialAge/BNav_EC2/DepthDuration/v2_depth_duration_MTurk/v2_DepthDuration_HTML.html#43,43,1366,625,1366,768,8-29-2022,14-24-51,140,depth_duration_stimuli/001136_2014-06-17_15-19-41_260595134347_rgbf000076-resize_3/001136_2014-06-17_15-19-41_260595134347_rgbf000076-resize_3-target.png,1000,1.8655,5,3659,914,meters,jsons/v1_VE1000_randls_29_rotated.json,794237,1552074,48,Woman
140,316277,DepthScenes,duration_manipulation_targetAtFixation,jsons/v1_VE1000_randls_29_rotated.json,http://54.235.29.9/FacialAge/BNav_EC2/DepthDuration/v2_depth_duration_MTurk/v2_DepthDuration_HTML.html#43,43,1366,625,1366,768,8-29-2022,14-24-51,141,depth_duration_stimuli/001164_2014-06-17_15-35-46_260595134347_rgbf000085-resize_3/001164_2014-06-17_15-35-46_260595134347_rgbf000085-resize_3-target.png,1000,2.354,4,3077,906,meters,jsons/v1_VE1000_randls_29_rotated.json,794237,1552074,48,Woman
141,316277,DepthScenes,duration_manipulation_targetAtFixation,jsons/v1_VE1000_randls_29_rotated.json,http://54.235.29.9/FacialAge/BNav_EC2/DepthDuration/v2_depth_duration_MTurk/v2_DepthDuration_HTML.html#43,43,1366,625,1366,768,8-29-2022,14-24-51,142,depth_duration_stimuli/003490_2014-05-21_15-50-11_094959634447_rgbf000101-resize_3/003490_2014-05-21_15-50-11_094959634447_rgbf000101-resize_3-target.png,1000,3.6445,6,3393,999,meters,jsons/v1_VE1000_randls_29_rotated.json,794237,1552074,48,Woman
142,316277,DepthScenes,duration_manipulation_targetAtFixation,jsons/v1_VE1000_randls_29_rotated.json,http://54.235.29.9/FacialAge/BNav_EC2/DepthDuration/v2_depth_duration_MTurk/v2_DepthDuration_HTML.html#43,43,1366,625,1366,768,8-29-2022,14-24-51,143,depth_duration_stimuli/001175_2014-06-17_15-45-55_260595134347_rgbf000129-resize_4/001175_2014-06-17_15-45-55_260595134347_rgbf000129-resize_4-target.png,1000,4.255,8,4792,1000,meters,jsons/v1_VE1000_randls_29_rotated.json,794237,1552074,48,Woman
143,316277,DepthScenes,duration_manipulation_targetAtFixation,jsons/v1_VE1000_randls_29_rotated.json,http://54.235.29.9/FacialAge/BNav_EC2/DepthDuration/v2_depth_duration_MTurk/v2_DepthDuration_HTML.html#43,43,1366,625,1366,768,8-29-2022,14-24-51,144,depth_duration_stimuli/002750_2014-06-22_19-08-03_094959634447_rgbf000094-resize_4/002750_2014-06-22_19-08-03_094959634447_rgbf000094-resize_4-target.png,1000,2.354,6,3315,1074,meters,jsons/v1_VE1000_randls_29_rotated.json,794237,1552074,48,Woman
144,316277,DepthScenes,duration_manipulation_targetAtFixation,jsons/v1_VE1000_randls_29_rotated.json,http://54.235.29.9/FacialAge/BNav_EC2/DepthDuration/v2_depth_duration_MTurk/v2_DepthDuration_HTML.html#43,43,1366,625,1366,768,8-29-2022,14-24-51,145,depth_duration_stimuli/002549_2014-06-24_13-41-39_094959634447_rgbf000022-resize_3/002549_2014-06-24_13-41-39_094959634447_rgbf000022-resize_3-target.png,1000,1.476,3,3277,841,meters,jsons/v1_VE1000_randls_29_rotated.json,794237,1552074,48,Woman
145,316277,DepthScenes,duration_manipulation_targetAtFixation,jsons/v1_VE1000_randls_29_rotated.json,http://54.235.29.9/FacialAge/BNav_EC2/DepthDuration/v2_depth_duration_MTurk/v2_DepthDuration_HTML.html#43,43,1366,625,1366,768,8-29-2022,14-24-51,146,depth_duration_stimuli/002637_2014-06-24_14-51-13_094959634447_rgbf000066-resize_4/002637_2014-06-24_14-51-13_094959634447_rgbf000066-resize_4-target.png,1000,1.9955,3,3056,999,meters,jsons/v1_VE1000_randls_29_rotated.json,794237,1552074,48,Woman
146,316277,DepthScenes,duration_manipulation_targetAtFixation,jsons/v1_VE1000_randls_29_rotated.json,http://54.235.29.9/FacialAge/BNav_EC2/DepthDuration/v2_depth_duration_MTurk/v2_DepthDuration_HTML.html#43,43,1366,625,1366,768,8-29-2022,14-24-51,147,depth_duration_stimuli/003534_2014-05-22_15-06-10_094959634447_rgbf000102-resize_4/003534_2014-05-22_15-06-10_094959634447_rgbf000102-resize_4-target.png,1000,1.426,4,3052,990,meters,jsons/v1_VE1000_randls_29_rotated.json,794237,1552074,48,Woman
147,316277,DepthScenes,duration_manipulation_targetAtFixation,jsons/v1_VE1000_randls_29_rotated.json,http://54.235.29.9/FacialAge/BNav_EC2/DepthDuration/v2_depth_duration_MTurk/v2_DepthDuration_HTML.html#43,43,1366,625,1366,768,8-29-2022,14-24-51,148,depth_duration_stimuli/001584_2014-06-20_11-07-43_260595134347_rgbf000002-resize_1/001584_2014-06-20_11-07-43_260595134347_rgbf000002-resize_1-target.png,1000,3.53,6,4287,961,meters,jsons/v1_VE1000_randls_29_rotated.json,794237,1552074,48,Woman
148,316277,DepthScenes,duration_manipulation_targetAtFixation,jsons/v1_VE1000_randls_29_rotated.json,http://54.235.29.9/FacialAge/BNav_EC2/DepthDuration/v2_depth_duration_MTurk/v2_DepthDuration_HTML.html#43,43,1366,625,1366,768,8-29-2022,14-24-51,149,depth_duration_stimuli/003621_2014-05-23_18-06-08_094959634447_rgbf000101-resize_1/003621_2014-05-23_18-06-08_094959634447_rgbf000101-resize_1-target.png,1000,3.9835,8,4101,999,meters,jsons/v1_VE1000_randls_29_rotated.json,794237,1552074,48,Woman
149,316277,DepthScenes,duration_manipulation_targetAtFixation,jsons/v1_VE1000_randls_29_rotated.json,http://54.235.29.9/FacialAge/BNav_EC2/DepthDuration/v2_depth_duration_MTurk/v2_DepthDuration_HTML.html#43,43,1366,625,1366,768,8-29-2022,14-24-51,150,depth_duration_stimuli/000780_2014-06-08_22-28-29_260595134347_rgbf000126-resize_1/000780_2014-06-08_22-28-29_260595134347_rgbf000126-resize_1-target.png,1000,3.3825,5,3274,1002,meters,jsons/v1_VE1000_randls_29_rotated.json,794237,1552074,48,Woman
150,316277,DepthScenes,duration_manipulation_targetAtFixation,jsons/v1_VE1000_randls_29_rotated.json,http://54.235.29.9/FacialAge/BNav_EC2/DepthDuration/v2_depth_duration_MTurk/v2_DepthDuration_HTML.html#43,43,1366,625,1366,768,8-29-2022,14-24-51,151,depth_duration_stimuli/002445_2014-06-28_20-32-16_260595134347_rgbf000029-resize_4/002445_2014-06-28_20-32-16_260595134347_rgbf000029-resize_4-target.png,1000,2.5315,1,3301,995,meters,jsons/v1_VE1000_randls_29_rotated.json,794237,1552074,48,Woman
151,316277,DepthScenes,duration_manipulation_targetAtFixation,jsons/v1_VE1000_randls_29_rotated.json,http://54.235.29.9/FacialAge/BNav_EC2/DepthDuration/v2_depth_duration_MTurk/v2_DepthDuration_HTML.html#43,43,1366,625,1366,768,8-29-2022,14-24-51,152,depth_duration_stimuli/000569_2014-06-09_22-51-47_260595134347_rgbf000141-resize_3/000569_2014-06-09_22-51-47_260595134347_rgbf000141-resize-original.jpg,1000,4.512,0,3350,1014,meters,jsons/v1_VE1000_randls_29_rotated.json,794237,1552074,48,Woman
152,316277,DepthScenes,duration_manipulation_targetAtFixation,jsons/v1_VE1000_randls_29_rotated.json,http://54.235.29.9/FacialAge/BNav_EC2/DepthDuration/v2_depth_duration_MTurk/v2_DepthDuration_HTML.html#43,43,1366,625,1366,768,8-29-2022,14-24-51,153,depth_duration_stimuli/002678_2014-06-13_16-15-32_094959634447_rgbf000151-resize_6/002678_2014-06-13_16-15-32_094959634447_rgbf000151-resize_6-target.png,1000,2.1830000000000003,3,3992,999,meters,jsons/v1_VE1000_randls_29_rotated.json,794237,1552074,48,Woman
153,316277,DepthScenes,duration_manipulation_targetAtFixation,jsons/v1_VE1000_randls_29_rotated.json,http://54.235.29.9/FacialAge/BNav_EC2/DepthDuration/v2_depth_duration_MTurk/v2_DepthDuration_HTML.html#43,43,1366,625,1366,768,8-29-2022,14-24-51,154,depth_duration_stimuli/000368_2014-06-09_15-53-01_260595134347_rgbf000155-resize_2/000368_2014-06-09_15-53-01_260595134347_rgbf000155-resize_2-target.png,1000,2.4859999999999998,5,4124,834,meters,jsons/v1_VE1000_randls_29_rotated.json,794237,1552074,48,Woman
154,316277,DepthScenes,duration_manipulation_targetAtFixation,jsons/v1_VE1000_randls_29_rotated.json,http://54.235.29.9/FacialAge/BNav_EC2/DepthDuration/v2_depth_duration_MTurk/v2_DepthDuration_HTML.html#43,43,1366,625,1366,768,8-29-2022,14-24-51,155,depth_duration_stimuli/000191_2014-05-12_17-07-38_260595134347_rgbf000199-resize_0/000191_2014-05-12_17-07-38_260595134347_rgbf000199-resize_0-target.png,1000,3.7995,5,3517,1163,meters,jsons/v1_VE1000_randls_29_rotated.json,794237,1552074,48,Woman
155,316277,DepthScenes,duration_manipulation_targetAtFixation,jsons/v1_VE1000_randls_29_rotated.json,http://54.235.29.9/FacialAge/BNav_EC2/DepthDuration/v2_depth_duration_MTurk/v2_DepthDuration_HTML.html#43,43,1366,625,1366,768,8-29-2022,14-24-51,156,depth_duration_stimuli/000493_2014-06-09_21-01-18_260595134347_rgbf000196-resize_3/000493_2014-06-09_21-01-18_260595134347_rgbf000196-resize_3-target.png,1000,3.44,6,3452,1001,meters,jsons/v1_VE1000_randls_29_rotated.json,794237,1552074,48,Woman
156,316277,DepthScenes,duration_manipulation_targetAtFixation,jsons/v1_VE1000_randls_29_rotated.json,http://54.235.29.9/FacialAge/BNav_EC2/DepthDuration/v2_depth_duration_MTurk/v2_DepthDuration_HTML.html#43,43,1366,625,1366,768,8-29-2022,14-24-51,157,depth_duration_stimuli/000677_2014-06-08_23-10-32_260595134347_rgbf000158-resize_6/000677_2014-06-08_23-10-32_260595134347_rgbf000158-resize_6-target.png,1000,3.556,1,3972,1071,meters,jsons/v1_VE1000_randls_29_rotated.json,794237,1552074,48,Woman
157,316277,DepthScenes,duration_manipulation_targetAtFixation,jsons/v1_VE1000_randls_29_rotated.json,http://54.235.29.9/FacialAge/BNav_EC2/DepthDuration/v2_depth_duration_MTurk/v2_DepthDuration_HTML.html#43,43,1366,625,1366,768,8-29-2022,14-24-51,158,depth_duration_stimuli/001029_2014-06-08_13-17-57_260595134347_rgbf000065-resize_1/001029_2014-06-08_13-17-57_260595134347_rgbf000065-resize_1-target.png,1000,3.0835,1,3097,999,meters,jsons/v1_VE1000_randls_29_rotated.json,794237,1552074,48,Woman
158,316277,DepthScenes,duration_manipulation_targetAtFixation,jsons/v1_VE1000_randls_29_rotated.json,http://54.235.29.9/FacialAge/BNav_EC2/DepthDuration/v2_depth_duration_MTurk/v2_DepthDuration_HTML.html#43,43,1366,625,1366,768,8-29-2022,14-24-51,159,depth_duration_stimuli/002568_2014-06-24_13-59-21_094959634447_rgbf000062-resize_4/002568_2014-06-24_13-59-21_094959634447_rgbf000062-resize_4-target.png,1000,3.015,1,3526,999,meters,jsons/v1_VE1000_randls_29_rotated.json,794237,1552074,48,Woman
159,316277,DepthScenes,duration_manipulation_targetAtFixation,jsons/v1_VE1000_randls_29_rotated.json,http://54.235.29.9/FacialAge/BNav_EC2/DepthDuration/v2_depth_duration_MTurk/v2_DepthDuration_HTML.html#43,43,1366,625,1366,768,8-29-2022,14-24-51,160,depth_duration_stimuli/003492_2014-05-21_15-50-55_094959634447_rgbf000828-resize_1/003492_2014-05-21_15-50-55_094959634447_rgbf000828-resize_1-target.png,1000,4.06875,2,3777,997,meters,jsons/v1_VE1000_randls_29_rotated.json,794237,1552074,48,Woman
160,316277,DepthScenes,duration_manipulation_targetAtFixation,jsons/v1_VE1000_randls_29_rotated.json,http://54.235.29.9/FacialAge/BNav_EC2/DepthDuration/v2_depth_duration_MTurk/v2_DepthDuration_HTML.html#43,43,1366,625,1366,768,8-29-2022,14-24-51,161,depth_duration_stimuli/000556_2014-06-09_22-42-56_260595134347_rgbf000214-resize_1/000556_2014-06-09_22-42-56_260595134347_rgbf000214-resize_1-target.png,1000,4.8415,3,3791,1000,meters,jsons/v1_VE1000_randls_29_rotated.json,794237,1552074,48,Woman
161,316277,DepthScenes,duration_manipulation_targetAtFixation,jsons/v1_VE1000_randls_29_rotated.json,http://54.235.29.9/FacialAge/BNav_EC2/DepthDuration/v2_depth_duration_MTurk/v2_DepthDuration_HTML.html#43,43,1366,625,1366,768,8-29-2022,14-24-51,162,depth_duration_stimuli/001158_2014-06-17_15-32-16_260595134347_rgbf000138-resize_2/001158_2014-06-17_15-32-16_260595134347_rgbf000138-resize_2-target.png,1000,4.5315,2,3004,999,meters,jsons/v1_VE1000_randls_29_rotated.json,794237,1552074,48,Woman
162,316277,DepthScenes,duration_manipulation_targetAtFixation,jsons/v1_VE1000_randls_29_rotated.json,http://54.235.29.9/FacialAge/BNav_EC2/DepthDuration/v2_depth_duration_MTurk/v2_DepthDuration_HTML.html#43,43,1366,625,1366,768,8-29-2022,14-24-51,163,depth_duration_stimuli/003083_2014-06-15_15-21-03_094959634447_rgbf000063-resize_1/003083_2014-06-15_15-21-03_094959634447_rgbf000063-resize_1-target.png,1000,4.1405,8,4972,1000,meters,jsons/v1_VE1000_randls_29_rotated.json,794237,1552074,48,Woman
163,316277,DepthScenes,duration_manipulation_targetAtFixation,jsons/v1_VE1000_randls_29_rotated.json,http://54.235.29.9/FacialAge/BNav_EC2/DepthDuration/v2_depth_duration_MTurk/v2_DepthDuration_HTML.html#43,43,1366,625,1366,768,8-29-2022,14-24-51,164,depth_duration_stimuli/000486_2014-06-09_20-47-20_260595134347_rgbf000143-resize_2/000486_2014-06-09_20-47-20_260595134347_rgbf000143-resize_2-target.png,1000,4.8325,1,3563,1054,meters,jsons/v1_VE1000_randls_29_rotated.json,794237,1552074,48,Woman
