,subjID,experimentName,versionName,sequenceName,url,selected_row,windowWidth,windowHeight,screenWidth,screenHeight,startDate,startTime,trial,stimulus,duration,actual_depth,depth_estimate,trial_RT,log_sceneDuration,unitSelection,seq_filepath,experimentTime,totalTime,age,gender
0,316861,DepthScenes,duration_manipulation_targetAtFixation,jsons/VE125_randls_52.json,http://54.235.29.9/FacialAge/BNav_EC2/DepthDuration/v2_depth_duration_MTurk/v2_DepthDuration_HTML.html#54,54,1600,781,1600,900,8-21-2022,9-36-0,1,depth_duration_stimuli/002784_2014-06-22_19-26-30_094959634447_rgbf000083-resize_3/002784_2014-06-22_19-26-30_094959634447_rgbf000083-resize_3-target.png,125,1.8046666666667,5,6357,124,feet,jsons/VE125_randls_52.json,761175,978117,47,Woman
1,316861,DepthScenes,duration_manipulation_targetAtFixation,jsons/VE125_randls_52.json,http://54.235.29.9/FacialAge/BNav_EC2/DepthDuration/v2_depth_duration_MTurk/v2_DepthDuration_HTML.html#54,54,1600,781,1600,900,8-21-2022,9-36-0,2,depth_duration_stimuli/001100_2014-06-15_17-46-26_260595134347_rgbf000225-resize_2/001100_2014-06-15_17-46-26_260595134347_rgbf000225-resize_2-target.png,125,2.24,3,5072,128,feet,jsons/VE125_randls_52.json,761175,978117,47,Woman
2,316861,DepthScenes,duration_manipulation_targetAtFixation,jsons/VE125_randls_52.json,http://54.235.29.9/FacialAge/BNav_EC2/DepthDuration/v2_depth_duration_MTurk/v2_DepthDuration_HTML.html#54,54,1600,781,1600,900,8-21-2022,9-36-0,3,depth_duration_stimuli/000929_2014-06-09_16-33-19_260595134347_rgbf000139-resize_0/000929_2014-06-09_16-33-19_260595134347_rgbf000139-resize_0-target.png,125,2.8680000000000003,12,4432,117,feet,jsons/VE125_randls_52.json,761175,978117,47,Woman
3,316861,DepthScenes,duration_manipulation_targetAtFixation,jsons/VE125_randls_52.json,http://54.235.29.9/FacialAge/BNav_EC2/DepthDuration/v2_depth_duration_MTurk/v2_DepthDuration_HTML.html#54,54,1600,781,1600,900,8-21-2022,9-36-0,4,depth_duration_stimuli/000457_2014-06-08_16-52-43_260595134347_rgbf000199-resize_1/000457_2014-06-08_16-52-43_260595134347_rgbf000199-resize_1-target.png,125,3.6489999999999996,8,4250,127,feet,jsons/VE125_randls_52.json,761175,978117,47,Woman
4,316861,DepthScenes,duration_manipulation_targetAtFixation,jsons/VE125_randls_52.json,http://54.235.29.9/FacialAge/BNav_EC2/DepthDuration/v2_depth_duration_MTurk/v2_DepthDuration_HTML.html#54,54,1600,781,1600,900,8-21-2022,9-36-0,5,depth_duration_stimuli/002549_2014-06-24_13-41-39_094959634447_rgbf000022-resize_3/002549_2014-06-24_13-41-39_094959634447_rgbf000022-resize_3-target.png,125,1.476,5,4131,117,feet,jsons/VE125_randls_52.json,761175,978117,47,Woman
5,316861,DepthScenes,duration_manipulation_targetAtFixation,jsons/VE125_randls_52.json,http://54.235.29.9/FacialAge/BNav_EC2/DepthDuration/v2_depth_duration_MTurk/v2_DepthDuration_HTML.html#54,54,1600,781,1600,900,8-21-2022,9-36-0,6,depth_duration_stimuli/002750_2014-06-22_19-08-03_094959634447_rgbf000094-resize_4/002750_2014-06-22_19-08-03_094959634447_rgbf000094-resize_4-target.png,125,2.354,11,4558,113,feet,jsons/VE125_randls_52.json,761175,978117,47,Woman
6,316861,DepthScenes,duration_manipulation_targetAtFixation,jsons/VE125_randls_52.json,http://54.235.29.9/FacialAge/BNav_EC2/DepthDuration/v2_depth_duration_MTurk/v2_DepthDuration_HTML.html#54,54,1600,781,1600,900,8-21-2022,9-36-0,7,depth_duration_stimuli/000758_2014-06-08_22-05-08_260595134347_rgbf000085-resize_0/000758_2014-06-08_22-05-08_260595134347_rgbf000085-resize_0-target.png,125,3.3810000000000002,17,5649,125,feet,jsons/VE125_randls_52.json,761175,978117,47,Woman
7,316861,DepthScenes,duration_manipulation_targetAtFixation,jsons/VE125_randls_52.json,http://54.235.29.9/FacialAge/BNav_EC2/DepthDuration/v2_depth_duration_MTurk/v2_DepthDuration_HTML.html#54,54,1600,781,1600,900,8-21-2022,9-36-0,8,depth_duration_stimuli/000854_2014-06-09_19-43-13_260595134347_rgbf000066-resize_0/000854_2014-06-09_19-43-13_260595134347_rgbf000066-resize_0-target.png,125,3.068,7,4919,126,feet,jsons/VE125_randls_52.json,761175,978117,47,Woman
8,316861,DepthScenes,duration_manipulation_targetAtFixation,jsons/VE125_randls_52.json,http://54.235.29.9/FacialAge/BNav_EC2/DepthDuration/v2_depth_duration_MTurk/v2_DepthDuration_HTML.html#54,54,1600,781,1600,900,8-21-2022,9-36-0,9,depth_duration_stimuli/000878_2014-06-08_22-52-45_260595134347_rgbf000045-resize_2/000878_2014-06-08_22-52-45_260595134347_rgbf000045-resize_2-target.png,125,2.092,6,3987,120,feet,jsons/VE125_randls_52.json,761175,978117,47,Woman
9,316861,DepthScenes,duration_manipulation_targetAtFixation,jsons/VE125_randls_52.json,http://54.235.29.9/FacialAge/BNav_EC2/DepthDuration/v2_depth_duration_MTurk/v2_DepthDuration_HTML.html#54,54,1600,781,1600,900,8-21-2022,9-36-0,10,depth_duration_stimuli/002953_2014-06-08_17-32-18_094959634447_rgbf000059-resize_5/002953_2014-06-08_17-32-18_094959634447_rgbf000059-resize_5-target.png,125,1.551,6,3854,122,feet,jsons/VE125_randls_52.json,761175,978117,47,Woman
10,316861,DepthScenes,duration_manipulation_targetAtFixation,jsons/VE125_randls_52.json,http://54.235.29.9/FacialAge/BNav_EC2/DepthDuration/v2_depth_duration_MTurk/v2_DepthDuration_HTML.html#54,54,1600,781,1600,900,8-21-2022,9-36-0,11,depth_duration_stimuli/001806_2014-06-26_20-50-20_260595134347_rgbf000091-resize_1/001806_2014-06-26_20-50-20_260595134347_rgbf000091-resize_1-target.png,125,2.7305,6,8086,130,feet,jsons/VE125_randls_52.json,761175,978117,47,Woman
11,316861,DepthScenes,duration_manipulation_targetAtFixation,jsons/VE125_randls_52.json,http://54.235.29.9/FacialAge/BNav_EC2/DepthDuration/v2_depth_duration_MTurk/v2_DepthDuration_HTML.html#54,54,1600,781,1600,900,8-21-2022,9-36-0,12,depth_duration_stimuli/001617_2014-06-20_11-35-32_260595134347_rgbf000066-resize_1/001617_2014-06-20_11-35-32_260595134347_rgbf000066-resize_1-target.png,125,3.7910000000000004,11,4203,120,feet,jsons/VE125_randls_52.json,761175,978117,47,Woman
12,316861,DepthScenes,duration_manipulation_targetAtFixation,jsons/VE125_randls_52.json,http://54.235.29.9/FacialAge/BNav_EC2/DepthDuration/v2_depth_duration_MTurk/v2_DepthDuration_HTML.html#54,54,1600,781,1600,900,8-21-2022,9-36-0,13,depth_duration_stimuli/000569_2014-06-09_22-51-47_260595134347_rgbf000141-resize_3/000569_2014-06-09_22-51-47_260595134347_rgbf000141-resize-original.jpg,125,4.512,0,3390,125,feet,jsons/VE125_randls_52.json,761175,978117,47,Woman
13,316861,DepthScenes,duration_manipulation_targetAtFixation,jsons/VE125_randls_52.json,http://54.235.29.9/FacialAge/BNav_EC2/DepthDuration/v2_depth_duration_MTurk/v2_DepthDuration_HTML.html#54,54,1600,781,1600,900,8-21-2022,9-36-0,14,depth_duration_stimuli/000788_2014-06-08_22-34-36_260595134347_rgbf000131-resize_1/000788_2014-06-08_22-34-36_260595134347_rgbf000131-resize_1-target.png,125,3.359,9,4401,117,feet,jsons/VE125_randls_52.json,761175,978117,47,Woman
14,316861,DepthScenes,duration_manipulation_targetAtFixation,jsons/VE125_randls_52.json,http://54.235.29.9/FacialAge/BNav_EC2/DepthDuration/v2_depth_duration_MTurk/v2_DepthDuration_HTML.html#54,54,1600,781,1600,900,8-21-2022,9-36-0,15,depth_duration_stimuli/001235_2014-06-17_16-37-36_260595134347_rgbf000084-resize_4/001235_2014-06-17_16-37-36_260595134347_rgbf000084-resize_4-target.png,125,3.6605,7,4155,127,feet,jsons/VE125_randls_52.json,761175,978117,47,Woman
15,316861,DepthScenes,duration_manipulation_targetAtFixation,jsons/VE125_randls_52.json,http://54.235.29.9/FacialAge/BNav_EC2/DepthDuration/v2_depth_duration_MTurk/v2_DepthDuration_HTML.html#54,54,1600,781,1600,900,8-21-2022,9-36-0,16,depth_duration_stimuli/002153_2014-06-25_21-27-18_260595134347_rgbf000038-resize_5/002153_2014-06-25_21-27-18_260595134347_rgbf000038-resize_5-target.png,125,2.505,9,4299,128,feet,jsons/VE125_randls_52.json,761175,978117,47,Woman
16,316861,DepthScenes,duration_manipulation_targetAtFixation,jsons/VE125_randls_52.json,http://54.235.29.9/FacialAge/BNav_EC2/DepthDuration/v2_depth_duration_MTurk/v2_DepthDuration_HTML.html#54,54,1600,781,1600,900,8-21-2022,9-36-0,17,depth_duration_stimuli/002660_2014-06-13_15-44-18_094959634447_rgbf001878-resize_2/002660_2014-06-13_15-44-18_094959634447_rgbf001878-resize_2-target.png,125,3.576,12,4826,125,feet,jsons/VE125_randls_52.json,761175,978117,47,Woman
17,316861,DepthScenes,duration_manipulation_targetAtFixation,jsons/VE125_randls_52.json,http://54.235.29.9/FacialAge/BNav_EC2/DepthDuration/v2_depth_duration_MTurk/v2_DepthDuration_HTML.html#54,54,1600,781,1600,900,8-21-2022,9-36-0,18,depth_duration_stimuli/002600_2014-06-24_14-27-04_094959634447_rgbf000074-resize_2/002600_2014-06-24_14-27-04_094959634447_rgbf000074-resize_2-target.png,125,2.7575,14,5087,125,feet,jsons/VE125_randls_52.json,761175,978117,47,Woman
18,316861,DepthScenes,duration_manipulation_targetAtFixation,jsons/VE125_randls_52.json,http://54.235.29.9/FacialAge/BNav_EC2/DepthDuration/v2_depth_duration_MTurk/v2_DepthDuration_HTML.html#54,54,1600,781,1600,900,8-21-2022,9-36-0,19,depth_duration_stimuli/003228_2014-05-14_13-42-35_094959634447_rgbf000101-resize_1/003228_2014-05-14_13-42-35_094959634447_rgbf000101-resize_1-target.png,125,1.9680000000000002,5,3973,135,feet,jsons/VE125_randls_52.json,761175,978117,47,Woman
19,316861,DepthScenes,duration_manipulation_targetAtFixation,jsons/VE125_randls_52.json,http://54.235.29.9/FacialAge/BNav_EC2/DepthDuration/v2_depth_duration_MTurk/v2_DepthDuration_HTML.html#54,54,1600,781,1600,900,8-21-2022,9-36-0,20,depth_duration_stimuli/001164_2014-06-17_15-35-46_260595134347_rgbf000085-resize_3/001164_2014-06-17_15-35-46_260595134347_rgbf000085-resize_3-target.png,125,2.354,6,3735,120,feet,jsons/VE125_randls_52.json,761175,978117,47,Woman
20,316861,DepthScenes,duration_manipulation_targetAtFixation,jsons/VE125_randls_52.json,http://54.235.29.9/FacialAge/BNav_EC2/DepthDuration/v2_depth_duration_MTurk/v2_DepthDuration_HTML.html#54,54,1600,781,1600,900,8-21-2022,9-36-0,21,depth_duration_stimuli/001136_2014-06-17_15-19-41_260595134347_rgbf000076-resize_3/001136_2014-06-17_15-19-41_260595134347_rgbf000076-resize_3-target.png,125,1.8655,7,4458,129,feet,jsons/VE125_randls_52.json,761175,978117,47,Woman
21,316861,DepthScenes,duration_manipulation_targetAtFixation,jsons/VE125_randls_52.json,http://54.235.29.9/FacialAge/BNav_EC2/DepthDuration/v2_depth_duration_MTurk/v2_DepthDuration_HTML.html#54,54,1600,781,1600,900,8-21-2022,9-36-0,22,depth_duration_stimuli/002445_2014-06-28_20-32-16_260595134347_rgbf000029-resize_4/002445_2014-06-28_20-32-16_260595134347_rgbf000029-resize_4-target.png,125,2.5315,7,3954,116,feet,jsons/VE125_randls_52.json,761175,978117,47,Woman
22,316861,DepthScenes,duration_manipulation_targetAtFixation,jsons/VE125_randls_52.json,http://54.235.29.9/FacialAge/BNav_EC2/DepthDuration/v2_depth_duration_MTurk/v2_DepthDuration_HTML.html#54,54,1600,781,1600,900,8-21-2022,9-36-0,23,depth_duration_stimuli/000780_2014-06-08_22-28-29_260595134347_rgbf000126-resize_1/000780_2014-06-08_22-28-29_260595134347_rgbf000126-resize_1-target.png,125,3.3825,10,7446,136,feet,jsons/VE125_randls_52.json,761175,978117,47,Woman
23,316861,DepthScenes,duration_manipulation_targetAtFixation,jsons/VE125_randls_52.json,http://54.235.29.9/FacialAge/BNav_EC2/DepthDuration/v2_depth_duration_MTurk/v2_DepthDuration_HTML.html#54,54,1600,781,1600,900,8-21-2022,9-36-0,24,depth_duration_stimuli/002213_2014-06-28_18-37-58_260595134347_rgbf000055-resize_1/002213_2014-06-28_18-37-58_260595134347_rgbf000055-resize_1-target.png,125,3.62,12,4552,114,feet,jsons/VE125_randls_52.json,761175,978117,47,Woman
24,316861,DepthScenes,duration_manipulation_targetAtFixation,jsons/VE125_randls_52.json,http://54.235.29.9/FacialAge/BNav_EC2/DepthDuration/v2_depth_duration_MTurk/v2_DepthDuration_HTML.html#54,54,1600,781,1600,900,8-21-2022,9-36-0,25,depth_duration_stimuli/000691_2014-06-08_13-08-50_260595134347_rgbf000132-resize_3/000691_2014-06-08_13-08-50_260595134347_rgbf000132-resize_3-target.png,125,4.1530000000000005,11,5930,118,feet,jsons/VE125_randls_52.json,761175,978117,47,Woman
25,316861,DepthScenes,duration_manipulation_targetAtFixation,jsons/VE125_randls_52.json,http://54.235.29.9/FacialAge/BNav_EC2/DepthDuration/v2_depth_duration_MTurk/v2_DepthDuration_HTML.html#54,54,1600,781,1600,900,8-21-2022,9-36-0,26,depth_duration_stimuli/000414_2014-06-04_19-49-13_260595134347_rgbf000044-resize_0/000414_2014-06-04_19-49-13_260595134347_rgbf000044-resize_0-target.png,125,4.329,14,5381,126,feet,jsons/VE125_randls_52.json,761175,978117,47,Woman
26,316861,DepthScenes,duration_manipulation_targetAtFixation,jsons/VE125_randls_52.json,http://54.235.29.9/FacialAge/BNav_EC2/DepthDuration/v2_depth_duration_MTurk/v2_DepthDuration_HTML.html#54,54,1600,781,1600,900,8-21-2022,9-36-0,27,depth_duration_stimuli/003129_2014-05-12_10-48-10_094959634447_rgbf000100-resize_0/003129_2014-05-12_10-48-10_094959634447_rgbf000100-resize_0-target.png,125,4.9305,8,4191,115,feet,jsons/VE125_randls_52.json,761175,978117,47,Woman
27,316861,DepthScenes,duration_manipulation_targetAtFixation,jsons/VE125_randls_52.json,http://54.235.29.9/FacialAge/BNav_EC2/DepthDuration/v2_depth_duration_MTurk/v2_DepthDuration_HTML.html#54,54,1600,781,1600,900,8-21-2022,9-36-0,28,depth_duration_stimuli/002043_2014-06-24_20-29-38_260595134347_rgbf000039-resize_4/002043_2014-06-24_20-29-38_260595134347_rgbf000039-resize_4-target.png,125,2.8435,9,4865,133,feet,jsons/VE125_randls_52.json,761175,978117,47,Woman
28,316861,DepthScenes,duration_manipulation_targetAtFixation,jsons/VE125_randls_52.json,http://54.235.29.9/FacialAge/BNav_EC2/DepthDuration/v2_depth_duration_MTurk/v2_DepthDuration_HTML.html#54,54,1600,781,1600,900,8-21-2022,9-36-0,29,depth_duration_stimuli/003048_2014-06-15_13-49-43_094959634447_rgbf000150-resize_1/003048_2014-06-15_13-49-43_094959634447_rgbf000150-resize_1-target.png,125,4.0035,12,5887,126,feet,jsons/VE125_randls_52.json,761175,978117,47,Woman
29,316861,DepthScenes,duration_manipulation_targetAtFixation,jsons/VE125_randls_52.json,http://54.235.29.9/FacialAge/BNav_EC2/DepthDuration/v2_depth_duration_MTurk/v2_DepthDuration_HTML.html#54,54,1600,781,1600,900,8-21-2022,9-36-0,30,depth_duration_stimuli/000375_2014-06-08_11-17-29_260595134347_rgbf000133-resize_2/000375_2014-06-08_11-17-29_260595134347_rgbf000133-resize-original.jpg,125,4.718,0,3936,124,feet,jsons/VE125_randls_52.json,761175,978117,47,Woman
30,316861,DepthScenes,duration_manipulation_targetAtFixation,jsons/VE125_randls_52.json,http://54.235.29.9/FacialAge/BNav_EC2/DepthDuration/v2_depth_duration_MTurk/v2_DepthDuration_HTML.html#54,54,1600,781,1600,900,8-21-2022,9-36-0,31,depth_duration_stimuli/001016_2014-06-09_16-16-10_260595134347_rgbf000112-resize_5/001016_2014-06-09_16-16-10_260595134347_rgbf000112-resize_5-target.png,125,1.6565,7,3683,135,feet,jsons/VE125_randls_52.json,761175,978117,47,Woman
31,316861,DepthScenes,duration_manipulation_targetAtFixation,jsons/VE125_randls_52.json,http://54.235.29.9/FacialAge/BNav_EC2/DepthDuration/v2_depth_duration_MTurk/v2_DepthDuration_HTML.html#54,54,1600,781,1600,900,8-21-2022,9-36-0,32,depth_duration_stimuli/002340_2014-06-28_20-05-46_260595134347_rgbf000113-resize_0/002340_2014-06-28_20-05-46_260595134347_rgbf000113-resize_0-target.png,125,2.4735,11,7040,116,feet,jsons/VE125_randls_52.json,761175,978117,47,Woman
32,316861,DepthScenes,duration_manipulation_targetAtFixation,jsons/VE125_randls_52.json,http://54.235.29.9/FacialAge/BNav_EC2/DepthDuration/v2_depth_duration_MTurk/v2_DepthDuration_HTML.html#54,54,1600,781,1600,900,8-21-2022,9-36-0,33,depth_duration_stimuli/003621_2014-05-23_18-06-08_094959634447_rgbf000101-resize_1/003621_2014-05-23_18-06-08_094959634447_rgbf000101-resize_1-target.png,125,3.9835,12,4513,112,feet,jsons/VE125_randls_52.json,761175,978117,47,Woman
33,316861,DepthScenes,duration_manipulation_targetAtFixation,jsons/VE125_randls_52.json,http://54.235.29.9/FacialAge/BNav_EC2/DepthDuration/v2_depth_duration_MTurk/v2_DepthDuration_HTML.html#54,54,1600,781,1600,900,8-21-2022,9-36-0,34,depth_duration_stimuli/001584_2014-06-20_11-07-43_260595134347_rgbf000002-resize_1/001584_2014-06-20_11-07-43_260595134347_rgbf000002-resize_1-target.png,125,3.53,9,3793,122,feet,jsons/VE125_randls_52.json,761175,978117,47,Woman
34,316861,DepthScenes,duration_manipulation_targetAtFixation,jsons/VE125_randls_52.json,http://54.235.29.9/FacialAge/BNav_EC2/DepthDuration/v2_depth_duration_MTurk/v2_DepthDuration_HTML.html#54,54,1600,781,1600,900,8-21-2022,9-36-0,35,depth_duration_stimuli/001029_2014-06-08_13-17-57_260595134347_rgbf000065-resize_1/001029_2014-06-08_13-17-57_260595134347_rgbf000065-resize_1-target.png,125,3.0835,6,3746,125,feet,jsons/VE125_randls_52.json,761175,978117,47,Woman
35,316861,DepthScenes,duration_manipulation_targetAtFixation,jsons/VE125_randls_52.json,http://54.235.29.9/FacialAge/BNav_EC2/DepthDuration/v2_depth_duration_MTurk/v2_DepthDuration_HTML.html#54,54,1600,781,1600,900,8-21-2022,9-36-0,36,depth_duration_stimuli/000677_2014-06-08_23-10-32_260595134347_rgbf000158-resize_6/000677_2014-06-08_23-10-32_260595134347_rgbf000158-resize_6-target.png,125,3.556,7,3777,119,feet,jsons/VE125_randls_52.json,761175,978117,47,Woman
36,316861,DepthScenes,duration_manipulation_targetAtFixation,jsons/VE125_randls_52.json,http://54.235.29.9/FacialAge/BNav_EC2/DepthDuration/v2_depth_duration_MTurk/v2_DepthDuration_HTML.html#54,54,1600,781,1600,900,8-21-2022,9-36-0,37,depth_duration_stimuli/000810_2014-06-08_17-20-01_260595134347_rgbf000105-resize_0/000810_2014-06-08_17-20-01_260595134347_rgbf000105-resize_0-target.png,125,1.4865,4,4158,120,feet,jsons/VE125_randls_52.json,761175,978117,47,Woman
37,316861,DepthScenes,duration_manipulation_targetAtFixation,jsons/VE125_randls_52.json,http://54.235.29.9/FacialAge/BNav_EC2/DepthDuration/v2_depth_duration_MTurk/v2_DepthDuration_HTML.html#54,54,1600,781,1600,900,8-21-2022,9-36-0,38,depth_duration_stimuli/001214_2014-06-17_16-13-55_260595134347_rgbf000111-resize_0/001214_2014-06-17_16-13-55_260595134347_rgbf000111-resize_0-target.png,125,2.6505,5,3934,120,feet,jsons/VE125_randls_52.json,761175,978117,47,Woman
38,316861,DepthScenes,duration_manipulation_targetAtFixation,jsons/VE125_randls_52.json,http://54.235.29.9/FacialAge/BNav_EC2/DepthDuration/v2_depth_duration_MTurk/v2_DepthDuration_HTML.html#54,54,1600,781,1600,900,8-21-2022,9-36-0,39,depth_duration_stimuli/000917_2014-06-09_22-45-29_260595134347_rgbf000149-resize_3/000917_2014-06-09_22-45-29_260595134347_rgbf000149-resize_3-target.png,125,4.1865,7,3755,128,feet,jsons/VE125_randls_52.json,761175,978117,47,Woman
39,316861,DepthScenes,duration_manipulation_targetAtFixation,jsons/VE125_randls_52.json,http://54.235.29.9/FacialAge/BNav_EC2/DepthDuration/v2_depth_duration_MTurk/v2_DepthDuration_HTML.html#54,54,1600,781,1600,900,8-21-2022,9-36-0,40,depth_duration_stimuli/002323_2014-06-28_20-01-54_260595134347_rgbf000051-resize_4/002323_2014-06-28_20-01-54_260595134347_rgbf000051-resize_4-target.png,125,3.7310000000000003,11,4177,113,feet,jsons/VE125_randls_52.json,761175,978117,47,Woman
40,316861,DepthScenes,duration_manipulation_targetAtFixation,jsons/VE125_randls_52.json,http://54.235.29.9/FacialAge/BNav_EC2/DepthDuration/v2_depth_duration_MTurk/v2_DepthDuration_HTML.html#54,54,1600,781,1600,900,8-21-2022,9-36-0,41,depth_duration_stimuli/003492_2014-05-21_15-50-55_094959634447_rgbf000828-resize_1/003492_2014-05-21_15-50-55_094959634447_rgbf000828-resize_1-target.png,125,4.06875,10,4537,119,feet,jsons/VE125_randls_52.json,761175,978117,47,Woman
41,316861,DepthScenes,duration_manipulation_targetAtFixation,jsons/VE125_randls_52.json,http://54.235.29.9/FacialAge/BNav_EC2/DepthDuration/v2_depth_duration_MTurk/v2_DepthDuration_HTML.html#54,54,1600,781,1600,900,8-21-2022,9-36-0,42,depth_duration_stimuli/002568_2014-06-24_13-59-21_094959634447_rgbf000062-resize_4/002568_2014-06-24_13-59-21_094959634447_rgbf000062-resize_4-target.png,125,3.015,7,4010,133,feet,jsons/VE125_randls_52.json,761175,978117,47,Woman
42,316861,DepthScenes,duration_manipulation_targetAtFixation,jsons/VE125_randls_52.json,http://54.235.29.9/FacialAge/BNav_EC2/DepthDuration/v2_depth_duration_MTurk/v2_DepthDuration_HTML.html#54,54,1600,781,1600,900,8-21-2022,9-36-0,43,depth_duration_stimuli/001417_2014-06-19_16-25-36_260595134347_rgbf000115-resize_5/001417_2014-06-19_16-25-36_260595134347_rgbf000115-resize_5-target.png,125,4.6255,12,7605,115,feet,jsons/VE125_randls_52.json,761175,978117,47,Woman
43,316861,DepthScenes,duration_manipulation_targetAtFixation,jsons/VE125_randls_52.json,http://54.235.29.9/FacialAge/BNav_EC2/DepthDuration/v2_depth_duration_MTurk/v2_DepthDuration_HTML.html#54,54,1600,781,1600,900,8-21-2022,9-36-0,44,depth_duration_stimuli/003081_2014-06-15_15-19-16_094959634447_rgbf000150-resize_1/003081_2014-06-15_15-19-16_094959634447_rgbf000150-resize_1-target.png,125,3.9125,6,4954,135,feet,jsons/VE125_randls_52.json,761175,978117,47,Woman
44,316861,DepthScenes,duration_manipulation_targetAtFixation,jsons/VE125_randls_52.json,http://54.235.29.9/FacialAge/BNav_EC2/DepthDuration/v2_depth_duration_MTurk/v2_DepthDuration_HTML.html#54,54,1600,781,1600,900,8-21-2022,9-36-0,45,depth_duration_stimuli/000787_2014-06-08_22-33-53_260595134347_rgbf000175-resize_1/000787_2014-06-08_22-33-53_260595134347_rgbf000175-resize-original.jpg,125,4.784,0,3465,130,feet,jsons/VE125_randls_52.json,761175,978117,47,Woman
45,316861,DepthScenes,duration_manipulation_targetAtFixation,jsons/VE125_randls_52.json,http://54.235.29.9/FacialAge/BNav_EC2/DepthDuration/v2_depth_duration_MTurk/v2_DepthDuration_HTML.html#54,54,1600,781,1600,900,8-21-2022,9-36-0,46,depth_duration_stimuli/000773_2014-06-08_22-24-54_260595134347_rgbf000093-resize_1/000773_2014-06-08_22-24-54_260595134347_rgbf000093-resize_1-target.png,125,4.973,12,4005,117,feet,jsons/VE125_randls_52.json,761175,978117,47,Woman
46,316861,DepthScenes,duration_manipulation_targetAtFixation,jsons/VE125_randls_52.json,http://54.235.29.9/FacialAge/BNav_EC2/DepthDuration/v2_depth_duration_MTurk/v2_DepthDuration_HTML.html#54,54,1600,781,1600,900,8-21-2022,9-36-0,47,depth_duration_stimuli/002414_2014-06-28_20-24-58_260595134347_rgbf000067-resize_4/002414_2014-06-28_20-24-58_260595134347_rgbf000067-resize_4-target.png,125,4.363,11,3952,136,feet,jsons/VE125_randls_52.json,761175,978117,47,Woman
47,316861,DepthScenes,duration_manipulation_targetAtFixation,jsons/VE125_randls_52.json,http://54.235.29.9/FacialAge/BNav_EC2/DepthDuration/v2_depth_duration_MTurk/v2_DepthDuration_HTML.html#54,54,1600,781,1600,900,8-21-2022,9-36-0,48,depth_duration_stimuli/001066_2014-06-08_22-03-20_260595134347_rgbf000066-resize_4/001066_2014-06-08_22-03-20_260595134347_rgbf000066-resize_4-target.png,125,4.2330000000000005,13,5760,138,feet,jsons/VE125_randls_52.json,761175,978117,47,Woman
48,316861,DepthScenes,duration_manipulation_targetAtFixation,jsons/VE125_randls_52.json,http://54.235.29.9/FacialAge/BNav_EC2/DepthDuration/v2_depth_duration_MTurk/v2_DepthDuration_HTML.html#54,54,1600,781,1600,900,8-21-2022,9-36-0,49,depth_duration_stimuli/000742_2014-06-08_18-48-09_260595134347_rgbf000164-resize_4/000742_2014-06-08_18-48-09_260595134347_rgbf000164-resize_4-target.png,125,4.632,9,4479,129,feet,jsons/VE125_randls_52.json,761175,978117,47,Woman
49,316861,DepthScenes,duration_manipulation_targetAtFixation,jsons/VE125_randls_52.json,http://54.235.29.9/FacialAge/BNav_EC2/DepthDuration/v2_depth_duration_MTurk/v2_DepthDuration_HTML.html#54,54,1600,781,1600,900,8-21-2022,9-36-0,50,depth_duration_stimuli/000436_2014-06-09_22-25-11_260595134347_rgbf000137-resize_1/000436_2014-06-09_22-25-11_260595134347_rgbf000137-resize_1-target.png,125,4.0705,10,4261,127,feet,jsons/VE125_randls_52.json,761175,978117,47,Woman
50,316861,DepthScenes,duration_manipulation_targetAtFixation,jsons/VE125_randls_52.json,http://54.235.29.9/FacialAge/BNav_EC2/DepthDuration/v2_depth_duration_MTurk/v2_DepthDuration_HTML.html#54,54,1600,781,1600,900,8-21-2022,9-36-0,51,depth_duration_stimuli/002444_2014-06-28_20-32-08_260595134347_rgbf000027-resize_0/002444_2014-06-28_20-32-08_260595134347_rgbf000027-resize_0-target.png,125,4.388999999999999,13,4622,125,feet,jsons/VE125_randls_52.json,761175,978117,47,Woman
51,316861,DepthScenes,duration_manipulation_targetAtFixation,jsons/VE125_randls_52.json,http://54.235.29.9/FacialAge/BNav_EC2/DepthDuration/v2_depth_duration_MTurk/v2_DepthDuration_HTML.html#54,54,1600,781,1600,900,8-21-2022,9-36-0,52,depth_duration_stimuli/001056_2014-06-08_18-46-44_260595134347_rgbf000068-resize_0/001056_2014-06-08_18-46-44_260595134347_rgbf000068-resize_0-target.png,125,2.6625,7,3797,118,feet,jsons/VE125_randls_52.json,761175,978117,47,Woman
52,316861,DepthScenes,duration_manipulation_targetAtFixation,jsons/VE125_randls_52.json,http://54.235.29.9/FacialAge/BNav_EC2/DepthDuration/v2_depth_duration_MTurk/v2_DepthDuration_HTML.html#54,54,1600,781,1600,900,8-21-2022,9-36-0,53,depth_duration_stimuli/002199_2014-06-28_18-33-56_260595134347_rgbf000074-resize_0/002199_2014-06-28_18-33-56_260595134347_rgbf000074-resize_0-target.png,125,1.996,5,4126,115,feet,jsons/VE125_randls_52.json,761175,978117,47,Woman
53,316861,DepthScenes,duration_manipulation_targetAtFixation,jsons/VE125_randls_52.json,http://54.235.29.9/FacialAge/BNav_EC2/DepthDuration/v2_depth_duration_MTurk/v2_DepthDuration_HTML.html#54,54,1600,781,1600,900,8-21-2022,9-36-0,54,depth_duration_stimuli/002509_2014-06-24_13-19-22_094959634447_rgbf000077-resize_0/002509_2014-06-24_13-19-22_094959634447_rgbf000077-resize_0-target.png,125,1.3065,4,4206,127,feet,jsons/VE125_randls_52.json,761175,978117,47,Woman
54,316861,DepthScenes,duration_manipulation_targetAtFixation,jsons/VE125_randls_52.json,http://54.235.29.9/FacialAge/BNav_EC2/DepthDuration/v2_depth_duration_MTurk/v2_DepthDuration_HTML.html#54,54,1600,781,1600,900,8-21-2022,9-36-0,55,depth_duration_stimuli/003338_2014-05-20_11-01-23_094959634447_rgbf000051-resize_6/003338_2014-05-20_11-01-23_094959634447_rgbf000051-resize_6-target.png,125,1.693,5,3943,127,feet,jsons/VE125_randls_52.json,761175,978117,47,Woman
55,316861,DepthScenes,duration_manipulation_targetAtFixation,jsons/VE125_randls_52.json,http://54.235.29.9/FacialAge/BNav_EC2/DepthDuration/v2_depth_duration_MTurk/v2_DepthDuration_HTML.html#54,54,1600,781,1600,900,8-21-2022,9-36-0,56,depth_duration_stimuli/000906_2014-06-08_13-35-43_260595134347_rgbf000155-resize_1/000906_2014-06-08_13-35-43_260595134347_rgbf000155-resize_1-target.png,125,2.8489999999999998,9,3887,125,feet,jsons/VE125_randls_52.json,761175,978117,47,Woman
56,316861,DepthScenes,duration_manipulation_targetAtFixation,jsons/VE125_randls_52.json,http://54.235.29.9/FacialAge/BNav_EC2/DepthDuration/v2_depth_duration_MTurk/v2_DepthDuration_HTML.html#54,54,1600,781,1600,900,8-21-2022,9-36-0,57,depth_duration_stimuli/002805_2014-06-22_19-54-03_094959634447_rgbf000079-resize_1/002805_2014-06-22_19-54-03_094959634447_rgbf000079-resize_1-target.png,125,3.1439999999999997,12,4345,125,feet,jsons/VE125_randls_52.json,761175,978117,47,Woman
57,316861,DepthScenes,duration_manipulation_targetAtFixation,jsons/VE125_randls_52.json,http://54.235.29.9/FacialAge/BNav_EC2/DepthDuration/v2_depth_duration_MTurk/v2_DepthDuration_HTML.html#54,54,1600,781,1600,900,8-21-2022,9-36-0,58,depth_duration_stimuli/000486_2014-06-09_20-47-20_260595134347_rgbf000143-resize_2/000486_2014-06-09_20-47-20_260595134347_rgbf000143-resize_2-target.png,125,4.8325,7,4427,125,feet,jsons/VE125_randls_52.json,761175,978117,47,Woman
58,316861,DepthScenes,duration_manipulation_targetAtFixation,jsons/VE125_randls_52.json,http://54.235.29.9/FacialAge/BNav_EC2/DepthDuration/v2_depth_duration_MTurk/v2_DepthDuration_HTML.html#54,54,1600,781,1600,900,8-21-2022,9-36-0,59,depth_duration_stimuli/003083_2014-06-15_15-21-03_094959634447_rgbf000063-resize_1/003083_2014-06-15_15-21-03_094959634447_rgbf000063-resize_1-target.png,125,4.1405,11,4258,131,feet,jsons/VE125_randls_52.json,761175,978117,47,Woman
59,316861,DepthScenes,duration_manipulation_targetAtFixation,jsons/VE125_randls_52.json,http://54.235.29.9/FacialAge/BNav_EC2/DepthDuration/v2_depth_duration_MTurk/v2_DepthDuration_HTML.html#54,54,1600,781,1600,900,8-21-2022,9-36-0,60,depth_duration_stimuli/001199_2014-06-17_16-03-48_260595134347_rgbf000077-resize_0/001199_2014-06-17_16-03-48_260595134347_rgbf000077-resize_0-target.png,125,3.4375,12,3885,130,feet,jsons/VE125_randls_52.json,761175,978117,47,Woman
60,316861,DepthScenes,duration_manipulation_targetAtFixation,jsons/VE125_randls_52.json,http://54.235.29.9/FacialAge/BNav_EC2/DepthDuration/v2_depth_duration_MTurk/v2_DepthDuration_HTML.html#54,54,1600,781,1600,900,8-21-2022,9-36-0,61,depth_duration_stimuli/000502_2014-06-08_23-02-32_260595134347_rgbf000063-resize_4/000502_2014-06-08_23-02-32_260595134347_rgbf000063-resize_4-target.png,125,2.431,7,3569,114,feet,jsons/VE125_randls_52.json,761175,978117,47,Woman
61,316861,DepthScenes,duration_manipulation_targetAtFixation,jsons/VE125_randls_52.json,http://54.235.29.9/FacialAge/BNav_EC2/DepthDuration/v2_depth_duration_MTurk/v2_DepthDuration_HTML.html#54,54,1600,781,1600,900,8-21-2022,9-36-0,62,depth_duration_stimuli/003534_2014-05-22_15-06-10_094959634447_rgbf000102-resize_4/003534_2014-05-22_15-06-10_094959634447_rgbf000102-resize_4-target.png,125,1.426,4,3613,125,feet,jsons/VE125_randls_52.json,761175,978117,47,Woman
62,316861,DepthScenes,duration_manipulation_targetAtFixation,jsons/VE125_randls_52.json,http://54.235.29.9/FacialAge/BNav_EC2/DepthDuration/v2_depth_duration_MTurk/v2_DepthDuration_HTML.html#54,54,1600,781,1600,900,8-21-2022,9-36-0,63,depth_duration_stimuli/002637_2014-06-24_14-51-13_094959634447_rgbf000066-resize_4/002637_2014-06-24_14-51-13_094959634447_rgbf000066-resize_4-target.png,125,1.9955,8,5482,120,feet,jsons/VE125_randls_52.json,761175,978117,47,Woman
63,316861,DepthScenes,duration_manipulation_targetAtFixation,jsons/VE125_randls_52.json,http://54.235.29.9/FacialAge/BNav_EC2/DepthDuration/v2_depth_duration_MTurk/v2_DepthDuration_HTML.html#54,54,1600,781,1600,900,8-21-2022,9-36-0,64,depth_duration_stimuli/001011_2014-06-08_23-18-54_260595134347_rgbf000044-resize_4/001011_2014-06-08_23-18-54_260595134347_rgbf000044-resize_4-target.png,125,2.4730000000000003,7,3828,121,feet,jsons/VE125_randls_52.json,761175,978117,47,Woman
64,316861,DepthScenes,duration_manipulation_targetAtFixation,jsons/VE125_randls_52.json,http://54.235.29.9/FacialAge/BNav_EC2/DepthDuration/v2_depth_duration_MTurk/v2_DepthDuration_HTML.html#54,54,1600,781,1600,900,8-21-2022,9-36-0,65,depth_duration_stimuli/002875_2014-06-01_15-19-00_094959634447_rgbf000151-resize_1/002875_2014-06-01_15-19-00_094959634447_rgbf000151-resize_1-target.png,125,1.9675,4,3708,121,feet,jsons/VE125_randls_52.json,761175,978117,47,Woman
65,316861,DepthScenes,duration_manipulation_targetAtFixation,jsons/VE125_randls_52.json,http://54.235.29.9/FacialAge/BNav_EC2/DepthDuration/v2_depth_duration_MTurk/v2_DepthDuration_HTML.html#54,54,1600,781,1600,900,8-21-2022,9-36-0,66,depth_duration_stimuli/001222_2014-06-17_16-24-06_260595134347_rgbf000073-resize_0/001222_2014-06-17_16-24-06_260595134347_rgbf000073-resize-original.jpg,125,1.4385,0,5671,125,feet,jsons/VE125_randls_52.json,761175,978117,47,Woman
66,316861,DepthScenes,duration_manipulation_targetAtFixation,jsons/VE125_randls_52.json,http://54.235.29.9/FacialAge/BNav_EC2/DepthDuration/v2_depth_duration_MTurk/v2_DepthDuration_HTML.html#54,54,1600,781,1600,900,8-21-2022,9-36-0,67,depth_duration_stimuli/000506_2014-06-08_23-21-00_260595134347_rgbf000070-resize_7/000506_2014-06-08_23-21-00_260595134347_rgbf000070-resize_7-target.png,125,4.0585,8,4275,131,feet,jsons/VE125_randls_52.json,761175,978117,47,Woman
67,316861,DepthScenes,duration_manipulation_targetAtFixation,jsons/VE125_randls_52.json,http://54.235.29.9/FacialAge/BNav_EC2/DepthDuration/v2_depth_duration_MTurk/v2_DepthDuration_HTML.html#54,54,1600,781,1600,900,8-21-2022,9-36-0,68,depth_duration_stimuli/003079_2014-06-15_15-18-20_094959634447_rgbf000152-resize_8/003079_2014-06-15_15-18-20_094959634447_rgbf000152-resize_8-target.png,125,2.8775,9,4149,118,feet,jsons/VE125_randls_52.json,761175,978117,47,Woman
68,316861,DepthScenes,duration_manipulation_targetAtFixation,jsons/VE125_randls_52.json,http://54.235.29.9/FacialAge/BNav_EC2/DepthDuration/v2_depth_duration_MTurk/v2_DepthDuration_HTML.html#54,54,1600,781,1600,900,8-21-2022,9-36-0,69,depth_duration_stimuli/000469_2014-06-09_19-42-10_260595134347_rgbf000081-resize_1/000469_2014-06-09_19-42-10_260595134347_rgbf000081-resize_1-target.png,125,1.652,4,3517,126,feet,jsons/VE125_randls_52.json,761175,978117,47,Woman
69,316861,DepthScenes,duration_manipulation_targetAtFixation,jsons/VE125_randls_52.json,http://54.235.29.9/FacialAge/BNav_EC2/DepthDuration/v2_depth_duration_MTurk/v2_DepthDuration_HTML.html#54,54,1600,781,1600,900,8-21-2022,9-36-0,70,depth_duration_stimuli/000483_2014-06-09_20-41-45_260595134347_rgbf000116-resize_4/000483_2014-06-09_20-41-45_260595134347_rgbf000116-resize_4-target.png,125,1.337,3,3732,114,feet,jsons/VE125_randls_52.json,761175,978117,47,Woman
70,316861,DepthScenes,duration_manipulation_targetAtFixation,jsons/VE125_randls_52.json,http://54.235.29.9/FacialAge/BNav_EC2/DepthDuration/v2_depth_duration_MTurk/v2_DepthDuration_HTML.html#54,54,1600,781,1600,900,8-21-2022,9-36-0,71,depth_duration_stimuli/001055_2014-06-08_18-45-35_260595134347_rgbf000111-resize_4/001055_2014-06-08_18-45-35_260595134347_rgbf000111-resize_4-target.png,125,2.4290000000000003,7,4119,130,feet,jsons/VE125_randls_52.json,761175,978117,47,Woman
71,316861,DepthScenes,duration_manipulation_targetAtFixation,jsons/VE125_randls_52.json,http://54.235.29.9/FacialAge/BNav_EC2/DepthDuration/v2_depth_duration_MTurk/v2_DepthDuration_HTML.html#54,54,1600,781,1600,900,8-21-2022,9-36-0,72,depth_duration_stimuli/000549_2014-06-08_22-10-24_260595134347_rgbf000247-resize_3/000549_2014-06-08_22-10-24_260595134347_rgbf000247-resize_3-target.png,125,1.841,3,3662,136,feet,jsons/VE125_randls_52.json,761175,978117,47,Woman
72,316861,DepthScenes,duration_manipulation_targetAtFixation,jsons/VE125_randls_52.json,http://54.235.29.9/FacialAge/BNav_EC2/DepthDuration/v2_depth_duration_MTurk/v2_DepthDuration_HTML.html#54,54,1600,781,1600,900,8-21-2022,9-36-0,73,depth_duration_stimuli/001158_2014-06-17_15-32-16_260595134347_rgbf000138-resize_2/001158_2014-06-17_15-32-16_260595134347_rgbf000138-resize_2-target.png,125,4.5315,11,4075,122,feet,jsons/VE125_randls_52.json,761175,978117,47,Woman
73,316861,DepthScenes,duration_manipulation_targetAtFixation,jsons/VE125_randls_52.json,http://54.235.29.9/FacialAge/BNav_EC2/DepthDuration/v2_depth_duration_MTurk/v2_DepthDuration_HTML.html#54,54,1600,781,1600,900,8-21-2022,9-36-0,74,depth_duration_stimuli/000556_2014-06-09_22-42-56_260595134347_rgbf000214-resize_1/000556_2014-06-09_22-42-56_260595134347_rgbf000214-resize_1-target.png,125,4.8415,15,4286,119,feet,jsons/VE125_randls_52.json,761175,978117,47,Woman
74,316861,DepthScenes,duration_manipulation_targetAtFixation,jsons/VE125_randls_52.json,http://54.235.29.9/FacialAge/BNav_EC2/DepthDuration/v2_depth_duration_MTurk/v2_DepthDuration_HTML.html#54,54,1600,781,1600,900,8-21-2022,9-36-0,75,depth_duration_stimuli/002279_2014-06-28_18-55-32_260595134347_rgbf000040-resize_5/002279_2014-06-28_18-55-32_260595134347_rgbf000040-resize_5-target.png,125,1.5043333333333,4,3838,135,feet,jsons/VE125_randls_52.json,761175,978117,47,Woman
75,316861,DepthScenes,duration_manipulation_targetAtFixation,jsons/VE125_randls_52.json,http://54.235.29.9/FacialAge/BNav_EC2/DepthDuration/v2_depth_duration_MTurk/v2_DepthDuration_HTML.html#54,54,1600,781,1600,900,8-21-2022,9-36-0,76,depth_duration_stimuli/000635_2014-06-08_16-38-42_260595134347_rgbf000106-resize_1/000635_2014-06-08_16-38-42_260595134347_rgbf000106-resize_1-target.png,125,2.074,6,3825,124,feet,jsons/VE125_randls_52.json,761175,978117,47,Woman
76,316861,DepthScenes,duration_manipulation_targetAtFixation,jsons/VE125_randls_52.json,http://54.235.29.9/FacialAge/BNav_EC2/DepthDuration/v2_depth_duration_MTurk/v2_DepthDuration_HTML.html#54,54,1600,781,1600,900,8-21-2022,9-36-0,77,depth_duration_stimuli/002118_2014-06-25_20-32-08_260595134347_rgbf000078-resize_1/002118_2014-06-25_20-32-08_260595134347_rgbf000078-resize_1-target.png,125,2.6460000000000004,13,3719,131,feet,jsons/VE125_randls_52.json,761175,978117,47,Woman
77,316861,DepthScenes,duration_manipulation_targetAtFixation,jsons/VE125_randls_52.json,http://54.235.29.9/FacialAge/BNav_EC2/DepthDuration/v2_depth_duration_MTurk/v2_DepthDuration_HTML.html#54,54,1600,781,1600,900,8-21-2022,9-36-0,78,depth_duration_stimuli/001516_2014-06-20_16-25-09_260595134347_rgbf000076-resize_2/001516_2014-06-20_16-25-09_260595134347_rgbf000076-resize_2-target.png,125,1.7445,6,3673,124,feet,jsons/VE125_randls_52.json,761175,978117,47,Woman
78,316861,DepthScenes,duration_manipulation_targetAtFixation,jsons/VE125_randls_52.json,http://54.235.29.9/FacialAge/BNav_EC2/DepthDuration/v2_depth_duration_MTurk/v2_DepthDuration_HTML.html#54,54,1600,781,1600,900,8-21-2022,9-36-0,79,depth_duration_stimuli/001167_2014-06-17_15-38-07_260595134347_rgbf000108-resize_0/001167_2014-06-17_15-38-07_260595134347_rgbf000108-resize_0-target.png,125,1.8505,5,3556,135,feet,jsons/VE125_randls_52.json,761175,978117,47,Woman
79,316861,DepthScenes,duration_manipulation_targetAtFixation,jsons/VE125_randls_52.json,http://54.235.29.9/FacialAge/BNav_EC2/DepthDuration/v2_depth_duration_MTurk/v2_DepthDuration_HTML.html#54,54,1600,781,1600,900,8-21-2022,9-36-0,80,depth_duration_stimuli/003587_2014-05-23_16-48-02_094959634447_rgbf002384-resize_2/003587_2014-05-23_16-48-02_094959634447_rgbf002384-resize_2-target.png,125,1.357,2,3945,142,feet,jsons/VE125_randls_52.json,761175,978117,47,Woman
80,316861,DepthScenes,duration_manipulation_targetAtFixation,jsons/VE125_randls_52.json,http://54.235.29.9/FacialAge/BNav_EC2/DepthDuration/v2_depth_duration_MTurk/v2_DepthDuration_HTML.html#54,54,1600,781,1600,900,8-21-2022,9-36-0,81,depth_duration_stimuli/001175_2014-06-17_15-45-55_260595134347_rgbf000129-resize_4/001175_2014-06-17_15-45-55_260595134347_rgbf000129-resize_4-target.png,125,4.255,12,3991,129,feet,jsons/VE125_randls_52.json,761175,978117,47,Woman
81,316861,DepthScenes,duration_manipulation_targetAtFixation,jsons/VE125_randls_52.json,http://54.235.29.9/FacialAge/BNav_EC2/DepthDuration/v2_depth_duration_MTurk/v2_DepthDuration_HTML.html#54,54,1600,781,1600,900,8-21-2022,9-36-0,82,depth_duration_stimuli/003490_2014-05-21_15-50-11_094959634447_rgbf000101-resize_3/003490_2014-05-21_15-50-11_094959634447_rgbf000101-resize_3-target.png,125,3.6445,15,3809,129,feet,jsons/VE125_randls_52.json,761175,978117,47,Woman
82,316861,DepthScenes,duration_manipulation_targetAtFixation,jsons/VE125_randls_52.json,http://54.235.29.9/FacialAge/BNav_EC2/DepthDuration/v2_depth_duration_MTurk/v2_DepthDuration_HTML.html#54,54,1600,781,1600,900,8-21-2022,9-36-0,83,depth_duration_stimuli/002763_2014-06-22_19-13-10_094959634447_rgbf000075-resize_4/002763_2014-06-22_19-13-10_094959634447_rgbf000075-resize_4-target.png,125,1.68375,4,3790,112,feet,jsons/VE125_randls_52.json,761175,978117,47,Woman
83,316861,DepthScenes,duration_manipulation_targetAtFixation,jsons/VE125_randls_52.json,http://54.235.29.9/FacialAge/BNav_EC2/DepthDuration/v2_depth_duration_MTurk/v2_DepthDuration_HTML.html#54,54,1600,781,1600,900,8-21-2022,9-36-0,84,depth_duration_stimuli/002209_2014-06-28_18-36-10_260595134347_rgbf000051-resize_1/002209_2014-06-28_18-36-10_260595134347_rgbf000051-resize_1-target.png,125,2.057,5,4015,130,feet,jsons/VE125_randls_52.json,761175,978117,47,Woman
84,316861,DepthScenes,duration_manipulation_targetAtFixation,jsons/VE125_randls_52.json,http://54.235.29.9/FacialAge/BNav_EC2/DepthDuration/v2_depth_duration_MTurk/v2_DepthDuration_HTML.html#54,54,1600,781,1600,900,8-21-2022,9-36-0,85,depth_duration_stimuli/000493_2014-06-09_21-01-18_260595134347_rgbf000196-resize_3/000493_2014-06-09_21-01-18_260595134347_rgbf000196-resize_3-target.png,125,3.44,8,3640,129,feet,jsons/VE125_randls_52.json,761175,978117,47,Woman
85,316861,DepthScenes,duration_manipulation_targetAtFixation,jsons/VE125_randls_52.json,http://54.235.29.9/FacialAge/BNav_EC2/DepthDuration/v2_depth_duration_MTurk/v2_DepthDuration_HTML.html#54,54,1600,781,1600,900,8-21-2022,9-36-0,86,depth_duration_stimuli/000191_2014-05-12_17-07-38_260595134347_rgbf000199-resize_0/000191_2014-05-12_17-07-38_260595134347_rgbf000199-resize_0-target.png,125,3.7995,12,3612,139,feet,jsons/VE125_randls_52.json,761175,978117,47,Woman
86,316861,DepthScenes,duration_manipulation_targetAtFixation,jsons/VE125_randls_52.json,http://54.235.29.9/FacialAge/BNav_EC2/DepthDuration/v2_depth_duration_MTurk/v2_DepthDuration_HTML.html#54,54,1600,781,1600,900,8-21-2022,9-36-0,87,depth_duration_stimuli/002748_2014-06-22_19-07-22_094959634447_rgbf000078-resize_1/002748_2014-06-22_19-07-22_094959634447_rgbf000078-resize_1-target.png,125,4.6705,16,3774,132,feet,jsons/VE125_randls_52.json,761175,978117,47,Woman
87,316861,DepthScenes,duration_manipulation_targetAtFixation,jsons/VE125_randls_52.json,http://54.235.29.9/FacialAge/BNav_EC2/DepthDuration/v2_depth_duration_MTurk/v2_DepthDuration_HTML.html#54,54,1600,781,1600,900,8-21-2022,9-36-0,88,depth_duration_stimuli/002995_2014-06-15_12-31-26_094959634447_rgbf000150-resize_1/002995_2014-06-15_12-31-26_094959634447_rgbf000150-resize_1-target.png,125,3.8360000000000003,11,4421,119,feet,jsons/VE125_randls_52.json,761175,978117,47,Woman
88,316861,DepthScenes,duration_manipulation_targetAtFixation,jsons/VE125_randls_52.json,http://54.235.29.9/FacialAge/BNav_EC2/DepthDuration/v2_depth_duration_MTurk/v2_DepthDuration_HTML.html#54,54,1600,781,1600,900,8-21-2022,9-36-0,89,depth_duration_stimuli/000009_2014-05-26_14-32-05_260595134347_rgbf000034-resize_3/000009_2014-05-26_14-32-05_260595134347_rgbf000034-resize_3-target.png,125,3.8715,14,3996,134,feet,jsons/VE125_randls_52.json,761175,978117,47,Woman
89,316861,DepthScenes,duration_manipulation_targetAtFixation,jsons/VE125_randls_52.json,http://54.235.29.9/FacialAge/BNav_EC2/DepthDuration/v2_depth_duration_MTurk/v2_DepthDuration_HTML.html#54,54,1600,781,1600,900,8-21-2022,9-36-0,90,depth_duration_stimuli/001828_2014-06-26_21-40-03_260595134347_rgbf000024-resize_0/001828_2014-06-26_21-40-03_260595134347_rgbf000024-resize_0-target.png,125,4.8260000000000005,11,3562,131,feet,jsons/VE125_randls_52.json,761175,978117,47,Woman
90,316861,DepthScenes,duration_manipulation_targetAtFixation,jsons/VE125_randls_52.json,http://54.235.29.9/FacialAge/BNav_EC2/DepthDuration/v2_depth_duration_MTurk/v2_DepthDuration_HTML.html#54,54,1600,781,1600,900,8-21-2022,9-36-0,91,depth_duration_stimuli/001059_2014-06-08_21-53-27_260595134347_rgbf000061-resize_4/001059_2014-06-08_21-53-27_260595134347_rgbf000061-resize_4-target.png,125,2.4185,4,4035,135,feet,jsons/VE125_randls_52.json,761175,978117,47,Woman
91,316861,DepthScenes,duration_manipulation_targetAtFixation,jsons/VE125_randls_52.json,http://54.235.29.9/FacialAge/BNav_EC2/DepthDuration/v2_depth_duration_MTurk/v2_DepthDuration_HTML.html#54,54,1600,781,1600,900,8-21-2022,9-36-0,92,depth_duration_stimuli/001032_2014-06-08_13-23-17_260595134347_rgbf000021-resize_3/001032_2014-06-08_13-23-17_260595134347_rgbf000021-resize_3-target.png,125,3.2725,5,4108,117,feet,jsons/VE125_randls_52.json,761175,978117,47,Woman
92,316861,DepthScenes,duration_manipulation_targetAtFixation,jsons/VE125_randls_52.json,http://54.235.29.9/FacialAge/BNav_EC2/DepthDuration/v2_depth_duration_MTurk/v2_DepthDuration_HTML.html#54,54,1600,781,1600,900,8-21-2022,9-36-0,93,depth_duration_stimuli/002272_2014-06-28_18-53-56_260595134347_rgbf000067-resize_2/002272_2014-06-28_18-53-56_260595134347_rgbf000067-resize_2-target.png,125,1.138,3,3706,135,feet,jsons/VE125_randls_52.json,761175,978117,47,Woman
93,316861,DepthScenes,duration_manipulation_targetAtFixation,jsons/VE125_randls_52.json,http://54.235.29.9/FacialAge/BNav_EC2/DepthDuration/v2_depth_duration_MTurk/v2_DepthDuration_HTML.html#54,54,1600,781,1600,900,8-21-2022,9-36-0,94,depth_duration_stimuli/001571_2014-06-20_17-21-32_260595134347_rgbf000089-resize_1/001571_2014-06-20_17-21-32_260595134347_rgbf000089-resize_1-target.png,125,1.86,5,3668,114,feet,jsons/VE125_randls_52.json,761175,978117,47,Woman
94,316861,DepthScenes,duration_manipulation_targetAtFixation,jsons/VE125_randls_52.json,http://54.235.29.9/FacialAge/BNav_EC2/DepthDuration/v2_depth_duration_MTurk/v2_DepthDuration_HTML.html#54,54,1600,781,1600,900,8-21-2022,9-36-0,95,depth_duration_stimuli/000522_2014-06-08_13-35-06_260595134347_rgbf000244-resize_1/000522_2014-06-08_13-35-06_260595134347_rgbf000244-resize_1-target.png,125,2.3715,3,3847,129,feet,jsons/VE125_randls_52.json,761175,978117,47,Woman
95,316861,DepthScenes,duration_manipulation_targetAtFixation,jsons/VE125_randls_52.json,http://54.235.29.9/FacialAge/BNav_EC2/DepthDuration/v2_depth_duration_MTurk/v2_DepthDuration_HTML.html#54,54,1600,781,1600,900,8-21-2022,9-36-0,96,depth_duration_stimuli/002949_2014-06-26_15-57-42_094959634447_rgbf000079-resize_1/002949_2014-06-26_15-57-42_094959634447_rgbf000079-resize_1-target.png,125,1.8915,4,5458,135,feet,jsons/VE125_randls_52.json,761175,978117,47,Woman
96,316861,DepthScenes,duration_manipulation_targetAtFixation,jsons/VE125_randls_52.json,http://54.235.29.9/FacialAge/BNav_EC2/DepthDuration/v2_depth_duration_MTurk/v2_DepthDuration_HTML.html#54,54,1600,781,1600,900,8-21-2022,9-36-0,97,depth_duration_stimuli/000368_2014-06-09_15-53-01_260595134347_rgbf000155-resize_2/000368_2014-06-09_15-53-01_260595134347_rgbf000155-resize_2-target.png,125,2.4859999999999998,7,4049,105,feet,jsons/VE125_randls_52.json,761175,978117,47,Woman
97,316861,DepthScenes,duration_manipulation_targetAtFixation,jsons/VE125_randls_52.json,http://54.235.29.9/FacialAge/BNav_EC2/DepthDuration/v2_depth_duration_MTurk/v2_DepthDuration_HTML.html#54,54,1600,781,1600,900,8-21-2022,9-36-0,98,depth_duration_stimuli/002678_2014-06-13_16-15-32_094959634447_rgbf000151-resize_6/002678_2014-06-13_16-15-32_094959634447_rgbf000151-resize_6-target.png,125,2.1830000000000003,16,4674,129,feet,jsons/VE125_randls_52.json,761175,978117,47,Woman
98,316861,DepthScenes,duration_manipulation_targetAtFixation,jsons/VE125_randls_52.json,http://54.235.29.9/FacialAge/BNav_EC2/DepthDuration/v2_depth_duration_MTurk/v2_DepthDuration_HTML.html#54,54,1600,781,1600,900,8-21-2022,9-36-0,99,depth_duration_stimuli/001540_2014-06-20_17-01-05_260595134347_rgbf000086-resize_2/001540_2014-06-20_17-01-05_260595134347_rgbf000086-resize-original.jpg,125,1.459,0,5171,133,feet,jsons/VE125_randls_52.json,761175,978117,47,Woman
99,316861,DepthScenes,duration_manipulation_targetAtFixation,jsons/VE125_randls_52.json,http://54.235.29.9/FacialAge/BNav_EC2/DepthDuration/v2_depth_duration_MTurk/v2_DepthDuration_HTML.html#54,54,1600,781,1600,900,8-21-2022,9-36-0,100,depth_duration_stimuli/002725_2014-06-22_11-47-51_094959634447_rgbf000070-resize_1/002725_2014-06-22_11-47-51_094959634447_rgbf000070-resize_1-target.png,125,2.195,12,3494,113,feet,jsons/VE125_randls_52.json,761175,978117,47,Woman
100,316861,DepthScenes,duration_manipulation_targetAtFixation,jsons/VE125_randls_52.json,http://54.235.29.9/FacialAge/BNav_EC2/DepthDuration/v2_depth_duration_MTurk/v2_DepthDuration_HTML.html#54,54,1600,781,1600,900,8-21-2022,9-36-0,101,depth_duration_stimuli/002344_2014-06-28_20-06-29_260595134347_rgbf000030-resize_1/002344_2014-06-28_20-06-29_260595134347_rgbf000030-resize_1-target.png,125,1.5795,4,3824,130,feet,jsons/VE125_randls_52.json,761175,978117,47,Woman
101,316861,DepthScenes,duration_manipulation_targetAtFixation,jsons/VE125_randls_52.json,http://54.235.29.9/FacialAge/BNav_EC2/DepthDuration/v2_depth_duration_MTurk/v2_DepthDuration_HTML.html#54,54,1600,781,1600,900,8-21-2022,9-36-0,102,depth_duration_stimuli/001133_2014-06-17_14-49-16_260595134347_rgbf000100-resize_0/001133_2014-06-17_14-49-16_260595134347_rgbf000100-resize_0-target.png,125,4.2115,14,4154,121,feet,jsons/VE125_randls_52.json,761175,978117,47,Woman
102,316861,DepthScenes,duration_manipulation_targetAtFixation,jsons/VE125_randls_52.json,http://54.235.29.9/FacialAge/BNav_EC2/DepthDuration/v2_depth_duration_MTurk/v2_DepthDuration_HTML.html#54,54,1600,781,1600,900,8-21-2022,9-36-0,103,depth_duration_stimuli/001132_2014-06-17_14-48-54_260595134347_rgbf000100-resize_2/001132_2014-06-17_14-48-54_260595134347_rgbf000100-resize_2-target.png,125,3.753,17,3671,126,feet,jsons/VE125_randls_52.json,761175,978117,47,Woman
103,316861,DepthScenes,duration_manipulation_targetAtFixation,jsons/VE125_randls_52.json,http://54.235.29.9/FacialAge/BNav_EC2/DepthDuration/v2_depth_duration_MTurk/v2_DepthDuration_HTML.html#54,54,1600,781,1600,900,8-21-2022,9-36-0,104,depth_duration_stimuli/001110_2014-06-15_17-25-28_260595134347_rgbf000150-resize_1/001110_2014-06-15_17-25-28_260595134347_rgbf000150-resize_1-target.png,125,1.7115,6,3802,117,feet,jsons/VE125_randls_52.json,761175,978117,47,Woman
104,316861,DepthScenes,duration_manipulation_targetAtFixation,jsons/VE125_randls_52.json,http://54.235.29.9/FacialAge/BNav_EC2/DepthDuration/v2_depth_duration_MTurk/v2_DepthDuration_HTML.html#54,54,1600,781,1600,900,8-21-2022,9-36-0,105,depth_duration_stimuli/000927_2014-06-09_16-32-30_260595134347_rgbf000123-resize_3/000927_2014-06-09_16-32-30_260595134347_rgbf000123-resize_3-target.png,125,2.6785,12,3527,133,feet,jsons/VE125_randls_52.json,761175,978117,47,Woman
105,316861,DepthScenes,duration_manipulation_targetAtFixation,jsons/VE125_randls_52.json,http://54.235.29.9/FacialAge/BNav_EC2/DepthDuration/v2_depth_duration_MTurk/v2_DepthDuration_HTML.html#54,54,1600,781,1600,900,8-21-2022,9-36-0,106,depth_duration_stimuli/002663_2014-06-13_15-50-26_094959634447_rgbf000075-resize_1/002663_2014-06-13_15-50-26_094959634447_rgbf000075-resize_1-target.png,125,4.7495,13,4673,123,feet,jsons/VE125_randls_52.json,761175,978117,47,Woman
106,316861,DepthScenes,duration_manipulation_targetAtFixation,jsons/VE125_randls_52.json,http://54.235.29.9/FacialAge/BNav_EC2/DepthDuration/v2_depth_duration_MTurk/v2_DepthDuration_HTML.html#54,54,1600,781,1600,900,8-21-2022,9-36-0,107,depth_duration_stimuli/000409_2014-06-04_19-23-33_260595134347_rgbf000067-resize_0/000409_2014-06-04_19-23-33_260595134347_rgbf000067-resize_0-target.png,125,3.7335,11,3742,126,feet,jsons/VE125_randls_52.json,761175,978117,47,Woman
107,316861,DepthScenes,duration_manipulation_targetAtFixation,jsons/VE125_randls_52.json,http://54.235.29.9/FacialAge/BNav_EC2/DepthDuration/v2_depth_duration_MTurk/v2_DepthDuration_HTML.html#54,54,1600,781,1600,900,8-21-2022,9-36-0,108,depth_duration_stimuli/001150_2014-06-17_15-27-34_260595134347_rgbf000108-resize_2/001150_2014-06-17_15-27-34_260595134347_rgbf000108-resize_2-target.png,125,4.0325,9,3640,129,feet,jsons/VE125_randls_52.json,761175,978117,47,Woman
108,316861,DepthScenes,duration_manipulation_targetAtFixation,jsons/VE125_randls_52.json,http://54.235.29.9/FacialAge/BNav_EC2/DepthDuration/v2_depth_duration_MTurk/v2_DepthDuration_HTML.html#54,54,1600,781,1600,900,8-21-2022,9-36-0,109,depth_duration_stimuli/000665_2014-06-09_20-42-35_260595134347_rgbf000110-resize_1/000665_2014-06-09_20-42-35_260595134347_rgbf000110-resize_1-target.png,125,3.057,7,3521,115,feet,jsons/VE125_randls_52.json,761175,978117,47,Woman
109,316861,DepthScenes,duration_manipulation_targetAtFixation,jsons/VE125_randls_52.json,http://54.235.29.9/FacialAge/BNav_EC2/DepthDuration/v2_depth_duration_MTurk/v2_DepthDuration_HTML.html#54,54,1600,781,1600,900,8-21-2022,9-36-0,110,depth_duration_stimuli/001092_2014-06-15_17-34-58_260595134347_rgbf000171-resize_3/001092_2014-06-15_17-34-58_260595134347_rgbf000171-resize_3-target.png,125,2.6935,6,3296,121,feet,jsons/VE125_randls_52.json,761175,978117,47,Woman
110,316861,DepthScenes,duration_manipulation_targetAtFixation,jsons/VE125_randls_52.json,http://54.235.29.9/FacialAge/BNav_EC2/DepthDuration/v2_depth_duration_MTurk/v2_DepthDuration_HTML.html#54,54,1600,781,1600,900,8-21-2022,9-36-0,111,depth_duration_stimuli/002545_2014-06-24_13-38-53_094959634447_rgbf000080-resize_4/002545_2014-06-24_13-38-53_094959634447_rgbf000080-resize_4-target.png,125,1.9205,11,4447,136,feet,jsons/VE125_randls_52.json,761175,978117,47,Woman
111,316861,DepthScenes,duration_manipulation_targetAtFixation,jsons/VE125_randls_52.json,http://54.235.29.9/FacialAge/BNav_EC2/DepthDuration/v2_depth_duration_MTurk/v2_DepthDuration_HTML.html#54,54,1600,781,1600,900,8-21-2022,9-36-0,112,depth_duration_stimuli/003070_2014-06-15_14-58-27_094959634447_rgbf000150-resize_3/003070_2014-06-15_14-58-27_094959634447_rgbf000150-resize_3-target.png,125,2.9415,9,3470,118,feet,jsons/VE125_randls_52.json,761175,978117,47,Woman
112,316861,DepthScenes,duration_manipulation_targetAtFixation,jsons/VE125_randls_52.json,http://54.235.29.9/FacialAge/BNav_EC2/DepthDuration/v2_depth_duration_MTurk/v2_DepthDuration_HTML.html#54,54,1600,781,1600,900,8-21-2022,9-36-0,113,depth_duration_stimuli/000943_2014-06-09_19-31-07_260595134347_rgbf000128-resize_1/000943_2014-06-09_19-31-07_260595134347_rgbf000128-resize_1-target.png,125,1.9765,7,3853,119,feet,jsons/VE125_randls_52.json,761175,978117,47,Woman
113,316861,DepthScenes,duration_manipulation_targetAtFixation,jsons/VE125_randls_52.json,http://54.235.29.9/FacialAge/BNav_EC2/DepthDuration/v2_depth_duration_MTurk/v2_DepthDuration_HTML.html#54,54,1600,781,1600,900,8-21-2022,9-36-0,114,depth_duration_stimuli/002989_2014-06-15_12-25-03_094959634447_rgbf000150-resize_3/002989_2014-06-15_12-25-03_094959634447_rgbf000150-resize_3-target.png,125,4.1975,16,3928,131,feet,jsons/VE125_randls_52.json,761175,978117,47,Woman
114,316861,DepthScenes,duration_manipulation_targetAtFixation,jsons/VE125_randls_52.json,http://54.235.29.9/FacialAge/BNav_EC2/DepthDuration/v2_depth_duration_MTurk/v2_DepthDuration_HTML.html#54,54,1600,781,1600,900,8-21-2022,9-36-0,115,depth_duration_stimuli/000866_2014-06-09_20-45-42_260595134347_rgbf000139-resize_1/000866_2014-06-09_20-45-42_260595134347_rgbf000139-resize_1-target.png,125,3.2155,5,4104,122,feet,jsons/VE125_randls_52.json,761175,978117,47,Woman
115,316861,DepthScenes,duration_manipulation_targetAtFixation,jsons/VE125_randls_52.json,http://54.235.29.9/FacialAge/BNav_EC2/DepthDuration/v2_depth_duration_MTurk/v2_DepthDuration_HTML.html#54,54,1600,781,1600,900,8-21-2022,9-36-0,116,depth_duration_stimuli/001170_2014-06-17_15-43-44_260595134347_rgbf000096-resize_6/001170_2014-06-17_15-43-44_260595134347_rgbf000096-resize-original.jpg,125,1.1909999999999998,0,3132,111,feet,jsons/VE125_randls_52.json,761175,978117,47,Woman
116,316861,DepthScenes,duration_manipulation_targetAtFixation,jsons/VE125_randls_52.json,http://54.235.29.9/FacialAge/BNav_EC2/DepthDuration/v2_depth_duration_MTurk/v2_DepthDuration_HTML.html#54,54,1600,781,1600,900,8-21-2022,9-36-0,117,depth_duration_stimuli/001555_2014-06-20_17-12-10_260595134347_rgbf000065-resize_4/001555_2014-06-20_17-12-10_260595134347_rgbf000065-resize_4-target.png,125,1.633,4,3655,117,feet,jsons/VE125_randls_52.json,761175,978117,47,Woman
117,316861,DepthScenes,duration_manipulation_targetAtFixation,jsons/VE125_randls_52.json,http://54.235.29.9/FacialAge/BNav_EC2/DepthDuration/v2_depth_duration_MTurk/v2_DepthDuration_HTML.html#54,54,1600,781,1600,900,8-21-2022,9-36-0,118,depth_duration_stimuli/000103_2014-05-14_22-01-17_260595134347_rgbf000152-resize_5/000103_2014-05-14_22-01-17_260595134347_rgbf000152-resize_5-target.png,125,1.993,6,4363,109,feet,jsons/VE125_randls_52.json,761175,978117,47,Woman
118,316861,DepthScenes,duration_manipulation_targetAtFixation,jsons/VE125_randls_52.json,http://54.235.29.9/FacialAge/BNav_EC2/DepthDuration/v2_depth_duration_MTurk/v2_DepthDuration_HTML.html#54,54,1600,781,1600,900,8-21-2022,9-36-0,119,depth_duration_stimuli/002988_2014-06-15_12-24-20_094959634447_rgbf000150-resize_1/002988_2014-06-15_12-24-20_094959634447_rgbf000150-resize_1-target.png,125,4.7669999999999995,15,4388,119,feet,jsons/VE125_randls_52.json,761175,978117,47,Woman
119,316861,DepthScenes,duration_manipulation_targetAtFixation,jsons/VE125_randls_52.json,http://54.235.29.9/FacialAge/BNav_EC2/DepthDuration/v2_depth_duration_MTurk/v2_DepthDuration_HTML.html#54,54,1600,781,1600,900,8-21-2022,9-36-0,120,depth_duration_stimuli/001052_2014-06-08_18-24-54_260595134347_rgbf000130-resize_1/001052_2014-06-08_18-24-54_260595134347_rgbf000130-resize_1-target.png,125,4.1045,8,3824,124,feet,jsons/VE125_randls_52.json,761175,978117,47,Woman
120,316861,DepthScenes,duration_manipulation_targetAtFixation,jsons/VE125_randls_52.json,http://54.235.29.9/FacialAge/BNav_EC2/DepthDuration/v2_depth_duration_MTurk/v2_DepthDuration_HTML.html#54,54,1600,781,1600,900,8-21-2022,9-36-0,121,depth_duration_stimuli/001810_2014-06-26_20-51-35_260595134347_rgbf000040-resize_3/001810_2014-06-26_20-51-35_260595134347_rgbf000040-resize_3-target.png,125,2.2525,4,3701,124,feet,jsons/VE125_randls_52.json,761175,978117,47,Woman
121,316861,DepthScenes,duration_manipulation_targetAtFixation,jsons/VE125_randls_52.json,http://54.235.29.9/FacialAge/BNav_EC2/DepthDuration/v2_depth_duration_MTurk/v2_DepthDuration_HTML.html#54,54,1600,781,1600,900,8-21-2022,9-36-0,122,depth_duration_stimuli/003010_2014-06-15_12-54-35_094959634447_rgbf000112-resize_0/003010_2014-06-15_12-54-35_094959634447_rgbf000112-resize_0-target.png,125,3.1185,7,5647,131,feet,jsons/VE125_randls_52.json,761175,978117,47,Woman
122,316861,DepthScenes,duration_manipulation_targetAtFixation,jsons/VE125_randls_52.json,http://54.235.29.9/FacialAge/BNav_EC2/DepthDuration/v2_depth_duration_MTurk/v2_DepthDuration_HTML.html#54,54,1600,781,1600,900,8-21-2022,9-36-0,123,depth_duration_stimuli/001570_2014-06-20_17-21-09_260595134347_rgbf000135-resize_4/001570_2014-06-20_17-21-09_260595134347_rgbf000135-resize_4-target.png,125,4.467,12,3452,108,feet,jsons/VE125_randls_52.json,761175,978117,47,Woman
123,316861,DepthScenes,duration_manipulation_targetAtFixation,jsons/VE125_randls_52.json,http://54.235.29.9/FacialAge/BNav_EC2/DepthDuration/v2_depth_duration_MTurk/v2_DepthDuration_HTML.html#54,54,1600,781,1600,900,8-21-2022,9-36-0,124,depth_duration_stimuli/001392_2014-06-19_16-07-59_260595134347_rgbf000046-resize_1/001392_2014-06-19_16-07-59_260595134347_rgbf000046-resize_1-target.png,125,4.135,9,3438,109,feet,jsons/VE125_randls_52.json,761175,978117,47,Woman
124,316861,DepthScenes,duration_manipulation_targetAtFixation,jsons/VE125_randls_52.json,http://54.235.29.9/FacialAge/BNav_EC2/DepthDuration/v2_depth_duration_MTurk/v2_DepthDuration_HTML.html#54,54,1600,781,1600,900,8-21-2022,9-36-0,125,depth_duration_stimuli/000447_2014-06-08_16-15-46_260595134347_rgbf000130-resize_1/000447_2014-06-08_16-15-46_260595134347_rgbf000130-resize_1-target.png,125,4.479,12,3693,135,feet,jsons/VE125_randls_52.json,761175,978117,47,Woman
125,316861,DepthScenes,duration_manipulation_targetAtFixation,jsons/VE125_randls_52.json,http://54.235.29.9/FacialAge/BNav_EC2/DepthDuration/v2_depth_duration_MTurk/v2_DepthDuration_HTML.html#54,54,1600,781,1600,900,8-21-2022,9-36-0,126,depth_duration_stimuli/001447_2014-06-19_17-00-32_260595134347_rgbf000082-resize_5/001447_2014-06-19_17-00-32_260595134347_rgbf000082-resize_5-target.png,125,4.13775,8,4254,123,feet,jsons/VE125_randls_52.json,761175,978117,47,Woman
126,316861,DepthScenes,duration_manipulation_targetAtFixation,jsons/VE125_randls_52.json,http://54.235.29.9/FacialAge/BNav_EC2/DepthDuration/v2_depth_duration_MTurk/v2_DepthDuration_HTML.html#54,54,1600,781,1600,900,8-21-2022,9-36-0,127,depth_duration_stimuli/002375_2014-06-28_20-13-44_260595134347_rgbf000032-resize_1/002375_2014-06-28_20-13-44_260595134347_rgbf000032-resize_1-target.png,125,4.0175,5,3595,126,feet,jsons/VE125_randls_52.json,761175,978117,47,Woman
127,316861,DepthScenes,duration_manipulation_targetAtFixation,jsons/VE125_randls_52.json,http://54.235.29.9/FacialAge/BNav_EC2/DepthDuration/v2_depth_duration_MTurk/v2_DepthDuration_HTML.html#54,54,1600,781,1600,900,8-21-2022,9-36-0,128,depth_duration_stimuli/002657_2014-06-13_15-29-54_094959634447_rgbf000150-resize_1/002657_2014-06-13_15-29-54_094959634447_rgbf000150-resize_1-target.png,125,4.919,9,3734,127,feet,jsons/VE125_randls_52.json,761175,978117,47,Woman
128,316861,DepthScenes,duration_manipulation_targetAtFixation,jsons/VE125_randls_52.json,http://54.235.29.9/FacialAge/BNav_EC2/DepthDuration/v2_depth_duration_MTurk/v2_DepthDuration_HTML.html#54,54,1600,781,1600,900,8-21-2022,9-36-0,129,depth_duration_stimuli/002905_2014-06-03_18-04-43_094959634447_rgbf000151-resize_2/002905_2014-06-03_18-04-43_094959634447_rgbf000151-resize_2-target.png,125,2.0295,4,3484,129,feet,jsons/VE125_randls_52.json,761175,978117,47,Woman
129,316861,DepthScenes,duration_manipulation_targetAtFixation,jsons/VE125_randls_52.json,http://54.235.29.9/FacialAge/BNav_EC2/DepthDuration/v2_depth_duration_MTurk/v2_DepthDuration_HTML.html#54,54,1600,781,1600,900,8-21-2022,9-36-0,130,depth_duration_stimuli/003423_2014-05-21_10-23-26_094959634447_rgbf002665-resize_2/003423_2014-05-21_10-23-26_094959634447_rgbf002665-resize_2-target.png,125,3.2575,12,6728,120,feet,jsons/VE125_randls_52.json,761175,978117,47,Woman
130,316861,DepthScenes,duration_manipulation_targetAtFixation,jsons/VE125_randls_52.json,http://54.235.29.9/FacialAge/BNav_EC2/DepthDuration/v2_depth_duration_MTurk/v2_DepthDuration_HTML.html#54,54,1600,781,1600,900,8-21-2022,9-36-0,131,depth_duration_stimuli/001808_2014-06-26_20-50-58_260595134347_rgbf000029-resize_1/001808_2014-06-26_20-50-58_260595134347_rgbf000029-resize_1-target.png,125,4.249,18,4577,123,feet,jsons/VE125_randls_52.json,761175,978117,47,Woman
131,316861,DepthScenes,duration_manipulation_targetAtFixation,jsons/VE125_randls_52.json,http://54.235.29.9/FacialAge/BNav_EC2/DepthDuration/v2_depth_duration_MTurk/v2_DepthDuration_HTML.html#54,54,1600,781,1600,900,8-21-2022,9-36-0,132,depth_duration_stimuli/001815_2014-06-26_20-52-55_260595134347_rgbf000020-resize_0/001815_2014-06-26_20-52-55_260595134347_rgbf000020-resize_0-target.png,125,3.3865,13,4133,132,feet,jsons/VE125_randls_52.json,761175,978117,47,Woman
132,316861,DepthScenes,duration_manipulation_targetAtFixation,jsons/VE125_randls_52.json,http://54.235.29.9/FacialAge/BNav_EC2/DepthDuration/v2_depth_duration_MTurk/v2_DepthDuration_HTML.html#54,54,1600,781,1600,900,8-21-2022,9-36-0,133,depth_duration_stimuli/002630_2014-06-24_14-47-50_094959634447_rgbf000055-resize_1/002630_2014-06-24_14-47-50_094959634447_rgbf000055-resize_1-target.png,125,3.0095,12,3744,128,feet,jsons/VE125_randls_52.json,761175,978117,47,Woman
133,316861,DepthScenes,duration_manipulation_targetAtFixation,jsons/VE125_randls_52.json,http://54.235.29.9/FacialAge/BNav_EC2/DepthDuration/v2_depth_duration_MTurk/v2_DepthDuration_HTML.html#54,54,1600,781,1600,900,8-21-2022,9-36-0,134,depth_duration_stimuli/002758_2014-06-22_19-11-20_094959634447_rgbf000128-resize_1/002758_2014-06-22_19-11-20_094959634447_rgbf000128-resize_1-target.png,125,2.555,5,3490,123,feet,jsons/VE125_randls_52.json,761175,978117,47,Woman
134,316861,DepthScenes,duration_manipulation_targetAtFixation,jsons/VE125_randls_52.json,http://54.235.29.9/FacialAge/BNav_EC2/DepthDuration/v2_depth_duration_MTurk/v2_DepthDuration_HTML.html#54,54,1600,781,1600,900,8-21-2022,9-36-0,135,depth_duration_stimuli/002072_2014-06-24_21-48-06_260595134347_rgbf000115-resize_0/002072_2014-06-24_21-48-06_260595134347_rgbf000115-resize-original.jpg,125,4.702,0,3322,105,feet,jsons/VE125_randls_52.json,761175,978117,47,Woman
135,316861,DepthScenes,duration_manipulation_targetAtFixation,jsons/VE125_randls_52.json,http://54.235.29.9/FacialAge/BNav_EC2/DepthDuration/v2_depth_duration_MTurk/v2_DepthDuration_HTML.html#54,54,1600,781,1600,900,8-21-2022,9-36-0,136,depth_duration_stimuli/000736_2014-06-08_18-24-15_260595134347_rgbf000206-resize_3/000736_2014-06-08_18-24-15_260595134347_rgbf000206-resize_3-target.png,125,3.515,5,3322,124,feet,jsons/VE125_randls_52.json,761175,978117,47,Woman
136,316861,DepthScenes,duration_manipulation_targetAtFixation,jsons/VE125_randls_52.json,http://54.235.29.9/FacialAge/BNav_EC2/DepthDuration/v2_depth_duration_MTurk/v2_DepthDuration_HTML.html#54,54,1600,781,1600,900,8-21-2022,9-36-0,137,depth_duration_stimuli/000137_2014-05-20_17-04-49_260595134347_rgbf000120-resize_1/000137_2014-05-20_17-04-49_260595134347_rgbf000120-resize_1-target.png,125,3.786,11,3609,122,feet,jsons/VE125_randls_52.json,761175,978117,47,Woman
137,316861,DepthScenes,duration_manipulation_targetAtFixation,jsons/VE125_randls_52.json,http://54.235.29.9/FacialAge/BNav_EC2/DepthDuration/v2_depth_duration_MTurk/v2_DepthDuration_HTML.html#54,54,1600,781,1600,900,8-21-2022,9-36-0,138,depth_duration_stimuli/002964_2014-06-08_17-46-11_094959634447_rgbf000091-resize_4/002964_2014-06-08_17-46-11_094959634447_rgbf000091-resize_4-target.png,125,1.6909999999999998,3,3240,116,feet,jsons/VE125_randls_52.json,761175,978117,47,Woman
138,316861,DepthScenes,duration_manipulation_targetAtFixation,jsons/VE125_randls_52.json,http://54.235.29.9/FacialAge/BNav_EC2/DepthDuration/v2_depth_duration_MTurk/v2_DepthDuration_HTML.html#54,54,1600,781,1600,900,8-21-2022,9-36-0,139,depth_duration_stimuli/002136_2014-06-25_21-18-03_260595134347_rgbf000109-resize_3/002136_2014-06-25_21-18-03_260595134347_rgbf000109-resize_3-target.png,125,1.9569999999999999,5,3494,119,feet,jsons/VE125_randls_52.json,761175,978117,47,Woman
139,316861,DepthScenes,duration_manipulation_targetAtFixation,jsons/VE125_randls_52.json,http://54.235.29.9/FacialAge/BNav_EC2/DepthDuration/v2_depth_duration_MTurk/v2_DepthDuration_HTML.html#54,54,1600,781,1600,900,8-21-2022,9-36-0,140,depth_duration_stimuli/002788_2014-06-22_19-36-03_094959634447_rgbf000088-resize_2/002788_2014-06-22_19-36-03_094959634447_rgbf000088-resize_2-target.png,125,1.6465,7,3449,125,feet,jsons/VE125_randls_52.json,761175,978117,47,Woman
140,316861,DepthScenes,duration_manipulation_targetAtFixation,jsons/VE125_randls_52.json,http://54.235.29.9/FacialAge/BNav_EC2/DepthDuration/v2_depth_duration_MTurk/v2_DepthDuration_HTML.html#54,54,1600,781,1600,900,8-21-2022,9-36-0,141,depth_duration_stimuli/000749_2014-06-08_21-55-06_260595134347_rgbf000070-resize_2/000749_2014-06-08_21-55-06_260595134347_rgbf000070-resize_2-target.png,125,2.331,9,3423,125,feet,jsons/VE125_randls_52.json,761175,978117,47,Woman
141,316861,DepthScenes,duration_manipulation_targetAtFixation,jsons/VE125_randls_52.json,http://54.235.29.9/FacialAge/BNav_EC2/DepthDuration/v2_depth_duration_MTurk/v2_DepthDuration_HTML.html#54,54,1600,781,1600,900,8-21-2022,9-36-0,142,depth_duration_stimuli/000470_2014-06-09_19-42-40_260595134347_rgbf000094-resize_1/000470_2014-06-09_19-42-40_260595134347_rgbf000094-resize_1-target.png,125,1.831,4,3425,127,feet,jsons/VE125_randls_52.json,761175,978117,47,Woman
142,316861,DepthScenes,duration_manipulation_targetAtFixation,jsons/VE125_randls_52.json,http://54.235.29.9/FacialAge/BNav_EC2/DepthDuration/v2_depth_duration_MTurk/v2_DepthDuration_HTML.html#54,54,1600,781,1600,900,8-21-2022,9-36-0,143,depth_duration_stimuli/000109_2014-05-14_23-41-52_260595134347_rgbf000035-resize_9/000109_2014-05-14_23-41-52_260595134347_rgbf000035-resize_9-target.png,125,1.3545,4,3948,125,feet,jsons/VE125_randls_52.json,761175,978117,47,Woman
143,316861,DepthScenes,duration_manipulation_targetAtFixation,jsons/VE125_randls_52.json,http://54.235.29.9/FacialAge/BNav_EC2/DepthDuration/v2_depth_duration_MTurk/v2_DepthDuration_HTML.html#54,54,1600,781,1600,900,8-21-2022,9-36-0,144,depth_duration_stimuli/000739_2014-06-08_18-45-58_260595134347_rgbf000068-resize_1/000739_2014-06-08_18-45-58_260595134347_rgbf000068-resize_1-target.png,125,3.534,9,3456,130,feet,jsons/VE125_randls_52.json,761175,978117,47,Woman
144,316861,DepthScenes,duration_manipulation_targetAtFixation,jsons/VE125_randls_52.json,http://54.235.29.9/FacialAge/BNav_EC2/DepthDuration/v2_depth_duration_MTurk/v2_DepthDuration_HTML.html#54,54,1600,781,1600,900,8-21-2022,9-36-0,145,depth_duration_stimuli/000734_2014-06-08_17-39-11_260595134347_rgbf000128-resize_2/000734_2014-06-08_17-39-11_260595134347_rgbf000128-resize_2-target.png,125,4.098,11,3702,124,feet,jsons/VE125_randls_52.json,761175,978117,47,Woman
145,316861,DepthScenes,duration_manipulation_targetAtFixation,jsons/VE125_randls_52.json,http://54.235.29.9/FacialAge/BNav_EC2/DepthDuration/v2_depth_duration_MTurk/v2_DepthDuration_HTML.html#54,54,1600,781,1600,900,8-21-2022,9-36-0,146,depth_duration_stimuli/001498_2014-06-19_17-45-14_260595134347_rgbf000129-resize_4/001498_2014-06-19_17-45-14_260595134347_rgbf000129-resize-original.jpg,125,1.4075,0,2861,121,feet,jsons/VE125_randls_52.json,761175,978117,47,Woman
146,316861,DepthScenes,duration_manipulation_targetAtFixation,jsons/VE125_randls_52.json,http://54.235.29.9/FacialAge/BNav_EC2/DepthDuration/v2_depth_duration_MTurk/v2_DepthDuration_HTML.html#54,54,1600,781,1600,900,8-21-2022,9-36-0,147,depth_duration_stimuli/003292_2014-05-14_21-53-49_094959634447_rgbf000100-resize_2/003292_2014-05-14_21-53-49_094959634447_rgbf000100-resize_2-target.png,125,3.4815,6,3296,117,feet,jsons/VE125_randls_52.json,761175,978117,47,Woman
147,316861,DepthScenes,duration_manipulation_targetAtFixation,jsons/VE125_randls_52.json,http://54.235.29.9/FacialAge/BNav_EC2/DepthDuration/v2_depth_duration_MTurk/v2_DepthDuration_HTML.html#54,54,1600,781,1600,900,8-21-2022,9-36-0,148,depth_duration_stimuli/002639_2014-06-24_14-51-37_094959634447_rgbf000074-resize_4/002639_2014-06-24_14-51-37_094959634447_rgbf000074-resize_4-target.png,125,4.0375,13,3572,117,feet,jsons/VE125_randls_52.json,761175,978117,47,Woman
148,316861,DepthScenes,duration_manipulation_targetAtFixation,jsons/VE125_randls_52.json,http://54.235.29.9/FacialAge/BNav_EC2/DepthDuration/v2_depth_duration_MTurk/v2_DepthDuration_HTML.html#54,54,1600,781,1600,900,8-21-2022,9-36-0,149,depth_duration_stimuli/001449_2014-06-19_17-01-27_260595134347_rgbf000116-resize_2/001449_2014-06-19_17-01-27_260595134347_rgbf000116-resize_2-target.png,125,3.452,7,3595,119,feet,jsons/VE125_randls_52.json,761175,978117,47,Woman
149,316861,DepthScenes,duration_manipulation_targetAtFixation,jsons/VE125_randls_52.json,http://54.235.29.9/FacialAge/BNav_EC2/DepthDuration/v2_depth_duration_MTurk/v2_DepthDuration_HTML.html#54,54,1600,781,1600,900,8-21-2022,9-36-0,150,depth_duration_stimuli/001450_2014-06-19_17-02-03_260595134347_rgbf000203-resize_4/001450_2014-06-19_17-02-03_260595134347_rgbf000203-resize_4-target.png,125,4.0106666666667,12,3346,117,feet,jsons/VE125_randls_52.json,761175,978117,47,Woman
150,316861,DepthScenes,duration_manipulation_targetAtFixation,jsons/VE125_randls_52.json,http://54.235.29.9/FacialAge/BNav_EC2/DepthDuration/v2_depth_duration_MTurk/v2_DepthDuration_HTML.html#54,54,1600,781,1600,900,8-21-2022,9-36-0,151,depth_duration_stimuli/002039_2014-06-24_20-22-38_260595134347_rgbf000084-resize_1/002039_2014-06-24_20-22-38_260595134347_rgbf000084-resize_1-target.png,125,4.408,11,3699,122,feet,jsons/VE125_randls_52.json,761175,978117,47,Woman
151,316861,DepthScenes,duration_manipulation_targetAtFixation,jsons/VE125_randls_52.json,http://54.235.29.9/FacialAge/BNav_EC2/DepthDuration/v2_depth_duration_MTurk/v2_DepthDuration_HTML.html#54,54,1600,781,1600,900,8-21-2022,9-36-0,152,depth_duration_stimuli/002103_2014-06-25_20-00-40_260595134347_rgbf000049-resize_0/002103_2014-06-25_20-00-40_260595134347_rgbf000049-resize_0-target.png,125,4.105,6,3839,137,feet,jsons/VE125_randls_52.json,761175,978117,47,Woman
152,316861,DepthScenes,duration_manipulation_targetAtFixation,jsons/VE125_randls_52.json,http://54.235.29.9/FacialAge/BNav_EC2/DepthDuration/v2_depth_duration_MTurk/v2_DepthDuration_HTML.html#54,54,1600,781,1600,900,8-21-2022,9-36-0,153,depth_duration_stimuli/000692_2014-06-08_13-09-42_260595134347_rgbf000199-resize_2/000692_2014-06-08_13-09-42_260595134347_rgbf000199-resize_2-target.png,125,3.661,14,3868,138,feet,jsons/VE125_randls_52.json,761175,978117,47,Woman
153,316861,DepthScenes,duration_manipulation_targetAtFixation,jsons/VE125_randls_52.json,http://54.235.29.9/FacialAge/BNav_EC2/DepthDuration/v2_depth_duration_MTurk/v2_DepthDuration_HTML.html#54,54,1600,781,1600,900,8-21-2022,9-36-0,154,depth_duration_stimuli/001094_2014-06-15_17-36-00_260595134347_rgbf000205-resize_0/001094_2014-06-15_17-36-00_260595134347_rgbf000205-resize_0-target.png,125,4.2175,13,4240,127,feet,jsons/VE125_randls_52.json,761175,978117,47,Woman
154,316861,DepthScenes,duration_manipulation_targetAtFixation,jsons/VE125_randls_52.json,http://54.235.29.9/FacialAge/BNav_EC2/DepthDuration/v2_depth_duration_MTurk/v2_DepthDuration_HTML.html#54,54,1600,781,1600,900,8-21-2022,9-36-0,155,depth_duration_stimuli/002057_2014-06-24_21-00-13_260595134347_rgbf000120-resize_1/002057_2014-06-24_21-00-13_260595134347_rgbf000120-resize_1-target.png,125,2.967,11,4225,139,feet,jsons/VE125_randls_52.json,761175,978117,47,Woman
155,316861,DepthScenes,duration_manipulation_targetAtFixation,jsons/VE125_randls_52.json,http://54.235.29.9/FacialAge/BNav_EC2/DepthDuration/v2_depth_duration_MTurk/v2_DepthDuration_HTML.html#54,54,1600,781,1600,900,8-21-2022,9-36-0,156,depth_duration_stimuli/000709_2014-06-08_13-51-55_260595134347_rgbf000068-resize_3/000709_2014-06-08_13-51-55_260595134347_rgbf000068-resize_3-target.png,125,1.8030000000000002,7,3753,122,feet,jsons/VE125_randls_52.json,761175,978117,47,Woman
156,316861,DepthScenes,duration_manipulation_targetAtFixation,jsons/VE125_randls_52.json,http://54.235.29.9/FacialAge/BNav_EC2/DepthDuration/v2_depth_duration_MTurk/v2_DepthDuration_HTML.html#54,54,1600,781,1600,900,8-21-2022,9-36-0,157,depth_duration_stimuli/002570_2014-06-24_13-59-54_094959634447_rgbf000059-resize_0/002570_2014-06-24_13-59-54_094959634447_rgbf000059-resize_0-target.png,125,4.037,9,3360,129,feet,jsons/VE125_randls_52.json,761175,978117,47,Woman
157,316861,DepthScenes,duration_manipulation_targetAtFixation,jsons/VE125_randls_52.json,http://54.235.29.9/FacialAge/BNav_EC2/DepthDuration/v2_depth_duration_MTurk/v2_DepthDuration_HTML.html#54,54,1600,781,1600,900,8-21-2022,9-36-0,158,depth_duration_stimuli/002467_2014-06-28_20-38-07_260595134347_rgbf000026-resize_2/002467_2014-06-28_20-38-07_260595134347_rgbf000026-resize_2-target.png,125,4.742,10,3799,121,feet,jsons/VE125_randls_52.json,761175,978117,47,Woman
158,316861,DepthScenes,duration_manipulation_targetAtFixation,jsons/VE125_randls_52.json,http://54.235.29.9/FacialAge/BNav_EC2/DepthDuration/v2_depth_duration_MTurk/v2_DepthDuration_HTML.html#54,54,1600,781,1600,900,8-21-2022,9-36-0,159,depth_duration_stimuli/000682_2014-06-08_23-14-58_260595134347_rgbf000041-resize_5/000682_2014-06-08_23-14-58_260595134347_rgbf000041-resize_5-target.png,125,2.7239999999999998,8,3497,121,feet,jsons/VE125_randls_52.json,761175,978117,47,Woman
159,316861,DepthScenes,duration_manipulation_targetAtFixation,jsons/VE125_randls_52.json,http://54.235.29.9/FacialAge/BNav_EC2/DepthDuration/v2_depth_duration_MTurk/v2_DepthDuration_HTML.html#54,54,1600,781,1600,900,8-21-2022,9-36-0,160,depth_duration_stimuli/001650_2014-06-20_12-09-00_260595134347_rgbf000087-resize_3/001650_2014-06-20_12-09-00_260595134347_rgbf000087-resize_3-target.png,125,1.9505,3,3242,119,feet,jsons/VE125_randls_52.json,761175,978117,47,Woman
160,316861,DepthScenes,duration_manipulation_targetAtFixation,jsons/VE125_randls_52.json,http://54.235.29.9/FacialAge/BNav_EC2/DepthDuration/v2_depth_duration_MTurk/v2_DepthDuration_HTML.html#54,54,1600,781,1600,900,8-21-2022,9-36-0,161,depth_duration_stimuli/000642_2014-06-08_16-59-25_260595134347_rgbf000098-resize_2/000642_2014-06-08_16-59-25_260595134347_rgbf000098-resize_2-target.png,125,2.8815,7,3393,124,feet,jsons/VE125_randls_52.json,761175,978117,47,Woman
161,316861,DepthScenes,duration_manipulation_targetAtFixation,jsons/VE125_randls_52.json,http://54.235.29.9/FacialAge/BNav_EC2/DepthDuration/v2_depth_duration_MTurk/v2_DepthDuration_HTML.html#54,54,1600,781,1600,900,8-21-2022,9-36-0,162,depth_duration_stimuli/002425_2014-06-28_20-27-29_260595134347_rgbf000031-resize_8/002425_2014-06-28_20-27-29_260595134347_rgbf000031-resize_8-target.png,125,3.8960000000000004,12,3774,112,feet,jsons/VE125_randls_52.json,761175,978117,47,Woman
162,316861,DepthScenes,duration_manipulation_targetAtFixation,jsons/VE125_randls_52.json,http://54.235.29.9/FacialAge/BNav_EC2/DepthDuration/v2_depth_duration_MTurk/v2_DepthDuration_HTML.html#54,54,1600,781,1600,900,8-21-2022,9-36-0,163,depth_duration_stimuli/001244_2014-06-17_16-47-45_260595134347_rgbf000030-resize_4/001244_2014-06-17_16-47-45_260595134347_rgbf000030-resize_4-target.png,125,2.0425,9,3719,132,feet,jsons/VE125_randls_52.json,761175,978117,47,Woman
163,316861,DepthScenes,duration_manipulation_targetAtFixation,jsons/VE125_randls_52.json,http://54.235.29.9/FacialAge/BNav_EC2/DepthDuration/v2_depth_duration_MTurk/v2_DepthDuration_HTML.html#54,54,1600,781,1600,900,8-21-2022,9-36-0,164,depth_duration_stimuli/003495_2014-05-21_16-01-51_094959634447_rgbf000100-resize_3/003495_2014-05-21_16-01-51_094959634447_rgbf000100-resize_3-target.png,125,1.6255,2,3289,115,feet,jsons/VE125_randls_52.json,761175,978117,47,Woman
