,subjID,experimentName,versionName,sequenceName,url,selected_row,windowWidth,windowHeight,screenWidth,screenHeight,startDate,startTime,trial,stimulus,duration,actual_depth,depth_estimate,trial_RT,log_sceneDuration,unitSelection,seq_filepath,experimentTime,totalTime,age,gender
0,317199,DepthScenes,duration_manipulation_targetAtFixation,jsons/VE125_randls_55.json,http://54.235.29.9/FacialAge/BNav_EC2/DepthDuration/v2_depth_duration_MTurk/v2_DepthDuration_HTML.html#102,102,1366,625,1366,768,9-20-2022,12-25-31,1,depth_duration_stimuli/001167_2014-06-17_15-38-07_260595134347_rgbf000108-resize_0/001167_2014-06-17_15-38-07_260595134347_rgbf000108-resize_0-target.png,125,1.8505,3,3410,133,meters,jsons/VE125_randls_55.json,742047,1238126,29,Man
1,317199,DepthScenes,duration_manipulation_targetAtFixation,jsons/VE125_randls_55.json,http://54.235.29.9/FacialAge/BNav_EC2/DepthDuration/v2_depth_duration_MTurk/v2_DepthDuration_HTML.html#102,102,1366,625,1366,768,9-20-2022,12-25-31,2,depth_duration_stimuli/003587_2014-05-23_16-48-02_094959634447_rgbf002384-resize_2/003587_2014-05-23_16-48-02_094959634447_rgbf002384-resize_2-target.png,125,1.357,2,2384,119,meters,jsons/VE125_randls_55.json,742047,1238126,29,Man
2,317199,DepthScenes,duration_manipulation_targetAtFixation,jsons/VE125_randls_55.json,http://54.235.29.9/FacialAge/BNav_EC2/DepthDuration/v2_depth_duration_MTurk/v2_DepthDuration_HTML.html#102,102,1366,625,1366,768,9-20-2022,12-25-31,3,depth_duration_stimuli/000447_2014-06-08_16-15-46_260595134347_rgbf000130-resize_1/000447_2014-06-08_16-15-46_260595134347_rgbf000130-resize_1-target.png,125,4.479,3,2407,120,meters,jsons/VE125_randls_55.json,742047,1238126,29,Man
3,317199,DepthScenes,duration_manipulation_targetAtFixation,jsons/VE125_randls_55.json,http://54.235.29.9/FacialAge/BNav_EC2/DepthDuration/v2_depth_duration_MTurk/v2_DepthDuration_HTML.html#102,102,1366,625,1366,768,9-20-2022,12-25-31,4,depth_duration_stimuli/001447_2014-06-19_17-00-32_260595134347_rgbf000082-resize_5/001447_2014-06-19_17-00-32_260595134347_rgbf000082-resize_5-target.png,125,4.13775,3,2475,136,meters,jsons/VE125_randls_55.json,742047,1238126,29,Man
4,317199,DepthScenes,duration_manipulation_targetAtFixation,jsons/VE125_randls_55.json,http://54.235.29.9/FacialAge/BNav_EC2/DepthDuration/v2_depth_duration_MTurk/v2_DepthDuration_HTML.html#102,102,1366,625,1366,768,9-20-2022,12-25-31,5,depth_duration_stimuli/002375_2014-06-28_20-13-44_260595134347_rgbf000032-resize_1/002375_2014-06-28_20-13-44_260595134347_rgbf000032-resize_1-target.png,125,4.0175,2,3248,126,meters,jsons/VE125_randls_55.json,742047,1238126,29,Man
5,317199,DepthScenes,duration_manipulation_targetAtFixation,jsons/VE125_randls_55.json,http://54.235.29.9/FacialAge/BNav_EC2/DepthDuration/v2_depth_duration_MTurk/v2_DepthDuration_HTML.html#102,102,1366,625,1366,768,9-20-2022,12-25-31,6,depth_duration_stimuli/002657_2014-06-13_15-29-54_094959634447_rgbf000150-resize_1/002657_2014-06-13_15-29-54_094959634447_rgbf000150-resize_1-target.png,125,4.919,2,2521,125,meters,jsons/VE125_randls_55.json,742047,1238126,29,Man
6,317199,DepthScenes,duration_manipulation_targetAtFixation,jsons/VE125_randls_55.json,http://54.235.29.9/FacialAge/BNav_EC2/DepthDuration/v2_depth_duration_MTurk/v2_DepthDuration_HTML.html#102,102,1366,625,1366,768,9-20-2022,12-25-31,7,depth_duration_stimuli/002630_2014-06-24_14-47-50_094959634447_rgbf000055-resize_1/002630_2014-06-24_14-47-50_094959634447_rgbf000055-resize_1-target.png,125,3.0095,6,3037,131,meters,jsons/VE125_randls_55.json,742047,1238126,29,Man
7,317199,DepthScenes,duration_manipulation_targetAtFixation,jsons/VE125_randls_55.json,http://54.235.29.9/FacialAge/BNav_EC2/DepthDuration/v2_depth_duration_MTurk/v2_DepthDuration_HTML.html#102,102,1366,625,1366,768,9-20-2022,12-25-31,8,depth_duration_stimuli/002758_2014-06-22_19-11-20_094959634447_rgbf000128-resize_1/002758_2014-06-22_19-11-20_094959634447_rgbf000128-resize_1-target.png,125,2.555,4,2410,165,meters,jsons/VE125_randls_55.json,742047,1238126,29,Man
8,317199,DepthScenes,duration_manipulation_targetAtFixation,jsons/VE125_randls_55.json,http://54.235.29.9/FacialAge/BNav_EC2/DepthDuration/v2_depth_duration_MTurk/v2_DepthDuration_HTML.html#102,102,1366,625,1366,768,9-20-2022,12-25-31,9,depth_duration_stimuli/000810_2014-06-08_17-20-01_260595134347_rgbf000105-resize_0/000810_2014-06-08_17-20-01_260595134347_rgbf000105-resize_0-target.png,125,1.4865,3,2317,130,meters,jsons/VE125_randls_55.json,742047,1238126,29,Man
9,317199,DepthScenes,duration_manipulation_targetAtFixation,jsons/VE125_randls_55.json,http://54.235.29.9/FacialAge/BNav_EC2/DepthDuration/v2_depth_duration_MTurk/v2_DepthDuration_HTML.html#102,102,1366,625,1366,768,9-20-2022,12-25-31,10,depth_duration_stimuli/001214_2014-06-17_16-13-55_260595134347_rgbf000111-resize_0/001214_2014-06-17_16-13-55_260595134347_rgbf000111-resize_0-target.png,125,2.6505,4,2252,120,meters,jsons/VE125_randls_55.json,742047,1238126,29,Man
10,317199,DepthScenes,duration_manipulation_targetAtFixation,jsons/VE125_randls_55.json,http://54.235.29.9/FacialAge/BNav_EC2/DepthDuration/v2_depth_duration_MTurk/v2_DepthDuration_HTML.html#102,102,1366,625,1366,768,9-20-2022,12-25-31,11,depth_duration_stimuli/003534_2014-05-22_15-06-10_094959634447_rgbf000102-resize_4/003534_2014-05-22_15-06-10_094959634447_rgbf000102-resize_4-target.png,125,1.426,3,2428,132,meters,jsons/VE125_randls_55.json,742047,1238126,29,Man
11,317199,DepthScenes,duration_manipulation_targetAtFixation,jsons/VE125_randls_55.json,http://54.235.29.9/FacialAge/BNav_EC2/DepthDuration/v2_depth_duration_MTurk/v2_DepthDuration_HTML.html#102,102,1366,625,1366,768,9-20-2022,12-25-31,12,depth_duration_stimuli/002637_2014-06-24_14-51-13_094959634447_rgbf000066-resize_4/002637_2014-06-24_14-51-13_094959634447_rgbf000066-resize_4-target.png,125,1.9955,4,3185,128,meters,jsons/VE125_randls_55.json,742047,1238126,29,Man
12,317199,DepthScenes,duration_manipulation_targetAtFixation,jsons/VE125_randls_55.json,http://54.235.29.9/FacialAge/BNav_EC2/DepthDuration/v2_depth_duration_MTurk/v2_DepthDuration_HTML.html#102,102,1366,625,1366,768,9-20-2022,12-25-31,13,depth_duration_stimuli/000569_2014-06-09_22-51-47_260595134347_rgbf000141-resize_3/000569_2014-06-09_22-51-47_260595134347_rgbf000141-resize-original.jpg,125,4.512,3,2542,157,meters,jsons/VE125_randls_55.json,742047,1238126,29,Man
13,317199,DepthScenes,duration_manipulation_targetAtFixation,jsons/VE125_randls_55.json,http://54.235.29.9/FacialAge/BNav_EC2/DepthDuration/v2_depth_duration_MTurk/v2_DepthDuration_HTML.html#102,102,1366,625,1366,768,9-20-2022,12-25-31,14,depth_duration_stimuli/000436_2014-06-09_22-25-11_260595134347_rgbf000137-resize_1/000436_2014-06-09_22-25-11_260595134347_rgbf000137-resize_1-target.png,125,4.0705,4,8639,113,meters,jsons/VE125_randls_55.json,742047,1238126,29,Man
14,317199,DepthScenes,duration_manipulation_targetAtFixation,jsons/VE125_randls_55.json,http://54.235.29.9/FacialAge/BNav_EC2/DepthDuration/v2_depth_duration_MTurk/v2_DepthDuration_HTML.html#102,102,1366,625,1366,768,9-20-2022,12-25-31,15,depth_duration_stimuli/002444_2014-06-28_20-32-08_260595134347_rgbf000027-resize_0/002444_2014-06-28_20-32-08_260595134347_rgbf000027-resize_0-target.png,125,4.388999999999999,4,2595,72,meters,jsons/VE125_randls_55.json,742047,1238126,29,Man
15,317199,DepthScenes,duration_manipulation_targetAtFixation,jsons/VE125_randls_55.json,http://54.235.29.9/FacialAge/BNav_EC2/DepthDuration/v2_depth_duration_MTurk/v2_DepthDuration_HTML.html#102,102,1366,625,1366,768,9-20-2022,12-25-31,16,depth_duration_stimuli/002600_2014-06-24_14-27-04_094959634447_rgbf000074-resize_2/002600_2014-06-24_14-27-04_094959634447_rgbf000074-resize_2-target.png,125,2.7575,5,3066,136,meters,jsons/VE125_randls_55.json,742047,1238126,29,Man
16,317199,DepthScenes,duration_manipulation_targetAtFixation,jsons/VE125_randls_55.json,http://54.235.29.9/FacialAge/BNav_EC2/DepthDuration/v2_depth_duration_MTurk/v2_DepthDuration_HTML.html#102,102,1366,625,1366,768,9-20-2022,12-25-31,17,depth_duration_stimuli/003228_2014-05-14_13-42-35_094959634447_rgbf000101-resize_1/003228_2014-05-14_13-42-35_094959634447_rgbf000101-resize_1-target.png,125,1.9680000000000002,3,2200,128,meters,jsons/VE125_randls_55.json,742047,1238126,29,Man
17,317199,DepthScenes,duration_manipulation_targetAtFixation,jsons/VE125_randls_55.json,http://54.235.29.9/FacialAge/BNav_EC2/DepthDuration/v2_depth_duration_MTurk/v2_DepthDuration_HTML.html#102,102,1366,625,1366,768,9-20-2022,12-25-31,18,depth_duration_stimuli/000758_2014-06-08_22-05-08_260595134347_rgbf000085-resize_0/000758_2014-06-08_22-05-08_260595134347_rgbf000085-resize_0-target.png,125,3.3810000000000002,4,2408,126,meters,jsons/VE125_randls_55.json,742047,1238126,29,Man
18,317199,DepthScenes,duration_manipulation_targetAtFixation,jsons/VE125_randls_55.json,http://54.235.29.9/FacialAge/BNav_EC2/DepthDuration/v2_depth_duration_MTurk/v2_DepthDuration_HTML.html#102,102,1366,625,1366,768,9-20-2022,12-25-31,19,depth_duration_stimuli/000854_2014-06-09_19-43-13_260595134347_rgbf000066-resize_0/000854_2014-06-09_19-43-13_260595134347_rgbf000066-resize_0-target.png,125,3.068,4,5829,125,meters,jsons/VE125_randls_55.json,742047,1238126,29,Man
19,317199,DepthScenes,duration_manipulation_targetAtFixation,jsons/VE125_randls_55.json,http://54.235.29.9/FacialAge/BNav_EC2/DepthDuration/v2_depth_duration_MTurk/v2_DepthDuration_HTML.html#102,102,1366,625,1366,768,9-20-2022,12-25-31,20,depth_duration_stimuli/001199_2014-06-17_16-03-48_260595134347_rgbf000077-resize_0/001199_2014-06-17_16-03-48_260595134347_rgbf000077-resize_0-target.png,125,3.4375,3,2502,123,meters,jsons/VE125_randls_55.json,742047,1238126,29,Man
20,317199,DepthScenes,duration_manipulation_targetAtFixation,jsons/VE125_randls_55.json,http://54.235.29.9/FacialAge/BNav_EC2/DepthDuration/v2_depth_duration_MTurk/v2_DepthDuration_HTML.html#102,102,1366,625,1366,768,9-20-2022,12-25-31,21,depth_duration_stimuli/000502_2014-06-08_23-02-32_260595134347_rgbf000063-resize_4/000502_2014-06-08_23-02-32_260595134347_rgbf000063-resize_4-target.png,125,2.431,2,2299,145,meters,jsons/VE125_randls_55.json,742047,1238126,29,Man
21,317199,DepthScenes,duration_manipulation_targetAtFixation,jsons/VE125_randls_55.json,http://54.235.29.9/FacialAge/BNav_EC2/DepthDuration/v2_depth_duration_MTurk/v2_DepthDuration_HTML.html#102,102,1366,625,1366,768,9-20-2022,12-25-31,22,depth_duration_stimuli/000692_2014-06-08_13-09-42_260595134347_rgbf000199-resize_2/000692_2014-06-08_13-09-42_260595134347_rgbf000199-resize_2-target.png,125,3.661,3,3009,111,meters,jsons/VE125_randls_55.json,742047,1238126,29,Man
22,317199,DepthScenes,duration_manipulation_targetAtFixation,jsons/VE125_randls_55.json,http://54.235.29.9/FacialAge/BNav_EC2/DepthDuration/v2_depth_duration_MTurk/v2_DepthDuration_HTML.html#102,102,1366,625,1366,768,9-20-2022,12-25-31,23,depth_duration_stimuli/001094_2014-06-15_17-36-00_260595134347_rgbf000205-resize_0/001094_2014-06-15_17-36-00_260595134347_rgbf000205-resize_0-target.png,125,4.2175,3,2482,93,meters,jsons/VE125_randls_55.json,742047,1238126,29,Man
23,317199,DepthScenes,duration_manipulation_targetAtFixation,jsons/VE125_randls_55.json,http://54.235.29.9/FacialAge/BNav_EC2/DepthDuration/v2_depth_duration_MTurk/v2_DepthDuration_HTML.html#102,102,1366,625,1366,768,9-20-2022,12-25-31,24,depth_duration_stimuli/000917_2014-06-09_22-45-29_260595134347_rgbf000149-resize_3/000917_2014-06-09_22-45-29_260595134347_rgbf000149-resize_3-target.png,125,4.1865,4,2546,122,meters,jsons/VE125_randls_55.json,742047,1238126,29,Man
24,317199,DepthScenes,duration_manipulation_targetAtFixation,jsons/VE125_randls_55.json,http://54.235.29.9/FacialAge/BNav_EC2/DepthDuration/v2_depth_duration_MTurk/v2_DepthDuration_HTML.html#102,102,1366,625,1366,768,9-20-2022,12-25-31,25,depth_duration_stimuli/002323_2014-06-28_20-01-54_260595134347_rgbf000051-resize_4/002323_2014-06-28_20-01-54_260595134347_rgbf000051-resize_4-target.png,125,3.7310000000000003,3,2841,136,meters,jsons/VE125_randls_55.json,742047,1238126,29,Man
25,317199,DepthScenes,duration_manipulation_targetAtFixation,jsons/VE125_randls_55.json,http://54.235.29.9/FacialAge/BNav_EC2/DepthDuration/v2_depth_duration_MTurk/v2_DepthDuration_HTML.html#102,102,1366,625,1366,768,9-20-2022,12-25-31,26,depth_duration_stimuli/002509_2014-06-24_13-19-22_094959634447_rgbf000077-resize_0/002509_2014-06-24_13-19-22_094959634447_rgbf000077-resize_0-target.png,125,1.3065,3,18171,126,meters,jsons/VE125_randls_55.json,742047,1238126,29,Man
26,317199,DepthScenes,duration_manipulation_targetAtFixation,jsons/VE125_randls_55.json,http://54.235.29.9/FacialAge/BNav_EC2/DepthDuration/v2_depth_duration_MTurk/v2_DepthDuration_HTML.html#102,102,1366,625,1366,768,9-20-2022,12-25-31,27,depth_duration_stimuli/003338_2014-05-20_11-01-23_094959634447_rgbf000051-resize_6/003338_2014-05-20_11-01-23_094959634447_rgbf000051-resize_6-target.png,125,1.693,2,20676,123,meters,jsons/VE125_randls_55.json,742047,1238126,29,Man
27,317199,DepthScenes,duration_manipulation_targetAtFixation,jsons/VE125_randls_55.json,http://54.235.29.9/FacialAge/BNav_EC2/DepthDuration/v2_depth_duration_MTurk/v2_DepthDuration_HTML.html#102,102,1366,625,1366,768,9-20-2022,12-25-31,28,depth_duration_stimuli/002057_2014-06-24_21-00-13_260595134347_rgbf000120-resize_1/002057_2014-06-24_21-00-13_260595134347_rgbf000120-resize_1-target.png,125,2.967,3,2616,131,meters,jsons/VE125_randls_55.json,742047,1238126,29,Man
28,317199,DepthScenes,duration_manipulation_targetAtFixation,jsons/VE125_randls_55.json,http://54.235.29.9/FacialAge/BNav_EC2/DepthDuration/v2_depth_duration_MTurk/v2_DepthDuration_HTML.html#102,102,1366,625,1366,768,9-20-2022,12-25-31,29,depth_duration_stimuli/000709_2014-06-08_13-51-55_260595134347_rgbf000068-resize_3/000709_2014-06-08_13-51-55_260595134347_rgbf000068-resize_3-target.png,125,1.8030000000000002,3,2990,150,meters,jsons/VE125_randls_55.json,742047,1238126,29,Man
29,317199,DepthScenes,duration_manipulation_targetAtFixation,jsons/VE125_randls_55.json,http://54.235.29.9/FacialAge/BNav_EC2/DepthDuration/v2_depth_duration_MTurk/v2_DepthDuration_HTML.html#102,102,1366,625,1366,768,9-20-2022,12-25-31,30,depth_duration_stimuli/000375_2014-06-08_11-17-29_260595134347_rgbf000133-resize_2/000375_2014-06-08_11-17-29_260595134347_rgbf000133-resize-original.jpg,125,4.718,2,2335,119,meters,jsons/VE125_randls_55.json,742047,1238126,29,Man
30,317199,DepthScenes,duration_manipulation_targetAtFixation,jsons/VE125_randls_55.json,http://54.235.29.9/FacialAge/BNav_EC2/DepthDuration/v2_depth_duration_MTurk/v2_DepthDuration_HTML.html#102,102,1366,625,1366,768,9-20-2022,12-25-31,31,depth_duration_stimuli/000682_2014-06-08_23-14-58_260595134347_rgbf000041-resize_5/000682_2014-06-08_23-14-58_260595134347_rgbf000041-resize_5-target.png,125,2.7239999999999998,4,9841,123,meters,jsons/VE125_randls_55.json,742047,1238126,29,Man
31,317199,DepthScenes,duration_manipulation_targetAtFixation,jsons/VE125_randls_55.json,http://54.235.29.9/FacialAge/BNav_EC2/DepthDuration/v2_depth_duration_MTurk/v2_DepthDuration_HTML.html#102,102,1366,625,1366,768,9-20-2022,12-25-31,32,depth_duration_stimuli/001650_2014-06-20_12-09-00_260595134347_rgbf000087-resize_3/001650_2014-06-20_12-09-00_260595134347_rgbf000087-resize_3-target.png,125,1.9505,5,3383,111,meters,jsons/VE125_randls_55.json,742047,1238126,29,Man
32,317199,DepthScenes,duration_manipulation_targetAtFixation,jsons/VE125_randls_55.json,http://54.235.29.9/FacialAge/BNav_EC2/DepthDuration/v2_depth_duration_MTurk/v2_DepthDuration_HTML.html#102,102,1366,625,1366,768,9-20-2022,12-25-31,33,depth_duration_stimuli/001164_2014-06-17_15-35-46_260595134347_rgbf000085-resize_3/001164_2014-06-17_15-35-46_260595134347_rgbf000085-resize_3-target.png,125,2.354,3,2403,129,meters,jsons/VE125_randls_55.json,742047,1238126,29,Man
33,317199,DepthScenes,duration_manipulation_targetAtFixation,jsons/VE125_randls_55.json,http://54.235.29.9/FacialAge/BNav_EC2/DepthDuration/v2_depth_duration_MTurk/v2_DepthDuration_HTML.html#102,102,1366,625,1366,768,9-20-2022,12-25-31,34,depth_duration_stimuli/001136_2014-06-17_15-19-41_260595134347_rgbf000076-resize_3/001136_2014-06-17_15-19-41_260595134347_rgbf000076-resize_3-target.png,125,1.8655,2,2213,129,meters,jsons/VE125_randls_55.json,742047,1238126,29,Man
34,317199,DepthScenes,duration_manipulation_targetAtFixation,jsons/VE125_randls_55.json,http://54.235.29.9/FacialAge/BNav_EC2/DepthDuration/v2_depth_duration_MTurk/v2_DepthDuration_HTML.html#102,102,1366,625,1366,768,9-20-2022,12-25-31,35,depth_duration_stimuli/001808_2014-06-26_20-50-58_260595134347_rgbf000029-resize_1/001808_2014-06-26_20-50-58_260595134347_rgbf000029-resize_1-target.png,125,4.249,4,2380,126,meters,jsons/VE125_randls_55.json,742047,1238126,29,Man
35,317199,DepthScenes,duration_manipulation_targetAtFixation,jsons/VE125_randls_55.json,http://54.235.29.9/FacialAge/BNav_EC2/DepthDuration/v2_depth_duration_MTurk/v2_DepthDuration_HTML.html#102,102,1366,625,1366,768,9-20-2022,12-25-31,36,depth_duration_stimuli/001815_2014-06-26_20-52-55_260595134347_rgbf000020-resize_0/001815_2014-06-26_20-52-55_260595134347_rgbf000020-resize_0-target.png,125,3.3865,4,2184,126,meters,jsons/VE125_randls_55.json,742047,1238126,29,Man
36,317199,DepthScenes,duration_manipulation_targetAtFixation,jsons/VE125_randls_55.json,http://54.235.29.9/FacialAge/BNav_EC2/DepthDuration/v2_depth_duration_MTurk/v2_DepthDuration_HTML.html#102,102,1366,625,1366,768,9-20-2022,12-25-31,37,depth_duration_stimuli/001570_2014-06-20_17-21-09_260595134347_rgbf000135-resize_4/001570_2014-06-20_17-21-09_260595134347_rgbf000135-resize_4-target.png,125,4.467,4,6530,24,meters,jsons/VE125_randls_55.json,742047,1238126,29,Man
37,317199,DepthScenes,duration_manipulation_targetAtFixation,jsons/VE125_randls_55.json,http://54.235.29.9/FacialAge/BNav_EC2/DepthDuration/v2_depth_duration_MTurk/v2_DepthDuration_HTML.html#102,102,1366,625,1366,768,9-20-2022,12-25-31,38,depth_duration_stimuli/001392_2014-06-19_16-07-59_260595134347_rgbf000046-resize_1/001392_2014-06-19_16-07-59_260595134347_rgbf000046-resize_1-target.png,125,4.135,3,2323,133,meters,jsons/VE125_randls_55.json,742047,1238126,29,Man
38,317199,DepthScenes,duration_manipulation_targetAtFixation,jsons/VE125_randls_55.json,http://54.235.29.9/FacialAge/BNav_EC2/DepthDuration/v2_depth_duration_MTurk/v2_DepthDuration_HTML.html#102,102,1366,625,1366,768,9-20-2022,12-25-31,39,depth_duration_stimuli/001016_2014-06-09_16-16-10_260595134347_rgbf000112-resize_5/001016_2014-06-09_16-16-10_260595134347_rgbf000112-resize_5-target.png,125,1.6565,2,2817,114,meters,jsons/VE125_randls_55.json,742047,1238126,29,Man
39,317199,DepthScenes,duration_manipulation_targetAtFixation,jsons/VE125_randls_55.json,http://54.235.29.9/FacialAge/BNav_EC2/DepthDuration/v2_depth_duration_MTurk/v2_DepthDuration_HTML.html#102,102,1366,625,1366,768,9-20-2022,12-25-31,40,depth_duration_stimuli/002340_2014-06-28_20-05-46_260595134347_rgbf000113-resize_0/002340_2014-06-28_20-05-46_260595134347_rgbf000113-resize_0-target.png,125,2.4735,3,3238,120,meters,jsons/VE125_randls_55.json,742047,1238126,29,Man
40,317199,DepthScenes,duration_manipulation_targetAtFixation,jsons/VE125_randls_55.json,http://54.235.29.9/FacialAge/BNav_EC2/DepthDuration/v2_depth_duration_MTurk/v2_DepthDuration_HTML.html#102,102,1366,625,1366,768,9-20-2022,12-25-31,41,depth_duration_stimuli/002043_2014-06-24_20-29-38_260595134347_rgbf000039-resize_4/002043_2014-06-24_20-29-38_260595134347_rgbf000039-resize_4-target.png,125,2.8435,2,2372,122,meters,jsons/VE125_randls_55.json,742047,1238126,29,Man
41,317199,DepthScenes,duration_manipulation_targetAtFixation,jsons/VE125_randls_55.json,http://54.235.29.9/FacialAge/BNav_EC2/DepthDuration/v2_depth_duration_MTurk/v2_DepthDuration_HTML.html#102,102,1366,625,1366,768,9-20-2022,12-25-31,42,depth_duration_stimuli/003048_2014-06-15_13-49-43_094959634447_rgbf000150-resize_1/003048_2014-06-15_13-49-43_094959634447_rgbf000150-resize_1-target.png,125,4.0035,5,2403,135,meters,jsons/VE125_randls_55.json,742047,1238126,29,Man
42,317199,DepthScenes,duration_manipulation_targetAtFixation,jsons/VE125_randls_55.json,http://54.235.29.9/FacialAge/BNav_EC2/DepthDuration/v2_depth_duration_MTurk/v2_DepthDuration_HTML.html#102,102,1366,625,1366,768,9-20-2022,12-25-31,43,depth_duration_stimuli/000414_2014-06-04_19-49-13_260595134347_rgbf000044-resize_0/000414_2014-06-04_19-49-13_260595134347_rgbf000044-resize_0-target.png,125,4.329,3,10103,162,meters,jsons/VE125_randls_55.json,742047,1238126,29,Man
43,317199,DepthScenes,duration_manipulation_targetAtFixation,jsons/VE125_randls_55.json,http://54.235.29.9/FacialAge/BNav_EC2/DepthDuration/v2_depth_duration_MTurk/v2_DepthDuration_HTML.html#102,102,1366,625,1366,768,9-20-2022,12-25-31,44,depth_duration_stimuli/003129_2014-05-12_10-48-10_094959634447_rgbf000100-resize_0/003129_2014-05-12_10-48-10_094959634447_rgbf000100-resize_0-target.png,125,4.9305,3,23037,116,meters,jsons/VE125_randls_55.json,742047,1238126,29,Man
44,317199,DepthScenes,duration_manipulation_targetAtFixation,jsons/VE125_randls_55.json,http://54.235.29.9/FacialAge/BNav_EC2/DepthDuration/v2_depth_duration_MTurk/v2_DepthDuration_HTML.html#102,102,1366,625,1366,768,9-20-2022,12-25-31,45,depth_duration_stimuli/000787_2014-06-08_22-33-53_260595134347_rgbf000175-resize_1/000787_2014-06-08_22-33-53_260595134347_rgbf000175-resize-original.jpg,125,4.784,2,2167,33,meters,jsons/VE125_randls_55.json,742047,1238126,29,Man
45,317199,DepthScenes,duration_manipulation_targetAtFixation,jsons/VE125_randls_55.json,http://54.235.29.9/FacialAge/BNav_EC2/DepthDuration/v2_depth_duration_MTurk/v2_DepthDuration_HTML.html#102,102,1366,625,1366,768,9-20-2022,12-25-31,46,depth_duration_stimuli/002663_2014-06-13_15-50-26_094959634447_rgbf000075-resize_1/002663_2014-06-13_15-50-26_094959634447_rgbf000075-resize_1-target.png,125,4.7495,3,3007,128,meters,jsons/VE125_randls_55.json,742047,1238126,29,Man
46,317199,DepthScenes,duration_manipulation_targetAtFixation,jsons/VE125_randls_55.json,http://54.235.29.9/FacialAge/BNav_EC2/DepthDuration/v2_depth_duration_MTurk/v2_DepthDuration_HTML.html#102,102,1366,625,1366,768,9-20-2022,12-25-31,47,depth_duration_stimuli/000409_2014-06-04_19-23-33_260595134347_rgbf000067-resize_0/000409_2014-06-04_19-23-33_260595134347_rgbf000067-resize_0-target.png,125,3.7335,3,2632,111,meters,jsons/VE125_randls_55.json,742047,1238126,29,Man
47,317199,DepthScenes,duration_manipulation_targetAtFixation,jsons/VE125_randls_55.json,http://54.235.29.9/FacialAge/BNav_EC2/DepthDuration/v2_depth_duration_MTurk/v2_DepthDuration_HTML.html#102,102,1366,625,1366,768,9-20-2022,12-25-31,48,depth_duration_stimuli/001133_2014-06-17_14-49-16_260595134347_rgbf000100-resize_0/001133_2014-06-17_14-49-16_260595134347_rgbf000100-resize_0-target.png,125,4.2115,3,2570,128,meters,jsons/VE125_randls_55.json,742047,1238126,29,Man
48,317199,DepthScenes,duration_manipulation_targetAtFixation,jsons/VE125_randls_55.json,http://54.235.29.9/FacialAge/BNav_EC2/DepthDuration/v2_depth_duration_MTurk/v2_DepthDuration_HTML.html#102,102,1366,625,1366,768,9-20-2022,12-25-31,49,depth_duration_stimuli/001132_2014-06-17_14-48-54_260595134347_rgbf000100-resize_2/001132_2014-06-17_14-48-54_260595134347_rgbf000100-resize_2-target.png,125,3.753,3,3543,240,meters,jsons/VE125_randls_55.json,742047,1238126,29,Man
49,317199,DepthScenes,duration_manipulation_targetAtFixation,jsons/VE125_randls_55.json,http://54.235.29.9/FacialAge/BNav_EC2/DepthDuration/v2_depth_duration_MTurk/v2_DepthDuration_HTML.html#102,102,1366,625,1366,768,9-20-2022,12-25-31,50,depth_duration_stimuli/001066_2014-06-08_22-03-20_260595134347_rgbf000066-resize_4/001066_2014-06-08_22-03-20_260595134347_rgbf000066-resize_4-target.png,125,4.2330000000000005,3,2540,125,meters,jsons/VE125_randls_55.json,742047,1238126,29,Man
50,317199,DepthScenes,duration_manipulation_targetAtFixation,jsons/VE125_randls_55.json,http://54.235.29.9/FacialAge/BNav_EC2/DepthDuration/v2_depth_duration_MTurk/v2_DepthDuration_HTML.html#102,102,1366,625,1366,768,9-20-2022,12-25-31,51,depth_duration_stimuli/000742_2014-06-08_18-48-09_260595134347_rgbf000164-resize_4/000742_2014-06-08_18-48-09_260595134347_rgbf000164-resize_4-target.png,125,4.632,3,2149,61,meters,jsons/VE125_randls_55.json,742047,1238126,29,Man
51,317199,DepthScenes,duration_manipulation_targetAtFixation,jsons/VE125_randls_55.json,http://54.235.29.9/FacialAge/BNav_EC2/DepthDuration/v2_depth_duration_MTurk/v2_DepthDuration_HTML.html#102,102,1366,625,1366,768,9-20-2022,12-25-31,52,depth_duration_stimuli/001417_2014-06-19_16-25-36_260595134347_rgbf000115-resize_5/001417_2014-06-19_16-25-36_260595134347_rgbf000115-resize_5-target.png,125,4.6255,3,2675,125,meters,jsons/VE125_randls_55.json,742047,1238126,29,Man
52,317199,DepthScenes,duration_manipulation_targetAtFixation,jsons/VE125_randls_55.json,http://54.235.29.9/FacialAge/BNav_EC2/DepthDuration/v2_depth_duration_MTurk/v2_DepthDuration_HTML.html#102,102,1366,625,1366,768,9-20-2022,12-25-31,53,depth_duration_stimuli/003081_2014-06-15_15-19-16_094959634447_rgbf000150-resize_1/003081_2014-06-15_15-19-16_094959634447_rgbf000150-resize_1-target.png,125,3.9125,2,3093,124,meters,jsons/VE125_randls_55.json,742047,1238126,29,Man
53,317199,DepthScenes,duration_manipulation_targetAtFixation,jsons/VE125_randls_55.json,http://54.235.29.9/FacialAge/BNav_EC2/DepthDuration/v2_depth_duration_MTurk/v2_DepthDuration_HTML.html#102,102,1366,625,1366,768,9-20-2022,12-25-31,54,depth_duration_stimuli/001055_2014-06-08_18-45-35_260595134347_rgbf000111-resize_4/001055_2014-06-08_18-45-35_260595134347_rgbf000111-resize_4-target.png,125,2.4290000000000003,4,2872,132,meters,jsons/VE125_randls_55.json,742047,1238126,29,Man
54,317199,DepthScenes,duration_manipulation_targetAtFixation,jsons/VE125_randls_55.json,http://54.235.29.9/FacialAge/BNav_EC2/DepthDuration/v2_depth_duration_MTurk/v2_DepthDuration_HTML.html#102,102,1366,625,1366,768,9-20-2022,12-25-31,55,depth_duration_stimuli/000549_2014-06-08_22-10-24_260595134347_rgbf000247-resize_3/000549_2014-06-08_22-10-24_260595134347_rgbf000247-resize_3-target.png,125,1.841,2,2339,127,meters,jsons/VE125_randls_55.json,742047,1238126,29,Man
55,317199,DepthScenes,duration_manipulation_targetAtFixation,jsons/VE125_randls_55.json,http://54.235.29.9/FacialAge/BNav_EC2/DepthDuration/v2_depth_duration_MTurk/v2_DepthDuration_HTML.html#102,102,1366,625,1366,768,9-20-2022,12-25-31,56,depth_duration_stimuli/002748_2014-06-22_19-07-22_094959634447_rgbf000078-resize_1/002748_2014-06-22_19-07-22_094959634447_rgbf000078-resize_1-target.png,125,4.6705,2,3364,90,meters,jsons/VE125_randls_55.json,742047,1238126,29,Man
56,317199,DepthScenes,duration_manipulation_targetAtFixation,jsons/VE125_randls_55.json,http://54.235.29.9/FacialAge/BNav_EC2/DepthDuration/v2_depth_duration_MTurk/v2_DepthDuration_HTML.html#102,102,1366,625,1366,768,9-20-2022,12-25-31,57,depth_duration_stimuli/002995_2014-06-15_12-31-26_094959634447_rgbf000150-resize_1/002995_2014-06-15_12-31-26_094959634447_rgbf000150-resize_1-target.png,125,3.8360000000000003,3,2240,124,meters,jsons/VE125_randls_55.json,742047,1238126,29,Man
57,317199,DepthScenes,duration_manipulation_targetAtFixation,jsons/VE125_randls_55.json,http://54.235.29.9/FacialAge/BNav_EC2/DepthDuration/v2_depth_duration_MTurk/v2_DepthDuration_HTML.html#102,102,1366,625,1366,768,9-20-2022,12-25-31,58,depth_duration_stimuli/003492_2014-05-21_15-50-55_094959634447_rgbf000828-resize_1/003492_2014-05-21_15-50-55_094959634447_rgbf000828-resize_1-target.png,125,4.06875,2,7796,121,meters,jsons/VE125_randls_55.json,742047,1238126,29,Man
58,317199,DepthScenes,duration_manipulation_targetAtFixation,jsons/VE125_randls_55.json,http://54.235.29.9/FacialAge/BNav_EC2/DepthDuration/v2_depth_duration_MTurk/v2_DepthDuration_HTML.html#102,102,1366,625,1366,768,9-20-2022,12-25-31,59,depth_duration_stimuli/002568_2014-06-24_13-59-21_094959634447_rgbf000062-resize_4/002568_2014-06-24_13-59-21_094959634447_rgbf000062-resize_4-target.png,125,3.015,3,2727,123,meters,jsons/VE125_randls_55.json,742047,1238126,29,Man
59,317199,DepthScenes,duration_manipulation_targetAtFixation,jsons/VE125_randls_55.json,http://54.235.29.9/FacialAge/BNav_EC2/DepthDuration/v2_depth_duration_MTurk/v2_DepthDuration_HTML.html#102,102,1366,625,1366,768,9-20-2022,12-25-31,60,depth_duration_stimuli/000486_2014-06-09_20-47-20_260595134347_rgbf000143-resize_2/000486_2014-06-09_20-47-20_260595134347_rgbf000143-resize_2-target.png,125,4.8325,3,3498,0,meters,jsons/VE125_randls_55.json,742047,1238126,29,Man
60,317199,DepthScenes,duration_manipulation_targetAtFixation,jsons/VE125_randls_55.json,http://54.235.29.9/FacialAge/BNav_EC2/DepthDuration/v2_depth_duration_MTurk/v2_DepthDuration_HTML.html#102,102,1366,625,1366,768,9-20-2022,12-25-31,61,depth_duration_stimuli/003083_2014-06-15_15-21-03_094959634447_rgbf000063-resize_1/003083_2014-06-15_15-21-03_094959634447_rgbf000063-resize_1-target.png,125,4.1405,2,2962,120,meters,jsons/VE125_randls_55.json,742047,1238126,29,Man
61,317199,DepthScenes,duration_manipulation_targetAtFixation,jsons/VE125_randls_55.json,http://54.235.29.9/FacialAge/BNav_EC2/DepthDuration/v2_depth_duration_MTurk/v2_DepthDuration_HTML.html#102,102,1366,625,1366,768,9-20-2022,12-25-31,62,depth_duration_stimuli/001555_2014-06-20_17-12-10_260595134347_rgbf000065-resize_4/001555_2014-06-20_17-12-10_260595134347_rgbf000065-resize_4-target.png,125,1.633,3,2089,93,meters,jsons/VE125_randls_55.json,742047,1238126,29,Man
62,317199,DepthScenes,duration_manipulation_targetAtFixation,jsons/VE125_randls_55.json,http://54.235.29.9/FacialAge/BNav_EC2/DepthDuration/v2_depth_duration_MTurk/v2_DepthDuration_HTML.html#102,102,1366,625,1366,768,9-20-2022,12-25-31,63,depth_duration_stimuli/000103_2014-05-14_22-01-17_260595134347_rgbf000152-resize_5/000103_2014-05-14_22-01-17_260595134347_rgbf000152-resize_5-target.png,125,1.993,2,2156,118,meters,jsons/VE125_randls_55.json,742047,1238126,29,Man
63,317199,DepthScenes,duration_manipulation_targetAtFixation,jsons/VE125_randls_55.json,http://54.235.29.9/FacialAge/BNav_EC2/DepthDuration/v2_depth_duration_MTurk/v2_DepthDuration_HTML.html#102,102,1366,625,1366,768,9-20-2022,12-25-31,64,depth_duration_stimuli/001175_2014-06-17_15-45-55_260595134347_rgbf000129-resize_4/001175_2014-06-17_15-45-55_260595134347_rgbf000129-resize_4-target.png,125,4.255,3,2164,140,meters,jsons/VE125_randls_55.json,742047,1238126,29,Man
64,317199,DepthScenes,duration_manipulation_targetAtFixation,jsons/VE125_randls_55.json,http://54.235.29.9/FacialAge/BNav_EC2/DepthDuration/v2_depth_duration_MTurk/v2_DepthDuration_HTML.html#102,102,1366,625,1366,768,9-20-2022,12-25-31,65,depth_duration_stimuli/003490_2014-05-21_15-50-11_094959634447_rgbf000101-resize_3/003490_2014-05-21_15-50-11_094959634447_rgbf000101-resize_3-target.png,125,3.6445,2,2451,125,meters,jsons/VE125_randls_55.json,742047,1238126,29,Man
65,317199,DepthScenes,duration_manipulation_targetAtFixation,jsons/VE125_randls_55.json,http://54.235.29.9/FacialAge/BNav_EC2/DepthDuration/v2_depth_duration_MTurk/v2_DepthDuration_HTML.html#102,102,1366,625,1366,768,9-20-2022,12-25-31,66,depth_duration_stimuli/001222_2014-06-17_16-24-06_260595134347_rgbf000073-resize_0/001222_2014-06-17_16-24-06_260595134347_rgbf000073-resize-original.jpg,125,1.4385,3,2586,124,meters,jsons/VE125_randls_55.json,742047,1238126,29,Man
66,317199,DepthScenes,duration_manipulation_targetAtFixation,jsons/VE125_randls_55.json,http://54.235.29.9/FacialAge/BNav_EC2/DepthDuration/v2_depth_duration_MTurk/v2_DepthDuration_HTML.html#102,102,1366,625,1366,768,9-20-2022,12-25-31,67,depth_duration_stimuli/002445_2014-06-28_20-32-16_260595134347_rgbf000029-resize_4/002445_2014-06-28_20-32-16_260595134347_rgbf000029-resize_4-target.png,125,2.5315,2,2420,163,meters,jsons/VE125_randls_55.json,742047,1238126,29,Man
67,317199,DepthScenes,duration_manipulation_targetAtFixation,jsons/VE125_randls_55.json,http://54.235.29.9/FacialAge/BNav_EC2/DepthDuration/v2_depth_duration_MTurk/v2_DepthDuration_HTML.html#102,102,1366,625,1366,768,9-20-2022,12-25-31,68,depth_duration_stimuli/000780_2014-06-08_22-28-29_260595134347_rgbf000126-resize_1/000780_2014-06-08_22-28-29_260595134347_rgbf000126-resize_1-target.png,125,3.3825,3,3658,123,meters,jsons/VE125_randls_55.json,742047,1238126,29,Man
68,317199,DepthScenes,duration_manipulation_targetAtFixation,jsons/VE125_randls_55.json,http://54.235.29.9/FacialAge/BNav_EC2/DepthDuration/v2_depth_duration_MTurk/v2_DepthDuration_HTML.html#102,102,1366,625,1366,768,9-20-2022,12-25-31,69,depth_duration_stimuli/001244_2014-06-17_16-47-45_260595134347_rgbf000030-resize_4/001244_2014-06-17_16-47-45_260595134347_rgbf000030-resize_4-target.png,125,2.0425,2,2764,0,meters,jsons/VE125_randls_55.json,742047,1238126,29,Man
69,317199,DepthScenes,duration_manipulation_targetAtFixation,jsons/VE125_randls_55.json,http://54.235.29.9/FacialAge/BNav_EC2/DepthDuration/v2_depth_duration_MTurk/v2_DepthDuration_HTML.html#102,102,1366,625,1366,768,9-20-2022,12-25-31,70,depth_duration_stimuli/003495_2014-05-21_16-01-51_094959634447_rgbf000100-resize_3/003495_2014-05-21_16-01-51_094959634447_rgbf000100-resize_3-target.png,125,1.6255,3,2569,123,meters,jsons/VE125_randls_55.json,742047,1238126,29,Man
70,317199,DepthScenes,duration_manipulation_targetAtFixation,jsons/VE125_randls_55.json,http://54.235.29.9/FacialAge/BNav_EC2/DepthDuration/v2_depth_duration_MTurk/v2_DepthDuration_HTML.html#102,102,1366,625,1366,768,9-20-2022,12-25-31,71,depth_duration_stimuli/002272_2014-06-28_18-53-56_260595134347_rgbf000067-resize_2/002272_2014-06-28_18-53-56_260595134347_rgbf000067-resize_2-target.png,125,1.138,3,2060,129,meters,jsons/VE125_randls_55.json,742047,1238126,29,Man
71,317199,DepthScenes,duration_manipulation_targetAtFixation,jsons/VE125_randls_55.json,http://54.235.29.9/FacialAge/BNav_EC2/DepthDuration/v2_depth_duration_MTurk/v2_DepthDuration_HTML.html#102,102,1366,625,1366,768,9-20-2022,12-25-31,72,depth_duration_stimuli/001571_2014-06-20_17-21-32_260595134347_rgbf000089-resize_1/001571_2014-06-20_17-21-32_260595134347_rgbf000089-resize_1-target.png,125,1.86,2,2237,125,meters,jsons/VE125_randls_55.json,742047,1238126,29,Man
72,317199,DepthScenes,duration_manipulation_targetAtFixation,jsons/VE125_randls_55.json,http://54.235.29.9/FacialAge/BNav_EC2/DepthDuration/v2_depth_duration_MTurk/v2_DepthDuration_HTML.html#102,102,1366,625,1366,768,9-20-2022,12-25-31,73,depth_duration_stimuli/000493_2014-06-09_21-01-18_260595134347_rgbf000196-resize_3/000493_2014-06-09_21-01-18_260595134347_rgbf000196-resize_3-target.png,125,3.44,3,3130,119,meters,jsons/VE125_randls_55.json,742047,1238126,29,Man
73,317199,DepthScenes,duration_manipulation_targetAtFixation,jsons/VE125_randls_55.json,http://54.235.29.9/FacialAge/BNav_EC2/DepthDuration/v2_depth_duration_MTurk/v2_DepthDuration_HTML.html#102,102,1366,625,1366,768,9-20-2022,12-25-31,74,depth_duration_stimuli/000191_2014-05-12_17-07-38_260595134347_rgbf000199-resize_0/000191_2014-05-12_17-07-38_260595134347_rgbf000199-resize_0-target.png,125,3.7995,2,2021,123,meters,jsons/VE125_randls_55.json,742047,1238126,29,Man
74,317199,DepthScenes,duration_manipulation_targetAtFixation,jsons/VE125_randls_55.json,http://54.235.29.9/FacialAge/BNav_EC2/DepthDuration/v2_depth_duration_MTurk/v2_DepthDuration_HTML.html#102,102,1366,625,1366,768,9-20-2022,12-25-31,75,depth_duration_stimuli/002788_2014-06-22_19-36-03_094959634447_rgbf000088-resize_2/002788_2014-06-22_19-36-03_094959634447_rgbf000088-resize_2-target.png,125,1.6465,3,1886,101,meters,jsons/VE125_randls_55.json,742047,1238126,29,Man
75,317199,DepthScenes,duration_manipulation_targetAtFixation,jsons/VE125_randls_55.json,http://54.235.29.9/FacialAge/BNav_EC2/DepthDuration/v2_depth_duration_MTurk/v2_DepthDuration_HTML.html#102,102,1366,625,1366,768,9-20-2022,12-25-31,76,depth_duration_stimuli/000749_2014-06-08_21-55-06_260595134347_rgbf000070-resize_2/000749_2014-06-08_21-55-06_260595134347_rgbf000070-resize_2-target.png,125,2.331,2,1894,125,meters,jsons/VE125_randls_55.json,742047,1238126,29,Man
76,317199,DepthScenes,duration_manipulation_targetAtFixation,jsons/VE125_randls_55.json,http://54.235.29.9/FacialAge/BNav_EC2/DepthDuration/v2_depth_duration_MTurk/v2_DepthDuration_HTML.html#102,102,1366,625,1366,768,9-20-2022,12-25-31,77,depth_duration_stimuli/000009_2014-05-26_14-32-05_260595134347_rgbf000034-resize_3/000009_2014-05-26_14-32-05_260595134347_rgbf000034-resize_3-target.png,125,3.8715,3,2108,125,meters,jsons/VE125_randls_55.json,742047,1238126,29,Man
77,317199,DepthScenes,duration_manipulation_targetAtFixation,jsons/VE125_randls_55.json,http://54.235.29.9/FacialAge/BNav_EC2/DepthDuration/v2_depth_duration_MTurk/v2_DepthDuration_HTML.html#102,102,1366,625,1366,768,9-20-2022,12-25-31,78,depth_duration_stimuli/001828_2014-06-26_21-40-03_260595134347_rgbf000024-resize_0/001828_2014-06-26_21-40-03_260595134347_rgbf000024-resize_0-target.png,125,4.8260000000000005,2,1857,128,meters,jsons/VE125_randls_55.json,742047,1238126,29,Man
78,317199,DepthScenes,duration_manipulation_targetAtFixation,jsons/VE125_randls_55.json,http://54.235.29.9/FacialAge/BNav_EC2/DepthDuration/v2_depth_duration_MTurk/v2_DepthDuration_HTML.html#102,102,1366,625,1366,768,9-20-2022,12-25-31,79,depth_duration_stimuli/003292_2014-05-14_21-53-49_094959634447_rgbf000100-resize_2/003292_2014-05-14_21-53-49_094959634447_rgbf000100-resize_2-target.png,125,3.4815,3,2159,115,meters,jsons/VE125_randls_55.json,742047,1238126,29,Man
79,317199,DepthScenes,duration_manipulation_targetAtFixation,jsons/VE125_randls_55.json,http://54.235.29.9/FacialAge/BNav_EC2/DepthDuration/v2_depth_duration_MTurk/v2_DepthDuration_HTML.html#102,102,1366,625,1366,768,9-20-2022,12-25-31,80,depth_duration_stimuli/002639_2014-06-24_14-51-37_094959634447_rgbf000074-resize_4/002639_2014-06-24_14-51-37_094959634447_rgbf000074-resize_4-target.png,125,4.0375,2,1848,125,meters,jsons/VE125_randls_55.json,742047,1238126,29,Man
80,317199,DepthScenes,duration_manipulation_targetAtFixation,jsons/VE125_randls_55.json,http://54.235.29.9/FacialAge/BNav_EC2/DepthDuration/v2_depth_duration_MTurk/v2_DepthDuration_HTML.html#102,102,1366,625,1366,768,9-20-2022,12-25-31,81,depth_duration_stimuli/002964_2014-06-08_17-46-11_094959634447_rgbf000091-resize_4/002964_2014-06-08_17-46-11_094959634447_rgbf000091-resize_4-target.png,125,1.6909999999999998,2,1957,137,meters,jsons/VE125_randls_55.json,742047,1238126,29,Man
81,317199,DepthScenes,duration_manipulation_targetAtFixation,jsons/VE125_randls_55.json,http://54.235.29.9/FacialAge/BNav_EC2/DepthDuration/v2_depth_duration_MTurk/v2_DepthDuration_HTML.html#102,102,1366,625,1366,768,9-20-2022,12-25-31,82,depth_duration_stimuli/002136_2014-06-25_21-18-03_260595134347_rgbf000109-resize_3/002136_2014-06-25_21-18-03_260595134347_rgbf000109-resize_3-target.png,125,1.9569999999999999,2,1748,120,meters,jsons/VE125_randls_55.json,742047,1238126,29,Man
82,317199,DepthScenes,duration_manipulation_targetAtFixation,jsons/VE125_randls_55.json,http://54.235.29.9/FacialAge/BNav_EC2/DepthDuration/v2_depth_duration_MTurk/v2_DepthDuration_HTML.html#102,102,1366,625,1366,768,9-20-2022,12-25-31,83,depth_duration_stimuli/002549_2014-06-24_13-41-39_094959634447_rgbf000022-resize_3/002549_2014-06-24_13-41-39_094959634447_rgbf000022-resize_3-target.png,125,1.476,3,2240,137,meters,jsons/VE125_randls_55.json,742047,1238126,29,Man
83,317199,DepthScenes,duration_manipulation_targetAtFixation,jsons/VE125_randls_55.json,http://54.235.29.9/FacialAge/BNav_EC2/DepthDuration/v2_depth_duration_MTurk/v2_DepthDuration_HTML.html#102,102,1366,625,1366,768,9-20-2022,12-25-31,84,depth_duration_stimuli/002750_2014-06-22_19-08-03_094959634447_rgbf000094-resize_4/002750_2014-06-22_19-08-03_094959634447_rgbf000094-resize_4-target.png,125,2.354,2,2538,671,meters,jsons/VE125_randls_55.json,742047,1238126,29,Man
84,317199,DepthScenes,duration_manipulation_targetAtFixation,jsons/VE125_randls_55.json,http://54.235.29.9/FacialAge/BNav_EC2/DepthDuration/v2_depth_duration_MTurk/v2_DepthDuration_HTML.html#102,102,1366,625,1366,768,9-20-2022,12-25-31,85,depth_duration_stimuli/000736_2014-06-08_18-24-15_260595134347_rgbf000206-resize_3/000736_2014-06-08_18-24-15_260595134347_rgbf000206-resize_3-target.png,125,3.515,3,3167,128,meters,jsons/VE125_randls_55.json,742047,1238126,29,Man
85,317199,DepthScenes,duration_manipulation_targetAtFixation,jsons/VE125_randls_55.json,http://54.235.29.9/FacialAge/BNav_EC2/DepthDuration/v2_depth_duration_MTurk/v2_DepthDuration_HTML.html#102,102,1366,625,1366,768,9-20-2022,12-25-31,86,depth_duration_stimuli/000137_2014-05-20_17-04-49_260595134347_rgbf000120-resize_1/000137_2014-05-20_17-04-49_260595134347_rgbf000120-resize_1-target.png,125,3.786,2,2322,162,meters,jsons/VE125_randls_55.json,742047,1238126,29,Man
86,317199,DepthScenes,duration_manipulation_targetAtFixation,jsons/VE125_randls_55.json,http://54.235.29.9/FacialAge/BNav_EC2/DepthDuration/v2_depth_duration_MTurk/v2_DepthDuration_HTML.html#102,102,1366,625,1366,768,9-20-2022,12-25-31,87,depth_duration_stimuli/001110_2014-06-15_17-25-28_260595134347_rgbf000150-resize_1/001110_2014-06-15_17-25-28_260595134347_rgbf000150-resize_1-target.png,125,1.7115,3,1666,1,meters,jsons/VE125_randls_55.json,742047,1238126,29,Man
87,317199,DepthScenes,duration_manipulation_targetAtFixation,jsons/VE125_randls_55.json,http://54.235.29.9/FacialAge/BNav_EC2/DepthDuration/v2_depth_duration_MTurk/v2_DepthDuration_HTML.html#102,102,1366,625,1366,768,9-20-2022,12-25-31,88,depth_duration_stimuli/000927_2014-06-09_16-32-30_260595134347_rgbf000123-resize_3/000927_2014-06-09_16-32-30_260595134347_rgbf000123-resize_3-target.png,125,2.6785,2,1800,124,meters,jsons/VE125_randls_55.json,742047,1238126,29,Man
88,317199,DepthScenes,duration_manipulation_targetAtFixation,jsons/VE125_randls_55.json,http://54.235.29.9/FacialAge/BNav_EC2/DepthDuration/v2_depth_duration_MTurk/v2_DepthDuration_HTML.html#102,102,1366,625,1366,768,9-20-2022,12-25-31,89,depth_duration_stimuli/000739_2014-06-08_18-45-58_260595134347_rgbf000068-resize_1/000739_2014-06-08_18-45-58_260595134347_rgbf000068-resize_1-target.png,125,3.534,3,2428,185,meters,jsons/VE125_randls_55.json,742047,1238126,29,Man
89,317199,DepthScenes,duration_manipulation_targetAtFixation,jsons/VE125_randls_55.json,http://54.235.29.9/FacialAge/BNav_EC2/DepthDuration/v2_depth_duration_MTurk/v2_DepthDuration_HTML.html#102,102,1366,625,1366,768,9-20-2022,12-25-31,90,depth_duration_stimuli/000734_2014-06-08_17-39-11_260595134347_rgbf000128-resize_2/000734_2014-06-08_17-39-11_260595134347_rgbf000128-resize_2-target.png,125,4.098,2,2021,114,meters,jsons/VE125_randls_55.json,742047,1238126,29,Man
90,317199,DepthScenes,duration_manipulation_targetAtFixation,jsons/VE125_randls_55.json,http://54.235.29.9/FacialAge/BNav_EC2/DepthDuration/v2_depth_duration_MTurk/v2_DepthDuration_HTML.html#102,102,1366,625,1366,768,9-20-2022,12-25-31,91,depth_duration_stimuli/001092_2014-06-15_17-34-58_260595134347_rgbf000171-resize_3/001092_2014-06-15_17-34-58_260595134347_rgbf000171-resize_3-target.png,125,2.6935,3,2074,0,meters,jsons/VE125_randls_55.json,742047,1238126,29,Man
91,317199,DepthScenes,duration_manipulation_targetAtFixation,jsons/VE125_randls_55.json,http://54.235.29.9/FacialAge/BNav_EC2/DepthDuration/v2_depth_duration_MTurk/v2_DepthDuration_HTML.html#102,102,1366,625,1366,768,9-20-2022,12-25-31,92,depth_duration_stimuli/002545_2014-06-24_13-38-53_094959634447_rgbf000080-resize_4/002545_2014-06-24_13-38-53_094959634447_rgbf000080-resize_4-target.png,125,1.9205,2,2687,125,meters,jsons/VE125_randls_55.json,742047,1238126,29,Man
92,317199,DepthScenes,duration_manipulation_targetAtFixation,jsons/VE125_randls_55.json,http://54.235.29.9/FacialAge/BNav_EC2/DepthDuration/v2_depth_duration_MTurk/v2_DepthDuration_HTML.html#102,102,1366,625,1366,768,9-20-2022,12-25-31,93,depth_duration_stimuli/001449_2014-06-19_17-01-27_260595134347_rgbf000116-resize_2/001449_2014-06-19_17-01-27_260595134347_rgbf000116-resize_2-target.png,125,3.452,3,8498,119,meters,jsons/VE125_randls_55.json,742047,1238126,29,Man
93,317199,DepthScenes,duration_manipulation_targetAtFixation,jsons/VE125_randls_55.json,http://54.235.29.9/FacialAge/BNav_EC2/DepthDuration/v2_depth_duration_MTurk/v2_DepthDuration_HTML.html#102,102,1366,625,1366,768,9-20-2022,12-25-31,94,depth_duration_stimuli/001450_2014-06-19_17-02-03_260595134347_rgbf000203-resize_4/001450_2014-06-19_17-02-03_260595134347_rgbf000203-resize_4-target.png,125,4.0106666666667,4,4808,116,meters,jsons/VE125_randls_55.json,742047,1238126,29,Man
94,317199,DepthScenes,duration_manipulation_targetAtFixation,jsons/VE125_randls_55.json,http://54.235.29.9/FacialAge/BNav_EC2/DepthDuration/v2_depth_duration_MTurk/v2_DepthDuration_HTML.html#102,102,1366,625,1366,768,9-20-2022,12-25-31,95,depth_duration_stimuli/001150_2014-06-17_15-27-34_260595134347_rgbf000108-resize_2/001150_2014-06-17_15-27-34_260595134347_rgbf000108-resize_2-target.png,125,4.0325,4,3379,122,meters,jsons/VE125_randls_55.json,742047,1238126,29,Man
95,317199,DepthScenes,duration_manipulation_targetAtFixation,jsons/VE125_randls_55.json,http://54.235.29.9/FacialAge/BNav_EC2/DepthDuration/v2_depth_duration_MTurk/v2_DepthDuration_HTML.html#102,102,1366,625,1366,768,9-20-2022,12-25-31,96,depth_duration_stimuli/000665_2014-06-09_20-42-35_260595134347_rgbf000110-resize_1/000665_2014-06-09_20-42-35_260595134347_rgbf000110-resize_1-target.png,125,3.057,3,4011,124,meters,jsons/VE125_randls_55.json,742047,1238126,29,Man
96,317199,DepthScenes,duration_manipulation_targetAtFixation,jsons/VE125_randls_55.json,http://54.235.29.9/FacialAge/BNav_EC2/DepthDuration/v2_depth_duration_MTurk/v2_DepthDuration_HTML.html#102,102,1366,625,1366,768,9-20-2022,12-25-31,97,depth_duration_stimuli/000906_2014-06-08_13-35-43_260595134347_rgbf000155-resize_1/000906_2014-06-08_13-35-43_260595134347_rgbf000155-resize_1-target.png,125,2.8489999999999998,4,19786,126,meters,jsons/VE125_randls_55.json,742047,1238126,29,Man
97,317199,DepthScenes,duration_manipulation_targetAtFixation,jsons/VE125_randls_55.json,http://54.235.29.9/FacialAge/BNav_EC2/DepthDuration/v2_depth_duration_MTurk/v2_DepthDuration_HTML.html#102,102,1366,625,1366,768,9-20-2022,12-25-31,98,depth_duration_stimuli/002805_2014-06-22_19-54-03_094959634447_rgbf000079-resize_1/002805_2014-06-22_19-54-03_094959634447_rgbf000079-resize_1-target.png,125,3.1439999999999997,4,14795,127,meters,jsons/VE125_randls_55.json,742047,1238126,29,Man
98,317199,DepthScenes,duration_manipulation_targetAtFixation,jsons/VE125_randls_55.json,http://54.235.29.9/FacialAge/BNav_EC2/DepthDuration/v2_depth_duration_MTurk/v2_DepthDuration_HTML.html#102,102,1366,625,1366,768,9-20-2022,12-25-31,99,depth_duration_stimuli/001540_2014-06-20_17-01-05_260595134347_rgbf000086-resize_2/001540_2014-06-20_17-01-05_260595134347_rgbf000086-resize-original.jpg,125,1.459,3,2347,124,meters,jsons/VE125_randls_55.json,742047,1238126,29,Man
99,317199,DepthScenes,duration_manipulation_targetAtFixation,jsons/VE125_randls_55.json,http://54.235.29.9/FacialAge/BNav_EC2/DepthDuration/v2_depth_duration_MTurk/v2_DepthDuration_HTML.html#102,102,1366,625,1366,768,9-20-2022,12-25-31,100,depth_duration_stimuli/000469_2014-06-09_19-42-10_260595134347_rgbf000081-resize_1/000469_2014-06-09_19-42-10_260595134347_rgbf000081-resize_1-target.png,125,1.652,3,8701,2,meters,jsons/VE125_randls_55.json,742047,1238126,29,Man
100,317199,DepthScenes,duration_manipulation_targetAtFixation,jsons/VE125_randls_55.json,http://54.235.29.9/FacialAge/BNav_EC2/DepthDuration/v2_depth_duration_MTurk/v2_DepthDuration_HTML.html#102,102,1366,625,1366,768,9-20-2022,12-25-31,101,depth_duration_stimuli/000483_2014-06-09_20-41-45_260595134347_rgbf000116-resize_4/000483_2014-06-09_20-41-45_260595134347_rgbf000116-resize_4-target.png,125,1.337,2,1892,126,meters,jsons/VE125_randls_55.json,742047,1238126,29,Man
101,317199,DepthScenes,duration_manipulation_targetAtFixation,jsons/VE125_randls_55.json,http://54.235.29.9/FacialAge/BNav_EC2/DepthDuration/v2_depth_duration_MTurk/v2_DepthDuration_HTML.html#102,102,1366,625,1366,768,9-20-2022,12-25-31,102,depth_duration_stimuli/002118_2014-06-25_20-32-08_260595134347_rgbf000078-resize_1/002118_2014-06-25_20-32-08_260595134347_rgbf000078-resize_1-target.png,125,2.6460000000000004,3,7538,125,meters,jsons/VE125_randls_55.json,742047,1238126,29,Man
102,317199,DepthScenes,duration_manipulation_targetAtFixation,jsons/VE125_randls_55.json,http://54.235.29.9/FacialAge/BNav_EC2/DepthDuration/v2_depth_duration_MTurk/v2_DepthDuration_HTML.html#102,102,1366,625,1366,768,9-20-2022,12-25-31,103,depth_duration_stimuli/001516_2014-06-20_16-25-09_260595134347_rgbf000076-resize_2/001516_2014-06-20_16-25-09_260595134347_rgbf000076-resize_2-target.png,125,1.7445,3,5461,121,meters,jsons/VE125_randls_55.json,742047,1238126,29,Man
103,317199,DepthScenes,duration_manipulation_targetAtFixation,jsons/VE125_randls_55.json,http://54.235.29.9/FacialAge/BNav_EC2/DepthDuration/v2_depth_duration_MTurk/v2_DepthDuration_HTML.html#102,102,1366,625,1366,768,9-20-2022,12-25-31,104,depth_duration_stimuli/000773_2014-06-08_22-24-54_260595134347_rgbf000093-resize_1/000773_2014-06-08_22-24-54_260595134347_rgbf000093-resize_1-target.png,125,4.973,3,2837,131,meters,jsons/VE125_randls_55.json,742047,1238126,29,Man
104,317199,DepthScenes,duration_manipulation_targetAtFixation,jsons/VE125_randls_55.json,http://54.235.29.9/FacialAge/BNav_EC2/DepthDuration/v2_depth_duration_MTurk/v2_DepthDuration_HTML.html#102,102,1366,625,1366,768,9-20-2022,12-25-31,105,depth_duration_stimuli/002414_2014-06-28_20-24-58_260595134347_rgbf000067-resize_4/002414_2014-06-28_20-24-58_260595134347_rgbf000067-resize_4-target.png,125,4.363,2,2639,125,meters,jsons/VE125_randls_55.json,742047,1238126,29,Man
105,317199,DepthScenes,duration_manipulation_targetAtFixation,jsons/VE125_randls_55.json,http://54.235.29.9/FacialAge/BNav_EC2/DepthDuration/v2_depth_duration_MTurk/v2_DepthDuration_HTML.html#102,102,1366,625,1366,768,9-20-2022,12-25-31,106,depth_duration_stimuli/002725_2014-06-22_11-47-51_094959634447_rgbf000070-resize_1/002725_2014-06-22_11-47-51_094959634447_rgbf000070-resize_1-target.png,125,2.195,3,2634,120,meters,jsons/VE125_randls_55.json,742047,1238126,29,Man
106,317199,DepthScenes,duration_manipulation_targetAtFixation,jsons/VE125_randls_55.json,http://54.235.29.9/FacialAge/BNav_EC2/DepthDuration/v2_depth_duration_MTurk/v2_DepthDuration_HTML.html#102,102,1366,625,1366,768,9-20-2022,12-25-31,107,depth_duration_stimuli/002344_2014-06-28_20-06-29_260595134347_rgbf000030-resize_1/002344_2014-06-28_20-06-29_260595134347_rgbf000030-resize_1-target.png,125,1.5795,3,2376,158,meters,jsons/VE125_randls_55.json,742047,1238126,29,Man
107,317199,DepthScenes,duration_manipulation_targetAtFixation,jsons/VE125_randls_55.json,http://54.235.29.9/FacialAge/BNav_EC2/DepthDuration/v2_depth_duration_MTurk/v2_DepthDuration_HTML.html#102,102,1366,625,1366,768,9-20-2022,12-25-31,108,depth_duration_stimuli/000470_2014-06-09_19-42-40_260595134347_rgbf000094-resize_1/000470_2014-06-09_19-42-40_260595134347_rgbf000094-resize_1-target.png,125,1.831,2,4542,127,meters,jsons/VE125_randls_55.json,742047,1238126,29,Man
108,317199,DepthScenes,duration_manipulation_targetAtFixation,jsons/VE125_randls_55.json,http://54.235.29.9/FacialAge/BNav_EC2/DepthDuration/v2_depth_duration_MTurk/v2_DepthDuration_HTML.html#102,102,1366,625,1366,768,9-20-2022,12-25-31,109,depth_duration_stimuli/000109_2014-05-14_23-41-52_260595134347_rgbf000035-resize_9/000109_2014-05-14_23-41-52_260595134347_rgbf000035-resize_9-target.png,125,1.3545,3,2874,126,meters,jsons/VE125_randls_55.json,742047,1238126,29,Man
109,317199,DepthScenes,duration_manipulation_targetAtFixation,jsons/VE125_randls_55.json,http://54.235.29.9/FacialAge/BNav_EC2/DepthDuration/v2_depth_duration_MTurk/v2_DepthDuration_HTML.html#102,102,1366,625,1366,768,9-20-2022,12-25-31,110,depth_duration_stimuli/002570_2014-06-24_13-59-54_094959634447_rgbf000059-resize_0/002570_2014-06-24_13-59-54_094959634447_rgbf000059-resize_0-target.png,125,4.037,4,2517,122,meters,jsons/VE125_randls_55.json,742047,1238126,29,Man
110,317199,DepthScenes,duration_manipulation_targetAtFixation,jsons/VE125_randls_55.json,http://54.235.29.9/FacialAge/BNav_EC2/DepthDuration/v2_depth_duration_MTurk/v2_DepthDuration_HTML.html#102,102,1366,625,1366,768,9-20-2022,12-25-31,111,depth_duration_stimuli/002467_2014-06-28_20-38-07_260595134347_rgbf000026-resize_2/002467_2014-06-28_20-38-07_260595134347_rgbf000026-resize_2-target.png,125,4.742,3,4749,116,meters,jsons/VE125_randls_55.json,742047,1238126,29,Man
111,317199,DepthScenes,duration_manipulation_targetAtFixation,jsons/VE125_randls_55.json,http://54.235.29.9/FacialAge/BNav_EC2/DepthDuration/v2_depth_duration_MTurk/v2_DepthDuration_HTML.html#102,102,1366,625,1366,768,9-20-2022,12-25-31,112,depth_duration_stimuli/002784_2014-06-22_19-26-30_094959634447_rgbf000083-resize_3/002784_2014-06-22_19-26-30_094959634447_rgbf000083-resize_3-target.png,125,1.8046666666667,3,5517,98,meters,jsons/VE125_randls_55.json,742047,1238126,29,Man
112,317199,DepthScenes,duration_manipulation_targetAtFixation,jsons/VE125_randls_55.json,http://54.235.29.9/FacialAge/BNav_EC2/DepthDuration/v2_depth_duration_MTurk/v2_DepthDuration_HTML.html#102,102,1366,625,1366,768,9-20-2022,12-25-31,113,depth_duration_stimuli/001100_2014-06-15_17-46-26_260595134347_rgbf000225-resize_2/001100_2014-06-15_17-46-26_260595134347_rgbf000225-resize_2-target.png,125,2.24,5,2781,125,meters,jsons/VE125_randls_55.json,742047,1238126,29,Man
113,317199,DepthScenes,duration_manipulation_targetAtFixation,jsons/VE125_randls_55.json,http://54.235.29.9/FacialAge/BNav_EC2/DepthDuration/v2_depth_duration_MTurk/v2_DepthDuration_HTML.html#102,102,1366,625,1366,768,9-20-2022,12-25-31,114,depth_duration_stimuli/000368_2014-06-09_15-53-01_260595134347_rgbf000155-resize_2/000368_2014-06-09_15-53-01_260595134347_rgbf000155-resize_2-target.png,125,2.4859999999999998,4,2478,137,meters,jsons/VE125_randls_55.json,742047,1238126,29,Man
114,317199,DepthScenes,duration_manipulation_targetAtFixation,jsons/VE125_randls_55.json,http://54.235.29.9/FacialAge/BNav_EC2/DepthDuration/v2_depth_duration_MTurk/v2_DepthDuration_HTML.html#102,102,1366,625,1366,768,9-20-2022,12-25-31,115,depth_duration_stimuli/002678_2014-06-13_16-15-32_094959634447_rgbf000151-resize_6/002678_2014-06-13_16-15-32_094959634447_rgbf000151-resize_6-target.png,125,2.1830000000000003,4,3200,117,meters,jsons/VE125_randls_55.json,742047,1238126,29,Man
115,317199,DepthScenes,duration_manipulation_targetAtFixation,jsons/VE125_randls_55.json,http://54.235.29.9/FacialAge/BNav_EC2/DepthDuration/v2_depth_duration_MTurk/v2_DepthDuration_HTML.html#102,102,1366,625,1366,768,9-20-2022,12-25-31,116,depth_duration_stimuli/001170_2014-06-17_15-43-44_260595134347_rgbf000096-resize_6/001170_2014-06-17_15-43-44_260595134347_rgbf000096-resize-original.jpg,125,1.1909999999999998,4,2900,123,meters,jsons/VE125_randls_55.json,742047,1238126,29,Man
116,317199,DepthScenes,duration_manipulation_targetAtFixation,jsons/VE125_randls_55.json,http://54.235.29.9/FacialAge/BNav_EC2/DepthDuration/v2_depth_duration_MTurk/v2_DepthDuration_HTML.html#102,102,1366,625,1366,768,9-20-2022,12-25-31,117,depth_duration_stimuli/002039_2014-06-24_20-22-38_260595134347_rgbf000084-resize_1/002039_2014-06-24_20-22-38_260595134347_rgbf000084-resize_1-target.png,125,4.408,3,3348,134,meters,jsons/VE125_randls_55.json,742047,1238126,29,Man
117,317199,DepthScenes,duration_manipulation_targetAtFixation,jsons/VE125_randls_55.json,http://54.235.29.9/FacialAge/BNav_EC2/DepthDuration/v2_depth_duration_MTurk/v2_DepthDuration_HTML.html#102,102,1366,625,1366,768,9-20-2022,12-25-31,118,depth_duration_stimuli/002103_2014-06-25_20-00-40_260595134347_rgbf000049-resize_0/002103_2014-06-25_20-00-40_260595134347_rgbf000049-resize_0-target.png,125,4.105,3,2323,109,meters,jsons/VE125_randls_55.json,742047,1238126,29,Man
118,317199,DepthScenes,duration_manipulation_targetAtFixation,jsons/VE125_randls_55.json,http://54.235.29.9/FacialAge/BNav_EC2/DepthDuration/v2_depth_duration_MTurk/v2_DepthDuration_HTML.html#102,102,1366,625,1366,768,9-20-2022,12-25-31,119,depth_duration_stimuli/000788_2014-06-08_22-34-36_260595134347_rgbf000131-resize_1/000788_2014-06-08_22-34-36_260595134347_rgbf000131-resize_1-target.png,125,3.359,3,2568,124,meters,jsons/VE125_randls_55.json,742047,1238126,29,Man
119,317199,DepthScenes,duration_manipulation_targetAtFixation,jsons/VE125_randls_55.json,http://54.235.29.9/FacialAge/BNav_EC2/DepthDuration/v2_depth_duration_MTurk/v2_DepthDuration_HTML.html#102,102,1366,625,1366,768,9-20-2022,12-25-31,120,depth_duration_stimuli/001235_2014-06-17_16-37-36_260595134347_rgbf000084-resize_4/001235_2014-06-17_16-37-36_260595134347_rgbf000084-resize_4-target.png,125,3.6605,54,2339,98,meters,jsons/VE125_randls_55.json,742047,1238126,29,Man
120,317199,DepthScenes,duration_manipulation_targetAtFixation,jsons/VE125_randls_55.json,http://54.235.29.9/FacialAge/BNav_EC2/DepthDuration/v2_depth_duration_MTurk/v2_DepthDuration_HTML.html#102,102,1366,625,1366,768,9-20-2022,12-25-31,121,depth_duration_stimuli/000506_2014-06-08_23-21-00_260595134347_rgbf000070-resize_7/000506_2014-06-08_23-21-00_260595134347_rgbf000070-resize_7-target.png,125,4.0585,4,2360,127,meters,jsons/VE125_randls_55.json,742047,1238126,29,Man
121,317199,DepthScenes,duration_manipulation_targetAtFixation,jsons/VE125_randls_55.json,http://54.235.29.9/FacialAge/BNav_EC2/DepthDuration/v2_depth_duration_MTurk/v2_DepthDuration_HTML.html#102,102,1366,625,1366,768,9-20-2022,12-25-31,122,depth_duration_stimuli/003079_2014-06-15_15-18-20_094959634447_rgbf000152-resize_8/003079_2014-06-15_15-18-20_094959634447_rgbf000152-resize_8-target.png,125,2.8775,3,2462,127,meters,jsons/VE125_randls_55.json,742047,1238126,29,Man
122,317199,DepthScenes,duration_manipulation_targetAtFixation,jsons/VE125_randls_55.json,http://54.235.29.9/FacialAge/BNav_EC2/DepthDuration/v2_depth_duration_MTurk/v2_DepthDuration_HTML.html#102,102,1366,625,1366,768,9-20-2022,12-25-31,123,depth_duration_stimuli/002153_2014-06-25_21-27-18_260595134347_rgbf000038-resize_5/002153_2014-06-25_21-27-18_260595134347_rgbf000038-resize_5-target.png,125,2.505,2,4991,136,meters,jsons/VE125_randls_55.json,742047,1238126,29,Man
123,317199,DepthScenes,duration_manipulation_targetAtFixation,jsons/VE125_randls_55.json,http://54.235.29.9/FacialAge/BNav_EC2/DepthDuration/v2_depth_duration_MTurk/v2_DepthDuration_HTML.html#102,102,1366,625,1366,768,9-20-2022,12-25-31,124,depth_duration_stimuli/002660_2014-06-13_15-44-18_094959634447_rgbf001878-resize_2/002660_2014-06-13_15-44-18_094959634447_rgbf001878-resize_2-target.png,125,3.576,4,2861,207,meters,jsons/VE125_randls_55.json,742047,1238126,29,Man
124,317199,DepthScenes,duration_manipulation_targetAtFixation,jsons/VE125_randls_55.json,http://54.235.29.9/FacialAge/BNav_EC2/DepthDuration/v2_depth_duration_MTurk/v2_DepthDuration_HTML.html#102,102,1366,625,1366,768,9-20-2022,12-25-31,125,depth_duration_stimuli/000642_2014-06-08_16-59-25_260595134347_rgbf000098-resize_2/000642_2014-06-08_16-59-25_260595134347_rgbf000098-resize_2-target.png,125,2.8815,4,9687,125,meters,jsons/VE125_randls_55.json,742047,1238126,29,Man
125,317199,DepthScenes,duration_manipulation_targetAtFixation,jsons/VE125_randls_55.json,http://54.235.29.9/FacialAge/BNav_EC2/DepthDuration/v2_depth_duration_MTurk/v2_DepthDuration_HTML.html#102,102,1366,625,1366,768,9-20-2022,12-25-31,126,depth_duration_stimuli/002425_2014-06-28_20-27-29_260595134347_rgbf000031-resize_8/002425_2014-06-28_20-27-29_260595134347_rgbf000031-resize_8-target.png,125,3.8960000000000004,3,4872,159,meters,jsons/VE125_randls_55.json,742047,1238126,29,Man
126,317199,DepthScenes,duration_manipulation_targetAtFixation,jsons/VE125_randls_55.json,http://54.235.29.9/FacialAge/BNav_EC2/DepthDuration/v2_depth_duration_MTurk/v2_DepthDuration_HTML.html#102,102,1366,625,1366,768,9-20-2022,12-25-31,127,depth_duration_stimuli/001806_2014-06-26_20-50-20_260595134347_rgbf000091-resize_1/001806_2014-06-26_20-50-20_260595134347_rgbf000091-resize_1-target.png,125,2.7305,2,3872,124,meters,jsons/VE125_randls_55.json,742047,1238126,29,Man
127,317199,DepthScenes,duration_manipulation_targetAtFixation,jsons/VE125_randls_55.json,http://54.235.29.9/FacialAge/BNav_EC2/DepthDuration/v2_depth_duration_MTurk/v2_DepthDuration_HTML.html#102,102,1366,625,1366,768,9-20-2022,12-25-31,128,depth_duration_stimuli/001617_2014-06-20_11-35-32_260595134347_rgbf000066-resize_1/001617_2014-06-20_11-35-32_260595134347_rgbf000066-resize_1-target.png,125,3.7910000000000004,4,2927,112,meters,jsons/VE125_randls_55.json,742047,1238126,29,Man
128,317199,DepthScenes,duration_manipulation_targetAtFixation,jsons/VE125_randls_55.json,http://54.235.29.9/FacialAge/BNav_EC2/DepthDuration/v2_depth_duration_MTurk/v2_DepthDuration_HTML.html#102,102,1366,625,1366,768,9-20-2022,12-25-31,129,depth_duration_stimuli/001810_2014-06-26_20-51-35_260595134347_rgbf000040-resize_3/001810_2014-06-26_20-51-35_260595134347_rgbf000040-resize_3-target.png,125,2.2525,3,2605,141,meters,jsons/VE125_randls_55.json,742047,1238126,29,Man
129,317199,DepthScenes,duration_manipulation_targetAtFixation,jsons/VE125_randls_55.json,http://54.235.29.9/FacialAge/BNav_EC2/DepthDuration/v2_depth_duration_MTurk/v2_DepthDuration_HTML.html#102,102,1366,625,1366,768,9-20-2022,12-25-31,130,depth_duration_stimuli/003010_2014-06-15_12-54-35_094959634447_rgbf000112-resize_0/003010_2014-06-15_12-54-35_094959634447_rgbf000112-resize_0-target.png,125,3.1185,3,25000,123,meters,jsons/VE125_randls_55.json,742047,1238126,29,Man
130,317199,DepthScenes,duration_manipulation_targetAtFixation,jsons/VE125_randls_55.json,http://54.235.29.9/FacialAge/BNav_EC2/DepthDuration/v2_depth_duration_MTurk/v2_DepthDuration_HTML.html#102,102,1366,625,1366,768,9-20-2022,12-25-31,131,depth_duration_stimuli/000878_2014-06-08_22-52-45_260595134347_rgbf000045-resize_2/000878_2014-06-08_22-52-45_260595134347_rgbf000045-resize_2-target.png,125,2.092,3,3503,113,meters,jsons/VE125_randls_55.json,742047,1238126,29,Man
131,317199,DepthScenes,duration_manipulation_targetAtFixation,jsons/VE125_randls_55.json,http://54.235.29.9/FacialAge/BNav_EC2/DepthDuration/v2_depth_duration_MTurk/v2_DepthDuration_HTML.html#102,102,1366,625,1366,768,9-20-2022,12-25-31,132,depth_duration_stimuli/002953_2014-06-08_17-32-18_094959634447_rgbf000059-resize_5/002953_2014-06-08_17-32-18_094959634447_rgbf000059-resize_5-target.png,125,1.551,6,2652,120,meters,jsons/VE125_randls_55.json,742047,1238126,29,Man
132,317199,DepthScenes,duration_manipulation_targetAtFixation,jsons/VE125_randls_55.json,http://54.235.29.9/FacialAge/BNav_EC2/DepthDuration/v2_depth_duration_MTurk/v2_DepthDuration_HTML.html#102,102,1366,625,1366,768,9-20-2022,12-25-31,133,depth_duration_stimuli/001011_2014-06-08_23-18-54_260595134347_rgbf000044-resize_4/001011_2014-06-08_23-18-54_260595134347_rgbf000044-resize_4-target.png,125,2.4730000000000003,2,2410,110,meters,jsons/VE125_randls_55.json,742047,1238126,29,Man
133,317199,DepthScenes,duration_manipulation_targetAtFixation,jsons/VE125_randls_55.json,http://54.235.29.9/FacialAge/BNav_EC2/DepthDuration/v2_depth_duration_MTurk/v2_DepthDuration_HTML.html#102,102,1366,625,1366,768,9-20-2022,12-25-31,134,depth_duration_stimuli/002875_2014-06-01_15-19-00_094959634447_rgbf000151-resize_1/002875_2014-06-01_15-19-00_094959634447_rgbf000151-resize_1-target.png,125,1.9675,4,4586,131,meters,jsons/VE125_randls_55.json,742047,1238126,29,Man
134,317199,DepthScenes,duration_manipulation_targetAtFixation,jsons/VE125_randls_55.json,http://54.235.29.9/FacialAge/BNav_EC2/DepthDuration/v2_depth_duration_MTurk/v2_DepthDuration_HTML.html#102,102,1366,625,1366,768,9-20-2022,12-25-31,135,depth_duration_stimuli/002072_2014-06-24_21-48-06_260595134347_rgbf000115-resize_0/002072_2014-06-24_21-48-06_260595134347_rgbf000115-resize-original.jpg,125,4.702,5,7074,122,meters,jsons/VE125_randls_55.json,742047,1238126,29,Man
135,317199,DepthScenes,duration_manipulation_targetAtFixation,jsons/VE125_randls_55.json,http://54.235.29.9/FacialAge/BNav_EC2/DepthDuration/v2_depth_duration_MTurk/v2_DepthDuration_HTML.html#102,102,1366,625,1366,768,9-20-2022,12-25-31,136,depth_duration_stimuli/002213_2014-06-28_18-37-58_260595134347_rgbf000055-resize_1/002213_2014-06-28_18-37-58_260595134347_rgbf000055-resize_1-target.png,125,3.62,3,2368,131,meters,jsons/VE125_randls_55.json,742047,1238126,29,Man
136,317199,DepthScenes,duration_manipulation_targetAtFixation,jsons/VE125_randls_55.json,http://54.235.29.9/FacialAge/BNav_EC2/DepthDuration/v2_depth_duration_MTurk/v2_DepthDuration_HTML.html#102,102,1366,625,1366,768,9-20-2022,12-25-31,137,depth_duration_stimuli/000691_2014-06-08_13-08-50_260595134347_rgbf000132-resize_3/000691_2014-06-08_13-08-50_260595134347_rgbf000132-resize_3-target.png,125,4.1530000000000005,2,2306,119,meters,jsons/VE125_randls_55.json,742047,1238126,29,Man
137,317199,DepthScenes,duration_manipulation_targetAtFixation,jsons/VE125_randls_55.json,http://54.235.29.9/FacialAge/BNav_EC2/DepthDuration/v2_depth_duration_MTurk/v2_DepthDuration_HTML.html#102,102,1366,625,1366,768,9-20-2022,12-25-31,138,depth_duration_stimuli/000929_2014-06-09_16-33-19_260595134347_rgbf000139-resize_0/000929_2014-06-09_16-33-19_260595134347_rgbf000139-resize_0-target.png,125,2.8680000000000003,4,2356,124,meters,jsons/VE125_randls_55.json,742047,1238126,29,Man
138,317199,DepthScenes,duration_manipulation_targetAtFixation,jsons/VE125_randls_55.json,http://54.235.29.9/FacialAge/BNav_EC2/DepthDuration/v2_depth_duration_MTurk/v2_DepthDuration_HTML.html#102,102,1366,625,1366,768,9-20-2022,12-25-31,139,depth_duration_stimuli/000457_2014-06-08_16-52-43_260595134347_rgbf000199-resize_1/000457_2014-06-08_16-52-43_260595134347_rgbf000199-resize_1-target.png,125,3.6489999999999996,4,2378,116,meters,jsons/VE125_randls_55.json,742047,1238126,29,Man
139,317199,DepthScenes,duration_manipulation_targetAtFixation,jsons/VE125_randls_55.json,http://54.235.29.9/FacialAge/BNav_EC2/DepthDuration/v2_depth_duration_MTurk/v2_DepthDuration_HTML.html#102,102,1366,625,1366,768,9-20-2022,12-25-31,140,depth_duration_stimuli/001158_2014-06-17_15-32-16_260595134347_rgbf000138-resize_2/001158_2014-06-17_15-32-16_260595134347_rgbf000138-resize_2-target.png,125,4.5315,3,3915,127,meters,jsons/VE125_randls_55.json,742047,1238126,29,Man
140,317199,DepthScenes,duration_manipulation_targetAtFixation,jsons/VE125_randls_55.json,http://54.235.29.9/FacialAge/BNav_EC2/DepthDuration/v2_depth_duration_MTurk/v2_DepthDuration_HTML.html#102,102,1366,625,1366,768,9-20-2022,12-25-31,141,depth_duration_stimuli/000556_2014-06-09_22-42-56_260595134347_rgbf000214-resize_1/000556_2014-06-09_22-42-56_260595134347_rgbf000214-resize_1-target.png,125,4.8415,4,6902,124,meters,jsons/VE125_randls_55.json,742047,1238126,29,Man
141,317199,DepthScenes,duration_manipulation_targetAtFixation,jsons/VE125_randls_55.json,http://54.235.29.9/FacialAge/BNav_EC2/DepthDuration/v2_depth_duration_MTurk/v2_DepthDuration_HTML.html#102,102,1366,625,1366,768,9-20-2022,12-25-31,142,depth_duration_stimuli/003621_2014-05-23_18-06-08_094959634447_rgbf000101-resize_1/003621_2014-05-23_18-06-08_094959634447_rgbf000101-resize_1-target.png,125,3.9835,2,2795,139,meters,jsons/VE125_randls_55.json,742047,1238126,29,Man
142,317199,DepthScenes,duration_manipulation_targetAtFixation,jsons/VE125_randls_55.json,http://54.235.29.9/FacialAge/BNav_EC2/DepthDuration/v2_depth_duration_MTurk/v2_DepthDuration_HTML.html#102,102,1366,625,1366,768,9-20-2022,12-25-31,143,depth_duration_stimuli/001584_2014-06-20_11-07-43_260595134347_rgbf000002-resize_1/001584_2014-06-20_11-07-43_260595134347_rgbf000002-resize_1-target.png,125,3.53,4,3210,83,meters,jsons/VE125_randls_55.json,742047,1238126,29,Man
143,317199,DepthScenes,duration_manipulation_targetAtFixation,jsons/VE125_randls_55.json,http://54.235.29.9/FacialAge/BNav_EC2/DepthDuration/v2_depth_duration_MTurk/v2_DepthDuration_HTML.html#102,102,1366,625,1366,768,9-20-2022,12-25-31,144,depth_duration_stimuli/002988_2014-06-15_12-24-20_094959634447_rgbf000150-resize_1/002988_2014-06-15_12-24-20_094959634447_rgbf000150-resize_1-target.png,125,4.7669999999999995,4,5156,127,meters,jsons/VE125_randls_55.json,742047,1238126,29,Man
144,317199,DepthScenes,duration_manipulation_targetAtFixation,jsons/VE125_randls_55.json,http://54.235.29.9/FacialAge/BNav_EC2/DepthDuration/v2_depth_duration_MTurk/v2_DepthDuration_HTML.html#102,102,1366,625,1366,768,9-20-2022,12-25-31,145,depth_duration_stimuli/001052_2014-06-08_18-24-54_260595134347_rgbf000130-resize_1/001052_2014-06-08_18-24-54_260595134347_rgbf000130-resize_1-target.png,125,4.1045,4,2851,135,meters,jsons/VE125_randls_55.json,742047,1238126,29,Man
145,317199,DepthScenes,duration_manipulation_targetAtFixation,jsons/VE125_randls_55.json,http://54.235.29.9/FacialAge/BNav_EC2/DepthDuration/v2_depth_duration_MTurk/v2_DepthDuration_HTML.html#102,102,1366,625,1366,768,9-20-2022,12-25-31,146,depth_duration_stimuli/001498_2014-06-19_17-45-14_260595134347_rgbf000129-resize_4/001498_2014-06-19_17-45-14_260595134347_rgbf000129-resize-original.jpg,125,1.4075,3,2946,124,meters,jsons/VE125_randls_55.json,742047,1238126,29,Man
146,317199,DepthScenes,duration_manipulation_targetAtFixation,jsons/VE125_randls_55.json,http://54.235.29.9/FacialAge/BNav_EC2/DepthDuration/v2_depth_duration_MTurk/v2_DepthDuration_HTML.html#102,102,1366,625,1366,768,9-20-2022,12-25-31,147,depth_duration_stimuli/003070_2014-06-15_14-58-27_094959634447_rgbf000150-resize_3/003070_2014-06-15_14-58-27_094959634447_rgbf000150-resize_3-target.png,125,2.9415,4,2746,123,meters,jsons/VE125_randls_55.json,742047,1238126,29,Man
147,317199,DepthScenes,duration_manipulation_targetAtFixation,jsons/VE125_randls_55.json,http://54.235.29.9/FacialAge/BNav_EC2/DepthDuration/v2_depth_duration_MTurk/v2_DepthDuration_HTML.html#102,102,1366,625,1366,768,9-20-2022,12-25-31,148,depth_duration_stimuli/000943_2014-06-09_19-31-07_260595134347_rgbf000128-resize_1/000943_2014-06-09_19-31-07_260595134347_rgbf000128-resize_1-target.png,125,1.9765,4,2417,115,meters,jsons/VE125_randls_55.json,742047,1238126,29,Man
148,317199,DepthScenes,duration_manipulation_targetAtFixation,jsons/VE125_randls_55.json,http://54.235.29.9/FacialAge/BNav_EC2/DepthDuration/v2_depth_duration_MTurk/v2_DepthDuration_HTML.html#102,102,1366,625,1366,768,9-20-2022,12-25-31,149,depth_duration_stimuli/001056_2014-06-08_18-46-44_260595134347_rgbf000068-resize_0/001056_2014-06-08_18-46-44_260595134347_rgbf000068-resize_0-target.png,125,2.6625,3,3421,124,meters,jsons/VE125_randls_55.json,742047,1238126,29,Man
149,317199,DepthScenes,duration_manipulation_targetAtFixation,jsons/VE125_randls_55.json,http://54.235.29.9/FacialAge/BNav_EC2/DepthDuration/v2_depth_duration_MTurk/v2_DepthDuration_HTML.html#102,102,1366,625,1366,768,9-20-2022,12-25-31,150,depth_duration_stimuli/002199_2014-06-28_18-33-56_260595134347_rgbf000074-resize_0/002199_2014-06-28_18-33-56_260595134347_rgbf000074-resize_0-target.png,125,1.996,3,6081,122,meters,jsons/VE125_randls_55.json,742047,1238126,29,Man
150,317199,DepthScenes,duration_manipulation_targetAtFixation,jsons/VE125_randls_55.json,http://54.235.29.9/FacialAge/BNav_EC2/DepthDuration/v2_depth_duration_MTurk/v2_DepthDuration_HTML.html#102,102,1366,625,1366,768,9-20-2022,12-25-31,151,depth_duration_stimuli/002763_2014-06-22_19-13-10_094959634447_rgbf000075-resize_4/002763_2014-06-22_19-13-10_094959634447_rgbf000075-resize_4-target.png,125,1.68375,2,3162,124,meters,jsons/VE125_randls_55.json,742047,1238126,29,Man
151,317199,DepthScenes,duration_manipulation_targetAtFixation,jsons/VE125_randls_55.json,http://54.235.29.9/FacialAge/BNav_EC2/DepthDuration/v2_depth_duration_MTurk/v2_DepthDuration_HTML.html#102,102,1366,625,1366,768,9-20-2022,12-25-31,152,depth_duration_stimuli/002209_2014-06-28_18-36-10_260595134347_rgbf000051-resize_1/002209_2014-06-28_18-36-10_260595134347_rgbf000051-resize_1-target.png,125,2.057,2,2245,138,meters,jsons/VE125_randls_55.json,742047,1238126,29,Man
152,317199,DepthScenes,duration_manipulation_targetAtFixation,jsons/VE125_randls_55.json,http://54.235.29.9/FacialAge/BNav_EC2/DepthDuration/v2_depth_duration_MTurk/v2_DepthDuration_HTML.html#102,102,1366,625,1366,768,9-20-2022,12-25-31,153,depth_duration_stimuli/002279_2014-06-28_18-55-32_260595134347_rgbf000040-resize_5/002279_2014-06-28_18-55-32_260595134347_rgbf000040-resize_5-target.png,125,1.5043333333333,4,3114,125,meters,jsons/VE125_randls_55.json,742047,1238126,29,Man
153,317199,DepthScenes,duration_manipulation_targetAtFixation,jsons/VE125_randls_55.json,http://54.235.29.9/FacialAge/BNav_EC2/DepthDuration/v2_depth_duration_MTurk/v2_DepthDuration_HTML.html#102,102,1366,625,1366,768,9-20-2022,12-25-31,154,depth_duration_stimuli/000635_2014-06-08_16-38-42_260595134347_rgbf000106-resize_1/000635_2014-06-08_16-38-42_260595134347_rgbf000106-resize_1-target.png,125,2.074,3,13735,338,meters,jsons/VE125_randls_55.json,742047,1238126,29,Man
154,317199,DepthScenes,duration_manipulation_targetAtFixation,jsons/VE125_randls_55.json,http://54.235.29.9/FacialAge/BNav_EC2/DepthDuration/v2_depth_duration_MTurk/v2_DepthDuration_HTML.html#102,102,1366,625,1366,768,9-20-2022,12-25-31,155,depth_duration_stimuli/000522_2014-06-08_13-35-06_260595134347_rgbf000244-resize_1/000522_2014-06-08_13-35-06_260595134347_rgbf000244-resize_1-target.png,125,2.3715,3,20452,121,meters,jsons/VE125_randls_55.json,742047,1238126,29,Man
155,317199,DepthScenes,duration_manipulation_targetAtFixation,jsons/VE125_randls_55.json,http://54.235.29.9/FacialAge/BNav_EC2/DepthDuration/v2_depth_duration_MTurk/v2_DepthDuration_HTML.html#102,102,1366,625,1366,768,9-20-2022,12-25-31,156,depth_duration_stimuli/002949_2014-06-26_15-57-42_094959634447_rgbf000079-resize_1/002949_2014-06-26_15-57-42_094959634447_rgbf000079-resize_1-target.png,125,1.8915,2,2825,115,meters,jsons/VE125_randls_55.json,742047,1238126,29,Man
156,317199,DepthScenes,duration_manipulation_targetAtFixation,jsons/VE125_randls_55.json,http://54.235.29.9/FacialAge/BNav_EC2/DepthDuration/v2_depth_duration_MTurk/v2_DepthDuration_HTML.html#102,102,1366,625,1366,768,9-20-2022,12-25-31,157,depth_duration_stimuli/002989_2014-06-15_12-25-03_094959634447_rgbf000150-resize_3/002989_2014-06-15_12-25-03_094959634447_rgbf000150-resize_3-target.png,125,4.1975,3,3944,123,meters,jsons/VE125_randls_55.json,742047,1238126,29,Man
157,317199,DepthScenes,duration_manipulation_targetAtFixation,jsons/VE125_randls_55.json,http://54.235.29.9/FacialAge/BNav_EC2/DepthDuration/v2_depth_duration_MTurk/v2_DepthDuration_HTML.html#102,102,1366,625,1366,768,9-20-2022,12-25-31,158,depth_duration_stimuli/000866_2014-06-09_20-45-42_260595134347_rgbf000139-resize_1/000866_2014-06-09_20-45-42_260595134347_rgbf000139-resize_1-target.png,125,3.2155,3,3639,131,meters,jsons/VE125_randls_55.json,742047,1238126,29,Man
158,317199,DepthScenes,duration_manipulation_targetAtFixation,jsons/VE125_randls_55.json,http://54.235.29.9/FacialAge/BNav_EC2/DepthDuration/v2_depth_duration_MTurk/v2_DepthDuration_HTML.html#102,102,1366,625,1366,768,9-20-2022,12-25-31,159,depth_duration_stimuli/002905_2014-06-03_18-04-43_094959634447_rgbf000151-resize_2/002905_2014-06-03_18-04-43_094959634447_rgbf000151-resize_2-target.png,125,2.0295,3,2075,125,meters,jsons/VE125_randls_55.json,742047,1238126,29,Man
159,317199,DepthScenes,duration_manipulation_targetAtFixation,jsons/VE125_randls_55.json,http://54.235.29.9/FacialAge/BNav_EC2/DepthDuration/v2_depth_duration_MTurk/v2_DepthDuration_HTML.html#102,102,1366,625,1366,768,9-20-2022,12-25-31,160,depth_duration_stimuli/003423_2014-05-21_10-23-26_094959634447_rgbf002665-resize_2/003423_2014-05-21_10-23-26_094959634447_rgbf002665-resize_2-target.png,125,3.2575,2,2299,124,meters,jsons/VE125_randls_55.json,742047,1238126,29,Man
160,317199,DepthScenes,duration_manipulation_targetAtFixation,jsons/VE125_randls_55.json,http://54.235.29.9/FacialAge/BNav_EC2/DepthDuration/v2_depth_duration_MTurk/v2_DepthDuration_HTML.html#102,102,1366,625,1366,768,9-20-2022,12-25-31,161,depth_duration_stimuli/001059_2014-06-08_21-53-27_260595134347_rgbf000061-resize_4/001059_2014-06-08_21-53-27_260595134347_rgbf000061-resize_4-target.png,125,2.4185,3,2831,139,meters,jsons/VE125_randls_55.json,742047,1238126,29,Man
161,317199,DepthScenes,duration_manipulation_targetAtFixation,jsons/VE125_randls_55.json,http://54.235.29.9/FacialAge/BNav_EC2/DepthDuration/v2_depth_duration_MTurk/v2_DepthDuration_HTML.html#102,102,1366,625,1366,768,9-20-2022,12-25-31,162,depth_duration_stimuli/001032_2014-06-08_13-23-17_260595134347_rgbf000021-resize_3/001032_2014-06-08_13-23-17_260595134347_rgbf000021-resize_3-target.png,125,3.2725,2,3093,116,meters,jsons/VE125_randls_55.json,742047,1238126,29,Man
162,317199,DepthScenes,duration_manipulation_targetAtFixation,jsons/VE125_randls_55.json,http://54.235.29.9/FacialAge/BNav_EC2/DepthDuration/v2_depth_duration_MTurk/v2_DepthDuration_HTML.html#102,102,1366,625,1366,768,9-20-2022,12-25-31,163,depth_duration_stimuli/001029_2014-06-08_13-17-57_260595134347_rgbf000065-resize_1/001029_2014-06-08_13-17-57_260595134347_rgbf000065-resize_1-target.png,125,3.0835,4,2560,109,meters,jsons/VE125_randls_55.json,742047,1238126,29,Man
163,317199,DepthScenes,duration_manipulation_targetAtFixation,jsons/VE125_randls_55.json,http://54.235.29.9/FacialAge/BNav_EC2/DepthDuration/v2_depth_duration_MTurk/v2_DepthDuration_HTML.html#102,102,1366,625,1366,768,9-20-2022,12-25-31,164,depth_duration_stimuli/000677_2014-06-08_23-10-32_260595134347_rgbf000158-resize_6/000677_2014-06-08_23-10-32_260595134347_rgbf000158-resize_6-target.png,125,3.556,5,2541,124,meters,jsons/VE125_randls_55.json,742047,1238126,29,Man
