,subjID,experimentName,versionName,sequenceName,url,selected_row,windowWidth,windowHeight,screenWidth,screenHeight,startDate,startTime,trial,stimulus,duration,actual_depth,depth_estimate,trial_RT,log_sceneDuration,unitSelection,seq_filepath,experimentTime,totalTime,age,gender
0,319604,DepthScenes,duration_manipulation_targetAtFixation,jsons/v1_VE250_randls_26_rotated.json,http://54.235.29.9/FacialAge/BNav_EC2/DepthDuration/v2_depth_duration_MTurk/v2_DepthDuration_HTML.html#438,438,1366,625,1366,768,9-19-2022,13-57-27,1,depth_duration_stimuli/002323_2014-06-28_20-01-54_260595134347_rgbf000051-resize_4/002323_2014-06-28_20-01-54_260595134347_rgbf000051-resize_4-target.png,250,3.7310000000000003,20,4290,246,meters,jsons/v1_VE250_randls_26_rotated.json,1029467,1450601,53,Man
1,319604,DepthScenes,duration_manipulation_targetAtFixation,jsons/v1_VE250_randls_26_rotated.json,http://54.235.29.9/FacialAge/BNav_EC2/DepthDuration/v2_depth_duration_MTurk/v2_DepthDuration_HTML.html#438,438,1366,625,1366,768,9-19-2022,13-57-27,2,depth_duration_stimuli/000917_2014-06-09_22-45-29_260595134347_rgbf000149-resize_3/000917_2014-06-09_22-45-29_260595134347_rgbf000149-resize_3-target.png,250,4.1865,25,4216,251,meters,jsons/v1_VE250_randls_26_rotated.json,1029467,1450601,53,Man
2,319604,DepthScenes,duration_manipulation_targetAtFixation,jsons/v1_VE250_randls_26_rotated.json,http://54.235.29.9/FacialAge/BNav_EC2/DepthDuration/v2_depth_duration_MTurk/v2_DepthDuration_HTML.html#438,438,1366,625,1366,768,9-19-2022,13-57-27,3,depth_duration_stimuli/002340_2014-06-28_20-05-46_260595134347_rgbf000113-resize_0/002340_2014-06-28_20-05-46_260595134347_rgbf000113-resize_0-target.png,250,2.4735,30,3509,244,meters,jsons/v1_VE250_randls_26_rotated.json,1029467,1450601,53,Man
3,319604,DepthScenes,duration_manipulation_targetAtFixation,jsons/v1_VE250_randls_26_rotated.json,http://54.235.29.9/FacialAge/BNav_EC2/DepthDuration/v2_depth_duration_MTurk/v2_DepthDuration_HTML.html#438,438,1366,625,1366,768,9-19-2022,13-57-27,4,depth_duration_stimuli/001016_2014-06-09_16-16-10_260595134347_rgbf000112-resize_5/001016_2014-06-09_16-16-10_260595134347_rgbf000112-resize_5-target.png,250,1.6565,25,2765,251,meters,jsons/v1_VE250_randls_26_rotated.json,1029467,1450601,53,Man
4,319604,DepthScenes,duration_manipulation_targetAtFixation,jsons/v1_VE250_randls_26_rotated.json,http://54.235.29.9/FacialAge/BNav_EC2/DepthDuration/v2_depth_duration_MTurk/v2_DepthDuration_HTML.html#438,438,1366,625,1366,768,9-19-2022,13-57-27,5,depth_duration_stimuli/001828_2014-06-26_21-40-03_260595134347_rgbf000024-resize_0/001828_2014-06-26_21-40-03_260595134347_rgbf000024-resize_0-target.png,250,4.8260000000000005,30,3313,244,meters,jsons/v1_VE250_randls_26_rotated.json,1029467,1450601,53,Man
5,319604,DepthScenes,duration_manipulation_targetAtFixation,jsons/v1_VE250_randls_26_rotated.json,http://54.235.29.9/FacialAge/BNav_EC2/DepthDuration/v2_depth_duration_MTurk/v2_DepthDuration_HTML.html#438,438,1366,625,1366,768,9-19-2022,13-57-27,6,depth_duration_stimuli/000009_2014-05-26_14-32-05_260595134347_rgbf000034-resize_3/000009_2014-05-26_14-32-05_260595134347_rgbf000034-resize_3-target.png,250,3.8715,35,3870,249,meters,jsons/v1_VE250_randls_26_rotated.json,1029467,1450601,53,Man
6,319604,DepthScenes,duration_manipulation_targetAtFixation,jsons/v1_VE250_randls_26_rotated.json,http://54.235.29.9/FacialAge/BNav_EC2/DepthDuration/v2_depth_duration_MTurk/v2_DepthDuration_HTML.html#438,438,1366,625,1366,768,9-19-2022,13-57-27,7,depth_duration_stimuli/002103_2014-06-25_20-00-40_260595134347_rgbf000049-resize_0/002103_2014-06-25_20-00-40_260595134347_rgbf000049-resize_0-target.png,250,4.105,20,3148,243,meters,jsons/v1_VE250_randls_26_rotated.json,1029467,1450601,53,Man
7,319604,DepthScenes,duration_manipulation_targetAtFixation,jsons/v1_VE250_randls_26_rotated.json,http://54.235.29.9/FacialAge/BNav_EC2/DepthDuration/v2_depth_duration_MTurk/v2_DepthDuration_HTML.html#438,438,1366,625,1366,768,9-19-2022,13-57-27,8,depth_duration_stimuli/002039_2014-06-24_20-22-38_260595134347_rgbf000084-resize_1/002039_2014-06-24_20-22-38_260595134347_rgbf000084-resize_1-target.png,250,4.408,30,2461,253,meters,jsons/v1_VE250_randls_26_rotated.json,1029467,1450601,53,Man
8,319604,DepthScenes,duration_manipulation_targetAtFixation,jsons/v1_VE250_randls_26_rotated.json,http://54.235.29.9/FacialAge/BNav_EC2/DepthDuration/v2_depth_duration_MTurk/v2_DepthDuration_HTML.html#438,438,1366,625,1366,768,9-19-2022,13-57-27,9,depth_duration_stimuli/000635_2014-06-08_16-38-42_260595134347_rgbf000106-resize_1/000635_2014-06-08_16-38-42_260595134347_rgbf000106-resize_1-target.png,250,2.074,25,2625,253,meters,jsons/v1_VE250_randls_26_rotated.json,1029467,1450601,53,Man
9,319604,DepthScenes,duration_manipulation_targetAtFixation,jsons/v1_VE250_randls_26_rotated.json,http://54.235.29.9/FacialAge/BNav_EC2/DepthDuration/v2_depth_duration_MTurk/v2_DepthDuration_HTML.html#438,438,1366,625,1366,768,9-19-2022,13-57-27,10,depth_duration_stimuli/002279_2014-06-28_18-55-32_260595134347_rgbf000040-resize_5/002279_2014-06-28_18-55-32_260595134347_rgbf000040-resize_5-target.png,250,1.5043333333333,10,2896,248,meters,jsons/v1_VE250_randls_26_rotated.json,1029467,1450601,53,Man
10,319604,DepthScenes,duration_manipulation_targetAtFixation,jsons/v1_VE250_randls_26_rotated.json,http://54.235.29.9/FacialAge/BNav_EC2/DepthDuration/v2_depth_duration_MTurk/v2_DepthDuration_HTML.html#438,438,1366,625,1366,768,9-19-2022,13-57-27,11,depth_duration_stimuli/003338_2014-05-20_11-01-23_094959634447_rgbf000051-resize_6/003338_2014-05-20_11-01-23_094959634447_rgbf000051-resize_6-target.png,250,1.693,15,24360,258,meters,jsons/v1_VE250_randls_26_rotated.json,1029467,1450601,53,Man
11,319604,DepthScenes,duration_manipulation_targetAtFixation,jsons/v1_VE250_randls_26_rotated.json,http://54.235.29.9/FacialAge/BNav_EC2/DepthDuration/v2_depth_duration_MTurk/v2_DepthDuration_HTML.html#438,438,1366,625,1366,768,9-19-2022,13-57-27,12,depth_duration_stimuli/002509_2014-06-24_13-19-22_094959634447_rgbf000077-resize_0/002509_2014-06-24_13-19-22_094959634447_rgbf000077-resize_0-target.png,250,1.3065,15,4458,262,meters,jsons/v1_VE250_randls_26_rotated.json,1029467,1450601,53,Man
12,319604,DepthScenes,duration_manipulation_targetAtFixation,jsons/v1_VE250_randls_26_rotated.json,http://54.235.29.9/FacialAge/BNav_EC2/DepthDuration/v2_depth_duration_MTurk/v2_DepthDuration_HTML.html#438,438,1366,625,1366,768,9-19-2022,13-57-27,13,depth_duration_stimuli/000854_2014-06-09_19-43-13_260595134347_rgbf000066-resize_0/000854_2014-06-09_19-43-13_260595134347_rgbf000066-resize_0-target.png,250,3.068,20,4015,250,meters,jsons/v1_VE250_randls_26_rotated.json,1029467,1450601,53,Man
13,319604,DepthScenes,duration_manipulation_targetAtFixation,jsons/v1_VE250_randls_26_rotated.json,http://54.235.29.9/FacialAge/BNav_EC2/DepthDuration/v2_depth_duration_MTurk/v2_DepthDuration_HTML.html#438,438,1366,625,1366,768,9-19-2022,13-57-27,14,depth_duration_stimuli/000758_2014-06-08_22-05-08_260595134347_rgbf000085-resize_0/000758_2014-06-08_22-05-08_260595134347_rgbf000085-resize_0-target.png,250,3.3810000000000002,25,4469,253,meters,jsons/v1_VE250_randls_26_rotated.json,1029467,1450601,53,Man
14,319604,DepthScenes,duration_manipulation_targetAtFixation,jsons/v1_VE250_randls_26_rotated.json,http://54.235.29.9/FacialAge/BNav_EC2/DepthDuration/v2_depth_duration_MTurk/v2_DepthDuration_HTML.html#438,438,1366,625,1366,768,9-19-2022,13-57-27,15,depth_duration_stimuli/001447_2014-06-19_17-00-32_260595134347_rgbf000082-resize_5/001447_2014-06-19_17-00-32_260595134347_rgbf000082-resize_5-target.png,250,4.13775,30,2446,243,meters,jsons/v1_VE250_randls_26_rotated.json,1029467,1450601,53,Man
15,319604,DepthScenes,duration_manipulation_targetAtFixation,jsons/v1_VE250_randls_26_rotated.json,http://54.235.29.9/FacialAge/BNav_EC2/DepthDuration/v2_depth_duration_MTurk/v2_DepthDuration_HTML.html#438,438,1366,625,1366,768,9-19-2022,13-57-27,16,depth_duration_stimuli/000447_2014-06-08_16-15-46_260595134347_rgbf000130-resize_1/000447_2014-06-08_16-15-46_260595134347_rgbf000130-resize_1-target.png,250,4.479,35,2799,249,meters,jsons/v1_VE250_randls_26_rotated.json,1029467,1450601,53,Man
16,319604,DepthScenes,duration_manipulation_targetAtFixation,jsons/v1_VE250_randls_26_rotated.json,http://54.235.29.9/FacialAge/BNav_EC2/DepthDuration/v2_depth_duration_MTurk/v2_DepthDuration_HTML.html#438,438,1366,625,1366,768,9-19-2022,13-57-27,17,depth_duration_stimuli/001571_2014-06-20_17-21-32_260595134347_rgbf000089-resize_1/001571_2014-06-20_17-21-32_260595134347_rgbf000089-resize_1-target.png,250,1.86,25,3299,237,meters,jsons/v1_VE250_randls_26_rotated.json,1029467,1450601,53,Man
17,319604,DepthScenes,duration_manipulation_targetAtFixation,jsons/v1_VE250_randls_26_rotated.json,http://54.235.29.9/FacialAge/BNav_EC2/DepthDuration/v2_depth_duration_MTurk/v2_DepthDuration_HTML.html#438,438,1366,625,1366,768,9-19-2022,13-57-27,18,depth_duration_stimuli/002272_2014-06-28_18-53-56_260595134347_rgbf000067-resize_2/002272_2014-06-28_18-53-56_260595134347_rgbf000067-resize_2-target.png,250,1.138,23,3181,250,meters,jsons/v1_VE250_randls_26_rotated.json,1029467,1450601,53,Man
18,319604,DepthScenes,duration_manipulation_targetAtFixation,jsons/v1_VE250_randls_26_rotated.json,http://54.235.29.9/FacialAge/BNav_EC2/DepthDuration/v2_depth_duration_MTurk/v2_DepthDuration_HTML.html#438,438,1366,625,1366,768,9-19-2022,13-57-27,19,depth_duration_stimuli/001498_2014-06-19_17-45-14_260595134347_rgbf000129-resize_4/001498_2014-06-19_17-45-14_260595134347_rgbf000129-resize-original.jpg,250,1.4075,28,2875,239,meters,jsons/v1_VE250_randls_26_rotated.json,1029467,1450601,53,Man
19,319604,DepthScenes,duration_manipulation_targetAtFixation,jsons/v1_VE250_randls_26_rotated.json,http://54.235.29.9/FacialAge/BNav_EC2/DepthDuration/v2_depth_duration_MTurk/v2_DepthDuration_HTML.html#438,438,1366,625,1366,768,9-19-2022,13-57-27,20,depth_duration_stimuli/001136_2014-06-17_15-19-41_260595134347_rgbf000076-resize_3/001136_2014-06-17_15-19-41_260595134347_rgbf000076-resize_3-target.png,250,1.8655,30,2655,258,meters,jsons/v1_VE250_randls_26_rotated.json,1029467,1450601,53,Man
20,319604,DepthScenes,duration_manipulation_targetAtFixation,jsons/v1_VE250_randls_26_rotated.json,http://54.235.29.9/FacialAge/BNav_EC2/DepthDuration/v2_depth_duration_MTurk/v2_DepthDuration_HTML.html#438,438,1366,625,1366,768,9-19-2022,13-57-27,21,depth_duration_stimuli/001164_2014-06-17_15-35-46_260595134347_rgbf000085-resize_3/001164_2014-06-17_15-35-46_260595134347_rgbf000085-resize_3-target.png,250,2.354,29,2764,250,meters,jsons/v1_VE250_randls_26_rotated.json,1029467,1450601,53,Man
21,319604,DepthScenes,duration_manipulation_targetAtFixation,jsons/v1_VE250_randls_26_rotated.json,http://54.235.29.9/FacialAge/BNav_EC2/DepthDuration/v2_depth_duration_MTurk/v2_DepthDuration_HTML.html#438,438,1366,625,1366,768,9-19-2022,13-57-27,22,depth_duration_stimuli/001052_2014-06-08_18-24-54_260595134347_rgbf000130-resize_1/001052_2014-06-08_18-24-54_260595134347_rgbf000130-resize_1-target.png,250,4.1045,30,2816,249,meters,jsons/v1_VE250_randls_26_rotated.json,1029467,1450601,53,Man
22,319604,DepthScenes,duration_manipulation_targetAtFixation,jsons/v1_VE250_randls_26_rotated.json,http://54.235.29.9/FacialAge/BNav_EC2/DepthDuration/v2_depth_duration_MTurk/v2_DepthDuration_HTML.html#438,438,1366,625,1366,768,9-19-2022,13-57-27,23,depth_duration_stimuli/002988_2014-06-15_12-24-20_094959634447_rgbf000150-resize_1/002988_2014-06-15_12-24-20_094959634447_rgbf000150-resize_1-target.png,250,4.7669999999999995,25,2546,250,meters,jsons/v1_VE250_randls_26_rotated.json,1029467,1450601,53,Man
23,319604,DepthScenes,duration_manipulation_targetAtFixation,jsons/v1_VE250_randls_26_rotated.json,http://54.235.29.9/FacialAge/BNav_EC2/DepthDuration/v2_depth_duration_MTurk/v2_DepthDuration_HTML.html#438,438,1366,625,1366,768,9-19-2022,13-57-27,24,depth_duration_stimuli/003423_2014-05-21_10-23-26_094959634447_rgbf002665-resize_2/003423_2014-05-21_10-23-26_094959634447_rgbf002665-resize_2-target.png,250,3.2575,35,3599,252,meters,jsons/v1_VE250_randls_26_rotated.json,1029467,1450601,53,Man
24,319604,DepthScenes,duration_manipulation_targetAtFixation,jsons/v1_VE250_randls_26_rotated.json,http://54.235.29.9/FacialAge/BNav_EC2/DepthDuration/v2_depth_duration_MTurk/v2_DepthDuration_HTML.html#438,438,1366,625,1366,768,9-19-2022,13-57-27,25,depth_duration_stimuli/002905_2014-06-03_18-04-43_094959634447_rgbf000151-resize_2/002905_2014-06-03_18-04-43_094959634447_rgbf000151-resize_2-target.png,250,2.0295,15,2491,249,meters,jsons/v1_VE250_randls_26_rotated.json,1029467,1450601,53,Man
25,319604,DepthScenes,duration_manipulation_targetAtFixation,jsons/v1_VE250_randls_26_rotated.json,http://54.235.29.9/FacialAge/BNav_EC2/DepthDuration/v2_depth_duration_MTurk/v2_DepthDuration_HTML.html#438,438,1366,625,1366,768,9-19-2022,13-57-27,26,depth_duration_stimuli/001094_2014-06-15_17-36-00_260595134347_rgbf000205-resize_0/001094_2014-06-15_17-36-00_260595134347_rgbf000205-resize_0-target.png,250,4.2175,20,5268,242,meters,jsons/v1_VE250_randls_26_rotated.json,1029467,1450601,53,Man
26,319604,DepthScenes,duration_manipulation_targetAtFixation,jsons/v1_VE250_randls_26_rotated.json,http://54.235.29.9/FacialAge/BNav_EC2/DepthDuration/v2_depth_duration_MTurk/v2_DepthDuration_HTML.html#438,438,1366,625,1366,768,9-19-2022,13-57-27,27,depth_duration_stimuli/000692_2014-06-08_13-09-42_260595134347_rgbf000199-resize_2/000692_2014-06-08_13-09-42_260595134347_rgbf000199-resize_2-target.png,250,3.661,30,2967,242,meters,jsons/v1_VE250_randls_26_rotated.json,1029467,1450601,53,Man
27,319604,DepthScenes,duration_manipulation_targetAtFixation,jsons/v1_VE250_randls_26_rotated.json,http://54.235.29.9/FacialAge/BNav_EC2/DepthDuration/v2_depth_duration_MTurk/v2_DepthDuration_HTML.html#438,438,1366,625,1366,768,9-19-2022,13-57-27,28,depth_duration_stimuli/000109_2014-05-14_23-41-52_260595134347_rgbf000035-resize_9/000109_2014-05-14_23-41-52_260595134347_rgbf000035-resize_9-target.png,250,1.3545,25,2610,247,meters,jsons/v1_VE250_randls_26_rotated.json,1029467,1450601,53,Man
28,319604,DepthScenes,duration_manipulation_targetAtFixation,jsons/v1_VE250_randls_26_rotated.json,http://54.235.29.9/FacialAge/BNav_EC2/DepthDuration/v2_depth_duration_MTurk/v2_DepthDuration_HTML.html#438,438,1366,625,1366,768,9-19-2022,13-57-27,29,depth_duration_stimuli/000470_2014-06-09_19-42-40_260595134347_rgbf000094-resize_1/000470_2014-06-09_19-42-40_260595134347_rgbf000094-resize_1-target.png,250,1.831,29,4226,245,meters,jsons/v1_VE250_randls_26_rotated.json,1029467,1450601,53,Man
29,319604,DepthScenes,duration_manipulation_targetAtFixation,jsons/v1_VE250_randls_26_rotated.json,http://54.235.29.9/FacialAge/BNav_EC2/DepthDuration/v2_depth_duration_MTurk/v2_DepthDuration_HTML.html#438,438,1366,625,1366,768,9-19-2022,13-57-27,30,depth_duration_stimuli/002072_2014-06-24_21-48-06_260595134347_rgbf000115-resize_0/002072_2014-06-24_21-48-06_260595134347_rgbf000115-resize-original.jpg,250,4.702,29,14894,244,meters,jsons/v1_VE250_randls_26_rotated.json,1029467,1450601,53,Man
30,319604,DepthScenes,duration_manipulation_targetAtFixation,jsons/v1_VE250_randls_26_rotated.json,http://54.235.29.9/FacialAge/BNav_EC2/DepthDuration/v2_depth_duration_MTurk/v2_DepthDuration_HTML.html#438,438,1366,625,1366,768,9-19-2022,13-57-27,31,depth_duration_stimuli/002660_2014-06-13_15-44-18_094959634447_rgbf001878-resize_2/002660_2014-06-13_15-44-18_094959634447_rgbf001878-resize_2-target.png,250,3.576,30,2548,265,meters,jsons/v1_VE250_randls_26_rotated.json,1029467,1450601,53,Man
31,319604,DepthScenes,duration_manipulation_targetAtFixation,jsons/v1_VE250_randls_26_rotated.json,http://54.235.29.9/FacialAge/BNav_EC2/DepthDuration/v2_depth_duration_MTurk/v2_DepthDuration_HTML.html#438,438,1366,625,1366,768,9-19-2022,13-57-27,32,depth_duration_stimuli/002153_2014-06-25_21-27-18_260595134347_rgbf000038-resize_5/002153_2014-06-25_21-27-18_260595134347_rgbf000038-resize_5-target.png,250,2.505,27,3575,246,meters,jsons/v1_VE250_randls_26_rotated.json,1029467,1450601,53,Man
32,319604,DepthScenes,duration_manipulation_targetAtFixation,jsons/v1_VE250_randls_26_rotated.json,http://54.235.29.9/FacialAge/BNav_EC2/DepthDuration/v2_depth_duration_MTurk/v2_DepthDuration_HTML.html#438,438,1366,625,1366,768,9-19-2022,13-57-27,33,depth_duration_stimuli/000677_2014-06-08_23-10-32_260595134347_rgbf000158-resize_6/000677_2014-06-08_23-10-32_260595134347_rgbf000158-resize_6-target.png,250,3.556,30,2454,255,meters,jsons/v1_VE250_randls_26_rotated.json,1029467,1450601,53,Man
33,319604,DepthScenes,duration_manipulation_targetAtFixation,jsons/v1_VE250_randls_26_rotated.json,http://54.235.29.9/FacialAge/BNav_EC2/DepthDuration/v2_depth_duration_MTurk/v2_DepthDuration_HTML.html#438,438,1366,625,1366,768,9-19-2022,13-57-27,34,depth_duration_stimuli/001029_2014-06-08_13-17-57_260595134347_rgbf000065-resize_1/001029_2014-06-08_13-17-57_260595134347_rgbf000065-resize_1-target.png,250,3.0835,29,2938,254,meters,jsons/v1_VE250_randls_26_rotated.json,1029467,1450601,53,Man
34,319604,DepthScenes,duration_manipulation_targetAtFixation,jsons/v1_VE250_randls_26_rotated.json,http://54.235.29.9/FacialAge/BNav_EC2/DepthDuration/v2_depth_duration_MTurk/v2_DepthDuration_HTML.html#438,438,1366,625,1366,768,9-19-2022,13-57-27,35,depth_duration_stimuli/000549_2014-06-08_22-10-24_260595134347_rgbf000247-resize_3/000549_2014-06-08_22-10-24_260595134347_rgbf000247-resize_3-target.png,250,1.841,30,8398,249,meters,jsons/v1_VE250_randls_26_rotated.json,1029467,1450601,53,Man
35,319604,DepthScenes,duration_manipulation_targetAtFixation,jsons/v1_VE250_randls_26_rotated.json,http://54.235.29.9/FacialAge/BNav_EC2/DepthDuration/v2_depth_duration_MTurk/v2_DepthDuration_HTML.html#438,438,1366,625,1366,768,9-19-2022,13-57-27,36,depth_duration_stimuli/001055_2014-06-08_18-45-35_260595134347_rgbf000111-resize_4/001055_2014-06-08_18-45-35_260595134347_rgbf000111-resize_4-target.png,250,2.4290000000000003,35,2592,243,meters,jsons/v1_VE250_randls_26_rotated.json,1029467,1450601,53,Man
36,319604,DepthScenes,duration_manipulation_targetAtFixation,jsons/v1_VE250_randls_26_rotated.json,http://54.235.29.9/FacialAge/BNav_EC2/DepthDuration/v2_depth_duration_MTurk/v2_DepthDuration_HTML.html#438,438,1366,625,1366,768,9-19-2022,13-57-27,37,depth_duration_stimuli/001450_2014-06-19_17-02-03_260595134347_rgbf000203-resize_4/001450_2014-06-19_17-02-03_260595134347_rgbf000203-resize_4-target.png,250,4.0106666666667,19,3406,249,meters,jsons/v1_VE250_randls_26_rotated.json,1029467,1450601,53,Man
37,319604,DepthScenes,duration_manipulation_targetAtFixation,jsons/v1_VE250_randls_26_rotated.json,http://54.235.29.9/FacialAge/BNav_EC2/DepthDuration/v2_depth_duration_MTurk/v2_DepthDuration_HTML.html#438,438,1366,625,1366,768,9-19-2022,13-57-27,38,depth_duration_stimuli/001449_2014-06-19_17-01-27_260595134347_rgbf000116-resize_2/001449_2014-06-19_17-01-27_260595134347_rgbf000116-resize_2-target.png,250,3.452,27,4375,249,meters,jsons/v1_VE250_randls_26_rotated.json,1029467,1450601,53,Man
38,319604,DepthScenes,duration_manipulation_targetAtFixation,jsons/v1_VE250_randls_26_rotated.json,http://54.235.29.9/FacialAge/BNav_EC2/DepthDuration/v2_depth_duration_MTurk/v2_DepthDuration_HTML.html#438,438,1366,625,1366,768,9-19-2022,13-57-27,39,depth_duration_stimuli/002467_2014-06-28_20-38-07_260595134347_rgbf000026-resize_2/002467_2014-06-28_20-38-07_260595134347_rgbf000026-resize_2-target.png,250,4.742,25,57646,250,meters,jsons/v1_VE250_randls_26_rotated.json,1029467,1450601,53,Man
39,319604,DepthScenes,duration_manipulation_targetAtFixation,jsons/v1_VE250_randls_26_rotated.json,http://54.235.29.9/FacialAge/BNav_EC2/DepthDuration/v2_depth_duration_MTurk/v2_DepthDuration_HTML.html#438,438,1366,625,1366,768,9-19-2022,13-57-27,40,depth_duration_stimuli/002570_2014-06-24_13-59-54_094959634447_rgbf000059-resize_0/002570_2014-06-24_13-59-54_094959634447_rgbf000059-resize_0-target.png,250,4.037,30,6575,242,meters,jsons/v1_VE250_randls_26_rotated.json,1029467,1450601,53,Man
40,319604,DepthScenes,duration_manipulation_targetAtFixation,jsons/v1_VE250_randls_26_rotated.json,http://54.235.29.9/FacialAge/BNav_EC2/DepthDuration/v2_depth_duration_MTurk/v2_DepthDuration_HTML.html#438,438,1366,625,1366,768,9-19-2022,13-57-27,41,depth_duration_stimuli/000137_2014-05-20_17-04-49_260595134347_rgbf000120-resize_1/000137_2014-05-20_17-04-49_260595134347_rgbf000120-resize_1-target.png,250,3.786,27,4258,249,meters,jsons/v1_VE250_randls_26_rotated.json,1029467,1450601,53,Man
41,319604,DepthScenes,duration_manipulation_targetAtFixation,jsons/v1_VE250_randls_26_rotated.json,http://54.235.29.9/FacialAge/BNav_EC2/DepthDuration/v2_depth_duration_MTurk/v2_DepthDuration_HTML.html#438,438,1366,625,1366,768,9-19-2022,13-57-27,42,depth_duration_stimuli/000736_2014-06-08_18-24-15_260595134347_rgbf000206-resize_3/000736_2014-06-08_18-24-15_260595134347_rgbf000206-resize_3-target.png,250,3.515,20,24151,249,meters,jsons/v1_VE250_randls_26_rotated.json,1029467,1450601,53,Man
42,319604,DepthScenes,duration_manipulation_targetAtFixation,jsons/v1_VE250_randls_26_rotated.json,http://54.235.29.9/FacialAge/BNav_EC2/DepthDuration/v2_depth_duration_MTurk/v2_DepthDuration_HTML.html#438,438,1366,625,1366,768,9-19-2022,13-57-27,43,depth_duration_stimuli/002136_2014-06-25_21-18-03_260595134347_rgbf000109-resize_3/002136_2014-06-25_21-18-03_260595134347_rgbf000109-resize_3-target.png,250,1.9569999999999999,25,2583,252,meters,jsons/v1_VE250_randls_26_rotated.json,1029467,1450601,53,Man
43,319604,DepthScenes,duration_manipulation_targetAtFixation,jsons/v1_VE250_randls_26_rotated.json,http://54.235.29.9/FacialAge/BNav_EC2/DepthDuration/v2_depth_duration_MTurk/v2_DepthDuration_HTML.html#438,438,1366,625,1366,768,9-19-2022,13-57-27,44,depth_duration_stimuli/002964_2014-06-08_17-46-11_094959634447_rgbf000091-resize_4/002964_2014-06-08_17-46-11_094959634447_rgbf000091-resize_4-target.png,250,1.6909999999999998,25,33590,259,meters,jsons/v1_VE250_randls_26_rotated.json,1029467,1450601,53,Man
44,319604,DepthScenes,duration_manipulation_targetAtFixation,jsons/v1_VE250_randls_26_rotated.json,http://54.235.29.9/FacialAge/BNav_EC2/DepthDuration/v2_depth_duration_MTurk/v2_DepthDuration_HTML.html#438,438,1366,625,1366,768,9-19-2022,13-57-27,45,depth_duration_stimuli/003079_2014-06-15_15-18-20_094959634447_rgbf000152-resize_8/003079_2014-06-15_15-18-20_094959634447_rgbf000152-resize_8-target.png,250,2.8775,35,4278,246,meters,jsons/v1_VE250_randls_26_rotated.json,1029467,1450601,53,Man
45,319604,DepthScenes,duration_manipulation_targetAtFixation,jsons/v1_VE250_randls_26_rotated.json,http://54.235.29.9/FacialAge/BNav_EC2/DepthDuration/v2_depth_duration_MTurk/v2_DepthDuration_HTML.html#438,438,1366,625,1366,768,9-19-2022,13-57-27,46,depth_duration_stimuli/000506_2014-06-08_23-21-00_260595134347_rgbf000070-resize_7/000506_2014-06-08_23-21-00_260595134347_rgbf000070-resize_7-target.png,250,4.0585,35,2449,255,meters,jsons/v1_VE250_randls_26_rotated.json,1029467,1450601,53,Man
46,319604,DepthScenes,duration_manipulation_targetAtFixation,jsons/v1_VE250_randls_26_rotated.json,http://54.235.29.9/FacialAge/BNav_EC2/DepthDuration/v2_depth_duration_MTurk/v2_DepthDuration_HTML.html#438,438,1366,625,1366,768,9-19-2022,13-57-27,47,depth_duration_stimuli/000502_2014-06-08_23-02-32_260595134347_rgbf000063-resize_4/000502_2014-06-08_23-02-32_260595134347_rgbf000063-resize_4-target.png,250,2.431,20,2483,253,meters,jsons/v1_VE250_randls_26_rotated.json,1029467,1450601,53,Man
47,319604,DepthScenes,duration_manipulation_targetAtFixation,jsons/v1_VE250_randls_26_rotated.json,http://54.235.29.9/FacialAge/BNav_EC2/DepthDuration/v2_depth_duration_MTurk/v2_DepthDuration_HTML.html#438,438,1366,625,1366,768,9-19-2022,13-57-27,48,depth_duration_stimuli/001199_2014-06-17_16-03-48_260595134347_rgbf000077-resize_0/001199_2014-06-17_16-03-48_260595134347_rgbf000077-resize_0-target.png,250,3.4375,35,4222,256,meters,jsons/v1_VE250_randls_26_rotated.json,1029467,1450601,53,Man
48,319604,DepthScenes,duration_manipulation_targetAtFixation,jsons/v1_VE250_randls_26_rotated.json,http://54.235.29.9/FacialAge/BNav_EC2/DepthDuration/v2_depth_duration_MTurk/v2_DepthDuration_HTML.html#438,438,1366,625,1366,768,9-19-2022,13-57-27,49,depth_duration_stimuli/001170_2014-06-17_15-43-44_260595134347_rgbf000096-resize_6/001170_2014-06-17_15-43-44_260595134347_rgbf000096-resize-original.jpg,250,1.1909999999999998,25,3406,241,meters,jsons/v1_VE250_randls_26_rotated.json,1029467,1450601,53,Man
49,319604,DepthScenes,duration_manipulation_targetAtFixation,jsons/v1_VE250_randls_26_rotated.json,http://54.235.29.9/FacialAge/BNav_EC2/DepthDuration/v2_depth_duration_MTurk/v2_DepthDuration_HTML.html#438,438,1366,625,1366,768,9-19-2022,13-57-27,50,depth_duration_stimuli/002199_2014-06-28_18-33-56_260595134347_rgbf000074-resize_0/002199_2014-06-28_18-33-56_260595134347_rgbf000074-resize_0-target.png,250,1.996,20,3126,260,meters,jsons/v1_VE250_randls_26_rotated.json,1029467,1450601,53,Man
50,319604,DepthScenes,duration_manipulation_targetAtFixation,jsons/v1_VE250_randls_26_rotated.json,http://54.235.29.9/FacialAge/BNav_EC2/DepthDuration/v2_depth_duration_MTurk/v2_DepthDuration_HTML.html#438,438,1366,625,1366,768,9-19-2022,13-57-27,51,depth_duration_stimuli/001056_2014-06-08_18-46-44_260595134347_rgbf000068-resize_0/001056_2014-06-08_18-46-44_260595134347_rgbf000068-resize_0-target.png,250,2.6625,17,19011,262,meters,jsons/v1_VE250_randls_26_rotated.json,1029467,1450601,53,Man
51,319604,DepthScenes,duration_manipulation_targetAtFixation,jsons/v1_VE250_randls_26_rotated.json,http://54.235.29.9/FacialAge/BNav_EC2/DepthDuration/v2_depth_duration_MTurk/v2_DepthDuration_HTML.html#438,438,1366,625,1366,768,9-19-2022,13-57-27,52,depth_duration_stimuli/003081_2014-06-15_15-19-16_094959634447_rgbf000150-resize_1/003081_2014-06-15_15-19-16_094959634447_rgbf000150-resize_1-target.png,250,3.9125,18,7750,247,meters,jsons/v1_VE250_randls_26_rotated.json,1029467,1450601,53,Man
52,319604,DepthScenes,duration_manipulation_targetAtFixation,jsons/v1_VE250_randls_26_rotated.json,http://54.235.29.9/FacialAge/BNav_EC2/DepthDuration/v2_depth_duration_MTurk/v2_DepthDuration_HTML.html#438,438,1366,625,1366,768,9-19-2022,13-57-27,53,depth_duration_stimuli/001417_2014-06-19_16-25-36_260595134347_rgbf000115-resize_5/001417_2014-06-19_16-25-36_260595134347_rgbf000115-resize_5-target.png,250,4.6255,35,7413,238,meters,jsons/v1_VE250_randls_26_rotated.json,1029467,1450601,53,Man
53,319604,DepthScenes,duration_manipulation_targetAtFixation,jsons/v1_VE250_randls_26_rotated.json,http://54.235.29.9/FacialAge/BNav_EC2/DepthDuration/v2_depth_duration_MTurk/v2_DepthDuration_HTML.html#438,438,1366,625,1366,768,9-19-2022,13-57-27,54,depth_duration_stimuli/002209_2014-06-28_18-36-10_260595134347_rgbf000051-resize_1/002209_2014-06-28_18-36-10_260595134347_rgbf000051-resize_1-target.png,250,2.057,40,3804,250,meters,jsons/v1_VE250_randls_26_rotated.json,1029467,1450601,53,Man
54,319604,DepthScenes,duration_manipulation_targetAtFixation,jsons/v1_VE250_randls_26_rotated.json,http://54.235.29.9/FacialAge/BNav_EC2/DepthDuration/v2_depth_duration_MTurk/v2_DepthDuration_HTML.html#438,438,1366,625,1366,768,9-19-2022,13-57-27,55,depth_duration_stimuli/002763_2014-06-22_19-13-10_094959634447_rgbf000075-resize_4/002763_2014-06-22_19-13-10_094959634447_rgbf000075-resize_4-target.png,250,1.68375,30,45995,260,meters,jsons/v1_VE250_randls_26_rotated.json,1029467,1450601,53,Man
55,319604,DepthScenes,duration_manipulation_targetAtFixation,jsons/v1_VE250_randls_26_rotated.json,http://54.235.29.9/FacialAge/BNav_EC2/DepthDuration/v2_depth_duration_MTurk/v2_DepthDuration_HTML.html#438,438,1366,625,1366,768,9-19-2022,13-57-27,56,depth_duration_stimuli/002995_2014-06-15_12-31-26_094959634447_rgbf000150-resize_1/002995_2014-06-15_12-31-26_094959634447_rgbf000150-resize_1-target.png,250,3.8360000000000003,25,90554,250,meters,jsons/v1_VE250_randls_26_rotated.json,1029467,1450601,53,Man
56,319604,DepthScenes,duration_manipulation_targetAtFixation,jsons/v1_VE250_randls_26_rotated.json,http://54.235.29.9/FacialAge/BNav_EC2/DepthDuration/v2_depth_duration_MTurk/v2_DepthDuration_HTML.html#438,438,1366,625,1366,768,9-19-2022,13-57-27,57,depth_duration_stimuli/002748_2014-06-22_19-07-22_094959634447_rgbf000078-resize_1/002748_2014-06-22_19-07-22_094959634447_rgbf000078-resize_1-target.png,250,4.6705,35,3140,234,meters,jsons/v1_VE250_randls_26_rotated.json,1029467,1450601,53,Man
57,319604,DepthScenes,duration_manipulation_targetAtFixation,jsons/v1_VE250_randls_26_rotated.json,http://54.235.29.9/FacialAge/BNav_EC2/DepthDuration/v2_depth_duration_MTurk/v2_DepthDuration_HTML.html#438,438,1366,625,1366,768,9-19-2022,13-57-27,58,depth_duration_stimuli/001032_2014-06-08_13-23-17_260595134347_rgbf000021-resize_3/001032_2014-06-08_13-23-17_260595134347_rgbf000021-resize_3-target.png,250,3.2725,25,2734,246,meters,jsons/v1_VE250_randls_26_rotated.json,1029467,1450601,53,Man
58,319604,DepthScenes,duration_manipulation_targetAtFixation,jsons/v1_VE250_randls_26_rotated.json,http://54.235.29.9/FacialAge/BNav_EC2/DepthDuration/v2_depth_duration_MTurk/v2_DepthDuration_HTML.html#438,438,1366,625,1366,768,9-19-2022,13-57-27,59,depth_duration_stimuli/001059_2014-06-08_21-53-27_260595134347_rgbf000061-resize_4/001059_2014-06-08_21-53-27_260595134347_rgbf000061-resize_4-target.png,250,2.4185,30,3515,243,meters,jsons/v1_VE250_randls_26_rotated.json,1029467,1450601,53,Man
59,319604,DepthScenes,duration_manipulation_targetAtFixation,jsons/v1_VE250_randls_26_rotated.json,http://54.235.29.9/FacialAge/BNav_EC2/DepthDuration/v2_depth_duration_MTurk/v2_DepthDuration_HTML.html#438,438,1366,625,1366,768,9-19-2022,13-57-27,60,depth_duration_stimuli/001584_2014-06-20_11-07-43_260595134347_rgbf000002-resize_1/001584_2014-06-20_11-07-43_260595134347_rgbf000002-resize_1-target.png,250,3.53,30,6199,249,meters,jsons/v1_VE250_randls_26_rotated.json,1029467,1450601,53,Man
60,319604,DepthScenes,duration_manipulation_targetAtFixation,jsons/v1_VE250_randls_26_rotated.json,http://54.235.29.9/FacialAge/BNav_EC2/DepthDuration/v2_depth_duration_MTurk/v2_DepthDuration_HTML.html#438,438,1366,625,1366,768,9-19-2022,13-57-27,61,depth_duration_stimuli/003621_2014-05-23_18-06-08_094959634447_rgbf000101-resize_1/003621_2014-05-23_18-06-08_094959634447_rgbf000101-resize_1-target.png,250,3.9835,45,7396,233,meters,jsons/v1_VE250_randls_26_rotated.json,1029467,1450601,53,Man
61,319604,DepthScenes,duration_manipulation_targetAtFixation,jsons/v1_VE250_randls_26_rotated.json,http://54.235.29.9/FacialAge/BNav_EC2/DepthDuration/v2_depth_duration_MTurk/v2_DepthDuration_HTML.html#438,438,1366,625,1366,768,9-19-2022,13-57-27,62,depth_duration_stimuli/002568_2014-06-24_13-59-21_094959634447_rgbf000062-resize_4/002568_2014-06-24_13-59-21_094959634447_rgbf000062-resize_4-target.png,250,3.015,30,6747,250,meters,jsons/v1_VE250_randls_26_rotated.json,1029467,1450601,53,Man
62,319604,DepthScenes,duration_manipulation_targetAtFixation,jsons/v1_VE250_randls_26_rotated.json,http://54.235.29.9/FacialAge/BNav_EC2/DepthDuration/v2_depth_duration_MTurk/v2_DepthDuration_HTML.html#438,438,1366,625,1366,768,9-19-2022,13-57-27,63,depth_duration_stimuli/003492_2014-05-21_15-50-55_094959634447_rgbf000828-resize_1/003492_2014-05-21_15-50-55_094959634447_rgbf000828-resize_1-target.png,250,4.06875,35,6864,255,meters,jsons/v1_VE250_randls_26_rotated.json,1029467,1450601,53,Man
63,319604,DepthScenes,duration_manipulation_targetAtFixation,jsons/v1_VE250_randls_26_rotated.json,http://54.235.29.9/FacialAge/BNav_EC2/DepthDuration/v2_depth_duration_MTurk/v2_DepthDuration_HTML.html#438,438,1366,625,1366,768,9-19-2022,13-57-27,64,depth_duration_stimuli/001815_2014-06-26_20-52-55_260595134347_rgbf000020-resize_0/001815_2014-06-26_20-52-55_260595134347_rgbf000020-resize_0-target.png,250,3.3865,40,2827,247,meters,jsons/v1_VE250_randls_26_rotated.json,1029467,1450601,53,Man
64,319604,DepthScenes,duration_manipulation_targetAtFixation,jsons/v1_VE250_randls_26_rotated.json,http://54.235.29.9/FacialAge/BNav_EC2/DepthDuration/v2_depth_duration_MTurk/v2_DepthDuration_HTML.html#438,438,1366,625,1366,768,9-19-2022,13-57-27,65,depth_duration_stimuli/001808_2014-06-26_20-50-58_260595134347_rgbf000029-resize_1/001808_2014-06-26_20-50-58_260595134347_rgbf000029-resize_1-target.png,250,4.249,45,2892,248,meters,jsons/v1_VE250_randls_26_rotated.json,1029467,1450601,53,Man
65,319604,DepthScenes,duration_manipulation_targetAtFixation,jsons/v1_VE250_randls_26_rotated.json,http://54.235.29.9/FacialAge/BNav_EC2/DepthDuration/v2_depth_duration_MTurk/v2_DepthDuration_HTML.html#438,438,1366,625,1366,768,9-19-2022,13-57-27,66,depth_duration_stimuli/001540_2014-06-20_17-01-05_260595134347_rgbf000086-resize_2/001540_2014-06-20_17-01-05_260595134347_rgbf000086-resize-original.jpg,250,1.459,35,3911,249,meters,jsons/v1_VE250_randls_26_rotated.json,1029467,1450601,53,Man
66,319604,DepthScenes,duration_manipulation_targetAtFixation,jsons/v1_VE250_randls_26_rotated.json,http://54.235.29.9/FacialAge/BNav_EC2/DepthDuration/v2_depth_duration_MTurk/v2_DepthDuration_HTML.html#438,438,1366,625,1366,768,9-19-2022,13-57-27,67,depth_duration_stimuli/003490_2014-05-21_15-50-11_094959634447_rgbf000101-resize_3/003490_2014-05-21_15-50-11_094959634447_rgbf000101-resize_3-target.png,250,3.6445,40,2761,257,meters,jsons/v1_VE250_randls_26_rotated.json,1029467,1450601,53,Man
67,319604,DepthScenes,duration_manipulation_targetAtFixation,jsons/v1_VE250_randls_26_rotated.json,http://54.235.29.9/FacialAge/BNav_EC2/DepthDuration/v2_depth_duration_MTurk/v2_DepthDuration_HTML.html#438,438,1366,625,1366,768,9-19-2022,13-57-27,68,depth_duration_stimuli/001175_2014-06-17_15-45-55_260595134347_rgbf000129-resize_4/001175_2014-06-17_15-45-55_260595134347_rgbf000129-resize_4-target.png,250,4.255,45,2715,255,meters,jsons/v1_VE250_randls_26_rotated.json,1029467,1450601,53,Man
68,319604,DepthScenes,duration_manipulation_targetAtFixation,jsons/v1_VE250_randls_26_rotated.json,http://54.235.29.9/FacialAge/BNav_EC2/DepthDuration/v2_depth_duration_MTurk/v2_DepthDuration_HTML.html#438,438,1366,625,1366,768,9-19-2022,13-57-27,69,depth_duration_stimuli/003083_2014-06-15_15-21-03_094959634447_rgbf000063-resize_1/003083_2014-06-15_15-21-03_094959634447_rgbf000063-resize_1-target.png,250,4.1405,35,2382,247,meters,jsons/v1_VE250_randls_26_rotated.json,1029467,1450601,53,Man
69,319604,DepthScenes,duration_manipulation_targetAtFixation,jsons/v1_VE250_randls_26_rotated.json,http://54.235.29.9/FacialAge/BNav_EC2/DepthDuration/v2_depth_duration_MTurk/v2_DepthDuration_HTML.html#438,438,1366,625,1366,768,9-19-2022,13-57-27,70,depth_duration_stimuli/000486_2014-06-09_20-47-20_260595134347_rgbf000143-resize_2/000486_2014-06-09_20-47-20_260595134347_rgbf000143-resize_2-target.png,250,4.8325,40,25641,245,meters,jsons/v1_VE250_randls_26_rotated.json,1029467,1450601,53,Man
70,319604,DepthScenes,duration_manipulation_targetAtFixation,jsons/v1_VE250_randls_26_rotated.json,http://54.235.29.9/FacialAge/BNav_EC2/DepthDuration/v2_depth_duration_MTurk/v2_DepthDuration_HTML.html#438,438,1366,625,1366,768,9-19-2022,13-57-27,71,depth_duration_stimuli/002639_2014-06-24_14-51-37_094959634447_rgbf000074-resize_4/002639_2014-06-24_14-51-37_094959634447_rgbf000074-resize_4-target.png,250,4.0375,35,2948,250,meters,jsons/v1_VE250_randls_26_rotated.json,1029467,1450601,53,Man
71,319604,DepthScenes,duration_manipulation_targetAtFixation,jsons/v1_VE250_randls_26_rotated.json,http://54.235.29.9/FacialAge/BNav_EC2/DepthDuration/v2_depth_duration_MTurk/v2_DepthDuration_HTML.html#438,438,1366,625,1366,768,9-19-2022,13-57-27,72,depth_duration_stimuli/003292_2014-05-14_21-53-49_094959634447_rgbf000100-resize_2/003292_2014-05-14_21-53-49_094959634447_rgbf000100-resize_2-target.png,250,3.4815,35,3003,264,meters,jsons/v1_VE250_randls_26_rotated.json,1029467,1450601,53,Man
72,319604,DepthScenes,duration_manipulation_targetAtFixation,jsons/v1_VE250_randls_26_rotated.json,http://54.235.29.9/FacialAge/BNav_EC2/DepthDuration/v2_depth_duration_MTurk/v2_DepthDuration_HTML.html#438,438,1366,625,1366,768,9-19-2022,13-57-27,73,depth_duration_stimuli/001650_2014-06-20_12-09-00_260595134347_rgbf000087-resize_3/001650_2014-06-20_12-09-00_260595134347_rgbf000087-resize_3-target.png,250,1.9505,25,2589,235,meters,jsons/v1_VE250_randls_26_rotated.json,1029467,1450601,53,Man
73,319604,DepthScenes,duration_manipulation_targetAtFixation,jsons/v1_VE250_randls_26_rotated.json,http://54.235.29.9/FacialAge/BNav_EC2/DepthDuration/v2_depth_duration_MTurk/v2_DepthDuration_HTML.html#438,438,1366,625,1366,768,9-19-2022,13-57-27,74,depth_duration_stimuli/000682_2014-06-08_23-14-58_260595134347_rgbf000041-resize_5/000682_2014-06-08_23-14-58_260595134347_rgbf000041-resize_5-target.png,250,2.7239999999999998,35,2553,249,meters,jsons/v1_VE250_randls_26_rotated.json,1029467,1450601,53,Man
74,319604,DepthScenes,duration_manipulation_targetAtFixation,jsons/v1_VE250_randls_26_rotated.json,http://54.235.29.9/FacialAge/BNav_EC2/DepthDuration/v2_depth_duration_MTurk/v2_DepthDuration_HTML.html#438,438,1366,625,1366,768,9-19-2022,13-57-27,75,depth_duration_stimuli/002657_2014-06-13_15-29-54_094959634447_rgbf000150-resize_1/002657_2014-06-13_15-29-54_094959634447_rgbf000150-resize_1-target.png,250,4.919,40,2945,249,meters,jsons/v1_VE250_randls_26_rotated.json,1029467,1450601,53,Man
75,319604,DepthScenes,duration_manipulation_targetAtFixation,jsons/v1_VE250_randls_26_rotated.json,http://54.235.29.9/FacialAge/BNav_EC2/DepthDuration/v2_depth_duration_MTurk/v2_DepthDuration_HTML.html#438,438,1366,625,1366,768,9-19-2022,13-57-27,76,depth_duration_stimuli/002375_2014-06-28_20-13-44_260595134347_rgbf000032-resize_1/002375_2014-06-28_20-13-44_260595134347_rgbf000032-resize_1-target.png,250,4.0175,30,2582,250,meters,jsons/v1_VE250_randls_26_rotated.json,1029467,1450601,53,Man
76,319604,DepthScenes,duration_manipulation_targetAtFixation,jsons/v1_VE250_randls_26_rotated.json,http://54.235.29.9/FacialAge/BNav_EC2/DepthDuration/v2_depth_duration_MTurk/v2_DepthDuration_HTML.html#438,438,1366,625,1366,768,9-19-2022,13-57-27,77,depth_duration_stimuli/002545_2014-06-24_13-38-53_094959634447_rgbf000080-resize_4/002545_2014-06-24_13-38-53_094959634447_rgbf000080-resize_4-target.png,250,1.9205,25,3024,246,meters,jsons/v1_VE250_randls_26_rotated.json,1029467,1450601,53,Man
77,319604,DepthScenes,duration_manipulation_targetAtFixation,jsons/v1_VE250_randls_26_rotated.json,http://54.235.29.9/FacialAge/BNav_EC2/DepthDuration/v2_depth_duration_MTurk/v2_DepthDuration_HTML.html#438,438,1366,625,1366,768,9-19-2022,13-57-27,78,depth_duration_stimuli/001092_2014-06-15_17-34-58_260595134347_rgbf000171-resize_3/001092_2014-06-15_17-34-58_260595134347_rgbf000171-resize_3-target.png,250,2.6935,30,2528,250,meters,jsons/v1_VE250_randls_26_rotated.json,1029467,1450601,53,Man
78,319604,DepthScenes,duration_manipulation_targetAtFixation,jsons/v1_VE250_randls_26_rotated.json,http://54.235.29.9/FacialAge/BNav_EC2/DepthDuration/v2_depth_duration_MTurk/v2_DepthDuration_HTML.html#438,438,1366,625,1366,768,9-19-2022,13-57-27,79,depth_duration_stimuli/002875_2014-06-01_15-19-00_094959634447_rgbf000151-resize_1/002875_2014-06-01_15-19-00_094959634447_rgbf000151-resize_1-target.png,250,1.9675,25,2560,250,meters,jsons/v1_VE250_randls_26_rotated.json,1029467,1450601,53,Man
79,319604,DepthScenes,duration_manipulation_targetAtFixation,jsons/v1_VE250_randls_26_rotated.json,http://54.235.29.9/FacialAge/BNav_EC2/DepthDuration/v2_depth_duration_MTurk/v2_DepthDuration_HTML.html#438,438,1366,625,1366,768,9-19-2022,13-57-27,80,depth_duration_stimuli/001011_2014-06-08_23-18-54_260595134347_rgbf000044-resize_4/001011_2014-06-08_23-18-54_260595134347_rgbf000044-resize_4-target.png,250,2.4730000000000003,25,6032,248,meters,jsons/v1_VE250_randls_26_rotated.json,1029467,1450601,53,Man
80,319604,DepthScenes,duration_manipulation_targetAtFixation,jsons/v1_VE250_randls_26_rotated.json,http://54.235.29.9/FacialAge/BNav_EC2/DepthDuration/v2_depth_duration_MTurk/v2_DepthDuration_HTML.html#438,438,1366,625,1366,768,9-19-2022,13-57-27,81,depth_duration_stimuli/002425_2014-06-28_20-27-29_260595134347_rgbf000031-resize_8/002425_2014-06-28_20-27-29_260595134347_rgbf000031-resize_8-target.png,250,3.8960000000000004,35,2596,235,meters,jsons/v1_VE250_randls_26_rotated.json,1029467,1450601,53,Man
81,319604,DepthScenes,duration_manipulation_targetAtFixation,jsons/v1_VE250_randls_26_rotated.json,http://54.235.29.9/FacialAge/BNav_EC2/DepthDuration/v2_depth_duration_MTurk/v2_DepthDuration_HTML.html#438,438,1366,625,1366,768,9-19-2022,13-57-27,82,depth_duration_stimuli/000642_2014-06-08_16-59-25_260595134347_rgbf000098-resize_2/000642_2014-06-08_16-59-25_260595134347_rgbf000098-resize_2-target.png,250,2.8815,20,2625,249,meters,jsons/v1_VE250_randls_26_rotated.json,1029467,1450601,53,Man
82,319604,DepthScenes,duration_manipulation_targetAtFixation,jsons/v1_VE250_randls_26_rotated.json,http://54.235.29.9/FacialAge/BNav_EC2/DepthDuration/v2_depth_duration_MTurk/v2_DepthDuration_HTML.html#438,438,1366,625,1366,768,9-19-2022,13-57-27,83,depth_duration_stimuli/002637_2014-06-24_14-51-13_094959634447_rgbf000066-resize_4/002637_2014-06-24_14-51-13_094959634447_rgbf000066-resize_4-target.png,250,1.9955,30,2597,252,meters,jsons/v1_VE250_randls_26_rotated.json,1029467,1450601,53,Man
83,319604,DepthScenes,duration_manipulation_targetAtFixation,jsons/v1_VE250_randls_26_rotated.json,http://54.235.29.9/FacialAge/BNav_EC2/DepthDuration/v2_depth_duration_MTurk/v2_DepthDuration_HTML.html#438,438,1366,625,1366,768,9-19-2022,13-57-27,84,depth_duration_stimuli/003534_2014-05-22_15-06-10_094959634447_rgbf000102-resize_4/003534_2014-05-22_15-06-10_094959634447_rgbf000102-resize_4-target.png,250,1.426,20,6398,242,meters,jsons/v1_VE250_randls_26_rotated.json,1029467,1450601,53,Man
84,319604,DepthScenes,duration_manipulation_targetAtFixation,jsons/v1_VE250_randls_26_rotated.json,http://54.235.29.9/FacialAge/BNav_EC2/DepthDuration/v2_depth_duration_MTurk/v2_DepthDuration_HTML.html#438,438,1366,625,1366,768,9-19-2022,13-57-27,85,depth_duration_stimuli/000483_2014-06-09_20-41-45_260595134347_rgbf000116-resize_4/000483_2014-06-09_20-41-45_260595134347_rgbf000116-resize_4-target.png,250,1.337,30,2616,248,meters,jsons/v1_VE250_randls_26_rotated.json,1029467,1450601,53,Man
85,319604,DepthScenes,duration_manipulation_targetAtFixation,jsons/v1_VE250_randls_26_rotated.json,http://54.235.29.9/FacialAge/BNav_EC2/DepthDuration/v2_depth_duration_MTurk/v2_DepthDuration_HTML.html#438,438,1366,625,1366,768,9-19-2022,13-57-27,86,depth_duration_stimuli/000469_2014-06-09_19-42-10_260595134347_rgbf000081-resize_1/000469_2014-06-09_19-42-10_260595134347_rgbf000081-resize_1-target.png,250,1.652,20,2754,244,meters,jsons/v1_VE250_randls_26_rotated.json,1029467,1450601,53,Man
86,319604,DepthScenes,duration_manipulation_targetAtFixation,jsons/v1_VE250_randls_26_rotated.json,http://54.235.29.9/FacialAge/BNav_EC2/DepthDuration/v2_depth_duration_MTurk/v2_DepthDuration_HTML.html#438,438,1366,625,1366,768,9-19-2022,13-57-27,87,depth_duration_stimuli/000734_2014-06-08_17-39-11_260595134347_rgbf000128-resize_2/000734_2014-06-08_17-39-11_260595134347_rgbf000128-resize_2-target.png,250,4.098,30,2898,250,meters,jsons/v1_VE250_randls_26_rotated.json,1029467,1450601,53,Man
87,319604,DepthScenes,duration_manipulation_targetAtFixation,jsons/v1_VE250_randls_26_rotated.json,http://54.235.29.9/FacialAge/BNav_EC2/DepthDuration/v2_depth_duration_MTurk/v2_DepthDuration_HTML.html#438,438,1366,625,1366,768,9-19-2022,13-57-27,88,depth_duration_stimuli/000739_2014-06-08_18-45-58_260595134347_rgbf000068-resize_1/000739_2014-06-08_18-45-58_260595134347_rgbf000068-resize_1-target.png,250,3.534,35,2828,250,meters,jsons/v1_VE250_randls_26_rotated.json,1029467,1450601,53,Man
88,319604,DepthScenes,duration_manipulation_targetAtFixation,jsons/v1_VE250_randls_26_rotated.json,http://54.235.29.9/FacialAge/BNav_EC2/DepthDuration/v2_depth_duration_MTurk/v2_DepthDuration_HTML.html#438,438,1366,625,1366,768,9-19-2022,13-57-27,89,depth_duration_stimuli/003129_2014-05-12_10-48-10_094959634447_rgbf000100-resize_0/003129_2014-05-12_10-48-10_094959634447_rgbf000100-resize_0-target.png,250,4.9305,35,2640,250,meters,jsons/v1_VE250_randls_26_rotated.json,1029467,1450601,53,Man
89,319604,DepthScenes,duration_manipulation_targetAtFixation,jsons/v1_VE250_randls_26_rotated.json,http://54.235.29.9/FacialAge/BNav_EC2/DepthDuration/v2_depth_duration_MTurk/v2_DepthDuration_HTML.html#438,438,1366,625,1366,768,9-19-2022,13-57-27,90,depth_duration_stimuli/000414_2014-06-04_19-49-13_260595134347_rgbf000044-resize_0/000414_2014-06-04_19-49-13_260595134347_rgbf000044-resize_0-target.png,250,4.329,20,3046,248,meters,jsons/v1_VE250_randls_26_rotated.json,1029467,1450601,53,Man
90,319604,DepthScenes,duration_manipulation_targetAtFixation,jsons/v1_VE250_randls_26_rotated.json,http://54.235.29.9/FacialAge/BNav_EC2/DepthDuration/v2_depth_duration_MTurk/v2_DepthDuration_HTML.html#438,438,1366,625,1366,768,9-19-2022,13-57-27,91,depth_duration_stimuli/002414_2014-06-28_20-24-58_260595134347_rgbf000067-resize_4/002414_2014-06-28_20-24-58_260595134347_rgbf000067-resize_4-target.png,250,4.363,30,2731,249,meters,jsons/v1_VE250_randls_26_rotated.json,1029467,1450601,53,Man
91,319604,DepthScenes,duration_manipulation_targetAtFixation,jsons/v1_VE250_randls_26_rotated.json,http://54.235.29.9/FacialAge/BNav_EC2/DepthDuration/v2_depth_duration_MTurk/v2_DepthDuration_HTML.html#438,438,1366,625,1366,768,9-19-2022,13-57-27,92,depth_duration_stimuli/000773_2014-06-08_22-24-54_260595134347_rgbf000093-resize_1/000773_2014-06-08_22-24-54_260595134347_rgbf000093-resize_1-target.png,250,4.973,35,2540,242,meters,jsons/v1_VE250_randls_26_rotated.json,1029467,1450601,53,Man
92,319604,DepthScenes,duration_manipulation_targetAtFixation,jsons/v1_VE250_randls_26_rotated.json,http://54.235.29.9/FacialAge/BNav_EC2/DepthDuration/v2_depth_duration_MTurk/v2_DepthDuration_HTML.html#438,438,1366,625,1366,768,9-19-2022,13-57-27,93,depth_duration_stimuli/003587_2014-05-23_16-48-02_094959634447_rgbf002384-resize_2/003587_2014-05-23_16-48-02_094959634447_rgbf002384-resize_2-target.png,250,1.357,20,2729,256,meters,jsons/v1_VE250_randls_26_rotated.json,1029467,1450601,53,Man
93,319604,DepthScenes,duration_manipulation_targetAtFixation,jsons/v1_VE250_randls_26_rotated.json,http://54.235.29.9/FacialAge/BNav_EC2/DepthDuration/v2_depth_duration_MTurk/v2_DepthDuration_HTML.html#438,438,1366,625,1366,768,9-19-2022,13-57-27,94,depth_duration_stimuli/001167_2014-06-17_15-38-07_260595134347_rgbf000108-resize_0/001167_2014-06-17_15-38-07_260595134347_rgbf000108-resize_0-target.png,250,1.8505,25,2913,240,meters,jsons/v1_VE250_randls_26_rotated.json,1029467,1450601,53,Man
94,319604,DepthScenes,duration_manipulation_targetAtFixation,jsons/v1_VE250_randls_26_rotated.json,http://54.235.29.9/FacialAge/BNav_EC2/DepthDuration/v2_depth_duration_MTurk/v2_DepthDuration_HTML.html#438,438,1366,625,1366,768,9-19-2022,13-57-27,95,depth_duration_stimuli/002949_2014-06-26_15-57-42_094959634447_rgbf000079-resize_1/002949_2014-06-26_15-57-42_094959634447_rgbf000079-resize_1-target.png,250,1.8915,25,4992,251,meters,jsons/v1_VE250_randls_26_rotated.json,1029467,1450601,53,Man
95,319604,DepthScenes,duration_manipulation_targetAtFixation,jsons/v1_VE250_randls_26_rotated.json,http://54.235.29.9/FacialAge/BNav_EC2/DepthDuration/v2_depth_duration_MTurk/v2_DepthDuration_HTML.html#438,438,1366,625,1366,768,9-19-2022,13-57-27,96,depth_duration_stimuli/000522_2014-06-08_13-35-06_260595134347_rgbf000244-resize_1/000522_2014-06-08_13-35-06_260595134347_rgbf000244-resize_1-target.png,250,2.3715,25,19543,249,meters,jsons/v1_VE250_randls_26_rotated.json,1029467,1450601,53,Man
96,319604,DepthScenes,duration_manipulation_targetAtFixation,jsons/v1_VE250_randls_26_rotated.json,http://54.235.29.9/FacialAge/BNav_EC2/DepthDuration/v2_depth_duration_MTurk/v2_DepthDuration_HTML.html#438,438,1366,625,1366,768,9-19-2022,13-57-27,97,depth_duration_stimuli/003495_2014-05-21_16-01-51_094959634447_rgbf000100-resize_3/003495_2014-05-21_16-01-51_094959634447_rgbf000100-resize_3-target.png,250,1.6255,15,2869,250,meters,jsons/v1_VE250_randls_26_rotated.json,1029467,1450601,53,Man
97,319604,DepthScenes,duration_manipulation_targetAtFixation,jsons/v1_VE250_randls_26_rotated.json,http://54.235.29.9/FacialAge/BNav_EC2/DepthDuration/v2_depth_duration_MTurk/v2_DepthDuration_HTML.html#438,438,1366,625,1366,768,9-19-2022,13-57-27,98,depth_duration_stimuli/001244_2014-06-17_16-47-45_260595134347_rgbf000030-resize_4/001244_2014-06-17_16-47-45_260595134347_rgbf000030-resize_4-target.png,250,2.0425,20,14799,251,meters,jsons/v1_VE250_randls_26_rotated.json,1029467,1450601,53,Man
98,319604,DepthScenes,duration_manipulation_targetAtFixation,jsons/v1_VE250_randls_26_rotated.json,http://54.235.29.9/FacialAge/BNav_EC2/DepthDuration/v2_depth_duration_MTurk/v2_DepthDuration_HTML.html#438,438,1366,625,1366,768,9-19-2022,13-57-27,99,depth_duration_stimuli/001222_2014-06-17_16-24-06_260595134347_rgbf000073-resize_0/001222_2014-06-17_16-24-06_260595134347_rgbf000073-resize-original.jpg,250,1.4385,35,2647,248,meters,jsons/v1_VE250_randls_26_rotated.json,1029467,1450601,53,Man
99,319604,DepthScenes,duration_manipulation_targetAtFixation,jsons/v1_VE250_randls_26_rotated.json,http://54.235.29.9/FacialAge/BNav_EC2/DepthDuration/v2_depth_duration_MTurk/v2_DepthDuration_HTML.html#438,438,1366,625,1366,768,9-19-2022,13-57-27,100,depth_duration_stimuli/000742_2014-06-08_18-48-09_260595134347_rgbf000164-resize_4/000742_2014-06-08_18-48-09_260595134347_rgbf000164-resize_4-target.png,250,4.632,25,2696,255,meters,jsons/v1_VE250_randls_26_rotated.json,1029467,1450601,53,Man
100,319604,DepthScenes,duration_manipulation_targetAtFixation,jsons/v1_VE250_randls_26_rotated.json,http://54.235.29.9/FacialAge/BNav_EC2/DepthDuration/v2_depth_duration_MTurk/v2_DepthDuration_HTML.html#438,438,1366,625,1366,768,9-19-2022,13-57-27,101,depth_duration_stimuli/001066_2014-06-08_22-03-20_260595134347_rgbf000066-resize_4/001066_2014-06-08_22-03-20_260595134347_rgbf000066-resize_4-target.png,250,4.2330000000000005,25,4436,234,meters,jsons/v1_VE250_randls_26_rotated.json,1029467,1450601,53,Man
101,319604,DepthScenes,duration_manipulation_targetAtFixation,jsons/v1_VE250_randls_26_rotated.json,http://54.235.29.9/FacialAge/BNav_EC2/DepthDuration/v2_depth_duration_MTurk/v2_DepthDuration_HTML.html#438,438,1366,625,1366,768,9-19-2022,13-57-27,102,depth_duration_stimuli/001617_2014-06-20_11-35-32_260595134347_rgbf000066-resize_1/001617_2014-06-20_11-35-32_260595134347_rgbf000066-resize_1-target.png,250,3.7910000000000004,35,3164,249,meters,jsons/v1_VE250_randls_26_rotated.json,1029467,1450601,53,Man
102,319604,DepthScenes,duration_manipulation_targetAtFixation,jsons/v1_VE250_randls_26_rotated.json,http://54.235.29.9/FacialAge/BNav_EC2/DepthDuration/v2_depth_duration_MTurk/v2_DepthDuration_HTML.html#438,438,1366,625,1366,768,9-19-2022,13-57-27,103,depth_duration_stimuli/001806_2014-06-26_20-50-20_260595134347_rgbf000091-resize_1/001806_2014-06-26_20-50-20_260595134347_rgbf000091-resize_1-target.png,250,2.7305,15,2626,247,meters,jsons/v1_VE250_randls_26_rotated.json,1029467,1450601,53,Man
103,319604,DepthScenes,duration_manipulation_targetAtFixation,jsons/v1_VE250_randls_26_rotated.json,http://54.235.29.9/FacialAge/BNav_EC2/DepthDuration/v2_depth_duration_MTurk/v2_DepthDuration_HTML.html#438,438,1366,625,1366,768,9-19-2022,13-57-27,104,depth_duration_stimuli/001516_2014-06-20_16-25-09_260595134347_rgbf000076-resize_2/001516_2014-06-20_16-25-09_260595134347_rgbf000076-resize_2-target.png,250,1.7445,25,3025,257,meters,jsons/v1_VE250_randls_26_rotated.json,1029467,1450601,53,Man
104,319604,DepthScenes,duration_manipulation_targetAtFixation,jsons/v1_VE250_randls_26_rotated.json,http://54.235.29.9/FacialAge/BNav_EC2/DepthDuration/v2_depth_duration_MTurk/v2_DepthDuration_HTML.html#438,438,1366,625,1366,768,9-19-2022,13-57-27,105,depth_duration_stimuli/002118_2014-06-25_20-32-08_260595134347_rgbf000078-resize_1/002118_2014-06-25_20-32-08_260595134347_rgbf000078-resize_1-target.png,250,2.6460000000000004,30,3089,258,meters,jsons/v1_VE250_randls_26_rotated.json,1029467,1450601,53,Man
105,319604,DepthScenes,duration_manipulation_targetAtFixation,jsons/v1_VE250_randls_26_rotated.json,http://54.235.29.9/FacialAge/BNav_EC2/DepthDuration/v2_depth_duration_MTurk/v2_DepthDuration_HTML.html#438,438,1366,625,1366,768,9-19-2022,13-57-27,106,depth_duration_stimuli/001132_2014-06-17_14-48-54_260595134347_rgbf000100-resize_2/001132_2014-06-17_14-48-54_260595134347_rgbf000100-resize_2-target.png,250,3.753,30,2864,252,meters,jsons/v1_VE250_randls_26_rotated.json,1029467,1450601,53,Man
106,319604,DepthScenes,duration_manipulation_targetAtFixation,jsons/v1_VE250_randls_26_rotated.json,http://54.235.29.9/FacialAge/BNav_EC2/DepthDuration/v2_depth_duration_MTurk/v2_DepthDuration_HTML.html#438,438,1366,625,1366,768,9-19-2022,13-57-27,107,depth_duration_stimuli/001133_2014-06-17_14-49-16_260595134347_rgbf000100-resize_0/001133_2014-06-17_14-49-16_260595134347_rgbf000100-resize_0-target.png,250,4.2115,35,2644,248,meters,jsons/v1_VE250_randls_26_rotated.json,1029467,1450601,53,Man
107,319604,DepthScenes,duration_manipulation_targetAtFixation,jsons/v1_VE250_randls_26_rotated.json,http://54.235.29.9/FacialAge/BNav_EC2/DepthDuration/v2_depth_duration_MTurk/v2_DepthDuration_HTML.html#438,438,1366,625,1366,768,9-19-2022,13-57-27,108,depth_duration_stimuli/001392_2014-06-19_16-07-59_260595134347_rgbf000046-resize_1/001392_2014-06-19_16-07-59_260595134347_rgbf000046-resize_1-target.png,250,4.135,30,8298,250,meters,jsons/v1_VE250_randls_26_rotated.json,1029467,1450601,53,Man
108,319604,DepthScenes,duration_manipulation_targetAtFixation,jsons/v1_VE250_randls_26_rotated.json,http://54.235.29.9/FacialAge/BNav_EC2/DepthDuration/v2_depth_duration_MTurk/v2_DepthDuration_HTML.html#438,438,1366,625,1366,768,9-19-2022,13-57-27,109,depth_duration_stimuli/001570_2014-06-20_17-21-09_260595134347_rgbf000135-resize_4/001570_2014-06-20_17-21-09_260595134347_rgbf000135-resize_4-target.png,250,4.467,30,5103,256,meters,jsons/v1_VE250_randls_26_rotated.json,1029467,1450601,53,Man
109,319604,DepthScenes,duration_manipulation_targetAtFixation,jsons/v1_VE250_randls_26_rotated.json,http://54.235.29.9/FacialAge/BNav_EC2/DepthDuration/v2_depth_duration_MTurk/v2_DepthDuration_HTML.html#438,438,1366,625,1366,768,9-19-2022,13-57-27,110,depth_duration_stimuli/003010_2014-06-15_12-54-35_094959634447_rgbf000112-resize_0/003010_2014-06-15_12-54-35_094959634447_rgbf000112-resize_0-target.png,250,3.1185,27,5377,251,meters,jsons/v1_VE250_randls_26_rotated.json,1029467,1450601,53,Man
110,319604,DepthScenes,duration_manipulation_targetAtFixation,jsons/v1_VE250_randls_26_rotated.json,http://54.235.29.9/FacialAge/BNav_EC2/DepthDuration/v2_depth_duration_MTurk/v2_DepthDuration_HTML.html#438,438,1366,625,1366,768,9-19-2022,13-57-27,111,depth_duration_stimuli/001810_2014-06-26_20-51-35_260595134347_rgbf000040-resize_3/001810_2014-06-26_20-51-35_260595134347_rgbf000040-resize_3-target.png,250,2.2525,30,2697,248,meters,jsons/v1_VE250_randls_26_rotated.json,1029467,1450601,53,Man
111,319604,DepthScenes,duration_manipulation_targetAtFixation,jsons/v1_VE250_randls_26_rotated.json,http://54.235.29.9/FacialAge/BNav_EC2/DepthDuration/v2_depth_duration_MTurk/v2_DepthDuration_HTML.html#438,438,1366,625,1366,768,9-19-2022,13-57-27,112,depth_duration_stimuli/001235_2014-06-17_16-37-36_260595134347_rgbf000084-resize_4/001235_2014-06-17_16-37-36_260595134347_rgbf000084-resize_4-target.png,250,3.6605,35,3442,261,meters,jsons/v1_VE250_randls_26_rotated.json,1029467,1450601,53,Man
112,319604,DepthScenes,duration_manipulation_targetAtFixation,jsons/v1_VE250_randls_26_rotated.json,http://54.235.29.9/FacialAge/BNav_EC2/DepthDuration/v2_depth_duration_MTurk/v2_DepthDuration_HTML.html#438,438,1366,625,1366,768,9-19-2022,13-57-27,113,depth_duration_stimuli/000788_2014-06-08_22-34-36_260595134347_rgbf000131-resize_1/000788_2014-06-08_22-34-36_260595134347_rgbf000131-resize_1-target.png,250,3.359,27,3952,249,meters,jsons/v1_VE250_randls_26_rotated.json,1029467,1450601,53,Man
113,319604,DepthScenes,duration_manipulation_targetAtFixation,jsons/v1_VE250_randls_26_rotated.json,http://54.235.29.9/FacialAge/BNav_EC2/DepthDuration/v2_depth_duration_MTurk/v2_DepthDuration_HTML.html#438,438,1366,625,1366,768,9-19-2022,13-57-27,114,depth_duration_stimuli/000409_2014-06-04_19-23-33_260595134347_rgbf000067-resize_0/000409_2014-06-04_19-23-33_260595134347_rgbf000067-resize_0-target.png,250,3.7335,20,2717,242,meters,jsons/v1_VE250_randls_26_rotated.json,1029467,1450601,53,Man
114,319604,DepthScenes,duration_manipulation_targetAtFixation,jsons/v1_VE250_randls_26_rotated.json,http://54.235.29.9/FacialAge/BNav_EC2/DepthDuration/v2_depth_duration_MTurk/v2_DepthDuration_HTML.html#438,438,1366,625,1366,768,9-19-2022,13-57-27,115,depth_duration_stimuli/002663_2014-06-13_15-50-26_094959634447_rgbf000075-resize_1/002663_2014-06-13_15-50-26_094959634447_rgbf000075-resize_1-target.png,250,4.7495,27,9276,235,meters,jsons/v1_VE250_randls_26_rotated.json,1029467,1450601,53,Man
115,319604,DepthScenes,duration_manipulation_targetAtFixation,jsons/v1_VE250_randls_26_rotated.json,http://54.235.29.9/FacialAge/BNav_EC2/DepthDuration/v2_depth_duration_MTurk/v2_DepthDuration_HTML.html#438,438,1366,625,1366,768,9-19-2022,13-57-27,116,depth_duration_stimuli/003228_2014-05-14_13-42-35_094959634447_rgbf000101-resize_1/003228_2014-05-14_13-42-35_094959634447_rgbf000101-resize_1-target.png,250,1.9680000000000002,15,3308,247,meters,jsons/v1_VE250_randls_26_rotated.json,1029467,1450601,53,Man
116,319604,DepthScenes,duration_manipulation_targetAtFixation,jsons/v1_VE250_randls_26_rotated.json,http://54.235.29.9/FacialAge/BNav_EC2/DepthDuration/v2_depth_duration_MTurk/v2_DepthDuration_HTML.html#438,438,1366,625,1366,768,9-19-2022,13-57-27,117,depth_duration_stimuli/002600_2014-06-24_14-27-04_094959634447_rgbf000074-resize_2/002600_2014-06-24_14-27-04_094959634447_rgbf000074-resize_2-target.png,250,2.7575,10,3529,244,meters,jsons/v1_VE250_randls_26_rotated.json,1029467,1450601,53,Man
117,319604,DepthScenes,duration_manipulation_targetAtFixation,jsons/v1_VE250_randls_26_rotated.json,http://54.235.29.9/FacialAge/BNav_EC2/DepthDuration/v2_depth_duration_MTurk/v2_DepthDuration_HTML.html#438,438,1366,625,1366,768,9-19-2022,13-57-27,118,depth_duration_stimuli/000103_2014-05-14_22-01-17_260595134347_rgbf000152-resize_5/000103_2014-05-14_22-01-17_260595134347_rgbf000152-resize_5-target.png,250,1.993,30,2605,239,meters,jsons/v1_VE250_randls_26_rotated.json,1029467,1450601,53,Man
118,319604,DepthScenes,duration_manipulation_targetAtFixation,jsons/v1_VE250_randls_26_rotated.json,http://54.235.29.9/FacialAge/BNav_EC2/DepthDuration/v2_depth_duration_MTurk/v2_DepthDuration_HTML.html#438,438,1366,625,1366,768,9-19-2022,13-57-27,119,depth_duration_stimuli/001555_2014-06-20_17-12-10_260595134347_rgbf000065-resize_4/001555_2014-06-20_17-12-10_260595134347_rgbf000065-resize_4-target.png,250,1.633,30,8921,249,meters,jsons/v1_VE250_randls_26_rotated.json,1029467,1450601,53,Man
119,319604,DepthScenes,duration_manipulation_targetAtFixation,jsons/v1_VE250_randls_26_rotated.json,http://54.235.29.9/FacialAge/BNav_EC2/DepthDuration/v2_depth_duration_MTurk/v2_DepthDuration_HTML.html#438,438,1366,625,1366,768,9-19-2022,13-57-27,120,depth_duration_stimuli/000787_2014-06-08_22-33-53_260595134347_rgbf000175-resize_1/000787_2014-06-08_22-33-53_260595134347_rgbf000175-resize-original.jpg,250,4.784,25,3546,249,meters,jsons/v1_VE250_randls_26_rotated.json,1029467,1450601,53,Man
120,319604,DepthScenes,duration_manipulation_targetAtFixation,jsons/v1_VE250_randls_26_rotated.json,http://54.235.29.9/FacialAge/BNav_EC2/DepthDuration/v2_depth_duration_MTurk/v2_DepthDuration_HTML.html#438,438,1366,625,1366,768,9-19-2022,13-57-27,121,depth_duration_stimuli/000943_2014-06-09_19-31-07_260595134347_rgbf000128-resize_1/000943_2014-06-09_19-31-07_260595134347_rgbf000128-resize_1-target.png,250,1.9765,27,3440,250,meters,jsons/v1_VE250_randls_26_rotated.json,1029467,1450601,53,Man
121,319604,DepthScenes,duration_manipulation_targetAtFixation,jsons/v1_VE250_randls_26_rotated.json,http://54.235.29.9/FacialAge/BNav_EC2/DepthDuration/v2_depth_duration_MTurk/v2_DepthDuration_HTML.html#438,438,1366,625,1366,768,9-19-2022,13-57-27,122,depth_duration_stimuli/003070_2014-06-15_14-58-27_094959634447_rgbf000150-resize_3/003070_2014-06-15_14-58-27_094959634447_rgbf000150-resize_3-target.png,250,2.9415,28,3271,242,meters,jsons/v1_VE250_randls_26_rotated.json,1029467,1450601,53,Man
122,319604,DepthScenes,duration_manipulation_targetAtFixation,jsons/v1_VE250_randls_26_rotated.json,http://54.235.29.9/FacialAge/BNav_EC2/DepthDuration/v2_depth_duration_MTurk/v2_DepthDuration_HTML.html#438,438,1366,625,1366,768,9-19-2022,13-57-27,123,depth_duration_stimuli/002750_2014-06-22_19-08-03_094959634447_rgbf000094-resize_4/002750_2014-06-22_19-08-03_094959634447_rgbf000094-resize_4-target.png,250,2.354,30,2731,249,meters,jsons/v1_VE250_randls_26_rotated.json,1029467,1450601,53,Man
123,319604,DepthScenes,duration_manipulation_targetAtFixation,jsons/v1_VE250_randls_26_rotated.json,http://54.235.29.9/FacialAge/BNav_EC2/DepthDuration/v2_depth_duration_MTurk/v2_DepthDuration_HTML.html#438,438,1366,625,1366,768,9-19-2022,13-57-27,124,depth_duration_stimuli/002549_2014-06-24_13-41-39_094959634447_rgbf000022-resize_3/002549_2014-06-24_13-41-39_094959634447_rgbf000022-resize_3-target.png,250,1.476,25,3958,250,meters,jsons/v1_VE250_randls_26_rotated.json,1029467,1450601,53,Man
124,319604,DepthScenes,duration_manipulation_targetAtFixation,jsons/v1_VE250_randls_26_rotated.json,http://54.235.29.9/FacialAge/BNav_EC2/DepthDuration/v2_depth_duration_MTurk/v2_DepthDuration_HTML.html#438,438,1366,625,1366,768,9-19-2022,13-57-27,125,depth_duration_stimuli/002344_2014-06-28_20-06-29_260595134347_rgbf000030-resize_1/002344_2014-06-28_20-06-29_260595134347_rgbf000030-resize_1-target.png,250,1.5795,34,2892,249,meters,jsons/v1_VE250_randls_26_rotated.json,1029467,1450601,53,Man
125,319604,DepthScenes,duration_manipulation_targetAtFixation,jsons/v1_VE250_randls_26_rotated.json,http://54.235.29.9/FacialAge/BNav_EC2/DepthDuration/v2_depth_duration_MTurk/v2_DepthDuration_HTML.html#438,438,1366,625,1366,768,9-19-2022,13-57-27,126,depth_duration_stimuli/002725_2014-06-22_11-47-51_094959634447_rgbf000070-resize_1/002725_2014-06-22_11-47-51_094959634447_rgbf000070-resize_1-target.png,250,2.195,27,2946,244,meters,jsons/v1_VE250_randls_26_rotated.json,1029467,1450601,53,Man
126,319604,DepthScenes,duration_manipulation_targetAtFixation,jsons/v1_VE250_randls_26_rotated.json,http://54.235.29.9/FacialAge/BNav_EC2/DepthDuration/v2_depth_duration_MTurk/v2_DepthDuration_HTML.html#438,438,1366,625,1366,768,9-19-2022,13-57-27,127,depth_duration_stimuli/002805_2014-06-22_19-54-03_094959634447_rgbf000079-resize_1/002805_2014-06-22_19-54-03_094959634447_rgbf000079-resize_1-target.png,250,3.1439999999999997,25,6862,242,meters,jsons/v1_VE250_randls_26_rotated.json,1029467,1450601,53,Man
127,319604,DepthScenes,duration_manipulation_targetAtFixation,jsons/v1_VE250_randls_26_rotated.json,http://54.235.29.9/FacialAge/BNav_EC2/DepthDuration/v2_depth_duration_MTurk/v2_DepthDuration_HTML.html#438,438,1366,625,1366,768,9-19-2022,13-57-27,128,depth_duration_stimuli/000906_2014-06-08_13-35-43_260595134347_rgbf000155-resize_1/000906_2014-06-08_13-35-43_260595134347_rgbf000155-resize_1-target.png,250,2.8489999999999998,25,4995,247,meters,jsons/v1_VE250_randls_26_rotated.json,1029467,1450601,53,Man
128,319604,DepthScenes,duration_manipulation_targetAtFixation,jsons/v1_VE250_randls_26_rotated.json,http://54.235.29.9/FacialAge/BNav_EC2/DepthDuration/v2_depth_duration_MTurk/v2_DepthDuration_HTML.html#438,438,1366,625,1366,768,9-19-2022,13-57-27,129,depth_duration_stimuli/000709_2014-06-08_13-51-55_260595134347_rgbf000068-resize_3/000709_2014-06-08_13-51-55_260595134347_rgbf000068-resize_3-target.png,250,1.8030000000000002,30,2711,250,meters,jsons/v1_VE250_randls_26_rotated.json,1029467,1450601,53,Man
129,319604,DepthScenes,duration_manipulation_targetAtFixation,jsons/v1_VE250_randls_26_rotated.json,http://54.235.29.9/FacialAge/BNav_EC2/DepthDuration/v2_depth_duration_MTurk/v2_DepthDuration_HTML.html#438,438,1366,625,1366,768,9-19-2022,13-57-27,130,depth_duration_stimuli/002057_2014-06-24_21-00-13_260595134347_rgbf000120-resize_1/002057_2014-06-24_21-00-13_260595134347_rgbf000120-resize_1-target.png,250,2.967,24,13192,249,meters,jsons/v1_VE250_randls_26_rotated.json,1029467,1450601,53,Man
130,319604,DepthScenes,duration_manipulation_targetAtFixation,jsons/v1_VE250_randls_26_rotated.json,http://54.235.29.9/FacialAge/BNav_EC2/DepthDuration/v2_depth_duration_MTurk/v2_DepthDuration_HTML.html#438,438,1366,625,1366,768,9-19-2022,13-57-27,131,depth_duration_stimuli/000749_2014-06-08_21-55-06_260595134347_rgbf000070-resize_2/000749_2014-06-08_21-55-06_260595134347_rgbf000070-resize_2-target.png,250,2.331,20,2642,249,meters,jsons/v1_VE250_randls_26_rotated.json,1029467,1450601,53,Man
131,319604,DepthScenes,duration_manipulation_targetAtFixation,jsons/v1_VE250_randls_26_rotated.json,http://54.235.29.9/FacialAge/BNav_EC2/DepthDuration/v2_depth_duration_MTurk/v2_DepthDuration_HTML.html#438,438,1366,625,1366,768,9-19-2022,13-57-27,132,depth_duration_stimuli/002788_2014-06-22_19-36-03_094959634447_rgbf000088-resize_2/002788_2014-06-22_19-36-03_094959634447_rgbf000088-resize_2-target.png,250,1.6465,28,3015,242,meters,jsons/v1_VE250_randls_26_rotated.json,1029467,1450601,53,Man
132,319604,DepthScenes,duration_manipulation_targetAtFixation,jsons/v1_VE250_randls_26_rotated.json,http://54.235.29.9/FacialAge/BNav_EC2/DepthDuration/v2_depth_duration_MTurk/v2_DepthDuration_HTML.html#438,438,1366,625,1366,768,9-19-2022,13-57-27,133,depth_duration_stimuli/000780_2014-06-08_22-28-29_260595134347_rgbf000126-resize_1/000780_2014-06-08_22-28-29_260595134347_rgbf000126-resize_1-target.png,250,3.3825,29,4071,250,meters,jsons/v1_VE250_randls_26_rotated.json,1029467,1450601,53,Man
133,319604,DepthScenes,duration_manipulation_targetAtFixation,jsons/v1_VE250_randls_26_rotated.json,http://54.235.29.9/FacialAge/BNav_EC2/DepthDuration/v2_depth_duration_MTurk/v2_DepthDuration_HTML.html#438,438,1366,625,1366,768,9-19-2022,13-57-27,134,depth_duration_stimuli/002445_2014-06-28_20-32-16_260595134347_rgbf000029-resize_4/002445_2014-06-28_20-32-16_260595134347_rgbf000029-resize_4-target.png,250,2.5315,24,5230,248,meters,jsons/v1_VE250_randls_26_rotated.json,1029467,1450601,53,Man
134,319604,DepthScenes,duration_manipulation_targetAtFixation,jsons/v1_VE250_randls_26_rotated.json,http://54.235.29.9/FacialAge/BNav_EC2/DepthDuration/v2_depth_duration_MTurk/v2_DepthDuration_HTML.html#438,438,1366,625,1366,768,9-19-2022,13-57-27,135,depth_duration_stimuli/000375_2014-06-08_11-17-29_260595134347_rgbf000133-resize_2/000375_2014-06-08_11-17-29_260595134347_rgbf000133-resize-original.jpg,250,4.718,28,2774,250,meters,jsons/v1_VE250_randls_26_rotated.json,1029467,1450601,53,Man
135,319604,DepthScenes,duration_manipulation_targetAtFixation,jsons/v1_VE250_randls_26_rotated.json,http://54.235.29.9/FacialAge/BNav_EC2/DepthDuration/v2_depth_duration_MTurk/v2_DepthDuration_HTML.html#438,438,1366,625,1366,768,9-19-2022,13-57-27,136,depth_duration_stimuli/000556_2014-06-09_22-42-56_260595134347_rgbf000214-resize_1/000556_2014-06-09_22-42-56_260595134347_rgbf000214-resize_1-target.png,250,4.8415,30,2530,248,meters,jsons/v1_VE250_randls_26_rotated.json,1029467,1450601,53,Man
136,319604,DepthScenes,duration_manipulation_targetAtFixation,jsons/v1_VE250_randls_26_rotated.json,http://54.235.29.9/FacialAge/BNav_EC2/DepthDuration/v2_depth_duration_MTurk/v2_DepthDuration_HTML.html#438,438,1366,625,1366,768,9-19-2022,13-57-27,137,depth_duration_stimuli/001158_2014-06-17_15-32-16_260595134347_rgbf000138-resize_2/001158_2014-06-17_15-32-16_260595134347_rgbf000138-resize_2-target.png,250,4.5315,20,5932,246,meters,jsons/v1_VE250_randls_26_rotated.json,1029467,1450601,53,Man
137,319604,DepthScenes,duration_manipulation_targetAtFixation,jsons/v1_VE250_randls_26_rotated.json,http://54.235.29.9/FacialAge/BNav_EC2/DepthDuration/v2_depth_duration_MTurk/v2_DepthDuration_HTML.html#438,438,1366,625,1366,768,9-19-2022,13-57-27,138,depth_duration_stimuli/000665_2014-06-09_20-42-35_260595134347_rgbf000110-resize_1/000665_2014-06-09_20-42-35_260595134347_rgbf000110-resize_1-target.png,250,3.057,25,2659,242,meters,jsons/v1_VE250_randls_26_rotated.json,1029467,1450601,53,Man
138,319604,DepthScenes,duration_manipulation_targetAtFixation,jsons/v1_VE250_randls_26_rotated.json,http://54.235.29.9/FacialAge/BNav_EC2/DepthDuration/v2_depth_duration_MTurk/v2_DepthDuration_HTML.html#438,438,1366,625,1366,768,9-19-2022,13-57-27,139,depth_duration_stimuli/001150_2014-06-17_15-27-34_260595134347_rgbf000108-resize_2/001150_2014-06-17_15-27-34_260595134347_rgbf000108-resize_2-target.png,250,4.0325,35,2649,253,meters,jsons/v1_VE250_randls_26_rotated.json,1029467,1450601,53,Man
139,319604,DepthScenes,duration_manipulation_targetAtFixation,jsons/v1_VE250_randls_26_rotated.json,http://54.235.29.9/FacialAge/BNav_EC2/DepthDuration/v2_depth_duration_MTurk/v2_DepthDuration_HTML.html#438,438,1366,625,1366,768,9-19-2022,13-57-27,140,depth_duration_stimuli/001100_2014-06-15_17-46-26_260595134347_rgbf000225-resize_2/001100_2014-06-15_17-46-26_260595134347_rgbf000225-resize_2-target.png,250,2.24,25,2940,242,meters,jsons/v1_VE250_randls_26_rotated.json,1029467,1450601,53,Man
140,319604,DepthScenes,duration_manipulation_targetAtFixation,jsons/v1_VE250_randls_26_rotated.json,http://54.235.29.9/FacialAge/BNav_EC2/DepthDuration/v2_depth_duration_MTurk/v2_DepthDuration_HTML.html#438,438,1366,625,1366,768,9-19-2022,13-57-27,141,depth_duration_stimuli/002784_2014-06-22_19-26-30_094959634447_rgbf000083-resize_3/002784_2014-06-22_19-26-30_094959634447_rgbf000083-resize_3-target.png,250,1.8046666666667,28,3428,257,meters,jsons/v1_VE250_randls_26_rotated.json,1029467,1450601,53,Man
141,319604,DepthScenes,duration_manipulation_targetAtFixation,jsons/v1_VE250_randls_26_rotated.json,http://54.235.29.9/FacialAge/BNav_EC2/DepthDuration/v2_depth_duration_MTurk/v2_DepthDuration_HTML.html#438,438,1366,625,1366,768,9-19-2022,13-57-27,142,depth_duration_stimuli/002678_2014-06-13_16-15-32_094959634447_rgbf000151-resize_6/002678_2014-06-13_16-15-32_094959634447_rgbf000151-resize_6-target.png,250,2.1830000000000003,35,2546,249,meters,jsons/v1_VE250_randls_26_rotated.json,1029467,1450601,53,Man
142,319604,DepthScenes,duration_manipulation_targetAtFixation,jsons/v1_VE250_randls_26_rotated.json,http://54.235.29.9/FacialAge/BNav_EC2/DepthDuration/v2_depth_duration_MTurk/v2_DepthDuration_HTML.html#438,438,1366,625,1366,768,9-19-2022,13-57-27,143,depth_duration_stimuli/000368_2014-06-09_15-53-01_260595134347_rgbf000155-resize_2/000368_2014-06-09_15-53-01_260595134347_rgbf000155-resize_2-target.png,250,2.4859999999999998,28,3123,253,meters,jsons/v1_VE250_randls_26_rotated.json,1029467,1450601,53,Man
143,319604,DepthScenes,duration_manipulation_targetAtFixation,jsons/v1_VE250_randls_26_rotated.json,http://54.235.29.9/FacialAge/BNav_EC2/DepthDuration/v2_depth_duration_MTurk/v2_DepthDuration_HTML.html#438,438,1366,625,1366,768,9-19-2022,13-57-27,144,depth_duration_stimuli/002758_2014-06-22_19-11-20_094959634447_rgbf000128-resize_1/002758_2014-06-22_19-11-20_094959634447_rgbf000128-resize_1-target.png,250,2.555,27,3054,250,meters,jsons/v1_VE250_randls_26_rotated.json,1029467,1450601,53,Man
144,319604,DepthScenes,duration_manipulation_targetAtFixation,jsons/v1_VE250_randls_26_rotated.json,http://54.235.29.9/FacialAge/BNav_EC2/DepthDuration/v2_depth_duration_MTurk/v2_DepthDuration_HTML.html#438,438,1366,625,1366,768,9-19-2022,13-57-27,145,depth_duration_stimuli/002630_2014-06-24_14-47-50_094959634447_rgbf000055-resize_1/002630_2014-06-24_14-47-50_094959634447_rgbf000055-resize_1-target.png,250,3.0095,38,2875,254,meters,jsons/v1_VE250_randls_26_rotated.json,1029467,1450601,53,Man
145,319604,DepthScenes,duration_manipulation_targetAtFixation,jsons/v1_VE250_randls_26_rotated.json,http://54.235.29.9/FacialAge/BNav_EC2/DepthDuration/v2_depth_duration_MTurk/v2_DepthDuration_HTML.html#438,438,1366,625,1366,768,9-19-2022,13-57-27,146,depth_duration_stimuli/000457_2014-06-08_16-52-43_260595134347_rgbf000199-resize_1/000457_2014-06-08_16-52-43_260595134347_rgbf000199-resize_1-target.png,250,3.6489999999999996,25,2756,241,meters,jsons/v1_VE250_randls_26_rotated.json,1029467,1450601,53,Man
146,319604,DepthScenes,duration_manipulation_targetAtFixation,jsons/v1_VE250_randls_26_rotated.json,http://54.235.29.9/FacialAge/BNav_EC2/DepthDuration/v2_depth_duration_MTurk/v2_DepthDuration_HTML.html#438,438,1366,625,1366,768,9-19-2022,13-57-27,147,depth_duration_stimuli/000929_2014-06-09_16-33-19_260595134347_rgbf000139-resize_0/000929_2014-06-09_16-33-19_260595134347_rgbf000139-resize_0-target.png,250,2.8680000000000003,22,3759,252,meters,jsons/v1_VE250_randls_26_rotated.json,1029467,1450601,53,Man
147,319604,DepthScenes,duration_manipulation_targetAtFixation,jsons/v1_VE250_randls_26_rotated.json,http://54.235.29.9/FacialAge/BNav_EC2/DepthDuration/v2_depth_duration_MTurk/v2_DepthDuration_HTML.html#438,438,1366,625,1366,768,9-19-2022,13-57-27,148,depth_duration_stimuli/002953_2014-06-08_17-32-18_094959634447_rgbf000059-resize_5/002953_2014-06-08_17-32-18_094959634447_rgbf000059-resize_5-target.png,250,1.551,22,3323,248,meters,jsons/v1_VE250_randls_26_rotated.json,1029467,1450601,53,Man
148,319604,DepthScenes,duration_manipulation_targetAtFixation,jsons/v1_VE250_randls_26_rotated.json,http://54.235.29.9/FacialAge/BNav_EC2/DepthDuration/v2_depth_duration_MTurk/v2_DepthDuration_HTML.html#438,438,1366,625,1366,768,9-19-2022,13-57-27,149,depth_duration_stimuli/000878_2014-06-08_22-52-45_260595134347_rgbf000045-resize_2/000878_2014-06-08_22-52-45_260595134347_rgbf000045-resize_2-target.png,250,2.092,35,3013,252,meters,jsons/v1_VE250_randls_26_rotated.json,1029467,1450601,53,Man
149,319604,DepthScenes,duration_manipulation_targetAtFixation,jsons/v1_VE250_randls_26_rotated.json,http://54.235.29.9/FacialAge/BNav_EC2/DepthDuration/v2_depth_duration_MTurk/v2_DepthDuration_HTML.html#438,438,1366,625,1366,768,9-19-2022,13-57-27,150,depth_duration_stimuli/000191_2014-05-12_17-07-38_260595134347_rgbf000199-resize_0/000191_2014-05-12_17-07-38_260595134347_rgbf000199-resize_0-target.png,250,3.7995,45,2846,261,meters,jsons/v1_VE250_randls_26_rotated.json,1029467,1450601,53,Man
150,319604,DepthScenes,duration_manipulation_targetAtFixation,jsons/v1_VE250_randls_26_rotated.json,http://54.235.29.9/FacialAge/BNav_EC2/DepthDuration/v2_depth_duration_MTurk/v2_DepthDuration_HTML.html#438,438,1366,625,1366,768,9-19-2022,13-57-27,151,depth_duration_stimuli/000493_2014-06-09_21-01-18_260595134347_rgbf000196-resize_3/000493_2014-06-09_21-01-18_260595134347_rgbf000196-resize_3-target.png,250,3.44,35,8422,257,meters,jsons/v1_VE250_randls_26_rotated.json,1029467,1450601,53,Man
151,319604,DepthScenes,duration_manipulation_targetAtFixation,jsons/v1_VE250_randls_26_rotated.json,http://54.235.29.9/FacialAge/BNav_EC2/DepthDuration/v2_depth_duration_MTurk/v2_DepthDuration_HTML.html#438,438,1366,625,1366,768,9-19-2022,13-57-27,152,depth_duration_stimuli/000569_2014-06-09_22-51-47_260595134347_rgbf000141-resize_3/000569_2014-06-09_22-51-47_260595134347_rgbf000141-resize-original.jpg,250,4.512,30,2747,254,meters,jsons/v1_VE250_randls_26_rotated.json,1029467,1450601,53,Man
152,319604,DepthScenes,duration_manipulation_targetAtFixation,jsons/v1_VE250_randls_26_rotated.json,http://54.235.29.9/FacialAge/BNav_EC2/DepthDuration/v2_depth_duration_MTurk/v2_DepthDuration_HTML.html#438,438,1366,625,1366,768,9-19-2022,13-57-27,153,depth_duration_stimuli/002444_2014-06-28_20-32-08_260595134347_rgbf000027-resize_0/002444_2014-06-28_20-32-08_260595134347_rgbf000027-resize_0-target.png,250,4.388999999999999,35,2730,260,meters,jsons/v1_VE250_randls_26_rotated.json,1029467,1450601,53,Man
153,319604,DepthScenes,duration_manipulation_targetAtFixation,jsons/v1_VE250_randls_26_rotated.json,http://54.235.29.9/FacialAge/BNav_EC2/DepthDuration/v2_depth_duration_MTurk/v2_DepthDuration_HTML.html#438,438,1366,625,1366,768,9-19-2022,13-57-27,154,depth_duration_stimuli/000436_2014-06-09_22-25-11_260595134347_rgbf000137-resize_1/000436_2014-06-09_22-25-11_260595134347_rgbf000137-resize_1-target.png,250,4.0705,35,2505,250,meters,jsons/v1_VE250_randls_26_rotated.json,1029467,1450601,53,Man
154,319604,DepthScenes,duration_manipulation_targetAtFixation,jsons/v1_VE250_randls_26_rotated.json,http://54.235.29.9/FacialAge/BNav_EC2/DepthDuration/v2_depth_duration_MTurk/v2_DepthDuration_HTML.html#438,438,1366,625,1366,768,9-19-2022,13-57-27,155,depth_duration_stimuli/000927_2014-06-09_16-32-30_260595134347_rgbf000123-resize_3/000927_2014-06-09_16-32-30_260595134347_rgbf000123-resize_3-target.png,250,2.6785,34,3476,249,meters,jsons/v1_VE250_randls_26_rotated.json,1029467,1450601,53,Man
155,319604,DepthScenes,duration_manipulation_targetAtFixation,jsons/v1_VE250_randls_26_rotated.json,http://54.235.29.9/FacialAge/BNav_EC2/DepthDuration/v2_depth_duration_MTurk/v2_DepthDuration_HTML.html#438,438,1366,625,1366,768,9-19-2022,13-57-27,156,depth_duration_stimuli/001110_2014-06-15_17-25-28_260595134347_rgbf000150-resize_1/001110_2014-06-15_17-25-28_260595134347_rgbf000150-resize_1-target.png,250,1.7115,30,2850,249,meters,jsons/v1_VE250_randls_26_rotated.json,1029467,1450601,53,Man
156,319604,DepthScenes,duration_manipulation_targetAtFixation,jsons/v1_VE250_randls_26_rotated.json,http://54.235.29.9/FacialAge/BNav_EC2/DepthDuration/v2_depth_duration_MTurk/v2_DepthDuration_HTML.html#438,438,1366,625,1366,768,9-19-2022,13-57-27,157,depth_duration_stimuli/003048_2014-06-15_13-49-43_094959634447_rgbf000150-resize_1/003048_2014-06-15_13-49-43_094959634447_rgbf000150-resize_1-target.png,250,4.0035,36,2860,243,meters,jsons/v1_VE250_randls_26_rotated.json,1029467,1450601,53,Man
157,319604,DepthScenes,duration_manipulation_targetAtFixation,jsons/v1_VE250_randls_26_rotated.json,http://54.235.29.9/FacialAge/BNav_EC2/DepthDuration/v2_depth_duration_MTurk/v2_DepthDuration_HTML.html#438,438,1366,625,1366,768,9-19-2022,13-57-27,158,depth_duration_stimuli/002043_2014-06-24_20-29-38_260595134347_rgbf000039-resize_4/002043_2014-06-24_20-29-38_260595134347_rgbf000039-resize_4-target.png,250,2.8435,35,9577,247,meters,jsons/v1_VE250_randls_26_rotated.json,1029467,1450601,53,Man
158,319604,DepthScenes,duration_manipulation_targetAtFixation,jsons/v1_VE250_randls_26_rotated.json,http://54.235.29.9/FacialAge/BNav_EC2/DepthDuration/v2_depth_duration_MTurk/v2_DepthDuration_HTML.html#438,438,1366,625,1366,768,9-19-2022,13-57-27,159,depth_duration_stimuli/000866_2014-06-09_20-45-42_260595134347_rgbf000139-resize_1/000866_2014-06-09_20-45-42_260595134347_rgbf000139-resize_1-target.png,250,3.2155,30,12129,247,meters,jsons/v1_VE250_randls_26_rotated.json,1029467,1450601,53,Man
159,319604,DepthScenes,duration_manipulation_targetAtFixation,jsons/v1_VE250_randls_26_rotated.json,http://54.235.29.9/FacialAge/BNav_EC2/DepthDuration/v2_depth_duration_MTurk/v2_DepthDuration_HTML.html#438,438,1366,625,1366,768,9-19-2022,13-57-27,160,depth_duration_stimuli/002989_2014-06-15_12-25-03_094959634447_rgbf000150-resize_3/002989_2014-06-15_12-25-03_094959634447_rgbf000150-resize_3-target.png,250,4.1975,25,4859,251,meters,jsons/v1_VE250_randls_26_rotated.json,1029467,1450601,53,Man
160,319604,DepthScenes,duration_manipulation_targetAtFixation,jsons/v1_VE250_randls_26_rotated.json,http://54.235.29.9/FacialAge/BNav_EC2/DepthDuration/v2_depth_duration_MTurk/v2_DepthDuration_HTML.html#438,438,1366,625,1366,768,9-19-2022,13-57-27,161,depth_duration_stimuli/000691_2014-06-08_13-08-50_260595134347_rgbf000132-resize_3/000691_2014-06-08_13-08-50_260595134347_rgbf000132-resize_3-target.png,250,4.1530000000000005,30,2813,239,meters,jsons/v1_VE250_randls_26_rotated.json,1029467,1450601,53,Man
161,319604,DepthScenes,duration_manipulation_targetAtFixation,jsons/v1_VE250_randls_26_rotated.json,http://54.235.29.9/FacialAge/BNav_EC2/DepthDuration/v2_depth_duration_MTurk/v2_DepthDuration_HTML.html#438,438,1366,625,1366,768,9-19-2022,13-57-27,162,depth_duration_stimuli/002213_2014-06-28_18-37-58_260595134347_rgbf000055-resize_1/002213_2014-06-28_18-37-58_260595134347_rgbf000055-resize_1-target.png,250,3.62,35,3042,253,meters,jsons/v1_VE250_randls_26_rotated.json,1029467,1450601,53,Man
162,319604,DepthScenes,duration_manipulation_targetAtFixation,jsons/v1_VE250_randls_26_rotated.json,http://54.235.29.9/FacialAge/BNav_EC2/DepthDuration/v2_depth_duration_MTurk/v2_DepthDuration_HTML.html#438,438,1366,625,1366,768,9-19-2022,13-57-27,163,depth_duration_stimuli/001214_2014-06-17_16-13-55_260595134347_rgbf000111-resize_0/001214_2014-06-17_16-13-55_260595134347_rgbf000111-resize_0-target.png,250,2.6505,20,2495,246,meters,jsons/v1_VE250_randls_26_rotated.json,1029467,1450601,53,Man
163,319604,DepthScenes,duration_manipulation_targetAtFixation,jsons/v1_VE250_randls_26_rotated.json,http://54.235.29.9/FacialAge/BNav_EC2/DepthDuration/v2_depth_duration_MTurk/v2_DepthDuration_HTML.html#438,438,1366,625,1366,768,9-19-2022,13-57-27,164,depth_duration_stimuli/000810_2014-06-08_17-20-01_260595134347_rgbf000105-resize_0/000810_2014-06-08_17-20-01_260595134347_rgbf000105-resize_0-target.png,250,1.4865,20,3263,249,meters,jsons/v1_VE250_randls_26_rotated.json,1029467,1450601,53,Man
