,subjID,experimentName,versionName,sequenceName,url,selected_row,windowWidth,windowHeight,screenWidth,screenHeight,startDate,startTime,trial,stimulus,duration,actual_depth,depth_estimate,trial_RT,log_sceneDuration,unitSelection,seq_filepath,experimentTime,totalTime,age,gender
0,320163,DepthScenes,duration_manipulation_targetAtFixation,jsons/VE125_randls_28.json,http://54.235.29.9/FacialAge/BNav_EC2/DepthDuration/v2_depth_duration_MTurk/v2_DepthDuration_HTML.html#209,209,1093,614,1366,768,8-29-2022,11-16-5,1,depth_duration_stimuli/001570_2014-06-20_17-21-09_260595134347_rgbf000135-resize_4/001570_2014-06-20_17-21-09_260595134347_rgbf000135-resize_4-target.png,125,4.467,7,3744,125,meters,jsons/VE125_randls_28.json,617723,748373,48,Man
1,320163,DepthScenes,duration_manipulation_targetAtFixation,jsons/VE125_randls_28.json,http://54.235.29.9/FacialAge/BNav_EC2/DepthDuration/v2_depth_duration_MTurk/v2_DepthDuration_HTML.html#209,209,1093,614,1366,768,8-29-2022,11-16-5,2,depth_duration_stimuli/001392_2014-06-19_16-07-59_260595134347_rgbf000046-resize_1/001392_2014-06-19_16-07-59_260595134347_rgbf000046-resize_1-target.png,125,4.135,6,5526,126,meters,jsons/VE125_randls_28.json,617723,748373,48,Man
2,320163,DepthScenes,duration_manipulation_targetAtFixation,jsons/VE125_randls_28.json,http://54.235.29.9/FacialAge/BNav_EC2/DepthDuration/v2_depth_duration_MTurk/v2_DepthDuration_HTML.html#209,209,1093,614,1366,768,8-29-2022,11-16-5,3,depth_duration_stimuli/002570_2014-06-24_13-59-54_094959634447_rgbf000059-resize_0/002570_2014-06-24_13-59-54_094959634447_rgbf000059-resize_0-target.png,125,4.037,5,3440,106,meters,jsons/VE125_randls_28.json,617723,748373,48,Man
3,320163,DepthScenes,duration_manipulation_targetAtFixation,jsons/VE125_randls_28.json,http://54.235.29.9/FacialAge/BNav_EC2/DepthDuration/v2_depth_duration_MTurk/v2_DepthDuration_HTML.html#209,209,1093,614,1366,768,8-29-2022,11-16-5,4,depth_duration_stimuli/002467_2014-06-28_20-38-07_260595134347_rgbf000026-resize_2/002467_2014-06-28_20-38-07_260595134347_rgbf000026-resize_2-target.png,125,4.742,0,3119,117,meters,jsons/VE125_randls_28.json,617723,748373,48,Man
4,320163,DepthScenes,duration_manipulation_targetAtFixation,jsons/VE125_randls_28.json,http://54.235.29.9/FacialAge/BNav_EC2/DepthDuration/v2_depth_duration_MTurk/v2_DepthDuration_HTML.html#209,209,1093,614,1366,768,8-29-2022,11-16-5,5,depth_duration_stimuli/000773_2014-06-08_22-24-54_260595134347_rgbf000093-resize_1/000773_2014-06-08_22-24-54_260595134347_rgbf000093-resize_1-target.png,125,4.973,7,3215,114,meters,jsons/VE125_randls_28.json,617723,748373,48,Man
5,320163,DepthScenes,duration_manipulation_targetAtFixation,jsons/VE125_randls_28.json,http://54.235.29.9/FacialAge/BNav_EC2/DepthDuration/v2_depth_duration_MTurk/v2_DepthDuration_HTML.html#209,209,1093,614,1366,768,8-29-2022,11-16-5,6,depth_duration_stimuli/002414_2014-06-28_20-24-58_260595134347_rgbf000067-resize_4/002414_2014-06-28_20-24-58_260595134347_rgbf000067-resize_4-target.png,125,4.363,6,5273,110,meters,jsons/VE125_randls_28.json,617723,748373,48,Man
6,320163,DepthScenes,duration_manipulation_targetAtFixation,jsons/VE125_randls_28.json,http://54.235.29.9/FacialAge/BNav_EC2/DepthDuration/v2_depth_duration_MTurk/v2_DepthDuration_HTML.html#209,209,1093,614,1366,768,8-29-2022,11-16-5,7,depth_duration_stimuli/002509_2014-06-24_13-19-22_094959634447_rgbf000077-resize_0/002509_2014-06-24_13-19-22_094959634447_rgbf000077-resize_0-target.png,125,1.3065,4,3175,121,meters,jsons/VE125_randls_28.json,617723,748373,48,Man
7,320163,DepthScenes,duration_manipulation_targetAtFixation,jsons/VE125_randls_28.json,http://54.235.29.9/FacialAge/BNav_EC2/DepthDuration/v2_depth_duration_MTurk/v2_DepthDuration_HTML.html#209,209,1093,614,1366,768,8-29-2022,11-16-5,8,depth_duration_stimuli/003338_2014-05-20_11-01-23_094959634447_rgbf000051-resize_6/003338_2014-05-20_11-01-23_094959634447_rgbf000051-resize_6-target.png,125,1.693,5,2892,136,meters,jsons/VE125_randls_28.json,617723,748373,48,Man
8,320163,DepthScenes,duration_manipulation_targetAtFixation,jsons/VE125_randls_28.json,http://54.235.29.9/FacialAge/BNav_EC2/DepthDuration/v2_depth_duration_MTurk/v2_DepthDuration_HTML.html#209,209,1093,614,1366,768,8-29-2022,11-16-5,9,depth_duration_stimuli/000522_2014-06-08_13-35-06_260595134347_rgbf000244-resize_1/000522_2014-06-08_13-35-06_260595134347_rgbf000244-resize_1-target.png,125,2.3715,3,3964,128,meters,jsons/VE125_randls_28.json,617723,748373,48,Man
9,320163,DepthScenes,duration_manipulation_targetAtFixation,jsons/VE125_randls_28.json,http://54.235.29.9/FacialAge/BNav_EC2/DepthDuration/v2_depth_duration_MTurk/v2_DepthDuration_HTML.html#209,209,1093,614,1366,768,8-29-2022,11-16-5,10,depth_duration_stimuli/002949_2014-06-26_15-57-42_094959634447_rgbf000079-resize_1/002949_2014-06-26_15-57-42_094959634447_rgbf000079-resize_1-target.png,125,1.8915,4,3104,116,meters,jsons/VE125_randls_28.json,617723,748373,48,Man
10,320163,DepthScenes,duration_manipulation_targetAtFixation,jsons/VE125_randls_28.json,http://54.235.29.9/FacialAge/BNav_EC2/DepthDuration/v2_depth_duration_MTurk/v2_DepthDuration_HTML.html#209,209,1093,614,1366,768,8-29-2022,11-16-5,11,depth_duration_stimuli/000692_2014-06-08_13-09-42_260595134347_rgbf000199-resize_2/000692_2014-06-08_13-09-42_260595134347_rgbf000199-resize_2-target.png,125,3.661,6,3342,122,meters,jsons/VE125_randls_28.json,617723,748373,48,Man
11,320163,DepthScenes,duration_manipulation_targetAtFixation,jsons/VE125_randls_28.json,http://54.235.29.9/FacialAge/BNav_EC2/DepthDuration/v2_depth_duration_MTurk/v2_DepthDuration_HTML.html#209,209,1093,614,1366,768,8-29-2022,11-16-5,12,depth_duration_stimuli/001094_2014-06-15_17-36-00_260595134347_rgbf000205-resize_0/001094_2014-06-15_17-36-00_260595134347_rgbf000205-resize_0-target.png,125,4.2175,7,4376,119,meters,jsons/VE125_randls_28.json,617723,748373,48,Man
12,320163,DepthScenes,duration_manipulation_targetAtFixation,jsons/VE125_randls_28.json,http://54.235.29.9/FacialAge/BNav_EC2/DepthDuration/v2_depth_duration_MTurk/v2_DepthDuration_HTML.html#209,209,1093,614,1366,768,8-29-2022,11-16-5,13,depth_duration_stimuli/000569_2014-06-09_22-51-47_260595134347_rgbf000141-resize_3/000569_2014-06-09_22-51-47_260595134347_rgbf000141-resize-original.jpg,125,4.512,0,4822,126,meters,jsons/VE125_randls_28.json,617723,748373,48,Man
13,320163,DepthScenes,duration_manipulation_targetAtFixation,jsons/VE125_randls_28.json,http://54.235.29.9/FacialAge/BNav_EC2/DepthDuration/v2_depth_duration_MTurk/v2_DepthDuration_HTML.html#209,209,1093,614,1366,768,8-29-2022,11-16-5,14,depth_duration_stimuli/003621_2014-05-23_18-06-08_094959634447_rgbf000101-resize_1/003621_2014-05-23_18-06-08_094959634447_rgbf000101-resize_1-target.png,125,3.9835,7,3818,128,meters,jsons/VE125_randls_28.json,617723,748373,48,Man
14,320163,DepthScenes,duration_manipulation_targetAtFixation,jsons/VE125_randls_28.json,http://54.235.29.9/FacialAge/BNav_EC2/DepthDuration/v2_depth_duration_MTurk/v2_DepthDuration_HTML.html#209,209,1093,614,1366,768,8-29-2022,11-16-5,15,depth_duration_stimuli/001584_2014-06-20_11-07-43_260595134347_rgbf000002-resize_1/001584_2014-06-20_11-07-43_260595134347_rgbf000002-resize_1-target.png,125,3.53,5,3072,132,meters,jsons/VE125_randls_28.json,617723,748373,48,Man
15,320163,DepthScenes,duration_manipulation_targetAtFixation,jsons/VE125_randls_28.json,http://54.235.29.9/FacialAge/BNav_EC2/DepthDuration/v2_depth_duration_MTurk/v2_DepthDuration_HTML.html#209,209,1093,614,1366,768,8-29-2022,11-16-5,16,depth_duration_stimuli/002788_2014-06-22_19-36-03_094959634447_rgbf000088-resize_2/002788_2014-06-22_19-36-03_094959634447_rgbf000088-resize_2-target.png,125,1.6465,6,3525,126,meters,jsons/VE125_randls_28.json,617723,748373,48,Man
16,320163,DepthScenes,duration_manipulation_targetAtFixation,jsons/VE125_randls_28.json,http://54.235.29.9/FacialAge/BNav_EC2/DepthDuration/v2_depth_duration_MTurk/v2_DepthDuration_HTML.html#209,209,1093,614,1366,768,8-29-2022,11-16-5,17,depth_duration_stimuli/000749_2014-06-08_21-55-06_260595134347_rgbf000070-resize_2/000749_2014-06-08_21-55-06_260595134347_rgbf000070-resize_2-target.png,125,2.331,7,3442,124,meters,jsons/VE125_randls_28.json,617723,748373,48,Man
17,320163,DepthScenes,duration_manipulation_targetAtFixation,jsons/VE125_randls_28.json,http://54.235.29.9/FacialAge/BNav_EC2/DepthDuration/v2_depth_duration_MTurk/v2_DepthDuration_HTML.html#209,209,1093,614,1366,768,8-29-2022,11-16-5,18,depth_duration_stimuli/000739_2014-06-08_18-45-58_260595134347_rgbf000068-resize_1/000739_2014-06-08_18-45-58_260595134347_rgbf000068-resize_1-target.png,125,3.534,5,3772,129,meters,jsons/VE125_randls_28.json,617723,748373,48,Man
18,320163,DepthScenes,duration_manipulation_targetAtFixation,jsons/VE125_randls_28.json,http://54.235.29.9/FacialAge/BNav_EC2/DepthDuration/v2_depth_duration_MTurk/v2_DepthDuration_HTML.html#209,209,1093,614,1366,768,8-29-2022,11-16-5,19,depth_duration_stimuli/000734_2014-06-08_17-39-11_260595134347_rgbf000128-resize_2/000734_2014-06-08_17-39-11_260595134347_rgbf000128-resize_2-target.png,125,4.098,6,2934,115,meters,jsons/VE125_randls_28.json,617723,748373,48,Man
19,320163,DepthScenes,duration_manipulation_targetAtFixation,jsons/VE125_randls_28.json,http://54.235.29.9/FacialAge/BNav_EC2/DepthDuration/v2_depth_duration_MTurk/v2_DepthDuration_HTML.html#209,209,1093,614,1366,768,8-29-2022,11-16-5,20,depth_duration_stimuli/000447_2014-06-08_16-15-46_260595134347_rgbf000130-resize_1/000447_2014-06-08_16-15-46_260595134347_rgbf000130-resize_1-target.png,125,4.479,6,2913,127,meters,jsons/VE125_randls_28.json,617723,748373,48,Man
20,320163,DepthScenes,duration_manipulation_targetAtFixation,jsons/VE125_randls_28.json,http://54.235.29.9/FacialAge/BNav_EC2/DepthDuration/v2_depth_duration_MTurk/v2_DepthDuration_HTML.html#209,209,1093,614,1366,768,8-29-2022,11-16-5,21,depth_duration_stimuli/001447_2014-06-19_17-00-32_260595134347_rgbf000082-resize_5/001447_2014-06-19_17-00-32_260595134347_rgbf000082-resize_5-target.png,125,4.13775,5,4292,118,meters,jsons/VE125_randls_28.json,617723,748373,48,Man
21,320163,DepthScenes,duration_manipulation_targetAtFixation,jsons/VE125_randls_28.json,http://54.235.29.9/FacialAge/BNav_EC2/DepthDuration/v2_depth_duration_MTurk/v2_DepthDuration_HTML.html#209,209,1093,614,1366,768,8-29-2022,11-16-5,22,depth_duration_stimuli/001066_2014-06-08_22-03-20_260595134347_rgbf000066-resize_4/001066_2014-06-08_22-03-20_260595134347_rgbf000066-resize_4-target.png,125,4.2330000000000005,4,3341,125,meters,jsons/VE125_randls_28.json,617723,748373,48,Man
22,320163,DepthScenes,duration_manipulation_targetAtFixation,jsons/VE125_randls_28.json,http://54.235.29.9/FacialAge/BNav_EC2/DepthDuration/v2_depth_duration_MTurk/v2_DepthDuration_HTML.html#209,209,1093,614,1366,768,8-29-2022,11-16-5,23,depth_duration_stimuli/000742_2014-06-08_18-48-09_260595134347_rgbf000164-resize_4/000742_2014-06-08_18-48-09_260595134347_rgbf000164-resize_4-target.png,125,4.632,5,2578,122,meters,jsons/VE125_randls_28.json,617723,748373,48,Man
23,320163,DepthScenes,duration_manipulation_targetAtFixation,jsons/VE125_randls_28.json,http://54.235.29.9/FacialAge/BNav_EC2/DepthDuration/v2_depth_duration_MTurk/v2_DepthDuration_HTML.html#209,209,1093,614,1366,768,8-29-2022,11-16-5,24,depth_duration_stimuli/000469_2014-06-09_19-42-10_260595134347_rgbf000081-resize_1/000469_2014-06-09_19-42-10_260595134347_rgbf000081-resize_1-target.png,125,1.652,5,2557,122,meters,jsons/VE125_randls_28.json,617723,748373,48,Man
24,320163,DepthScenes,duration_manipulation_targetAtFixation,jsons/VE125_randls_28.json,http://54.235.29.9/FacialAge/BNav_EC2/DepthDuration/v2_depth_duration_MTurk/v2_DepthDuration_HTML.html#209,209,1093,614,1366,768,8-29-2022,11-16-5,25,depth_duration_stimuli/000483_2014-06-09_20-41-45_260595134347_rgbf000116-resize_4/000483_2014-06-09_20-41-45_260595134347_rgbf000116-resize_4-target.png,125,1.337,5,2732,129,meters,jsons/VE125_randls_28.json,617723,748373,48,Man
25,320163,DepthScenes,duration_manipulation_targetAtFixation,jsons/VE125_randls_28.json,http://54.235.29.9/FacialAge/BNav_EC2/DepthDuration/v2_depth_duration_MTurk/v2_DepthDuration_HTML.html#209,209,1093,614,1366,768,8-29-2022,11-16-5,26,depth_duration_stimuli/001810_2014-06-26_20-51-35_260595134347_rgbf000040-resize_3/001810_2014-06-26_20-51-35_260595134347_rgbf000040-resize_3-target.png,125,2.2525,4,5930,125,meters,jsons/VE125_randls_28.json,617723,748373,48,Man
26,320163,DepthScenes,duration_manipulation_targetAtFixation,jsons/VE125_randls_28.json,http://54.235.29.9/FacialAge/BNav_EC2/DepthDuration/v2_depth_duration_MTurk/v2_DepthDuration_HTML.html#209,209,1093,614,1366,768,8-29-2022,11-16-5,27,depth_duration_stimuli/003010_2014-06-15_12-54-35_094959634447_rgbf000112-resize_0/003010_2014-06-15_12-54-35_094959634447_rgbf000112-resize_0-target.png,125,3.1185,7,3959,116,meters,jsons/VE125_randls_28.json,617723,748373,48,Man
27,320163,DepthScenes,duration_manipulation_targetAtFixation,jsons/VE125_randls_28.json,http://54.235.29.9/FacialAge/BNav_EC2/DepthDuration/v2_depth_duration_MTurk/v2_DepthDuration_HTML.html#209,209,1093,614,1366,768,8-29-2022,11-16-5,28,depth_duration_stimuli/001059_2014-06-08_21-53-27_260595134347_rgbf000061-resize_4/001059_2014-06-08_21-53-27_260595134347_rgbf000061-resize_4-target.png,125,2.4185,6,2526,122,meters,jsons/VE125_randls_28.json,617723,748373,48,Man
28,320163,DepthScenes,duration_manipulation_targetAtFixation,jsons/VE125_randls_28.json,http://54.235.29.9/FacialAge/BNav_EC2/DepthDuration/v2_depth_duration_MTurk/v2_DepthDuration_HTML.html#209,209,1093,614,1366,768,8-29-2022,11-16-5,29,depth_duration_stimuli/001032_2014-06-08_13-23-17_260595134347_rgbf000021-resize_3/001032_2014-06-08_13-23-17_260595134347_rgbf000021-resize_3-target.png,125,3.2725,6,2882,121,meters,jsons/VE125_randls_28.json,617723,748373,48,Man
29,320163,DepthScenes,duration_manipulation_targetAtFixation,jsons/VE125_randls_28.json,http://54.235.29.9/FacialAge/BNav_EC2/DepthDuration/v2_depth_duration_MTurk/v2_DepthDuration_HTML.html#209,209,1093,614,1366,768,8-29-2022,11-16-5,30,depth_duration_stimuli/000375_2014-06-08_11-17-29_260595134347_rgbf000133-resize_2/000375_2014-06-08_11-17-29_260595134347_rgbf000133-resize-original.jpg,125,4.718,0,3020,121,meters,jsons/VE125_randls_28.json,617723,748373,48,Man
30,320163,DepthScenes,duration_manipulation_targetAtFixation,jsons/VE125_randls_28.json,http://54.235.29.9/FacialAge/BNav_EC2/DepthDuration/v2_depth_duration_MTurk/v2_DepthDuration_HTML.html#209,209,1093,614,1366,768,8-29-2022,11-16-5,31,depth_duration_stimuli/000436_2014-06-09_22-25-11_260595134347_rgbf000137-resize_1/000436_2014-06-09_22-25-11_260595134347_rgbf000137-resize_1-target.png,125,4.0705,6,3511,124,meters,jsons/VE125_randls_28.json,617723,748373,48,Man
31,320163,DepthScenes,duration_manipulation_targetAtFixation,jsons/VE125_randls_28.json,http://54.235.29.9/FacialAge/BNav_EC2/DepthDuration/v2_depth_duration_MTurk/v2_DepthDuration_HTML.html#209,209,1093,614,1366,768,8-29-2022,11-16-5,32,depth_duration_stimuli/002444_2014-06-28_20-32-08_260595134347_rgbf000027-resize_0/002444_2014-06-28_20-32-08_260595134347_rgbf000027-resize_0-target.png,125,4.388999999999999,7,2724,128,meters,jsons/VE125_randls_28.json,617723,748373,48,Man
32,320163,DepthScenes,duration_manipulation_targetAtFixation,jsons/VE125_randls_28.json,http://54.235.29.9/FacialAge/BNav_EC2/DepthDuration/v2_depth_duration_MTurk/v2_DepthDuration_HTML.html#209,209,1093,614,1366,768,8-29-2022,11-16-5,33,depth_duration_stimuli/001175_2014-06-17_15-45-55_260595134347_rgbf000129-resize_4/001175_2014-06-17_15-45-55_260595134347_rgbf000129-resize_4-target.png,125,4.255,7,3849,125,meters,jsons/VE125_randls_28.json,617723,748373,48,Man
33,320163,DepthScenes,duration_manipulation_targetAtFixation,jsons/VE125_randls_28.json,http://54.235.29.9/FacialAge/BNav_EC2/DepthDuration/v2_depth_duration_MTurk/v2_DepthDuration_HTML.html#209,209,1093,614,1366,768,8-29-2022,11-16-5,34,depth_duration_stimuli/003490_2014-05-21_15-50-11_094959634447_rgbf000101-resize_3/003490_2014-05-21_15-50-11_094959634447_rgbf000101-resize_3-target.png,125,3.6445,7,2969,134,meters,jsons/VE125_randls_28.json,617723,748373,48,Man
34,320163,DepthScenes,duration_manipulation_targetAtFixation,jsons/VE125_randls_28.json,http://54.235.29.9/FacialAge/BNav_EC2/DepthDuration/v2_depth_duration_MTurk/v2_DepthDuration_HTML.html#209,209,1093,614,1366,768,8-29-2022,11-16-5,35,depth_duration_stimuli/000810_2014-06-08_17-20-01_260595134347_rgbf000105-resize_0/000810_2014-06-08_17-20-01_260595134347_rgbf000105-resize_0-target.png,125,1.4865,6,3290,112,meters,jsons/VE125_randls_28.json,617723,748373,48,Man
35,320163,DepthScenes,duration_manipulation_targetAtFixation,jsons/VE125_randls_28.json,http://54.235.29.9/FacialAge/BNav_EC2/DepthDuration/v2_depth_duration_MTurk/v2_DepthDuration_HTML.html#209,209,1093,614,1366,768,8-29-2022,11-16-5,36,depth_duration_stimuli/001214_2014-06-17_16-13-55_260595134347_rgbf000111-resize_0/001214_2014-06-17_16-13-55_260595134347_rgbf000111-resize_0-target.png,125,2.6505,5,2755,132,meters,jsons/VE125_randls_28.json,617723,748373,48,Man
36,320163,DepthScenes,duration_manipulation_targetAtFixation,jsons/VE125_randls_28.json,http://54.235.29.9/FacialAge/BNav_EC2/DepthDuration/v2_depth_duration_MTurk/v2_DepthDuration_HTML.html#209,209,1093,614,1366,768,8-29-2022,11-16-5,37,depth_duration_stimuli/001158_2014-06-17_15-32-16_260595134347_rgbf000138-resize_2/001158_2014-06-17_15-32-16_260595134347_rgbf000138-resize_2-target.png,125,4.5315,7,3338,117,meters,jsons/VE125_randls_28.json,617723,748373,48,Man
37,320163,DepthScenes,duration_manipulation_targetAtFixation,jsons/VE125_randls_28.json,http://54.235.29.9/FacialAge/BNav_EC2/DepthDuration/v2_depth_duration_MTurk/v2_DepthDuration_HTML.html#209,209,1093,614,1366,768,8-29-2022,11-16-5,38,depth_duration_stimuli/000556_2014-06-09_22-42-56_260595134347_rgbf000214-resize_1/000556_2014-06-09_22-42-56_260595134347_rgbf000214-resize_1-target.png,125,4.8415,7,2504,125,meters,jsons/VE125_randls_28.json,617723,748373,48,Man
38,320163,DepthScenes,duration_manipulation_targetAtFixation,jsons/VE125_randls_28.json,http://54.235.29.9/FacialAge/BNav_EC2/DepthDuration/v2_depth_duration_MTurk/v2_DepthDuration_HTML.html#209,209,1093,614,1366,768,8-29-2022,11-16-5,39,depth_duration_stimuli/000506_2014-06-08_23-21-00_260595134347_rgbf000070-resize_7/000506_2014-06-08_23-21-00_260595134347_rgbf000070-resize_7-target.png,125,4.0585,5,2820,108,meters,jsons/VE125_randls_28.json,617723,748373,48,Man
39,320163,DepthScenes,duration_manipulation_targetAtFixation,jsons/VE125_randls_28.json,http://54.235.29.9/FacialAge/BNav_EC2/DepthDuration/v2_depth_duration_MTurk/v2_DepthDuration_HTML.html#209,209,1093,614,1366,768,8-29-2022,11-16-5,40,depth_duration_stimuli/003079_2014-06-15_15-18-20_094959634447_rgbf000152-resize_8/003079_2014-06-15_15-18-20_094959634447_rgbf000152-resize_8-target.png,125,2.8775,7,2427,123,meters,jsons/VE125_randls_28.json,617723,748373,48,Man
40,320163,DepthScenes,duration_manipulation_targetAtFixation,jsons/VE125_randls_28.json,http://54.235.29.9/FacialAge/BNav_EC2/DepthDuration/v2_depth_duration_MTurk/v2_DepthDuration_HTML.html#209,209,1093,614,1366,768,8-29-2022,11-16-5,41,depth_duration_stimuli/001092_2014-06-15_17-34-58_260595134347_rgbf000171-resize_3/001092_2014-06-15_17-34-58_260595134347_rgbf000171-resize_3-target.png,125,2.6935,6,3643,119,meters,jsons/VE125_randls_28.json,617723,748373,48,Man
41,320163,DepthScenes,duration_manipulation_targetAtFixation,jsons/VE125_randls_28.json,http://54.235.29.9/FacialAge/BNav_EC2/DepthDuration/v2_depth_duration_MTurk/v2_DepthDuration_HTML.html#209,209,1093,614,1366,768,8-29-2022,11-16-5,42,depth_duration_stimuli/002545_2014-06-24_13-38-53_094959634447_rgbf000080-resize_4/002545_2014-06-24_13-38-53_094959634447_rgbf000080-resize_4-target.png,125,1.9205,5,3543,135,meters,jsons/VE125_randls_28.json,617723,748373,48,Man
42,320163,DepthScenes,duration_manipulation_targetAtFixation,jsons/VE125_randls_28.json,http://54.235.29.9/FacialAge/BNav_EC2/DepthDuration/v2_depth_duration_MTurk/v2_DepthDuration_HTML.html#209,209,1093,614,1366,768,8-29-2022,11-16-5,43,depth_duration_stimuli/002272_2014-06-28_18-53-56_260595134347_rgbf000067-resize_2/002272_2014-06-28_18-53-56_260595134347_rgbf000067-resize_2-target.png,125,1.138,5,2682,131,meters,jsons/VE125_randls_28.json,617723,748373,48,Man
43,320163,DepthScenes,duration_manipulation_targetAtFixation,jsons/VE125_randls_28.json,http://54.235.29.9/FacialAge/BNav_EC2/DepthDuration/v2_depth_duration_MTurk/v2_DepthDuration_HTML.html#209,209,1093,614,1366,768,8-29-2022,11-16-5,44,depth_duration_stimuli/001571_2014-06-20_17-21-32_260595134347_rgbf000089-resize_1/001571_2014-06-20_17-21-32_260595134347_rgbf000089-resize_1-target.png,125,1.86,5,2481,117,meters,jsons/VE125_randls_28.json,617723,748373,48,Man
44,320163,DepthScenes,duration_manipulation_targetAtFixation,jsons/VE125_randls_28.json,http://54.235.29.9/FacialAge/BNav_EC2/DepthDuration/v2_depth_duration_MTurk/v2_DepthDuration_HTML.html#209,209,1093,614,1366,768,8-29-2022,11-16-5,45,depth_duration_stimuli/000787_2014-06-08_22-33-53_260595134347_rgbf000175-resize_1/000787_2014-06-08_22-33-53_260595134347_rgbf000175-resize-original.jpg,125,4.784,0,3428,127,meters,jsons/VE125_randls_28.json,617723,748373,48,Man
45,320163,DepthScenes,duration_manipulation_targetAtFixation,jsons/VE125_randls_28.json,http://54.235.29.9/FacialAge/BNav_EC2/DepthDuration/v2_depth_duration_MTurk/v2_DepthDuration_HTML.html#209,209,1093,614,1366,768,8-29-2022,11-16-5,46,depth_duration_stimuli/002988_2014-06-15_12-24-20_094959634447_rgbf000150-resize_1/002988_2014-06-15_12-24-20_094959634447_rgbf000150-resize_1-target.png,125,4.7669999999999995,5,4612,129,meters,jsons/VE125_randls_28.json,617723,748373,48,Man
46,320163,DepthScenes,duration_manipulation_targetAtFixation,jsons/VE125_randls_28.json,http://54.235.29.9/FacialAge/BNav_EC2/DepthDuration/v2_depth_duration_MTurk/v2_DepthDuration_HTML.html#209,209,1093,614,1366,768,8-29-2022,11-16-5,47,depth_duration_stimuli/001052_2014-06-08_18-24-54_260595134347_rgbf000130-resize_1/001052_2014-06-08_18-24-54_260595134347_rgbf000130-resize_1-target.png,125,4.1045,7,3067,128,meters,jsons/VE125_randls_28.json,617723,748373,48,Man
47,320163,DepthScenes,duration_manipulation_targetAtFixation,jsons/VE125_randls_28.json,http://54.235.29.9/FacialAge/BNav_EC2/DepthDuration/v2_depth_duration_MTurk/v2_DepthDuration_HTML.html#209,209,1093,614,1366,768,8-29-2022,11-16-5,48,depth_duration_stimuli/002748_2014-06-22_19-07-22_094959634447_rgbf000078-resize_1/002748_2014-06-22_19-07-22_094959634447_rgbf000078-resize_1-target.png,125,4.6705,7,2998,118,meters,jsons/VE125_randls_28.json,617723,748373,48,Man
48,320163,DepthScenes,duration_manipulation_targetAtFixation,jsons/VE125_randls_28.json,http://54.235.29.9/FacialAge/BNav_EC2/DepthDuration/v2_depth_duration_MTurk/v2_DepthDuration_HTML.html#209,209,1093,614,1366,768,8-29-2022,11-16-5,49,depth_duration_stimuli/002995_2014-06-15_12-31-26_094959634447_rgbf000150-resize_1/002995_2014-06-15_12-31-26_094959634447_rgbf000150-resize_1-target.png,125,3.8360000000000003,8,2550,121,meters,jsons/VE125_randls_28.json,617723,748373,48,Man
49,320163,DepthScenes,duration_manipulation_targetAtFixation,jsons/VE125_randls_28.json,http://54.235.29.9/FacialAge/BNav_EC2/DepthDuration/v2_depth_duration_MTurk/v2_DepthDuration_HTML.html#209,209,1093,614,1366,768,8-29-2022,11-16-5,50,depth_duration_stimuli/002039_2014-06-24_20-22-38_260595134347_rgbf000084-resize_1/002039_2014-06-24_20-22-38_260595134347_rgbf000084-resize_1-target.png,125,4.408,8,3001,127,meters,jsons/VE125_randls_28.json,617723,748373,48,Man
50,320163,DepthScenes,duration_manipulation_targetAtFixation,jsons/VE125_randls_28.json,http://54.235.29.9/FacialAge/BNav_EC2/DepthDuration/v2_depth_duration_MTurk/v2_DepthDuration_HTML.html#209,209,1093,614,1366,768,8-29-2022,11-16-5,51,depth_duration_stimuli/002103_2014-06-25_20-00-40_260595134347_rgbf000049-resize_0/002103_2014-06-25_20-00-40_260595134347_rgbf000049-resize_0-target.png,125,4.105,5,3562,123,meters,jsons/VE125_randls_28.json,617723,748373,48,Man
51,320163,DepthScenes,duration_manipulation_targetAtFixation,jsons/VE125_randls_28.json,http://54.235.29.9/FacialAge/BNav_EC2/DepthDuration/v2_depth_duration_MTurk/v2_DepthDuration_HTML.html#209,209,1093,614,1366,768,8-29-2022,11-16-5,52,depth_duration_stimuli/002600_2014-06-24_14-27-04_094959634447_rgbf000074-resize_2/002600_2014-06-24_14-27-04_094959634447_rgbf000074-resize_2-target.png,125,2.7575,5,2722,130,meters,jsons/VE125_randls_28.json,617723,748373,48,Man
52,320163,DepthScenes,duration_manipulation_targetAtFixation,jsons/VE125_randls_28.json,http://54.235.29.9/FacialAge/BNav_EC2/DepthDuration/v2_depth_duration_MTurk/v2_DepthDuration_HTML.html#209,209,1093,614,1366,768,8-29-2022,11-16-5,53,depth_duration_stimuli/003228_2014-05-14_13-42-35_094959634447_rgbf000101-resize_1/003228_2014-05-14_13-42-35_094959634447_rgbf000101-resize_1-target.png,125,1.9680000000000002,5,2373,117,meters,jsons/VE125_randls_28.json,617723,748373,48,Man
53,320163,DepthScenes,duration_manipulation_targetAtFixation,jsons/VE125_randls_28.json,http://54.235.29.9/FacialAge/BNav_EC2/DepthDuration/v2_depth_duration_MTurk/v2_DepthDuration_HTML.html#209,209,1093,614,1366,768,8-29-2022,11-16-5,54,depth_duration_stimuli/003292_2014-05-14_21-53-49_094959634447_rgbf000100-resize_2/003292_2014-05-14_21-53-49_094959634447_rgbf000100-resize_2-target.png,125,3.4815,5,3706,110,meters,jsons/VE125_randls_28.json,617723,748373,48,Man
54,320163,DepthScenes,duration_manipulation_targetAtFixation,jsons/VE125_randls_28.json,http://54.235.29.9/FacialAge/BNav_EC2/DepthDuration/v2_depth_duration_MTurk/v2_DepthDuration_HTML.html#209,209,1093,614,1366,768,8-29-2022,11-16-5,55,depth_duration_stimuli/002639_2014-06-24_14-51-37_094959634447_rgbf000074-resize_4/002639_2014-06-24_14-51-37_094959634447_rgbf000074-resize_4-target.png,125,4.0375,6,3662,120,meters,jsons/VE125_randls_28.json,617723,748373,48,Man
55,320163,DepthScenes,duration_manipulation_targetAtFixation,jsons/VE125_randls_28.json,http://54.235.29.9/FacialAge/BNav_EC2/DepthDuration/v2_depth_duration_MTurk/v2_DepthDuration_HTML.html#209,209,1093,614,1366,768,8-29-2022,11-16-5,56,depth_duration_stimuli/000486_2014-06-09_20-47-20_260595134347_rgbf000143-resize_2/000486_2014-06-09_20-47-20_260595134347_rgbf000143-resize_2-target.png,125,4.8325,5,3052,119,meters,jsons/VE125_randls_28.json,617723,748373,48,Man
56,320163,DepthScenes,duration_manipulation_targetAtFixation,jsons/VE125_randls_28.json,http://54.235.29.9/FacialAge/BNav_EC2/DepthDuration/v2_depth_duration_MTurk/v2_DepthDuration_HTML.html#209,209,1093,614,1366,768,8-29-2022,11-16-5,57,depth_duration_stimuli/003083_2014-06-15_15-21-03_094959634447_rgbf000063-resize_1/003083_2014-06-15_15-21-03_094959634447_rgbf000063-resize_1-target.png,125,4.1405,6,2660,123,meters,jsons/VE125_randls_28.json,617723,748373,48,Man
57,320163,DepthScenes,duration_manipulation_targetAtFixation,jsons/VE125_randls_28.json,http://54.235.29.9/FacialAge/BNav_EC2/DepthDuration/v2_depth_duration_MTurk/v2_DepthDuration_HTML.html#209,209,1093,614,1366,768,8-29-2022,11-16-5,58,depth_duration_stimuli/000414_2014-06-04_19-49-13_260595134347_rgbf000044-resize_0/000414_2014-06-04_19-49-13_260595134347_rgbf000044-resize_0-target.png,125,4.329,8,3048,123,meters,jsons/VE125_randls_28.json,617723,748373,48,Man
58,320163,DepthScenes,duration_manipulation_targetAtFixation,jsons/VE125_randls_28.json,http://54.235.29.9/FacialAge/BNav_EC2/DepthDuration/v2_depth_duration_MTurk/v2_DepthDuration_HTML.html#209,209,1093,614,1366,768,8-29-2022,11-16-5,59,depth_duration_stimuli/003129_2014-05-12_10-48-10_094959634447_rgbf000100-resize_0/003129_2014-05-12_10-48-10_094959634447_rgbf000100-resize_0-target.png,125,4.9305,6,11527,113,meters,jsons/VE125_randls_28.json,617723,748373,48,Man
59,320163,DepthScenes,duration_manipulation_targetAtFixation,jsons/VE125_randls_28.json,http://54.235.29.9/FacialAge/BNav_EC2/DepthDuration/v2_depth_duration_MTurk/v2_DepthDuration_HTML.html#209,209,1093,614,1366,768,8-29-2022,11-16-5,60,depth_duration_stimuli/001029_2014-06-08_13-17-57_260595134347_rgbf000065-resize_1/001029_2014-06-08_13-17-57_260595134347_rgbf000065-resize_1-target.png,125,3.0835,7,3373,121,meters,jsons/VE125_randls_28.json,617723,748373,48,Man
60,320163,DepthScenes,duration_manipulation_targetAtFixation,jsons/VE125_randls_28.json,http://54.235.29.9/FacialAge/BNav_EC2/DepthDuration/v2_depth_duration_MTurk/v2_DepthDuration_HTML.html#209,209,1093,614,1366,768,8-29-2022,11-16-5,61,depth_duration_stimuli/000677_2014-06-08_23-10-32_260595134347_rgbf000158-resize_6/000677_2014-06-08_23-10-32_260595134347_rgbf000158-resize_6-target.png,125,3.556,6,3033,126,meters,jsons/VE125_randls_28.json,617723,748373,48,Man
61,320163,DepthScenes,duration_manipulation_targetAtFixation,jsons/VE125_randls_28.json,http://54.235.29.9/FacialAge/BNav_EC2/DepthDuration/v2_depth_duration_MTurk/v2_DepthDuration_HTML.html#209,209,1093,614,1366,768,8-29-2022,11-16-5,62,depth_duration_stimuli/002784_2014-06-22_19-26-30_094959634447_rgbf000083-resize_3/002784_2014-06-22_19-26-30_094959634447_rgbf000083-resize_3-target.png,125,1.8046666666667,5,2923,132,meters,jsons/VE125_randls_28.json,617723,748373,48,Man
62,320163,DepthScenes,duration_manipulation_targetAtFixation,jsons/VE125_randls_28.json,http://54.235.29.9/FacialAge/BNav_EC2/DepthDuration/v2_depth_duration_MTurk/v2_DepthDuration_HTML.html#209,209,1093,614,1366,768,8-29-2022,11-16-5,63,depth_duration_stimuli/001100_2014-06-15_17-46-26_260595134347_rgbf000225-resize_2/001100_2014-06-15_17-46-26_260595134347_rgbf000225-resize_2-target.png,125,2.24,7,2591,129,meters,jsons/VE125_randls_28.json,617723,748373,48,Man
63,320163,DepthScenes,duration_manipulation_targetAtFixation,jsons/VE125_randls_28.json,http://54.235.29.9/FacialAge/BNav_EC2/DepthDuration/v2_depth_duration_MTurk/v2_DepthDuration_HTML.html#209,209,1093,614,1366,768,8-29-2022,11-16-5,64,depth_duration_stimuli/000929_2014-06-09_16-33-19_260595134347_rgbf000139-resize_0/000929_2014-06-09_16-33-19_260595134347_rgbf000139-resize_0-target.png,125,2.8680000000000003,5,3010,124,meters,jsons/VE125_randls_28.json,617723,748373,48,Man
64,320163,DepthScenes,duration_manipulation_targetAtFixation,jsons/VE125_randls_28.json,http://54.235.29.9/FacialAge/BNav_EC2/DepthDuration/v2_depth_duration_MTurk/v2_DepthDuration_HTML.html#209,209,1093,614,1366,768,8-29-2022,11-16-5,65,depth_duration_stimuli/000457_2014-06-08_16-52-43_260595134347_rgbf000199-resize_1/000457_2014-06-08_16-52-43_260595134347_rgbf000199-resize_1-target.png,125,3.6489999999999996,6,6933,121,meters,jsons/VE125_randls_28.json,617723,748373,48,Man
65,320163,DepthScenes,duration_manipulation_targetAtFixation,jsons/VE125_randls_28.json,http://54.235.29.9/FacialAge/BNav_EC2/DepthDuration/v2_depth_duration_MTurk/v2_DepthDuration_HTML.html#209,209,1093,614,1366,768,8-29-2022,11-16-5,66,depth_duration_stimuli/001222_2014-06-17_16-24-06_260595134347_rgbf000073-resize_0/001222_2014-06-17_16-24-06_260595134347_rgbf000073-resize-original.jpg,125,1.4385,0,2699,118,meters,jsons/VE125_randls_28.json,617723,748373,48,Man
66,320163,DepthScenes,duration_manipulation_targetAtFixation,jsons/VE125_randls_28.json,http://54.235.29.9/FacialAge/BNav_EC2/DepthDuration/v2_depth_duration_MTurk/v2_DepthDuration_HTML.html#209,209,1093,614,1366,768,8-29-2022,11-16-5,67,depth_duration_stimuli/003492_2014-05-21_15-50-55_094959634447_rgbf000828-resize_1/003492_2014-05-21_15-50-55_094959634447_rgbf000828-resize_1-target.png,125,4.06875,5,3677,132,meters,jsons/VE125_randls_28.json,617723,748373,48,Man
67,320163,DepthScenes,duration_manipulation_targetAtFixation,jsons/VE125_randls_28.json,http://54.235.29.9/FacialAge/BNav_EC2/DepthDuration/v2_depth_duration_MTurk/v2_DepthDuration_HTML.html#209,209,1093,614,1366,768,8-29-2022,11-16-5,68,depth_duration_stimuli/002568_2014-06-24_13-59-21_094959634447_rgbf000062-resize_4/002568_2014-06-24_13-59-21_094959634447_rgbf000062-resize_4-target.png,125,3.015,6,3240,126,meters,jsons/VE125_randls_28.json,617723,748373,48,Man
68,320163,DepthScenes,duration_manipulation_targetAtFixation,jsons/VE125_randls_28.json,http://54.235.29.9/FacialAge/BNav_EC2/DepthDuration/v2_depth_duration_MTurk/v2_DepthDuration_HTML.html#209,209,1093,614,1366,768,8-29-2022,11-16-5,69,depth_duration_stimuli/000368_2014-06-09_15-53-01_260595134347_rgbf000155-resize_2/000368_2014-06-09_15-53-01_260595134347_rgbf000155-resize_2-target.png,125,2.4859999999999998,5,3111,115,meters,jsons/VE125_randls_28.json,617723,748373,48,Man
69,320163,DepthScenes,duration_manipulation_targetAtFixation,jsons/VE125_randls_28.json,http://54.235.29.9/FacialAge/BNav_EC2/DepthDuration/v2_depth_duration_MTurk/v2_DepthDuration_HTML.html#209,209,1093,614,1366,768,8-29-2022,11-16-5,70,depth_duration_stimuli/002678_2014-06-13_16-15-32_094959634447_rgbf000151-resize_6/002678_2014-06-13_16-15-32_094959634447_rgbf000151-resize_6-target.png,125,2.1830000000000003,5,2691,114,meters,jsons/VE125_randls_28.json,617723,748373,48,Man
70,320163,DepthScenes,duration_manipulation_targetAtFixation,jsons/VE125_randls_28.json,http://54.235.29.9/FacialAge/BNav_EC2/DepthDuration/v2_depth_duration_MTurk/v2_DepthDuration_HTML.html#209,209,1093,614,1366,768,8-29-2022,11-16-5,71,depth_duration_stimuli/001555_2014-06-20_17-12-10_260595134347_rgbf000065-resize_4/001555_2014-06-20_17-12-10_260595134347_rgbf000065-resize_4-target.png,125,1.633,7,2291,134,meters,jsons/VE125_randls_28.json,617723,748373,48,Man
71,320163,DepthScenes,duration_manipulation_targetAtFixation,jsons/VE125_randls_28.json,http://54.235.29.9/FacialAge/BNav_EC2/DepthDuration/v2_depth_duration_MTurk/v2_DepthDuration_HTML.html#209,209,1093,614,1366,768,8-29-2022,11-16-5,72,depth_duration_stimuli/000103_2014-05-14_22-01-17_260595134347_rgbf000152-resize_5/000103_2014-05-14_22-01-17_260595134347_rgbf000152-resize_5-target.png,125,1.993,7,2742,115,meters,jsons/VE125_randls_28.json,617723,748373,48,Man
72,320163,DepthScenes,duration_manipulation_targetAtFixation,jsons/VE125_randls_28.json,http://54.235.29.9/FacialAge/BNav_EC2/DepthDuration/v2_depth_duration_MTurk/v2_DepthDuration_HTML.html#209,209,1093,614,1366,768,8-29-2022,11-16-5,73,depth_duration_stimuli/000906_2014-06-08_13-35-43_260595134347_rgbf000155-resize_1/000906_2014-06-08_13-35-43_260595134347_rgbf000155-resize_1-target.png,125,2.8489999999999998,0,3034,138,meters,jsons/VE125_randls_28.json,617723,748373,48,Man
73,320163,DepthScenes,duration_manipulation_targetAtFixation,jsons/VE125_randls_28.json,http://54.235.29.9/FacialAge/BNav_EC2/DepthDuration/v2_depth_duration_MTurk/v2_DepthDuration_HTML.html#209,209,1093,614,1366,768,8-29-2022,11-16-5,74,depth_duration_stimuli/002805_2014-06-22_19-54-03_094959634447_rgbf000079-resize_1/002805_2014-06-22_19-54-03_094959634447_rgbf000079-resize_1-target.png,125,3.1439999999999997,6,2476,132,meters,jsons/VE125_randls_28.json,617723,748373,48,Man
74,320163,DepthScenes,duration_manipulation_targetAtFixation,jsons/VE125_randls_28.json,http://54.235.29.9/FacialAge/BNav_EC2/DepthDuration/v2_depth_duration_MTurk/v2_DepthDuration_HTML.html#209,209,1093,614,1366,768,8-29-2022,11-16-5,75,depth_duration_stimuli/003534_2014-05-22_15-06-10_094959634447_rgbf000102-resize_4/003534_2014-05-22_15-06-10_094959634447_rgbf000102-resize_4-target.png,125,1.426,3,3031,134,meters,jsons/VE125_randls_28.json,617723,748373,48,Man
75,320163,DepthScenes,duration_manipulation_targetAtFixation,jsons/VE125_randls_28.json,http://54.235.29.9/FacialAge/BNav_EC2/DepthDuration/v2_depth_duration_MTurk/v2_DepthDuration_HTML.html#209,209,1093,614,1366,768,8-29-2022,11-16-5,76,depth_duration_stimuli/002637_2014-06-24_14-51-13_094959634447_rgbf000066-resize_4/002637_2014-06-24_14-51-13_094959634447_rgbf000066-resize_4-target.png,125,1.9955,5,2733,124,meters,jsons/VE125_randls_28.json,617723,748373,48,Man
76,320163,DepthScenes,duration_manipulation_targetAtFixation,jsons/VE125_randls_28.json,http://54.235.29.9/FacialAge/BNav_EC2/DepthDuration/v2_depth_duration_MTurk/v2_DepthDuration_HTML.html#209,209,1093,614,1366,768,8-29-2022,11-16-5,77,depth_duration_stimuli/001011_2014-06-08_23-18-54_260595134347_rgbf000044-resize_4/001011_2014-06-08_23-18-54_260595134347_rgbf000044-resize_4-target.png,125,2.4730000000000003,4,2840,129,meters,jsons/VE125_randls_28.json,617723,748373,48,Man
77,320163,DepthScenes,duration_manipulation_targetAtFixation,jsons/VE125_randls_28.json,http://54.235.29.9/FacialAge/BNav_EC2/DepthDuration/v2_depth_duration_MTurk/v2_DepthDuration_HTML.html#209,209,1093,614,1366,768,8-29-2022,11-16-5,78,depth_duration_stimuli/002875_2014-06-01_15-19-00_094959634447_rgbf000151-resize_1/002875_2014-06-01_15-19-00_094959634447_rgbf000151-resize_1-target.png,125,1.9675,5,2832,115,meters,jsons/VE125_randls_28.json,617723,748373,48,Man
78,320163,DepthScenes,duration_manipulation_targetAtFixation,jsons/VE125_randls_28.json,http://54.235.29.9/FacialAge/BNav_EC2/DepthDuration/v2_depth_duration_MTurk/v2_DepthDuration_HTML.html#209,209,1093,614,1366,768,8-29-2022,11-16-5,79,depth_duration_stimuli/000788_2014-06-08_22-34-36_260595134347_rgbf000131-resize_1/000788_2014-06-08_22-34-36_260595134347_rgbf000131-resize_1-target.png,125,3.359,6,2433,129,meters,jsons/VE125_randls_28.json,617723,748373,48,Man
79,320163,DepthScenes,duration_manipulation_targetAtFixation,jsons/VE125_randls_28.json,http://54.235.29.9/FacialAge/BNav_EC2/DepthDuration/v2_depth_duration_MTurk/v2_DepthDuration_HTML.html#209,209,1093,614,1366,768,8-29-2022,11-16-5,80,depth_duration_stimuli/001235_2014-06-17_16-37-36_260595134347_rgbf000084-resize_4/001235_2014-06-17_16-37-36_260595134347_rgbf000084-resize_4-target.png,125,3.6605,6,3034,122,meters,jsons/VE125_randls_28.json,617723,748373,48,Man
80,320163,DepthScenes,duration_manipulation_targetAtFixation,jsons/VE125_randls_28.json,http://54.235.29.9/FacialAge/BNav_EC2/DepthDuration/v2_depth_duration_MTurk/v2_DepthDuration_HTML.html#209,209,1093,614,1366,768,8-29-2022,11-16-5,81,depth_duration_stimuli/002213_2014-06-28_18-37-58_260595134347_rgbf000055-resize_1/002213_2014-06-28_18-37-58_260595134347_rgbf000055-resize_1-target.png,125,3.62,7,2446,122,meters,jsons/VE125_randls_28.json,617723,748373,48,Man
81,320163,DepthScenes,duration_manipulation_targetAtFixation,jsons/VE125_randls_28.json,http://54.235.29.9/FacialAge/BNav_EC2/DepthDuration/v2_depth_duration_MTurk/v2_DepthDuration_HTML.html#209,209,1093,614,1366,768,8-29-2022,11-16-5,82,depth_duration_stimuli/000691_2014-06-08_13-08-50_260595134347_rgbf000132-resize_3/000691_2014-06-08_13-08-50_260595134347_rgbf000132-resize_3-target.png,125,4.1530000000000005,7,2869,123,meters,jsons/VE125_randls_28.json,617723,748373,48,Man
82,320163,DepthScenes,duration_manipulation_targetAtFixation,jsons/VE125_randls_28.json,http://54.235.29.9/FacialAge/BNav_EC2/DepthDuration/v2_depth_duration_MTurk/v2_DepthDuration_HTML.html#209,209,1093,614,1366,768,8-29-2022,11-16-5,83,depth_duration_stimuli/002043_2014-06-24_20-29-38_260595134347_rgbf000039-resize_4/002043_2014-06-24_20-29-38_260595134347_rgbf000039-resize_4-target.png,125,2.8435,7,2559,127,meters,jsons/VE125_randls_28.json,617723,748373,48,Man
83,320163,DepthScenes,duration_manipulation_targetAtFixation,jsons/VE125_randls_28.json,http://54.235.29.9/FacialAge/BNav_EC2/DepthDuration/v2_depth_duration_MTurk/v2_DepthDuration_HTML.html#209,209,1093,614,1366,768,8-29-2022,11-16-5,84,depth_duration_stimuli/003048_2014-06-15_13-49-43_094959634447_rgbf000150-resize_1/003048_2014-06-15_13-49-43_094959634447_rgbf000150-resize_1-target.png,125,4.0035,8,2526,122,meters,jsons/VE125_randls_28.json,617723,748373,48,Man
84,320163,DepthScenes,duration_manipulation_targetAtFixation,jsons/VE125_randls_28.json,http://54.235.29.9/FacialAge/BNav_EC2/DepthDuration/v2_depth_duration_MTurk/v2_DepthDuration_HTML.html#209,209,1093,614,1366,768,8-29-2022,11-16-5,85,depth_duration_stimuli/001199_2014-06-17_16-03-48_260595134347_rgbf000077-resize_0/001199_2014-06-17_16-03-48_260595134347_rgbf000077-resize_0-target.png,125,3.4375,8,2825,120,meters,jsons/VE125_randls_28.json,617723,748373,48,Man
85,320163,DepthScenes,duration_manipulation_targetAtFixation,jsons/VE125_randls_28.json,http://54.235.29.9/FacialAge/BNav_EC2/DepthDuration/v2_depth_duration_MTurk/v2_DepthDuration_HTML.html#209,209,1093,614,1366,768,8-29-2022,11-16-5,86,depth_duration_stimuli/000502_2014-06-08_23-02-32_260595134347_rgbf000063-resize_4/000502_2014-06-08_23-02-32_260595134347_rgbf000063-resize_4-target.png,125,2.431,6,2643,137,meters,jsons/VE125_randls_28.json,617723,748373,48,Man
86,320163,DepthScenes,duration_manipulation_targetAtFixation,jsons/VE125_randls_28.json,http://54.235.29.9/FacialAge/BNav_EC2/DepthDuration/v2_depth_duration_MTurk/v2_DepthDuration_HTML.html#209,209,1093,614,1366,768,8-29-2022,11-16-5,87,depth_duration_stimuli/001808_2014-06-26_20-50-58_260595134347_rgbf000029-resize_1/001808_2014-06-26_20-50-58_260595134347_rgbf000029-resize_1-target.png,125,4.249,5,2940,112,meters,jsons/VE125_randls_28.json,617723,748373,48,Man
87,320163,DepthScenes,duration_manipulation_targetAtFixation,jsons/VE125_randls_28.json,http://54.235.29.9/FacialAge/BNav_EC2/DepthDuration/v2_depth_duration_MTurk/v2_DepthDuration_HTML.html#209,209,1093,614,1366,768,8-29-2022,11-16-5,88,depth_duration_stimuli/001815_2014-06-26_20-52-55_260595134347_rgbf000020-resize_0/001815_2014-06-26_20-52-55_260595134347_rgbf000020-resize_0-target.png,125,3.3865,8,2616,134,meters,jsons/VE125_randls_28.json,617723,748373,48,Man
88,320163,DepthScenes,duration_manipulation_targetAtFixation,jsons/VE125_randls_28.json,http://54.235.29.9/FacialAge/BNav_EC2/DepthDuration/v2_depth_duration_MTurk/v2_DepthDuration_HTML.html#209,209,1093,614,1366,768,8-29-2022,11-16-5,89,depth_duration_stimuli/000470_2014-06-09_19-42-40_260595134347_rgbf000094-resize_1/000470_2014-06-09_19-42-40_260595134347_rgbf000094-resize_1-target.png,125,1.831,6,3374,110,meters,jsons/VE125_randls_28.json,617723,748373,48,Man
89,320163,DepthScenes,duration_manipulation_targetAtFixation,jsons/VE125_randls_28.json,http://54.235.29.9/FacialAge/BNav_EC2/DepthDuration/v2_depth_duration_MTurk/v2_DepthDuration_HTML.html#209,209,1093,614,1366,768,8-29-2022,11-16-5,90,depth_duration_stimuli/000109_2014-05-14_23-41-52_260595134347_rgbf000035-resize_9/000109_2014-05-14_23-41-52_260595134347_rgbf000035-resize_9-target.png,125,1.3545,5,3260,111,meters,jsons/VE125_randls_28.json,617723,748373,48,Man
90,320163,DepthScenes,duration_manipulation_targetAtFixation,jsons/VE125_randls_28.json,http://54.235.29.9/FacialAge/BNav_EC2/DepthDuration/v2_depth_duration_MTurk/v2_DepthDuration_HTML.html#209,209,1093,614,1366,768,8-29-2022,11-16-5,91,depth_duration_stimuli/000009_2014-05-26_14-32-05_260595134347_rgbf000034-resize_3/000009_2014-05-26_14-32-05_260595134347_rgbf000034-resize_3-target.png,125,3.8715,5,3809,126,meters,jsons/VE125_randls_28.json,617723,748373,48,Man
91,320163,DepthScenes,duration_manipulation_targetAtFixation,jsons/VE125_randls_28.json,http://54.235.29.9/FacialAge/BNav_EC2/DepthDuration/v2_depth_duration_MTurk/v2_DepthDuration_HTML.html#209,209,1093,614,1366,768,8-29-2022,11-16-5,92,depth_duration_stimuli/001828_2014-06-26_21-40-03_260595134347_rgbf000024-resize_0/001828_2014-06-26_21-40-03_260595134347_rgbf000024-resize_0-target.png,125,4.8260000000000005,6,2774,122,meters,jsons/VE125_randls_28.json,617723,748373,48,Man
92,320163,DepthScenes,duration_manipulation_targetAtFixation,jsons/VE125_randls_28.json,http://54.235.29.9/FacialAge/BNav_EC2/DepthDuration/v2_depth_duration_MTurk/v2_DepthDuration_HTML.html#209,209,1093,614,1366,768,8-29-2022,11-16-5,93,depth_duration_stimuli/002118_2014-06-25_20-32-08_260595134347_rgbf000078-resize_1/002118_2014-06-25_20-32-08_260595134347_rgbf000078-resize_1-target.png,125,2.6460000000000004,6,3607,124,meters,jsons/VE125_randls_28.json,617723,748373,48,Man
93,320163,DepthScenes,duration_manipulation_targetAtFixation,jsons/VE125_randls_28.json,http://54.235.29.9/FacialAge/BNav_EC2/DepthDuration/v2_depth_duration_MTurk/v2_DepthDuration_HTML.html#209,209,1093,614,1366,768,8-29-2022,11-16-5,94,depth_duration_stimuli/001516_2014-06-20_16-25-09_260595134347_rgbf000076-resize_2/001516_2014-06-20_16-25-09_260595134347_rgbf000076-resize_2-target.png,125,1.7445,4,2801,113,meters,jsons/VE125_randls_28.json,617723,748373,48,Man
94,320163,DepthScenes,duration_manipulation_targetAtFixation,jsons/VE125_randls_28.json,http://54.235.29.9/FacialAge/BNav_EC2/DepthDuration/v2_depth_duration_MTurk/v2_DepthDuration_HTML.html#209,209,1093,614,1366,768,8-29-2022,11-16-5,95,depth_duration_stimuli/001055_2014-06-08_18-45-35_260595134347_rgbf000111-resize_4/001055_2014-06-08_18-45-35_260595134347_rgbf000111-resize_4-target.png,125,2.4290000000000003,8,2859,140,meters,jsons/VE125_randls_28.json,617723,748373,48,Man
95,320163,DepthScenes,duration_manipulation_targetAtFixation,jsons/VE125_randls_28.json,http://54.235.29.9/FacialAge/BNav_EC2/DepthDuration/v2_depth_duration_MTurk/v2_DepthDuration_HTML.html#209,209,1093,614,1366,768,8-29-2022,11-16-5,96,depth_duration_stimuli/000549_2014-06-08_22-10-24_260595134347_rgbf000247-resize_3/000549_2014-06-08_22-10-24_260595134347_rgbf000247-resize_3-target.png,125,1.841,5,3065,124,meters,jsons/VE125_randls_28.json,617723,748373,48,Man
96,320163,DepthScenes,duration_manipulation_targetAtFixation,jsons/VE125_randls_28.json,http://54.235.29.9/FacialAge/BNav_EC2/DepthDuration/v2_depth_duration_MTurk/v2_DepthDuration_HTML.html#209,209,1093,614,1366,768,8-29-2022,11-16-5,97,depth_duration_stimuli/002725_2014-06-22_11-47-51_094959634447_rgbf000070-resize_1/002725_2014-06-22_11-47-51_094959634447_rgbf000070-resize_1-target.png,125,2.195,7,2958,124,meters,jsons/VE125_randls_28.json,617723,748373,48,Man
97,320163,DepthScenes,duration_manipulation_targetAtFixation,jsons/VE125_randls_28.json,http://54.235.29.9/FacialAge/BNav_EC2/DepthDuration/v2_depth_duration_MTurk/v2_DepthDuration_HTML.html#209,209,1093,614,1366,768,8-29-2022,11-16-5,98,depth_duration_stimuli/002344_2014-06-28_20-06-29_260595134347_rgbf000030-resize_1/002344_2014-06-28_20-06-29_260595134347_rgbf000030-resize_1-target.png,125,1.5795,2,3288,111,meters,jsons/VE125_randls_28.json,617723,748373,48,Man
98,320163,DepthScenes,duration_manipulation_targetAtFixation,jsons/VE125_randls_28.json,http://54.235.29.9/FacialAge/BNav_EC2/DepthDuration/v2_depth_duration_MTurk/v2_DepthDuration_HTML.html#209,209,1093,614,1366,768,8-29-2022,11-16-5,99,depth_duration_stimuli/001540_2014-06-20_17-01-05_260595134347_rgbf000086-resize_2/001540_2014-06-20_17-01-05_260595134347_rgbf000086-resize-original.jpg,125,1.459,0,3179,112,meters,jsons/VE125_randls_28.json,617723,748373,48,Man
99,320163,DepthScenes,duration_manipulation_targetAtFixation,jsons/VE125_randls_28.json,http://54.235.29.9/FacialAge/BNav_EC2/DepthDuration/v2_depth_duration_MTurk/v2_DepthDuration_HTML.html#209,209,1093,614,1366,768,8-29-2022,11-16-5,100,depth_duration_stimuli/000878_2014-06-08_22-52-45_260595134347_rgbf000045-resize_2/000878_2014-06-08_22-52-45_260595134347_rgbf000045-resize_2-target.png,125,2.092,5,3371,114,meters,jsons/VE125_randls_28.json,617723,748373,48,Man
100,320163,DepthScenes,duration_manipulation_targetAtFixation,jsons/VE125_randls_28.json,http://54.235.29.9/FacialAge/BNav_EC2/DepthDuration/v2_depth_duration_MTurk/v2_DepthDuration_HTML.html#209,209,1093,614,1366,768,8-29-2022,11-16-5,101,depth_duration_stimuli/002953_2014-06-08_17-32-18_094959634447_rgbf000059-resize_5/002953_2014-06-08_17-32-18_094959634447_rgbf000059-resize_5-target.png,125,1.551,3,2801,116,meters,jsons/VE125_randls_28.json,617723,748373,48,Man
101,320163,DepthScenes,duration_manipulation_targetAtFixation,jsons/VE125_randls_28.json,http://54.235.29.9/FacialAge/BNav_EC2/DepthDuration/v2_depth_duration_MTurk/v2_DepthDuration_HTML.html#209,209,1093,614,1366,768,8-29-2022,11-16-5,102,depth_duration_stimuli/002630_2014-06-24_14-47-50_094959634447_rgbf000055-resize_1/002630_2014-06-24_14-47-50_094959634447_rgbf000055-resize_1-target.png,125,3.0095,6,4025,124,meters,jsons/VE125_randls_28.json,617723,748373,48,Man
102,320163,DepthScenes,duration_manipulation_targetAtFixation,jsons/VE125_randls_28.json,http://54.235.29.9/FacialAge/BNav_EC2/DepthDuration/v2_depth_duration_MTurk/v2_DepthDuration_HTML.html#209,209,1093,614,1366,768,8-29-2022,11-16-5,103,depth_duration_stimuli/002758_2014-06-22_19-11-20_094959634447_rgbf000128-resize_1/002758_2014-06-22_19-11-20_094959634447_rgbf000128-resize_1-target.png,125,2.555,5,2883,130,meters,jsons/VE125_randls_28.json,617723,748373,48,Man
103,320163,DepthScenes,duration_manipulation_targetAtFixation,jsons/VE125_randls_28.json,http://54.235.29.9/FacialAge/BNav_EC2/DepthDuration/v2_depth_duration_MTurk/v2_DepthDuration_HTML.html#209,209,1093,614,1366,768,8-29-2022,11-16-5,104,depth_duration_stimuli/002445_2014-06-28_20-32-16_260595134347_rgbf000029-resize_4/002445_2014-06-28_20-32-16_260595134347_rgbf000029-resize_4-target.png,125,2.5315,3,3842,119,meters,jsons/VE125_randls_28.json,617723,748373,48,Man
104,320163,DepthScenes,duration_manipulation_targetAtFixation,jsons/VE125_randls_28.json,http://54.235.29.9/FacialAge/BNav_EC2/DepthDuration/v2_depth_duration_MTurk/v2_DepthDuration_HTML.html#209,209,1093,614,1366,768,8-29-2022,11-16-5,105,depth_duration_stimuli/000780_2014-06-08_22-28-29_260595134347_rgbf000126-resize_1/000780_2014-06-08_22-28-29_260595134347_rgbf000126-resize_1-target.png,125,3.3825,8,2974,141,meters,jsons/VE125_randls_28.json,617723,748373,48,Man
105,320163,DepthScenes,duration_manipulation_targetAtFixation,jsons/VE125_randls_28.json,http://54.235.29.9/FacialAge/BNav_EC2/DepthDuration/v2_depth_duration_MTurk/v2_DepthDuration_HTML.html#209,209,1093,614,1366,768,8-29-2022,11-16-5,106,depth_duration_stimuli/000642_2014-06-08_16-59-25_260595134347_rgbf000098-resize_2/000642_2014-06-08_16-59-25_260595134347_rgbf000098-resize_2-target.png,125,2.8815,6,3598,127,meters,jsons/VE125_randls_28.json,617723,748373,48,Man
106,320163,DepthScenes,duration_manipulation_targetAtFixation,jsons/VE125_randls_28.json,http://54.235.29.9/FacialAge/BNav_EC2/DepthDuration/v2_depth_duration_MTurk/v2_DepthDuration_HTML.html#209,209,1093,614,1366,768,8-29-2022,11-16-5,107,depth_duration_stimuli/002425_2014-06-28_20-27-29_260595134347_rgbf000031-resize_8/002425_2014-06-28_20-27-29_260595134347_rgbf000031-resize_8-target.png,125,3.8960000000000004,6,3786,125,meters,jsons/VE125_randls_28.json,617723,748373,48,Man
107,320163,DepthScenes,duration_manipulation_targetAtFixation,jsons/VE125_randls_28.json,http://54.235.29.9/FacialAge/BNav_EC2/DepthDuration/v2_depth_duration_MTurk/v2_DepthDuration_HTML.html#209,209,1093,614,1366,768,8-29-2022,11-16-5,108,depth_duration_stimuli/001133_2014-06-17_14-49-16_260595134347_rgbf000100-resize_0/001133_2014-06-17_14-49-16_260595134347_rgbf000100-resize_0-target.png,125,4.2115,6,7222,127,meters,jsons/VE125_randls_28.json,617723,748373,48,Man
108,320163,DepthScenes,duration_manipulation_targetAtFixation,jsons/VE125_randls_28.json,http://54.235.29.9/FacialAge/BNav_EC2/DepthDuration/v2_depth_duration_MTurk/v2_DepthDuration_HTML.html#209,209,1093,614,1366,768,8-29-2022,11-16-5,109,depth_duration_stimuli/001132_2014-06-17_14-48-54_260595134347_rgbf000100-resize_2/001132_2014-06-17_14-48-54_260595134347_rgbf000100-resize_2-target.png,125,3.753,5,3175,120,meters,jsons/VE125_randls_28.json,617723,748373,48,Man
109,320163,DepthScenes,duration_manipulation_targetAtFixation,jsons/VE125_randls_28.json,http://54.235.29.9/FacialAge/BNav_EC2/DepthDuration/v2_depth_duration_MTurk/v2_DepthDuration_HTML.html#209,209,1093,614,1366,768,8-29-2022,11-16-5,110,depth_duration_stimuli/001164_2014-06-17_15-35-46_260595134347_rgbf000085-resize_3/001164_2014-06-17_15-35-46_260595134347_rgbf000085-resize_3-target.png,125,2.354,7,4614,125,meters,jsons/VE125_randls_28.json,617723,748373,48,Man
110,320163,DepthScenes,duration_manipulation_targetAtFixation,jsons/VE125_randls_28.json,http://54.235.29.9/FacialAge/BNav_EC2/DepthDuration/v2_depth_duration_MTurk/v2_DepthDuration_HTML.html#209,209,1093,614,1366,768,8-29-2022,11-16-5,111,depth_duration_stimuli/001136_2014-06-17_15-19-41_260595134347_rgbf000076-resize_3/001136_2014-06-17_15-19-41_260595134347_rgbf000076-resize_3-target.png,125,1.8655,6,3126,123,meters,jsons/VE125_randls_28.json,617723,748373,48,Man
111,320163,DepthScenes,duration_manipulation_targetAtFixation,jsons/VE125_randls_28.json,http://54.235.29.9/FacialAge/BNav_EC2/DepthDuration/v2_depth_duration_MTurk/v2_DepthDuration_HTML.html#209,209,1093,614,1366,768,8-29-2022,11-16-5,112,depth_duration_stimuli/001110_2014-06-15_17-25-28_260595134347_rgbf000150-resize_1/001110_2014-06-15_17-25-28_260595134347_rgbf000150-resize_1-target.png,125,1.7115,5,2780,124,meters,jsons/VE125_randls_28.json,617723,748373,48,Man
112,320163,DepthScenes,duration_manipulation_targetAtFixation,jsons/VE125_randls_28.json,http://54.235.29.9/FacialAge/BNav_EC2/DepthDuration/v2_depth_duration_MTurk/v2_DepthDuration_HTML.html#209,209,1093,614,1366,768,8-29-2022,11-16-5,113,depth_duration_stimuli/000927_2014-06-09_16-32-30_260595134347_rgbf000123-resize_3/000927_2014-06-09_16-32-30_260595134347_rgbf000123-resize_3-target.png,125,2.6785,6,2843,116,meters,jsons/VE125_randls_28.json,617723,748373,48,Man
113,320163,DepthScenes,duration_manipulation_targetAtFixation,jsons/VE125_randls_28.json,http://54.235.29.9/FacialAge/BNav_EC2/DepthDuration/v2_depth_duration_MTurk/v2_DepthDuration_HTML.html#209,209,1093,614,1366,768,8-29-2022,11-16-5,114,depth_duration_stimuli/001417_2014-06-19_16-25-36_260595134347_rgbf000115-resize_5/001417_2014-06-19_16-25-36_260595134347_rgbf000115-resize_5-target.png,125,4.6255,5,3830,124,meters,jsons/VE125_randls_28.json,617723,748373,48,Man
114,320163,DepthScenes,duration_manipulation_targetAtFixation,jsons/VE125_randls_28.json,http://54.235.29.9/FacialAge/BNav_EC2/DepthDuration/v2_depth_duration_MTurk/v2_DepthDuration_HTML.html#209,209,1093,614,1366,768,8-29-2022,11-16-5,115,depth_duration_stimuli/003081_2014-06-15_15-19-16_094959634447_rgbf000150-resize_1/003081_2014-06-15_15-19-16_094959634447_rgbf000150-resize_1-target.png,125,3.9125,6,2800,126,meters,jsons/VE125_randls_28.json,617723,748373,48,Man
115,320163,DepthScenes,duration_manipulation_targetAtFixation,jsons/VE125_randls_28.json,http://54.235.29.9/FacialAge/BNav_EC2/DepthDuration/v2_depth_duration_MTurk/v2_DepthDuration_HTML.html#209,209,1093,614,1366,768,8-29-2022,11-16-5,116,depth_duration_stimuli/001170_2014-06-17_15-43-44_260595134347_rgbf000096-resize_6/001170_2014-06-17_15-43-44_260595134347_rgbf000096-resize-original.jpg,125,1.1909999999999998,0,3538,127,meters,jsons/VE125_randls_28.json,617723,748373,48,Man
116,320163,DepthScenes,duration_manipulation_targetAtFixation,jsons/VE125_randls_28.json,http://54.235.29.9/FacialAge/BNav_EC2/DepthDuration/v2_depth_duration_MTurk/v2_DepthDuration_HTML.html#209,209,1093,614,1366,768,8-29-2022,11-16-5,117,depth_duration_stimuli/000917_2014-06-09_22-45-29_260595134347_rgbf000149-resize_3/000917_2014-06-09_22-45-29_260595134347_rgbf000149-resize_3-target.png,125,4.1865,6,4564,128,meters,jsons/VE125_randls_28.json,617723,748373,48,Man
117,320163,DepthScenes,duration_manipulation_targetAtFixation,jsons/VE125_randls_28.json,http://54.235.29.9/FacialAge/BNav_EC2/DepthDuration/v2_depth_duration_MTurk/v2_DepthDuration_HTML.html#209,209,1093,614,1366,768,8-29-2022,11-16-5,118,depth_duration_stimuli/002323_2014-06-28_20-01-54_260595134347_rgbf000051-resize_4/002323_2014-06-28_20-01-54_260595134347_rgbf000051-resize_4-target.png,125,3.7310000000000003,7,2767,120,meters,jsons/VE125_randls_28.json,617723,748373,48,Man
118,320163,DepthScenes,duration_manipulation_targetAtFixation,jsons/VE125_randls_28.json,http://54.235.29.9/FacialAge/BNav_EC2/DepthDuration/v2_depth_duration_MTurk/v2_DepthDuration_HTML.html#209,209,1093,614,1366,768,8-29-2022,11-16-5,119,depth_duration_stimuli/002153_2014-06-25_21-27-18_260595134347_rgbf000038-resize_5/002153_2014-06-25_21-27-18_260595134347_rgbf000038-resize_5-target.png,125,2.505,5,2923,132,meters,jsons/VE125_randls_28.json,617723,748373,48,Man
119,320163,DepthScenes,duration_manipulation_targetAtFixation,jsons/VE125_randls_28.json,http://54.235.29.9/FacialAge/BNav_EC2/DepthDuration/v2_depth_duration_MTurk/v2_DepthDuration_HTML.html#209,209,1093,614,1366,768,8-29-2022,11-16-5,120,depth_duration_stimuli/002660_2014-06-13_15-44-18_094959634447_rgbf001878-resize_2/002660_2014-06-13_15-44-18_094959634447_rgbf001878-resize_2-target.png,125,3.576,6,3332,117,meters,jsons/VE125_randls_28.json,617723,748373,48,Man
120,320163,DepthScenes,duration_manipulation_targetAtFixation,jsons/VE125_randls_28.json,http://54.235.29.9/FacialAge/BNav_EC2/DepthDuration/v2_depth_duration_MTurk/v2_DepthDuration_HTML.html#209,209,1093,614,1366,768,8-29-2022,11-16-5,121,depth_duration_stimuli/001056_2014-06-08_18-46-44_260595134347_rgbf000068-resize_0/001056_2014-06-08_18-46-44_260595134347_rgbf000068-resize_0-target.png,125,2.6625,5,2817,122,meters,jsons/VE125_randls_28.json,617723,748373,48,Man
121,320163,DepthScenes,duration_manipulation_targetAtFixation,jsons/VE125_randls_28.json,http://54.235.29.9/FacialAge/BNav_EC2/DepthDuration/v2_depth_duration_MTurk/v2_DepthDuration_HTML.html#209,209,1093,614,1366,768,8-29-2022,11-16-5,122,depth_duration_stimuli/002199_2014-06-28_18-33-56_260595134347_rgbf000074-resize_0/002199_2014-06-28_18-33-56_260595134347_rgbf000074-resize_0-target.png,125,1.996,5,2964,118,meters,jsons/VE125_randls_28.json,617723,748373,48,Man
122,320163,DepthScenes,duration_manipulation_targetAtFixation,jsons/VE125_randls_28.json,http://54.235.29.9/FacialAge/BNav_EC2/DepthDuration/v2_depth_duration_MTurk/v2_DepthDuration_HTML.html#209,209,1093,614,1366,768,8-29-2022,11-16-5,123,depth_duration_stimuli/001150_2014-06-17_15-27-34_260595134347_rgbf000108-resize_2/001150_2014-06-17_15-27-34_260595134347_rgbf000108-resize_2-target.png,125,4.0325,4,3643,126,meters,jsons/VE125_randls_28.json,617723,748373,48,Man
123,320163,DepthScenes,duration_manipulation_targetAtFixation,jsons/VE125_randls_28.json,http://54.235.29.9/FacialAge/BNav_EC2/DepthDuration/v2_depth_duration_MTurk/v2_DepthDuration_HTML.html#209,209,1093,614,1366,768,8-29-2022,11-16-5,124,depth_duration_stimuli/000665_2014-06-09_20-42-35_260595134347_rgbf000110-resize_1/000665_2014-06-09_20-42-35_260595134347_rgbf000110-resize_1-target.png,125,3.057,6,2744,122,meters,jsons/VE125_randls_28.json,617723,748373,48,Man
124,320163,DepthScenes,duration_manipulation_targetAtFixation,jsons/VE125_randls_28.json,http://54.235.29.9/FacialAge/BNav_EC2/DepthDuration/v2_depth_duration_MTurk/v2_DepthDuration_HTML.html#209,209,1093,614,1366,768,8-29-2022,11-16-5,125,depth_duration_stimuli/002375_2014-06-28_20-13-44_260595134347_rgbf000032-resize_1/002375_2014-06-28_20-13-44_260595134347_rgbf000032-resize_1-target.png,125,4.0175,5,2377,123,meters,jsons/VE125_randls_28.json,617723,748373,48,Man
125,320163,DepthScenes,duration_manipulation_targetAtFixation,jsons/VE125_randls_28.json,http://54.235.29.9/FacialAge/BNav_EC2/DepthDuration/v2_depth_duration_MTurk/v2_DepthDuration_HTML.html#209,209,1093,614,1366,768,8-29-2022,11-16-5,126,depth_duration_stimuli/002657_2014-06-13_15-29-54_094959634447_rgbf000150-resize_1/002657_2014-06-13_15-29-54_094959634447_rgbf000150-resize_1-target.png,125,4.919,6,2617,124,meters,jsons/VE125_randls_28.json,617723,748373,48,Man
126,320163,DepthScenes,duration_manipulation_targetAtFixation,jsons/VE125_randls_28.json,http://54.235.29.9/FacialAge/BNav_EC2/DepthDuration/v2_depth_duration_MTurk/v2_DepthDuration_HTML.html#209,209,1093,614,1366,768,8-29-2022,11-16-5,127,depth_duration_stimuli/001167_2014-06-17_15-38-07_260595134347_rgbf000108-resize_0/001167_2014-06-17_15-38-07_260595134347_rgbf000108-resize_0-target.png,125,1.8505,6,2781,114,meters,jsons/VE125_randls_28.json,617723,748373,48,Man
127,320163,DepthScenes,duration_manipulation_targetAtFixation,jsons/VE125_randls_28.json,http://54.235.29.9/FacialAge/BNav_EC2/DepthDuration/v2_depth_duration_MTurk/v2_DepthDuration_HTML.html#209,209,1093,614,1366,768,8-29-2022,11-16-5,128,depth_duration_stimuli/003587_2014-05-23_16-48-02_094959634447_rgbf002384-resize_2/003587_2014-05-23_16-48-02_094959634447_rgbf002384-resize_2-target.png,125,1.357,5,2705,124,meters,jsons/VE125_randls_28.json,617723,748373,48,Man
128,320163,DepthScenes,duration_manipulation_targetAtFixation,jsons/VE125_randls_28.json,http://54.235.29.9/FacialAge/BNav_EC2/DepthDuration/v2_depth_duration_MTurk/v2_DepthDuration_HTML.html#209,209,1093,614,1366,768,8-29-2022,11-16-5,129,depth_duration_stimuli/001016_2014-06-09_16-16-10_260595134347_rgbf000112-resize_5/001016_2014-06-09_16-16-10_260595134347_rgbf000112-resize_5-target.png,125,1.6565,6,2804,125,meters,jsons/VE125_randls_28.json,617723,748373,48,Man
129,320163,DepthScenes,duration_manipulation_targetAtFixation,jsons/VE125_randls_28.json,http://54.235.29.9/FacialAge/BNav_EC2/DepthDuration/v2_depth_duration_MTurk/v2_DepthDuration_HTML.html#209,209,1093,614,1366,768,8-29-2022,11-16-5,130,depth_duration_stimuli/002340_2014-06-28_20-05-46_260595134347_rgbf000113-resize_0/002340_2014-06-28_20-05-46_260595134347_rgbf000113-resize_0-target.png,125,2.4735,7,2657,122,meters,jsons/VE125_randls_28.json,617723,748373,48,Man
130,320163,DepthScenes,duration_manipulation_targetAtFixation,jsons/VE125_randls_28.json,http://54.235.29.9/FacialAge/BNav_EC2/DepthDuration/v2_depth_duration_MTurk/v2_DepthDuration_HTML.html#209,209,1093,614,1366,768,8-29-2022,11-16-5,131,depth_duration_stimuli/002279_2014-06-28_18-55-32_260595134347_rgbf000040-resize_5/002279_2014-06-28_18-55-32_260595134347_rgbf000040-resize_5-target.png,125,1.5043333333333,4,3618,121,meters,jsons/VE125_randls_28.json,617723,748373,48,Man
131,320163,DepthScenes,duration_manipulation_targetAtFixation,jsons/VE125_randls_28.json,http://54.235.29.9/FacialAge/BNav_EC2/DepthDuration/v2_depth_duration_MTurk/v2_DepthDuration_HTML.html#209,209,1093,614,1366,768,8-29-2022,11-16-5,132,depth_duration_stimuli/000635_2014-06-08_16-38-42_260595134347_rgbf000106-resize_1/000635_2014-06-08_16-38-42_260595134347_rgbf000106-resize_1-target.png,125,2.074,5,2588,121,meters,jsons/VE125_randls_28.json,617723,748373,48,Man
132,320163,DepthScenes,duration_manipulation_targetAtFixation,jsons/VE125_randls_28.json,http://54.235.29.9/FacialAge/BNav_EC2/DepthDuration/v2_depth_duration_MTurk/v2_DepthDuration_HTML.html#209,209,1093,614,1366,768,8-29-2022,11-16-5,133,depth_duration_stimuli/003070_2014-06-15_14-58-27_094959634447_rgbf000150-resize_3/003070_2014-06-15_14-58-27_094959634447_rgbf000150-resize_3-target.png,125,2.9415,6,2842,112,meters,jsons/VE125_randls_28.json,617723,748373,48,Man
133,320163,DepthScenes,duration_manipulation_targetAtFixation,jsons/VE125_randls_28.json,http://54.235.29.9/FacialAge/BNav_EC2/DepthDuration/v2_depth_duration_MTurk/v2_DepthDuration_HTML.html#209,209,1093,614,1366,768,8-29-2022,11-16-5,134,depth_duration_stimuli/000943_2014-06-09_19-31-07_260595134347_rgbf000128-resize_1/000943_2014-06-09_19-31-07_260595134347_rgbf000128-resize_1-target.png,125,1.9765,5,2347,122,meters,jsons/VE125_randls_28.json,617723,748373,48,Man
134,320163,DepthScenes,duration_manipulation_targetAtFixation,jsons/VE125_randls_28.json,http://54.235.29.9/FacialAge/BNav_EC2/DepthDuration/v2_depth_duration_MTurk/v2_DepthDuration_HTML.html#209,209,1093,614,1366,768,8-29-2022,11-16-5,135,depth_duration_stimuli/002072_2014-06-24_21-48-06_260595134347_rgbf000115-resize_0/002072_2014-06-24_21-48-06_260595134347_rgbf000115-resize-original.jpg,125,4.702,0,4471,126,meters,jsons/VE125_randls_28.json,617723,748373,48,Man
135,320163,DepthScenes,duration_manipulation_targetAtFixation,jsons/VE125_randls_28.json,http://54.235.29.9/FacialAge/BNav_EC2/DepthDuration/v2_depth_duration_MTurk/v2_DepthDuration_HTML.html#209,209,1093,614,1366,768,8-29-2022,11-16-5,136,depth_duration_stimuli/000682_2014-06-08_23-14-58_260595134347_rgbf000041-resize_5/000682_2014-06-08_23-14-58_260595134347_rgbf000041-resize_5-target.png,125,2.7239999999999998,5,2632,123,meters,jsons/VE125_randls_28.json,617723,748373,48,Man
136,320163,DepthScenes,duration_manipulation_targetAtFixation,jsons/VE125_randls_28.json,http://54.235.29.9/FacialAge/BNav_EC2/DepthDuration/v2_depth_duration_MTurk/v2_DepthDuration_HTML.html#209,209,1093,614,1366,768,8-29-2022,11-16-5,137,depth_duration_stimuli/001650_2014-06-20_12-09-00_260595134347_rgbf000087-resize_3/001650_2014-06-20_12-09-00_260595134347_rgbf000087-resize_3-target.png,125,1.9505,6,3751,116,meters,jsons/VE125_randls_28.json,617723,748373,48,Man
137,320163,DepthScenes,duration_manipulation_targetAtFixation,jsons/VE125_randls_28.json,http://54.235.29.9/FacialAge/BNav_EC2/DepthDuration/v2_depth_duration_MTurk/v2_DepthDuration_HTML.html#209,209,1093,614,1366,768,8-29-2022,11-16-5,138,depth_duration_stimuli/000493_2014-06-09_21-01-18_260595134347_rgbf000196-resize_3/000493_2014-06-09_21-01-18_260595134347_rgbf000196-resize_3-target.png,125,3.44,5,2741,126,meters,jsons/VE125_randls_28.json,617723,748373,48,Man
138,320163,DepthScenes,duration_manipulation_targetAtFixation,jsons/VE125_randls_28.json,http://54.235.29.9/FacialAge/BNav_EC2/DepthDuration/v2_depth_duration_MTurk/v2_DepthDuration_HTML.html#209,209,1093,614,1366,768,8-29-2022,11-16-5,139,depth_duration_stimuli/000191_2014-05-12_17-07-38_260595134347_rgbf000199-resize_0/000191_2014-05-12_17-07-38_260595134347_rgbf000199-resize_0-target.png,125,3.7995,7,2607,120,meters,jsons/VE125_randls_28.json,617723,748373,48,Man
139,320163,DepthScenes,duration_manipulation_targetAtFixation,jsons/VE125_randls_28.json,http://54.235.29.9/FacialAge/BNav_EC2/DepthDuration/v2_depth_duration_MTurk/v2_DepthDuration_HTML.html#209,209,1093,614,1366,768,8-29-2022,11-16-5,140,depth_duration_stimuli/002763_2014-06-22_19-13-10_094959634447_rgbf000075-resize_4/002763_2014-06-22_19-13-10_094959634447_rgbf000075-resize_4-target.png,125,1.68375,6,2487,125,meters,jsons/VE125_randls_28.json,617723,748373,48,Man
140,320163,DepthScenes,duration_manipulation_targetAtFixation,jsons/VE125_randls_28.json,http://54.235.29.9/FacialAge/BNav_EC2/DepthDuration/v2_depth_duration_MTurk/v2_DepthDuration_HTML.html#209,209,1093,614,1366,768,8-29-2022,11-16-5,141,depth_duration_stimuli/002209_2014-06-28_18-36-10_260595134347_rgbf000051-resize_1/002209_2014-06-28_18-36-10_260595134347_rgbf000051-resize_1-target.png,125,2.057,5,2564,136,meters,jsons/VE125_randls_28.json,617723,748373,48,Man
141,320163,DepthScenes,duration_manipulation_targetAtFixation,jsons/VE125_randls_28.json,http://54.235.29.9/FacialAge/BNav_EC2/DepthDuration/v2_depth_duration_MTurk/v2_DepthDuration_HTML.html#209,209,1093,614,1366,768,8-29-2022,11-16-5,142,depth_duration_stimuli/002057_2014-06-24_21-00-13_260595134347_rgbf000120-resize_1/002057_2014-06-24_21-00-13_260595134347_rgbf000120-resize_1-target.png,125,2.967,7,2607,114,meters,jsons/VE125_randls_28.json,617723,748373,48,Man
142,320163,DepthScenes,duration_manipulation_targetAtFixation,jsons/VE125_randls_28.json,http://54.235.29.9/FacialAge/BNav_EC2/DepthDuration/v2_depth_duration_MTurk/v2_DepthDuration_HTML.html#209,209,1093,614,1366,768,8-29-2022,11-16-5,143,depth_duration_stimuli/000709_2014-06-08_13-51-55_260595134347_rgbf000068-resize_3/000709_2014-06-08_13-51-55_260595134347_rgbf000068-resize_3-target.png,125,1.8030000000000002,0,2636,134,meters,jsons/VE125_randls_28.json,617723,748373,48,Man
143,320163,DepthScenes,duration_manipulation_targetAtFixation,jsons/VE125_randls_28.json,http://54.235.29.9/FacialAge/BNav_EC2/DepthDuration/v2_depth_duration_MTurk/v2_DepthDuration_HTML.html#209,209,1093,614,1366,768,8-29-2022,11-16-5,144,depth_duration_stimuli/000736_2014-06-08_18-24-15_260595134347_rgbf000206-resize_3/000736_2014-06-08_18-24-15_260595134347_rgbf000206-resize_3-target.png,125,3.515,6,3108,127,meters,jsons/VE125_randls_28.json,617723,748373,48,Man
144,320163,DepthScenes,duration_manipulation_targetAtFixation,jsons/VE125_randls_28.json,http://54.235.29.9/FacialAge/BNav_EC2/DepthDuration/v2_depth_duration_MTurk/v2_DepthDuration_HTML.html#209,209,1093,614,1366,768,8-29-2022,11-16-5,145,depth_duration_stimuli/000137_2014-05-20_17-04-49_260595134347_rgbf000120-resize_1/000137_2014-05-20_17-04-49_260595134347_rgbf000120-resize_1-target.png,125,3.786,5,3053,124,meters,jsons/VE125_randls_28.json,617723,748373,48,Man
145,320163,DepthScenes,duration_manipulation_targetAtFixation,jsons/VE125_randls_28.json,http://54.235.29.9/FacialAge/BNav_EC2/DepthDuration/v2_depth_duration_MTurk/v2_DepthDuration_HTML.html#209,209,1093,614,1366,768,8-29-2022,11-16-5,146,depth_duration_stimuli/001498_2014-06-19_17-45-14_260595134347_rgbf000129-resize_4/001498_2014-06-19_17-45-14_260595134347_rgbf000129-resize-original.jpg,125,1.4075,0,2493,123,meters,jsons/VE125_randls_28.json,617723,748373,48,Man
146,320163,DepthScenes,duration_manipulation_targetAtFixation,jsons/VE125_randls_28.json,http://54.235.29.9/FacialAge/BNav_EC2/DepthDuration/v2_depth_duration_MTurk/v2_DepthDuration_HTML.html#209,209,1093,614,1366,768,8-29-2022,11-16-5,147,depth_duration_stimuli/002905_2014-06-03_18-04-43_094959634447_rgbf000151-resize_2/002905_2014-06-03_18-04-43_094959634447_rgbf000151-resize_2-target.png,125,2.0295,5,5455,125,meters,jsons/VE125_randls_28.json,617723,748373,48,Man
147,320163,DepthScenes,duration_manipulation_targetAtFixation,jsons/VE125_randls_28.json,http://54.235.29.9/FacialAge/BNav_EC2/DepthDuration/v2_depth_duration_MTurk/v2_DepthDuration_HTML.html#209,209,1093,614,1366,768,8-29-2022,11-16-5,148,depth_duration_stimuli/003423_2014-05-21_10-23-26_094959634447_rgbf002665-resize_2/003423_2014-05-21_10-23-26_094959634447_rgbf002665-resize_2-target.png,125,3.2575,3,3341,124,meters,jsons/VE125_randls_28.json,617723,748373,48,Man
148,320163,DepthScenes,duration_manipulation_targetAtFixation,jsons/VE125_randls_28.json,http://54.235.29.9/FacialAge/BNav_EC2/DepthDuration/v2_depth_duration_MTurk/v2_DepthDuration_HTML.html#209,209,1093,614,1366,768,8-29-2022,11-16-5,149,depth_duration_stimuli/002549_2014-06-24_13-41-39_094959634447_rgbf000022-resize_3/002549_2014-06-24_13-41-39_094959634447_rgbf000022-resize_3-target.png,125,1.476,3,3088,123,meters,jsons/VE125_randls_28.json,617723,748373,48,Man
149,320163,DepthScenes,duration_manipulation_targetAtFixation,jsons/VE125_randls_28.json,http://54.235.29.9/FacialAge/BNav_EC2/DepthDuration/v2_depth_duration_MTurk/v2_DepthDuration_HTML.html#209,209,1093,614,1366,768,8-29-2022,11-16-5,150,depth_duration_stimuli/002750_2014-06-22_19-08-03_094959634447_rgbf000094-resize_4/002750_2014-06-22_19-08-03_094959634447_rgbf000094-resize_4-target.png,125,2.354,0,3576,131,meters,jsons/VE125_randls_28.json,617723,748373,48,Man
150,320163,DepthScenes,duration_manipulation_targetAtFixation,jsons/VE125_randls_28.json,http://54.235.29.9/FacialAge/BNav_EC2/DepthDuration/v2_depth_duration_MTurk/v2_DepthDuration_HTML.html#209,209,1093,614,1366,768,8-29-2022,11-16-5,151,depth_duration_stimuli/001806_2014-06-26_20-50-20_260595134347_rgbf000091-resize_1/001806_2014-06-26_20-50-20_260595134347_rgbf000091-resize_1-target.png,125,2.7305,5,2578,110,meters,jsons/VE125_randls_28.json,617723,748373,48,Man
151,320163,DepthScenes,duration_manipulation_targetAtFixation,jsons/VE125_randls_28.json,http://54.235.29.9/FacialAge/BNav_EC2/DepthDuration/v2_depth_duration_MTurk/v2_DepthDuration_HTML.html#209,209,1093,614,1366,768,8-29-2022,11-16-5,152,depth_duration_stimuli/001617_2014-06-20_11-35-32_260595134347_rgbf000066-resize_1/001617_2014-06-20_11-35-32_260595134347_rgbf000066-resize_1-target.png,125,3.7910000000000004,5,2857,135,meters,jsons/VE125_randls_28.json,617723,748373,48,Man
152,320163,DepthScenes,duration_manipulation_targetAtFixation,jsons/VE125_randls_28.json,http://54.235.29.9/FacialAge/BNav_EC2/DepthDuration/v2_depth_duration_MTurk/v2_DepthDuration_HTML.html#209,209,1093,614,1366,768,8-29-2022,11-16-5,153,depth_duration_stimuli/001449_2014-06-19_17-01-27_260595134347_rgbf000116-resize_2/001449_2014-06-19_17-01-27_260595134347_rgbf000116-resize_2-target.png,125,3.452,4,3277,128,meters,jsons/VE125_randls_28.json,617723,748373,48,Man
153,320163,DepthScenes,duration_manipulation_targetAtFixation,jsons/VE125_randls_28.json,http://54.235.29.9/FacialAge/BNav_EC2/DepthDuration/v2_depth_duration_MTurk/v2_DepthDuration_HTML.html#209,209,1093,614,1366,768,8-29-2022,11-16-5,154,depth_duration_stimuli/001450_2014-06-19_17-02-03_260595134347_rgbf000203-resize_4/001450_2014-06-19_17-02-03_260595134347_rgbf000203-resize_4-target.png,125,4.0106666666667,6,4755,132,meters,jsons/VE125_randls_28.json,617723,748373,48,Man
154,320163,DepthScenes,duration_manipulation_targetAtFixation,jsons/VE125_randls_28.json,http://54.235.29.9/FacialAge/BNav_EC2/DepthDuration/v2_depth_duration_MTurk/v2_DepthDuration_HTML.html#209,209,1093,614,1366,768,8-29-2022,11-16-5,155,depth_duration_stimuli/000758_2014-06-08_22-05-08_260595134347_rgbf000085-resize_0/000758_2014-06-08_22-05-08_260595134347_rgbf000085-resize_0-target.png,125,3.3810000000000002,6,2882,113,meters,jsons/VE125_randls_28.json,617723,748373,48,Man
155,320163,DepthScenes,duration_manipulation_targetAtFixation,jsons/VE125_randls_28.json,http://54.235.29.9/FacialAge/BNav_EC2/DepthDuration/v2_depth_duration_MTurk/v2_DepthDuration_HTML.html#209,209,1093,614,1366,768,8-29-2022,11-16-5,156,depth_duration_stimuli/000854_2014-06-09_19-43-13_260595134347_rgbf000066-resize_0/000854_2014-06-09_19-43-13_260595134347_rgbf000066-resize_0-target.png,125,3.068,5,3389,127,meters,jsons/VE125_randls_28.json,617723,748373,48,Man
156,320163,DepthScenes,duration_manipulation_targetAtFixation,jsons/VE125_randls_28.json,http://54.235.29.9/FacialAge/BNav_EC2/DepthDuration/v2_depth_duration_MTurk/v2_DepthDuration_HTML.html#209,209,1093,614,1366,768,8-29-2022,11-16-5,157,depth_duration_stimuli/001244_2014-06-17_16-47-45_260595134347_rgbf000030-resize_4/001244_2014-06-17_16-47-45_260595134347_rgbf000030-resize_4-target.png,125,2.0425,6,3459,117,meters,jsons/VE125_randls_28.json,617723,748373,48,Man
157,320163,DepthScenes,duration_manipulation_targetAtFixation,jsons/VE125_randls_28.json,http://54.235.29.9/FacialAge/BNav_EC2/DepthDuration/v2_depth_duration_MTurk/v2_DepthDuration_HTML.html#209,209,1093,614,1366,768,8-29-2022,11-16-5,158,depth_duration_stimuli/003495_2014-05-21_16-01-51_094959634447_rgbf000100-resize_3/003495_2014-05-21_16-01-51_094959634447_rgbf000100-resize_3-target.png,125,1.6255,4,2621,131,meters,jsons/VE125_randls_28.json,617723,748373,48,Man
158,320163,DepthScenes,duration_manipulation_targetAtFixation,jsons/VE125_randls_28.json,http://54.235.29.9/FacialAge/BNav_EC2/DepthDuration/v2_depth_duration_MTurk/v2_DepthDuration_HTML.html#209,209,1093,614,1366,768,8-29-2022,11-16-5,159,depth_duration_stimuli/002663_2014-06-13_15-50-26_094959634447_rgbf000075-resize_1/002663_2014-06-13_15-50-26_094959634447_rgbf000075-resize_1-target.png,125,4.7495,6,2675,126,meters,jsons/VE125_randls_28.json,617723,748373,48,Man
159,320163,DepthScenes,duration_manipulation_targetAtFixation,jsons/VE125_randls_28.json,http://54.235.29.9/FacialAge/BNav_EC2/DepthDuration/v2_depth_duration_MTurk/v2_DepthDuration_HTML.html#209,209,1093,614,1366,768,8-29-2022,11-16-5,160,depth_duration_stimuli/000409_2014-06-04_19-23-33_260595134347_rgbf000067-resize_0/000409_2014-06-04_19-23-33_260595134347_rgbf000067-resize_0-target.png,125,3.7335,5,2497,113,meters,jsons/VE125_randls_28.json,617723,748373,48,Man
160,320163,DepthScenes,duration_manipulation_targetAtFixation,jsons/VE125_randls_28.json,http://54.235.29.9/FacialAge/BNav_EC2/DepthDuration/v2_depth_duration_MTurk/v2_DepthDuration_HTML.html#209,209,1093,614,1366,768,8-29-2022,11-16-5,161,depth_duration_stimuli/002989_2014-06-15_12-25-03_094959634447_rgbf000150-resize_3/002989_2014-06-15_12-25-03_094959634447_rgbf000150-resize_3-target.png,125,4.1975,7,2634,118,meters,jsons/VE125_randls_28.json,617723,748373,48,Man
161,320163,DepthScenes,duration_manipulation_targetAtFixation,jsons/VE125_randls_28.json,http://54.235.29.9/FacialAge/BNav_EC2/DepthDuration/v2_depth_duration_MTurk/v2_DepthDuration_HTML.html#209,209,1093,614,1366,768,8-29-2022,11-16-5,162,depth_duration_stimuli/000866_2014-06-09_20-45-42_260595134347_rgbf000139-resize_1/000866_2014-06-09_20-45-42_260595134347_rgbf000139-resize_1-target.png,125,3.2155,5,2478,112,meters,jsons/VE125_randls_28.json,617723,748373,48,Man
162,320163,DepthScenes,duration_manipulation_targetAtFixation,jsons/VE125_randls_28.json,http://54.235.29.9/FacialAge/BNav_EC2/DepthDuration/v2_depth_duration_MTurk/v2_DepthDuration_HTML.html#209,209,1093,614,1366,768,8-29-2022,11-16-5,163,depth_duration_stimuli/002964_2014-06-08_17-46-11_094959634447_rgbf000091-resize_4/002964_2014-06-08_17-46-11_094959634447_rgbf000091-resize_4-target.png,125,1.6909999999999998,2,3145,120,meters,jsons/VE125_randls_28.json,617723,748373,48,Man
163,320163,DepthScenes,duration_manipulation_targetAtFixation,jsons/VE125_randls_28.json,http://54.235.29.9/FacialAge/BNav_EC2/DepthDuration/v2_depth_duration_MTurk/v2_DepthDuration_HTML.html#209,209,1093,614,1366,768,8-29-2022,11-16-5,164,depth_duration_stimuli/002136_2014-06-25_21-18-03_260595134347_rgbf000109-resize_3/002136_2014-06-25_21-18-03_260595134347_rgbf000109-resize_3-target.png,125,1.9569999999999999,5,3606,114,meters,jsons/VE125_randls_28.json,617723,748373,48,Man
