,subjID,experimentName,versionName,sequenceName,url,selected_row,windowWidth,windowHeight,screenWidth,screenHeight,startDate,startTime,trial,stimulus,duration,actual_depth,depth_estimate,trial_RT,log_sceneDuration,unitSelection,seq_filepath,experimentTime,totalTime,age,gender
0,321135,DepthScenes,duration_manipulation_targetAtFixation,jsons/v1_VE250_randls_26_rotated.json,http://54.235.29.9/FacialAge/BNav_EC2/DepthDuration/v2_depth_duration_MTurk/v2_DepthDuration_HTML.html#438,438,1440,789,1440,900,9-31-2022,11-5-20,1,depth_duration_stimuli/002323_2014-06-28_20-01-54_260595134347_rgbf000051-resize_4/002323_2014-06-28_20-01-54_260595134347_rgbf000051-resize_4-target.png,250,3.7310000000000003,200.0,4267,251,meters,jsons/v1_VE250_randls_26_rotated.json,1228791,1652282,37,Woman
1,321135,DepthScenes,duration_manipulation_targetAtFixation,jsons/v1_VE250_randls_26_rotated.json,http://54.235.29.9/FacialAge/BNav_EC2/DepthDuration/v2_depth_duration_MTurk/v2_DepthDuration_HTML.html#438,438,1440,789,1440,900,9-31-2022,11-5-20,2,depth_duration_stimuli/000917_2014-06-09_22-45-29_260595134347_rgbf000149-resize_3/000917_2014-06-09_22-45-29_260595134347_rgbf000149-resize_3-target.png,250,4.1865,100.0,3130,250,meters,jsons/v1_VE250_randls_26_rotated.json,1228791,1652282,37,Woman
2,321135,DepthScenes,duration_manipulation_targetAtFixation,jsons/v1_VE250_randls_26_rotated.json,http://54.235.29.9/FacialAge/BNav_EC2/DepthDuration/v2_depth_duration_MTurk/v2_DepthDuration_HTML.html#438,438,1440,789,1440,900,9-31-2022,11-5-20,3,depth_duration_stimuli/002340_2014-06-28_20-05-46_260595134347_rgbf000113-resize_0/002340_2014-06-28_20-05-46_260595134347_rgbf000113-resize_0-target.png,250,2.4735,100.0,4162,249,meters,jsons/v1_VE250_randls_26_rotated.json,1228791,1652282,37,Woman
3,321135,DepthScenes,duration_manipulation_targetAtFixation,jsons/v1_VE250_randls_26_rotated.json,http://54.235.29.9/FacialAge/BNav_EC2/DepthDuration/v2_depth_duration_MTurk/v2_DepthDuration_HTML.html#438,438,1440,789,1440,900,9-31-2022,11-5-20,4,depth_duration_stimuli/001016_2014-06-09_16-16-10_260595134347_rgbf000112-resize_5/001016_2014-06-09_16-16-10_260595134347_rgbf000112-resize_5-target.png,250,1.6565,200.0,3010,251,meters,jsons/v1_VE250_randls_26_rotated.json,1228791,1652282,37,Woman
4,321135,DepthScenes,duration_manipulation_targetAtFixation,jsons/v1_VE250_randls_26_rotated.json,http://54.235.29.9/FacialAge/BNav_EC2/DepthDuration/v2_depth_duration_MTurk/v2_DepthDuration_HTML.html#438,438,1440,789,1440,900,9-31-2022,11-5-20,5,depth_duration_stimuli/001828_2014-06-26_21-40-03_260595134347_rgbf000024-resize_0/001828_2014-06-26_21-40-03_260595134347_rgbf000024-resize_0-target.png,250,4.8260000000000005,300.0,3539,249,meters,jsons/v1_VE250_randls_26_rotated.json,1228791,1652282,37,Woman
5,321135,DepthScenes,duration_manipulation_targetAtFixation,jsons/v1_VE250_randls_26_rotated.json,http://54.235.29.9/FacialAge/BNav_EC2/DepthDuration/v2_depth_duration_MTurk/v2_DepthDuration_HTML.html#438,438,1440,789,1440,900,9-31-2022,11-5-20,6,depth_duration_stimuli/000009_2014-05-26_14-32-05_260595134347_rgbf000034-resize_3/000009_2014-05-26_14-32-05_260595134347_rgbf000034-resize_3-target.png,250,3.8715,200.0,3099,250,meters,jsons/v1_VE250_randls_26_rotated.json,1228791,1652282,37,Woman
6,321135,DepthScenes,duration_manipulation_targetAtFixation,jsons/v1_VE250_randls_26_rotated.json,http://54.235.29.9/FacialAge/BNav_EC2/DepthDuration/v2_depth_duration_MTurk/v2_DepthDuration_HTML.html#438,438,1440,789,1440,900,9-31-2022,11-5-20,7,depth_duration_stimuli/002103_2014-06-25_20-00-40_260595134347_rgbf000049-resize_0/002103_2014-06-25_20-00-40_260595134347_rgbf000049-resize_0-target.png,250,4.105,200.0,3730,249,meters,jsons/v1_VE250_randls_26_rotated.json,1228791,1652282,37,Woman
7,321135,DepthScenes,duration_manipulation_targetAtFixation,jsons/v1_VE250_randls_26_rotated.json,http://54.235.29.9/FacialAge/BNav_EC2/DepthDuration/v2_depth_duration_MTurk/v2_DepthDuration_HTML.html#438,438,1440,789,1440,900,9-31-2022,11-5-20,8,depth_duration_stimuli/002039_2014-06-24_20-22-38_260595134347_rgbf000084-resize_1/002039_2014-06-24_20-22-38_260595134347_rgbf000084-resize_1-target.png,250,4.408,100.0,3380,250,meters,jsons/v1_VE250_randls_26_rotated.json,1228791,1652282,37,Woman
8,321135,DepthScenes,duration_manipulation_targetAtFixation,jsons/v1_VE250_randls_26_rotated.json,http://54.235.29.9/FacialAge/BNav_EC2/DepthDuration/v2_depth_duration_MTurk/v2_DepthDuration_HTML.html#438,438,1440,789,1440,900,9-31-2022,11-5-20,9,depth_duration_stimuli/000635_2014-06-08_16-38-42_260595134347_rgbf000106-resize_1/000635_2014-06-08_16-38-42_260595134347_rgbf000106-resize_1-target.png,250,2.074,200.0,3257,250,meters,jsons/v1_VE250_randls_26_rotated.json,1228791,1652282,37,Woman
9,321135,DepthScenes,duration_manipulation_targetAtFixation,jsons/v1_VE250_randls_26_rotated.json,http://54.235.29.9/FacialAge/BNav_EC2/DepthDuration/v2_depth_duration_MTurk/v2_DepthDuration_HTML.html#438,438,1440,789,1440,900,9-31-2022,11-5-20,10,depth_duration_stimuli/002279_2014-06-28_18-55-32_260595134347_rgbf000040-resize_5/002279_2014-06-28_18-55-32_260595134347_rgbf000040-resize_5-target.png,250,1.5043333333333,100.0,2801,249,meters,jsons/v1_VE250_randls_26_rotated.json,1228791,1652282,37,Woman
10,321135,DepthScenes,duration_manipulation_targetAtFixation,jsons/v1_VE250_randls_26_rotated.json,http://54.235.29.9/FacialAge/BNav_EC2/DepthDuration/v2_depth_duration_MTurk/v2_DepthDuration_HTML.html#438,438,1440,789,1440,900,9-31-2022,11-5-20,11,depth_duration_stimuli/003338_2014-05-20_11-01-23_094959634447_rgbf000051-resize_6/003338_2014-05-20_11-01-23_094959634447_rgbf000051-resize_6-target.png,250,1.693,100.0,3714,250,meters,jsons/v1_VE250_randls_26_rotated.json,1228791,1652282,37,Woman
11,321135,DepthScenes,duration_manipulation_targetAtFixation,jsons/v1_VE250_randls_26_rotated.json,http://54.235.29.9/FacialAge/BNav_EC2/DepthDuration/v2_depth_duration_MTurk/v2_DepthDuration_HTML.html#438,438,1440,789,1440,900,9-31-2022,11-5-20,12,depth_duration_stimuli/002509_2014-06-24_13-19-22_094959634447_rgbf000077-resize_0/002509_2014-06-24_13-19-22_094959634447_rgbf000077-resize_0-target.png,250,1.3065,100.0,4266,248,meters,jsons/v1_VE250_randls_26_rotated.json,1228791,1652282,37,Woman
12,321135,DepthScenes,duration_manipulation_targetAtFixation,jsons/v1_VE250_randls_26_rotated.json,http://54.235.29.9/FacialAge/BNav_EC2/DepthDuration/v2_depth_duration_MTurk/v2_DepthDuration_HTML.html#438,438,1440,789,1440,900,9-31-2022,11-5-20,13,depth_duration_stimuli/000854_2014-06-09_19-43-13_260595134347_rgbf000066-resize_0/000854_2014-06-09_19-43-13_260595134347_rgbf000066-resize_0-target.png,250,3.068,200.0,3714,249,meters,jsons/v1_VE250_randls_26_rotated.json,1228791,1652282,37,Woman
13,321135,DepthScenes,duration_manipulation_targetAtFixation,jsons/v1_VE250_randls_26_rotated.json,http://54.235.29.9/FacialAge/BNav_EC2/DepthDuration/v2_depth_duration_MTurk/v2_DepthDuration_HTML.html#438,438,1440,789,1440,900,9-31-2022,11-5-20,14,depth_duration_stimuli/000758_2014-06-08_22-05-08_260595134347_rgbf000085-resize_0/000758_2014-06-08_22-05-08_260595134347_rgbf000085-resize_0-target.png,250,3.3810000000000002,300.0,3732,251,meters,jsons/v1_VE250_randls_26_rotated.json,1228791,1652282,37,Woman
14,321135,DepthScenes,duration_manipulation_targetAtFixation,jsons/v1_VE250_randls_26_rotated.json,http://54.235.29.9/FacialAge/BNav_EC2/DepthDuration/v2_depth_duration_MTurk/v2_DepthDuration_HTML.html#438,438,1440,789,1440,900,9-31-2022,11-5-20,15,depth_duration_stimuli/001447_2014-06-19_17-00-32_260595134347_rgbf000082-resize_5/001447_2014-06-19_17-00-32_260595134347_rgbf000082-resize_5-target.png,250,4.13775,0.0,2377,250,meters,jsons/v1_VE250_randls_26_rotated.json,1228791,1652282,37,Woman
15,321135,DepthScenes,duration_manipulation_targetAtFixation,jsons/v1_VE250_randls_26_rotated.json,http://54.235.29.9/FacialAge/BNav_EC2/DepthDuration/v2_depth_duration_MTurk/v2_DepthDuration_HTML.html#438,438,1440,789,1440,900,9-31-2022,11-5-20,16,depth_duration_stimuli/000447_2014-06-08_16-15-46_260595134347_rgbf000130-resize_1/000447_2014-06-08_16-15-46_260595134347_rgbf000130-resize_1-target.png,250,4.479,100.0,2786,248,meters,jsons/v1_VE250_randls_26_rotated.json,1228791,1652282,37,Woman
16,321135,DepthScenes,duration_manipulation_targetAtFixation,jsons/v1_VE250_randls_26_rotated.json,http://54.235.29.9/FacialAge/BNav_EC2/DepthDuration/v2_depth_duration_MTurk/v2_DepthDuration_HTML.html#438,438,1440,789,1440,900,9-31-2022,11-5-20,17,depth_duration_stimuli/001571_2014-06-20_17-21-32_260595134347_rgbf000089-resize_1/001571_2014-06-20_17-21-32_260595134347_rgbf000089-resize_1-target.png,250,1.86,300.0,5439,250,meters,jsons/v1_VE250_randls_26_rotated.json,1228791,1652282,37,Woman
17,321135,DepthScenes,duration_manipulation_targetAtFixation,jsons/v1_VE250_randls_26_rotated.json,http://54.235.29.9/FacialAge/BNav_EC2/DepthDuration/v2_depth_duration_MTurk/v2_DepthDuration_HTML.html#438,438,1440,789,1440,900,9-31-2022,11-5-20,18,depth_duration_stimuli/002272_2014-06-28_18-53-56_260595134347_rgbf000067-resize_2/002272_2014-06-28_18-53-56_260595134347_rgbf000067-resize_2-target.png,250,1.138,200.0,3322,248,meters,jsons/v1_VE250_randls_26_rotated.json,1228791,1652282,37,Woman
18,321135,DepthScenes,duration_manipulation_targetAtFixation,jsons/v1_VE250_randls_26_rotated.json,http://54.235.29.9/FacialAge/BNav_EC2/DepthDuration/v2_depth_duration_MTurk/v2_DepthDuration_HTML.html#438,438,1440,789,1440,900,9-31-2022,11-5-20,19,depth_duration_stimuli/001498_2014-06-19_17-45-14_260595134347_rgbf000129-resize_4/001498_2014-06-19_17-45-14_260595134347_rgbf000129-resize-original.jpg,250,1.4075,200.0,4286,250,meters,jsons/v1_VE250_randls_26_rotated.json,1228791,1652282,37,Woman
19,321135,DepthScenes,duration_manipulation_targetAtFixation,jsons/v1_VE250_randls_26_rotated.json,http://54.235.29.9/FacialAge/BNav_EC2/DepthDuration/v2_depth_duration_MTurk/v2_DepthDuration_HTML.html#438,438,1440,789,1440,900,9-31-2022,11-5-20,20,depth_duration_stimuli/001136_2014-06-17_15-19-41_260595134347_rgbf000076-resize_3/001136_2014-06-17_15-19-41_260595134347_rgbf000076-resize_3-target.png,250,1.8655,320.0,9443,249,meters,jsons/v1_VE250_randls_26_rotated.json,1228791,1652282,37,Woman
20,321135,DepthScenes,duration_manipulation_targetAtFixation,jsons/v1_VE250_randls_26_rotated.json,http://54.235.29.9/FacialAge/BNav_EC2/DepthDuration/v2_depth_duration_MTurk/v2_DepthDuration_HTML.html#438,438,1440,789,1440,900,9-31-2022,11-5-20,21,depth_duration_stimuli/001164_2014-06-17_15-35-46_260595134347_rgbf000085-resize_3/001164_2014-06-17_15-35-46_260595134347_rgbf000085-resize_3-target.png,250,2.354,200.0,3138,250,meters,jsons/v1_VE250_randls_26_rotated.json,1228791,1652282,37,Woman
21,321135,DepthScenes,duration_manipulation_targetAtFixation,jsons/v1_VE250_randls_26_rotated.json,http://54.235.29.9/FacialAge/BNav_EC2/DepthDuration/v2_depth_duration_MTurk/v2_DepthDuration_HTML.html#438,438,1440,789,1440,900,9-31-2022,11-5-20,22,depth_duration_stimuli/001052_2014-06-08_18-24-54_260595134347_rgbf000130-resize_1/001052_2014-06-08_18-24-54_260595134347_rgbf000130-resize_1-target.png,250,4.1045,100.0,2745,250,meters,jsons/v1_VE250_randls_26_rotated.json,1228791,1652282,37,Woman
22,321135,DepthScenes,duration_manipulation_targetAtFixation,jsons/v1_VE250_randls_26_rotated.json,http://54.235.29.9/FacialAge/BNav_EC2/DepthDuration/v2_depth_duration_MTurk/v2_DepthDuration_HTML.html#438,438,1440,789,1440,900,9-31-2022,11-5-20,23,depth_duration_stimuli/002988_2014-06-15_12-24-20_094959634447_rgbf000150-resize_1/002988_2014-06-15_12-24-20_094959634447_rgbf000150-resize_1-target.png,250,4.7669999999999995,200.0,25241,250,meters,jsons/v1_VE250_randls_26_rotated.json,1228791,1652282,37,Woman
23,321135,DepthScenes,duration_manipulation_targetAtFixation,jsons/v1_VE250_randls_26_rotated.json,http://54.235.29.9/FacialAge/BNav_EC2/DepthDuration/v2_depth_duration_MTurk/v2_DepthDuration_HTML.html#438,438,1440,789,1440,900,9-31-2022,11-5-20,24,depth_duration_stimuli/003423_2014-05-21_10-23-26_094959634447_rgbf002665-resize_2/003423_2014-05-21_10-23-26_094959634447_rgbf002665-resize_2-target.png,250,3.2575,2000.0,2751,250,meters,jsons/v1_VE250_randls_26_rotated.json,1228791,1652282,37,Woman
24,321135,DepthScenes,duration_manipulation_targetAtFixation,jsons/v1_VE250_randls_26_rotated.json,http://54.235.29.9/FacialAge/BNav_EC2/DepthDuration/v2_depth_duration_MTurk/v2_DepthDuration_HTML.html#438,438,1440,789,1440,900,9-31-2022,11-5-20,25,depth_duration_stimuli/002905_2014-06-03_18-04-43_094959634447_rgbf000151-resize_2/002905_2014-06-03_18-04-43_094959634447_rgbf000151-resize_2-target.png,250,2.0295,100.0,9878,249,meters,jsons/v1_VE250_randls_26_rotated.json,1228791,1652282,37,Woman
25,321135,DepthScenes,duration_manipulation_targetAtFixation,jsons/v1_VE250_randls_26_rotated.json,http://54.235.29.9/FacialAge/BNav_EC2/DepthDuration/v2_depth_duration_MTurk/v2_DepthDuration_HTML.html#438,438,1440,789,1440,900,9-31-2022,11-5-20,26,depth_duration_stimuli/001094_2014-06-15_17-36-00_260595134347_rgbf000205-resize_0/001094_2014-06-15_17-36-00_260595134347_rgbf000205-resize_0-target.png,250,4.2175,200.0,4345,250,meters,jsons/v1_VE250_randls_26_rotated.json,1228791,1652282,37,Woman
26,321135,DepthScenes,duration_manipulation_targetAtFixation,jsons/v1_VE250_randls_26_rotated.json,http://54.235.29.9/FacialAge/BNav_EC2/DepthDuration/v2_depth_duration_MTurk/v2_DepthDuration_HTML.html#438,438,1440,789,1440,900,9-31-2022,11-5-20,27,depth_duration_stimuli/000692_2014-06-08_13-09-42_260595134347_rgbf000199-resize_2/000692_2014-06-08_13-09-42_260595134347_rgbf000199-resize_2-target.png,250,3.661,100.0,3380,250,meters,jsons/v1_VE250_randls_26_rotated.json,1228791,1652282,37,Woman
27,321135,DepthScenes,duration_manipulation_targetAtFixation,jsons/v1_VE250_randls_26_rotated.json,http://54.235.29.9/FacialAge/BNav_EC2/DepthDuration/v2_depth_duration_MTurk/v2_DepthDuration_HTML.html#438,438,1440,789,1440,900,9-31-2022,11-5-20,28,depth_duration_stimuli/000109_2014-05-14_23-41-52_260595134347_rgbf000035-resize_9/000109_2014-05-14_23-41-52_260595134347_rgbf000035-resize_9-target.png,250,1.3545,100.0,4339,250,meters,jsons/v1_VE250_randls_26_rotated.json,1228791,1652282,37,Woman
28,321135,DepthScenes,duration_manipulation_targetAtFixation,jsons/v1_VE250_randls_26_rotated.json,http://54.235.29.9/FacialAge/BNav_EC2/DepthDuration/v2_depth_duration_MTurk/v2_DepthDuration_HTML.html#438,438,1440,789,1440,900,9-31-2022,11-5-20,29,depth_duration_stimuli/000470_2014-06-09_19-42-40_260595134347_rgbf000094-resize_1/000470_2014-06-09_19-42-40_260595134347_rgbf000094-resize_1-target.png,250,1.831,200.0,3722,250,meters,jsons/v1_VE250_randls_26_rotated.json,1228791,1652282,37,Woman
29,321135,DepthScenes,duration_manipulation_targetAtFixation,jsons/v1_VE250_randls_26_rotated.json,http://54.235.29.9/FacialAge/BNav_EC2/DepthDuration/v2_depth_duration_MTurk/v2_DepthDuration_HTML.html#438,438,1440,789,1440,900,9-31-2022,11-5-20,30,depth_duration_stimuli/002072_2014-06-24_21-48-06_260595134347_rgbf000115-resize_0/002072_2014-06-24_21-48-06_260595134347_rgbf000115-resize-original.jpg,250,4.702,200.0,5938,249,meters,jsons/v1_VE250_randls_26_rotated.json,1228791,1652282,37,Woman
30,321135,DepthScenes,duration_manipulation_targetAtFixation,jsons/v1_VE250_randls_26_rotated.json,http://54.235.29.9/FacialAge/BNav_EC2/DepthDuration/v2_depth_duration_MTurk/v2_DepthDuration_HTML.html#438,438,1440,789,1440,900,9-31-2022,11-5-20,31,depth_duration_stimuli/002660_2014-06-13_15-44-18_094959634447_rgbf001878-resize_2/002660_2014-06-13_15-44-18_094959634447_rgbf001878-resize_2-target.png,250,3.576,100.0,4634,249,meters,jsons/v1_VE250_randls_26_rotated.json,1228791,1652282,37,Woman
31,321135,DepthScenes,duration_manipulation_targetAtFixation,jsons/v1_VE250_randls_26_rotated.json,http://54.235.29.9/FacialAge/BNav_EC2/DepthDuration/v2_depth_duration_MTurk/v2_DepthDuration_HTML.html#438,438,1440,789,1440,900,9-31-2022,11-5-20,32,depth_duration_stimuli/002153_2014-06-25_21-27-18_260595134347_rgbf000038-resize_5/002153_2014-06-25_21-27-18_260595134347_rgbf000038-resize_5-target.png,250,2.505,200.0,3690,250,meters,jsons/v1_VE250_randls_26_rotated.json,1228791,1652282,37,Woman
32,321135,DepthScenes,duration_manipulation_targetAtFixation,jsons/v1_VE250_randls_26_rotated.json,http://54.235.29.9/FacialAge/BNav_EC2/DepthDuration/v2_depth_duration_MTurk/v2_DepthDuration_HTML.html#438,438,1440,789,1440,900,9-31-2022,11-5-20,33,depth_duration_stimuli/000677_2014-06-08_23-10-32_260595134347_rgbf000158-resize_6/000677_2014-06-08_23-10-32_260595134347_rgbf000158-resize_6-target.png,250,3.556,100.0,2778,250,meters,jsons/v1_VE250_randls_26_rotated.json,1228791,1652282,37,Woman
33,321135,DepthScenes,duration_manipulation_targetAtFixation,jsons/v1_VE250_randls_26_rotated.json,http://54.235.29.9/FacialAge/BNav_EC2/DepthDuration/v2_depth_duration_MTurk/v2_DepthDuration_HTML.html#438,438,1440,789,1440,900,9-31-2022,11-5-20,34,depth_duration_stimuli/001029_2014-06-08_13-17-57_260595134347_rgbf000065-resize_1/001029_2014-06-08_13-17-57_260595134347_rgbf000065-resize_1-target.png,250,3.0835,200.0,3089,250,meters,jsons/v1_VE250_randls_26_rotated.json,1228791,1652282,37,Woman
34,321135,DepthScenes,duration_manipulation_targetAtFixation,jsons/v1_VE250_randls_26_rotated.json,http://54.235.29.9/FacialAge/BNav_EC2/DepthDuration/v2_depth_duration_MTurk/v2_DepthDuration_HTML.html#438,438,1440,789,1440,900,9-31-2022,11-5-20,35,depth_duration_stimuli/000549_2014-06-08_22-10-24_260595134347_rgbf000247-resize_3/000549_2014-06-08_22-10-24_260595134347_rgbf000247-resize_3-target.png,250,1.841,100.0,21307,251,meters,jsons/v1_VE250_randls_26_rotated.json,1228791,1652282,37,Woman
35,321135,DepthScenes,duration_manipulation_targetAtFixation,jsons/v1_VE250_randls_26_rotated.json,http://54.235.29.9/FacialAge/BNav_EC2/DepthDuration/v2_depth_duration_MTurk/v2_DepthDuration_HTML.html#438,438,1440,789,1440,900,9-31-2022,11-5-20,36,depth_duration_stimuli/001055_2014-06-08_18-45-35_260595134347_rgbf000111-resize_4/001055_2014-06-08_18-45-35_260595134347_rgbf000111-resize_4-target.png,250,2.4290000000000003,100.0,4186,250,meters,jsons/v1_VE250_randls_26_rotated.json,1228791,1652282,37,Woman
36,321135,DepthScenes,duration_manipulation_targetAtFixation,jsons/v1_VE250_randls_26_rotated.json,http://54.235.29.9/FacialAge/BNav_EC2/DepthDuration/v2_depth_duration_MTurk/v2_DepthDuration_HTML.html#438,438,1440,789,1440,900,9-31-2022,11-5-20,37,depth_duration_stimuli/001450_2014-06-19_17-02-03_260595134347_rgbf000203-resize_4/001450_2014-06-19_17-02-03_260595134347_rgbf000203-resize_4-target.png,250,4.0106666666667,100.0,7342,249,meters,jsons/v1_VE250_randls_26_rotated.json,1228791,1652282,37,Woman
37,321135,DepthScenes,duration_manipulation_targetAtFixation,jsons/v1_VE250_randls_26_rotated.json,http://54.235.29.9/FacialAge/BNav_EC2/DepthDuration/v2_depth_duration_MTurk/v2_DepthDuration_HTML.html#438,438,1440,789,1440,900,9-31-2022,11-5-20,38,depth_duration_stimuli/001449_2014-06-19_17-01-27_260595134347_rgbf000116-resize_2/001449_2014-06-19_17-01-27_260595134347_rgbf000116-resize_2-target.png,250,3.452,200.0,2719,250,meters,jsons/v1_VE250_randls_26_rotated.json,1228791,1652282,37,Woman
38,321135,DepthScenes,duration_manipulation_targetAtFixation,jsons/v1_VE250_randls_26_rotated.json,http://54.235.29.9/FacialAge/BNav_EC2/DepthDuration/v2_depth_duration_MTurk/v2_DepthDuration_HTML.html#438,438,1440,789,1440,900,9-31-2022,11-5-20,39,depth_duration_stimuli/002467_2014-06-28_20-38-07_260595134347_rgbf000026-resize_2/002467_2014-06-28_20-38-07_260595134347_rgbf000026-resize_2-target.png,250,4.742,100.0,3121,251,meters,jsons/v1_VE250_randls_26_rotated.json,1228791,1652282,37,Woman
39,321135,DepthScenes,duration_manipulation_targetAtFixation,jsons/v1_VE250_randls_26_rotated.json,http://54.235.29.9/FacialAge/BNav_EC2/DepthDuration/v2_depth_duration_MTurk/v2_DepthDuration_HTML.html#438,438,1440,789,1440,900,9-31-2022,11-5-20,40,depth_duration_stimuli/002570_2014-06-24_13-59-54_094959634447_rgbf000059-resize_0/002570_2014-06-24_13-59-54_094959634447_rgbf000059-resize_0-target.png,250,4.037,200.0,21865,249,meters,jsons/v1_VE250_randls_26_rotated.json,1228791,1652282,37,Woman
40,321135,DepthScenes,duration_manipulation_targetAtFixation,jsons/v1_VE250_randls_26_rotated.json,http://54.235.29.9/FacialAge/BNav_EC2/DepthDuration/v2_depth_duration_MTurk/v2_DepthDuration_HTML.html#438,438,1440,789,1440,900,9-31-2022,11-5-20,41,depth_duration_stimuli/000137_2014-05-20_17-04-49_260595134347_rgbf000120-resize_1/000137_2014-05-20_17-04-49_260595134347_rgbf000120-resize_1-target.png,250,3.786,200.0,3731,249,meters,jsons/v1_VE250_randls_26_rotated.json,1228791,1652282,37,Woman
41,321135,DepthScenes,duration_manipulation_targetAtFixation,jsons/v1_VE250_randls_26_rotated.json,http://54.235.29.9/FacialAge/BNav_EC2/DepthDuration/v2_depth_duration_MTurk/v2_DepthDuration_HTML.html#438,438,1440,789,1440,900,9-31-2022,11-5-20,42,depth_duration_stimuli/000736_2014-06-08_18-24-15_260595134347_rgbf000206-resize_3/000736_2014-06-08_18-24-15_260595134347_rgbf000206-resize_3-target.png,250,3.515,200.0,10467,251,meters,jsons/v1_VE250_randls_26_rotated.json,1228791,1652282,37,Woman
42,321135,DepthScenes,duration_manipulation_targetAtFixation,jsons/v1_VE250_randls_26_rotated.json,http://54.235.29.9/FacialAge/BNav_EC2/DepthDuration/v2_depth_duration_MTurk/v2_DepthDuration_HTML.html#438,438,1440,789,1440,900,9-31-2022,11-5-20,43,depth_duration_stimuli/002136_2014-06-25_21-18-03_260595134347_rgbf000109-resize_3/002136_2014-06-25_21-18-03_260595134347_rgbf000109-resize_3-target.png,250,1.9569999999999999,100.0,6690,249,meters,jsons/v1_VE250_randls_26_rotated.json,1228791,1652282,37,Woman
43,321135,DepthScenes,duration_manipulation_targetAtFixation,jsons/v1_VE250_randls_26_rotated.json,http://54.235.29.9/FacialAge/BNav_EC2/DepthDuration/v2_depth_duration_MTurk/v2_DepthDuration_HTML.html#438,438,1440,789,1440,900,9-31-2022,11-5-20,44,depth_duration_stimuli/002964_2014-06-08_17-46-11_094959634447_rgbf000091-resize_4/002964_2014-06-08_17-46-11_094959634447_rgbf000091-resize_4-target.png,250,1.6909999999999998,200.0,6226,249,meters,jsons/v1_VE250_randls_26_rotated.json,1228791,1652282,37,Woman
44,321135,DepthScenes,duration_manipulation_targetAtFixation,jsons/v1_VE250_randls_26_rotated.json,http://54.235.29.9/FacialAge/BNav_EC2/DepthDuration/v2_depth_duration_MTurk/v2_DepthDuration_HTML.html#438,438,1440,789,1440,900,9-31-2022,11-5-20,45,depth_duration_stimuli/003079_2014-06-15_15-18-20_094959634447_rgbf000152-resize_8/003079_2014-06-15_15-18-20_094959634447_rgbf000152-resize_8-target.png,250,2.8775,100.0,4066,250,meters,jsons/v1_VE250_randls_26_rotated.json,1228791,1652282,37,Woman
45,321135,DepthScenes,duration_manipulation_targetAtFixation,jsons/v1_VE250_randls_26_rotated.json,http://54.235.29.9/FacialAge/BNav_EC2/DepthDuration/v2_depth_duration_MTurk/v2_DepthDuration_HTML.html#438,438,1440,789,1440,900,9-31-2022,11-5-20,46,depth_duration_stimuli/000506_2014-06-08_23-21-00_260595134347_rgbf000070-resize_7/000506_2014-06-08_23-21-00_260595134347_rgbf000070-resize_7-target.png,250,4.0585,200.0,21218,250,meters,jsons/v1_VE250_randls_26_rotated.json,1228791,1652282,37,Woman
46,321135,DepthScenes,duration_manipulation_targetAtFixation,jsons/v1_VE250_randls_26_rotated.json,http://54.235.29.9/FacialAge/BNav_EC2/DepthDuration/v2_depth_duration_MTurk/v2_DepthDuration_HTML.html#438,438,1440,789,1440,900,9-31-2022,11-5-20,47,depth_duration_stimuli/000502_2014-06-08_23-02-32_260595134347_rgbf000063-resize_4/000502_2014-06-08_23-02-32_260595134347_rgbf000063-resize_4-target.png,250,2.431,200.0,23385,250,meters,jsons/v1_VE250_randls_26_rotated.json,1228791,1652282,37,Woman
47,321135,DepthScenes,duration_manipulation_targetAtFixation,jsons/v1_VE250_randls_26_rotated.json,http://54.235.29.9/FacialAge/BNav_EC2/DepthDuration/v2_depth_duration_MTurk/v2_DepthDuration_HTML.html#438,438,1440,789,1440,900,9-31-2022,11-5-20,48,depth_duration_stimuli/001199_2014-06-17_16-03-48_260595134347_rgbf000077-resize_0/001199_2014-06-17_16-03-48_260595134347_rgbf000077-resize_0-target.png,250,3.4375,100.0,4787,250,meters,jsons/v1_VE250_randls_26_rotated.json,1228791,1652282,37,Woman
48,321135,DepthScenes,duration_manipulation_targetAtFixation,jsons/v1_VE250_randls_26_rotated.json,http://54.235.29.9/FacialAge/BNav_EC2/DepthDuration/v2_depth_duration_MTurk/v2_DepthDuration_HTML.html#438,438,1440,789,1440,900,9-31-2022,11-5-20,49,depth_duration_stimuli/001170_2014-06-17_15-43-44_260595134347_rgbf000096-resize_6/001170_2014-06-17_15-43-44_260595134347_rgbf000096-resize-original.jpg,250,1.1909999999999998,0.0,2946,251,meters,jsons/v1_VE250_randls_26_rotated.json,1228791,1652282,37,Woman
49,321135,DepthScenes,duration_manipulation_targetAtFixation,jsons/v1_VE250_randls_26_rotated.json,http://54.235.29.9/FacialAge/BNav_EC2/DepthDuration/v2_depth_duration_MTurk/v2_DepthDuration_HTML.html#438,438,1440,789,1440,900,9-31-2022,11-5-20,50,depth_duration_stimuli/002199_2014-06-28_18-33-56_260595134347_rgbf000074-resize_0/002199_2014-06-28_18-33-56_260595134347_rgbf000074-resize_0-target.png,250,1.996,200.0,4243,250,meters,jsons/v1_VE250_randls_26_rotated.json,1228791,1652282,37,Woman
50,321135,DepthScenes,duration_manipulation_targetAtFixation,jsons/v1_VE250_randls_26_rotated.json,http://54.235.29.9/FacialAge/BNav_EC2/DepthDuration/v2_depth_duration_MTurk/v2_DepthDuration_HTML.html#438,438,1440,789,1440,900,9-31-2022,11-5-20,51,depth_duration_stimuli/001056_2014-06-08_18-46-44_260595134347_rgbf000068-resize_0/001056_2014-06-08_18-46-44_260595134347_rgbf000068-resize_0-target.png,250,2.6625,200.0,3593,250,meters,jsons/v1_VE250_randls_26_rotated.json,1228791,1652282,37,Woman
51,321135,DepthScenes,duration_manipulation_targetAtFixation,jsons/v1_VE250_randls_26_rotated.json,http://54.235.29.9/FacialAge/BNav_EC2/DepthDuration/v2_depth_duration_MTurk/v2_DepthDuration_HTML.html#438,438,1440,789,1440,900,9-31-2022,11-5-20,52,depth_duration_stimuli/003081_2014-06-15_15-19-16_094959634447_rgbf000150-resize_1/003081_2014-06-15_15-19-16_094959634447_rgbf000150-resize_1-target.png,250,3.9125,100.0,3116,251,meters,jsons/v1_VE250_randls_26_rotated.json,1228791,1652282,37,Woman
52,321135,DepthScenes,duration_manipulation_targetAtFixation,jsons/v1_VE250_randls_26_rotated.json,http://54.235.29.9/FacialAge/BNav_EC2/DepthDuration/v2_depth_duration_MTurk/v2_DepthDuration_HTML.html#438,438,1440,789,1440,900,9-31-2022,11-5-20,53,depth_duration_stimuli/001417_2014-06-19_16-25-36_260595134347_rgbf000115-resize_5/001417_2014-06-19_16-25-36_260595134347_rgbf000115-resize_5-target.png,250,4.6255,100.0,13634,250,meters,jsons/v1_VE250_randls_26_rotated.json,1228791,1652282,37,Woman
53,321135,DepthScenes,duration_manipulation_targetAtFixation,jsons/v1_VE250_randls_26_rotated.json,http://54.235.29.9/FacialAge/BNav_EC2/DepthDuration/v2_depth_duration_MTurk/v2_DepthDuration_HTML.html#438,438,1440,789,1440,900,9-31-2022,11-5-20,54,depth_duration_stimuli/002209_2014-06-28_18-36-10_260595134347_rgbf000051-resize_1/002209_2014-06-28_18-36-10_260595134347_rgbf000051-resize_1-target.png,250,2.057,200.0,266179,251,meters,jsons/v1_VE250_randls_26_rotated.json,1228791,1652282,37,Woman
54,321135,DepthScenes,duration_manipulation_targetAtFixation,jsons/v1_VE250_randls_26_rotated.json,http://54.235.29.9/FacialAge/BNav_EC2/DepthDuration/v2_depth_duration_MTurk/v2_DepthDuration_HTML.html#438,438,1440,789,1440,900,9-31-2022,11-5-20,55,depth_duration_stimuli/002763_2014-06-22_19-13-10_094959634447_rgbf000075-resize_4/002763_2014-06-22_19-13-10_094959634447_rgbf000075-resize_4-target.png,250,1.68375,100.0,3321,249,meters,jsons/v1_VE250_randls_26_rotated.json,1228791,1652282,37,Woman
55,321135,DepthScenes,duration_manipulation_targetAtFixation,jsons/v1_VE250_randls_26_rotated.json,http://54.235.29.9/FacialAge/BNav_EC2/DepthDuration/v2_depth_duration_MTurk/v2_DepthDuration_HTML.html#438,438,1440,789,1440,900,9-31-2022,11-5-20,56,depth_duration_stimuli/002995_2014-06-15_12-31-26_094959634447_rgbf000150-resize_1/002995_2014-06-15_12-31-26_094959634447_rgbf000150-resize_1-target.png,250,3.8360000000000003,200.0,2954,249,meters,jsons/v1_VE250_randls_26_rotated.json,1228791,1652282,37,Woman
56,321135,DepthScenes,duration_manipulation_targetAtFixation,jsons/v1_VE250_randls_26_rotated.json,http://54.235.29.9/FacialAge/BNav_EC2/DepthDuration/v2_depth_duration_MTurk/v2_DepthDuration_HTML.html#438,438,1440,789,1440,900,9-31-2022,11-5-20,57,depth_duration_stimuli/002748_2014-06-22_19-07-22_094959634447_rgbf000078-resize_1/002748_2014-06-22_19-07-22_094959634447_rgbf000078-resize_1-target.png,250,4.6705,100.0,2849,251,meters,jsons/v1_VE250_randls_26_rotated.json,1228791,1652282,37,Woman
57,321135,DepthScenes,duration_manipulation_targetAtFixation,jsons/v1_VE250_randls_26_rotated.json,http://54.235.29.9/FacialAge/BNav_EC2/DepthDuration/v2_depth_duration_MTurk/v2_DepthDuration_HTML.html#438,438,1440,789,1440,900,9-31-2022,11-5-20,58,depth_duration_stimuli/001032_2014-06-08_13-23-17_260595134347_rgbf000021-resize_3/001032_2014-06-08_13-23-17_260595134347_rgbf000021-resize_3-target.png,250,3.2725,200.0,2836,250,meters,jsons/v1_VE250_randls_26_rotated.json,1228791,1652282,37,Woman
58,321135,DepthScenes,duration_manipulation_targetAtFixation,jsons/v1_VE250_randls_26_rotated.json,http://54.235.29.9/FacialAge/BNav_EC2/DepthDuration/v2_depth_duration_MTurk/v2_DepthDuration_HTML.html#438,438,1440,789,1440,900,9-31-2022,11-5-20,59,depth_duration_stimuli/001059_2014-06-08_21-53-27_260595134347_rgbf000061-resize_4/001059_2014-06-08_21-53-27_260595134347_rgbf000061-resize_4-target.png,250,2.4185,100.0,4570,250,meters,jsons/v1_VE250_randls_26_rotated.json,1228791,1652282,37,Woman
59,321135,DepthScenes,duration_manipulation_targetAtFixation,jsons/v1_VE250_randls_26_rotated.json,http://54.235.29.9/FacialAge/BNav_EC2/DepthDuration/v2_depth_duration_MTurk/v2_DepthDuration_HTML.html#438,438,1440,789,1440,900,9-31-2022,11-5-20,60,depth_duration_stimuli/001584_2014-06-20_11-07-43_260595134347_rgbf000002-resize_1/001584_2014-06-20_11-07-43_260595134347_rgbf000002-resize_1-target.png,250,3.53,200.0,4473,249,meters,jsons/v1_VE250_randls_26_rotated.json,1228791,1652282,37,Woman
60,321135,DepthScenes,duration_manipulation_targetAtFixation,jsons/v1_VE250_randls_26_rotated.json,http://54.235.29.9/FacialAge/BNav_EC2/DepthDuration/v2_depth_duration_MTurk/v2_DepthDuration_HTML.html#438,438,1440,789,1440,900,9-31-2022,11-5-20,61,depth_duration_stimuli/003621_2014-05-23_18-06-08_094959634447_rgbf000101-resize_1/003621_2014-05-23_18-06-08_094959634447_rgbf000101-resize_1-target.png,250,3.9835,200.0,4627,251,meters,jsons/v1_VE250_randls_26_rotated.json,1228791,1652282,37,Woman
61,321135,DepthScenes,duration_manipulation_targetAtFixation,jsons/v1_VE250_randls_26_rotated.json,http://54.235.29.9/FacialAge/BNav_EC2/DepthDuration/v2_depth_duration_MTurk/v2_DepthDuration_HTML.html#438,438,1440,789,1440,900,9-31-2022,11-5-20,62,depth_duration_stimuli/002568_2014-06-24_13-59-21_094959634447_rgbf000062-resize_4/002568_2014-06-24_13-59-21_094959634447_rgbf000062-resize_4-target.png,250,3.015,100.0,4234,251,meters,jsons/v1_VE250_randls_26_rotated.json,1228791,1652282,37,Woman
62,321135,DepthScenes,duration_manipulation_targetAtFixation,jsons/v1_VE250_randls_26_rotated.json,http://54.235.29.9/FacialAge/BNav_EC2/DepthDuration/v2_depth_duration_MTurk/v2_DepthDuration_HTML.html#438,438,1440,789,1440,900,9-31-2022,11-5-20,63,depth_duration_stimuli/003492_2014-05-21_15-50-55_094959634447_rgbf000828-resize_1/003492_2014-05-21_15-50-55_094959634447_rgbf000828-resize_1-target.png,250,4.06875,200.0,21411,248,meters,jsons/v1_VE250_randls_26_rotated.json,1228791,1652282,37,Woman
63,321135,DepthScenes,duration_manipulation_targetAtFixation,jsons/v1_VE250_randls_26_rotated.json,http://54.235.29.9/FacialAge/BNav_EC2/DepthDuration/v2_depth_duration_MTurk/v2_DepthDuration_HTML.html#438,438,1440,789,1440,900,9-31-2022,11-5-20,64,depth_duration_stimuli/001815_2014-06-26_20-52-55_260595134347_rgbf000020-resize_0/001815_2014-06-26_20-52-55_260595134347_rgbf000020-resize_0-target.png,250,3.3865,100.0,3034,250,meters,jsons/v1_VE250_randls_26_rotated.json,1228791,1652282,37,Woman
64,321135,DepthScenes,duration_manipulation_targetAtFixation,jsons/v1_VE250_randls_26_rotated.json,http://54.235.29.9/FacialAge/BNav_EC2/DepthDuration/v2_depth_duration_MTurk/v2_DepthDuration_HTML.html#438,438,1440,789,1440,900,9-31-2022,11-5-20,65,depth_duration_stimuli/001808_2014-06-26_20-50-58_260595134347_rgbf000029-resize_1/001808_2014-06-26_20-50-58_260595134347_rgbf000029-resize_1-target.png,250,4.249,100.0,2874,248,meters,jsons/v1_VE250_randls_26_rotated.json,1228791,1652282,37,Woman
65,321135,DepthScenes,duration_manipulation_targetAtFixation,jsons/v1_VE250_randls_26_rotated.json,http://54.235.29.9/FacialAge/BNav_EC2/DepthDuration/v2_depth_duration_MTurk/v2_DepthDuration_HTML.html#438,438,1440,789,1440,900,9-31-2022,11-5-20,66,depth_duration_stimuli/001540_2014-06-20_17-01-05_260595134347_rgbf000086-resize_2/001540_2014-06-20_17-01-05_260595134347_rgbf000086-resize-original.jpg,250,1.459,200.0,2932,250,meters,jsons/v1_VE250_randls_26_rotated.json,1228791,1652282,37,Woman
66,321135,DepthScenes,duration_manipulation_targetAtFixation,jsons/v1_VE250_randls_26_rotated.json,http://54.235.29.9/FacialAge/BNav_EC2/DepthDuration/v2_depth_duration_MTurk/v2_DepthDuration_HTML.html#438,438,1440,789,1440,900,9-31-2022,11-5-20,67,depth_duration_stimuli/003490_2014-05-21_15-50-11_094959634447_rgbf000101-resize_3/003490_2014-05-21_15-50-11_094959634447_rgbf000101-resize_3-target.png,250,3.6445,200.0,2778,250,meters,jsons/v1_VE250_randls_26_rotated.json,1228791,1652282,37,Woman
67,321135,DepthScenes,duration_manipulation_targetAtFixation,jsons/v1_VE250_randls_26_rotated.json,http://54.235.29.9/FacialAge/BNav_EC2/DepthDuration/v2_depth_duration_MTurk/v2_DepthDuration_HTML.html#438,438,1440,789,1440,900,9-31-2022,11-5-20,68,depth_duration_stimuli/001175_2014-06-17_15-45-55_260595134347_rgbf000129-resize_4/001175_2014-06-17_15-45-55_260595134347_rgbf000129-resize_4-target.png,250,4.255,200.0,2818,250,meters,jsons/v1_VE250_randls_26_rotated.json,1228791,1652282,37,Woman
68,321135,DepthScenes,duration_manipulation_targetAtFixation,jsons/v1_VE250_randls_26_rotated.json,http://54.235.29.9/FacialAge/BNav_EC2/DepthDuration/v2_depth_duration_MTurk/v2_DepthDuration_HTML.html#438,438,1440,789,1440,900,9-31-2022,11-5-20,69,depth_duration_stimuli/003083_2014-06-15_15-21-03_094959634447_rgbf000063-resize_1/003083_2014-06-15_15-21-03_094959634447_rgbf000063-resize_1-target.png,250,4.1405,100.0,2587,249,meters,jsons/v1_VE250_randls_26_rotated.json,1228791,1652282,37,Woman
69,321135,DepthScenes,duration_manipulation_targetAtFixation,jsons/v1_VE250_randls_26_rotated.json,http://54.235.29.9/FacialAge/BNav_EC2/DepthDuration/v2_depth_duration_MTurk/v2_DepthDuration_HTML.html#438,438,1440,789,1440,900,9-31-2022,11-5-20,70,depth_duration_stimuli/000486_2014-06-09_20-47-20_260595134347_rgbf000143-resize_2/000486_2014-06-09_20-47-20_260595134347_rgbf000143-resize_2-target.png,250,4.8325,100.0,3313,249,meters,jsons/v1_VE250_randls_26_rotated.json,1228791,1652282,37,Woman
70,321135,DepthScenes,duration_manipulation_targetAtFixation,jsons/v1_VE250_randls_26_rotated.json,http://54.235.29.9/FacialAge/BNav_EC2/DepthDuration/v2_depth_duration_MTurk/v2_DepthDuration_HTML.html#438,438,1440,789,1440,900,9-31-2022,11-5-20,71,depth_duration_stimuli/002639_2014-06-24_14-51-37_094959634447_rgbf000074-resize_4/002639_2014-06-24_14-51-37_094959634447_rgbf000074-resize_4-target.png,250,4.0375,100.0,4258,250,meters,jsons/v1_VE250_randls_26_rotated.json,1228791,1652282,37,Woman
71,321135,DepthScenes,duration_manipulation_targetAtFixation,jsons/v1_VE250_randls_26_rotated.json,http://54.235.29.9/FacialAge/BNav_EC2/DepthDuration/v2_depth_duration_MTurk/v2_DepthDuration_HTML.html#438,438,1440,789,1440,900,9-31-2022,11-5-20,72,depth_duration_stimuli/003292_2014-05-14_21-53-49_094959634447_rgbf000100-resize_2/003292_2014-05-14_21-53-49_094959634447_rgbf000100-resize_2-target.png,250,3.4815,100.0,2562,249,meters,jsons/v1_VE250_randls_26_rotated.json,1228791,1652282,37,Woman
72,321135,DepthScenes,duration_manipulation_targetAtFixation,jsons/v1_VE250_randls_26_rotated.json,http://54.235.29.9/FacialAge/BNav_EC2/DepthDuration/v2_depth_duration_MTurk/v2_DepthDuration_HTML.html#438,438,1440,789,1440,900,9-31-2022,11-5-20,73,depth_duration_stimuli/001650_2014-06-20_12-09-00_260595134347_rgbf000087-resize_3/001650_2014-06-20_12-09-00_260595134347_rgbf000087-resize_3-target.png,250,1.9505,200.0,2501,250,meters,jsons/v1_VE250_randls_26_rotated.json,1228791,1652282,37,Woman
73,321135,DepthScenes,duration_manipulation_targetAtFixation,jsons/v1_VE250_randls_26_rotated.json,http://54.235.29.9/FacialAge/BNav_EC2/DepthDuration/v2_depth_duration_MTurk/v2_DepthDuration_HTML.html#438,438,1440,789,1440,900,9-31-2022,11-5-20,74,depth_duration_stimuli/000682_2014-06-08_23-14-58_260595134347_rgbf000041-resize_5/000682_2014-06-08_23-14-58_260595134347_rgbf000041-resize_5-target.png,250,2.7239999999999998,100.0,3198,250,meters,jsons/v1_VE250_randls_26_rotated.json,1228791,1652282,37,Woman
74,321135,DepthScenes,duration_manipulation_targetAtFixation,jsons/v1_VE250_randls_26_rotated.json,http://54.235.29.9/FacialAge/BNav_EC2/DepthDuration/v2_depth_duration_MTurk/v2_DepthDuration_HTML.html#438,438,1440,789,1440,900,9-31-2022,11-5-20,75,depth_duration_stimuli/002657_2014-06-13_15-29-54_094959634447_rgbf000150-resize_1/002657_2014-06-13_15-29-54_094959634447_rgbf000150-resize_1-target.png,250,4.919,100.0,2644,250,meters,jsons/v1_VE250_randls_26_rotated.json,1228791,1652282,37,Woman
75,321135,DepthScenes,duration_manipulation_targetAtFixation,jsons/v1_VE250_randls_26_rotated.json,http://54.235.29.9/FacialAge/BNav_EC2/DepthDuration/v2_depth_duration_MTurk/v2_DepthDuration_HTML.html#438,438,1440,789,1440,900,9-31-2022,11-5-20,76,depth_duration_stimuli/002375_2014-06-28_20-13-44_260595134347_rgbf000032-resize_1/002375_2014-06-28_20-13-44_260595134347_rgbf000032-resize_1-target.png,250,4.0175,320.0,7206,250,meters,jsons/v1_VE250_randls_26_rotated.json,1228791,1652282,37,Woman
76,321135,DepthScenes,duration_manipulation_targetAtFixation,jsons/v1_VE250_randls_26_rotated.json,http://54.235.29.9/FacialAge/BNav_EC2/DepthDuration/v2_depth_duration_MTurk/v2_DepthDuration_HTML.html#438,438,1440,789,1440,900,9-31-2022,11-5-20,77,depth_duration_stimuli/002545_2014-06-24_13-38-53_094959634447_rgbf000080-resize_4/002545_2014-06-24_13-38-53_094959634447_rgbf000080-resize_4-target.png,250,1.9205,200.0,6751,249,meters,jsons/v1_VE250_randls_26_rotated.json,1228791,1652282,37,Woman
77,321135,DepthScenes,duration_manipulation_targetAtFixation,jsons/v1_VE250_randls_26_rotated.json,http://54.235.29.9/FacialAge/BNav_EC2/DepthDuration/v2_depth_duration_MTurk/v2_DepthDuration_HTML.html#438,438,1440,789,1440,900,9-31-2022,11-5-20,78,depth_duration_stimuli/001092_2014-06-15_17-34-58_260595134347_rgbf000171-resize_3/001092_2014-06-15_17-34-58_260595134347_rgbf000171-resize_3-target.png,250,2.6935,100.0,41081,250,meters,jsons/v1_VE250_randls_26_rotated.json,1228791,1652282,37,Woman
78,321135,DepthScenes,duration_manipulation_targetAtFixation,jsons/v1_VE250_randls_26_rotated.json,http://54.235.29.9/FacialAge/BNav_EC2/DepthDuration/v2_depth_duration_MTurk/v2_DepthDuration_HTML.html#438,438,1440,789,1440,900,9-31-2022,11-5-20,79,depth_duration_stimuli/002875_2014-06-01_15-19-00_094959634447_rgbf000151-resize_1/002875_2014-06-01_15-19-00_094959634447_rgbf000151-resize_1-target.png,250,1.9675,200.0,16259,250,meters,jsons/v1_VE250_randls_26_rotated.json,1228791,1652282,37,Woman
79,321135,DepthScenes,duration_manipulation_targetAtFixation,jsons/v1_VE250_randls_26_rotated.json,http://54.235.29.9/FacialAge/BNav_EC2/DepthDuration/v2_depth_duration_MTurk/v2_DepthDuration_HTML.html#438,438,1440,789,1440,900,9-31-2022,11-5-20,80,depth_duration_stimuli/001011_2014-06-08_23-18-54_260595134347_rgbf000044-resize_4/001011_2014-06-08_23-18-54_260595134347_rgbf000044-resize_4-target.png,250,2.4730000000000003,100.0,3033,249,meters,jsons/v1_VE250_randls_26_rotated.json,1228791,1652282,37,Woman
80,321135,DepthScenes,duration_manipulation_targetAtFixation,jsons/v1_VE250_randls_26_rotated.json,http://54.235.29.9/FacialAge/BNav_EC2/DepthDuration/v2_depth_duration_MTurk/v2_DepthDuration_HTML.html#438,438,1440,789,1440,900,9-31-2022,11-5-20,81,depth_duration_stimuli/002425_2014-06-28_20-27-29_260595134347_rgbf000031-resize_8/002425_2014-06-28_20-27-29_260595134347_rgbf000031-resize_8-target.png,250,3.8960000000000004,100.0,4427,250,meters,jsons/v1_VE250_randls_26_rotated.json,1228791,1652282,37,Woman
81,321135,DepthScenes,duration_manipulation_targetAtFixation,jsons/v1_VE250_randls_26_rotated.json,http://54.235.29.9/FacialAge/BNav_EC2/DepthDuration/v2_depth_duration_MTurk/v2_DepthDuration_HTML.html#438,438,1440,789,1440,900,9-31-2022,11-5-20,82,depth_duration_stimuli/000642_2014-06-08_16-59-25_260595134347_rgbf000098-resize_2/000642_2014-06-08_16-59-25_260595134347_rgbf000098-resize_2-target.png,250,2.8815,100.0,3306,250,meters,jsons/v1_VE250_randls_26_rotated.json,1228791,1652282,37,Woman
82,321135,DepthScenes,duration_manipulation_targetAtFixation,jsons/v1_VE250_randls_26_rotated.json,http://54.235.29.9/FacialAge/BNav_EC2/DepthDuration/v2_depth_duration_MTurk/v2_DepthDuration_HTML.html#438,438,1440,789,1440,900,9-31-2022,11-5-20,83,depth_duration_stimuli/002637_2014-06-24_14-51-13_094959634447_rgbf000066-resize_4/002637_2014-06-24_14-51-13_094959634447_rgbf000066-resize_4-target.png,250,1.9955,200.0,3254,250,meters,jsons/v1_VE250_randls_26_rotated.json,1228791,1652282,37,Woman
83,321135,DepthScenes,duration_manipulation_targetAtFixation,jsons/v1_VE250_randls_26_rotated.json,http://54.235.29.9/FacialAge/BNav_EC2/DepthDuration/v2_depth_duration_MTurk/v2_DepthDuration_HTML.html#438,438,1440,789,1440,900,9-31-2022,11-5-20,84,depth_duration_stimuli/003534_2014-05-22_15-06-10_094959634447_rgbf000102-resize_4/003534_2014-05-22_15-06-10_094959634447_rgbf000102-resize_4-target.png,250,1.426,100.0,3126,250,meters,jsons/v1_VE250_randls_26_rotated.json,1228791,1652282,37,Woman
84,321135,DepthScenes,duration_manipulation_targetAtFixation,jsons/v1_VE250_randls_26_rotated.json,http://54.235.29.9/FacialAge/BNav_EC2/DepthDuration/v2_depth_duration_MTurk/v2_DepthDuration_HTML.html#438,438,1440,789,1440,900,9-31-2022,11-5-20,85,depth_duration_stimuli/000483_2014-06-09_20-41-45_260595134347_rgbf000116-resize_4/000483_2014-06-09_20-41-45_260595134347_rgbf000116-resize_4-target.png,250,1.337,100.0,7051,249,meters,jsons/v1_VE250_randls_26_rotated.json,1228791,1652282,37,Woman
85,321135,DepthScenes,duration_manipulation_targetAtFixation,jsons/v1_VE250_randls_26_rotated.json,http://54.235.29.9/FacialAge/BNav_EC2/DepthDuration/v2_depth_duration_MTurk/v2_DepthDuration_HTML.html#438,438,1440,789,1440,900,9-31-2022,11-5-20,86,depth_duration_stimuli/000469_2014-06-09_19-42-10_260595134347_rgbf000081-resize_1/000469_2014-06-09_19-42-10_260595134347_rgbf000081-resize_1-target.png,250,1.652,200.0,3051,251,meters,jsons/v1_VE250_randls_26_rotated.json,1228791,1652282,37,Woman
86,321135,DepthScenes,duration_manipulation_targetAtFixation,jsons/v1_VE250_randls_26_rotated.json,http://54.235.29.9/FacialAge/BNav_EC2/DepthDuration/v2_depth_duration_MTurk/v2_DepthDuration_HTML.html#438,438,1440,789,1440,900,9-31-2022,11-5-20,87,depth_duration_stimuli/000734_2014-06-08_17-39-11_260595134347_rgbf000128-resize_2/000734_2014-06-08_17-39-11_260595134347_rgbf000128-resize_2-target.png,250,4.098,100.0,3026,250,meters,jsons/v1_VE250_randls_26_rotated.json,1228791,1652282,37,Woman
87,321135,DepthScenes,duration_manipulation_targetAtFixation,jsons/v1_VE250_randls_26_rotated.json,http://54.235.29.9/FacialAge/BNav_EC2/DepthDuration/v2_depth_duration_MTurk/v2_DepthDuration_HTML.html#438,438,1440,789,1440,900,9-31-2022,11-5-20,88,depth_duration_stimuli/000739_2014-06-08_18-45-58_260595134347_rgbf000068-resize_1/000739_2014-06-08_18-45-58_260595134347_rgbf000068-resize_1-target.png,250,3.534,100.0,4018,250,meters,jsons/v1_VE250_randls_26_rotated.json,1228791,1652282,37,Woman
88,321135,DepthScenes,duration_manipulation_targetAtFixation,jsons/v1_VE250_randls_26_rotated.json,http://54.235.29.9/FacialAge/BNav_EC2/DepthDuration/v2_depth_duration_MTurk/v2_DepthDuration_HTML.html#438,438,1440,789,1440,900,9-31-2022,11-5-20,89,depth_duration_stimuli/003129_2014-05-12_10-48-10_094959634447_rgbf000100-resize_0/003129_2014-05-12_10-48-10_094959634447_rgbf000100-resize_0-target.png,250,4.9305,200.0,3371,249,meters,jsons/v1_VE250_randls_26_rotated.json,1228791,1652282,37,Woman
89,321135,DepthScenes,duration_manipulation_targetAtFixation,jsons/v1_VE250_randls_26_rotated.json,http://54.235.29.9/FacialAge/BNav_EC2/DepthDuration/v2_depth_duration_MTurk/v2_DepthDuration_HTML.html#438,438,1440,789,1440,900,9-31-2022,11-5-20,90,depth_duration_stimuli/000414_2014-06-04_19-49-13_260595134347_rgbf000044-resize_0/000414_2014-06-04_19-49-13_260595134347_rgbf000044-resize_0-target.png,250,4.329,100.0,9096,249,meters,jsons/v1_VE250_randls_26_rotated.json,1228791,1652282,37,Woman
90,321135,DepthScenes,duration_manipulation_targetAtFixation,jsons/v1_VE250_randls_26_rotated.json,http://54.235.29.9/FacialAge/BNav_EC2/DepthDuration/v2_depth_duration_MTurk/v2_DepthDuration_HTML.html#438,438,1440,789,1440,900,9-31-2022,11-5-20,91,depth_duration_stimuli/002414_2014-06-28_20-24-58_260595134347_rgbf000067-resize_4/002414_2014-06-28_20-24-58_260595134347_rgbf000067-resize_4-target.png,250,4.363,200.0,5499,249,meters,jsons/v1_VE250_randls_26_rotated.json,1228791,1652282,37,Woman
91,321135,DepthScenes,duration_manipulation_targetAtFixation,jsons/v1_VE250_randls_26_rotated.json,http://54.235.29.9/FacialAge/BNav_EC2/DepthDuration/v2_depth_duration_MTurk/v2_DepthDuration_HTML.html#438,438,1440,789,1440,900,9-31-2022,11-5-20,92,depth_duration_stimuli/000773_2014-06-08_22-24-54_260595134347_rgbf000093-resize_1/000773_2014-06-08_22-24-54_260595134347_rgbf000093-resize_1-target.png,250,4.973,100.0,2561,249,meters,jsons/v1_VE250_randls_26_rotated.json,1228791,1652282,37,Woman
92,321135,DepthScenes,duration_manipulation_targetAtFixation,jsons/v1_VE250_randls_26_rotated.json,http://54.235.29.9/FacialAge/BNav_EC2/DepthDuration/v2_depth_duration_MTurk/v2_DepthDuration_HTML.html#438,438,1440,789,1440,900,9-31-2022,11-5-20,93,depth_duration_stimuli/003587_2014-05-23_16-48-02_094959634447_rgbf002384-resize_2/003587_2014-05-23_16-48-02_094959634447_rgbf002384-resize_2-target.png,250,1.357,200.0,2866,249,meters,jsons/v1_VE250_randls_26_rotated.json,1228791,1652282,37,Woman
93,321135,DepthScenes,duration_manipulation_targetAtFixation,jsons/v1_VE250_randls_26_rotated.json,http://54.235.29.9/FacialAge/BNav_EC2/DepthDuration/v2_depth_duration_MTurk/v2_DepthDuration_HTML.html#438,438,1440,789,1440,900,9-31-2022,11-5-20,94,depth_duration_stimuli/001167_2014-06-17_15-38-07_260595134347_rgbf000108-resize_0/001167_2014-06-17_15-38-07_260595134347_rgbf000108-resize_0-target.png,250,1.8505,200.0,17187,249,meters,jsons/v1_VE250_randls_26_rotated.json,1228791,1652282,37,Woman
94,321135,DepthScenes,duration_manipulation_targetAtFixation,jsons/v1_VE250_randls_26_rotated.json,http://54.235.29.9/FacialAge/BNav_EC2/DepthDuration/v2_depth_duration_MTurk/v2_DepthDuration_HTML.html#438,438,1440,789,1440,900,9-31-2022,11-5-20,95,depth_duration_stimuli/002949_2014-06-26_15-57-42_094959634447_rgbf000079-resize_1/002949_2014-06-26_15-57-42_094959634447_rgbf000079-resize_1-target.png,250,1.8915,2000.0,4225,250,meters,jsons/v1_VE250_randls_26_rotated.json,1228791,1652282,37,Woman
95,321135,DepthScenes,duration_manipulation_targetAtFixation,jsons/v1_VE250_randls_26_rotated.json,http://54.235.29.9/FacialAge/BNav_EC2/DepthDuration/v2_depth_duration_MTurk/v2_DepthDuration_HTML.html#438,438,1440,789,1440,900,9-31-2022,11-5-20,96,depth_duration_stimuli/000522_2014-06-08_13-35-06_260595134347_rgbf000244-resize_1/000522_2014-06-08_13-35-06_260595134347_rgbf000244-resize_1-target.png,250,2.3715,200.0,2641,249,meters,jsons/v1_VE250_randls_26_rotated.json,1228791,1652282,37,Woman
96,321135,DepthScenes,duration_manipulation_targetAtFixation,jsons/v1_VE250_randls_26_rotated.json,http://54.235.29.9/FacialAge/BNav_EC2/DepthDuration/v2_depth_duration_MTurk/v2_DepthDuration_HTML.html#438,438,1440,789,1440,900,9-31-2022,11-5-20,97,depth_duration_stimuli/003495_2014-05-21_16-01-51_094959634447_rgbf000100-resize_3/003495_2014-05-21_16-01-51_094959634447_rgbf000100-resize_3-target.png,250,1.6255,100.0,2850,249,meters,jsons/v1_VE250_randls_26_rotated.json,1228791,1652282,37,Woman
97,321135,DepthScenes,duration_manipulation_targetAtFixation,jsons/v1_VE250_randls_26_rotated.json,http://54.235.29.9/FacialAge/BNav_EC2/DepthDuration/v2_depth_duration_MTurk/v2_DepthDuration_HTML.html#438,438,1440,789,1440,900,9-31-2022,11-5-20,98,depth_duration_stimuli/001244_2014-06-17_16-47-45_260595134347_rgbf000030-resize_4/001244_2014-06-17_16-47-45_260595134347_rgbf000030-resize_4-target.png,250,2.0425,100.0,2971,250,meters,jsons/v1_VE250_randls_26_rotated.json,1228791,1652282,37,Woman
98,321135,DepthScenes,duration_manipulation_targetAtFixation,jsons/v1_VE250_randls_26_rotated.json,http://54.235.29.9/FacialAge/BNav_EC2/DepthDuration/v2_depth_duration_MTurk/v2_DepthDuration_HTML.html#438,438,1440,789,1440,900,9-31-2022,11-5-20,99,depth_duration_stimuli/001222_2014-06-17_16-24-06_260595134347_rgbf000073-resize_0/001222_2014-06-17_16-24-06_260595134347_rgbf000073-resize-original.jpg,250,1.4385,200.0,3041,250,meters,jsons/v1_VE250_randls_26_rotated.json,1228791,1652282,37,Woman
99,321135,DepthScenes,duration_manipulation_targetAtFixation,jsons/v1_VE250_randls_26_rotated.json,http://54.235.29.9/FacialAge/BNav_EC2/DepthDuration/v2_depth_duration_MTurk/v2_DepthDuration_HTML.html#438,438,1440,789,1440,900,9-31-2022,11-5-20,100,depth_duration_stimuli/000742_2014-06-08_18-48-09_260595134347_rgbf000164-resize_4/000742_2014-06-08_18-48-09_260595134347_rgbf000164-resize_4-target.png,250,4.632,200.0,2866,250,meters,jsons/v1_VE250_randls_26_rotated.json,1228791,1652282,37,Woman
100,321135,DepthScenes,duration_manipulation_targetAtFixation,jsons/v1_VE250_randls_26_rotated.json,http://54.235.29.9/FacialAge/BNav_EC2/DepthDuration/v2_depth_duration_MTurk/v2_DepthDuration_HTML.html#438,438,1440,789,1440,900,9-31-2022,11-5-20,101,depth_duration_stimuli/001066_2014-06-08_22-03-20_260595134347_rgbf000066-resize_4/001066_2014-06-08_22-03-20_260595134347_rgbf000066-resize_4-target.png,250,4.2330000000000005,200.0,2738,249,meters,jsons/v1_VE250_randls_26_rotated.json,1228791,1652282,37,Woman
101,321135,DepthScenes,duration_manipulation_targetAtFixation,jsons/v1_VE250_randls_26_rotated.json,http://54.235.29.9/FacialAge/BNav_EC2/DepthDuration/v2_depth_duration_MTurk/v2_DepthDuration_HTML.html#438,438,1440,789,1440,900,9-31-2022,11-5-20,102,depth_duration_stimuli/001617_2014-06-20_11-35-32_260595134347_rgbf000066-resize_1/001617_2014-06-20_11-35-32_260595134347_rgbf000066-resize_1-target.png,250,3.7910000000000004,200.0,2530,249,meters,jsons/v1_VE250_randls_26_rotated.json,1228791,1652282,37,Woman
102,321135,DepthScenes,duration_manipulation_targetAtFixation,jsons/v1_VE250_randls_26_rotated.json,http://54.235.29.9/FacialAge/BNav_EC2/DepthDuration/v2_depth_duration_MTurk/v2_DepthDuration_HTML.html#438,438,1440,789,1440,900,9-31-2022,11-5-20,103,depth_duration_stimuli/001806_2014-06-26_20-50-20_260595134347_rgbf000091-resize_1/001806_2014-06-26_20-50-20_260595134347_rgbf000091-resize_1-target.png,250,2.7305,100.0,3131,249,meters,jsons/v1_VE250_randls_26_rotated.json,1228791,1652282,37,Woman
103,321135,DepthScenes,duration_manipulation_targetAtFixation,jsons/v1_VE250_randls_26_rotated.json,http://54.235.29.9/FacialAge/BNav_EC2/DepthDuration/v2_depth_duration_MTurk/v2_DepthDuration_HTML.html#438,438,1440,789,1440,900,9-31-2022,11-5-20,104,depth_duration_stimuli/001516_2014-06-20_16-25-09_260595134347_rgbf000076-resize_2/001516_2014-06-20_16-25-09_260595134347_rgbf000076-resize_2-target.png,250,1.7445,2000.0,3306,250,meters,jsons/v1_VE250_randls_26_rotated.json,1228791,1652282,37,Woman
104,321135,DepthScenes,duration_manipulation_targetAtFixation,jsons/v1_VE250_randls_26_rotated.json,http://54.235.29.9/FacialAge/BNav_EC2/DepthDuration/v2_depth_duration_MTurk/v2_DepthDuration_HTML.html#438,438,1440,789,1440,900,9-31-2022,11-5-20,105,depth_duration_stimuli/002118_2014-06-25_20-32-08_260595134347_rgbf000078-resize_1/002118_2014-06-25_20-32-08_260595134347_rgbf000078-resize_1-target.png,250,2.6460000000000004,200.0,5723,251,meters,jsons/v1_VE250_randls_26_rotated.json,1228791,1652282,37,Woman
105,321135,DepthScenes,duration_manipulation_targetAtFixation,jsons/v1_VE250_randls_26_rotated.json,http://54.235.29.9/FacialAge/BNav_EC2/DepthDuration/v2_depth_duration_MTurk/v2_DepthDuration_HTML.html#438,438,1440,789,1440,900,9-31-2022,11-5-20,106,depth_duration_stimuli/001132_2014-06-17_14-48-54_260595134347_rgbf000100-resize_2/001132_2014-06-17_14-48-54_260595134347_rgbf000100-resize_2-target.png,250,3.753,200.0,9601,249,meters,jsons/v1_VE250_randls_26_rotated.json,1228791,1652282,37,Woman
106,321135,DepthScenes,duration_manipulation_targetAtFixation,jsons/v1_VE250_randls_26_rotated.json,http://54.235.29.9/FacialAge/BNav_EC2/DepthDuration/v2_depth_duration_MTurk/v2_DepthDuration_HTML.html#438,438,1440,789,1440,900,9-31-2022,11-5-20,107,depth_duration_stimuli/001133_2014-06-17_14-49-16_260595134347_rgbf000100-resize_0/001133_2014-06-17_14-49-16_260595134347_rgbf000100-resize_0-target.png,250,4.2115,200.0,14042,250,meters,jsons/v1_VE250_randls_26_rotated.json,1228791,1652282,37,Woman
107,321135,DepthScenes,duration_manipulation_targetAtFixation,jsons/v1_VE250_randls_26_rotated.json,http://54.235.29.9/FacialAge/BNav_EC2/DepthDuration/v2_depth_duration_MTurk/v2_DepthDuration_HTML.html#438,438,1440,789,1440,900,9-31-2022,11-5-20,108,depth_duration_stimuli/001392_2014-06-19_16-07-59_260595134347_rgbf000046-resize_1/001392_2014-06-19_16-07-59_260595134347_rgbf000046-resize_1-target.png,250,4.135,200.0,3210,250,meters,jsons/v1_VE250_randls_26_rotated.json,1228791,1652282,37,Woman
108,321135,DepthScenes,duration_manipulation_targetAtFixation,jsons/v1_VE250_randls_26_rotated.json,http://54.235.29.9/FacialAge/BNav_EC2/DepthDuration/v2_depth_duration_MTurk/v2_DepthDuration_HTML.html#438,438,1440,789,1440,900,9-31-2022,11-5-20,109,depth_duration_stimuli/001570_2014-06-20_17-21-09_260595134347_rgbf000135-resize_4/001570_2014-06-20_17-21-09_260595134347_rgbf000135-resize_4-target.png,250,4.467,100.0,3706,250,meters,jsons/v1_VE250_randls_26_rotated.json,1228791,1652282,37,Woman
109,321135,DepthScenes,duration_manipulation_targetAtFixation,jsons/v1_VE250_randls_26_rotated.json,http://54.235.29.9/FacialAge/BNav_EC2/DepthDuration/v2_depth_duration_MTurk/v2_DepthDuration_HTML.html#438,438,1440,789,1440,900,9-31-2022,11-5-20,110,depth_duration_stimuli/003010_2014-06-15_12-54-35_094959634447_rgbf000112-resize_0/003010_2014-06-15_12-54-35_094959634447_rgbf000112-resize_0-target.png,250,3.1185,100.0,11365,249,meters,jsons/v1_VE250_randls_26_rotated.json,1228791,1652282,37,Woman
110,321135,DepthScenes,duration_manipulation_targetAtFixation,jsons/v1_VE250_randls_26_rotated.json,http://54.235.29.9/FacialAge/BNav_EC2/DepthDuration/v2_depth_duration_MTurk/v2_DepthDuration_HTML.html#438,438,1440,789,1440,900,9-31-2022,11-5-20,111,depth_duration_stimuli/001810_2014-06-26_20-51-35_260595134347_rgbf000040-resize_3/001810_2014-06-26_20-51-35_260595134347_rgbf000040-resize_3-target.png,250,2.2525,200.0,3279,249,meters,jsons/v1_VE250_randls_26_rotated.json,1228791,1652282,37,Woman
111,321135,DepthScenes,duration_manipulation_targetAtFixation,jsons/v1_VE250_randls_26_rotated.json,http://54.235.29.9/FacialAge/BNav_EC2/DepthDuration/v2_depth_duration_MTurk/v2_DepthDuration_HTML.html#438,438,1440,789,1440,900,9-31-2022,11-5-20,112,depth_duration_stimuli/001235_2014-06-17_16-37-36_260595134347_rgbf000084-resize_4/001235_2014-06-17_16-37-36_260595134347_rgbf000084-resize_4-target.png,250,3.6605,200.0,12262,249,meters,jsons/v1_VE250_randls_26_rotated.json,1228791,1652282,37,Woman
112,321135,DepthScenes,duration_manipulation_targetAtFixation,jsons/v1_VE250_randls_26_rotated.json,http://54.235.29.9/FacialAge/BNav_EC2/DepthDuration/v2_depth_duration_MTurk/v2_DepthDuration_HTML.html#438,438,1440,789,1440,900,9-31-2022,11-5-20,113,depth_duration_stimuli/000788_2014-06-08_22-34-36_260595134347_rgbf000131-resize_1/000788_2014-06-08_22-34-36_260595134347_rgbf000131-resize_1-target.png,250,3.359,200.0,8861,249,meters,jsons/v1_VE250_randls_26_rotated.json,1228791,1652282,37,Woman
113,321135,DepthScenes,duration_manipulation_targetAtFixation,jsons/v1_VE250_randls_26_rotated.json,http://54.235.29.9/FacialAge/BNav_EC2/DepthDuration/v2_depth_duration_MTurk/v2_DepthDuration_HTML.html#438,438,1440,789,1440,900,9-31-2022,11-5-20,114,depth_duration_stimuli/000409_2014-06-04_19-23-33_260595134347_rgbf000067-resize_0/000409_2014-06-04_19-23-33_260595134347_rgbf000067-resize_0-target.png,250,3.7335,200.0,8733,249,meters,jsons/v1_VE250_randls_26_rotated.json,1228791,1652282,37,Woman
114,321135,DepthScenes,duration_manipulation_targetAtFixation,jsons/v1_VE250_randls_26_rotated.json,http://54.235.29.9/FacialAge/BNav_EC2/DepthDuration/v2_depth_duration_MTurk/v2_DepthDuration_HTML.html#438,438,1440,789,1440,900,9-31-2022,11-5-20,115,depth_duration_stimuli/002663_2014-06-13_15-50-26_094959634447_rgbf000075-resize_1/002663_2014-06-13_15-50-26_094959634447_rgbf000075-resize_1-target.png,250,4.7495,100.0,23975,250,meters,jsons/v1_VE250_randls_26_rotated.json,1228791,1652282,37,Woman
115,321135,DepthScenes,duration_manipulation_targetAtFixation,jsons/v1_VE250_randls_26_rotated.json,http://54.235.29.9/FacialAge/BNav_EC2/DepthDuration/v2_depth_duration_MTurk/v2_DepthDuration_HTML.html#438,438,1440,789,1440,900,9-31-2022,11-5-20,116,depth_duration_stimuli/003228_2014-05-14_13-42-35_094959634447_rgbf000101-resize_1/003228_2014-05-14_13-42-35_094959634447_rgbf000101-resize_1-target.png,250,1.9680000000000002,100.0,4330,250,meters,jsons/v1_VE250_randls_26_rotated.json,1228791,1652282,37,Woman
116,321135,DepthScenes,duration_manipulation_targetAtFixation,jsons/v1_VE250_randls_26_rotated.json,http://54.235.29.9/FacialAge/BNav_EC2/DepthDuration/v2_depth_duration_MTurk/v2_DepthDuration_HTML.html#438,438,1440,789,1440,900,9-31-2022,11-5-20,117,depth_duration_stimuli/002600_2014-06-24_14-27-04_094959634447_rgbf000074-resize_2/002600_2014-06-24_14-27-04_094959634447_rgbf000074-resize_2-target.png,250,2.7575,100.0,16906,249,meters,jsons/v1_VE250_randls_26_rotated.json,1228791,1652282,37,Woman
117,321135,DepthScenes,duration_manipulation_targetAtFixation,jsons/v1_VE250_randls_26_rotated.json,http://54.235.29.9/FacialAge/BNav_EC2/DepthDuration/v2_depth_duration_MTurk/v2_DepthDuration_HTML.html#438,438,1440,789,1440,900,9-31-2022,11-5-20,118,depth_duration_stimuli/000103_2014-05-14_22-01-17_260595134347_rgbf000152-resize_5/000103_2014-05-14_22-01-17_260595134347_rgbf000152-resize_5-target.png,250,1.993,100.0,3225,250,meters,jsons/v1_VE250_randls_26_rotated.json,1228791,1652282,37,Woman
118,321135,DepthScenes,duration_manipulation_targetAtFixation,jsons/v1_VE250_randls_26_rotated.json,http://54.235.29.9/FacialAge/BNav_EC2/DepthDuration/v2_depth_duration_MTurk/v2_DepthDuration_HTML.html#438,438,1440,789,1440,900,9-31-2022,11-5-20,119,depth_duration_stimuli/001555_2014-06-20_17-12-10_260595134347_rgbf000065-resize_4/001555_2014-06-20_17-12-10_260595134347_rgbf000065-resize_4-target.png,250,1.633,200.0,3931,250,meters,jsons/v1_VE250_randls_26_rotated.json,1228791,1652282,37,Woman
119,321135,DepthScenes,duration_manipulation_targetAtFixation,jsons/v1_VE250_randls_26_rotated.json,http://54.235.29.9/FacialAge/BNav_EC2/DepthDuration/v2_depth_duration_MTurk/v2_DepthDuration_HTML.html#438,438,1440,789,1440,900,9-31-2022,11-5-20,120,depth_duration_stimuli/000787_2014-06-08_22-33-53_260595134347_rgbf000175-resize_1/000787_2014-06-08_22-33-53_260595134347_rgbf000175-resize-original.jpg,250,4.784,20.0,16817,249,meters,jsons/v1_VE250_randls_26_rotated.json,1228791,1652282,37,Woman
120,321135,DepthScenes,duration_manipulation_targetAtFixation,jsons/v1_VE250_randls_26_rotated.json,http://54.235.29.9/FacialAge/BNav_EC2/DepthDuration/v2_depth_duration_MTurk/v2_DepthDuration_HTML.html#438,438,1440,789,1440,900,9-31-2022,11-5-20,121,depth_duration_stimuli/000943_2014-06-09_19-31-07_260595134347_rgbf000128-resize_1/000943_2014-06-09_19-31-07_260595134347_rgbf000128-resize_1-target.png,250,1.9765,0.0,5322,250,meters,jsons/v1_VE250_randls_26_rotated.json,1228791,1652282,37,Woman
121,321135,DepthScenes,duration_manipulation_targetAtFixation,jsons/v1_VE250_randls_26_rotated.json,http://54.235.29.9/FacialAge/BNav_EC2/DepthDuration/v2_depth_duration_MTurk/v2_DepthDuration_HTML.html#438,438,1440,789,1440,900,9-31-2022,11-5-20,122,depth_duration_stimuli/003070_2014-06-15_14-58-27_094959634447_rgbf000150-resize_3/003070_2014-06-15_14-58-27_094959634447_rgbf000150-resize_3-target.png,250,2.9415,200.0,4026,250,meters,jsons/v1_VE250_randls_26_rotated.json,1228791,1652282,37,Woman
122,321135,DepthScenes,duration_manipulation_targetAtFixation,jsons/v1_VE250_randls_26_rotated.json,http://54.235.29.9/FacialAge/BNav_EC2/DepthDuration/v2_depth_duration_MTurk/v2_DepthDuration_HTML.html#438,438,1440,789,1440,900,9-31-2022,11-5-20,123,depth_duration_stimuli/002750_2014-06-22_19-08-03_094959634447_rgbf000094-resize_4/002750_2014-06-22_19-08-03_094959634447_rgbf000094-resize_4-target.png,250,2.354,100.0,7346,250,meters,jsons/v1_VE250_randls_26_rotated.json,1228791,1652282,37,Woman
123,321135,DepthScenes,duration_manipulation_targetAtFixation,jsons/v1_VE250_randls_26_rotated.json,http://54.235.29.9/FacialAge/BNav_EC2/DepthDuration/v2_depth_duration_MTurk/v2_DepthDuration_HTML.html#438,438,1440,789,1440,900,9-31-2022,11-5-20,124,depth_duration_stimuli/002549_2014-06-24_13-41-39_094959634447_rgbf000022-resize_3/002549_2014-06-24_13-41-39_094959634447_rgbf000022-resize_3-target.png,250,1.476,100.0,3107,251,meters,jsons/v1_VE250_randls_26_rotated.json,1228791,1652282,37,Woman
124,321135,DepthScenes,duration_manipulation_targetAtFixation,jsons/v1_VE250_randls_26_rotated.json,http://54.235.29.9/FacialAge/BNav_EC2/DepthDuration/v2_depth_duration_MTurk/v2_DepthDuration_HTML.html#438,438,1440,789,1440,900,9-31-2022,11-5-20,125,depth_duration_stimuli/002344_2014-06-28_20-06-29_260595134347_rgbf000030-resize_1/002344_2014-06-28_20-06-29_260595134347_rgbf000030-resize_1-target.png,250,1.5795,100.0,3322,250,meters,jsons/v1_VE250_randls_26_rotated.json,1228791,1652282,37,Woman
125,321135,DepthScenes,duration_manipulation_targetAtFixation,jsons/v1_VE250_randls_26_rotated.json,http://54.235.29.9/FacialAge/BNav_EC2/DepthDuration/v2_depth_duration_MTurk/v2_DepthDuration_HTML.html#438,438,1440,789,1440,900,9-31-2022,11-5-20,126,depth_duration_stimuli/002725_2014-06-22_11-47-51_094959634447_rgbf000070-resize_1/002725_2014-06-22_11-47-51_094959634447_rgbf000070-resize_1-target.png,250,2.195,100.0,2803,251,meters,jsons/v1_VE250_randls_26_rotated.json,1228791,1652282,37,Woman
126,321135,DepthScenes,duration_manipulation_targetAtFixation,jsons/v1_VE250_randls_26_rotated.json,http://54.235.29.9/FacialAge/BNav_EC2/DepthDuration/v2_depth_duration_MTurk/v2_DepthDuration_HTML.html#438,438,1440,789,1440,900,9-31-2022,11-5-20,127,depth_duration_stimuli/002805_2014-06-22_19-54-03_094959634447_rgbf000079-resize_1/002805_2014-06-22_19-54-03_094959634447_rgbf000079-resize_1-target.png,250,3.1439999999999997,100.0,2875,250,meters,jsons/v1_VE250_randls_26_rotated.json,1228791,1652282,37,Woman
127,321135,DepthScenes,duration_manipulation_targetAtFixation,jsons/v1_VE250_randls_26_rotated.json,http://54.235.29.9/FacialAge/BNav_EC2/DepthDuration/v2_depth_duration_MTurk/v2_DepthDuration_HTML.html#438,438,1440,789,1440,900,9-31-2022,11-5-20,128,depth_duration_stimuli/000906_2014-06-08_13-35-43_260595134347_rgbf000155-resize_1/000906_2014-06-08_13-35-43_260595134347_rgbf000155-resize_1-target.png,250,2.8489999999999998,100.0,2970,249,meters,jsons/v1_VE250_randls_26_rotated.json,1228791,1652282,37,Woman
128,321135,DepthScenes,duration_manipulation_targetAtFixation,jsons/v1_VE250_randls_26_rotated.json,http://54.235.29.9/FacialAge/BNav_EC2/DepthDuration/v2_depth_duration_MTurk/v2_DepthDuration_HTML.html#438,438,1440,789,1440,900,9-31-2022,11-5-20,129,depth_duration_stimuli/000709_2014-06-08_13-51-55_260595134347_rgbf000068-resize_3/000709_2014-06-08_13-51-55_260595134347_rgbf000068-resize_3-target.png,250,1.8030000000000002,100.0,2738,249,meters,jsons/v1_VE250_randls_26_rotated.json,1228791,1652282,37,Woman
129,321135,DepthScenes,duration_manipulation_targetAtFixation,jsons/v1_VE250_randls_26_rotated.json,http://54.235.29.9/FacialAge/BNav_EC2/DepthDuration/v2_depth_duration_MTurk/v2_DepthDuration_HTML.html#438,438,1440,789,1440,900,9-31-2022,11-5-20,130,depth_duration_stimuli/002057_2014-06-24_21-00-13_260595134347_rgbf000120-resize_1/002057_2014-06-24_21-00-13_260595134347_rgbf000120-resize_1-target.png,250,2.967,100.0,2507,249,meters,jsons/v1_VE250_randls_26_rotated.json,1228791,1652282,37,Woman
130,321135,DepthScenes,duration_manipulation_targetAtFixation,jsons/v1_VE250_randls_26_rotated.json,http://54.235.29.9/FacialAge/BNav_EC2/DepthDuration/v2_depth_duration_MTurk/v2_DepthDuration_HTML.html#438,438,1440,789,1440,900,9-31-2022,11-5-20,131,depth_duration_stimuli/000749_2014-06-08_21-55-06_260595134347_rgbf000070-resize_2/000749_2014-06-08_21-55-06_260595134347_rgbf000070-resize_2-target.png,250,2.331,100.0,3282,250,meters,jsons/v1_VE250_randls_26_rotated.json,1228791,1652282,37,Woman
131,321135,DepthScenes,duration_manipulation_targetAtFixation,jsons/v1_VE250_randls_26_rotated.json,http://54.235.29.9/FacialAge/BNav_EC2/DepthDuration/v2_depth_duration_MTurk/v2_DepthDuration_HTML.html#438,438,1440,789,1440,900,9-31-2022,11-5-20,132,depth_duration_stimuli/002788_2014-06-22_19-36-03_094959634447_rgbf000088-resize_2/002788_2014-06-22_19-36-03_094959634447_rgbf000088-resize_2-target.png,250,1.6465,200.0,2770,249,meters,jsons/v1_VE250_randls_26_rotated.json,1228791,1652282,37,Woman
132,321135,DepthScenes,duration_manipulation_targetAtFixation,jsons/v1_VE250_randls_26_rotated.json,http://54.235.29.9/FacialAge/BNav_EC2/DepthDuration/v2_depth_duration_MTurk/v2_DepthDuration_HTML.html#438,438,1440,789,1440,900,9-31-2022,11-5-20,133,depth_duration_stimuli/000780_2014-06-08_22-28-29_260595134347_rgbf000126-resize_1/000780_2014-06-08_22-28-29_260595134347_rgbf000126-resize_1-target.png,250,3.3825,100.0,2745,250,meters,jsons/v1_VE250_randls_26_rotated.json,1228791,1652282,37,Woman
133,321135,DepthScenes,duration_manipulation_targetAtFixation,jsons/v1_VE250_randls_26_rotated.json,http://54.235.29.9/FacialAge/BNav_EC2/DepthDuration/v2_depth_duration_MTurk/v2_DepthDuration_HTML.html#438,438,1440,789,1440,900,9-31-2022,11-5-20,134,depth_duration_stimuli/002445_2014-06-28_20-32-16_260595134347_rgbf000029-resize_4/002445_2014-06-28_20-32-16_260595134347_rgbf000029-resize_4-target.png,250,2.5315,100.0,2649,249,meters,jsons/v1_VE250_randls_26_rotated.json,1228791,1652282,37,Woman
134,321135,DepthScenes,duration_manipulation_targetAtFixation,jsons/v1_VE250_randls_26_rotated.json,http://54.235.29.9/FacialAge/BNav_EC2/DepthDuration/v2_depth_duration_MTurk/v2_DepthDuration_HTML.html#438,438,1440,789,1440,900,9-31-2022,11-5-20,135,depth_duration_stimuli/000375_2014-06-08_11-17-29_260595134347_rgbf000133-resize_2/000375_2014-06-08_11-17-29_260595134347_rgbf000133-resize-original.jpg,250,4.718,0.0,2090,250,meters,jsons/v1_VE250_randls_26_rotated.json,1228791,1652282,37,Woman
135,321135,DepthScenes,duration_manipulation_targetAtFixation,jsons/v1_VE250_randls_26_rotated.json,http://54.235.29.9/FacialAge/BNav_EC2/DepthDuration/v2_depth_duration_MTurk/v2_DepthDuration_HTML.html#438,438,1440,789,1440,900,9-31-2022,11-5-20,136,depth_duration_stimuli/000556_2014-06-09_22-42-56_260595134347_rgbf000214-resize_1/000556_2014-06-09_22-42-56_260595134347_rgbf000214-resize_1-target.png,250,4.8415,200.0,2658,250,meters,jsons/v1_VE250_randls_26_rotated.json,1228791,1652282,37,Woman
136,321135,DepthScenes,duration_manipulation_targetAtFixation,jsons/v1_VE250_randls_26_rotated.json,http://54.235.29.9/FacialAge/BNav_EC2/DepthDuration/v2_depth_duration_MTurk/v2_DepthDuration_HTML.html#438,438,1440,789,1440,900,9-31-2022,11-5-20,137,depth_duration_stimuli/001158_2014-06-17_15-32-16_260595134347_rgbf000138-resize_2/001158_2014-06-17_15-32-16_260595134347_rgbf000138-resize_2-target.png,250,4.5315,100.0,3218,250,meters,jsons/v1_VE250_randls_26_rotated.json,1228791,1652282,37,Woman
137,321135,DepthScenes,duration_manipulation_targetAtFixation,jsons/v1_VE250_randls_26_rotated.json,http://54.235.29.9/FacialAge/BNav_EC2/DepthDuration/v2_depth_duration_MTurk/v2_DepthDuration_HTML.html#438,438,1440,789,1440,900,9-31-2022,11-5-20,138,depth_duration_stimuli/000665_2014-06-09_20-42-35_260595134347_rgbf000110-resize_1/000665_2014-06-09_20-42-35_260595134347_rgbf000110-resize_1-target.png,250,3.057,200.0,2842,250,meters,jsons/v1_VE250_randls_26_rotated.json,1228791,1652282,37,Woman
138,321135,DepthScenes,duration_manipulation_targetAtFixation,jsons/v1_VE250_randls_26_rotated.json,http://54.235.29.9/FacialAge/BNav_EC2/DepthDuration/v2_depth_duration_MTurk/v2_DepthDuration_HTML.html#438,438,1440,789,1440,900,9-31-2022,11-5-20,139,depth_duration_stimuli/001150_2014-06-17_15-27-34_260595134347_rgbf000108-resize_2/001150_2014-06-17_15-27-34_260595134347_rgbf000108-resize_2-target.png,250,4.0325,200.0,2629,250,meters,jsons/v1_VE250_randls_26_rotated.json,1228791,1652282,37,Woman
139,321135,DepthScenes,duration_manipulation_targetAtFixation,jsons/v1_VE250_randls_26_rotated.json,http://54.235.29.9/FacialAge/BNav_EC2/DepthDuration/v2_depth_duration_MTurk/v2_DepthDuration_HTML.html#438,438,1440,789,1440,900,9-31-2022,11-5-20,140,depth_duration_stimuli/001100_2014-06-15_17-46-26_260595134347_rgbf000225-resize_2/001100_2014-06-15_17-46-26_260595134347_rgbf000225-resize_2-target.png,250,2.24,200.0,2999,250,meters,jsons/v1_VE250_randls_26_rotated.json,1228791,1652282,37,Woman
140,321135,DepthScenes,duration_manipulation_targetAtFixation,jsons/v1_VE250_randls_26_rotated.json,http://54.235.29.9/FacialAge/BNav_EC2/DepthDuration/v2_depth_duration_MTurk/v2_DepthDuration_HTML.html#438,438,1440,789,1440,900,9-31-2022,11-5-20,141,depth_duration_stimuli/002784_2014-06-22_19-26-30_094959634447_rgbf000083-resize_3/002784_2014-06-22_19-26-30_094959634447_rgbf000083-resize_3-target.png,250,1.8046666666667,200.0,2962,250,meters,jsons/v1_VE250_randls_26_rotated.json,1228791,1652282,37,Woman
141,321135,DepthScenes,duration_manipulation_targetAtFixation,jsons/v1_VE250_randls_26_rotated.json,http://54.235.29.9/FacialAge/BNav_EC2/DepthDuration/v2_depth_duration_MTurk/v2_DepthDuration_HTML.html#438,438,1440,789,1440,900,9-31-2022,11-5-20,142,depth_duration_stimuli/002678_2014-06-13_16-15-32_094959634447_rgbf000151-resize_6/002678_2014-06-13_16-15-32_094959634447_rgbf000151-resize_6-target.png,250,2.1830000000000003,200.0,3082,249,meters,jsons/v1_VE250_randls_26_rotated.json,1228791,1652282,37,Woman
142,321135,DepthScenes,duration_manipulation_targetAtFixation,jsons/v1_VE250_randls_26_rotated.json,http://54.235.29.9/FacialAge/BNav_EC2/DepthDuration/v2_depth_duration_MTurk/v2_DepthDuration_HTML.html#438,438,1440,789,1440,900,9-31-2022,11-5-20,143,depth_duration_stimuli/000368_2014-06-09_15-53-01_260595134347_rgbf000155-resize_2/000368_2014-06-09_15-53-01_260595134347_rgbf000155-resize_2-target.png,250,2.4859999999999998,200.0,3091,250,meters,jsons/v1_VE250_randls_26_rotated.json,1228791,1652282,37,Woman
143,321135,DepthScenes,duration_manipulation_targetAtFixation,jsons/v1_VE250_randls_26_rotated.json,http://54.235.29.9/FacialAge/BNav_EC2/DepthDuration/v2_depth_duration_MTurk/v2_DepthDuration_HTML.html#438,438,1440,789,1440,900,9-31-2022,11-5-20,144,depth_duration_stimuli/002758_2014-06-22_19-11-20_094959634447_rgbf000128-resize_1/002758_2014-06-22_19-11-20_094959634447_rgbf000128-resize_1-target.png,250,2.555,100.0,2706,250,meters,jsons/v1_VE250_randls_26_rotated.json,1228791,1652282,37,Woman
144,321135,DepthScenes,duration_manipulation_targetAtFixation,jsons/v1_VE250_randls_26_rotated.json,http://54.235.29.9/FacialAge/BNav_EC2/DepthDuration/v2_depth_duration_MTurk/v2_DepthDuration_HTML.html#438,438,1440,789,1440,900,9-31-2022,11-5-20,145,depth_duration_stimuli/002630_2014-06-24_14-47-50_094959634447_rgbf000055-resize_1/002630_2014-06-24_14-47-50_094959634447_rgbf000055-resize_1-target.png,250,3.0095,200.0,2497,250,meters,jsons/v1_VE250_randls_26_rotated.json,1228791,1652282,37,Woman
145,321135,DepthScenes,duration_manipulation_targetAtFixation,jsons/v1_VE250_randls_26_rotated.json,http://54.235.29.9/FacialAge/BNav_EC2/DepthDuration/v2_depth_duration_MTurk/v2_DepthDuration_HTML.html#438,438,1440,789,1440,900,9-31-2022,11-5-20,146,depth_duration_stimuli/000457_2014-06-08_16-52-43_260595134347_rgbf000199-resize_1/000457_2014-06-08_16-52-43_260595134347_rgbf000199-resize_1-target.png,250,3.6489999999999996,200.0,4227,251,meters,jsons/v1_VE250_randls_26_rotated.json,1228791,1652282,37,Woman
146,321135,DepthScenes,duration_manipulation_targetAtFixation,jsons/v1_VE250_randls_26_rotated.json,http://54.235.29.9/FacialAge/BNav_EC2/DepthDuration/v2_depth_duration_MTurk/v2_DepthDuration_HTML.html#438,438,1440,789,1440,900,9-31-2022,11-5-20,147,depth_duration_stimuli/000929_2014-06-09_16-33-19_260595134347_rgbf000139-resize_0/000929_2014-06-09_16-33-19_260595134347_rgbf000139-resize_0-target.png,250,2.8680000000000003,200.0,2578,249,meters,jsons/v1_VE250_randls_26_rotated.json,1228791,1652282,37,Woman
147,321135,DepthScenes,duration_manipulation_targetAtFixation,jsons/v1_VE250_randls_26_rotated.json,http://54.235.29.9/FacialAge/BNav_EC2/DepthDuration/v2_depth_duration_MTurk/v2_DepthDuration_HTML.html#438,438,1440,789,1440,900,9-31-2022,11-5-20,148,depth_duration_stimuli/002953_2014-06-08_17-32-18_094959634447_rgbf000059-resize_5/002953_2014-06-08_17-32-18_094959634447_rgbf000059-resize_5-target.png,250,1.551,200.0,5673,250,meters,jsons/v1_VE250_randls_26_rotated.json,1228791,1652282,37,Woman
148,321135,DepthScenes,duration_manipulation_targetAtFixation,jsons/v1_VE250_randls_26_rotated.json,http://54.235.29.9/FacialAge/BNav_EC2/DepthDuration/v2_depth_duration_MTurk/v2_DepthDuration_HTML.html#438,438,1440,789,1440,900,9-31-2022,11-5-20,149,depth_duration_stimuli/000878_2014-06-08_22-52-45_260595134347_rgbf000045-resize_2/000878_2014-06-08_22-52-45_260595134347_rgbf000045-resize_2-target.png,250,2.092,200.0,5842,1244,meters,jsons/v1_VE250_randls_26_rotated.json,1228791,1652282,37,Woman
149,321135,DepthScenes,duration_manipulation_targetAtFixation,jsons/v1_VE250_randls_26_rotated.json,http://54.235.29.9/FacialAge/BNav_EC2/DepthDuration/v2_depth_duration_MTurk/v2_DepthDuration_HTML.html#438,438,1440,789,1440,900,9-31-2022,11-5-20,150,depth_duration_stimuli/000191_2014-05-12_17-07-38_260595134347_rgbf000199-resize_0/000191_2014-05-12_17-07-38_260595134347_rgbf000199-resize_0-target.png,250,3.7995,200.0,2538,249,meters,jsons/v1_VE250_randls_26_rotated.json,1228791,1652282,37,Woman
150,321135,DepthScenes,duration_manipulation_targetAtFixation,jsons/v1_VE250_randls_26_rotated.json,http://54.235.29.9/FacialAge/BNav_EC2/DepthDuration/v2_depth_duration_MTurk/v2_DepthDuration_HTML.html#438,438,1440,789,1440,900,9-31-2022,11-5-20,151,depth_duration_stimuli/000493_2014-06-09_21-01-18_260595134347_rgbf000196-resize_3/000493_2014-06-09_21-01-18_260595134347_rgbf000196-resize_3-target.png,250,3.44,100.0,2395,249,meters,jsons/v1_VE250_randls_26_rotated.json,1228791,1652282,37,Woman
151,321135,DepthScenes,duration_manipulation_targetAtFixation,jsons/v1_VE250_randls_26_rotated.json,http://54.235.29.9/FacialAge/BNav_EC2/DepthDuration/v2_depth_duration_MTurk/v2_DepthDuration_HTML.html#438,438,1440,789,1440,900,9-31-2022,11-5-20,152,depth_duration_stimuli/000569_2014-06-09_22-51-47_260595134347_rgbf000141-resize_3/000569_2014-06-09_22-51-47_260595134347_rgbf000141-resize-original.jpg,250,4.512,100.0,2449,249,meters,jsons/v1_VE250_randls_26_rotated.json,1228791,1652282,37,Woman
152,321135,DepthScenes,duration_manipulation_targetAtFixation,jsons/v1_VE250_randls_26_rotated.json,http://54.235.29.9/FacialAge/BNav_EC2/DepthDuration/v2_depth_duration_MTurk/v2_DepthDuration_HTML.html#438,438,1440,789,1440,900,9-31-2022,11-5-20,153,depth_duration_stimuli/002444_2014-06-28_20-32-08_260595134347_rgbf000027-resize_0/002444_2014-06-28_20-32-08_260595134347_rgbf000027-resize_0-target.png,250,4.388999999999999,1000.0,2721,250,meters,jsons/v1_VE250_randls_26_rotated.json,1228791,1652282,37,Woman
153,321135,DepthScenes,duration_manipulation_targetAtFixation,jsons/v1_VE250_randls_26_rotated.json,http://54.235.29.9/FacialAge/BNav_EC2/DepthDuration/v2_depth_duration_MTurk/v2_DepthDuration_HTML.html#438,438,1440,789,1440,900,9-31-2022,11-5-20,154,depth_duration_stimuli/000436_2014-06-09_22-25-11_260595134347_rgbf000137-resize_1/000436_2014-06-09_22-25-11_260595134347_rgbf000137-resize_1-target.png,250,4.0705,100.0,3626,250,meters,jsons/v1_VE250_randls_26_rotated.json,1228791,1652282,37,Woman
154,321135,DepthScenes,duration_manipulation_targetAtFixation,jsons/v1_VE250_randls_26_rotated.json,http://54.235.29.9/FacialAge/BNav_EC2/DepthDuration/v2_depth_duration_MTurk/v2_DepthDuration_HTML.html#438,438,1440,789,1440,900,9-31-2022,11-5-20,155,depth_duration_stimuli/000927_2014-06-09_16-32-30_260595134347_rgbf000123-resize_3/000927_2014-06-09_16-32-30_260595134347_rgbf000123-resize_3-target.png,250,2.6785,100.0,2993,250,meters,jsons/v1_VE250_randls_26_rotated.json,1228791,1652282,37,Woman
155,321135,DepthScenes,duration_manipulation_targetAtFixation,jsons/v1_VE250_randls_26_rotated.json,http://54.235.29.9/FacialAge/BNav_EC2/DepthDuration/v2_depth_duration_MTurk/v2_DepthDuration_HTML.html#438,438,1440,789,1440,900,9-31-2022,11-5-20,156,depth_duration_stimuli/001110_2014-06-15_17-25-28_260595134347_rgbf000150-resize_1/001110_2014-06-15_17-25-28_260595134347_rgbf000150-resize_1-target.png,250,1.7115,100.0,2619,250,meters,jsons/v1_VE250_randls_26_rotated.json,1228791,1652282,37,Woman
156,321135,DepthScenes,duration_manipulation_targetAtFixation,jsons/v1_VE250_randls_26_rotated.json,http://54.235.29.9/FacialAge/BNav_EC2/DepthDuration/v2_depth_duration_MTurk/v2_DepthDuration_HTML.html#438,438,1440,789,1440,900,9-31-2022,11-5-20,157,depth_duration_stimuli/003048_2014-06-15_13-49-43_094959634447_rgbf000150-resize_1/003048_2014-06-15_13-49-43_094959634447_rgbf000150-resize_1-target.png,250,4.0035,100.0,2761,250,meters,jsons/v1_VE250_randls_26_rotated.json,1228791,1652282,37,Woman
157,321135,DepthScenes,duration_manipulation_targetAtFixation,jsons/v1_VE250_randls_26_rotated.json,http://54.235.29.9/FacialAge/BNav_EC2/DepthDuration/v2_depth_duration_MTurk/v2_DepthDuration_HTML.html#438,438,1440,789,1440,900,9-31-2022,11-5-20,158,depth_duration_stimuli/002043_2014-06-24_20-29-38_260595134347_rgbf000039-resize_4/002043_2014-06-24_20-29-38_260595134347_rgbf000039-resize_4-target.png,250,2.8435,100.0,2707,250,meters,jsons/v1_VE250_randls_26_rotated.json,1228791,1652282,37,Woman
158,321135,DepthScenes,duration_manipulation_targetAtFixation,jsons/v1_VE250_randls_26_rotated.json,http://54.235.29.9/FacialAge/BNav_EC2/DepthDuration/v2_depth_duration_MTurk/v2_DepthDuration_HTML.html#438,438,1440,789,1440,900,9-31-2022,11-5-20,159,depth_duration_stimuli/000866_2014-06-09_20-45-42_260595134347_rgbf000139-resize_1/000866_2014-06-09_20-45-42_260595134347_rgbf000139-resize_1-target.png,250,3.2155,100.0,3289,249,meters,jsons/v1_VE250_randls_26_rotated.json,1228791,1652282,37,Woman
159,321135,DepthScenes,duration_manipulation_targetAtFixation,jsons/v1_VE250_randls_26_rotated.json,http://54.235.29.9/FacialAge/BNav_EC2/DepthDuration/v2_depth_duration_MTurk/v2_DepthDuration_HTML.html#438,438,1440,789,1440,900,9-31-2022,11-5-20,160,depth_duration_stimuli/002989_2014-06-15_12-25-03_094959634447_rgbf000150-resize_3/002989_2014-06-15_12-25-03_094959634447_rgbf000150-resize_3-target.png,250,4.1975,200.0,2949,249,meters,jsons/v1_VE250_randls_26_rotated.json,1228791,1652282,37,Woman
160,321135,DepthScenes,duration_manipulation_targetAtFixation,jsons/v1_VE250_randls_26_rotated.json,http://54.235.29.9/FacialAge/BNav_EC2/DepthDuration/v2_depth_duration_MTurk/v2_DepthDuration_HTML.html#438,438,1440,789,1440,900,9-31-2022,11-5-20,161,depth_duration_stimuli/000691_2014-06-08_13-08-50_260595134347_rgbf000132-resize_3/000691_2014-06-08_13-08-50_260595134347_rgbf000132-resize_3-target.png,250,4.1530000000000005,100.0,2936,249,meters,jsons/v1_VE250_randls_26_rotated.json,1228791,1652282,37,Woman
161,321135,DepthScenes,duration_manipulation_targetAtFixation,jsons/v1_VE250_randls_26_rotated.json,http://54.235.29.9/FacialAge/BNav_EC2/DepthDuration/v2_depth_duration_MTurk/v2_DepthDuration_HTML.html#438,438,1440,789,1440,900,9-31-2022,11-5-20,162,depth_duration_stimuli/002213_2014-06-28_18-37-58_260595134347_rgbf000055-resize_1/002213_2014-06-28_18-37-58_260595134347_rgbf000055-resize_1-target.png,250,3.62,200.0,2754,250,meters,jsons/v1_VE250_randls_26_rotated.json,1228791,1652282,37,Woman
162,321135,DepthScenes,duration_manipulation_targetAtFixation,jsons/v1_VE250_randls_26_rotated.json,http://54.235.29.9/FacialAge/BNav_EC2/DepthDuration/v2_depth_duration_MTurk/v2_DepthDuration_HTML.html#438,438,1440,789,1440,900,9-31-2022,11-5-20,163,depth_duration_stimuli/001214_2014-06-17_16-13-55_260595134347_rgbf000111-resize_0/001214_2014-06-17_16-13-55_260595134347_rgbf000111-resize_0-target.png,250,2.6505,100.0,3130,250,meters,jsons/v1_VE250_randls_26_rotated.json,1228791,1652282,37,Woman
163,321135,DepthScenes,duration_manipulation_targetAtFixation,jsons/v1_VE250_randls_26_rotated.json,http://54.235.29.9/FacialAge/BNav_EC2/DepthDuration/v2_depth_duration_MTurk/v2_DepthDuration_HTML.html#438,438,1440,789,1440,900,9-31-2022,11-5-20,164,depth_duration_stimuli/000810_2014-06-08_17-20-01_260595134347_rgbf000105-resize_0/000810_2014-06-08_17-20-01_260595134347_rgbf000105-resize_0-target.png,250,1.4865,200.0,3930,249,meters,jsons/v1_VE250_randls_26_rotated.json,1228791,1652282,37,Woman
