,subjID,experimentName,versionName,sequenceName,url,selected_row,windowWidth,windowHeight,screenWidth,screenHeight,startDate,startTime,trial,stimulus,duration,actual_depth,depth_estimate,trial_RT,log_sceneDuration,unitSelection,seq_filepath,experimentTime,totalTime,age,gender
0,321987,DepthScenes,duration_manipulation_targetAtFixation,jsons/v1_VE1000_randls_73.json,http://54.235.29.9/FacialAge/BNav_EC2/DepthDuration/v2_depth_duration_MTurk/v2_DepthDuration_HTML.html#348,348,1670,939,1669,939,8-29-2022,9-43-9,1,depth_duration_stimuli/001011_2014-06-08_23-18-54_260595134347_rgbf000044-resize_4/001011_2014-06-08_23-18-54_260595134347_rgbf000044-resize_4-target.png,1000,2.4730000000000003,7,4594,999,feet,jsons/v1_VE1000_randls_73.json,1617646,2390150,49,Woman
1,321987,DepthScenes,duration_manipulation_targetAtFixation,jsons/v1_VE1000_randls_73.json,http://54.235.29.9/FacialAge/BNav_EC2/DepthDuration/v2_depth_duration_MTurk/v2_DepthDuration_HTML.html#348,348,1670,939,1669,939,8-29-2022,9-43-9,2,depth_duration_stimuli/002875_2014-06-01_15-19-00_094959634447_rgbf000151-resize_1/002875_2014-06-01_15-19-00_094959634447_rgbf000151-resize_1-target.png,1000,1.9675,5,4883,999,feet,jsons/v1_VE1000_randls_73.json,1617646,2390150,49,Woman
2,321987,DepthScenes,duration_manipulation_targetAtFixation,jsons/v1_VE1000_randls_73.json,http://54.235.29.9/FacialAge/BNav_EC2/DepthDuration/v2_depth_duration_MTurk/v2_DepthDuration_HTML.html#348,348,1670,939,1669,939,8-29-2022,9-43-9,3,depth_duration_stimuli/000810_2014-06-08_17-20-01_260595134347_rgbf000105-resize_0/000810_2014-06-08_17-20-01_260595134347_rgbf000105-resize_0-target.png,1000,1.4865,4,4284,998,feet,jsons/v1_VE1000_randls_73.json,1617646,2390150,49,Woman
3,321987,DepthScenes,duration_manipulation_targetAtFixation,jsons/v1_VE1000_randls_73.json,http://54.235.29.9/FacialAge/BNav_EC2/DepthDuration/v2_depth_duration_MTurk/v2_DepthDuration_HTML.html#348,348,1670,939,1669,939,8-29-2022,9-43-9,4,depth_duration_stimuli/001214_2014-06-17_16-13-55_260595134347_rgbf000111-resize_0/001214_2014-06-17_16-13-55_260595134347_rgbf000111-resize_0-target.png,1000,2.6505,7,4772,1000,feet,jsons/v1_VE1000_randls_73.json,1617646,2390150,49,Woman
4,321987,DepthScenes,duration_manipulation_targetAtFixation,jsons/v1_VE1000_randls_73.json,http://54.235.29.9/FacialAge/BNav_EC2/DepthDuration/v2_depth_duration_MTurk/v2_DepthDuration_HTML.html#348,348,1670,939,1669,939,8-29-2022,9-43-9,5,depth_duration_stimuli/003292_2014-05-14_21-53-49_094959634447_rgbf000100-resize_2/003292_2014-05-14_21-53-49_094959634447_rgbf000100-resize_2-target.png,1000,3.4815,9,5036,999,feet,jsons/v1_VE1000_randls_73.json,1617646,2390150,49,Woman
5,321987,DepthScenes,duration_manipulation_targetAtFixation,jsons/v1_VE1000_randls_73.json,http://54.235.29.9/FacialAge/BNav_EC2/DepthDuration/v2_depth_duration_MTurk/v2_DepthDuration_HTML.html#348,348,1670,939,1669,939,8-29-2022,9-43-9,6,depth_duration_stimuli/002639_2014-06-24_14-51-37_094959634447_rgbf000074-resize_4/002639_2014-06-24_14-51-37_094959634447_rgbf000074-resize_4-target.png,1000,4.0375,10,8285,1000,feet,jsons/v1_VE1000_randls_73.json,1617646,2390150,49,Woman
6,321987,DepthScenes,duration_manipulation_targetAtFixation,jsons/v1_VE1000_randls_73.json,http://54.235.29.9/FacialAge/BNav_EC2/DepthDuration/v2_depth_duration_MTurk/v2_DepthDuration_HTML.html#348,348,1670,939,1669,939,8-29-2022,9-43-9,7,depth_duration_stimuli/001066_2014-06-08_22-03-20_260595134347_rgbf000066-resize_4/001066_2014-06-08_22-03-20_260595134347_rgbf000066-resize_4-target.png,1000,4.2330000000000005,14,5965,999,feet,jsons/v1_VE1000_randls_73.json,1617646,2390150,49,Woman
7,321987,DepthScenes,duration_manipulation_targetAtFixation,jsons/v1_VE1000_randls_73.json,http://54.235.29.9/FacialAge/BNav_EC2/DepthDuration/v2_depth_duration_MTurk/v2_DepthDuration_HTML.html#348,348,1670,939,1669,939,8-29-2022,9-43-9,8,depth_duration_stimuli/000742_2014-06-08_18-48-09_260595134347_rgbf000164-resize_4/000742_2014-06-08_18-48-09_260595134347_rgbf000164-resize_4-target.png,1000,4.632,19,6437,999,feet,jsons/v1_VE1000_randls_73.json,1617646,2390150,49,Woman
8,321987,DepthScenes,duration_manipulation_targetAtFixation,jsons/v1_VE1000_randls_73.json,http://54.235.29.9/FacialAge/BNav_EC2/DepthDuration/v2_depth_duration_MTurk/v2_DepthDuration_HTML.html#348,348,1670,939,1669,939,8-29-2022,9-43-9,9,depth_duration_stimuli/001555_2014-06-20_17-12-10_260595134347_rgbf000065-resize_4/001555_2014-06-20_17-12-10_260595134347_rgbf000065-resize_4-target.png,1000,1.633,5,21818,998,feet,jsons/v1_VE1000_randls_73.json,1617646,2390150,49,Woman
9,321987,DepthScenes,duration_manipulation_targetAtFixation,jsons/v1_VE1000_randls_73.json,http://54.235.29.9/FacialAge/BNav_EC2/DepthDuration/v2_depth_duration_MTurk/v2_DepthDuration_HTML.html#348,348,1670,939,1669,939,8-29-2022,9-43-9,10,depth_duration_stimuli/000103_2014-05-14_22-01-17_260595134347_rgbf000152-resize_5/000103_2014-05-14_22-01-17_260595134347_rgbf000152-resize_5-target.png,1000,1.993,7,4966,999,feet,jsons/v1_VE1000_randls_73.json,1617646,2390150,49,Woman
10,321987,DepthScenes,duration_manipulation_targetAtFixation,jsons/v1_VE1000_randls_73.json,http://54.235.29.9/FacialAge/BNav_EC2/DepthDuration/v2_depth_duration_MTurk/v2_DepthDuration_HTML.html#348,348,1670,939,1669,939,8-29-2022,9-43-9,11,depth_duration_stimuli/000682_2014-06-08_23-14-58_260595134347_rgbf000041-resize_5/000682_2014-06-08_23-14-58_260595134347_rgbf000041-resize_5-target.png,1000,2.7239999999999998,8,5822,998,feet,jsons/v1_VE1000_randls_73.json,1617646,2390150,49,Woman
11,321987,DepthScenes,duration_manipulation_targetAtFixation,jsons/v1_VE1000_randls_73.json,http://54.235.29.9/FacialAge/BNav_EC2/DepthDuration/v2_depth_duration_MTurk/v2_DepthDuration_HTML.html#348,348,1670,939,1669,939,8-29-2022,9-43-9,12,depth_duration_stimuli/001650_2014-06-20_12-09-00_260595134347_rgbf000087-resize_3/001650_2014-06-20_12-09-00_260595134347_rgbf000087-resize_3-target.png,1000,1.9505,4,4077,999,feet,jsons/v1_VE1000_randls_73.json,1617646,2390150,49,Woman
12,321987,DepthScenes,duration_manipulation_targetAtFixation,jsons/v1_VE1000_randls_73.json,http://54.235.29.9/FacialAge/BNav_EC2/DepthDuration/v2_depth_duration_MTurk/v2_DepthDuration_HTML.html#348,348,1670,939,1669,939,8-29-2022,9-43-9,13,depth_duration_stimuli/000569_2014-06-09_22-51-47_260595134347_rgbf000141-resize_3/000569_2014-06-09_22-51-47_260595134347_rgbf000141-resize-original.jpg,1000,4.512,4,11743,999,feet,jsons/v1_VE1000_randls_73.json,1617646,2390150,49,Woman
13,321987,DepthScenes,duration_manipulation_targetAtFixation,jsons/v1_VE1000_randls_73.json,http://54.235.29.9/FacialAge/BNav_EC2/DepthDuration/v2_depth_duration_MTurk/v2_DepthDuration_HTML.html#348,348,1670,939,1669,939,8-29-2022,9-43-9,14,depth_duration_stimuli/000368_2014-06-09_15-53-01_260595134347_rgbf000155-resize_2/000368_2014-06-09_15-53-01_260595134347_rgbf000155-resize_2-target.png,1000,2.4859999999999998,6,9574,998,feet,jsons/v1_VE1000_randls_73.json,1617646,2390150,49,Woman
14,321987,DepthScenes,duration_manipulation_targetAtFixation,jsons/v1_VE1000_randls_73.json,http://54.235.29.9/FacialAge/BNav_EC2/DepthDuration/v2_depth_duration_MTurk/v2_DepthDuration_HTML.html#348,348,1670,939,1669,939,8-29-2022,9-43-9,15,depth_duration_stimuli/002678_2014-06-13_16-15-32_094959634447_rgbf000151-resize_6/002678_2014-06-13_16-15-32_094959634447_rgbf000151-resize_6-target.png,1000,2.1830000000000003,5,4467,999,feet,jsons/v1_VE1000_randls_73.json,1617646,2390150,49,Woman
15,321987,DepthScenes,duration_manipulation_targetAtFixation,jsons/v1_VE1000_randls_73.json,http://54.235.29.9/FacialAge/BNav_EC2/DepthDuration/v2_depth_duration_MTurk/v2_DepthDuration_HTML.html#348,348,1670,939,1669,939,8-29-2022,9-43-9,16,depth_duration_stimuli/000009_2014-05-26_14-32-05_260595134347_rgbf000034-resize_3/000009_2014-05-26_14-32-05_260595134347_rgbf000034-resize_3-target.png,1000,3.8715,12,5590,998,feet,jsons/v1_VE1000_randls_73.json,1617646,2390150,49,Woman
16,321987,DepthScenes,duration_manipulation_targetAtFixation,jsons/v1_VE1000_randls_73.json,http://54.235.29.9/FacialAge/BNav_EC2/DepthDuration/v2_depth_duration_MTurk/v2_DepthDuration_HTML.html#348,348,1670,939,1669,939,8-29-2022,9-43-9,17,depth_duration_stimuli/001828_2014-06-26_21-40-03_260595134347_rgbf000024-resize_0/001828_2014-06-26_21-40-03_260595134347_rgbf000024-resize_0-target.png,1000,4.8260000000000005,7,32007,999,feet,jsons/v1_VE1000_randls_73.json,1617646,2390150,49,Woman
17,321987,DepthScenes,duration_manipulation_targetAtFixation,jsons/v1_VE1000_randls_73.json,http://54.235.29.9/FacialAge/BNav_EC2/DepthDuration/v2_depth_duration_MTurk/v2_DepthDuration_HTML.html#348,348,1670,939,1669,939,8-29-2022,9-43-9,18,depth_duration_stimuli/002663_2014-06-13_15-50-26_094959634447_rgbf000075-resize_1/002663_2014-06-13_15-50-26_094959634447_rgbf000075-resize_1-target.png,1000,4.7495,7,21427,999,feet,jsons/v1_VE1000_randls_73.json,1617646,2390150,49,Woman
18,321987,DepthScenes,duration_manipulation_targetAtFixation,jsons/v1_VE1000_randls_73.json,http://54.235.29.9/FacialAge/BNav_EC2/DepthDuration/v2_depth_duration_MTurk/v2_DepthDuration_HTML.html#348,348,1670,939,1669,939,8-29-2022,9-43-9,19,depth_duration_stimuli/000409_2014-06-04_19-23-33_260595134347_rgbf000067-resize_0/000409_2014-06-04_19-23-33_260595134347_rgbf000067-resize_0-target.png,1000,3.7335,13,9092,999,feet,jsons/v1_VE1000_randls_73.json,1617646,2390150,49,Woman
19,321987,DepthScenes,duration_manipulation_targetAtFixation,jsons/v1_VE1000_randls_73.json,http://54.235.29.9/FacialAge/BNav_EC2/DepthDuration/v2_depth_duration_MTurk/v2_DepthDuration_HTML.html#348,348,1670,939,1669,939,8-29-2022,9-43-9,20,depth_duration_stimuli/000736_2014-06-08_18-24-15_260595134347_rgbf000206-resize_3/000736_2014-06-08_18-24-15_260595134347_rgbf000206-resize_3-target.png,1000,3.515,7,8087,999,feet,jsons/v1_VE1000_randls_73.json,1617646,2390150,49,Woman
20,321987,DepthScenes,duration_manipulation_targetAtFixation,jsons/v1_VE1000_randls_73.json,http://54.235.29.9/FacialAge/BNav_EC2/DepthDuration/v2_depth_duration_MTurk/v2_DepthDuration_HTML.html#348,348,1670,939,1669,939,8-29-2022,9-43-9,21,depth_duration_stimuli/000137_2014-05-20_17-04-49_260595134347_rgbf000120-resize_1/000137_2014-05-20_17-04-49_260595134347_rgbf000120-resize_1-target.png,1000,3.786,9,7756,1000,feet,jsons/v1_VE1000_randls_73.json,1617646,2390150,49,Woman
21,321987,DepthScenes,duration_manipulation_targetAtFixation,jsons/v1_VE1000_randls_73.json,http://54.235.29.9/FacialAge/BNav_EC2/DepthDuration/v2_depth_duration_MTurk/v2_DepthDuration_HTML.html#348,348,1670,939,1669,939,8-29-2022,9-43-9,22,depth_duration_stimuli/000447_2014-06-08_16-15-46_260595134347_rgbf000130-resize_1/000447_2014-06-08_16-15-46_260595134347_rgbf000130-resize_1-target.png,1000,4.479,12,10573,999,feet,jsons/v1_VE1000_randls_73.json,1617646,2390150,49,Woman
22,321987,DepthScenes,duration_manipulation_targetAtFixation,jsons/v1_VE1000_randls_73.json,http://54.235.29.9/FacialAge/BNav_EC2/DepthDuration/v2_depth_duration_MTurk/v2_DepthDuration_HTML.html#348,348,1670,939,1669,939,8-29-2022,9-43-9,23,depth_duration_stimuli/001447_2014-06-19_17-00-32_260595134347_rgbf000082-resize_5/001447_2014-06-19_17-00-32_260595134347_rgbf000082-resize_5-target.png,1000,4.13775,8,11984,999,feet,jsons/v1_VE1000_randls_73.json,1617646,2390150,49,Woman
23,321987,DepthScenes,duration_manipulation_targetAtFixation,jsons/v1_VE1000_randls_73.json,http://54.235.29.9/FacialAge/BNav_EC2/DepthDuration/v2_depth_duration_MTurk/v2_DepthDuration_HTML.html#348,348,1670,939,1669,939,8-29-2022,9-43-9,24,depth_duration_stimuli/002279_2014-06-28_18-55-32_260595134347_rgbf000040-resize_5/002279_2014-06-28_18-55-32_260595134347_rgbf000040-resize_5-target.png,1000,1.5043333333333,4,6048,999,feet,jsons/v1_VE1000_randls_73.json,1617646,2390150,49,Woman
24,321987,DepthScenes,duration_manipulation_targetAtFixation,jsons/v1_VE1000_randls_73.json,http://54.235.29.9/FacialAge/BNav_EC2/DepthDuration/v2_depth_duration_MTurk/v2_DepthDuration_HTML.html#348,348,1670,939,1669,939,8-29-2022,9-43-9,25,depth_duration_stimuli/000635_2014-06-08_16-38-42_260595134347_rgbf000106-resize_1/000635_2014-06-08_16-38-42_260595134347_rgbf000106-resize_1-target.png,1000,2.074,5,12629,999,feet,jsons/v1_VE1000_randls_73.json,1617646,2390150,49,Woman
25,321987,DepthScenes,duration_manipulation_targetAtFixation,jsons/v1_VE1000_randls_73.json,http://54.235.29.9/FacialAge/BNav_EC2/DepthDuration/v2_depth_duration_MTurk/v2_DepthDuration_HTML.html#348,348,1670,939,1669,939,8-29-2022,9-43-9,26,depth_duration_stimuli/000906_2014-06-08_13-35-43_260595134347_rgbf000155-resize_1/000906_2014-06-08_13-35-43_260595134347_rgbf000155-resize_1-target.png,1000,2.8489999999999998,10,11418,999,feet,jsons/v1_VE1000_randls_73.json,1617646,2390150,49,Woman
26,321987,DepthScenes,duration_manipulation_targetAtFixation,jsons/v1_VE1000_randls_73.json,http://54.235.29.9/FacialAge/BNav_EC2/DepthDuration/v2_depth_duration_MTurk/v2_DepthDuration_HTML.html#348,348,1670,939,1669,939,8-29-2022,9-43-9,27,depth_duration_stimuli/002805_2014-06-22_19-54-03_094959634447_rgbf000079-resize_1/002805_2014-06-22_19-54-03_094959634447_rgbf000079-resize_1-target.png,1000,3.1439999999999997,10,10753,999,feet,jsons/v1_VE1000_randls_73.json,1617646,2390150,49,Woman
27,321987,DepthScenes,duration_manipulation_targetAtFixation,jsons/v1_VE1000_randls_73.json,http://54.235.29.9/FacialAge/BNav_EC2/DepthDuration/v2_depth_duration_MTurk/v2_DepthDuration_HTML.html#348,348,1670,939,1669,939,8-29-2022,9-43-9,28,depth_duration_stimuli/000436_2014-06-09_22-25-11_260595134347_rgbf000137-resize_1/000436_2014-06-09_22-25-11_260595134347_rgbf000137-resize_1-target.png,1000,4.0705,12,7819,999,feet,jsons/v1_VE1000_randls_73.json,1617646,2390150,49,Woman
28,321987,DepthScenes,duration_manipulation_targetAtFixation,jsons/v1_VE1000_randls_73.json,http://54.235.29.9/FacialAge/BNav_EC2/DepthDuration/v2_depth_duration_MTurk/v2_DepthDuration_HTML.html#348,348,1670,939,1669,939,8-29-2022,9-43-9,29,depth_duration_stimuli/002444_2014-06-28_20-32-08_260595134347_rgbf000027-resize_0/002444_2014-06-28_20-32-08_260595134347_rgbf000027-resize_0-target.png,1000,4.388999999999999,11,9244,1000,feet,jsons/v1_VE1000_randls_73.json,1617646,2390150,49,Woman
29,321987,DepthScenes,duration_manipulation_targetAtFixation,jsons/v1_VE1000_randls_73.json,http://54.235.29.9/FacialAge/BNav_EC2/DepthDuration/v2_depth_duration_MTurk/v2_DepthDuration_HTML.html#348,348,1670,939,1669,939,8-29-2022,9-43-9,30,depth_duration_stimuli/000375_2014-06-08_11-17-29_260595134347_rgbf000133-resize_2/000375_2014-06-08_11-17-29_260595134347_rgbf000133-resize-original.jpg,1000,4.718,0,5537,999,feet,jsons/v1_VE1000_randls_73.json,1617646,2390150,49,Woman
30,321987,DepthScenes,duration_manipulation_targetAtFixation,jsons/v1_VE1000_randls_73.json,http://54.235.29.9/FacialAge/BNav_EC2/DepthDuration/v2_depth_duration_MTurk/v2_DepthDuration_HTML.html#348,348,1670,939,1669,939,8-29-2022,9-43-9,31,depth_duration_stimuli/000493_2014-06-09_21-01-18_260595134347_rgbf000196-resize_3/000493_2014-06-09_21-01-18_260595134347_rgbf000196-resize_3-target.png,1000,3.44,9,17186,1000,feet,jsons/v1_VE1000_randls_73.json,1617646,2390150,49,Woman
31,321987,DepthScenes,duration_manipulation_targetAtFixation,jsons/v1_VE1000_randls_73.json,http://54.235.29.9/FacialAge/BNav_EC2/DepthDuration/v2_depth_duration_MTurk/v2_DepthDuration_HTML.html#348,348,1670,939,1669,939,8-29-2022,9-43-9,32,depth_duration_stimuli/000191_2014-05-12_17-07-38_260595134347_rgbf000199-resize_0/000191_2014-05-12_17-07-38_260595134347_rgbf000199-resize_0-target.png,1000,3.7995,14,5108,998,feet,jsons/v1_VE1000_randls_73.json,1617646,2390150,49,Woman
32,321987,DepthScenes,duration_manipulation_targetAtFixation,jsons/v1_VE1000_randls_73.json,http://54.235.29.9/FacialAge/BNav_EC2/DepthDuration/v2_depth_duration_MTurk/v2_DepthDuration_HTML.html#348,348,1670,939,1669,939,8-29-2022,9-43-9,33,depth_duration_stimuli/000917_2014-06-09_22-45-29_260595134347_rgbf000149-resize_3/000917_2014-06-09_22-45-29_260595134347_rgbf000149-resize_3-target.png,1000,4.1865,9,7006,999,feet,jsons/v1_VE1000_randls_73.json,1617646,2390150,49,Woman
33,321987,DepthScenes,duration_manipulation_targetAtFixation,jsons/v1_VE1000_randls_73.json,http://54.235.29.9/FacialAge/BNav_EC2/DepthDuration/v2_depth_duration_MTurk/v2_DepthDuration_HTML.html#348,348,1670,939,1669,939,8-29-2022,9-43-9,34,depth_duration_stimuli/002323_2014-06-28_20-01-54_260595134347_rgbf000051-resize_4/002323_2014-06-28_20-01-54_260595134347_rgbf000051-resize_4-target.png,1000,3.7310000000000003,12,6652,999,feet,jsons/v1_VE1000_randls_73.json,1617646,2390150,49,Woman
34,321987,DepthScenes,duration_manipulation_targetAtFixation,jsons/v1_VE1000_randls_73.json,http://54.235.29.9/FacialAge/BNav_EC2/DepthDuration/v2_depth_duration_MTurk/v2_DepthDuration_HTML.html#348,348,1670,939,1669,939,8-29-2022,9-43-9,35,depth_duration_stimuli/000878_2014-06-08_22-52-45_260595134347_rgbf000045-resize_2/000878_2014-06-08_22-52-45_260595134347_rgbf000045-resize_2-target.png,1000,2.092,8,4816,999,feet,jsons/v1_VE1000_randls_73.json,1617646,2390150,49,Woman
35,321987,DepthScenes,duration_manipulation_targetAtFixation,jsons/v1_VE1000_randls_73.json,http://54.235.29.9/FacialAge/BNav_EC2/DepthDuration/v2_depth_duration_MTurk/v2_DepthDuration_HTML.html#348,348,1670,939,1669,939,8-29-2022,9-43-9,36,depth_duration_stimuli/002953_2014-06-08_17-32-18_094959634447_rgbf000059-resize_5/002953_2014-06-08_17-32-18_094959634447_rgbf000059-resize_5-target.png,1000,1.551,3,5678,999,feet,jsons/v1_VE1000_randls_73.json,1617646,2390150,49,Woman
36,321987,DepthScenes,duration_manipulation_targetAtFixation,jsons/v1_VE1000_randls_73.json,http://54.235.29.9/FacialAge/BNav_EC2/DepthDuration/v2_depth_duration_MTurk/v2_DepthDuration_HTML.html#348,348,1670,939,1669,939,8-29-2022,9-43-9,37,depth_duration_stimuli/000758_2014-06-08_22-05-08_260595134347_rgbf000085-resize_0/000758_2014-06-08_22-05-08_260595134347_rgbf000085-resize_0-target.png,1000,3.3810000000000002,10,6079,999,feet,jsons/v1_VE1000_randls_73.json,1617646,2390150,49,Woman
37,321987,DepthScenes,duration_manipulation_targetAtFixation,jsons/v1_VE1000_randls_73.json,http://54.235.29.9/FacialAge/BNav_EC2/DepthDuration/v2_depth_duration_MTurk/v2_DepthDuration_HTML.html#348,348,1670,939,1669,939,8-29-2022,9-43-9,38,depth_duration_stimuli/000854_2014-06-09_19-43-13_260595134347_rgbf000066-resize_0/000854_2014-06-09_19-43-13_260595134347_rgbf000066-resize_0-target.png,1000,3.068,5,8249,999,feet,jsons/v1_VE1000_randls_73.json,1617646,2390150,49,Woman
38,321987,DepthScenes,duration_manipulation_targetAtFixation,jsons/v1_VE1000_randls_73.json,http://54.235.29.9/FacialAge/BNav_EC2/DepthDuration/v2_depth_duration_MTurk/v2_DepthDuration_HTML.html#348,348,1670,939,1669,939,8-29-2022,9-43-9,39,depth_duration_stimuli/002153_2014-06-25_21-27-18_260595134347_rgbf000038-resize_5/002153_2014-06-25_21-27-18_260595134347_rgbf000038-resize_5-target.png,1000,2.505,7,5413,999,feet,jsons/v1_VE1000_randls_73.json,1617646,2390150,49,Woman
39,321987,DepthScenes,duration_manipulation_targetAtFixation,jsons/v1_VE1000_randls_73.json,http://54.235.29.9/FacialAge/BNav_EC2/DepthDuration/v2_depth_duration_MTurk/v2_DepthDuration_HTML.html#348,348,1670,939,1669,939,8-29-2022,9-43-9,40,depth_duration_stimuli/002660_2014-06-13_15-44-18_094959634447_rgbf001878-resize_2/002660_2014-06-13_15-44-18_094959634447_rgbf001878-resize_2-target.png,1000,3.576,0,27089,999,feet,jsons/v1_VE1000_randls_73.json,1617646,2390150,49,Woman
40,321987,DepthScenes,duration_manipulation_targetAtFixation,jsons/v1_VE1000_randls_73.json,http://54.235.29.9/FacialAge/BNav_EC2/DepthDuration/v2_depth_duration_MTurk/v2_DepthDuration_HTML.html#348,348,1670,939,1669,939,8-29-2022,9-43-9,41,depth_duration_stimuli/001055_2014-06-08_18-45-35_260595134347_rgbf000111-resize_4/001055_2014-06-08_18-45-35_260595134347_rgbf000111-resize_4-target.png,1000,2.4290000000000003,9,24336,999,feet,jsons/v1_VE1000_randls_73.json,1617646,2390150,49,Woman
41,321987,DepthScenes,duration_manipulation_targetAtFixation,jsons/v1_VE1000_randls_73.json,http://54.235.29.9/FacialAge/BNav_EC2/DepthDuration/v2_depth_duration_MTurk/v2_DepthDuration_HTML.html#348,348,1670,939,1669,939,8-29-2022,9-43-9,42,depth_duration_stimuli/000549_2014-06-08_22-10-24_260595134347_rgbf000247-resize_3/000549_2014-06-08_22-10-24_260595134347_rgbf000247-resize_3-target.png,1000,1.841,4,8801,1000,feet,jsons/v1_VE1000_randls_73.json,1617646,2390150,49,Woman
42,321987,DepthScenes,duration_manipulation_targetAtFixation,jsons/v1_VE1000_randls_73.json,http://54.235.29.9/FacialAge/BNav_EC2/DepthDuration/v2_depth_duration_MTurk/v2_DepthDuration_HTML.html#348,348,1670,939,1669,939,8-29-2022,9-43-9,43,depth_duration_stimuli/002725_2014-06-22_11-47-51_094959634447_rgbf000070-resize_1/002725_2014-06-22_11-47-51_094959634447_rgbf000070-resize_1-target.png,1000,2.195,6,16723,1001,feet,jsons/v1_VE1000_randls_73.json,1617646,2390150,49,Woman
43,321987,DepthScenes,duration_manipulation_targetAtFixation,jsons/v1_VE1000_randls_73.json,http://54.235.29.9/FacialAge/BNav_EC2/DepthDuration/v2_depth_duration_MTurk/v2_DepthDuration_HTML.html#348,348,1670,939,1669,939,8-29-2022,9-43-9,44,depth_duration_stimuli/002344_2014-06-28_20-06-29_260595134347_rgbf000030-resize_1/002344_2014-06-28_20-06-29_260595134347_rgbf000030-resize_1-target.png,1000,1.5795,3,26367,999,feet,jsons/v1_VE1000_randls_73.json,1617646,2390150,49,Woman
44,321987,DepthScenes,duration_manipulation_targetAtFixation,jsons/v1_VE1000_randls_73.json,http://54.235.29.9/FacialAge/BNav_EC2/DepthDuration/v2_depth_duration_MTurk/v2_DepthDuration_HTML.html#348,348,1670,939,1669,939,8-29-2022,9-43-9,45,depth_duration_stimuli/000787_2014-06-08_22-33-53_260595134347_rgbf000175-resize_1/000787_2014-06-08_22-33-53_260595134347_rgbf000175-resize-original.jpg,1000,4.784,0,5087,999,feet,jsons/v1_VE1000_randls_73.json,1617646,2390150,49,Woman
45,321987,DepthScenes,duration_manipulation_targetAtFixation,jsons/v1_VE1000_randls_73.json,http://54.235.29.9/FacialAge/BNav_EC2/DepthDuration/v2_depth_duration_MTurk/v2_DepthDuration_HTML.html#348,348,1670,939,1669,939,8-29-2022,9-43-9,46,depth_duration_stimuli/002784_2014-06-22_19-26-30_094959634447_rgbf000083-resize_3/002784_2014-06-22_19-26-30_094959634447_rgbf000083-resize_3-target.png,1000,1.8046666666667,8,6552,999,feet,jsons/v1_VE1000_randls_73.json,1617646,2390150,49,Woman
46,321987,DepthScenes,duration_manipulation_targetAtFixation,jsons/v1_VE1000_randls_73.json,http://54.235.29.9/FacialAge/BNav_EC2/DepthDuration/v2_depth_duration_MTurk/v2_DepthDuration_HTML.html#348,348,1670,939,1669,939,8-29-2022,9-43-9,47,depth_duration_stimuli/001100_2014-06-15_17-46-26_260595134347_rgbf000225-resize_2/001100_2014-06-15_17-46-26_260595134347_rgbf000225-resize_2-target.png,1000,2.24,5,12515,999,feet,jsons/v1_VE1000_randls_73.json,1617646,2390150,49,Woman
47,321987,DepthScenes,duration_manipulation_targetAtFixation,jsons/v1_VE1000_randls_73.json,http://54.235.29.9/FacialAge/BNav_EC2/DepthDuration/v2_depth_duration_MTurk/v2_DepthDuration_HTML.html#348,348,1670,939,1669,939,8-29-2022,9-43-9,48,depth_duration_stimuli/001016_2014-06-09_16-16-10_260595134347_rgbf000112-resize_5/001016_2014-06-09_16-16-10_260595134347_rgbf000112-resize_5-target.png,1000,1.6565,5,5122,999,feet,jsons/v1_VE1000_randls_73.json,1617646,2390150,49,Woman
48,321987,DepthScenes,duration_manipulation_targetAtFixation,jsons/v1_VE1000_randls_73.json,http://54.235.29.9/FacialAge/BNav_EC2/DepthDuration/v2_depth_duration_MTurk/v2_DepthDuration_HTML.html#348,348,1670,939,1669,939,8-29-2022,9-43-9,49,depth_duration_stimuli/002340_2014-06-28_20-05-46_260595134347_rgbf000113-resize_0/002340_2014-06-28_20-05-46_260595134347_rgbf000113-resize_0-target.png,1000,2.4735,6,12459,999,feet,jsons/v1_VE1000_randls_73.json,1617646,2390150,49,Woman
49,321987,DepthScenes,duration_manipulation_targetAtFixation,jsons/v1_VE1000_randls_73.json,http://54.235.29.9/FacialAge/BNav_EC2/DepthDuration/v2_depth_duration_MTurk/v2_DepthDuration_HTML.html#348,348,1670,939,1669,939,8-29-2022,9-43-9,50,depth_duration_stimuli/003621_2014-05-23_18-06-08_094959634447_rgbf000101-resize_1/003621_2014-05-23_18-06-08_094959634447_rgbf000101-resize_1-target.png,1000,3.9835,10,6078,999,feet,jsons/v1_VE1000_randls_73.json,1617646,2390150,49,Woman
50,321987,DepthScenes,duration_manipulation_targetAtFixation,jsons/v1_VE1000_randls_73.json,http://54.235.29.9/FacialAge/BNav_EC2/DepthDuration/v2_depth_duration_MTurk/v2_DepthDuration_HTML.html#348,348,1670,939,1669,939,8-29-2022,9-43-9,51,depth_duration_stimuli/001584_2014-06-20_11-07-43_260595134347_rgbf000002-resize_1/001584_2014-06-20_11-07-43_260595134347_rgbf000002-resize_1-target.png,1000,3.53,8,5093,999,feet,jsons/v1_VE1000_randls_73.json,1617646,2390150,49,Woman
51,321987,DepthScenes,duration_manipulation_targetAtFixation,jsons/v1_VE1000_randls_73.json,http://54.235.29.9/FacialAge/BNav_EC2/DepthDuration/v2_depth_duration_MTurk/v2_DepthDuration_HTML.html#348,348,1670,939,1669,939,8-29-2022,9-43-9,52,depth_duration_stimuli/002549_2014-06-24_13-41-39_094959634447_rgbf000022-resize_3/002549_2014-06-24_13-41-39_094959634447_rgbf000022-resize_3-target.png,1000,1.476,4,9507,999,feet,jsons/v1_VE1000_randls_73.json,1617646,2390150,49,Woman
52,321987,DepthScenes,duration_manipulation_targetAtFixation,jsons/v1_VE1000_randls_73.json,http://54.235.29.9/FacialAge/BNav_EC2/DepthDuration/v2_depth_duration_MTurk/v2_DepthDuration_HTML.html#348,348,1670,939,1669,939,8-29-2022,9-43-9,53,depth_duration_stimuli/002750_2014-06-22_19-08-03_094959634447_rgbf000094-resize_4/002750_2014-06-22_19-08-03_094959634447_rgbf000094-resize_4-target.png,1000,2.354,8,4862,999,feet,jsons/v1_VE1000_randls_73.json,1617646,2390150,49,Woman
53,321987,DepthScenes,duration_manipulation_targetAtFixation,jsons/v1_VE1000_randls_73.json,http://54.235.29.9/FacialAge/BNav_EC2/DepthDuration/v2_depth_duration_MTurk/v2_DepthDuration_HTML.html#348,348,1670,939,1669,939,8-29-2022,9-43-9,54,depth_duration_stimuli/002570_2014-06-24_13-59-54_094959634447_rgbf000059-resize_0/002570_2014-06-24_13-59-54_094959634447_rgbf000059-resize_0-target.png,1000,4.037,10,5535,999,feet,jsons/v1_VE1000_randls_73.json,1617646,2390150,49,Woman
54,321987,DepthScenes,duration_manipulation_targetAtFixation,jsons/v1_VE1000_randls_73.json,http://54.235.29.9/FacialAge/BNav_EC2/DepthDuration/v2_depth_duration_MTurk/v2_DepthDuration_HTML.html#348,348,1670,939,1669,939,8-29-2022,9-43-9,55,depth_duration_stimuli/002467_2014-06-28_20-38-07_260595134347_rgbf000026-resize_2/002467_2014-06-28_20-38-07_260595134347_rgbf000026-resize_2-target.png,1000,4.742,9,8242,999,feet,jsons/v1_VE1000_randls_73.json,1617646,2390150,49,Woman
55,321987,DepthScenes,duration_manipulation_targetAtFixation,jsons/v1_VE1000_randls_73.json,http://54.235.29.9/FacialAge/BNav_EC2/DepthDuration/v2_depth_duration_MTurk/v2_DepthDuration_HTML.html#348,348,1670,939,1669,939,8-29-2022,9-43-9,56,depth_duration_stimuli/001029_2014-06-08_13-17-57_260595134347_rgbf000065-resize_1/001029_2014-06-08_13-17-57_260595134347_rgbf000065-resize_1-target.png,1000,3.0835,8,9338,999,feet,jsons/v1_VE1000_randls_73.json,1617646,2390150,49,Woman
56,321987,DepthScenes,duration_manipulation_targetAtFixation,jsons/v1_VE1000_randls_73.json,http://54.235.29.9/FacialAge/BNav_EC2/DepthDuration/v2_depth_duration_MTurk/v2_DepthDuration_HTML.html#348,348,1670,939,1669,939,8-29-2022,9-43-9,57,depth_duration_stimuli/000677_2014-06-08_23-10-32_260595134347_rgbf000158-resize_6/000677_2014-06-08_23-10-32_260595134347_rgbf000158-resize_6-target.png,1000,3.556,7,6778,999,feet,jsons/v1_VE1000_randls_73.json,1617646,2390150,49,Woman
57,321987,DepthScenes,duration_manipulation_targetAtFixation,jsons/v1_VE1000_randls_73.json,http://54.235.29.9/FacialAge/BNav_EC2/DepthDuration/v2_depth_duration_MTurk/v2_DepthDuration_HTML.html#348,348,1670,939,1669,939,8-29-2022,9-43-9,58,depth_duration_stimuli/001808_2014-06-26_20-50-58_260595134347_rgbf000029-resize_1/001808_2014-06-26_20-50-58_260595134347_rgbf000029-resize_1-target.png,1000,4.249,12,7230,999,feet,jsons/v1_VE1000_randls_73.json,1617646,2390150,49,Woman
58,321987,DepthScenes,duration_manipulation_targetAtFixation,jsons/v1_VE1000_randls_73.json,http://54.235.29.9/FacialAge/BNav_EC2/DepthDuration/v2_depth_duration_MTurk/v2_DepthDuration_HTML.html#348,348,1670,939,1669,939,8-29-2022,9-43-9,59,depth_duration_stimuli/001815_2014-06-26_20-52-55_260595134347_rgbf000020-resize_0/001815_2014-06-26_20-52-55_260595134347_rgbf000020-resize_0-target.png,1000,3.3865,13,5326,998,feet,jsons/v1_VE1000_randls_73.json,1617646,2390150,49,Woman
59,321987,DepthScenes,duration_manipulation_targetAtFixation,jsons/v1_VE1000_randls_73.json,http://54.235.29.9/FacialAge/BNav_EC2/DepthDuration/v2_depth_duration_MTurk/v2_DepthDuration_HTML.html#348,348,1670,939,1669,939,8-29-2022,9-43-9,60,depth_duration_stimuli/001806_2014-06-26_20-50-20_260595134347_rgbf000091-resize_1/001806_2014-06-26_20-50-20_260595134347_rgbf000091-resize_1-target.png,1000,2.7305,7,7305,1000,feet,jsons/v1_VE1000_randls_73.json,1617646,2390150,49,Woman
60,321987,DepthScenes,duration_manipulation_targetAtFixation,jsons/v1_VE1000_randls_73.json,http://54.235.29.9/FacialAge/BNav_EC2/DepthDuration/v2_depth_duration_MTurk/v2_DepthDuration_HTML.html#348,348,1670,939,1669,939,8-29-2022,9-43-9,61,depth_duration_stimuli/001617_2014-06-20_11-35-32_260595134347_rgbf000066-resize_1/001617_2014-06-20_11-35-32_260595134347_rgbf000066-resize_1-target.png,1000,3.7910000000000004,9,18565,999,feet,jsons/v1_VE1000_randls_73.json,1617646,2390150,49,Woman
61,321987,DepthScenes,duration_manipulation_targetAtFixation,jsons/v1_VE1000_randls_73.json,http://54.235.29.9/FacialAge/BNav_EC2/DepthDuration/v2_depth_duration_MTurk/v2_DepthDuration_HTML.html#348,348,1670,939,1669,939,8-29-2022,9-43-9,62,depth_duration_stimuli/001158_2014-06-17_15-32-16_260595134347_rgbf000138-resize_2/001158_2014-06-17_15-32-16_260595134347_rgbf000138-resize_2-target.png,1000,4.5315,12,6375,999,feet,jsons/v1_VE1000_randls_73.json,1617646,2390150,49,Woman
62,321987,DepthScenes,duration_manipulation_targetAtFixation,jsons/v1_VE1000_randls_73.json,http://54.235.29.9/FacialAge/BNav_EC2/DepthDuration/v2_depth_duration_MTurk/v2_DepthDuration_HTML.html#348,348,1670,939,1669,939,8-29-2022,9-43-9,63,depth_duration_stimuli/000556_2014-06-09_22-42-56_260595134347_rgbf000214-resize_1/000556_2014-06-09_22-42-56_260595134347_rgbf000214-resize_1-target.png,1000,4.8415,11,4867,999,feet,jsons/v1_VE1000_randls_73.json,1617646,2390150,49,Woman
63,321987,DepthScenes,duration_manipulation_targetAtFixation,jsons/v1_VE1000_randls_73.json,http://54.235.29.9/FacialAge/BNav_EC2/DepthDuration/v2_depth_duration_MTurk/v2_DepthDuration_HTML.html#348,348,1670,939,1669,939,8-29-2022,9-43-9,64,depth_duration_stimuli/002039_2014-06-24_20-22-38_260595134347_rgbf000084-resize_1/002039_2014-06-24_20-22-38_260595134347_rgbf000084-resize_1-target.png,1000,4.408,15,7541,999,feet,jsons/v1_VE1000_randls_73.json,1617646,2390150,49,Woman
64,321987,DepthScenes,duration_manipulation_targetAtFixation,jsons/v1_VE1000_randls_73.json,http://54.235.29.9/FacialAge/BNav_EC2/DepthDuration/v2_depth_duration_MTurk/v2_DepthDuration_HTML.html#348,348,1670,939,1669,939,8-29-2022,9-43-9,65,depth_duration_stimuli/002103_2014-06-25_20-00-40_260595134347_rgbf000049-resize_0/002103_2014-06-25_20-00-40_260595134347_rgbf000049-resize_0-target.png,1000,4.105,9,8432,999,feet,jsons/v1_VE1000_randls_73.json,1617646,2390150,49,Woman
65,321987,DepthScenes,duration_manipulation_targetAtFixation,jsons/v1_VE1000_randls_73.json,http://54.235.29.9/FacialAge/BNav_EC2/DepthDuration/v2_depth_duration_MTurk/v2_DepthDuration_HTML.html#348,348,1670,939,1669,939,8-29-2022,9-43-9,66,depth_duration_stimuli/001222_2014-06-17_16-24-06_260595134347_rgbf000073-resize_0/001222_2014-06-17_16-24-06_260595134347_rgbf000073-resize-original.jpg,1000,1.4385,0,6459,999,feet,jsons/v1_VE1000_randls_73.json,1617646,2390150,49,Woman
66,321987,DepthScenes,duration_manipulation_targetAtFixation,jsons/v1_VE1000_randls_73.json,http://54.235.29.9/FacialAge/BNav_EC2/DepthDuration/v2_depth_duration_MTurk/v2_DepthDuration_HTML.html#348,348,1670,939,1669,939,8-29-2022,9-43-9,67,depth_duration_stimuli/001449_2014-06-19_17-01-27_260595134347_rgbf000116-resize_2/001449_2014-06-19_17-01-27_260595134347_rgbf000116-resize_2-target.png,1000,3.452,8,5671,1000,feet,jsons/v1_VE1000_randls_73.json,1617646,2390150,49,Woman
67,321987,DepthScenes,duration_manipulation_targetAtFixation,jsons/v1_VE1000_randls_73.json,http://54.235.29.9/FacialAge/BNav_EC2/DepthDuration/v2_depth_duration_MTurk/v2_DepthDuration_HTML.html#348,348,1670,939,1669,939,8-29-2022,9-43-9,68,depth_duration_stimuli/001450_2014-06-19_17-02-03_260595134347_rgbf000203-resize_4/001450_2014-06-19_17-02-03_260595134347_rgbf000203-resize_4-target.png,1000,4.0106666666667,11,8227,999,feet,jsons/v1_VE1000_randls_73.json,1617646,2390150,49,Woman
68,321987,DepthScenes,duration_manipulation_targetAtFixation,jsons/v1_VE1000_randls_73.json,http://54.235.29.9/FacialAge/BNav_EC2/DepthDuration/v2_depth_duration_MTurk/v2_DepthDuration_HTML.html#348,348,1670,939,1669,939,8-29-2022,9-43-9,69,depth_duration_stimuli/001199_2014-06-17_16-03-48_260595134347_rgbf000077-resize_0/001199_2014-06-17_16-03-48_260595134347_rgbf000077-resize_0-target.png,1000,3.4375,13,8549,1000,feet,jsons/v1_VE1000_randls_73.json,1617646,2390150,49,Woman
69,321987,DepthScenes,duration_manipulation_targetAtFixation,jsons/v1_VE1000_randls_73.json,http://54.235.29.9/FacialAge/BNav_EC2/DepthDuration/v2_depth_duration_MTurk/v2_DepthDuration_HTML.html#348,348,1670,939,1669,939,8-29-2022,9-43-9,70,depth_duration_stimuli/000502_2014-06-08_23-02-32_260595134347_rgbf000063-resize_4/000502_2014-06-08_23-02-32_260595134347_rgbf000063-resize_4-target.png,1000,2.431,9,5563,999,feet,jsons/v1_VE1000_randls_73.json,1617646,2390150,49,Woman
70,321987,DepthScenes,duration_manipulation_targetAtFixation,jsons/v1_VE1000_randls_73.json,http://54.235.29.9/FacialAge/BNav_EC2/DepthDuration/v2_depth_duration_MTurk/v2_DepthDuration_HTML.html#348,348,1670,939,1669,939,8-29-2022,9-43-9,71,depth_duration_stimuli/000469_2014-06-09_19-42-10_260595134347_rgbf000081-resize_1/000469_2014-06-09_19-42-10_260595134347_rgbf000081-resize_1-target.png,1000,1.652,9,66299,999,feet,jsons/v1_VE1000_randls_73.json,1617646,2390150,49,Woman
71,321987,DepthScenes,duration_manipulation_targetAtFixation,jsons/v1_VE1000_randls_73.json,http://54.235.29.9/FacialAge/BNav_EC2/DepthDuration/v2_depth_duration_MTurk/v2_DepthDuration_HTML.html#348,348,1670,939,1669,939,8-29-2022,9-43-9,72,depth_duration_stimuli/000483_2014-06-09_20-41-45_260595134347_rgbf000116-resize_4/000483_2014-06-09_20-41-45_260595134347_rgbf000116-resize_4-target.png,1000,1.337,4,5363,999,feet,jsons/v1_VE1000_randls_73.json,1617646,2390150,49,Woman
72,321987,DepthScenes,duration_manipulation_targetAtFixation,jsons/v1_VE1000_randls_73.json,http://54.235.29.9/FacialAge/BNav_EC2/DepthDuration/v2_depth_duration_MTurk/v2_DepthDuration_HTML.html#348,348,1670,939,1669,939,8-29-2022,9-43-9,73,depth_duration_stimuli/002964_2014-06-08_17-46-11_094959634447_rgbf000091-resize_4/002964_2014-06-08_17-46-11_094959634447_rgbf000091-resize_4-target.png,1000,1.6909999999999998,5,4692,999,feet,jsons/v1_VE1000_randls_73.json,1617646,2390150,49,Woman
73,321987,DepthScenes,duration_manipulation_targetAtFixation,jsons/v1_VE1000_randls_73.json,http://54.235.29.9/FacialAge/BNav_EC2/DepthDuration/v2_depth_duration_MTurk/v2_DepthDuration_HTML.html#348,348,1670,939,1669,939,8-29-2022,9-43-9,74,depth_duration_stimuli/002136_2014-06-25_21-18-03_260595134347_rgbf000109-resize_3/002136_2014-06-25_21-18-03_260595134347_rgbf000109-resize_3-target.png,1000,1.9569999999999999,7,5073,999,feet,jsons/v1_VE1000_randls_73.json,1617646,2390150,49,Woman
74,321987,DepthScenes,duration_manipulation_targetAtFixation,jsons/v1_VE1000_randls_73.json,http://54.235.29.9/FacialAge/BNav_EC2/DepthDuration/v2_depth_duration_MTurk/v2_DepthDuration_HTML.html#348,348,1670,939,1669,939,8-29-2022,9-43-9,75,depth_duration_stimuli/001150_2014-06-17_15-27-34_260595134347_rgbf000108-resize_2/001150_2014-06-17_15-27-34_260595134347_rgbf000108-resize_2-target.png,1000,4.0325,10,6386,999,feet,jsons/v1_VE1000_randls_73.json,1617646,2390150,49,Woman
75,321987,DepthScenes,duration_manipulation_targetAtFixation,jsons/v1_VE1000_randls_73.json,http://54.235.29.9/FacialAge/BNav_EC2/DepthDuration/v2_depth_duration_MTurk/v2_DepthDuration_HTML.html#348,348,1670,939,1669,939,8-29-2022,9-43-9,76,depth_duration_stimuli/000665_2014-06-09_20-42-35_260595134347_rgbf000110-resize_1/000665_2014-06-09_20-42-35_260595134347_rgbf000110-resize_1-target.png,1000,3.057,8,5775,999,feet,jsons/v1_VE1000_randls_73.json,1617646,2390150,49,Woman
76,321987,DepthScenes,duration_manipulation_targetAtFixation,jsons/v1_VE1000_randls_73.json,http://54.235.29.9/FacialAge/BNav_EC2/DepthDuration/v2_depth_duration_MTurk/v2_DepthDuration_HTML.html#348,348,1670,939,1669,939,8-29-2022,9-43-9,77,depth_duration_stimuli/000414_2014-06-04_19-49-13_260595134347_rgbf000044-resize_0/000414_2014-06-04_19-49-13_260595134347_rgbf000044-resize_0-target.png,1000,4.329,11,16187,998,feet,jsons/v1_VE1000_randls_73.json,1617646,2390150,49,Woman
77,321987,DepthScenes,duration_manipulation_targetAtFixation,jsons/v1_VE1000_randls_73.json,http://54.235.29.9/FacialAge/BNav_EC2/DepthDuration/v2_depth_duration_MTurk/v2_DepthDuration_HTML.html#348,348,1670,939,1669,939,8-29-2022,9-43-9,78,depth_duration_stimuli/003129_2014-05-12_10-48-10_094959634447_rgbf000100-resize_0/003129_2014-05-12_10-48-10_094959634447_rgbf000100-resize_0-target.png,1000,4.9305,12,16008,999,feet,jsons/v1_VE1000_randls_73.json,1617646,2390150,49,Woman
78,321987,DepthScenes,duration_manipulation_targetAtFixation,jsons/v1_VE1000_randls_73.json,http://54.235.29.9/FacialAge/BNav_EC2/DepthDuration/v2_depth_duration_MTurk/v2_DepthDuration_HTML.html#348,348,1670,939,1669,939,8-29-2022,9-43-9,79,depth_duration_stimuli/000773_2014-06-08_22-24-54_260595134347_rgbf000093-resize_1/000773_2014-06-08_22-24-54_260595134347_rgbf000093-resize_1-target.png,1000,4.973,13,15207,999,feet,jsons/v1_VE1000_randls_73.json,1617646,2390150,49,Woman
79,321987,DepthScenes,duration_manipulation_targetAtFixation,jsons/v1_VE1000_randls_73.json,http://54.235.29.9/FacialAge/BNav_EC2/DepthDuration/v2_depth_duration_MTurk/v2_DepthDuration_HTML.html#348,348,1670,939,1669,939,8-29-2022,9-43-9,80,depth_duration_stimuli/002414_2014-06-28_20-24-58_260595134347_rgbf000067-resize_4/002414_2014-06-28_20-24-58_260595134347_rgbf000067-resize_4-target.png,1000,4.363,19,9640,999,feet,jsons/v1_VE1000_randls_73.json,1617646,2390150,49,Woman
80,321987,DepthScenes,duration_manipulation_targetAtFixation,jsons/v1_VE1000_randls_73.json,http://54.235.29.9/FacialAge/BNav_EC2/DepthDuration/v2_depth_duration_MTurk/v2_DepthDuration_HTML.html#348,348,1670,939,1669,939,8-29-2022,9-43-9,81,depth_duration_stimuli/002057_2014-06-24_21-00-13_260595134347_rgbf000120-resize_1/002057_2014-06-24_21-00-13_260595134347_rgbf000120-resize_1-target.png,1000,2.967,10,12703,999,feet,jsons/v1_VE1000_randls_73.json,1617646,2390150,49,Woman
81,321987,DepthScenes,duration_manipulation_targetAtFixation,jsons/v1_VE1000_randls_73.json,http://54.235.29.9/FacialAge/BNav_EC2/DepthDuration/v2_depth_duration_MTurk/v2_DepthDuration_HTML.html#348,348,1670,939,1669,939,8-29-2022,9-43-9,82,depth_duration_stimuli/000709_2014-06-08_13-51-55_260595134347_rgbf000068-resize_3/000709_2014-06-08_13-51-55_260595134347_rgbf000068-resize_3-target.png,1000,1.8030000000000002,7,25211,998,feet,jsons/v1_VE1000_randls_73.json,1617646,2390150,49,Woman
82,321987,DepthScenes,duration_manipulation_targetAtFixation,jsons/v1_VE1000_randls_73.json,http://54.235.29.9/FacialAge/BNav_EC2/DepthDuration/v2_depth_duration_MTurk/v2_DepthDuration_HTML.html#348,348,1670,939,1669,939,8-29-2022,9-43-9,83,depth_duration_stimuli/002600_2014-06-24_14-27-04_094959634447_rgbf000074-resize_2/002600_2014-06-24_14-27-04_094959634447_rgbf000074-resize_2-target.png,1000,2.7575,9,5398,999,feet,jsons/v1_VE1000_randls_73.json,1617646,2390150,49,Woman
83,321987,DepthScenes,duration_manipulation_targetAtFixation,jsons/v1_VE1000_randls_73.json,http://54.235.29.9/FacialAge/BNav_EC2/DepthDuration/v2_depth_duration_MTurk/v2_DepthDuration_HTML.html#348,348,1670,939,1669,939,8-29-2022,9-43-9,84,depth_duration_stimuli/003228_2014-05-14_13-42-35_094959634447_rgbf000101-resize_1/003228_2014-05-14_13-42-35_094959634447_rgbf000101-resize_1-target.png,1000,1.9680000000000002,7,3431,999,feet,jsons/v1_VE1000_randls_73.json,1617646,2390150,49,Woman
84,321987,DepthScenes,duration_manipulation_targetAtFixation,jsons/v1_VE1000_randls_73.json,http://54.235.29.9/FacialAge/BNav_EC2/DepthDuration/v2_depth_duration_MTurk/v2_DepthDuration_HTML.html#348,348,1670,939,1669,939,8-29-2022,9-43-9,85,depth_duration_stimuli/002213_2014-06-28_18-37-58_260595134347_rgbf000055-resize_1/002213_2014-06-28_18-37-58_260595134347_rgbf000055-resize_1-target.png,1000,3.62,11,4484,999,feet,jsons/v1_VE1000_randls_73.json,1617646,2390150,49,Woman
85,321987,DepthScenes,duration_manipulation_targetAtFixation,jsons/v1_VE1000_randls_73.json,http://54.235.29.9/FacialAge/BNav_EC2/DepthDuration/v2_depth_duration_MTurk/v2_DepthDuration_HTML.html#348,348,1670,939,1669,939,8-29-2022,9-43-9,86,depth_duration_stimuli/000691_2014-06-08_13-08-50_260595134347_rgbf000132-resize_3/000691_2014-06-08_13-08-50_260595134347_rgbf000132-resize_3-target.png,1000,4.1530000000000005,13,5284,999,feet,jsons/v1_VE1000_randls_73.json,1617646,2390150,49,Woman
86,321987,DepthScenes,duration_manipulation_targetAtFixation,jsons/v1_VE1000_randls_73.json,http://54.235.29.9/FacialAge/BNav_EC2/DepthDuration/v2_depth_duration_MTurk/v2_DepthDuration_HTML.html#348,348,1670,939,1669,939,8-29-2022,9-43-9,87,depth_duration_stimuli/002763_2014-06-22_19-13-10_094959634447_rgbf000075-resize_4/002763_2014-06-22_19-13-10_094959634447_rgbf000075-resize_4-target.png,1000,1.68375,7,5483,999,feet,jsons/v1_VE1000_randls_73.json,1617646,2390150,49,Woman
87,321987,DepthScenes,duration_manipulation_targetAtFixation,jsons/v1_VE1000_randls_73.json,http://54.235.29.9/FacialAge/BNav_EC2/DepthDuration/v2_depth_duration_MTurk/v2_DepthDuration_HTML.html#348,348,1670,939,1669,939,8-29-2022,9-43-9,88,depth_duration_stimuli/002209_2014-06-28_18-36-10_260595134347_rgbf000051-resize_1/002209_2014-06-28_18-36-10_260595134347_rgbf000051-resize_1-target.png,1000,2.057,8,8010,999,feet,jsons/v1_VE1000_randls_73.json,1617646,2390150,49,Woman
88,321987,DepthScenes,duration_manipulation_targetAtFixation,jsons/v1_VE1000_randls_73.json,http://54.235.29.9/FacialAge/BNav_EC2/DepthDuration/v2_depth_duration_MTurk/v2_DepthDuration_HTML.html#348,348,1670,939,1669,939,8-29-2022,9-43-9,89,depth_duration_stimuli/000486_2014-06-09_20-47-20_260595134347_rgbf000143-resize_2/000486_2014-06-09_20-47-20_260595134347_rgbf000143-resize_2-target.png,1000,4.8325,11,15383,998,feet,jsons/v1_VE1000_randls_73.json,1617646,2390150,49,Woman
89,321987,DepthScenes,duration_manipulation_targetAtFixation,jsons/v1_VE1000_randls_73.json,http://54.235.29.9/FacialAge/BNav_EC2/DepthDuration/v2_depth_duration_MTurk/v2_DepthDuration_HTML.html#348,348,1670,939,1669,939,8-29-2022,9-43-9,90,depth_duration_stimuli/003083_2014-06-15_15-21-03_094959634447_rgbf000063-resize_1/003083_2014-06-15_15-21-03_094959634447_rgbf000063-resize_1-target.png,1000,4.1405,9,16069,999,feet,jsons/v1_VE1000_randls_73.json,1617646,2390150,49,Woman
90,321987,DepthScenes,duration_manipulation_targetAtFixation,jsons/v1_VE1000_randls_73.json,http://54.235.29.9/FacialAge/BNav_EC2/DepthDuration/v2_depth_duration_MTurk/v2_DepthDuration_HTML.html#348,348,1670,939,1669,939,8-29-2022,9-43-9,91,depth_duration_stimuli/001110_2014-06-15_17-25-28_260595134347_rgbf000150-resize_1/001110_2014-06-15_17-25-28_260595134347_rgbf000150-resize_1-target.png,1000,1.7115,5,7063,999,feet,jsons/v1_VE1000_randls_73.json,1617646,2390150,49,Woman
91,321987,DepthScenes,duration_manipulation_targetAtFixation,jsons/v1_VE1000_randls_73.json,http://54.235.29.9/FacialAge/BNav_EC2/DepthDuration/v2_depth_duration_MTurk/v2_DepthDuration_HTML.html#348,348,1670,939,1669,939,8-29-2022,9-43-9,92,depth_duration_stimuli/000927_2014-06-09_16-32-30_260595134347_rgbf000123-resize_3/000927_2014-06-09_16-32-30_260595134347_rgbf000123-resize_3-target.png,1000,2.6785,0,8629,999,feet,jsons/v1_VE1000_randls_73.json,1617646,2390150,49,Woman
92,321987,DepthScenes,duration_manipulation_targetAtFixation,jsons/v1_VE1000_randls_73.json,http://54.235.29.9/FacialAge/BNav_EC2/DepthDuration/v2_depth_duration_MTurk/v2_DepthDuration_HTML.html#348,348,1670,939,1669,939,8-29-2022,9-43-9,93,depth_duration_stimuli/003070_2014-06-15_14-58-27_094959634447_rgbf000150-resize_3/003070_2014-06-15_14-58-27_094959634447_rgbf000150-resize_3-target.png,1000,2.9415,9,5291,999,feet,jsons/v1_VE1000_randls_73.json,1617646,2390150,49,Woman
93,321987,DepthScenes,duration_manipulation_targetAtFixation,jsons/v1_VE1000_randls_73.json,http://54.235.29.9/FacialAge/BNav_EC2/DepthDuration/v2_depth_duration_MTurk/v2_DepthDuration_HTML.html#348,348,1670,939,1669,939,8-29-2022,9-43-9,94,depth_duration_stimuli/000943_2014-06-09_19-31-07_260595134347_rgbf000128-resize_1/000943_2014-06-09_19-31-07_260595134347_rgbf000128-resize_1-target.png,1000,1.9765,7,5517,998,feet,jsons/v1_VE1000_randls_73.json,1617646,2390150,49,Woman
94,321987,DepthScenes,duration_manipulation_targetAtFixation,jsons/v1_VE1000_randls_73.json,http://54.235.29.9/FacialAge/BNav_EC2/DepthDuration/v2_depth_duration_MTurk/v2_DepthDuration_HTML.html#348,348,1670,939,1669,939,8-29-2022,9-43-9,95,depth_duration_stimuli/001059_2014-06-08_21-53-27_260595134347_rgbf000061-resize_4/001059_2014-06-08_21-53-27_260595134347_rgbf000061-resize_4-target.png,1000,2.4185,8,4167,999,feet,jsons/v1_VE1000_randls_73.json,1617646,2390150,49,Woman
95,321987,DepthScenes,duration_manipulation_targetAtFixation,jsons/v1_VE1000_randls_73.json,http://54.235.29.9/FacialAge/BNav_EC2/DepthDuration/v2_depth_duration_MTurk/v2_DepthDuration_HTML.html#348,348,1670,939,1669,939,8-29-2022,9-43-9,96,depth_duration_stimuli/001032_2014-06-08_13-23-17_260595134347_rgbf000021-resize_3/001032_2014-06-08_13-23-17_260595134347_rgbf000021-resize_3-target.png,1000,3.2725,0,8008,999,feet,jsons/v1_VE1000_randls_73.json,1617646,2390150,49,Woman
96,321987,DepthScenes,duration_manipulation_targetAtFixation,jsons/v1_VE1000_randls_73.json,http://54.235.29.9/FacialAge/BNav_EC2/DepthDuration/v2_depth_duration_MTurk/v2_DepthDuration_HTML.html#348,348,1670,939,1669,939,8-29-2022,9-43-9,97,depth_duration_stimuli/002748_2014-06-22_19-07-22_094959634447_rgbf000078-resize_1/002748_2014-06-22_19-07-22_094959634447_rgbf000078-resize_1-target.png,1000,4.6705,6,57123,998,feet,jsons/v1_VE1000_randls_73.json,1617646,2390150,49,Woman
97,321987,DepthScenes,duration_manipulation_targetAtFixation,jsons/v1_VE1000_randls_73.json,http://54.235.29.9/FacialAge/BNav_EC2/DepthDuration/v2_depth_duration_MTurk/v2_DepthDuration_HTML.html#348,348,1670,939,1669,939,8-29-2022,9-43-9,98,depth_duration_stimuli/002995_2014-06-15_12-31-26_094959634447_rgbf000150-resize_1/002995_2014-06-15_12-31-26_094959634447_rgbf000150-resize_1-target.png,1000,3.8360000000000003,11,8655,999,feet,jsons/v1_VE1000_randls_73.json,1617646,2390150,49,Woman
98,321987,DepthScenes,duration_manipulation_targetAtFixation,jsons/v1_VE1000_randls_73.json,http://54.235.29.9/FacialAge/BNav_EC2/DepthDuration/v2_depth_duration_MTurk/v2_DepthDuration_HTML.html#348,348,1670,939,1669,939,8-29-2022,9-43-9,99,depth_duration_stimuli/001540_2014-06-20_17-01-05_260595134347_rgbf000086-resize_2/001540_2014-06-20_17-01-05_260595134347_rgbf000086-resize-original.jpg,1000,1.459,0,4747,995,feet,jsons/v1_VE1000_randls_73.json,1617646,2390150,49,Woman
99,321987,DepthScenes,duration_manipulation_targetAtFixation,jsons/v1_VE1000_randls_73.json,http://54.235.29.9/FacialAge/BNav_EC2/DepthDuration/v2_depth_duration_MTurk/v2_DepthDuration_HTML.html#348,348,1670,939,1669,939,8-29-2022,9-43-9,100,depth_duration_stimuli/002445_2014-06-28_20-32-16_260595134347_rgbf000029-resize_4/002445_2014-06-28_20-32-16_260595134347_rgbf000029-resize_4-target.png,1000,2.5315,9,26290,999,feet,jsons/v1_VE1000_randls_73.json,1617646,2390150,49,Woman
100,321987,DepthScenes,duration_manipulation_targetAtFixation,jsons/v1_VE1000_randls_73.json,http://54.235.29.9/FacialAge/BNav_EC2/DepthDuration/v2_depth_duration_MTurk/v2_DepthDuration_HTML.html#348,348,1670,939,1669,939,8-29-2022,9-43-9,101,depth_duration_stimuli/000780_2014-06-08_22-28-29_260595134347_rgbf000126-resize_1/000780_2014-06-08_22-28-29_260595134347_rgbf000126-resize_1-target.png,1000,3.3825,7,5005,999,feet,jsons/v1_VE1000_randls_73.json,1617646,2390150,49,Woman
101,321987,DepthScenes,duration_manipulation_targetAtFixation,jsons/v1_VE1000_randls_73.json,http://54.235.29.9/FacialAge/BNav_EC2/DepthDuration/v2_depth_duration_MTurk/v2_DepthDuration_HTML.html#348,348,1670,939,1669,939,8-29-2022,9-43-9,102,depth_duration_stimuli/000692_2014-06-08_13-09-42_260595134347_rgbf000199-resize_2/000692_2014-06-08_13-09-42_260595134347_rgbf000199-resize_2-target.png,1000,3.661,11,6487,999,feet,jsons/v1_VE1000_randls_73.json,1617646,2390150,49,Woman
102,321987,DepthScenes,duration_manipulation_targetAtFixation,jsons/v1_VE1000_randls_73.json,http://54.235.29.9/FacialAge/BNav_EC2/DepthDuration/v2_depth_duration_MTurk/v2_DepthDuration_HTML.html#348,348,1670,939,1669,939,8-29-2022,9-43-9,103,depth_duration_stimuli/001094_2014-06-15_17-36-00_260595134347_rgbf000205-resize_0/001094_2014-06-15_17-36-00_260595134347_rgbf000205-resize_0-target.png,1000,4.2175,10,5002,999,feet,jsons/v1_VE1000_randls_73.json,1617646,2390150,49,Woman
103,321987,DepthScenes,duration_manipulation_targetAtFixation,jsons/v1_VE1000_randls_73.json,http://54.235.29.9/FacialAge/BNav_EC2/DepthDuration/v2_depth_duration_MTurk/v2_DepthDuration_HTML.html#348,348,1670,939,1669,939,8-29-2022,9-43-9,104,depth_duration_stimuli/002043_2014-06-24_20-29-38_260595134347_rgbf000039-resize_4/002043_2014-06-24_20-29-38_260595134347_rgbf000039-resize_4-target.png,1000,2.8435,11,33000,999,feet,jsons/v1_VE1000_randls_73.json,1617646,2390150,49,Woman
104,321987,DepthScenes,duration_manipulation_targetAtFixation,jsons/v1_VE1000_randls_73.json,http://54.235.29.9/FacialAge/BNav_EC2/DepthDuration/v2_depth_duration_MTurk/v2_DepthDuration_HTML.html#348,348,1670,939,1669,939,8-29-2022,9-43-9,105,depth_duration_stimuli/003048_2014-06-15_13-49-43_094959634447_rgbf000150-resize_1/003048_2014-06-15_13-49-43_094959634447_rgbf000150-resize_1-target.png,1000,4.0035,8,9794,999,feet,jsons/v1_VE1000_randls_73.json,1617646,2390150,49,Woman
105,321987,DepthScenes,duration_manipulation_targetAtFixation,jsons/v1_VE1000_randls_73.json,http://54.235.29.9/FacialAge/BNav_EC2/DepthDuration/v2_depth_duration_MTurk/v2_DepthDuration_HTML.html#348,348,1670,939,1669,939,8-29-2022,9-43-9,106,depth_duration_stimuli/001244_2014-06-17_16-47-45_260595134347_rgbf000030-resize_4/001244_2014-06-17_16-47-45_260595134347_rgbf000030-resize_4-target.png,1000,2.0425,6,7281,999,feet,jsons/v1_VE1000_randls_73.json,1617646,2390150,49,Woman
106,321987,DepthScenes,duration_manipulation_targetAtFixation,jsons/v1_VE1000_randls_73.json,http://54.235.29.9/FacialAge/BNav_EC2/DepthDuration/v2_depth_duration_MTurk/v2_DepthDuration_HTML.html#348,348,1670,939,1669,939,8-29-2022,9-43-9,107,depth_duration_stimuli/003495_2014-05-21_16-01-51_094959634447_rgbf000100-resize_3/003495_2014-05-21_16-01-51_094959634447_rgbf000100-resize_3-target.png,1000,1.6255,5,4823,999,feet,jsons/v1_VE1000_randls_73.json,1617646,2390150,49,Woman
107,321987,DepthScenes,duration_manipulation_targetAtFixation,jsons/v1_VE1000_randls_73.json,http://54.235.29.9/FacialAge/BNav_EC2/DepthDuration/v2_depth_duration_MTurk/v2_DepthDuration_HTML.html#348,348,1670,939,1669,939,8-29-2022,9-43-9,108,depth_duration_stimuli/002988_2014-06-15_12-24-20_094959634447_rgbf000150-resize_1/002988_2014-06-15_12-24-20_094959634447_rgbf000150-resize_1-target.png,1000,4.7669999999999995,15,5681,999,feet,jsons/v1_VE1000_randls_73.json,1617646,2390150,49,Woman
108,321987,DepthScenes,duration_manipulation_targetAtFixation,jsons/v1_VE1000_randls_73.json,http://54.235.29.9/FacialAge/BNav_EC2/DepthDuration/v2_depth_duration_MTurk/v2_DepthDuration_HTML.html#348,348,1670,939,1669,939,8-29-2022,9-43-9,109,depth_duration_stimuli/001052_2014-06-08_18-24-54_260595134347_rgbf000130-resize_1/001052_2014-06-08_18-24-54_260595134347_rgbf000130-resize_1-target.png,1000,4.1045,10,5459,999,feet,jsons/v1_VE1000_randls_73.json,1617646,2390150,49,Woman
109,321987,DepthScenes,duration_manipulation_targetAtFixation,jsons/v1_VE1000_randls_73.json,http://54.235.29.9/FacialAge/BNav_EC2/DepthDuration/v2_depth_duration_MTurk/v2_DepthDuration_HTML.html#348,348,1670,939,1669,939,8-29-2022,9-43-9,110,depth_duration_stimuli/000642_2014-06-08_16-59-25_260595134347_rgbf000098-resize_2/000642_2014-06-08_16-59-25_260595134347_rgbf000098-resize_2-target.png,1000,2.8815,18,7638,999,feet,jsons/v1_VE1000_randls_73.json,1617646,2390150,49,Woman
110,321987,DepthScenes,duration_manipulation_targetAtFixation,jsons/v1_VE1000_randls_73.json,http://54.235.29.9/FacialAge/BNav_EC2/DepthDuration/v2_depth_duration_MTurk/v2_DepthDuration_HTML.html#348,348,1670,939,1669,939,8-29-2022,9-43-9,111,depth_duration_stimuli/002425_2014-06-28_20-27-29_260595134347_rgbf000031-resize_8/002425_2014-06-28_20-27-29_260595134347_rgbf000031-resize_8-target.png,1000,3.8960000000000004,10,10071,999,feet,jsons/v1_VE1000_randls_73.json,1617646,2390150,49,Woman
111,321987,DepthScenes,duration_manipulation_targetAtFixation,jsons/v1_VE1000_randls_73.json,http://54.235.29.9/FacialAge/BNav_EC2/DepthDuration/v2_depth_duration_MTurk/v2_DepthDuration_HTML.html#348,348,1670,939,1669,939,8-29-2022,9-43-9,112,depth_duration_stimuli/003534_2014-05-22_15-06-10_094959634447_rgbf000102-resize_4/003534_2014-05-22_15-06-10_094959634447_rgbf000102-resize_4-target.png,1000,1.426,7,7438,998,feet,jsons/v1_VE1000_randls_73.json,1617646,2390150,49,Woman
112,321987,DepthScenes,duration_manipulation_targetAtFixation,jsons/v1_VE1000_randls_73.json,http://54.235.29.9/FacialAge/BNav_EC2/DepthDuration/v2_depth_duration_MTurk/v2_DepthDuration_HTML.html#348,348,1670,939,1669,939,8-29-2022,9-43-9,113,depth_duration_stimuli/002637_2014-06-24_14-51-13_094959634447_rgbf000066-resize_4/002637_2014-06-24_14-51-13_094959634447_rgbf000066-resize_4-target.png,1000,1.9955,6,8196,999,feet,jsons/v1_VE1000_randls_73.json,1617646,2390150,49,Woman
113,321987,DepthScenes,duration_manipulation_targetAtFixation,jsons/v1_VE1000_randls_73.json,http://54.235.29.9/FacialAge/BNav_EC2/DepthDuration/v2_depth_duration_MTurk/v2_DepthDuration_HTML.html#348,348,1670,939,1669,939,8-29-2022,9-43-9,114,depth_duration_stimuli/002272_2014-06-28_18-53-56_260595134347_rgbf000067-resize_2/002272_2014-06-28_18-53-56_260595134347_rgbf000067-resize_2-target.png,1000,1.138,5,49495,999,feet,jsons/v1_VE1000_randls_73.json,1617646,2390150,49,Woman
114,321987,DepthScenes,duration_manipulation_targetAtFixation,jsons/v1_VE1000_randls_73.json,http://54.235.29.9/FacialAge/BNav_EC2/DepthDuration/v2_depth_duration_MTurk/v2_DepthDuration_HTML.html#348,348,1670,939,1669,939,8-29-2022,9-43-9,115,depth_duration_stimuli/001571_2014-06-20_17-21-32_260595134347_rgbf000089-resize_1/001571_2014-06-20_17-21-32_260595134347_rgbf000089-resize_1-target.png,1000,1.86,4,12990,998,feet,jsons/v1_VE1000_randls_73.json,1617646,2390150,49,Woman
115,321987,DepthScenes,duration_manipulation_targetAtFixation,jsons/v1_VE1000_randls_73.json,http://54.235.29.9/FacialAge/BNav_EC2/DepthDuration/v2_depth_duration_MTurk/v2_DepthDuration_HTML.html#348,348,1670,939,1669,939,8-29-2022,9-43-9,116,depth_duration_stimuli/001170_2014-06-17_15-43-44_260595134347_rgbf000096-resize_6/001170_2014-06-17_15-43-44_260595134347_rgbf000096-resize-original.jpg,1000,1.1909999999999998,0,4716,1000,feet,jsons/v1_VE1000_randls_73.json,1617646,2390150,49,Woman
116,321987,DepthScenes,duration_manipulation_targetAtFixation,jsons/v1_VE1000_randls_73.json,http://54.235.29.9/FacialAge/BNav_EC2/DepthDuration/v2_depth_duration_MTurk/v2_DepthDuration_HTML.html#348,348,1670,939,1669,939,8-29-2022,9-43-9,117,depth_duration_stimuli/002989_2014-06-15_12-25-03_094959634447_rgbf000150-resize_3/002989_2014-06-15_12-25-03_094959634447_rgbf000150-resize_3-target.png,1000,4.1975,14,8196,999,feet,jsons/v1_VE1000_randls_73.json,1617646,2390150,49,Woman
117,321987,DepthScenes,duration_manipulation_targetAtFixation,jsons/v1_VE1000_randls_73.json,http://54.235.29.9/FacialAge/BNav_EC2/DepthDuration/v2_depth_duration_MTurk/v2_DepthDuration_HTML.html#348,348,1670,939,1669,939,8-29-2022,9-43-9,118,depth_duration_stimuli/000866_2014-06-09_20-45-42_260595134347_rgbf000139-resize_1/000866_2014-06-09_20-45-42_260595134347_rgbf000139-resize_1-target.png,1000,3.2155,7,4681,999,feet,jsons/v1_VE1000_randls_73.json,1617646,2390150,49,Woman
118,321987,DepthScenes,duration_manipulation_targetAtFixation,jsons/v1_VE1000_randls_73.json,http://54.235.29.9/FacialAge/BNav_EC2/DepthDuration/v2_depth_duration_MTurk/v2_DepthDuration_HTML.html#348,348,1670,939,1669,939,8-29-2022,9-43-9,119,depth_duration_stimuli/001810_2014-06-26_20-51-35_260595134347_rgbf000040-resize_3/001810_2014-06-26_20-51-35_260595134347_rgbf000040-resize_3-target.png,1000,2.2525,5,4295,998,feet,jsons/v1_VE1000_randls_73.json,1617646,2390150,49,Woman
119,321987,DepthScenes,duration_manipulation_targetAtFixation,jsons/v1_VE1000_randls_73.json,http://54.235.29.9/FacialAge/BNav_EC2/DepthDuration/v2_depth_duration_MTurk/v2_DepthDuration_HTML.html#348,348,1670,939,1669,939,8-29-2022,9-43-9,120,depth_duration_stimuli/003010_2014-06-15_12-54-35_094959634447_rgbf000112-resize_0/003010_2014-06-15_12-54-35_094959634447_rgbf000112-resize_0-target.png,1000,3.1185,14,7311,999,feet,jsons/v1_VE1000_randls_73.json,1617646,2390150,49,Woman
120,321987,DepthScenes,duration_manipulation_targetAtFixation,jsons/v1_VE1000_randls_73.json,http://54.235.29.9/FacialAge/BNav_EC2/DepthDuration/v2_depth_duration_MTurk/v2_DepthDuration_HTML.html#348,348,1670,939,1669,939,8-29-2022,9-43-9,121,depth_duration_stimuli/000739_2014-06-08_18-45-58_260595134347_rgbf000068-resize_1/000739_2014-06-08_18-45-58_260595134347_rgbf000068-resize_1-target.png,1000,3.534,10,6297,999,feet,jsons/v1_VE1000_randls_73.json,1617646,2390150,49,Woman
121,321987,DepthScenes,duration_manipulation_targetAtFixation,jsons/v1_VE1000_randls_73.json,http://54.235.29.9/FacialAge/BNav_EC2/DepthDuration/v2_depth_duration_MTurk/v2_DepthDuration_HTML.html#348,348,1670,939,1669,939,8-29-2022,9-43-9,122,depth_duration_stimuli/000734_2014-06-08_17-39-11_260595134347_rgbf000128-resize_2/000734_2014-06-08_17-39-11_260595134347_rgbf000128-resize_2-target.png,1000,4.098,11,8042,998,feet,jsons/v1_VE1000_randls_73.json,1617646,2390150,49,Woman
122,321987,DepthScenes,duration_manipulation_targetAtFixation,jsons/v1_VE1000_randls_73.json,http://54.235.29.9/FacialAge/BNav_EC2/DepthDuration/v2_depth_duration_MTurk/v2_DepthDuration_HTML.html#348,348,1670,939,1669,939,8-29-2022,9-43-9,123,depth_duration_stimuli/000470_2014-06-09_19-42-40_260595134347_rgbf000094-resize_1/000470_2014-06-09_19-42-40_260595134347_rgbf000094-resize_1-target.png,1000,1.831,5,7850,999,feet,jsons/v1_VE1000_randls_73.json,1617646,2390150,49,Woman
123,321987,DepthScenes,duration_manipulation_targetAtFixation,jsons/v1_VE1000_randls_73.json,http://54.235.29.9/FacialAge/BNav_EC2/DepthDuration/v2_depth_duration_MTurk/v2_DepthDuration_HTML.html#348,348,1670,939,1669,939,8-29-2022,9-43-9,124,depth_duration_stimuli/000109_2014-05-14_23-41-52_260595134347_rgbf000035-resize_9/000109_2014-05-14_23-41-52_260595134347_rgbf000035-resize_9-target.png,1000,1.3545,4,4474,999,feet,jsons/v1_VE1000_randls_73.json,1617646,2390150,49,Woman
124,321987,DepthScenes,duration_manipulation_targetAtFixation,jsons/v1_VE1000_randls_73.json,http://54.235.29.9/FacialAge/BNav_EC2/DepthDuration/v2_depth_duration_MTurk/v2_DepthDuration_HTML.html#348,348,1670,939,1669,939,8-29-2022,9-43-9,125,depth_duration_stimuli/002905_2014-06-03_18-04-43_094959634447_rgbf000151-resize_2/002905_2014-06-03_18-04-43_094959634447_rgbf000151-resize_2-target.png,1000,2.0295,4,4102,999,feet,jsons/v1_VE1000_randls_73.json,1617646,2390150,49,Woman
125,321987,DepthScenes,duration_manipulation_targetAtFixation,jsons/v1_VE1000_randls_73.json,http://54.235.29.9/FacialAge/BNav_EC2/DepthDuration/v2_depth_duration_MTurk/v2_DepthDuration_HTML.html#348,348,1670,939,1669,939,8-29-2022,9-43-9,126,depth_duration_stimuli/003423_2014-05-21_10-23-26_094959634447_rgbf002665-resize_2/003423_2014-05-21_10-23-26_094959634447_rgbf002665-resize_2-target.png,1000,3.2575,12,5153,998,feet,jsons/v1_VE1000_randls_73.json,1617646,2390150,49,Woman
126,321987,DepthScenes,duration_manipulation_targetAtFixation,jsons/v1_VE1000_randls_73.json,http://54.235.29.9/FacialAge/BNav_EC2/DepthDuration/v2_depth_duration_MTurk/v2_DepthDuration_HTML.html#348,348,1670,939,1669,939,8-29-2022,9-43-9,127,depth_duration_stimuli/001570_2014-06-20_17-21-09_260595134347_rgbf000135-resize_4/001570_2014-06-20_17-21-09_260595134347_rgbf000135-resize_4-target.png,1000,4.467,14,5598,998,feet,jsons/v1_VE1000_randls_73.json,1617646,2390150,49,Woman
127,321987,DepthScenes,duration_manipulation_targetAtFixation,jsons/v1_VE1000_randls_73.json,http://54.235.29.9/FacialAge/BNav_EC2/DepthDuration/v2_depth_duration_MTurk/v2_DepthDuration_HTML.html#348,348,1670,939,1669,939,8-29-2022,9-43-9,128,depth_duration_stimuli/001392_2014-06-19_16-07-59_260595134347_rgbf000046-resize_1/001392_2014-06-19_16-07-59_260595134347_rgbf000046-resize_1-target.png,1000,4.135,13,9046,999,feet,jsons/v1_VE1000_randls_73.json,1617646,2390150,49,Woman
128,321987,DepthScenes,duration_manipulation_targetAtFixation,jsons/v1_VE1000_randls_73.json,http://54.235.29.9/FacialAge/BNav_EC2/DepthDuration/v2_depth_duration_MTurk/v2_DepthDuration_HTML.html#348,348,1670,939,1669,939,8-29-2022,9-43-9,129,depth_duration_stimuli/002509_2014-06-24_13-19-22_094959634447_rgbf000077-resize_0/002509_2014-06-24_13-19-22_094959634447_rgbf000077-resize_0-target.png,1000,1.3065,5,33141,995,feet,jsons/v1_VE1000_randls_73.json,1617646,2390150,49,Woman
129,321987,DepthScenes,duration_manipulation_targetAtFixation,jsons/v1_VE1000_randls_73.json,http://54.235.29.9/FacialAge/BNav_EC2/DepthDuration/v2_depth_duration_MTurk/v2_DepthDuration_HTML.html#348,348,1670,939,1669,939,8-29-2022,9-43-9,130,depth_duration_stimuli/003338_2014-05-20_11-01-23_094959634447_rgbf000051-resize_6/003338_2014-05-20_11-01-23_094959634447_rgbf000051-resize_6-target.png,1000,1.693,4,6007,999,feet,jsons/v1_VE1000_randls_73.json,1617646,2390150,49,Woman
130,321987,DepthScenes,duration_manipulation_targetAtFixation,jsons/v1_VE1000_randls_73.json,http://54.235.29.9/FacialAge/BNav_EC2/DepthDuration/v2_depth_duration_MTurk/v2_DepthDuration_HTML.html#348,348,1670,939,1669,939,8-29-2022,9-43-9,131,depth_duration_stimuli/000506_2014-06-08_23-21-00_260595134347_rgbf000070-resize_7/000506_2014-06-08_23-21-00_260595134347_rgbf000070-resize_7-target.png,1000,4.0585,8,21988,999,feet,jsons/v1_VE1000_randls_73.json,1617646,2390150,49,Woman
131,321987,DepthScenes,duration_manipulation_targetAtFixation,jsons/v1_VE1000_randls_73.json,http://54.235.29.9/FacialAge/BNav_EC2/DepthDuration/v2_depth_duration_MTurk/v2_DepthDuration_HTML.html#348,348,1670,939,1669,939,8-29-2022,9-43-9,132,depth_duration_stimuli/003079_2014-06-15_15-18-20_094959634447_rgbf000152-resize_8/003079_2014-06-15_15-18-20_094959634447_rgbf000152-resize_8-target.png,1000,2.8775,11,10270,999,feet,jsons/v1_VE1000_randls_73.json,1617646,2390150,49,Woman
132,321987,DepthScenes,duration_manipulation_targetAtFixation,jsons/v1_VE1000_randls_73.json,http://54.235.29.9/FacialAge/BNav_EC2/DepthDuration/v2_depth_duration_MTurk/v2_DepthDuration_HTML.html#348,348,1670,939,1669,939,8-29-2022,9-43-9,133,depth_duration_stimuli/001164_2014-06-17_15-35-46_260595134347_rgbf000085-resize_3/001164_2014-06-17_15-35-46_260595134347_rgbf000085-resize_3-target.png,1000,2.354,8,4371,998,feet,jsons/v1_VE1000_randls_73.json,1617646,2390150,49,Woman
133,321987,DepthScenes,duration_manipulation_targetAtFixation,jsons/v1_VE1000_randls_73.json,http://54.235.29.9/FacialAge/BNav_EC2/DepthDuration/v2_depth_duration_MTurk/v2_DepthDuration_HTML.html#348,348,1670,939,1669,939,8-29-2022,9-43-9,134,depth_duration_stimuli/001136_2014-06-17_15-19-41_260595134347_rgbf000076-resize_3/001136_2014-06-17_15-19-41_260595134347_rgbf000076-resize_3-target.png,1000,1.8655,9,4383,999,feet,jsons/v1_VE1000_randls_73.json,1617646,2390150,49,Woman
134,321987,DepthScenes,duration_manipulation_targetAtFixation,jsons/v1_VE1000_randls_73.json,http://54.235.29.9/FacialAge/BNav_EC2/DepthDuration/v2_depth_duration_MTurk/v2_DepthDuration_HTML.html#348,348,1670,939,1669,939,8-29-2022,9-43-9,135,depth_duration_stimuli/002072_2014-06-24_21-48-06_260595134347_rgbf000115-resize_0/002072_2014-06-24_21-48-06_260595134347_rgbf000115-resize-original.jpg,1000,4.702,0,3991,999,feet,jsons/v1_VE1000_randls_73.json,1617646,2390150,49,Woman
135,321987,DepthScenes,duration_manipulation_targetAtFixation,jsons/v1_VE1000_randls_73.json,http://54.235.29.9/FacialAge/BNav_EC2/DepthDuration/v2_depth_duration_MTurk/v2_DepthDuration_HTML.html#348,348,1670,939,1669,939,8-29-2022,9-43-9,136,depth_duration_stimuli/000788_2014-06-08_22-34-36_260595134347_rgbf000131-resize_1/000788_2014-06-08_22-34-36_260595134347_rgbf000131-resize_1-target.png,1000,3.359,9,4902,998,feet,jsons/v1_VE1000_randls_73.json,1617646,2390150,49,Woman
136,321987,DepthScenes,duration_manipulation_targetAtFixation,jsons/v1_VE1000_randls_73.json,http://54.235.29.9/FacialAge/BNav_EC2/DepthDuration/v2_depth_duration_MTurk/v2_DepthDuration_HTML.html#348,348,1670,939,1669,939,8-29-2022,9-43-9,137,depth_duration_stimuli/001235_2014-06-17_16-37-36_260595134347_rgbf000084-resize_4/001235_2014-06-17_16-37-36_260595134347_rgbf000084-resize_4-target.png,1000,3.6605,10,7680,998,feet,jsons/v1_VE1000_randls_73.json,1617646,2390150,49,Woman
137,321987,DepthScenes,duration_manipulation_targetAtFixation,jsons/v1_VE1000_randls_73.json,http://54.235.29.9/FacialAge/BNav_EC2/DepthDuration/v2_depth_duration_MTurk/v2_DepthDuration_HTML.html#348,348,1670,939,1669,939,8-29-2022,9-43-9,138,depth_duration_stimuli/000522_2014-06-08_13-35-06_260595134347_rgbf000244-resize_1/000522_2014-06-08_13-35-06_260595134347_rgbf000244-resize_1-target.png,1000,2.3715,3,4937,998,feet,jsons/v1_VE1000_randls_73.json,1617646,2390150,49,Woman
138,321987,DepthScenes,duration_manipulation_targetAtFixation,jsons/v1_VE1000_randls_73.json,http://54.235.29.9/FacialAge/BNav_EC2/DepthDuration/v2_depth_duration_MTurk/v2_DepthDuration_HTML.html#348,348,1670,939,1669,939,8-29-2022,9-43-9,139,depth_duration_stimuli/002949_2014-06-26_15-57-42_094959634447_rgbf000079-resize_1/002949_2014-06-26_15-57-42_094959634447_rgbf000079-resize_1-target.png,1000,1.8915,7,5091,1000,feet,jsons/v1_VE1000_randls_73.json,1617646,2390150,49,Woman
139,321987,DepthScenes,duration_manipulation_targetAtFixation,jsons/v1_VE1000_randls_73.json,http://54.235.29.9/FacialAge/BNav_EC2/DepthDuration/v2_depth_duration_MTurk/v2_DepthDuration_HTML.html#348,348,1670,939,1669,939,8-29-2022,9-43-9,140,depth_duration_stimuli/001092_2014-06-15_17-34-58_260595134347_rgbf000171-resize_3/001092_2014-06-15_17-34-58_260595134347_rgbf000171-resize_3-target.png,1000,2.6935,8,4079,999,feet,jsons/v1_VE1000_randls_73.json,1617646,2390150,49,Woman
140,321987,DepthScenes,duration_manipulation_targetAtFixation,jsons/v1_VE1000_randls_73.json,http://54.235.29.9/FacialAge/BNav_EC2/DepthDuration/v2_depth_duration_MTurk/v2_DepthDuration_HTML.html#348,348,1670,939,1669,939,8-29-2022,9-43-9,141,depth_duration_stimuli/002545_2014-06-24_13-38-53_094959634447_rgbf000080-resize_4/002545_2014-06-24_13-38-53_094959634447_rgbf000080-resize_4-target.png,1000,1.9205,9,4475,999,feet,jsons/v1_VE1000_randls_73.json,1617646,2390150,49,Woman
141,321987,DepthScenes,duration_manipulation_targetAtFixation,jsons/v1_VE1000_randls_73.json,http://54.235.29.9/FacialAge/BNav_EC2/DepthDuration/v2_depth_duration_MTurk/v2_DepthDuration_HTML.html#348,348,1670,939,1669,939,8-29-2022,9-43-9,142,depth_duration_stimuli/001167_2014-06-17_15-38-07_260595134347_rgbf000108-resize_0/001167_2014-06-17_15-38-07_260595134347_rgbf000108-resize_0-target.png,1000,1.8505,4,5031,999,feet,jsons/v1_VE1000_randls_73.json,1617646,2390150,49,Woman
142,321987,DepthScenes,duration_manipulation_targetAtFixation,jsons/v1_VE1000_randls_73.json,http://54.235.29.9/FacialAge/BNav_EC2/DepthDuration/v2_depth_duration_MTurk/v2_DepthDuration_HTML.html#348,348,1670,939,1669,939,8-29-2022,9-43-9,143,depth_duration_stimuli/003587_2014-05-23_16-48-02_094959634447_rgbf002384-resize_2/003587_2014-05-23_16-48-02_094959634447_rgbf002384-resize_2-target.png,1000,1.357,3,4864,999,feet,jsons/v1_VE1000_randls_73.json,1617646,2390150,49,Woman
143,321987,DepthScenes,duration_manipulation_targetAtFixation,jsons/v1_VE1000_randls_73.json,http://54.235.29.9/FacialAge/BNav_EC2/DepthDuration/v2_depth_duration_MTurk/v2_DepthDuration_HTML.html#348,348,1670,939,1669,939,8-29-2022,9-43-9,144,depth_duration_stimuli/001417_2014-06-19_16-25-36_260595134347_rgbf000115-resize_5/001417_2014-06-19_16-25-36_260595134347_rgbf000115-resize_5-target.png,1000,4.6255,12,5703,999,feet,jsons/v1_VE1000_randls_73.json,1617646,2390150,49,Woman
144,321987,DepthScenes,duration_manipulation_targetAtFixation,jsons/v1_VE1000_randls_73.json,http://54.235.29.9/FacialAge/BNav_EC2/DepthDuration/v2_depth_duration_MTurk/v2_DepthDuration_HTML.html#348,348,1670,939,1669,939,8-29-2022,9-43-9,145,depth_duration_stimuli/003081_2014-06-15_15-19-16_094959634447_rgbf000150-resize_1/003081_2014-06-15_15-19-16_094959634447_rgbf000150-resize_1-target.png,1000,3.9125,11,4768,998,feet,jsons/v1_VE1000_randls_73.json,1617646,2390150,49,Woman
145,321987,DepthScenes,duration_manipulation_targetAtFixation,jsons/v1_VE1000_randls_73.json,http://54.235.29.9/FacialAge/BNav_EC2/DepthDuration/v2_depth_duration_MTurk/v2_DepthDuration_HTML.html#348,348,1670,939,1669,939,8-29-2022,9-43-9,146,depth_duration_stimuli/001498_2014-06-19_17-45-14_260595134347_rgbf000129-resize_4/001498_2014-06-19_17-45-14_260595134347_rgbf000129-resize-original.jpg,1000,1.4075,0,4372,998,feet,jsons/v1_VE1000_randls_73.json,1617646,2390150,49,Woman
146,321987,DepthScenes,duration_manipulation_targetAtFixation,jsons/v1_VE1000_randls_73.json,http://54.235.29.9/FacialAge/BNav_EC2/DepthDuration/v2_depth_duration_MTurk/v2_DepthDuration_HTML.html#348,348,1670,939,1669,939,8-29-2022,9-43-9,147,depth_duration_stimuli/001056_2014-06-08_18-46-44_260595134347_rgbf000068-resize_0/001056_2014-06-08_18-46-44_260595134347_rgbf000068-resize_0-target.png,1000,2.6625,9,5953,999,feet,jsons/v1_VE1000_randls_73.json,1617646,2390150,49,Woman
147,321987,DepthScenes,duration_manipulation_targetAtFixation,jsons/v1_VE1000_randls_73.json,http://54.235.29.9/FacialAge/BNav_EC2/DepthDuration/v2_depth_duration_MTurk/v2_DepthDuration_HTML.html#348,348,1670,939,1669,939,8-29-2022,9-43-9,148,depth_duration_stimuli/002199_2014-06-28_18-33-56_260595134347_rgbf000074-resize_0/002199_2014-06-28_18-33-56_260595134347_rgbf000074-resize_0-target.png,1000,1.996,5,5439,999,feet,jsons/v1_VE1000_randls_73.json,1617646,2390150,49,Woman
148,321987,DepthScenes,duration_manipulation_targetAtFixation,jsons/v1_VE1000_randls_73.json,http://54.235.29.9/FacialAge/BNav_EC2/DepthDuration/v2_depth_duration_MTurk/v2_DepthDuration_HTML.html#348,348,1670,939,1669,939,8-29-2022,9-43-9,149,depth_duration_stimuli/001175_2014-06-17_15-45-55_260595134347_rgbf000129-resize_4/001175_2014-06-17_15-45-55_260595134347_rgbf000129-resize_4-target.png,1000,4.255,11,4418,999,feet,jsons/v1_VE1000_randls_73.json,1617646,2390150,49,Woman
149,321987,DepthScenes,duration_manipulation_targetAtFixation,jsons/v1_VE1000_randls_73.json,http://54.235.29.9/FacialAge/BNav_EC2/DepthDuration/v2_depth_duration_MTurk/v2_DepthDuration_HTML.html#348,348,1670,939,1669,939,8-29-2022,9-43-9,150,depth_duration_stimuli/003490_2014-05-21_15-50-11_094959634447_rgbf000101-resize_3/003490_2014-05-21_15-50-11_094959634447_rgbf000101-resize_3-target.png,1000,3.6445,10,5651,999,feet,jsons/v1_VE1000_randls_73.json,1617646,2390150,49,Woman
150,321987,DepthScenes,duration_manipulation_targetAtFixation,jsons/v1_VE1000_randls_73.json,http://54.235.29.9/FacialAge/BNav_EC2/DepthDuration/v2_depth_duration_MTurk/v2_DepthDuration_HTML.html#348,348,1670,939,1669,939,8-29-2022,9-43-9,151,depth_duration_stimuli/002375_2014-06-28_20-13-44_260595134347_rgbf000032-resize_1/002375_2014-06-28_20-13-44_260595134347_rgbf000032-resize_1-target.png,1000,4.0175,9,5714,996,feet,jsons/v1_VE1000_randls_73.json,1617646,2390150,49,Woman
151,321987,DepthScenes,duration_manipulation_targetAtFixation,jsons/v1_VE1000_randls_73.json,http://54.235.29.9/FacialAge/BNav_EC2/DepthDuration/v2_depth_duration_MTurk/v2_DepthDuration_HTML.html#348,348,1670,939,1669,939,8-29-2022,9-43-9,152,depth_duration_stimuli/002657_2014-06-13_15-29-54_094959634447_rgbf000150-resize_1/002657_2014-06-13_15-29-54_094959634447_rgbf000150-resize_1-target.png,1000,4.919,10,5186,998,feet,jsons/v1_VE1000_randls_73.json,1617646,2390150,49,Woman
152,321987,DepthScenes,duration_manipulation_targetAtFixation,jsons/v1_VE1000_randls_73.json,http://54.235.29.9/FacialAge/BNav_EC2/DepthDuration/v2_depth_duration_MTurk/v2_DepthDuration_HTML.html#348,348,1670,939,1669,939,8-29-2022,9-43-9,153,depth_duration_stimuli/002118_2014-06-25_20-32-08_260595134347_rgbf000078-resize_1/002118_2014-06-25_20-32-08_260595134347_rgbf000078-resize_1-target.png,1000,2.6460000000000004,9,7486,998,feet,jsons/v1_VE1000_randls_73.json,1617646,2390150,49,Woman
153,321987,DepthScenes,duration_manipulation_targetAtFixation,jsons/v1_VE1000_randls_73.json,http://54.235.29.9/FacialAge/BNav_EC2/DepthDuration/v2_depth_duration_MTurk/v2_DepthDuration_HTML.html#348,348,1670,939,1669,939,8-29-2022,9-43-9,154,depth_duration_stimuli/001516_2014-06-20_16-25-09_260595134347_rgbf000076-resize_2/001516_2014-06-20_16-25-09_260595134347_rgbf000076-resize_2-target.png,1000,1.7445,8,10085,999,feet,jsons/v1_VE1000_randls_73.json,1617646,2390150,49,Woman
154,321987,DepthScenes,duration_manipulation_targetAtFixation,jsons/v1_VE1000_randls_73.json,http://54.235.29.9/FacialAge/BNav_EC2/DepthDuration/v2_depth_duration_MTurk/v2_DepthDuration_HTML.html#348,348,1670,939,1669,939,8-29-2022,9-43-9,155,depth_duration_stimuli/000929_2014-06-09_16-33-19_260595134347_rgbf000139-resize_0/000929_2014-06-09_16-33-19_260595134347_rgbf000139-resize_0-target.png,1000,2.8680000000000003,11,5532,999,feet,jsons/v1_VE1000_randls_73.json,1617646,2390150,49,Woman
155,321987,DepthScenes,duration_manipulation_targetAtFixation,jsons/v1_VE1000_randls_73.json,http://54.235.29.9/FacialAge/BNav_EC2/DepthDuration/v2_depth_duration_MTurk/v2_DepthDuration_HTML.html#348,348,1670,939,1669,939,8-29-2022,9-43-9,156,depth_duration_stimuli/000457_2014-06-08_16-52-43_260595134347_rgbf000199-resize_1/000457_2014-06-08_16-52-43_260595134347_rgbf000199-resize_1-target.png,1000,3.6489999999999996,13,5015,999,feet,jsons/v1_VE1000_randls_73.json,1617646,2390150,49,Woman
156,321987,DepthScenes,duration_manipulation_targetAtFixation,jsons/v1_VE1000_randls_73.json,http://54.235.29.9/FacialAge/BNav_EC2/DepthDuration/v2_depth_duration_MTurk/v2_DepthDuration_HTML.html#348,348,1670,939,1669,939,8-29-2022,9-43-9,157,depth_duration_stimuli/001133_2014-06-17_14-49-16_260595134347_rgbf000100-resize_0/001133_2014-06-17_14-49-16_260595134347_rgbf000100-resize_0-target.png,1000,4.2115,14,5792,999,feet,jsons/v1_VE1000_randls_73.json,1617646,2390150,49,Woman
157,321987,DepthScenes,duration_manipulation_targetAtFixation,jsons/v1_VE1000_randls_73.json,http://54.235.29.9/FacialAge/BNav_EC2/DepthDuration/v2_depth_duration_MTurk/v2_DepthDuration_HTML.html#348,348,1670,939,1669,939,8-29-2022,9-43-9,158,depth_duration_stimuli/001132_2014-06-17_14-48-54_260595134347_rgbf000100-resize_2/001132_2014-06-17_14-48-54_260595134347_rgbf000100-resize_2-target.png,1000,3.753,10,8213,999,feet,jsons/v1_VE1000_randls_73.json,1617646,2390150,49,Woman
158,321987,DepthScenes,duration_manipulation_targetAtFixation,jsons/v1_VE1000_randls_73.json,http://54.235.29.9/FacialAge/BNav_EC2/DepthDuration/v2_depth_duration_MTurk/v2_DepthDuration_HTML.html#348,348,1670,939,1669,939,8-29-2022,9-43-9,159,depth_duration_stimuli/003492_2014-05-21_15-50-55_094959634447_rgbf000828-resize_1/003492_2014-05-21_15-50-55_094959634447_rgbf000828-resize_1-target.png,1000,4.06875,14,5940,1000,feet,jsons/v1_VE1000_randls_73.json,1617646,2390150,49,Woman
159,321987,DepthScenes,duration_manipulation_targetAtFixation,jsons/v1_VE1000_randls_73.json,http://54.235.29.9/FacialAge/BNav_EC2/DepthDuration/v2_depth_duration_MTurk/v2_DepthDuration_HTML.html#348,348,1670,939,1669,939,8-29-2022,9-43-9,160,depth_duration_stimuli/002568_2014-06-24_13-59-21_094959634447_rgbf000062-resize_4/002568_2014-06-24_13-59-21_094959634447_rgbf000062-resize_4-target.png,1000,3.015,9,4909,998,feet,jsons/v1_VE1000_randls_73.json,1617646,2390150,49,Woman
160,321987,DepthScenes,duration_manipulation_targetAtFixation,jsons/v1_VE1000_randls_73.json,http://54.235.29.9/FacialAge/BNav_EC2/DepthDuration/v2_depth_duration_MTurk/v2_DepthDuration_HTML.html#348,348,1670,939,1669,939,8-29-2022,9-43-9,161,depth_duration_stimuli/002630_2014-06-24_14-47-50_094959634447_rgbf000055-resize_1/002630_2014-06-24_14-47-50_094959634447_rgbf000055-resize_1-target.png,1000,3.0095,11,5028,998,feet,jsons/v1_VE1000_randls_73.json,1617646,2390150,49,Woman
161,321987,DepthScenes,duration_manipulation_targetAtFixation,jsons/v1_VE1000_randls_73.json,http://54.235.29.9/FacialAge/BNav_EC2/DepthDuration/v2_depth_duration_MTurk/v2_DepthDuration_HTML.html#348,348,1670,939,1669,939,8-29-2022,9-43-9,162,depth_duration_stimuli/002758_2014-06-22_19-11-20_094959634447_rgbf000128-resize_1/002758_2014-06-22_19-11-20_094959634447_rgbf000128-resize_1-target.png,1000,2.555,8,6104,999,feet,jsons/v1_VE1000_randls_73.json,1617646,2390150,49,Woman
162,321987,DepthScenes,duration_manipulation_targetAtFixation,jsons/v1_VE1000_randls_73.json,http://54.235.29.9/FacialAge/BNav_EC2/DepthDuration/v2_depth_duration_MTurk/v2_DepthDuration_HTML.html#348,348,1670,939,1669,939,8-29-2022,9-43-9,163,depth_duration_stimuli/002788_2014-06-22_19-36-03_094959634447_rgbf000088-resize_2/002788_2014-06-22_19-36-03_094959634447_rgbf000088-resize_2-target.png,1000,1.6465,10,5341,1000,feet,jsons/v1_VE1000_randls_73.json,1617646,2390150,49,Woman
163,321987,DepthScenes,duration_manipulation_targetAtFixation,jsons/v1_VE1000_randls_73.json,http://54.235.29.9/FacialAge/BNav_EC2/DepthDuration/v2_depth_duration_MTurk/v2_DepthDuration_HTML.html#348,348,1670,939,1669,939,8-29-2022,9-43-9,164,depth_duration_stimuli/000749_2014-06-08_21-55-06_260595134347_rgbf000070-resize_2/000749_2014-06-08_21-55-06_260595134347_rgbf000070-resize_2-target.png,1000,2.331,7,4420,999,feet,jsons/v1_VE1000_randls_73.json,1617646,2390150,49,Woman
