,subjID,experimentName,versionName,sequenceName,url,selected_row,windowWidth,windowHeight,screenWidth,screenHeight,startDate,startTime,trial,stimulus,duration,actual_depth,depth_estimate,trial_RT,log_sceneDuration,unitSelection,seq_filepath,experimentTime,totalTime,age,gender
0,322366,DepthScenes,duration_manipulation_targetAtFixation,jsons/VE125_randls_60_rotated.json,http://54.235.29.9/FacialAge/BNav_EC2/DepthDuration/v2_depth_duration_MTurk/v2_DepthDuration_HTML.html#115,115,1280,609,1280,720,8-21-2022,8-55-38,1,depth_duration_stimuli/001032_2014-06-08_13-23-17_260595134347_rgbf000021-resize_3/001032_2014-06-08_13-23-17_260595134347_rgbf000021-resize_3-target.png,125,3.2725,6,3039,124,feet,jsons/VE125_randls_60_rotated.json,497131,613228,25,Man
1,322366,DepthScenes,duration_manipulation_targetAtFixation,jsons/VE125_randls_60_rotated.json,http://54.235.29.9/FacialAge/BNav_EC2/DepthDuration/v2_depth_duration_MTurk/v2_DepthDuration_HTML.html#115,115,1280,609,1280,720,8-21-2022,8-55-38,2,depth_duration_stimuli/001059_2014-06-08_21-53-27_260595134347_rgbf000061-resize_4/001059_2014-06-08_21-53-27_260595134347_rgbf000061-resize_4-target.png,125,2.4185,8,3612,121,feet,jsons/VE125_randls_60_rotated.json,497131,613228,25,Man
2,322366,DepthScenes,duration_manipulation_targetAtFixation,jsons/VE125_randls_60_rotated.json,http://54.235.29.9/FacialAge/BNav_EC2/DepthDuration/v2_depth_duration_MTurk/v2_DepthDuration_HTML.html#115,115,1280,609,1280,720,8-21-2022,8-55-38,3,depth_duration_stimuli/003083_2014-06-15_15-21-03_094959634447_rgbf000063-resize_1/003083_2014-06-15_15-21-03_094959634447_rgbf000063-resize_1-target.png,125,4.1405,8,3647,124,feet,jsons/VE125_randls_60_rotated.json,497131,613228,25,Man
3,322366,DepthScenes,duration_manipulation_targetAtFixation,jsons/VE125_randls_60_rotated.json,http://54.235.29.9/FacialAge/BNav_EC2/DepthDuration/v2_depth_duration_MTurk/v2_DepthDuration_HTML.html#115,115,1280,609,1280,720,8-21-2022,8-55-38,4,depth_duration_stimuli/000486_2014-06-09_20-47-20_260595134347_rgbf000143-resize_2/000486_2014-06-09_20-47-20_260595134347_rgbf000143-resize_2-target.png,125,4.8325,6,2491,140,feet,jsons/VE125_randls_60_rotated.json,497131,613228,25,Man
4,322366,DepthScenes,duration_manipulation_targetAtFixation,jsons/VE125_randls_60_rotated.json,http://54.235.29.9/FacialAge/BNav_EC2/DepthDuration/v2_depth_duration_MTurk/v2_DepthDuration_HTML.html#115,115,1280,609,1280,720,8-21-2022,8-55-38,5,depth_duration_stimuli/000709_2014-06-08_13-51-55_260595134347_rgbf000068-resize_3/000709_2014-06-08_13-51-55_260595134347_rgbf000068-resize_3-target.png,125,1.8030000000000002,5,2349,124,feet,jsons/VE125_randls_60_rotated.json,497131,613228,25,Man
5,322366,DepthScenes,duration_manipulation_targetAtFixation,jsons/VE125_randls_60_rotated.json,http://54.235.29.9/FacialAge/BNav_EC2/DepthDuration/v2_depth_duration_MTurk/v2_DepthDuration_HTML.html#115,115,1280,609,1280,720,8-21-2022,8-55-38,6,depth_duration_stimuli/002057_2014-06-24_21-00-13_260595134347_rgbf000120-resize_1/002057_2014-06-24_21-00-13_260595134347_rgbf000120-resize_1-target.png,125,2.967,5,1712,128,feet,jsons/VE125_randls_60_rotated.json,497131,613228,25,Man
6,322366,DepthScenes,duration_manipulation_targetAtFixation,jsons/VE125_randls_60_rotated.json,http://54.235.29.9/FacialAge/BNav_EC2/DepthDuration/v2_depth_duration_MTurk/v2_DepthDuration_HTML.html#115,115,1280,609,1280,720,8-21-2022,8-55-38,7,depth_duration_stimuli/001214_2014-06-17_16-13-55_260595134347_rgbf000111-resize_0/001214_2014-06-17_16-13-55_260595134347_rgbf000111-resize_0-target.png,125,2.6505,4,1847,124,feet,jsons/VE125_randls_60_rotated.json,497131,613228,25,Man
7,322366,DepthScenes,duration_manipulation_targetAtFixation,jsons/VE125_randls_60_rotated.json,http://54.235.29.9/FacialAge/BNav_EC2/DepthDuration/v2_depth_duration_MTurk/v2_DepthDuration_HTML.html#115,115,1280,609,1280,720,8-21-2022,8-55-38,8,depth_duration_stimuli/000810_2014-06-08_17-20-01_260595134347_rgbf000105-resize_0/000810_2014-06-08_17-20-01_260595134347_rgbf000105-resize_0-target.png,125,1.4865,4,2333,124,feet,jsons/VE125_randls_60_rotated.json,497131,613228,25,Man
8,322366,DepthScenes,duration_manipulation_targetAtFixation,jsons/VE125_randls_60_rotated.json,http://54.235.29.9/FacialAge/BNav_EC2/DepthDuration/v2_depth_duration_MTurk/v2_DepthDuration_HTML.html#115,115,1280,609,1280,720,8-21-2022,8-55-38,9,depth_duration_stimuli/003048_2014-06-15_13-49-43_094959634447_rgbf000150-resize_1/003048_2014-06-15_13-49-43_094959634447_rgbf000150-resize_1-target.png,125,4.0035,2,2207,125,feet,jsons/VE125_randls_60_rotated.json,497131,613228,25,Man
9,322366,DepthScenes,duration_manipulation_targetAtFixation,jsons/VE125_randls_60_rotated.json,http://54.235.29.9/FacialAge/BNav_EC2/DepthDuration/v2_depth_duration_MTurk/v2_DepthDuration_HTML.html#115,115,1280,609,1280,720,8-21-2022,8-55-38,10,depth_duration_stimuli/002043_2014-06-24_20-29-38_260595134347_rgbf000039-resize_4/002043_2014-06-24_20-29-38_260595134347_rgbf000039-resize_4-target.png,125,2.8435,7,2637,121,feet,jsons/VE125_randls_60_rotated.json,497131,613228,25,Man
10,322366,DepthScenes,duration_manipulation_targetAtFixation,jsons/VE125_randls_60_rotated.json,http://54.235.29.9/FacialAge/BNav_EC2/DepthDuration/v2_depth_duration_MTurk/v2_DepthDuration_HTML.html#115,115,1280,609,1280,720,8-21-2022,8-55-38,11,depth_duration_stimuli/001136_2014-06-17_15-19-41_260595134347_rgbf000076-resize_3/001136_2014-06-17_15-19-41_260595134347_rgbf000076-resize_3-target.png,125,1.8655,5,2783,124,feet,jsons/VE125_randls_60_rotated.json,497131,613228,25,Man
11,322366,DepthScenes,duration_manipulation_targetAtFixation,jsons/VE125_randls_60_rotated.json,http://54.235.29.9/FacialAge/BNav_EC2/DepthDuration/v2_depth_duration_MTurk/v2_DepthDuration_HTML.html#115,115,1280,609,1280,720,8-21-2022,8-55-38,12,depth_duration_stimuli/001164_2014-06-17_15-35-46_260595134347_rgbf000085-resize_3/001164_2014-06-17_15-35-46_260595134347_rgbf000085-resize_3-target.png,125,2.354,4,3019,119,feet,jsons/VE125_randls_60_rotated.json,497131,613228,25,Man
12,322366,DepthScenes,duration_manipulation_targetAtFixation,jsons/VE125_randls_60_rotated.json,http://54.235.29.9/FacialAge/BNav_EC2/DepthDuration/v2_depth_duration_MTurk/v2_DepthDuration_HTML.html#115,115,1280,609,1280,720,8-21-2022,8-55-38,13,depth_duration_stimuli/000483_2014-06-09_20-41-45_260595134347_rgbf000116-resize_4/000483_2014-06-09_20-41-45_260595134347_rgbf000116-resize_4-target.png,125,1.337,6,6112,126,feet,jsons/VE125_randls_60_rotated.json,497131,613228,25,Man
13,322366,DepthScenes,duration_manipulation_targetAtFixation,jsons/VE125_randls_60_rotated.json,http://54.235.29.9/FacialAge/BNav_EC2/DepthDuration/v2_depth_duration_MTurk/v2_DepthDuration_HTML.html#115,115,1280,609,1280,720,8-21-2022,8-55-38,14,depth_duration_stimuli/000469_2014-06-09_19-42-10_260595134347_rgbf000081-resize_1/000469_2014-06-09_19-42-10_260595134347_rgbf000081-resize_1-target.png,125,1.652,3,2254,121,feet,jsons/VE125_randls_60_rotated.json,497131,613228,25,Man
14,322366,DepthScenes,duration_manipulation_targetAtFixation,jsons/VE125_randls_60_rotated.json,http://54.235.29.9/FacialAge/BNav_EC2/DepthDuration/v2_depth_duration_MTurk/v2_DepthDuration_HTML.html#115,115,1280,609,1280,720,8-21-2022,8-55-38,15,depth_duration_stimuli/002414_2014-06-28_20-24-58_260595134347_rgbf000067-resize_4/002414_2014-06-28_20-24-58_260595134347_rgbf000067-resize_4-target.png,125,4.363,4,2369,117,feet,jsons/VE125_randls_60_rotated.json,497131,613228,25,Man
15,322366,DepthScenes,duration_manipulation_targetAtFixation,jsons/VE125_randls_60_rotated.json,http://54.235.29.9/FacialAge/BNav_EC2/DepthDuration/v2_depth_duration_MTurk/v2_DepthDuration_HTML.html#115,115,1280,609,1280,720,8-21-2022,8-55-38,16,depth_duration_stimuli/000773_2014-06-08_22-24-54_260595134347_rgbf000093-resize_1/000773_2014-06-08_22-24-54_260595134347_rgbf000093-resize_1-target.png,125,4.973,4,2286,116,feet,jsons/VE125_randls_60_rotated.json,497131,613228,25,Man
16,322366,DepthScenes,duration_manipulation_targetAtFixation,jsons/VE125_randls_60_rotated.json,http://54.235.29.9/FacialAge/BNav_EC2/DepthDuration/v2_depth_duration_MTurk/v2_DepthDuration_HTML.html#115,115,1280,609,1280,720,8-21-2022,8-55-38,17,depth_duration_stimuli/001392_2014-06-19_16-07-59_260595134347_rgbf000046-resize_1/001392_2014-06-19_16-07-59_260595134347_rgbf000046-resize_1-target.png,125,4.135,4,2494,119,feet,jsons/VE125_randls_60_rotated.json,497131,613228,25,Man
17,322366,DepthScenes,duration_manipulation_targetAtFixation,jsons/VE125_randls_60_rotated.json,http://54.235.29.9/FacialAge/BNav_EC2/DepthDuration/v2_depth_duration_MTurk/v2_DepthDuration_HTML.html#115,115,1280,609,1280,720,8-21-2022,8-55-38,18,depth_duration_stimuli/001570_2014-06-20_17-21-09_260595134347_rgbf000135-resize_4/001570_2014-06-20_17-21-09_260595134347_rgbf000135-resize_4-target.png,125,4.467,3,2740,120,feet,jsons/VE125_randls_60_rotated.json,497131,613228,25,Man
18,322366,DepthScenes,duration_manipulation_targetAtFixation,jsons/VE125_randls_60_rotated.json,http://54.235.29.9/FacialAge/BNav_EC2/DepthDuration/v2_depth_duration_MTurk/v2_DepthDuration_HTML.html#115,115,1280,609,1280,720,8-21-2022,8-55-38,19,depth_duration_stimuli/001498_2014-06-19_17-45-14_260595134347_rgbf000129-resize_4/001498_2014-06-19_17-45-14_260595134347_rgbf000129-resize-original.jpg,125,1.4075,6,2468,116,feet,jsons/VE125_randls_60_rotated.json,497131,613228,25,Man
19,322366,DepthScenes,duration_manipulation_targetAtFixation,jsons/VE125_randls_60_rotated.json,http://54.235.29.9/FacialAge/BNav_EC2/DepthDuration/v2_depth_duration_MTurk/v2_DepthDuration_HTML.html#115,115,1280,609,1280,720,8-21-2022,8-55-38,20,depth_duration_stimuli/002639_2014-06-24_14-51-37_094959634447_rgbf000074-resize_4/002639_2014-06-24_14-51-37_094959634447_rgbf000074-resize_4-target.png,125,4.0375,8,2373,116,feet,jsons/VE125_randls_60_rotated.json,497131,613228,25,Man
20,322366,DepthScenes,duration_manipulation_targetAtFixation,jsons/VE125_randls_60_rotated.json,http://54.235.29.9/FacialAge/BNav_EC2/DepthDuration/v2_depth_duration_MTurk/v2_DepthDuration_HTML.html#115,115,1280,609,1280,720,8-21-2022,8-55-38,21,depth_duration_stimuli/003292_2014-05-14_21-53-49_094959634447_rgbf000100-resize_2/003292_2014-05-14_21-53-49_094959634447_rgbf000100-resize_2-target.png,125,3.4815,0,2336,120,feet,jsons/VE125_randls_60_rotated.json,497131,613228,25,Man
21,322366,DepthScenes,duration_manipulation_targetAtFixation,jsons/VE125_randls_60_rotated.json,http://54.235.29.9/FacialAge/BNav_EC2/DepthDuration/v2_depth_duration_MTurk/v2_DepthDuration_HTML.html#115,115,1280,609,1280,720,8-21-2022,8-55-38,22,depth_duration_stimuli/000635_2014-06-08_16-38-42_260595134347_rgbf000106-resize_1/000635_2014-06-08_16-38-42_260595134347_rgbf000106-resize_1-target.png,125,2.074,7,2410,127,feet,jsons/VE125_randls_60_rotated.json,497131,613228,25,Man
22,322366,DepthScenes,duration_manipulation_targetAtFixation,jsons/VE125_randls_60_rotated.json,http://54.235.29.9/FacialAge/BNav_EC2/DepthDuration/v2_depth_duration_MTurk/v2_DepthDuration_HTML.html#115,115,1280,609,1280,720,8-21-2022,8-55-38,23,depth_duration_stimuli/002279_2014-06-28_18-55-32_260595134347_rgbf000040-resize_5/002279_2014-06-28_18-55-32_260595134347_rgbf000040-resize_5-target.png,125,1.5043333333333,4,2274,127,feet,jsons/VE125_randls_60_rotated.json,497131,613228,25,Man
23,322366,DepthScenes,duration_manipulation_targetAtFixation,jsons/VE125_randls_60_rotated.json,http://54.235.29.9/FacialAge/BNav_EC2/DepthDuration/v2_depth_duration_MTurk/v2_DepthDuration_HTML.html#115,115,1280,609,1280,720,8-21-2022,8-55-38,24,depth_duration_stimuli/000742_2014-06-08_18-48-09_260595134347_rgbf000164-resize_4/000742_2014-06-08_18-48-09_260595134347_rgbf000164-resize_4-target.png,125,4.632,5,2308,126,feet,jsons/VE125_randls_60_rotated.json,497131,613228,25,Man
24,322366,DepthScenes,duration_manipulation_targetAtFixation,jsons/VE125_randls_60_rotated.json,http://54.235.29.9/FacialAge/BNav_EC2/DepthDuration/v2_depth_duration_MTurk/v2_DepthDuration_HTML.html#115,115,1280,609,1280,720,8-21-2022,8-55-38,25,depth_duration_stimuli/001066_2014-06-08_22-03-20_260595134347_rgbf000066-resize_4/001066_2014-06-08_22-03-20_260595134347_rgbf000066-resize_4-target.png,125,4.2330000000000005,5,2428,132,feet,jsons/VE125_randls_60_rotated.json,497131,613228,25,Man
25,322366,DepthScenes,duration_manipulation_targetAtFixation,jsons/VE125_randls_60_rotated.json,http://54.235.29.9/FacialAge/BNav_EC2/DepthDuration/v2_depth_duration_MTurk/v2_DepthDuration_HTML.html#115,115,1280,609,1280,720,8-21-2022,8-55-38,26,depth_duration_stimuli/003423_2014-05-21_10-23-26_094959634447_rgbf002665-resize_2/003423_2014-05-21_10-23-26_094959634447_rgbf002665-resize_2-target.png,125,3.2575,5,2488,136,feet,jsons/VE125_randls_60_rotated.json,497131,613228,25,Man
26,322366,DepthScenes,duration_manipulation_targetAtFixation,jsons/VE125_randls_60_rotated.json,http://54.235.29.9/FacialAge/BNav_EC2/DepthDuration/v2_depth_duration_MTurk/v2_DepthDuration_HTML.html#115,115,1280,609,1280,720,8-21-2022,8-55-38,27,depth_duration_stimuli/002905_2014-06-03_18-04-43_094959634447_rgbf000151-resize_2/002905_2014-06-03_18-04-43_094959634447_rgbf000151-resize_2-target.png,125,2.0295,4,2488,119,feet,jsons/VE125_randls_60_rotated.json,497131,613228,25,Man
27,322366,DepthScenes,duration_manipulation_targetAtFixation,jsons/VE125_randls_60_rotated.json,http://54.235.29.9/FacialAge/BNav_EC2/DepthDuration/v2_depth_duration_MTurk/v2_DepthDuration_HTML.html#115,115,1280,609,1280,720,8-21-2022,8-55-38,28,depth_duration_stimuli/001828_2014-06-26_21-40-03_260595134347_rgbf000024-resize_0/001828_2014-06-26_21-40-03_260595134347_rgbf000024-resize_0-target.png,125,4.8260000000000005,3,2505,117,feet,jsons/VE125_randls_60_rotated.json,497131,613228,25,Man
28,322366,DepthScenes,duration_manipulation_targetAtFixation,jsons/VE125_randls_60_rotated.json,http://54.235.29.9/FacialAge/BNav_EC2/DepthDuration/v2_depth_duration_MTurk/v2_DepthDuration_HTML.html#115,115,1280,609,1280,720,8-21-2022,8-55-38,29,depth_duration_stimuli/000009_2014-05-26_14-32-05_260595134347_rgbf000034-resize_3/000009_2014-05-26_14-32-05_260595134347_rgbf000034-resize_3-target.png,125,3.8715,6,2685,119,feet,jsons/VE125_randls_60_rotated.json,497131,613228,25,Man
29,322366,DepthScenes,duration_manipulation_targetAtFixation,jsons/VE125_randls_60_rotated.json,http://54.235.29.9/FacialAge/BNav_EC2/DepthDuration/v2_depth_duration_MTurk/v2_DepthDuration_HTML.html#115,115,1280,609,1280,720,8-21-2022,8-55-38,30,depth_duration_stimuli/002072_2014-06-24_21-48-06_260595134347_rgbf000115-resize_0/002072_2014-06-24_21-48-06_260595134347_rgbf000115-resize-original.jpg,125,4.702,0,2192,125,feet,jsons/VE125_randls_60_rotated.json,497131,613228,25,Man
30,322366,DepthScenes,duration_manipulation_targetAtFixation,jsons/VE125_randls_60_rotated.json,http://54.235.29.9/FacialAge/BNav_EC2/DepthDuration/v2_depth_duration_MTurk/v2_DepthDuration_HTML.html#115,115,1280,609,1280,720,8-21-2022,8-55-38,31,depth_duration_stimuli/002444_2014-06-28_20-32-08_260595134347_rgbf000027-resize_0/002444_2014-06-28_20-32-08_260595134347_rgbf000027-resize_0-target.png,125,4.388999999999999,10,3219,134,feet,jsons/VE125_randls_60_rotated.json,497131,613228,25,Man
31,322366,DepthScenes,duration_manipulation_targetAtFixation,jsons/VE125_randls_60_rotated.json,http://54.235.29.9/FacialAge/BNav_EC2/DepthDuration/v2_depth_duration_MTurk/v2_DepthDuration_HTML.html#115,115,1280,609,1280,720,8-21-2022,8-55-38,32,depth_duration_stimuli/000436_2014-06-09_22-25-11_260595134347_rgbf000137-resize_1/000436_2014-06-09_22-25-11_260595134347_rgbf000137-resize_1-target.png,125,4.0705,8,2642,133,feet,jsons/VE125_randls_60_rotated.json,497131,613228,25,Man
32,322366,DepthScenes,duration_manipulation_targetAtFixation,jsons/VE125_randls_60_rotated.json,http://54.235.29.9/FacialAge/BNav_EC2/DepthDuration/v2_depth_duration_MTurk/v2_DepthDuration_HTML.html#115,115,1280,609,1280,720,8-21-2022,8-55-38,33,depth_duration_stimuli/000927_2014-06-09_16-32-30_260595134347_rgbf000123-resize_3/000927_2014-06-09_16-32-30_260595134347_rgbf000123-resize_3-target.png,125,2.6785,5,2902,127,feet,jsons/VE125_randls_60_rotated.json,497131,613228,25,Man
33,322366,DepthScenes,duration_manipulation_targetAtFixation,jsons/VE125_randls_60_rotated.json,http://54.235.29.9/FacialAge/BNav_EC2/DepthDuration/v2_depth_duration_MTurk/v2_DepthDuration_HTML.html#115,115,1280,609,1280,720,8-21-2022,8-55-38,34,depth_duration_stimuli/001110_2014-06-15_17-25-28_260595134347_rgbf000150-resize_1/001110_2014-06-15_17-25-28_260595134347_rgbf000150-resize_1-target.png,125,1.7115,5,2424,125,feet,jsons/VE125_randls_60_rotated.json,497131,613228,25,Man
34,322366,DepthScenes,duration_manipulation_targetAtFixation,jsons/VE125_randls_60_rotated.json,http://54.235.29.9/FacialAge/BNav_EC2/DepthDuration/v2_depth_duration_MTurk/v2_DepthDuration_HTML.html#115,115,1280,609,1280,720,8-21-2022,8-55-38,35,depth_duration_stimuli/003495_2014-05-21_16-01-51_094959634447_rgbf000100-resize_3/003495_2014-05-21_16-01-51_094959634447_rgbf000100-resize_3-target.png,125,1.6255,3,2203,113,feet,jsons/VE125_randls_60_rotated.json,497131,613228,25,Man
35,322366,DepthScenes,duration_manipulation_targetAtFixation,jsons/VE125_randls_60_rotated.json,http://54.235.29.9/FacialAge/BNav_EC2/DepthDuration/v2_depth_duration_MTurk/v2_DepthDuration_HTML.html#115,115,1280,609,1280,720,8-21-2022,8-55-38,36,depth_duration_stimuli/001244_2014-06-17_16-47-45_260595134347_rgbf000030-resize_4/001244_2014-06-17_16-47-45_260595134347_rgbf000030-resize_4-target.png,125,2.0425,7,2424,124,feet,jsons/VE125_randls_60_rotated.json,497131,613228,25,Man
36,322366,DepthScenes,duration_manipulation_targetAtFixation,jsons/VE125_randls_60_rotated.json,http://54.235.29.9/FacialAge/BNav_EC2/DepthDuration/v2_depth_duration_MTurk/v2_DepthDuration_HTML.html#115,115,1280,609,1280,720,8-21-2022,8-55-38,37,depth_duration_stimuli/001815_2014-06-26_20-52-55_260595134347_rgbf000020-resize_0/001815_2014-06-26_20-52-55_260595134347_rgbf000020-resize_0-target.png,125,3.3865,7,1854,125,feet,jsons/VE125_randls_60_rotated.json,497131,613228,25,Man
37,322366,DepthScenes,duration_manipulation_targetAtFixation,jsons/VE125_randls_60_rotated.json,http://54.235.29.9/FacialAge/BNav_EC2/DepthDuration/v2_depth_duration_MTurk/v2_DepthDuration_HTML.html#115,115,1280,609,1280,720,8-21-2022,8-55-38,38,depth_duration_stimuli/001808_2014-06-26_20-50-58_260595134347_rgbf000029-resize_1/001808_2014-06-26_20-50-58_260595134347_rgbf000029-resize_1-target.png,125,4.249,7,1863,117,feet,jsons/VE125_randls_60_rotated.json,497131,613228,25,Man
38,322366,DepthScenes,duration_manipulation_targetAtFixation,jsons/VE125_randls_60_rotated.json,http://54.235.29.9/FacialAge/BNav_EC2/DepthDuration/v2_depth_duration_MTurk/v2_DepthDuration_HTML.html#115,115,1280,609,1280,720,8-21-2022,8-55-38,39,depth_duration_stimuli/001052_2014-06-08_18-24-54_260595134347_rgbf000130-resize_1/001052_2014-06-08_18-24-54_260595134347_rgbf000130-resize_1-target.png,125,4.1045,8,2352,127,feet,jsons/VE125_randls_60_rotated.json,497131,613228,25,Man
39,322366,DepthScenes,duration_manipulation_targetAtFixation,jsons/VE125_randls_60_rotated.json,http://54.235.29.9/FacialAge/BNav_EC2/DepthDuration/v2_depth_duration_MTurk/v2_DepthDuration_HTML.html#115,115,1280,609,1280,720,8-21-2022,8-55-38,40,depth_duration_stimuli/002988_2014-06-15_12-24-20_094959634447_rgbf000150-resize_1/002988_2014-06-15_12-24-20_094959634447_rgbf000150-resize_1-target.png,125,4.7669999999999995,8,2461,125,feet,jsons/VE125_randls_60_rotated.json,497131,613228,25,Man
40,322366,DepthScenes,duration_manipulation_targetAtFixation,jsons/VE125_randls_60_rotated.json,http://54.235.29.9/FacialAge/BNav_EC2/DepthDuration/v2_depth_duration_MTurk/v2_DepthDuration_HTML.html#115,115,1280,609,1280,720,8-21-2022,8-55-38,41,depth_duration_stimuli/001571_2014-06-20_17-21-32_260595134347_rgbf000089-resize_1/001571_2014-06-20_17-21-32_260595134347_rgbf000089-resize_1-target.png,125,1.86,3,2389,117,feet,jsons/VE125_randls_60_rotated.json,497131,613228,25,Man
41,322366,DepthScenes,duration_manipulation_targetAtFixation,jsons/VE125_randls_60_rotated.json,http://54.235.29.9/FacialAge/BNav_EC2/DepthDuration/v2_depth_duration_MTurk/v2_DepthDuration_HTML.html#115,115,1280,609,1280,720,8-21-2022,8-55-38,42,depth_duration_stimuli/002272_2014-06-28_18-53-56_260595134347_rgbf000067-resize_2/002272_2014-06-28_18-53-56_260595134347_rgbf000067-resize_2-target.png,125,1.138,3,3157,115,feet,jsons/VE125_randls_60_rotated.json,497131,613228,25,Man
42,322366,DepthScenes,duration_manipulation_targetAtFixation,jsons/VE125_randls_60_rotated.json,http://54.235.29.9/FacialAge/BNav_EC2/DepthDuration/v2_depth_duration_MTurk/v2_DepthDuration_HTML.html#115,115,1280,609,1280,720,8-21-2022,8-55-38,43,depth_duration_stimuli/002678_2014-06-13_16-15-32_094959634447_rgbf000151-resize_6/002678_2014-06-13_16-15-32_094959634447_rgbf000151-resize_6-target.png,125,2.1830000000000003,5,2852,122,feet,jsons/VE125_randls_60_rotated.json,497131,613228,25,Man
43,322366,DepthScenes,duration_manipulation_targetAtFixation,jsons/VE125_randls_60_rotated.json,http://54.235.29.9/FacialAge/BNav_EC2/DepthDuration/v2_depth_duration_MTurk/v2_DepthDuration_HTML.html#115,115,1280,609,1280,720,8-21-2022,8-55-38,44,depth_duration_stimuli/000368_2014-06-09_15-53-01_260595134347_rgbf000155-resize_2/000368_2014-06-09_15-53-01_260595134347_rgbf000155-resize_2-target.png,125,2.4859999999999998,4,2124,125,feet,jsons/VE125_randls_60_rotated.json,497131,613228,25,Man
44,322366,DepthScenes,duration_manipulation_targetAtFixation,jsons/VE125_randls_60_rotated.json,http://54.235.29.9/FacialAge/BNav_EC2/DepthDuration/v2_depth_duration_MTurk/v2_DepthDuration_HTML.html#115,115,1280,609,1280,720,8-21-2022,8-55-38,45,depth_duration_stimuli/001650_2014-06-20_12-09-00_260595134347_rgbf000087-resize_3/001650_2014-06-20_12-09-00_260595134347_rgbf000087-resize_3-target.png,125,1.9505,4,2026,124,feet,jsons/VE125_randls_60_rotated.json,497131,613228,25,Man
45,322366,DepthScenes,duration_manipulation_targetAtFixation,jsons/VE125_randls_60_rotated.json,http://54.235.29.9/FacialAge/BNav_EC2/DepthDuration/v2_depth_duration_MTurk/v2_DepthDuration_HTML.html#115,115,1280,609,1280,720,8-21-2022,8-55-38,46,depth_duration_stimuli/000682_2014-06-08_23-14-58_260595134347_rgbf000041-resize_5/000682_2014-06-08_23-14-58_260595134347_rgbf000041-resize_5-target.png,125,2.7239999999999998,4,4673,120,feet,jsons/VE125_randls_60_rotated.json,497131,613228,25,Man
46,322366,DepthScenes,duration_manipulation_targetAtFixation,jsons/VE125_randls_60_rotated.json,http://54.235.29.9/FacialAge/BNav_EC2/DepthDuration/v2_depth_duration_MTurk/v2_DepthDuration_HTML.html#115,115,1280,609,1280,720,8-21-2022,8-55-38,47,depth_duration_stimuli/000943_2014-06-09_19-31-07_260595134347_rgbf000128-resize_1/000943_2014-06-09_19-31-07_260595134347_rgbf000128-resize_1-target.png,125,1.9765,5,2765,115,feet,jsons/VE125_randls_60_rotated.json,497131,613228,25,Man
47,322366,DepthScenes,duration_manipulation_targetAtFixation,jsons/VE125_randls_60_rotated.json,http://54.235.29.9/FacialAge/BNav_EC2/DepthDuration/v2_depth_duration_MTurk/v2_DepthDuration_HTML.html#115,115,1280,609,1280,720,8-21-2022,8-55-38,48,depth_duration_stimuli/003070_2014-06-15_14-58-27_094959634447_rgbf000150-resize_3/003070_2014-06-15_14-58-27_094959634447_rgbf000150-resize_3-target.png,125,2.9415,0,2536,125,feet,jsons/VE125_randls_60_rotated.json,497131,613228,25,Man
48,322366,DepthScenes,duration_manipulation_targetAtFixation,jsons/VE125_randls_60_rotated.json,http://54.235.29.9/FacialAge/BNav_EC2/DepthDuration/v2_depth_duration_MTurk/v2_DepthDuration_HTML.html#115,115,1280,609,1280,720,8-21-2022,8-55-38,49,depth_duration_stimuli/001170_2014-06-17_15-43-44_260595134347_rgbf000096-resize_6/001170_2014-06-17_15-43-44_260595134347_rgbf000096-resize-original.jpg,125,1.1909999999999998,0,3527,124,feet,jsons/VE125_randls_60_rotated.json,497131,613228,25,Man
49,322366,DepthScenes,duration_manipulation_targetAtFixation,jsons/VE125_randls_60_rotated.json,http://54.235.29.9/FacialAge/BNav_EC2/DepthDuration/v2_depth_duration_MTurk/v2_DepthDuration_HTML.html#115,115,1280,609,1280,720,8-21-2022,8-55-38,50,depth_duration_stimuli/000677_2014-06-08_23-10-32_260595134347_rgbf000158-resize_6/000677_2014-06-08_23-10-32_260595134347_rgbf000158-resize_6-target.png,125,3.556,4,2507,113,feet,jsons/VE125_randls_60_rotated.json,497131,613228,25,Man
50,322366,DepthScenes,duration_manipulation_targetAtFixation,jsons/VE125_randls_60_rotated.json,http://54.235.29.9/FacialAge/BNav_EC2/DepthDuration/v2_depth_duration_MTurk/v2_DepthDuration_HTML.html#115,115,1280,609,1280,720,8-21-2022,8-55-38,51,depth_duration_stimuli/001029_2014-06-08_13-17-57_260595134347_rgbf000065-resize_1/001029_2014-06-08_13-17-57_260595134347_rgbf000065-resize_1-target.png,125,3.0835,6,2293,125,feet,jsons/VE125_randls_60_rotated.json,497131,613228,25,Man
51,322366,DepthScenes,duration_manipulation_targetAtFixation,jsons/VE125_randls_60_rotated.json,http://54.235.29.9/FacialAge/BNav_EC2/DepthDuration/v2_depth_duration_MTurk/v2_DepthDuration_HTML.html#115,115,1280,609,1280,720,8-21-2022,8-55-38,52,depth_duration_stimuli/002340_2014-06-28_20-05-46_260595134347_rgbf000113-resize_0/002340_2014-06-28_20-05-46_260595134347_rgbf000113-resize_0-target.png,125,2.4735,6,2619,124,feet,jsons/VE125_randls_60_rotated.json,497131,613228,25,Man
52,322366,DepthScenes,duration_manipulation_targetAtFixation,jsons/VE125_randls_60_rotated.json,http://54.235.29.9/FacialAge/BNav_EC2/DepthDuration/v2_depth_duration_MTurk/v2_DepthDuration_HTML.html#115,115,1280,609,1280,720,8-21-2022,8-55-38,53,depth_duration_stimuli/001016_2014-06-09_16-16-10_260595134347_rgbf000112-resize_5/001016_2014-06-09_16-16-10_260595134347_rgbf000112-resize_5-target.png,125,1.6565,8,2670,133,feet,jsons/VE125_randls_60_rotated.json,497131,613228,25,Man
53,322366,DepthScenes,duration_manipulation_targetAtFixation,jsons/VE125_randls_60_rotated.json,http://54.235.29.9/FacialAge/BNav_EC2/DepthDuration/v2_depth_duration_MTurk/v2_DepthDuration_HTML.html#115,115,1280,609,1280,720,8-21-2022,8-55-38,54,depth_duration_stimuli/001617_2014-06-20_11-35-32_260595134347_rgbf000066-resize_1/001617_2014-06-20_11-35-32_260595134347_rgbf000066-resize_1-target.png,125,3.7910000000000004,5,2838,110,feet,jsons/VE125_randls_60_rotated.json,497131,613228,25,Man
54,322366,DepthScenes,duration_manipulation_targetAtFixation,jsons/VE125_randls_60_rotated.json,http://54.235.29.9/FacialAge/BNav_EC2/DepthDuration/v2_depth_duration_MTurk/v2_DepthDuration_HTML.html#115,115,1280,609,1280,720,8-21-2022,8-55-38,55,depth_duration_stimuli/001806_2014-06-26_20-50-20_260595134347_rgbf000091-resize_1/001806_2014-06-26_20-50-20_260595134347_rgbf000091-resize_1-target.png,125,2.7305,6,2551,125,feet,jsons/VE125_randls_60_rotated.json,497131,613228,25,Man
55,322366,DepthScenes,duration_manipulation_targetAtFixation,jsons/VE125_randls_60_rotated.json,http://54.235.29.9/FacialAge/BNav_EC2/DepthDuration/v2_depth_duration_MTurk/v2_DepthDuration_HTML.html#115,115,1280,609,1280,720,8-21-2022,8-55-38,56,depth_duration_stimuli/001100_2014-06-15_17-46-26_260595134347_rgbf000225-resize_2/001100_2014-06-15_17-46-26_260595134347_rgbf000225-resize_2-target.png,125,2.24,6,2230,125,feet,jsons/VE125_randls_60_rotated.json,497131,613228,25,Man
56,322366,DepthScenes,duration_manipulation_targetAtFixation,jsons/VE125_randls_60_rotated.json,http://54.235.29.9/FacialAge/BNav_EC2/DepthDuration/v2_depth_duration_MTurk/v2_DepthDuration_HTML.html#115,115,1280,609,1280,720,8-21-2022,8-55-38,57,depth_duration_stimuli/002784_2014-06-22_19-26-30_094959634447_rgbf000083-resize_3/002784_2014-06-22_19-26-30_094959634447_rgbf000083-resize_3-target.png,125,1.8046666666667,3,2701,136,feet,jsons/VE125_randls_60_rotated.json,497131,613228,25,Man
57,322366,DepthScenes,duration_manipulation_targetAtFixation,jsons/VE125_randls_60_rotated.json,http://54.235.29.9/FacialAge/BNav_EC2/DepthDuration/v2_depth_duration_MTurk/v2_DepthDuration_HTML.html#115,115,1280,609,1280,720,8-21-2022,8-55-38,58,depth_duration_stimuli/001584_2014-06-20_11-07-43_260595134347_rgbf000002-resize_1/001584_2014-06-20_11-07-43_260595134347_rgbf000002-resize_1-target.png,125,3.53,3,2333,125,feet,jsons/VE125_randls_60_rotated.json,497131,613228,25,Man
58,322366,DepthScenes,duration_manipulation_targetAtFixation,jsons/VE125_randls_60_rotated.json,http://54.235.29.9/FacialAge/BNav_EC2/DepthDuration/v2_depth_duration_MTurk/v2_DepthDuration_HTML.html#115,115,1280,609,1280,720,8-21-2022,8-55-38,59,depth_duration_stimuli/003621_2014-05-23_18-06-08_094959634447_rgbf000101-resize_1/003621_2014-05-23_18-06-08_094959634447_rgbf000101-resize_1-target.png,125,3.9835,7,1990,126,feet,jsons/VE125_randls_60_rotated.json,497131,613228,25,Man
59,322366,DepthScenes,duration_manipulation_targetAtFixation,jsons/VE125_randls_60_rotated.json,http://54.235.29.9/FacialAge/BNav_EC2/DepthDuration/v2_depth_duration_MTurk/v2_DepthDuration_HTML.html#115,115,1280,609,1280,720,8-21-2022,8-55-38,60,depth_duration_stimuli/001094_2014-06-15_17-36-00_260595134347_rgbf000205-resize_0/001094_2014-06-15_17-36-00_260595134347_rgbf000205-resize_0-target.png,125,4.2175,5,1860,125,feet,jsons/VE125_randls_60_rotated.json,497131,613228,25,Man
60,322366,DepthScenes,duration_manipulation_targetAtFixation,jsons/VE125_randls_60_rotated.json,http://54.235.29.9/FacialAge/BNav_EC2/DepthDuration/v2_depth_duration_MTurk/v2_DepthDuration_HTML.html#115,115,1280,609,1280,720,8-21-2022,8-55-38,61,depth_duration_stimuli/000692_2014-06-08_13-09-42_260595134347_rgbf000199-resize_2/000692_2014-06-08_13-09-42_260595134347_rgbf000199-resize_2-target.png,125,3.661,15,3133,113,feet,jsons/VE125_randls_60_rotated.json,497131,613228,25,Man
61,322366,DepthScenes,duration_manipulation_targetAtFixation,jsons/VE125_randls_60_rotated.json,http://54.235.29.9/FacialAge/BNav_EC2/DepthDuration/v2_depth_duration_MTurk/v2_DepthDuration_HTML.html#115,115,1280,609,1280,720,8-21-2022,8-55-38,62,depth_duration_stimuli/000137_2014-05-20_17-04-49_260595134347_rgbf000120-resize_1/000137_2014-05-20_17-04-49_260595134347_rgbf000120-resize_1-target.png,125,3.786,8,2236,124,feet,jsons/VE125_randls_60_rotated.json,497131,613228,25,Man
62,322366,DepthScenes,duration_manipulation_targetAtFixation,jsons/VE125_randls_60_rotated.json,http://54.235.29.9/FacialAge/BNav_EC2/DepthDuration/v2_depth_duration_MTurk/v2_DepthDuration_HTML.html#115,115,1280,609,1280,720,8-21-2022,8-55-38,63,depth_duration_stimuli/000736_2014-06-08_18-24-15_260595134347_rgbf000206-resize_3/000736_2014-06-08_18-24-15_260595134347_rgbf000206-resize_3-target.png,125,3.515,3,2371,125,feet,jsons/VE125_randls_60_rotated.json,497131,613228,25,Man
63,322366,DepthScenes,duration_manipulation_targetAtFixation,jsons/VE125_randls_60_rotated.json,http://54.235.29.9/FacialAge/BNav_EC2/DepthDuration/v2_depth_duration_MTurk/v2_DepthDuration_HTML.html#115,115,1280,609,1280,720,8-21-2022,8-55-38,64,depth_duration_stimuli/001132_2014-06-17_14-48-54_260595134347_rgbf000100-resize_2/001132_2014-06-17_14-48-54_260595134347_rgbf000100-resize_2-target.png,125,3.753,7,2228,131,feet,jsons/VE125_randls_60_rotated.json,497131,613228,25,Man
64,322366,DepthScenes,duration_manipulation_targetAtFixation,jsons/VE125_randls_60_rotated.json,http://54.235.29.9/FacialAge/BNav_EC2/DepthDuration/v2_depth_duration_MTurk/v2_DepthDuration_HTML.html#115,115,1280,609,1280,720,8-21-2022,8-55-38,65,depth_duration_stimuli/001133_2014-06-17_14-49-16_260595134347_rgbf000100-resize_0/001133_2014-06-17_14-49-16_260595134347_rgbf000100-resize_0-target.png,125,4.2115,10,2635,124,feet,jsons/VE125_randls_60_rotated.json,497131,613228,25,Man
65,322366,DepthScenes,duration_manipulation_targetAtFixation,jsons/VE125_randls_60_rotated.json,http://54.235.29.9/FacialAge/BNav_EC2/DepthDuration/v2_depth_duration_MTurk/v2_DepthDuration_HTML.html#115,115,1280,609,1280,720,8-21-2022,8-55-38,66,depth_duration_stimuli/001540_2014-06-20_17-01-05_260595134347_rgbf000086-resize_2/001540_2014-06-20_17-01-05_260595134347_rgbf000086-resize-original.jpg,125,1.459,0,2694,132,feet,jsons/VE125_randls_60_rotated.json,497131,613228,25,Man
66,322366,DepthScenes,duration_manipulation_targetAtFixation,jsons/VE125_randls_60_rotated.json,http://54.235.29.9/FacialAge/BNav_EC2/DepthDuration/v2_depth_duration_MTurk/v2_DepthDuration_HTML.html#115,115,1280,609,1280,720,8-21-2022,8-55-38,67,depth_duration_stimuli/002136_2014-06-25_21-18-03_260595134347_rgbf000109-resize_3/002136_2014-06-25_21-18-03_260595134347_rgbf000109-resize_3-target.png,125,1.9569999999999999,5,2806,125,feet,jsons/VE125_randls_60_rotated.json,497131,613228,25,Man
67,322366,DepthScenes,duration_manipulation_targetAtFixation,jsons/VE125_randls_60_rotated.json,http://54.235.29.9/FacialAge/BNav_EC2/DepthDuration/v2_depth_duration_MTurk/v2_DepthDuration_HTML.html#115,115,1280,609,1280,720,8-21-2022,8-55-38,68,depth_duration_stimuli/002964_2014-06-08_17-46-11_094959634447_rgbf000091-resize_4/002964_2014-06-08_17-46-11_094959634447_rgbf000091-resize_4-target.png,125,1.6909999999999998,4,4884,124,feet,jsons/VE125_randls_60_rotated.json,497131,613228,25,Man
68,322366,DepthScenes,duration_manipulation_targetAtFixation,jsons/VE125_randls_60_rotated.json,http://54.235.29.9/FacialAge/BNav_EC2/DepthDuration/v2_depth_duration_MTurk/v2_DepthDuration_HTML.html#115,115,1280,609,1280,720,8-21-2022,8-55-38,69,depth_duration_stimuli/001235_2014-06-17_16-37-36_260595134347_rgbf000084-resize_4/001235_2014-06-17_16-37-36_260595134347_rgbf000084-resize_4-target.png,125,3.6605,8,2164,120,feet,jsons/VE125_randls_60_rotated.json,497131,613228,25,Man
69,322366,DepthScenes,duration_manipulation_targetAtFixation,jsons/VE125_randls_60_rotated.json,http://54.235.29.9/FacialAge/BNav_EC2/DepthDuration/v2_depth_duration_MTurk/v2_DepthDuration_HTML.html#115,115,1280,609,1280,720,8-21-2022,8-55-38,70,depth_duration_stimuli/000788_2014-06-08_22-34-36_260595134347_rgbf000131-resize_1/000788_2014-06-08_22-34-36_260595134347_rgbf000131-resize_1-target.png,125,3.359,8,1771,125,feet,jsons/VE125_randls_60_rotated.json,497131,613228,25,Man
70,322366,DepthScenes,duration_manipulation_targetAtFixation,jsons/VE125_randls_60_rotated.json,http://54.235.29.9/FacialAge/BNav_EC2/DepthDuration/v2_depth_duration_MTurk/v2_DepthDuration_HTML.html#115,115,1280,609,1280,720,8-21-2022,8-55-38,71,depth_duration_stimuli/000103_2014-05-14_22-01-17_260595134347_rgbf000152-resize_5/000103_2014-05-14_22-01-17_260595134347_rgbf000152-resize_5-target.png,125,1.993,4,2056,135,feet,jsons/VE125_randls_60_rotated.json,497131,613228,25,Man
71,322366,DepthScenes,duration_manipulation_targetAtFixation,jsons/VE125_randls_60_rotated.json,http://54.235.29.9/FacialAge/BNav_EC2/DepthDuration/v2_depth_duration_MTurk/v2_DepthDuration_HTML.html#115,115,1280,609,1280,720,8-21-2022,8-55-38,72,depth_duration_stimuli/001555_2014-06-20_17-12-10_260595134347_rgbf000065-resize_4/001555_2014-06-20_17-12-10_260595134347_rgbf000065-resize_4-target.png,125,1.633,5,1996,125,feet,jsons/VE125_randls_60_rotated.json,497131,613228,25,Man
72,322366,DepthScenes,duration_manipulation_targetAtFixation,jsons/VE125_randls_60_rotated.json,http://54.235.29.9/FacialAge/BNav_EC2/DepthDuration/v2_depth_duration_MTurk/v2_DepthDuration_HTML.html#115,115,1280,609,1280,720,8-21-2022,8-55-38,73,depth_duration_stimuli/000409_2014-06-04_19-23-33_260595134347_rgbf000067-resize_0/000409_2014-06-04_19-23-33_260595134347_rgbf000067-resize_0-target.png,125,3.7335,7,2438,125,feet,jsons/VE125_randls_60_rotated.json,497131,613228,25,Man
73,322366,DepthScenes,duration_manipulation_targetAtFixation,jsons/VE125_randls_60_rotated.json,http://54.235.29.9/FacialAge/BNav_EC2/DepthDuration/v2_depth_duration_MTurk/v2_DepthDuration_HTML.html#115,115,1280,609,1280,720,8-21-2022,8-55-38,74,depth_duration_stimuli/002663_2014-06-13_15-50-26_094959634447_rgbf000075-resize_1/002663_2014-06-13_15-50-26_094959634447_rgbf000075-resize_1-target.png,125,4.7495,10,2799,128,feet,jsons/VE125_randls_60_rotated.json,497131,613228,25,Man
74,322366,DepthScenes,duration_manipulation_targetAtFixation,jsons/VE125_randls_60_rotated.json,http://54.235.29.9/FacialAge/BNav_EC2/DepthDuration/v2_depth_duration_MTurk/v2_DepthDuration_HTML.html#115,115,1280,609,1280,720,8-21-2022,8-55-38,75,depth_duration_stimuli/002953_2014-06-08_17-32-18_094959634447_rgbf000059-resize_5/002953_2014-06-08_17-32-18_094959634447_rgbf000059-resize_5-target.png,125,1.551,3,2102,124,feet,jsons/VE125_randls_60_rotated.json,497131,613228,25,Man
75,322366,DepthScenes,duration_manipulation_targetAtFixation,jsons/VE125_randls_60_rotated.json,http://54.235.29.9/FacialAge/BNav_EC2/DepthDuration/v2_depth_duration_MTurk/v2_DepthDuration_HTML.html#115,115,1280,609,1280,720,8-21-2022,8-55-38,76,depth_duration_stimuli/000878_2014-06-08_22-52-45_260595134347_rgbf000045-resize_2/000878_2014-06-08_22-52-45_260595134347_rgbf000045-resize_2-target.png,125,2.092,5,2407,137,feet,jsons/VE125_randls_60_rotated.json,497131,613228,25,Man
76,322366,DepthScenes,duration_manipulation_targetAtFixation,jsons/VE125_randls_60_rotated.json,http://54.235.29.9/FacialAge/BNav_EC2/DepthDuration/v2_depth_duration_MTurk/v2_DepthDuration_HTML.html#115,115,1280,609,1280,720,8-21-2022,8-55-38,77,depth_duration_stimuli/000191_2014-05-12_17-07-38_260595134347_rgbf000199-resize_0/000191_2014-05-12_17-07-38_260595134347_rgbf000199-resize_0-target.png,125,3.7995,8,2396,114,feet,jsons/VE125_randls_60_rotated.json,497131,613228,25,Man
77,322366,DepthScenes,duration_manipulation_targetAtFixation,jsons/VE125_randls_60_rotated.json,http://54.235.29.9/FacialAge/BNav_EC2/DepthDuration/v2_depth_duration_MTurk/v2_DepthDuration_HTML.html#115,115,1280,609,1280,720,8-21-2022,8-55-38,78,depth_duration_stimuli/000493_2014-06-09_21-01-18_260595134347_rgbf000196-resize_3/000493_2014-06-09_21-01-18_260595134347_rgbf000196-resize_3-target.png,125,3.44,8,2747,129,feet,jsons/VE125_randls_60_rotated.json,497131,613228,25,Man
78,322366,DepthScenes,duration_manipulation_targetAtFixation,jsons/VE125_randls_60_rotated.json,http://54.235.29.9/FacialAge/BNav_EC2/DepthDuration/v2_depth_duration_MTurk/v2_DepthDuration_HTML.html#115,115,1280,609,1280,720,8-21-2022,8-55-38,79,depth_duration_stimuli/002323_2014-06-28_20-01-54_260595134347_rgbf000051-resize_4/002323_2014-06-28_20-01-54_260595134347_rgbf000051-resize_4-target.png,125,3.7310000000000003,9,2488,126,feet,jsons/VE125_randls_60_rotated.json,497131,613228,25,Man
79,322366,DepthScenes,duration_manipulation_targetAtFixation,jsons/VE125_randls_60_rotated.json,http://54.235.29.9/FacialAge/BNav_EC2/DepthDuration/v2_depth_duration_MTurk/v2_DepthDuration_HTML.html#115,115,1280,609,1280,720,8-21-2022,8-55-38,80,depth_duration_stimuli/000917_2014-06-09_22-45-29_260595134347_rgbf000149-resize_3/000917_2014-06-09_22-45-29_260595134347_rgbf000149-resize_3-target.png,125,4.1865,7,2327,117,feet,jsons/VE125_randls_60_rotated.json,497131,613228,25,Man
80,322366,DepthScenes,duration_manipulation_targetAtFixation,jsons/VE125_randls_60_rotated.json,http://54.235.29.9/FacialAge/BNav_EC2/DepthDuration/v2_depth_duration_MTurk/v2_DepthDuration_HTML.html#115,115,1280,609,1280,720,8-21-2022,8-55-38,81,depth_duration_stimuli/002467_2014-06-28_20-38-07_260595134347_rgbf000026-resize_2/002467_2014-06-28_20-38-07_260595134347_rgbf000026-resize_2-target.png,125,4.742,9,2595,124,feet,jsons/VE125_randls_60_rotated.json,497131,613228,25,Man
81,322366,DepthScenes,duration_manipulation_targetAtFixation,jsons/VE125_randls_60_rotated.json,http://54.235.29.9/FacialAge/BNav_EC2/DepthDuration/v2_depth_duration_MTurk/v2_DepthDuration_HTML.html#115,115,1280,609,1280,720,8-21-2022,8-55-38,82,depth_duration_stimuli/002570_2014-06-24_13-59-54_094959634447_rgbf000059-resize_0/002570_2014-06-24_13-59-54_094959634447_rgbf000059-resize_0-target.png,125,4.037,5,2081,130,feet,jsons/VE125_randls_60_rotated.json,497131,613228,25,Man
82,322366,DepthScenes,duration_manipulation_targetAtFixation,jsons/VE125_randls_60_rotated.json,http://54.235.29.9/FacialAge/BNav_EC2/DepthDuration/v2_depth_duration_MTurk/v2_DepthDuration_HTML.html#115,115,1280,609,1280,720,8-21-2022,8-55-38,83,depth_duration_stimuli/001516_2014-06-20_16-25-09_260595134347_rgbf000076-resize_2/001516_2014-06-20_16-25-09_260595134347_rgbf000076-resize_2-target.png,125,1.7445,5,2281,125,feet,jsons/VE125_randls_60_rotated.json,497131,613228,25,Man
83,322366,DepthScenes,duration_manipulation_targetAtFixation,jsons/VE125_randls_60_rotated.json,http://54.235.29.9/FacialAge/BNav_EC2/DepthDuration/v2_depth_duration_MTurk/v2_DepthDuration_HTML.html#115,115,1280,609,1280,720,8-21-2022,8-55-38,84,depth_duration_stimuli/002118_2014-06-25_20-32-08_260595134347_rgbf000078-resize_1/002118_2014-06-25_20-32-08_260595134347_rgbf000078-resize_1-target.png,125,2.6460000000000004,7,2526,129,feet,jsons/VE125_randls_60_rotated.json,497131,613228,25,Man
84,322366,DepthScenes,duration_manipulation_targetAtFixation,jsons/VE125_randls_60_rotated.json,http://54.235.29.9/FacialAge/BNav_EC2/DepthDuration/v2_depth_duration_MTurk/v2_DepthDuration_HTML.html#115,115,1280,609,1280,720,8-21-2022,8-55-38,85,depth_duration_stimuli/002657_2014-06-13_15-29-54_094959634447_rgbf000150-resize_1/002657_2014-06-13_15-29-54_094959634447_rgbf000150-resize_1-target.png,125,4.919,10,2675,113,feet,jsons/VE125_randls_60_rotated.json,497131,613228,25,Man
85,322366,DepthScenes,duration_manipulation_targetAtFixation,jsons/VE125_randls_60_rotated.json,http://54.235.29.9/FacialAge/BNav_EC2/DepthDuration/v2_depth_duration_MTurk/v2_DepthDuration_HTML.html#115,115,1280,609,1280,720,8-21-2022,8-55-38,86,depth_duration_stimuli/002375_2014-06-28_20-13-44_260595134347_rgbf000032-resize_1/002375_2014-06-28_20-13-44_260595134347_rgbf000032-resize_1-target.png,125,4.0175,8,2641,124,feet,jsons/VE125_randls_60_rotated.json,497131,613228,25,Man
86,322366,DepthScenes,duration_manipulation_targetAtFixation,jsons/VE125_randls_60_rotated.json,http://54.235.29.9/FacialAge/BNav_EC2/DepthDuration/v2_depth_duration_MTurk/v2_DepthDuration_HTML.html#115,115,1280,609,1280,720,8-21-2022,8-55-38,87,depth_duration_stimuli/003010_2014-06-15_12-54-35_094959634447_rgbf000112-resize_0/003010_2014-06-15_12-54-35_094959634447_rgbf000112-resize_0-target.png,125,3.1185,5,4558,125,feet,jsons/VE125_randls_60_rotated.json,497131,613228,25,Man
87,322366,DepthScenes,duration_manipulation_targetAtFixation,jsons/VE125_randls_60_rotated.json,http://54.235.29.9/FacialAge/BNav_EC2/DepthDuration/v2_depth_duration_MTurk/v2_DepthDuration_HTML.html#115,115,1280,609,1280,720,8-21-2022,8-55-38,88,depth_duration_stimuli/001810_2014-06-26_20-51-35_260595134347_rgbf000040-resize_3/001810_2014-06-26_20-51-35_260595134347_rgbf000040-resize_3-target.png,125,2.2525,3,2153,124,feet,jsons/VE125_randls_60_rotated.json,497131,613228,25,Man
88,322366,DepthScenes,duration_manipulation_targetAtFixation,jsons/VE125_randls_60_rotated.json,http://54.235.29.9/FacialAge/BNav_EC2/DepthDuration/v2_depth_duration_MTurk/v2_DepthDuration_HTML.html#115,115,1280,609,1280,720,8-21-2022,8-55-38,89,depth_duration_stimuli/001450_2014-06-19_17-02-03_260595134347_rgbf000203-resize_4/001450_2014-06-19_17-02-03_260595134347_rgbf000203-resize_4-target.png,125,4.0106666666667,5,2005,125,feet,jsons/VE125_randls_60_rotated.json,497131,613228,25,Man
89,322366,DepthScenes,duration_manipulation_targetAtFixation,jsons/VE125_randls_60_rotated.json,http://54.235.29.9/FacialAge/BNav_EC2/DepthDuration/v2_depth_duration_MTurk/v2_DepthDuration_HTML.html#115,115,1280,609,1280,720,8-21-2022,8-55-38,90,depth_duration_stimuli/001449_2014-06-19_17-01-27_260595134347_rgbf000116-resize_2/001449_2014-06-19_17-01-27_260595134347_rgbf000116-resize_2-target.png,125,3.452,6,2160,123,feet,jsons/VE125_randls_60_rotated.json,497131,613228,25,Man
90,322366,DepthScenes,duration_manipulation_targetAtFixation,jsons/VE125_randls_60_rotated.json,http://54.235.29.9/FacialAge/BNav_EC2/DepthDuration/v2_depth_duration_MTurk/v2_DepthDuration_HTML.html#115,115,1280,609,1280,720,8-21-2022,8-55-38,91,depth_duration_stimuli/003338_2014-05-20_11-01-23_094959634447_rgbf000051-resize_6/003338_2014-05-20_11-01-23_094959634447_rgbf000051-resize_6-target.png,125,1.693,5,2027,138,feet,jsons/VE125_randls_60_rotated.json,497131,613228,25,Man
91,322366,DepthScenes,duration_manipulation_targetAtFixation,jsons/VE125_randls_60_rotated.json,http://54.235.29.9/FacialAge/BNav_EC2/DepthDuration/v2_depth_duration_MTurk/v2_DepthDuration_HTML.html#115,115,1280,609,1280,720,8-21-2022,8-55-38,92,depth_duration_stimuli/002509_2014-06-24_13-19-22_094959634447_rgbf000077-resize_0/002509_2014-06-24_13-19-22_094959634447_rgbf000077-resize_0-target.png,125,1.3065,3,2162,124,feet,jsons/VE125_randls_60_rotated.json,497131,613228,25,Man
92,322366,DepthScenes,duration_manipulation_targetAtFixation,jsons/VE125_randls_60_rotated.json,http://54.235.29.9/FacialAge/BNav_EC2/DepthDuration/v2_depth_duration_MTurk/v2_DepthDuration_HTML.html#115,115,1280,609,1280,720,8-21-2022,8-55-38,93,depth_duration_stimuli/003081_2014-06-15_15-19-16_094959634447_rgbf000150-resize_1/003081_2014-06-15_15-19-16_094959634447_rgbf000150-resize_1-target.png,125,3.9125,7,2289,128,feet,jsons/VE125_randls_60_rotated.json,497131,613228,25,Man
93,322366,DepthScenes,duration_manipulation_targetAtFixation,jsons/VE125_randls_60_rotated.json,http://54.235.29.9/FacialAge/BNav_EC2/DepthDuration/v2_depth_duration_MTurk/v2_DepthDuration_HTML.html#115,115,1280,609,1280,720,8-21-2022,8-55-38,94,depth_duration_stimuli/001417_2014-06-19_16-25-36_260595134347_rgbf000115-resize_5/001417_2014-06-19_16-25-36_260595134347_rgbf000115-resize_5-target.png,125,4.6255,8,2095,125,feet,jsons/VE125_randls_60_rotated.json,497131,613228,25,Man
94,322366,DepthScenes,duration_manipulation_targetAtFixation,jsons/VE125_randls_60_rotated.json,http://54.235.29.9/FacialAge/BNav_EC2/DepthDuration/v2_depth_duration_MTurk/v2_DepthDuration_HTML.html#115,115,1280,609,1280,720,8-21-2022,8-55-38,95,depth_duration_stimuli/002758_2014-06-22_19-11-20_094959634447_rgbf000128-resize_1/002758_2014-06-22_19-11-20_094959634447_rgbf000128-resize_1-target.png,125,2.555,5,2095,118,feet,jsons/VE125_randls_60_rotated.json,497131,613228,25,Man
95,322366,DepthScenes,duration_manipulation_targetAtFixation,jsons/VE125_randls_60_rotated.json,http://54.235.29.9/FacialAge/BNav_EC2/DepthDuration/v2_depth_duration_MTurk/v2_DepthDuration_HTML.html#115,115,1280,609,1280,720,8-21-2022,8-55-38,96,depth_duration_stimuli/002630_2014-06-24_14-47-50_094959634447_rgbf000055-resize_1/002630_2014-06-24_14-47-50_094959634447_rgbf000055-resize_1-target.png,125,3.0095,12,2679,124,feet,jsons/VE125_randls_60_rotated.json,497131,613228,25,Man
96,322366,DepthScenes,duration_manipulation_targetAtFixation,jsons/VE125_randls_60_rotated.json,http://54.235.29.9/FacialAge/BNav_EC2/DepthDuration/v2_depth_duration_MTurk/v2_DepthDuration_HTML.html#115,115,1280,609,1280,720,8-21-2022,8-55-38,97,depth_duration_stimuli/002805_2014-06-22_19-54-03_094959634447_rgbf000079-resize_1/002805_2014-06-22_19-54-03_094959634447_rgbf000079-resize_1-target.png,125,3.1439999999999997,10,2619,124,feet,jsons/VE125_randls_60_rotated.json,497131,613228,25,Man
97,322366,DepthScenes,duration_manipulation_targetAtFixation,jsons/VE125_randls_60_rotated.json,http://54.235.29.9/FacialAge/BNav_EC2/DepthDuration/v2_depth_duration_MTurk/v2_DepthDuration_HTML.html#115,115,1280,609,1280,720,8-21-2022,8-55-38,98,depth_duration_stimuli/000906_2014-06-08_13-35-43_260595134347_rgbf000155-resize_1/000906_2014-06-08_13-35-43_260595134347_rgbf000155-resize_1-target.png,125,2.8489999999999998,8,2797,124,feet,jsons/VE125_randls_60_rotated.json,497131,613228,25,Man
98,322366,DepthScenes,duration_manipulation_targetAtFixation,jsons/VE125_randls_60_rotated.json,http://54.235.29.9/FacialAge/BNav_EC2/DepthDuration/v2_depth_duration_MTurk/v2_DepthDuration_HTML.html#115,115,1280,609,1280,720,8-21-2022,8-55-38,99,depth_duration_stimuli/001222_2014-06-17_16-24-06_260595134347_rgbf000073-resize_0/001222_2014-06-17_16-24-06_260595134347_rgbf000073-resize-original.jpg,125,1.4385,0,2453,129,feet,jsons/VE125_randls_60_rotated.json,497131,613228,25,Man
99,322366,DepthScenes,duration_manipulation_targetAtFixation,jsons/VE125_randls_60_rotated.json,http://54.235.29.9/FacialAge/BNav_EC2/DepthDuration/v2_depth_duration_MTurk/v2_DepthDuration_HTML.html#115,115,1280,609,1280,720,8-21-2022,8-55-38,100,depth_duration_stimuli/002344_2014-06-28_20-06-29_260595134347_rgbf000030-resize_1/002344_2014-06-28_20-06-29_260595134347_rgbf000030-resize_1-target.png,125,1.5795,10,2841,122,feet,jsons/VE125_randls_60_rotated.json,497131,613228,25,Man
100,322366,DepthScenes,duration_manipulation_targetAtFixation,jsons/VE125_randls_60_rotated.json,http://54.235.29.9/FacialAge/BNav_EC2/DepthDuration/v2_depth_duration_MTurk/v2_DepthDuration_HTML.html#115,115,1280,609,1280,720,8-21-2022,8-55-38,101,depth_duration_stimuli/002725_2014-06-22_11-47-51_094959634447_rgbf000070-resize_1/002725_2014-06-22_11-47-51_094959634447_rgbf000070-resize_1-target.png,125,2.195,5,1974,125,feet,jsons/VE125_randls_60_rotated.json,497131,613228,25,Man
101,322366,DepthScenes,duration_manipulation_targetAtFixation,jsons/VE125_randls_60_rotated.json,http://54.235.29.9/FacialAge/BNav_EC2/DepthDuration/v2_depth_duration_MTurk/v2_DepthDuration_HTML.html#115,115,1280,609,1280,720,8-21-2022,8-55-38,102,depth_duration_stimuli/000749_2014-06-08_21-55-06_260595134347_rgbf000070-resize_2/000749_2014-06-08_21-55-06_260595134347_rgbf000070-resize_2-target.png,125,2.331,5,1635,134,feet,jsons/VE125_randls_60_rotated.json,497131,613228,25,Man
102,322366,DepthScenes,duration_manipulation_targetAtFixation,jsons/VE125_randls_60_rotated.json,http://54.235.29.9/FacialAge/BNav_EC2/DepthDuration/v2_depth_duration_MTurk/v2_DepthDuration_HTML.html#115,115,1280,609,1280,720,8-21-2022,8-55-38,103,depth_duration_stimuli/002788_2014-06-22_19-36-03_094959634447_rgbf000088-resize_2/002788_2014-06-22_19-36-03_094959634447_rgbf000088-resize_2-target.png,125,1.6465,6,2019,125,feet,jsons/VE125_randls_60_rotated.json,497131,613228,25,Man
103,322366,DepthScenes,duration_manipulation_targetAtFixation,jsons/VE125_randls_60_rotated.json,http://54.235.29.9/FacialAge/BNav_EC2/DepthDuration/v2_depth_duration_MTurk/v2_DepthDuration_HTML.html#115,115,1280,609,1280,720,8-21-2022,8-55-38,104,depth_duration_stimuli/000549_2014-06-08_22-10-24_260595134347_rgbf000247-resize_3/000549_2014-06-08_22-10-24_260595134347_rgbf000247-resize_3-target.png,125,1.841,3,2258,123,feet,jsons/VE125_randls_60_rotated.json,497131,613228,25,Man
104,322366,DepthScenes,duration_manipulation_targetAtFixation,jsons/VE125_randls_60_rotated.json,http://54.235.29.9/FacialAge/BNav_EC2/DepthDuration/v2_depth_duration_MTurk/v2_DepthDuration_HTML.html#115,115,1280,609,1280,720,8-21-2022,8-55-38,105,depth_duration_stimuli/001055_2014-06-08_18-45-35_260595134347_rgbf000111-resize_4/001055_2014-06-08_18-45-35_260595134347_rgbf000111-resize_4-target.png,125,2.4290000000000003,6,2311,117,feet,jsons/VE125_randls_60_rotated.json,497131,613228,25,Man
105,322366,DepthScenes,duration_manipulation_targetAtFixation,jsons/VE125_randls_60_rotated.json,http://54.235.29.9/FacialAge/BNav_EC2/DepthDuration/v2_depth_duration_MTurk/v2_DepthDuration_HTML.html#115,115,1280,609,1280,720,8-21-2022,8-55-38,106,depth_duration_stimuli/000691_2014-06-08_13-08-50_260595134347_rgbf000132-resize_3/000691_2014-06-08_13-08-50_260595134347_rgbf000132-resize_3-target.png,125,4.1530000000000005,8,2176,125,feet,jsons/VE125_randls_60_rotated.json,497131,613228,25,Man
106,322366,DepthScenes,duration_manipulation_targetAtFixation,jsons/VE125_randls_60_rotated.json,http://54.235.29.9/FacialAge/BNav_EC2/DepthDuration/v2_depth_duration_MTurk/v2_DepthDuration_HTML.html#115,115,1280,609,1280,720,8-21-2022,8-55-38,107,depth_duration_stimuli/002213_2014-06-28_18-37-58_260595134347_rgbf000055-resize_1/002213_2014-06-28_18-37-58_260595134347_rgbf000055-resize_1-target.png,125,3.62,9,4401,121,feet,jsons/VE125_randls_60_rotated.json,497131,613228,25,Man
107,322366,DepthScenes,duration_manipulation_targetAtFixation,jsons/VE125_randls_60_rotated.json,http://54.235.29.9/FacialAge/BNav_EC2/DepthDuration/v2_depth_duration_MTurk/v2_DepthDuration_HTML.html#115,115,1280,609,1280,720,8-21-2022,8-55-38,108,depth_duration_stimuli/000109_2014-05-14_23-41-52_260595134347_rgbf000035-resize_9/000109_2014-05-14_23-41-52_260595134347_rgbf000035-resize_9-target.png,125,1.3545,5,3144,125,feet,jsons/VE125_randls_60_rotated.json,497131,613228,25,Man
108,322366,DepthScenes,duration_manipulation_targetAtFixation,jsons/VE125_randls_60_rotated.json,http://54.235.29.9/FacialAge/BNav_EC2/DepthDuration/v2_depth_duration_MTurk/v2_DepthDuration_HTML.html#115,115,1280,609,1280,720,8-21-2022,8-55-38,109,depth_duration_stimuli/000470_2014-06-09_19-42-40_260595134347_rgbf000094-resize_1/000470_2014-06-09_19-42-40_260595134347_rgbf000094-resize_1-target.png,125,1.831,5,1689,125,feet,jsons/VE125_randls_60_rotated.json,497131,613228,25,Man
109,322366,DepthScenes,duration_manipulation_targetAtFixation,jsons/VE125_randls_60_rotated.json,http://54.235.29.9/FacialAge/BNav_EC2/DepthDuration/v2_depth_duration_MTurk/v2_DepthDuration_HTML.html#115,115,1280,609,1280,720,8-21-2022,8-55-38,110,depth_duration_stimuli/003490_2014-05-21_15-50-11_094959634447_rgbf000101-resize_3/003490_2014-05-21_15-50-11_094959634447_rgbf000101-resize_3-target.png,125,3.6445,6,2567,124,feet,jsons/VE125_randls_60_rotated.json,497131,613228,25,Man
110,322366,DepthScenes,duration_manipulation_targetAtFixation,jsons/VE125_randls_60_rotated.json,http://54.235.29.9/FacialAge/BNav_EC2/DepthDuration/v2_depth_duration_MTurk/v2_DepthDuration_HTML.html#115,115,1280,609,1280,720,8-21-2022,8-55-38,111,depth_duration_stimuli/001175_2014-06-17_15-45-55_260595134347_rgbf000129-resize_4/001175_2014-06-17_15-45-55_260595134347_rgbf000129-resize_4-target.png,125,4.255,5,2858,124,feet,jsons/VE125_randls_60_rotated.json,497131,613228,25,Man
111,322366,DepthScenes,duration_manipulation_targetAtFixation,jsons/VE125_randls_60_rotated.json,http://54.235.29.9/FacialAge/BNav_EC2/DepthDuration/v2_depth_duration_MTurk/v2_DepthDuration_HTML.html#115,115,1280,609,1280,720,8-21-2022,8-55-38,112,depth_duration_stimuli/003129_2014-05-12_10-48-10_094959634447_rgbf000100-resize_0/003129_2014-05-12_10-48-10_094959634447_rgbf000100-resize_0-target.png,125,4.9305,7,2342,125,feet,jsons/VE125_randls_60_rotated.json,497131,613228,25,Man
112,322366,DepthScenes,duration_manipulation_targetAtFixation,jsons/VE125_randls_60_rotated.json,http://54.235.29.9/FacialAge/BNav_EC2/DepthDuration/v2_depth_duration_MTurk/v2_DepthDuration_HTML.html#115,115,1280,609,1280,720,8-21-2022,8-55-38,113,depth_duration_stimuli/000414_2014-06-04_19-49-13_260595134347_rgbf000044-resize_0/000414_2014-06-04_19-49-13_260595134347_rgbf000044-resize_0-target.png,125,4.329,9,2086,124,feet,jsons/VE125_randls_60_rotated.json,497131,613228,25,Man
113,322366,DepthScenes,duration_manipulation_targetAtFixation,jsons/VE125_randls_60_rotated.json,http://54.235.29.9/FacialAge/BNav_EC2/DepthDuration/v2_depth_duration_MTurk/v2_DepthDuration_HTML.html#115,115,1280,609,1280,720,8-21-2022,8-55-38,114,depth_duration_stimuli/002949_2014-06-26_15-57-42_094959634447_rgbf000079-resize_1/002949_2014-06-26_15-57-42_094959634447_rgbf000079-resize_1-target.png,125,1.8915,4,2260,139,feet,jsons/VE125_randls_60_rotated.json,497131,613228,25,Man
114,322366,DepthScenes,duration_manipulation_targetAtFixation,jsons/VE125_randls_60_rotated.json,http://54.235.29.9/FacialAge/BNav_EC2/DepthDuration/v2_depth_duration_MTurk/v2_DepthDuration_HTML.html#115,115,1280,609,1280,720,8-21-2022,8-55-38,115,depth_duration_stimuli/000522_2014-06-08_13-35-06_260595134347_rgbf000244-resize_1/000522_2014-06-08_13-35-06_260595134347_rgbf000244-resize_1-target.png,125,2.3715,2,1877,125,feet,jsons/VE125_randls_60_rotated.json,497131,613228,25,Man
115,322366,DepthScenes,duration_manipulation_targetAtFixation,jsons/VE125_randls_60_rotated.json,http://54.235.29.9/FacialAge/BNav_EC2/DepthDuration/v2_depth_duration_MTurk/v2_DepthDuration_HTML.html#115,115,1280,609,1280,720,8-21-2022,8-55-38,116,depth_duration_stimuli/002660_2014-06-13_15-44-18_094959634447_rgbf001878-resize_2/002660_2014-06-13_15-44-18_094959634447_rgbf001878-resize_2-target.png,125,3.576,10,2584,117,feet,jsons/VE125_randls_60_rotated.json,497131,613228,25,Man
116,322366,DepthScenes,duration_manipulation_targetAtFixation,jsons/VE125_randls_60_rotated.json,http://54.235.29.9/FacialAge/BNav_EC2/DepthDuration/v2_depth_duration_MTurk/v2_DepthDuration_HTML.html#115,115,1280,609,1280,720,8-21-2022,8-55-38,117,depth_duration_stimuli/002153_2014-06-25_21-27-18_260595134347_rgbf000038-resize_5/002153_2014-06-25_21-27-18_260595134347_rgbf000038-resize_5-target.png,125,2.505,4,3195,125,feet,jsons/VE125_randls_60_rotated.json,497131,613228,25,Man
117,322366,DepthScenes,duration_manipulation_targetAtFixation,jsons/VE125_randls_60_rotated.json,http://54.235.29.9/FacialAge/BNav_EC2/DepthDuration/v2_depth_duration_MTurk/v2_DepthDuration_HTML.html#115,115,1280,609,1280,720,8-21-2022,8-55-38,118,depth_duration_stimuli/000854_2014-06-09_19-43-13_260595134347_rgbf000066-resize_0/000854_2014-06-09_19-43-13_260595134347_rgbf000066-resize_0-target.png,125,3.068,8,2387,115,feet,jsons/VE125_randls_60_rotated.json,497131,613228,25,Man
118,322366,DepthScenes,duration_manipulation_targetAtFixation,jsons/VE125_randls_60_rotated.json,http://54.235.29.9/FacialAge/BNav_EC2/DepthDuration/v2_depth_duration_MTurk/v2_DepthDuration_HTML.html#115,115,1280,609,1280,720,8-21-2022,8-55-38,119,depth_duration_stimuli/000758_2014-06-08_22-05-08_260595134347_rgbf000085-resize_0/000758_2014-06-08_22-05-08_260595134347_rgbf000085-resize_0-target.png,125,3.3810000000000002,6,2296,126,feet,jsons/VE125_randls_60_rotated.json,497131,613228,25,Man
119,322366,DepthScenes,duration_manipulation_targetAtFixation,jsons/VE125_randls_60_rotated.json,http://54.235.29.9/FacialAge/BNav_EC2/DepthDuration/v2_depth_duration_MTurk/v2_DepthDuration_HTML.html#115,115,1280,609,1280,720,8-21-2022,8-55-38,120,depth_duration_stimuli/000787_2014-06-08_22-33-53_260595134347_rgbf000175-resize_1/000787_2014-06-08_22-33-53_260595134347_rgbf000175-resize-original.jpg,125,4.784,0,2133,122,feet,jsons/VE125_randls_60_rotated.json,497131,613228,25,Man
120,322366,DepthScenes,duration_manipulation_targetAtFixation,jsons/VE125_randls_60_rotated.json,http://54.235.29.9/FacialAge/BNav_EC2/DepthDuration/v2_depth_duration_MTurk/v2_DepthDuration_HTML.html#115,115,1280,609,1280,720,8-21-2022,8-55-38,121,depth_duration_stimuli/002545_2014-06-24_13-38-53_094959634447_rgbf000080-resize_4/002545_2014-06-24_13-38-53_094959634447_rgbf000080-resize_4-target.png,125,1.9205,5,2042,125,feet,jsons/VE125_randls_60_rotated.json,497131,613228,25,Man
121,322366,DepthScenes,duration_manipulation_targetAtFixation,jsons/VE125_randls_60_rotated.json,http://54.235.29.9/FacialAge/BNav_EC2/DepthDuration/v2_depth_duration_MTurk/v2_DepthDuration_HTML.html#115,115,1280,609,1280,720,8-21-2022,8-55-38,122,depth_duration_stimuli/001092_2014-06-15_17-34-58_260595134347_rgbf000171-resize_3/001092_2014-06-15_17-34-58_260595134347_rgbf000171-resize_3-target.png,125,2.6935,5,2059,121,feet,jsons/VE125_randls_60_rotated.json,497131,613228,25,Man
122,322366,DepthScenes,duration_manipulation_targetAtFixation,jsons/VE125_randls_60_rotated.json,http://54.235.29.9/FacialAge/BNav_EC2/DepthDuration/v2_depth_duration_MTurk/v2_DepthDuration_HTML.html#115,115,1280,609,1280,720,8-21-2022,8-55-38,123,depth_duration_stimuli/003079_2014-06-15_15-18-20_094959634447_rgbf000152-resize_8/003079_2014-06-15_15-18-20_094959634447_rgbf000152-resize_8-target.png,125,2.8775,8,2417,129,feet,jsons/VE125_randls_60_rotated.json,497131,613228,25,Man
123,322366,DepthScenes,duration_manipulation_targetAtFixation,jsons/VE125_randls_60_rotated.json,http://54.235.29.9/FacialAge/BNav_EC2/DepthDuration/v2_depth_duration_MTurk/v2_DepthDuration_HTML.html#115,115,1280,609,1280,720,8-21-2022,8-55-38,124,depth_duration_stimuli/000506_2014-06-08_23-21-00_260595134347_rgbf000070-resize_7/000506_2014-06-08_23-21-00_260595134347_rgbf000070-resize_7-target.png,125,4.0585,5,2116,126,feet,jsons/VE125_randls_60_rotated.json,497131,613228,25,Man
124,322366,DepthScenes,duration_manipulation_targetAtFixation,jsons/VE125_randls_60_rotated.json,http://54.235.29.9/FacialAge/BNav_EC2/DepthDuration/v2_depth_duration_MTurk/v2_DepthDuration_HTML.html#115,115,1280,609,1280,720,8-21-2022,8-55-38,125,depth_duration_stimuli/003228_2014-05-14_13-42-35_094959634447_rgbf000101-resize_1/003228_2014-05-14_13-42-35_094959634447_rgbf000101-resize_1-target.png,125,1.9680000000000002,3,2349,125,feet,jsons/VE125_randls_60_rotated.json,497131,613228,25,Man
125,322366,DepthScenes,duration_manipulation_targetAtFixation,jsons/VE125_randls_60_rotated.json,http://54.235.29.9/FacialAge/BNav_EC2/DepthDuration/v2_depth_duration_MTurk/v2_DepthDuration_HTML.html#115,115,1280,609,1280,720,8-21-2022,8-55-38,126,depth_duration_stimuli/002600_2014-06-24_14-27-04_094959634447_rgbf000074-resize_2/002600_2014-06-24_14-27-04_094959634447_rgbf000074-resize_2-target.png,125,2.7575,10,3279,124,feet,jsons/VE125_randls_60_rotated.json,497131,613228,25,Man
126,322366,DepthScenes,duration_manipulation_targetAtFixation,jsons/VE125_randls_60_rotated.json,http://54.235.29.9/FacialAge/BNav_EC2/DepthDuration/v2_depth_duration_MTurk/v2_DepthDuration_HTML.html#115,115,1280,609,1280,720,8-21-2022,8-55-38,127,depth_duration_stimuli/001447_2014-06-19_17-00-32_260595134347_rgbf000082-resize_5/001447_2014-06-19_17-00-32_260595134347_rgbf000082-resize_5-target.png,125,4.13775,8,2551,128,feet,jsons/VE125_randls_60_rotated.json,497131,613228,25,Man
127,322366,DepthScenes,duration_manipulation_targetAtFixation,jsons/VE125_randls_60_rotated.json,http://54.235.29.9/FacialAge/BNav_EC2/DepthDuration/v2_depth_duration_MTurk/v2_DepthDuration_HTML.html#115,115,1280,609,1280,720,8-21-2022,8-55-38,128,depth_duration_stimuli/000447_2014-06-08_16-15-46_260595134347_rgbf000130-resize_1/000447_2014-06-08_16-15-46_260595134347_rgbf000130-resize_1-target.png,125,4.479,4,2349,135,feet,jsons/VE125_randls_60_rotated.json,497131,613228,25,Man
128,322366,DepthScenes,duration_manipulation_targetAtFixation,jsons/VE125_randls_60_rotated.json,http://54.235.29.9/FacialAge/BNav_EC2/DepthDuration/v2_depth_duration_MTurk/v2_DepthDuration_HTML.html#115,115,1280,609,1280,720,8-21-2022,8-55-38,129,depth_duration_stimuli/002425_2014-06-28_20-27-29_260595134347_rgbf000031-resize_8/002425_2014-06-28_20-27-29_260595134347_rgbf000031-resize_8-target.png,125,3.8960000000000004,10,3211,133,feet,jsons/VE125_randls_60_rotated.json,497131,613228,25,Man
129,322366,DepthScenes,duration_manipulation_targetAtFixation,jsons/VE125_randls_60_rotated.json,http://54.235.29.9/FacialAge/BNav_EC2/DepthDuration/v2_depth_duration_MTurk/v2_DepthDuration_HTML.html#115,115,1280,609,1280,720,8-21-2022,8-55-38,130,depth_duration_stimuli/000642_2014-06-08_16-59-25_260595134347_rgbf000098-resize_2/000642_2014-06-08_16-59-25_260595134347_rgbf000098-resize_2-target.png,125,2.8815,0,2250,123,feet,jsons/VE125_randls_60_rotated.json,497131,613228,25,Man
130,322366,DepthScenes,duration_manipulation_targetAtFixation,jsons/VE125_randls_60_rotated.json,http://54.235.29.9/FacialAge/BNav_EC2/DepthDuration/v2_depth_duration_MTurk/v2_DepthDuration_HTML.html#115,115,1280,609,1280,720,8-21-2022,8-55-38,131,depth_duration_stimuli/002875_2014-06-01_15-19-00_094959634447_rgbf000151-resize_1/002875_2014-06-01_15-19-00_094959634447_rgbf000151-resize_1-target.png,125,1.9675,3,2440,125,feet,jsons/VE125_randls_60_rotated.json,497131,613228,25,Man
131,322366,DepthScenes,duration_manipulation_targetAtFixation,jsons/VE125_randls_60_rotated.json,http://54.235.29.9/FacialAge/BNav_EC2/DepthDuration/v2_depth_duration_MTurk/v2_DepthDuration_HTML.html#115,115,1280,609,1280,720,8-21-2022,8-55-38,132,depth_duration_stimuli/001011_2014-06-08_23-18-54_260595134347_rgbf000044-resize_4/001011_2014-06-08_23-18-54_260595134347_rgbf000044-resize_4-target.png,125,2.4730000000000003,5,2274,123,feet,jsons/VE125_randls_60_rotated.json,497131,613228,25,Man
132,322366,DepthScenes,duration_manipulation_targetAtFixation,jsons/VE125_randls_60_rotated.json,http://54.235.29.9/FacialAge/BNav_EC2/DepthDuration/v2_depth_duration_MTurk/v2_DepthDuration_HTML.html#115,115,1280,609,1280,720,8-21-2022,8-55-38,133,depth_duration_stimuli/002568_2014-06-24_13-59-21_094959634447_rgbf000062-resize_4/002568_2014-06-24_13-59-21_094959634447_rgbf000062-resize_4-target.png,125,3.015,7,2627,125,feet,jsons/VE125_randls_60_rotated.json,497131,613228,25,Man
133,322366,DepthScenes,duration_manipulation_targetAtFixation,jsons/VE125_randls_60_rotated.json,http://54.235.29.9/FacialAge/BNav_EC2/DepthDuration/v2_depth_duration_MTurk/v2_DepthDuration_HTML.html#115,115,1280,609,1280,720,8-21-2022,8-55-38,134,depth_duration_stimuli/003492_2014-05-21_15-50-55_094959634447_rgbf000828-resize_1/003492_2014-05-21_15-50-55_094959634447_rgbf000828-resize_1-target.png,125,4.06875,6,2093,122,feet,jsons/VE125_randls_60_rotated.json,497131,613228,25,Man
134,322366,DepthScenes,duration_manipulation_targetAtFixation,jsons/VE125_randls_60_rotated.json,http://54.235.29.9/FacialAge/BNav_EC2/DepthDuration/v2_depth_duration_MTurk/v2_DepthDuration_HTML.html#115,115,1280,609,1280,720,8-21-2022,8-55-38,135,depth_duration_stimuli/000375_2014-06-08_11-17-29_260595134347_rgbf000133-resize_2/000375_2014-06-08_11-17-29_260595134347_rgbf000133-resize-original.jpg,125,4.718,7,2061,123,feet,jsons/VE125_randls_60_rotated.json,497131,613228,25,Man
135,322366,DepthScenes,duration_manipulation_targetAtFixation,jsons/VE125_randls_60_rotated.json,http://54.235.29.9/FacialAge/BNav_EC2/DepthDuration/v2_depth_duration_MTurk/v2_DepthDuration_HTML.html#115,115,1280,609,1280,720,8-21-2022,8-55-38,136,depth_duration_stimuli/002199_2014-06-28_18-33-56_260595134347_rgbf000074-resize_0/002199_2014-06-28_18-33-56_260595134347_rgbf000074-resize_0-target.png,125,1.996,3,2065,124,feet,jsons/VE125_randls_60_rotated.json,497131,613228,25,Man
136,322366,DepthScenes,duration_manipulation_targetAtFixation,jsons/VE125_randls_60_rotated.json,http://54.235.29.9/FacialAge/BNav_EC2/DepthDuration/v2_depth_duration_MTurk/v2_DepthDuration_HTML.html#115,115,1280,609,1280,720,8-21-2022,8-55-38,137,depth_duration_stimuli/001056_2014-06-08_18-46-44_260595134347_rgbf000068-resize_0/001056_2014-06-08_18-46-44_260595134347_rgbf000068-resize_0-target.png,125,2.6625,5,2207,125,feet,jsons/VE125_randls_60_rotated.json,497131,613228,25,Man
137,322366,DepthScenes,duration_manipulation_targetAtFixation,jsons/VE125_randls_60_rotated.json,http://54.235.29.9/FacialAge/BNav_EC2/DepthDuration/v2_depth_duration_MTurk/v2_DepthDuration_HTML.html#115,115,1280,609,1280,720,8-21-2022,8-55-38,138,depth_duration_stimuli/000866_2014-06-09_20-45-42_260595134347_rgbf000139-resize_1/000866_2014-06-09_20-45-42_260595134347_rgbf000139-resize_1-target.png,125,3.2155,6,2048,125,feet,jsons/VE125_randls_60_rotated.json,497131,613228,25,Man
138,322366,DepthScenes,duration_manipulation_targetAtFixation,jsons/VE125_randls_60_rotated.json,http://54.235.29.9/FacialAge/BNav_EC2/DepthDuration/v2_depth_duration_MTurk/v2_DepthDuration_HTML.html#115,115,1280,609,1280,720,8-21-2022,8-55-38,139,depth_duration_stimuli/002989_2014-06-15_12-25-03_094959634447_rgbf000150-resize_3/002989_2014-06-15_12-25-03_094959634447_rgbf000150-resize_3-target.png,125,4.1975,4,2684,124,feet,jsons/VE125_randls_60_rotated.json,497131,613228,25,Man
139,322366,DepthScenes,duration_manipulation_targetAtFixation,jsons/VE125_randls_60_rotated.json,http://54.235.29.9/FacialAge/BNav_EC2/DepthDuration/v2_depth_duration_MTurk/v2_DepthDuration_HTML.html#115,115,1280,609,1280,720,8-21-2022,8-55-38,140,depth_duration_stimuli/003587_2014-05-23_16-48-02_094959634447_rgbf002384-resize_2/003587_2014-05-23_16-48-02_094959634447_rgbf002384-resize_2-target.png,125,1.357,2,1975,139,feet,jsons/VE125_randls_60_rotated.json,497131,613228,25,Man
140,322366,DepthScenes,duration_manipulation_targetAtFixation,jsons/VE125_randls_60_rotated.json,http://54.235.29.9/FacialAge/BNav_EC2/DepthDuration/v2_depth_duration_MTurk/v2_DepthDuration_HTML.html#115,115,1280,609,1280,720,8-21-2022,8-55-38,141,depth_duration_stimuli/001167_2014-06-17_15-38-07_260595134347_rgbf000108-resize_0/001167_2014-06-17_15-38-07_260595134347_rgbf000108-resize_0-target.png,125,1.8505,3,2245,125,feet,jsons/VE125_randls_60_rotated.json,497131,613228,25,Man
141,322366,DepthScenes,duration_manipulation_targetAtFixation,jsons/VE125_randls_60_rotated.json,http://54.235.29.9/FacialAge/BNav_EC2/DepthDuration/v2_depth_duration_MTurk/v2_DepthDuration_HTML.html#115,115,1280,609,1280,720,8-21-2022,8-55-38,142,depth_duration_stimuli/002103_2014-06-25_20-00-40_260595134347_rgbf000049-resize_0/002103_2014-06-25_20-00-40_260595134347_rgbf000049-resize_0-target.png,125,4.105,6,2866,125,feet,jsons/VE125_randls_60_rotated.json,497131,613228,25,Man
142,322366,DepthScenes,duration_manipulation_targetAtFixation,jsons/VE125_randls_60_rotated.json,http://54.235.29.9/FacialAge/BNav_EC2/DepthDuration/v2_depth_duration_MTurk/v2_DepthDuration_HTML.html#115,115,1280,609,1280,720,8-21-2022,8-55-38,143,depth_duration_stimuli/002039_2014-06-24_20-22-38_260595134347_rgbf000084-resize_1/002039_2014-06-24_20-22-38_260595134347_rgbf000084-resize_1-target.png,125,4.408,10,2858,124,feet,jsons/VE125_randls_60_rotated.json,497131,613228,25,Man
143,322366,DepthScenes,duration_manipulation_targetAtFixation,jsons/VE125_randls_60_rotated.json,http://54.235.29.9/FacialAge/BNav_EC2/DepthDuration/v2_depth_duration_MTurk/v2_DepthDuration_HTML.html#115,115,1280,609,1280,720,8-21-2022,8-55-38,144,depth_duration_stimuli/000780_2014-06-08_22-28-29_260595134347_rgbf000126-resize_1/000780_2014-06-08_22-28-29_260595134347_rgbf000126-resize_1-target.png,125,3.3825,7,2416,120,feet,jsons/VE125_randls_60_rotated.json,497131,613228,25,Man
144,322366,DepthScenes,duration_manipulation_targetAtFixation,jsons/VE125_randls_60_rotated.json,http://54.235.29.9/FacialAge/BNav_EC2/DepthDuration/v2_depth_duration_MTurk/v2_DepthDuration_HTML.html#115,115,1280,609,1280,720,8-21-2022,8-55-38,145,depth_duration_stimuli/002445_2014-06-28_20-32-16_260595134347_rgbf000029-resize_4/002445_2014-06-28_20-32-16_260595134347_rgbf000029-resize_4-target.png,125,2.5315,5,2220,123,feet,jsons/VE125_randls_60_rotated.json,497131,613228,25,Man
145,322366,DepthScenes,duration_manipulation_targetAtFixation,jsons/VE125_randls_60_rotated.json,http://54.235.29.9/FacialAge/BNav_EC2/DepthDuration/v2_depth_duration_MTurk/v2_DepthDuration_HTML.html#115,115,1280,609,1280,720,8-21-2022,8-55-38,146,depth_duration_stimuli/000665_2014-06-09_20-42-35_260595134347_rgbf000110-resize_1/000665_2014-06-09_20-42-35_260595134347_rgbf000110-resize_1-target.png,125,3.057,4,2060,120,feet,jsons/VE125_randls_60_rotated.json,497131,613228,25,Man
146,322366,DepthScenes,duration_manipulation_targetAtFixation,jsons/VE125_randls_60_rotated.json,http://54.235.29.9/FacialAge/BNav_EC2/DepthDuration/v2_depth_duration_MTurk/v2_DepthDuration_HTML.html#115,115,1280,609,1280,720,8-21-2022,8-55-38,147,depth_duration_stimuli/001150_2014-06-17_15-27-34_260595134347_rgbf000108-resize_2/001150_2014-06-17_15-27-34_260595134347_rgbf000108-resize_2-target.png,125,4.0325,8,2378,129,feet,jsons/VE125_randls_60_rotated.json,497131,613228,25,Man
147,322366,DepthScenes,duration_manipulation_targetAtFixation,jsons/VE125_randls_60_rotated.json,http://54.235.29.9/FacialAge/BNav_EC2/DepthDuration/v2_depth_duration_MTurk/v2_DepthDuration_HTML.html#115,115,1280,609,1280,720,8-21-2022,8-55-38,148,depth_duration_stimuli/000734_2014-06-08_17-39-11_260595134347_rgbf000128-resize_2/000734_2014-06-08_17-39-11_260595134347_rgbf000128-resize_2-target.png,125,4.098,8,2875,125,feet,jsons/VE125_randls_60_rotated.json,497131,613228,25,Man
148,322366,DepthScenes,duration_manipulation_targetAtFixation,jsons/VE125_randls_60_rotated.json,http://54.235.29.9/FacialAge/BNav_EC2/DepthDuration/v2_depth_duration_MTurk/v2_DepthDuration_HTML.html#115,115,1280,609,1280,720,8-21-2022,8-55-38,149,depth_duration_stimuli/000739_2014-06-08_18-45-58_260595134347_rgbf000068-resize_1/000739_2014-06-08_18-45-58_260595134347_rgbf000068-resize_1-target.png,125,3.534,6,2209,112,feet,jsons/VE125_randls_60_rotated.json,497131,613228,25,Man
149,322366,DepthScenes,duration_manipulation_targetAtFixation,jsons/VE125_randls_60_rotated.json,http://54.235.29.9/FacialAge/BNav_EC2/DepthDuration/v2_depth_duration_MTurk/v2_DepthDuration_HTML.html#115,115,1280,609,1280,720,8-21-2022,8-55-38,150,depth_duration_stimuli/000502_2014-06-08_23-02-32_260595134347_rgbf000063-resize_4/000502_2014-06-08_23-02-32_260595134347_rgbf000063-resize_4-target.png,125,2.431,2,5003,124,feet,jsons/VE125_randls_60_rotated.json,497131,613228,25,Man
150,322366,DepthScenes,duration_manipulation_targetAtFixation,jsons/VE125_randls_60_rotated.json,http://54.235.29.9/FacialAge/BNav_EC2/DepthDuration/v2_depth_duration_MTurk/v2_DepthDuration_HTML.html#115,115,1280,609,1280,720,8-21-2022,8-55-38,151,depth_duration_stimuli/001199_2014-06-17_16-03-48_260595134347_rgbf000077-resize_0/001199_2014-06-17_16-03-48_260595134347_rgbf000077-resize_0-target.png,125,3.4375,5,2439,130,feet,jsons/VE125_randls_60_rotated.json,497131,613228,25,Man
151,322366,DepthScenes,duration_manipulation_targetAtFixation,jsons/VE125_randls_60_rotated.json,http://54.235.29.9/FacialAge/BNav_EC2/DepthDuration/v2_depth_duration_MTurk/v2_DepthDuration_HTML.html#115,115,1280,609,1280,720,8-21-2022,8-55-38,152,depth_duration_stimuli/000569_2014-06-09_22-51-47_260595134347_rgbf000141-resize_3/000569_2014-06-09_22-51-47_260595134347_rgbf000141-resize-original.jpg,125,4.512,4,4340,131,feet,jsons/VE125_randls_60_rotated.json,497131,613228,25,Man
152,322366,DepthScenes,duration_manipulation_targetAtFixation,jsons/VE125_randls_60_rotated.json,http://54.235.29.9/FacialAge/BNav_EC2/DepthDuration/v2_depth_duration_MTurk/v2_DepthDuration_HTML.html#115,115,1280,609,1280,720,8-21-2022,8-55-38,153,depth_duration_stimuli/002750_2014-06-22_19-08-03_094959634447_rgbf000094-resize_4/002750_2014-06-22_19-08-03_094959634447_rgbf000094-resize_4-target.png,125,2.354,5,2728,132,feet,jsons/VE125_randls_60_rotated.json,497131,613228,25,Man
153,322366,DepthScenes,duration_manipulation_targetAtFixation,jsons/VE125_randls_60_rotated.json,http://54.235.29.9/FacialAge/BNav_EC2/DepthDuration/v2_depth_duration_MTurk/v2_DepthDuration_HTML.html#115,115,1280,609,1280,720,8-21-2022,8-55-38,154,depth_duration_stimuli/002549_2014-06-24_13-41-39_094959634447_rgbf000022-resize_3/002549_2014-06-24_13-41-39_094959634447_rgbf000022-resize_3-target.png,125,1.476,3,2222,124,feet,jsons/VE125_randls_60_rotated.json,497131,613228,25,Man
154,322366,DepthScenes,duration_manipulation_targetAtFixation,jsons/VE125_randls_60_rotated.json,http://54.235.29.9/FacialAge/BNav_EC2/DepthDuration/v2_depth_duration_MTurk/v2_DepthDuration_HTML.html#115,115,1280,609,1280,720,8-21-2022,8-55-38,155,depth_duration_stimuli/000556_2014-06-09_22-42-56_260595134347_rgbf000214-resize_1/000556_2014-06-09_22-42-56_260595134347_rgbf000214-resize_1-target.png,125,4.8415,9,2333,123,feet,jsons/VE125_randls_60_rotated.json,497131,613228,25,Man
155,322366,DepthScenes,duration_manipulation_targetAtFixation,jsons/VE125_randls_60_rotated.json,http://54.235.29.9/FacialAge/BNav_EC2/DepthDuration/v2_depth_duration_MTurk/v2_DepthDuration_HTML.html#115,115,1280,609,1280,720,8-21-2022,8-55-38,156,depth_duration_stimuli/001158_2014-06-17_15-32-16_260595134347_rgbf000138-resize_2/001158_2014-06-17_15-32-16_260595134347_rgbf000138-resize_2-target.png,125,4.5315,8,2520,116,feet,jsons/VE125_randls_60_rotated.json,497131,613228,25,Man
156,322366,DepthScenes,duration_manipulation_targetAtFixation,jsons/VE125_randls_60_rotated.json,http://54.235.29.9/FacialAge/BNav_EC2/DepthDuration/v2_depth_duration_MTurk/v2_DepthDuration_HTML.html#115,115,1280,609,1280,720,8-21-2022,8-55-38,157,depth_duration_stimuli/002637_2014-06-24_14-51-13_094959634447_rgbf000066-resize_4/002637_2014-06-24_14-51-13_094959634447_rgbf000066-resize_4-target.png,125,1.9955,5,2373,124,feet,jsons/VE125_randls_60_rotated.json,497131,613228,25,Man
157,322366,DepthScenes,duration_manipulation_targetAtFixation,jsons/VE125_randls_60_rotated.json,http://54.235.29.9/FacialAge/BNav_EC2/DepthDuration/v2_depth_duration_MTurk/v2_DepthDuration_HTML.html#115,115,1280,609,1280,720,8-21-2022,8-55-38,158,depth_duration_stimuli/003534_2014-05-22_15-06-10_094959634447_rgbf000102-resize_4/003534_2014-05-22_15-06-10_094959634447_rgbf000102-resize_4-target.png,125,1.426,6,2506,140,feet,jsons/VE125_randls_60_rotated.json,497131,613228,25,Man
158,322366,DepthScenes,duration_manipulation_targetAtFixation,jsons/VE125_randls_60_rotated.json,http://54.235.29.9/FacialAge/BNav_EC2/DepthDuration/v2_depth_duration_MTurk/v2_DepthDuration_HTML.html#115,115,1280,609,1280,720,8-21-2022,8-55-38,159,depth_duration_stimuli/002209_2014-06-28_18-36-10_260595134347_rgbf000051-resize_1/002209_2014-06-28_18-36-10_260595134347_rgbf000051-resize_1-target.png,125,2.057,3,2202,121,feet,jsons/VE125_randls_60_rotated.json,497131,613228,25,Man
159,322366,DepthScenes,duration_manipulation_targetAtFixation,jsons/VE125_randls_60_rotated.json,http://54.235.29.9/FacialAge/BNav_EC2/DepthDuration/v2_depth_duration_MTurk/v2_DepthDuration_HTML.html#115,115,1280,609,1280,720,8-21-2022,8-55-38,160,depth_duration_stimuli/002763_2014-06-22_19-13-10_094959634447_rgbf000075-resize_4/002763_2014-06-22_19-13-10_094959634447_rgbf000075-resize_4-target.png,125,1.68375,4,2326,124,feet,jsons/VE125_randls_60_rotated.json,497131,613228,25,Man
160,322366,DepthScenes,duration_manipulation_targetAtFixation,jsons/VE125_randls_60_rotated.json,http://54.235.29.9/FacialAge/BNav_EC2/DepthDuration/v2_depth_duration_MTurk/v2_DepthDuration_HTML.html#115,115,1280,609,1280,720,8-21-2022,8-55-38,161,depth_duration_stimuli/002995_2014-06-15_12-31-26_094959634447_rgbf000150-resize_1/002995_2014-06-15_12-31-26_094959634447_rgbf000150-resize_1-target.png,125,3.8360000000000003,6,1929,126,feet,jsons/VE125_randls_60_rotated.json,497131,613228,25,Man
161,322366,DepthScenes,duration_manipulation_targetAtFixation,jsons/VE125_randls_60_rotated.json,http://54.235.29.9/FacialAge/BNav_EC2/DepthDuration/v2_depth_duration_MTurk/v2_DepthDuration_HTML.html#115,115,1280,609,1280,720,8-21-2022,8-55-38,162,depth_duration_stimuli/002748_2014-06-22_19-07-22_094959634447_rgbf000078-resize_1/002748_2014-06-22_19-07-22_094959634447_rgbf000078-resize_1-target.png,125,4.6705,3,3954,125,feet,jsons/VE125_randls_60_rotated.json,497131,613228,25,Man
162,322366,DepthScenes,duration_manipulation_targetAtFixation,jsons/VE125_randls_60_rotated.json,http://54.235.29.9/FacialAge/BNav_EC2/DepthDuration/v2_depth_duration_MTurk/v2_DepthDuration_HTML.html#115,115,1280,609,1280,720,8-21-2022,8-55-38,163,depth_duration_stimuli/000457_2014-06-08_16-52-43_260595134347_rgbf000199-resize_1/000457_2014-06-08_16-52-43_260595134347_rgbf000199-resize_1-target.png,125,3.6489999999999996,5,1931,120,feet,jsons/VE125_randls_60_rotated.json,497131,613228,25,Man
163,322366,DepthScenes,duration_manipulation_targetAtFixation,jsons/VE125_randls_60_rotated.json,http://54.235.29.9/FacialAge/BNav_EC2/DepthDuration/v2_depth_duration_MTurk/v2_DepthDuration_HTML.html#115,115,1280,609,1280,720,8-21-2022,8-55-38,164,depth_duration_stimuli/000929_2014-06-09_16-33-19_260595134347_rgbf000139-resize_0/000929_2014-06-09_16-33-19_260595134347_rgbf000139-resize_0-target.png,125,2.8680000000000003,6,1997,124,feet,jsons/VE125_randls_60_rotated.json,497131,613228,25,Man
