,subjID,experimentName,versionName,sequenceName,url,selected_row,windowWidth,windowHeight,screenWidth,screenHeight,startDate,startTime,trial,stimulus,duration,actual_depth,depth_estimate,trial_RT,log_sceneDuration,unitSelection,seq_filepath,experimentTime,totalTime,age,gender
0,324072,DepthScenes,duration_manipulation_targetAtFixation,jsons/v1_VE250_randls_77_rotated.json,http://54.235.29.9/FacialAge/BNav_EC2/DepthDuration/v2_depth_duration_MTurk/v2_DepthDuration_HTML.html#29,29,1366,625,1366,768,8-20-2022,11-7-5,1,depth_duration_stimuli/000556_2014-06-09_22-42-56_260595134347_rgbf000214-resize_1/000556_2014-06-09_22-42-56_260595134347_rgbf000214-resize_1-target.png,250,4.8415,2,4312,238,feet,jsons/v1_VE250_randls_77_rotated.json,1626350,1881894,35,Woman
1,324072,DepthScenes,duration_manipulation_targetAtFixation,jsons/v1_VE250_randls_77_rotated.json,http://54.235.29.9/FacialAge/BNav_EC2/DepthDuration/v2_depth_duration_MTurk/v2_DepthDuration_HTML.html#29,29,1366,625,1366,768,8-20-2022,11-7-5,2,depth_duration_stimuli/001158_2014-06-17_15-32-16_260595134347_rgbf000138-resize_2/001158_2014-06-17_15-32-16_260595134347_rgbf000138-resize_2-target.png,250,4.5315,1,6192,256,feet,jsons/v1_VE250_randls_77_rotated.json,1626350,1881894,35,Woman
2,324072,DepthScenes,duration_manipulation_targetAtFixation,jsons/v1_VE250_randls_77_rotated.json,http://54.235.29.9/FacialAge/BNav_EC2/DepthDuration/v2_depth_duration_MTurk/v2_DepthDuration_HTML.html#29,29,1366,625,1366,768,8-20-2022,11-7-5,3,depth_duration_stimuli/000549_2014-06-08_22-10-24_260595134347_rgbf000247-resize_3/000549_2014-06-08_22-10-24_260595134347_rgbf000247-resize_3-target.png,250,1.841,1,3131,240,feet,jsons/v1_VE250_randls_77_rotated.json,1626350,1881894,35,Woman
3,324072,DepthScenes,duration_manipulation_targetAtFixation,jsons/v1_VE250_randls_77_rotated.json,http://54.235.29.9/FacialAge/BNav_EC2/DepthDuration/v2_depth_duration_MTurk/v2_DepthDuration_HTML.html#29,29,1366,625,1366,768,8-20-2022,11-7-5,4,depth_duration_stimuli/001055_2014-06-08_18-45-35_260595134347_rgbf000111-resize_4/001055_2014-06-08_18-45-35_260595134347_rgbf000111-resize_4-target.png,250,2.4290000000000003,4,2955,237,feet,jsons/v1_VE250_randls_77_rotated.json,1626350,1881894,35,Woman
4,324072,DepthScenes,duration_manipulation_targetAtFixation,jsons/v1_VE250_randls_77_rotated.json,http://54.235.29.9/FacialAge/BNav_EC2/DepthDuration/v2_depth_duration_MTurk/v2_DepthDuration_HTML.html#29,29,1366,625,1366,768,8-20-2022,11-7-5,5,depth_duration_stimuli/000854_2014-06-09_19-43-13_260595134347_rgbf000066-resize_0/000854_2014-06-09_19-43-13_260595134347_rgbf000066-resize_0-target.png,250,3.068,3,3407,248,feet,jsons/v1_VE250_randls_77_rotated.json,1626350,1881894,35,Woman
5,324072,DepthScenes,duration_manipulation_targetAtFixation,jsons/v1_VE250_randls_77_rotated.json,http://54.235.29.9/FacialAge/BNav_EC2/DepthDuration/v2_depth_duration_MTurk/v2_DepthDuration_HTML.html#29,29,1366,625,1366,768,8-20-2022,11-7-5,6,depth_duration_stimuli/000758_2014-06-08_22-05-08_260595134347_rgbf000085-resize_0/000758_2014-06-08_22-05-08_260595134347_rgbf000085-resize_0-target.png,250,3.3810000000000002,2,3309,248,feet,jsons/v1_VE250_randls_77_rotated.json,1626350,1881894,35,Woman
6,324072,DepthScenes,duration_manipulation_targetAtFixation,jsons/v1_VE250_randls_77_rotated.json,http://54.235.29.9/FacialAge/BNav_EC2/DepthDuration/v2_depth_duration_MTurk/v2_DepthDuration_HTML.html#29,29,1366,625,1366,768,8-20-2022,11-7-5,7,depth_duration_stimuli/002637_2014-06-24_14-51-13_094959634447_rgbf000066-resize_4/002637_2014-06-24_14-51-13_094959634447_rgbf000066-resize_4-target.png,250,1.9955,2,2893,250,feet,jsons/v1_VE250_randls_77_rotated.json,1626350,1881894,35,Woman
7,324072,DepthScenes,duration_manipulation_targetAtFixation,jsons/v1_VE250_randls_77_rotated.json,http://54.235.29.9/FacialAge/BNav_EC2/DepthDuration/v2_depth_duration_MTurk/v2_DepthDuration_HTML.html#29,29,1366,625,1366,768,8-20-2022,11-7-5,8,depth_duration_stimuli/003534_2014-05-22_15-06-10_094959634447_rgbf000102-resize_4/003534_2014-05-22_15-06-10_094959634447_rgbf000102-resize_4-target.png,250,1.426,1,5418,237,feet,jsons/v1_VE250_randls_77_rotated.json,1626350,1881894,35,Woman
8,324072,DepthScenes,duration_manipulation_targetAtFixation,jsons/v1_VE250_randls_77_rotated.json,http://54.235.29.9/FacialAge/BNav_EC2/DepthDuration/v2_depth_duration_MTurk/v2_DepthDuration_HTML.html#29,29,1366,625,1366,768,8-20-2022,11-7-5,9,depth_duration_stimuli/002660_2014-06-13_15-44-18_094959634447_rgbf001878-resize_2/002660_2014-06-13_15-44-18_094959634447_rgbf001878-resize_2-target.png,250,3.576,4,4481,241,feet,jsons/v1_VE250_randls_77_rotated.json,1626350,1881894,35,Woman
9,324072,DepthScenes,duration_manipulation_targetAtFixation,jsons/v1_VE250_randls_77_rotated.json,http://54.235.29.9/FacialAge/BNav_EC2/DepthDuration/v2_depth_duration_MTurk/v2_DepthDuration_HTML.html#29,29,1366,625,1366,768,8-20-2022,11-7-5,10,depth_duration_stimuli/002153_2014-06-25_21-27-18_260595134347_rgbf000038-resize_5/002153_2014-06-25_21-27-18_260595134347_rgbf000038-resize_5-target.png,250,2.505,2,3280,252,feet,jsons/v1_VE250_randls_77_rotated.json,1626350,1881894,35,Woman
10,324072,DepthScenes,duration_manipulation_targetAtFixation,jsons/v1_VE250_randls_77_rotated.json,http://54.235.29.9/FacialAge/BNav_EC2/DepthDuration/v2_depth_duration_MTurk/v2_DepthDuration_HTML.html#29,29,1366,625,1366,768,8-20-2022,11-7-5,11,depth_duration_stimuli/000665_2014-06-09_20-42-35_260595134347_rgbf000110-resize_1/000665_2014-06-09_20-42-35_260595134347_rgbf000110-resize_1-target.png,250,3.057,4,3664,246,feet,jsons/v1_VE250_randls_77_rotated.json,1626350,1881894,35,Woman
11,324072,DepthScenes,duration_manipulation_targetAtFixation,jsons/v1_VE250_randls_77_rotated.json,http://54.235.29.9/FacialAge/BNav_EC2/DepthDuration/v2_depth_duration_MTurk/v2_DepthDuration_HTML.html#29,29,1366,625,1366,768,8-20-2022,11-7-5,12,depth_duration_stimuli/001150_2014-06-17_15-27-34_260595134347_rgbf000108-resize_2/001150_2014-06-17_15-27-34_260595134347_rgbf000108-resize_2-target.png,250,4.0325,4,3539,245,feet,jsons/v1_VE250_randls_77_rotated.json,1626350,1881894,35,Woman
12,324072,DepthScenes,duration_manipulation_targetAtFixation,jsons/v1_VE250_randls_77_rotated.json,http://54.235.29.9/FacialAge/BNav_EC2/DepthDuration/v2_depth_duration_MTurk/v2_DepthDuration_HTML.html#29,29,1366,625,1366,768,8-20-2022,11-7-5,13,depth_duration_stimuli/000409_2014-06-04_19-23-33_260595134347_rgbf000067-resize_0/000409_2014-06-04_19-23-33_260595134347_rgbf000067-resize_0-target.png,250,3.7335,2,3448,258,feet,jsons/v1_VE250_randls_77_rotated.json,1626350,1881894,35,Woman
13,324072,DepthScenes,duration_manipulation_targetAtFixation,jsons/v1_VE250_randls_77_rotated.json,http://54.235.29.9/FacialAge/BNav_EC2/DepthDuration/v2_depth_duration_MTurk/v2_DepthDuration_HTML.html#29,29,1366,625,1366,768,8-20-2022,11-7-5,14,depth_duration_stimuli/002663_2014-06-13_15-50-26_094959634447_rgbf000075-resize_1/002663_2014-06-13_15-50-26_094959634447_rgbf000075-resize_1-target.png,250,4.7495,3,3014,246,feet,jsons/v1_VE250_randls_77_rotated.json,1626350,1881894,35,Woman
14,324072,DepthScenes,duration_manipulation_targetAtFixation,jsons/v1_VE250_randls_77_rotated.json,http://54.235.29.9/FacialAge/BNav_EC2/DepthDuration/v2_depth_duration_MTurk/v2_DepthDuration_HTML.html#29,29,1366,625,1366,768,8-20-2022,11-7-5,15,depth_duration_stimuli/003338_2014-05-20_11-01-23_094959634447_rgbf000051-resize_6/003338_2014-05-20_11-01-23_094959634447_rgbf000051-resize_6-target.png,250,1.693,2,3786,262,feet,jsons/v1_VE250_randls_77_rotated.json,1626350,1881894,35,Woman
15,324072,DepthScenes,duration_manipulation_targetAtFixation,jsons/v1_VE250_randls_77_rotated.json,http://54.235.29.9/FacialAge/BNav_EC2/DepthDuration/v2_depth_duration_MTurk/v2_DepthDuration_HTML.html#29,29,1366,625,1366,768,8-20-2022,11-7-5,16,depth_duration_stimuli/002509_2014-06-24_13-19-22_094959634447_rgbf000077-resize_0/002509_2014-06-24_13-19-22_094959634447_rgbf000077-resize_0-target.png,250,1.3065,2,3617,256,feet,jsons/v1_VE250_randls_77_rotated.json,1626350,1881894,35,Woman
16,324072,DepthScenes,duration_manipulation_targetAtFixation,jsons/v1_VE250_randls_77_rotated.json,http://54.235.29.9/FacialAge/BNav_EC2/DepthDuration/v2_depth_duration_MTurk/v2_DepthDuration_HTML.html#29,29,1366,625,1366,768,8-20-2022,11-7-5,17,depth_duration_stimuli/003228_2014-05-14_13-42-35_094959634447_rgbf000101-resize_1/003228_2014-05-14_13-42-35_094959634447_rgbf000101-resize_1-target.png,250,1.9680000000000002,4,3085,256,feet,jsons/v1_VE250_randls_77_rotated.json,1626350,1881894,35,Woman
17,324072,DepthScenes,duration_manipulation_targetAtFixation,jsons/v1_VE250_randls_77_rotated.json,http://54.235.29.9/FacialAge/BNav_EC2/DepthDuration/v2_depth_duration_MTurk/v2_DepthDuration_HTML.html#29,29,1366,625,1366,768,8-20-2022,11-7-5,18,depth_duration_stimuli/002600_2014-06-24_14-27-04_094959634447_rgbf000074-resize_2/002600_2014-06-24_14-27-04_094959634447_rgbf000074-resize_2-target.png,250,2.7575,3,5201,237,feet,jsons/v1_VE250_randls_77_rotated.json,1626350,1881894,35,Woman
18,324072,DepthScenes,duration_manipulation_targetAtFixation,jsons/v1_VE250_randls_77_rotated.json,http://54.235.29.9/FacialAge/BNav_EC2/DepthDuration/v2_depth_duration_MTurk/v2_DepthDuration_HTML.html#29,29,1366,625,1366,768,8-20-2022,11-7-5,19,depth_duration_stimuli/001498_2014-06-19_17-45-14_260595134347_rgbf000129-resize_4/001498_2014-06-19_17-45-14_260595134347_rgbf000129-resize-original.jpg,250,1.4075,0,4114,250,feet,jsons/v1_VE250_randls_77_rotated.json,1626350,1881894,35,Woman
19,324072,DepthScenes,duration_manipulation_targetAtFixation,jsons/v1_VE250_randls_77_rotated.json,http://54.235.29.9/FacialAge/BNav_EC2/DepthDuration/v2_depth_duration_MTurk/v2_DepthDuration_HTML.html#29,29,1366,625,1366,768,8-20-2022,11-7-5,20,depth_duration_stimuli/001100_2014-06-15_17-46-26_260595134347_rgbf000225-resize_2/001100_2014-06-15_17-46-26_260595134347_rgbf000225-resize_2-target.png,250,2.24,3,3141,246,feet,jsons/v1_VE250_randls_77_rotated.json,1626350,1881894,35,Woman
20,324072,DepthScenes,duration_manipulation_targetAtFixation,jsons/v1_VE250_randls_77_rotated.json,http://54.235.29.9/FacialAge/BNav_EC2/DepthDuration/v2_depth_duration_MTurk/v2_DepthDuration_HTML.html#29,29,1366,625,1366,768,8-20-2022,11-7-5,21,depth_duration_stimuli/002784_2014-06-22_19-26-30_094959634447_rgbf000083-resize_3/002784_2014-06-22_19-26-30_094959634447_rgbf000083-resize_3-target.png,250,1.8046666666667,2,3369,249,feet,jsons/v1_VE250_randls_77_rotated.json,1626350,1881894,35,Woman
21,324072,DepthScenes,duration_manipulation_targetAtFixation,jsons/v1_VE250_randls_77_rotated.json,http://54.235.29.9/FacialAge/BNav_EC2/DepthDuration/v2_depth_duration_MTurk/v2_DepthDuration_HTML.html#29,29,1366,625,1366,768,8-20-2022,11-7-5,22,depth_duration_stimuli/002199_2014-06-28_18-33-56_260595134347_rgbf000074-resize_0/002199_2014-06-28_18-33-56_260595134347_rgbf000074-resize_0-target.png,250,1.996,3,2824,244,feet,jsons/v1_VE250_randls_77_rotated.json,1626350,1881894,35,Woman
22,324072,DepthScenes,duration_manipulation_targetAtFixation,jsons/v1_VE250_randls_77_rotated.json,http://54.235.29.9/FacialAge/BNav_EC2/DepthDuration/v2_depth_duration_MTurk/v2_DepthDuration_HTML.html#29,29,1366,625,1366,768,8-20-2022,11-7-5,23,depth_duration_stimuli/001056_2014-06-08_18-46-44_260595134347_rgbf000068-resize_0/001056_2014-06-08_18-46-44_260595134347_rgbf000068-resize_0-target.png,250,2.6625,1,636942,259,feet,jsons/v1_VE250_randls_77_rotated.json,1626350,1881894,35,Woman
23,324072,DepthScenes,duration_manipulation_targetAtFixation,jsons/v1_VE250_randls_77_rotated.json,http://54.235.29.9/FacialAge/BNav_EC2/DepthDuration/v2_depth_duration_MTurk/v2_DepthDuration_HTML.html#29,29,1366,625,1366,768,8-20-2022,11-7-5,24,depth_duration_stimuli/002136_2014-06-25_21-18-03_260595134347_rgbf000109-resize_3/002136_2014-06-25_21-18-03_260595134347_rgbf000109-resize_3-target.png,250,1.9569999999999999,4,15165,238,feet,jsons/v1_VE250_randls_77_rotated.json,1626350,1881894,35,Woman
24,324072,DepthScenes,duration_manipulation_targetAtFixation,jsons/v1_VE250_randls_77_rotated.json,http://54.235.29.9/FacialAge/BNav_EC2/DepthDuration/v2_depth_duration_MTurk/v2_DepthDuration_HTML.html#29,29,1366,625,1366,768,8-20-2022,11-7-5,25,depth_duration_stimuli/002964_2014-06-08_17-46-11_094959634447_rgbf000091-resize_4/002964_2014-06-08_17-46-11_094959634447_rgbf000091-resize_4-target.png,250,1.6909999999999998,2,4889,248,feet,jsons/v1_VE250_randls_77_rotated.json,1626350,1881894,35,Woman
25,324072,DepthScenes,duration_manipulation_targetAtFixation,jsons/v1_VE250_randls_77_rotated.json,http://54.235.29.9/FacialAge/BNav_EC2/DepthDuration/v2_depth_duration_MTurk/v2_DepthDuration_HTML.html#29,29,1366,625,1366,768,8-20-2022,11-7-5,26,depth_duration_stimuli/001571_2014-06-20_17-21-32_260595134347_rgbf000089-resize_1/001571_2014-06-20_17-21-32_260595134347_rgbf000089-resize_1-target.png,250,1.86,2,24375,235,feet,jsons/v1_VE250_randls_77_rotated.json,1626350,1881894,35,Woman
26,324072,DepthScenes,duration_manipulation_targetAtFixation,jsons/v1_VE250_randls_77_rotated.json,http://54.235.29.9/FacialAge/BNav_EC2/DepthDuration/v2_depth_duration_MTurk/v2_DepthDuration_HTML.html#29,29,1366,625,1366,768,8-20-2022,11-7-5,27,depth_duration_stimuli/002272_2014-06-28_18-53-56_260595134347_rgbf000067-resize_2/002272_2014-06-28_18-53-56_260595134347_rgbf000067-resize_2-target.png,250,1.138,3,22011,248,feet,jsons/v1_VE250_randls_77_rotated.json,1626350,1881894,35,Woman
27,324072,DepthScenes,duration_manipulation_targetAtFixation,jsons/v1_VE250_randls_77_rotated.json,http://54.235.29.9/FacialAge/BNav_EC2/DepthDuration/v2_depth_duration_MTurk/v2_DepthDuration_HTML.html#29,29,1366,625,1366,768,8-20-2022,11-7-5,28,depth_duration_stimuli/002323_2014-06-28_20-01-54_260595134347_rgbf000051-resize_4/002323_2014-06-28_20-01-54_260595134347_rgbf000051-resize_4-target.png,250,3.7310000000000003,1,7226,253,feet,jsons/v1_VE250_randls_77_rotated.json,1626350,1881894,35,Woman
28,324072,DepthScenes,duration_manipulation_targetAtFixation,jsons/v1_VE250_randls_77_rotated.json,http://54.235.29.9/FacialAge/BNav_EC2/DepthDuration/v2_depth_duration_MTurk/v2_DepthDuration_HTML.html#29,29,1366,625,1366,768,8-20-2022,11-7-5,29,depth_duration_stimuli/000917_2014-06-09_22-45-29_260595134347_rgbf000149-resize_3/000917_2014-06-09_22-45-29_260595134347_rgbf000149-resize_3-target.png,250,4.1865,2,8722,250,feet,jsons/v1_VE250_randls_77_rotated.json,1626350,1881894,35,Woman
29,324072,DepthScenes,duration_manipulation_targetAtFixation,jsons/v1_VE250_randls_77_rotated.json,http://54.235.29.9/FacialAge/BNav_EC2/DepthDuration/v2_depth_duration_MTurk/v2_DepthDuration_HTML.html#29,29,1366,625,1366,768,8-20-2022,11-7-5,30,depth_duration_stimuli/002072_2014-06-24_21-48-06_260595134347_rgbf000115-resize_0/002072_2014-06-24_21-48-06_260595134347_rgbf000115-resize-original.jpg,250,4.702,4,4170,255,feet,jsons/v1_VE250_randls_77_rotated.json,1626350,1881894,35,Woman
30,324072,DepthScenes,duration_manipulation_targetAtFixation,jsons/v1_VE250_randls_77_rotated.json,http://54.235.29.9/FacialAge/BNav_EC2/DepthDuration/v2_depth_duration_MTurk/v2_DepthDuration_HTML.html#29,29,1366,625,1366,768,8-20-2022,11-7-5,31,depth_duration_stimuli/002425_2014-06-28_20-27-29_260595134347_rgbf000031-resize_8/002425_2014-06-28_20-27-29_260595134347_rgbf000031-resize_8-target.png,250,3.8960000000000004,4,7752,250,feet,jsons/v1_VE250_randls_77_rotated.json,1626350,1881894,35,Woman
31,324072,DepthScenes,duration_manipulation_targetAtFixation,jsons/v1_VE250_randls_77_rotated.json,http://54.235.29.9/FacialAge/BNav_EC2/DepthDuration/v2_depth_duration_MTurk/v2_DepthDuration_HTML.html#29,29,1366,625,1366,768,8-20-2022,11-7-5,32,depth_duration_stimuli/000642_2014-06-08_16-59-25_260595134347_rgbf000098-resize_2/000642_2014-06-08_16-59-25_260595134347_rgbf000098-resize_2-target.png,250,2.8815,1,8961,242,feet,jsons/v1_VE250_randls_77_rotated.json,1626350,1881894,35,Woman
32,324072,DepthScenes,duration_manipulation_targetAtFixation,jsons/v1_VE250_randls_77_rotated.json,http://54.235.29.9/FacialAge/BNav_EC2/DepthDuration/v2_depth_duration_MTurk/v2_DepthDuration_HTML.html#29,29,1366,625,1366,768,8-20-2022,11-7-5,33,depth_duration_stimuli/000457_2014-06-08_16-52-43_260595134347_rgbf000199-resize_1/000457_2014-06-08_16-52-43_260595134347_rgbf000199-resize_1-target.png,250,3.6489999999999996,3,3650,248,feet,jsons/v1_VE250_randls_77_rotated.json,1626350,1881894,35,Woman
33,324072,DepthScenes,duration_manipulation_targetAtFixation,jsons/v1_VE250_randls_77_rotated.json,http://54.235.29.9/FacialAge/BNav_EC2/DepthDuration/v2_depth_duration_MTurk/v2_DepthDuration_HTML.html#29,29,1366,625,1366,768,8-20-2022,11-7-5,34,depth_duration_stimuli/000929_2014-06-09_16-33-19_260595134347_rgbf000139-resize_0/000929_2014-06-09_16-33-19_260595134347_rgbf000139-resize_0-target.png,250,2.8680000000000003,2,5000,247,feet,jsons/v1_VE250_randls_77_rotated.json,1626350,1881894,35,Woman
34,324072,DepthScenes,duration_manipulation_targetAtFixation,jsons/v1_VE250_randls_77_rotated.json,http://54.235.29.9/FacialAge/BNav_EC2/DepthDuration/v2_depth_duration_MTurk/v2_DepthDuration_HTML.html#29,29,1366,625,1366,768,8-20-2022,11-7-5,35,depth_duration_stimuli/003079_2014-06-15_15-18-20_094959634447_rgbf000152-resize_8/003079_2014-06-15_15-18-20_094959634447_rgbf000152-resize_8-target.png,250,2.8775,4,3438,247,feet,jsons/v1_VE250_randls_77_rotated.json,1626350,1881894,35,Woman
35,324072,DepthScenes,duration_manipulation_targetAtFixation,jsons/v1_VE250_randls_77_rotated.json,http://54.235.29.9/FacialAge/BNav_EC2/DepthDuration/v2_depth_duration_MTurk/v2_DepthDuration_HTML.html#29,29,1366,625,1366,768,8-20-2022,11-7-5,36,depth_duration_stimuli/000506_2014-06-08_23-21-00_260595134347_rgbf000070-resize_7/000506_2014-06-08_23-21-00_260595134347_rgbf000070-resize_7-target.png,250,4.0585,3,12236,249,feet,jsons/v1_VE250_randls_77_rotated.json,1626350,1881894,35,Woman
36,324072,DepthScenes,duration_manipulation_targetAtFixation,jsons/v1_VE250_randls_77_rotated.json,http://54.235.29.9/FacialAge/BNav_EC2/DepthDuration/v2_depth_duration_MTurk/v2_DepthDuration_HTML.html#29,29,1366,625,1366,768,8-20-2022,11-7-5,37,depth_duration_stimuli/002344_2014-06-28_20-06-29_260595134347_rgbf000030-resize_1/002344_2014-06-28_20-06-29_260595134347_rgbf000030-resize_1-target.png,250,1.5795,2,3124,242,feet,jsons/v1_VE250_randls_77_rotated.json,1626350,1881894,35,Woman
37,324072,DepthScenes,duration_manipulation_targetAtFixation,jsons/v1_VE250_randls_77_rotated.json,http://54.235.29.9/FacialAge/BNav_EC2/DepthDuration/v2_depth_duration_MTurk/v2_DepthDuration_HTML.html#29,29,1366,625,1366,768,8-20-2022,11-7-5,38,depth_duration_stimuli/002725_2014-06-22_11-47-51_094959634447_rgbf000070-resize_1/002725_2014-06-22_11-47-51_094959634447_rgbf000070-resize_1-target.png,250,2.195,4,3583,255,feet,jsons/v1_VE250_randls_77_rotated.json,1626350,1881894,35,Woman
38,324072,DepthScenes,duration_manipulation_targetAtFixation,jsons/v1_VE250_randls_77_rotated.json,http://54.235.29.9/FacialAge/BNav_EC2/DepthDuration/v2_depth_duration_MTurk/v2_DepthDuration_HTML.html#29,29,1366,625,1366,768,8-20-2022,11-7-5,39,depth_duration_stimuli/002678_2014-06-13_16-15-32_094959634447_rgbf000151-resize_6/002678_2014-06-13_16-15-32_094959634447_rgbf000151-resize_6-target.png,250,2.1830000000000003,1,3118,249,feet,jsons/v1_VE250_randls_77_rotated.json,1626350,1881894,35,Woman
39,324072,DepthScenes,duration_manipulation_targetAtFixation,jsons/v1_VE250_randls_77_rotated.json,http://54.235.29.9/FacialAge/BNav_EC2/DepthDuration/v2_depth_duration_MTurk/v2_DepthDuration_HTML.html#29,29,1366,625,1366,768,8-20-2022,11-7-5,40,depth_duration_stimuli/000368_2014-06-09_15-53-01_260595134347_rgbf000155-resize_2/000368_2014-06-09_15-53-01_260595134347_rgbf000155-resize_2-target.png,250,2.4859999999999998,3,3323,260,feet,jsons/v1_VE250_randls_77_rotated.json,1626350,1881894,35,Woman
40,324072,DepthScenes,duration_manipulation_targetAtFixation,jsons/v1_VE250_randls_77_rotated.json,http://54.235.29.9/FacialAge/BNav_EC2/DepthDuration/v2_depth_duration_MTurk/v2_DepthDuration_HTML.html#29,29,1366,625,1366,768,8-20-2022,11-7-5,41,depth_duration_stimuli/001650_2014-06-20_12-09-00_260595134347_rgbf000087-resize_3/001650_2014-06-20_12-09-00_260595134347_rgbf000087-resize_3-target.png,250,1.9505,2,2921,250,feet,jsons/v1_VE250_randls_77_rotated.json,1626350,1881894,35,Woman
41,324072,DepthScenes,duration_manipulation_targetAtFixation,jsons/v1_VE250_randls_77_rotated.json,http://54.235.29.9/FacialAge/BNav_EC2/DepthDuration/v2_depth_duration_MTurk/v2_DepthDuration_HTML.html#29,29,1366,625,1366,768,8-20-2022,11-7-5,42,depth_duration_stimuli/000682_2014-06-08_23-14-58_260595134347_rgbf000041-resize_5/000682_2014-06-08_23-14-58_260595134347_rgbf000041-resize_5-target.png,250,2.7239999999999998,1,3828,236,feet,jsons/v1_VE250_randls_77_rotated.json,1626350,1881894,35,Woman
42,324072,DepthScenes,duration_manipulation_targetAtFixation,jsons/v1_VE250_randls_77_rotated.json,http://54.235.29.9/FacialAge/BNav_EC2/DepthDuration/v2_depth_duration_MTurk/v2_DepthDuration_HTML.html#29,29,1366,625,1366,768,8-20-2022,11-7-5,43,depth_duration_stimuli/003048_2014-06-15_13-49-43_094959634447_rgbf000150-resize_1/003048_2014-06-15_13-49-43_094959634447_rgbf000150-resize_1-target.png,250,4.0035,3,2979,249,feet,jsons/v1_VE250_randls_77_rotated.json,1626350,1881894,35,Woman
43,324072,DepthScenes,duration_manipulation_targetAtFixation,jsons/v1_VE250_randls_77_rotated.json,http://54.235.29.9/FacialAge/BNav_EC2/DepthDuration/v2_depth_duration_MTurk/v2_DepthDuration_HTML.html#29,29,1366,625,1366,768,8-20-2022,11-7-5,44,depth_duration_stimuli/002043_2014-06-24_20-29-38_260595134347_rgbf000039-resize_4/002043_2014-06-24_20-29-38_260595134347_rgbf000039-resize_4-target.png,250,2.8435,2,2838,252,feet,jsons/v1_VE250_randls_77_rotated.json,1626350,1881894,35,Woman
44,324072,DepthScenes,duration_manipulation_targetAtFixation,jsons/v1_VE250_randls_77_rotated.json,http://54.235.29.9/FacialAge/BNav_EC2/DepthDuration/v2_depth_duration_MTurk/v2_DepthDuration_HTML.html#29,29,1366,625,1366,768,8-20-2022,11-7-5,45,depth_duration_stimuli/000103_2014-05-14_22-01-17_260595134347_rgbf000152-resize_5/000103_2014-05-14_22-01-17_260595134347_rgbf000152-resize_5-target.png,250,1.993,2,10770,248,feet,jsons/v1_VE250_randls_77_rotated.json,1626350,1881894,35,Woman
45,324072,DepthScenes,duration_manipulation_targetAtFixation,jsons/v1_VE250_randls_77_rotated.json,http://54.235.29.9/FacialAge/BNav_EC2/DepthDuration/v2_depth_duration_MTurk/v2_DepthDuration_HTML.html#29,29,1366,625,1366,768,8-20-2022,11-7-5,46,depth_duration_stimuli/001555_2014-06-20_17-12-10_260595134347_rgbf000065-resize_4/001555_2014-06-20_17-12-10_260595134347_rgbf000065-resize_4-target.png,250,1.633,2,6923,257,feet,jsons/v1_VE250_randls_77_rotated.json,1626350,1881894,35,Woman
46,324072,DepthScenes,duration_manipulation_targetAtFixation,jsons/v1_VE250_randls_77_rotated.json,http://54.235.29.9/FacialAge/BNav_EC2/DepthDuration/v2_depth_duration_MTurk/v2_DepthDuration_HTML.html#29,29,1366,625,1366,768,8-20-2022,11-7-5,47,depth_duration_stimuli/002805_2014-06-22_19-54-03_094959634447_rgbf000079-resize_1/002805_2014-06-22_19-54-03_094959634447_rgbf000079-resize_1-target.png,250,3.1439999999999997,3,34304,237,feet,jsons/v1_VE250_randls_77_rotated.json,1626350,1881894,35,Woman
47,324072,DepthScenes,duration_manipulation_targetAtFixation,jsons/v1_VE250_randls_77_rotated.json,http://54.235.29.9/FacialAge/BNav_EC2/DepthDuration/v2_depth_duration_MTurk/v2_DepthDuration_HTML.html#29,29,1366,625,1366,768,8-20-2022,11-7-5,48,depth_duration_stimuli/000906_2014-06-08_13-35-43_260595134347_rgbf000155-resize_1/000906_2014-06-08_13-35-43_260595134347_rgbf000155-resize_1-target.png,250,2.8489999999999998,2,4056,244,feet,jsons/v1_VE250_randls_77_rotated.json,1626350,1881894,35,Woman
48,324072,DepthScenes,duration_manipulation_targetAtFixation,jsons/v1_VE250_randls_77_rotated.json,http://54.235.29.9/FacialAge/BNav_EC2/DepthDuration/v2_depth_duration_MTurk/v2_DepthDuration_HTML.html#29,29,1366,625,1366,768,8-20-2022,11-7-5,49,depth_duration_stimuli/001170_2014-06-17_15-43-44_260595134347_rgbf000096-resize_6/001170_2014-06-17_15-43-44_260595134347_rgbf000096-resize-original.jpg,250,1.1909999999999998,3,22781,243,feet,jsons/v1_VE250_randls_77_rotated.json,1626350,1881894,35,Woman
49,324072,DepthScenes,duration_manipulation_targetAtFixation,jsons/v1_VE250_randls_77_rotated.json,http://54.235.29.9/FacialAge/BNav_EC2/DepthDuration/v2_depth_duration_MTurk/v2_DepthDuration_HTML.html#29,29,1366,625,1366,768,8-20-2022,11-7-5,50,depth_duration_stimuli/002758_2014-06-22_19-11-20_094959634447_rgbf000128-resize_1/002758_2014-06-22_19-11-20_094959634447_rgbf000128-resize_1-target.png,250,2.555,1,6622,254,feet,jsons/v1_VE250_randls_77_rotated.json,1626350,1881894,35,Woman
50,324072,DepthScenes,duration_manipulation_targetAtFixation,jsons/v1_VE250_randls_77_rotated.json,http://54.235.29.9/FacialAge/BNav_EC2/DepthDuration/v2_depth_duration_MTurk/v2_DepthDuration_HTML.html#29,29,1366,625,1366,768,8-20-2022,11-7-5,51,depth_duration_stimuli/002630_2014-06-24_14-47-50_094959634447_rgbf000055-resize_1/002630_2014-06-24_14-47-50_094959634447_rgbf000055-resize_1-target.png,250,3.0095,3,3906,241,feet,jsons/v1_VE250_randls_77_rotated.json,1626350,1881894,35,Woman
51,324072,DepthScenes,duration_manipulation_targetAtFixation,jsons/v1_VE250_randls_77_rotated.json,http://54.235.29.9/FacialAge/BNav_EC2/DepthDuration/v2_depth_duration_MTurk/v2_DepthDuration_HTML.html#29,29,1366,625,1366,768,8-20-2022,11-7-5,52,depth_duration_stimuli/002953_2014-06-08_17-32-18_094959634447_rgbf000059-resize_5/002953_2014-06-08_17-32-18_094959634447_rgbf000059-resize_5-target.png,250,1.551,1,28483,248,feet,jsons/v1_VE250_randls_77_rotated.json,1626350,1881894,35,Woman
52,324072,DepthScenes,duration_manipulation_targetAtFixation,jsons/v1_VE250_randls_77_rotated.json,http://54.235.29.9/FacialAge/BNav_EC2/DepthDuration/v2_depth_duration_MTurk/v2_DepthDuration_HTML.html#29,29,1366,625,1366,768,8-20-2022,11-7-5,53,depth_duration_stimuli/000878_2014-06-08_22-52-45_260595134347_rgbf000045-resize_2/000878_2014-06-08_22-52-45_260595134347_rgbf000045-resize_2-target.png,250,2.092,4,3521,242,feet,jsons/v1_VE250_randls_77_rotated.json,1626350,1881894,35,Woman
53,324072,DepthScenes,duration_manipulation_targetAtFixation,jsons/v1_VE250_randls_77_rotated.json,http://54.235.29.9/FacialAge/BNav_EC2/DepthDuration/v2_depth_duration_MTurk/v2_DepthDuration_HTML.html#29,29,1366,625,1366,768,8-20-2022,11-7-5,54,depth_duration_stimuli/002568_2014-06-24_13-59-21_094959634447_rgbf000062-resize_4/002568_2014-06-24_13-59-21_094959634447_rgbf000062-resize_4-target.png,250,3.015,2,3394,249,feet,jsons/v1_VE250_randls_77_rotated.json,1626350,1881894,35,Woman
54,324072,DepthScenes,duration_manipulation_targetAtFixation,jsons/v1_VE250_randls_77_rotated.json,http://54.235.29.9/FacialAge/BNav_EC2/DepthDuration/v2_depth_duration_MTurk/v2_DepthDuration_HTML.html#29,29,1366,625,1366,768,8-20-2022,11-7-5,55,depth_duration_stimuli/003492_2014-05-21_15-50-55_094959634447_rgbf000828-resize_1/003492_2014-05-21_15-50-55_094959634447_rgbf000828-resize_1-target.png,250,4.06875,1,14958,249,feet,jsons/v1_VE250_randls_77_rotated.json,1626350,1881894,35,Woman
55,324072,DepthScenes,duration_manipulation_targetAtFixation,jsons/v1_VE250_randls_77_rotated.json,http://54.235.29.9/FacialAge/BNav_EC2/DepthDuration/v2_depth_duration_MTurk/v2_DepthDuration_HTML.html#29,29,1366,625,1366,768,8-20-2022,11-7-5,56,depth_duration_stimuli/000927_2014-06-09_16-32-30_260595134347_rgbf000123-resize_3/000927_2014-06-09_16-32-30_260595134347_rgbf000123-resize_3-target.png,250,2.6785,3,3518,234,feet,jsons/v1_VE250_randls_77_rotated.json,1626350,1881894,35,Woman
56,324072,DepthScenes,duration_manipulation_targetAtFixation,jsons/v1_VE250_randls_77_rotated.json,http://54.235.29.9/FacialAge/BNav_EC2/DepthDuration/v2_depth_duration_MTurk/v2_DepthDuration_HTML.html#29,29,1366,625,1366,768,8-20-2022,11-7-5,57,depth_duration_stimuli/001110_2014-06-15_17-25-28_260595134347_rgbf000150-resize_1/001110_2014-06-15_17-25-28_260595134347_rgbf000150-resize_1-target.png,250,1.7115,2,3479,249,feet,jsons/v1_VE250_randls_77_rotated.json,1626350,1881894,35,Woman
57,324072,DepthScenes,duration_manipulation_targetAtFixation,jsons/v1_VE250_randls_77_rotated.json,http://54.235.29.9/FacialAge/BNav_EC2/DepthDuration/v2_depth_duration_MTurk/v2_DepthDuration_HTML.html#29,29,1366,625,1366,768,8-20-2022,11-7-5,58,depth_duration_stimuli/002657_2014-06-13_15-29-54_094959634447_rgbf000150-resize_1/002657_2014-06-13_15-29-54_094959634447_rgbf000150-resize_1-target.png,250,4.919,1,3437,257,feet,jsons/v1_VE250_randls_77_rotated.json,1626350,1881894,35,Woman
58,324072,DepthScenes,duration_manipulation_targetAtFixation,jsons/v1_VE250_randls_77_rotated.json,http://54.235.29.9/FacialAge/BNav_EC2/DepthDuration/v2_depth_duration_MTurk/v2_DepthDuration_HTML.html#29,29,1366,625,1366,768,8-20-2022,11-7-5,59,depth_duration_stimuli/002375_2014-06-28_20-13-44_260595134347_rgbf000032-resize_1/002375_2014-06-28_20-13-44_260595134347_rgbf000032-resize_1-target.png,250,4.0175,2,3408,250,feet,jsons/v1_VE250_randls_77_rotated.json,1626350,1881894,35,Woman
59,324072,DepthScenes,duration_manipulation_targetAtFixation,jsons/v1_VE250_randls_77_rotated.json,http://54.235.29.9/FacialAge/BNav_EC2/DepthDuration/v2_depth_duration_MTurk/v2_DepthDuration_HTML.html#29,29,1366,625,1366,768,8-20-2022,11-7-5,60,depth_duration_stimuli/000109_2014-05-14_23-41-52_260595134347_rgbf000035-resize_9/000109_2014-05-14_23-41-52_260595134347_rgbf000035-resize_9-target.png,250,1.3545,1,3484,249,feet,jsons/v1_VE250_randls_77_rotated.json,1626350,1881894,35,Woman
60,324072,DepthScenes,duration_manipulation_targetAtFixation,jsons/v1_VE250_randls_77_rotated.json,http://54.235.29.9/FacialAge/BNav_EC2/DepthDuration/v2_depth_duration_MTurk/v2_DepthDuration_HTML.html#29,29,1366,625,1366,768,8-20-2022,11-7-5,61,depth_duration_stimuli/000470_2014-06-09_19-42-40_260595134347_rgbf000094-resize_1/000470_2014-06-09_19-42-40_260595134347_rgbf000094-resize_1-target.png,250,1.831,1,3715,246,feet,jsons/v1_VE250_randls_77_rotated.json,1626350,1881894,35,Woman
61,324072,DepthScenes,duration_manipulation_targetAtFixation,jsons/v1_VE250_randls_77_rotated.json,http://54.235.29.9/FacialAge/BNav_EC2/DepthDuration/v2_depth_duration_MTurk/v2_DepthDuration_HTML.html#29,29,1366,625,1366,768,8-20-2022,11-7-5,62,depth_duration_stimuli/002414_2014-06-28_20-24-58_260595134347_rgbf000067-resize_4/002414_2014-06-28_20-24-58_260595134347_rgbf000067-resize_4-target.png,250,4.363,3,3231,239,feet,jsons/v1_VE250_randls_77_rotated.json,1626350,1881894,35,Woman
62,324072,DepthScenes,duration_manipulation_targetAtFixation,jsons/v1_VE250_randls_77_rotated.json,http://54.235.29.9/FacialAge/BNav_EC2/DepthDuration/v2_depth_duration_MTurk/v2_DepthDuration_HTML.html#29,29,1366,625,1366,768,8-20-2022,11-7-5,63,depth_duration_stimuli/000773_2014-06-08_22-24-54_260595134347_rgbf000093-resize_1/000773_2014-06-08_22-24-54_260595134347_rgbf000093-resize_1-target.png,250,4.973,1,3217,248,feet,jsons/v1_VE250_randls_77_rotated.json,1626350,1881894,35,Woman
63,324072,DepthScenes,duration_manipulation_targetAtFixation,jsons/v1_VE250_randls_77_rotated.json,http://54.235.29.9/FacialAge/BNav_EC2/DepthDuration/v2_depth_duration_MTurk/v2_DepthDuration_HTML.html#29,29,1366,625,1366,768,8-20-2022,11-7-5,64,depth_duration_stimuli/002875_2014-06-01_15-19-00_094959634447_rgbf000151-resize_1/002875_2014-06-01_15-19-00_094959634447_rgbf000151-resize_1-target.png,250,1.9675,1,3681,249,feet,jsons/v1_VE250_randls_77_rotated.json,1626350,1881894,35,Woman
64,324072,DepthScenes,duration_manipulation_targetAtFixation,jsons/v1_VE250_randls_77_rotated.json,http://54.235.29.9/FacialAge/BNav_EC2/DepthDuration/v2_depth_duration_MTurk/v2_DepthDuration_HTML.html#29,29,1366,625,1366,768,8-20-2022,11-7-5,65,depth_duration_stimuli/001011_2014-06-08_23-18-54_260595134347_rgbf000044-resize_4/001011_2014-06-08_23-18-54_260595134347_rgbf000044-resize_4-target.png,250,2.4730000000000003,2,4058,259,feet,jsons/v1_VE250_randls_77_rotated.json,1626350,1881894,35,Woman
65,324072,DepthScenes,duration_manipulation_targetAtFixation,jsons/v1_VE250_randls_77_rotated.json,http://54.235.29.9/FacialAge/BNav_EC2/DepthDuration/v2_depth_duration_MTurk/v2_DepthDuration_HTML.html#29,29,1366,625,1366,768,8-20-2022,11-7-5,66,depth_duration_stimuli/001540_2014-06-20_17-01-05_260595134347_rgbf000086-resize_2/001540_2014-06-20_17-01-05_260595134347_rgbf000086-resize-original.jpg,250,1.459,3,3420,245,feet,jsons/v1_VE250_randls_77_rotated.json,1626350,1881894,35,Woman
66,324072,DepthScenes,duration_manipulation_targetAtFixation,jsons/v1_VE250_randls_77_rotated.json,http://54.235.29.9/FacialAge/BNav_EC2/DepthDuration/v2_depth_duration_MTurk/v2_DepthDuration_HTML.html#29,29,1366,625,1366,768,8-20-2022,11-7-5,67,depth_duration_stimuli/000749_2014-06-08_21-55-06_260595134347_rgbf000070-resize_2/000749_2014-06-08_21-55-06_260595134347_rgbf000070-resize_2-target.png,250,2.331,3,34262,249,feet,jsons/v1_VE250_randls_77_rotated.json,1626350,1881894,35,Woman
67,324072,DepthScenes,duration_manipulation_targetAtFixation,jsons/v1_VE250_randls_77_rotated.json,http://54.235.29.9/FacialAge/BNav_EC2/DepthDuration/v2_depth_duration_MTurk/v2_DepthDuration_HTML.html#29,29,1366,625,1366,768,8-20-2022,11-7-5,68,depth_duration_stimuli/002788_2014-06-22_19-36-03_094959634447_rgbf000088-resize_2/002788_2014-06-22_19-36-03_094959634447_rgbf000088-resize_2-target.png,250,1.6465,4,3936,251,feet,jsons/v1_VE250_randls_77_rotated.json,1626350,1881894,35,Woman
68,324072,DepthScenes,duration_manipulation_targetAtFixation,jsons/v1_VE250_randls_77_rotated.json,http://54.235.29.9/FacialAge/BNav_EC2/DepthDuration/v2_depth_duration_MTurk/v2_DepthDuration_HTML.html#29,29,1366,625,1366,768,8-20-2022,11-7-5,69,depth_duration_stimuli/001584_2014-06-20_11-07-43_260595134347_rgbf000002-resize_1/001584_2014-06-20_11-07-43_260595134347_rgbf000002-resize_1-target.png,250,3.53,2,4679,249,feet,jsons/v1_VE250_randls_77_rotated.json,1626350,1881894,35,Woman
69,324072,DepthScenes,duration_manipulation_targetAtFixation,jsons/v1_VE250_randls_77_rotated.json,http://54.235.29.9/FacialAge/BNav_EC2/DepthDuration/v2_depth_duration_MTurk/v2_DepthDuration_HTML.html#29,29,1366,625,1366,768,8-20-2022,11-7-5,70,depth_duration_stimuli/003621_2014-05-23_18-06-08_094959634447_rgbf000101-resize_1/003621_2014-05-23_18-06-08_094959634447_rgbf000101-resize_1-target.png,250,3.9835,4,3553,249,feet,jsons/v1_VE250_randls_77_rotated.json,1626350,1881894,35,Woman
70,324072,DepthScenes,duration_manipulation_targetAtFixation,jsons/v1_VE250_randls_77_rotated.json,http://54.235.29.9/FacialAge/BNav_EC2/DepthDuration/v2_depth_duration_MTurk/v2_DepthDuration_HTML.html#29,29,1366,625,1366,768,8-20-2022,11-7-5,71,depth_duration_stimuli/002209_2014-06-28_18-36-10_260595134347_rgbf000051-resize_1/002209_2014-06-28_18-36-10_260595134347_rgbf000051-resize_1-target.png,250,2.057,1,4619,249,feet,jsons/v1_VE250_randls_77_rotated.json,1626350,1881894,35,Woman
71,324072,DepthScenes,duration_manipulation_targetAtFixation,jsons/v1_VE250_randls_77_rotated.json,http://54.235.29.9/FacialAge/BNav_EC2/DepthDuration/v2_depth_duration_MTurk/v2_DepthDuration_HTML.html#29,29,1366,625,1366,768,8-20-2022,11-7-5,72,depth_duration_stimuli/002763_2014-06-22_19-13-10_094959634447_rgbf000075-resize_4/002763_2014-06-22_19-13-10_094959634447_rgbf000075-resize_4-target.png,250,1.68375,3,4522,248,feet,jsons/v1_VE250_randls_77_rotated.json,1626350,1881894,35,Woman
72,324072,DepthScenes,duration_manipulation_targetAtFixation,jsons/v1_VE250_randls_77_rotated.json,http://54.235.29.9/FacialAge/BNav_EC2/DepthDuration/v2_depth_duration_MTurk/v2_DepthDuration_HTML.html#29,29,1366,625,1366,768,8-20-2022,11-7-5,73,depth_duration_stimuli/000742_2014-06-08_18-48-09_260595134347_rgbf000164-resize_4/000742_2014-06-08_18-48-09_260595134347_rgbf000164-resize_4-target.png,250,4.632,2,6146,236,feet,jsons/v1_VE250_randls_77_rotated.json,1626350,1881894,35,Woman
73,324072,DepthScenes,duration_manipulation_targetAtFixation,jsons/v1_VE250_randls_77_rotated.json,http://54.235.29.9/FacialAge/BNav_EC2/DepthDuration/v2_depth_duration_MTurk/v2_DepthDuration_HTML.html#29,29,1366,625,1366,768,8-20-2022,11-7-5,74,depth_duration_stimuli/001066_2014-06-08_22-03-20_260595134347_rgbf000066-resize_4/001066_2014-06-08_22-03-20_260595134347_rgbf000066-resize_4-target.png,250,4.2330000000000005,2,4701,249,feet,jsons/v1_VE250_randls_77_rotated.json,1626350,1881894,35,Woman
74,324072,DepthScenes,duration_manipulation_targetAtFixation,jsons/v1_VE250_randls_77_rotated.json,http://54.235.29.9/FacialAge/BNav_EC2/DepthDuration/v2_depth_duration_MTurk/v2_DepthDuration_HTML.html#29,29,1366,625,1366,768,8-20-2022,11-7-5,75,depth_duration_stimuli/001136_2014-06-17_15-19-41_260595134347_rgbf000076-resize_3/001136_2014-06-17_15-19-41_260595134347_rgbf000076-resize_3-target.png,250,1.8655,1,3607,238,feet,jsons/v1_VE250_randls_77_rotated.json,1626350,1881894,35,Woman
75,324072,DepthScenes,duration_manipulation_targetAtFixation,jsons/v1_VE250_randls_77_rotated.json,http://54.235.29.9/FacialAge/BNav_EC2/DepthDuration/v2_depth_duration_MTurk/v2_DepthDuration_HTML.html#29,29,1366,625,1366,768,8-20-2022,11-7-5,76,depth_duration_stimuli/001164_2014-06-17_15-35-46_260595134347_rgbf000085-resize_3/001164_2014-06-17_15-35-46_260595134347_rgbf000085-resize_3-target.png,250,2.354,3,3337,235,feet,jsons/v1_VE250_randls_77_rotated.json,1626350,1881894,35,Woman
76,324072,DepthScenes,duration_manipulation_targetAtFixation,jsons/v1_VE250_randls_77_rotated.json,http://54.235.29.9/FacialAge/BNav_EC2/DepthDuration/v2_depth_duration_MTurk/v2_DepthDuration_HTML.html#29,29,1366,625,1366,768,8-20-2022,11-7-5,77,depth_duration_stimuli/001094_2014-06-15_17-36-00_260595134347_rgbf000205-resize_0/001094_2014-06-15_17-36-00_260595134347_rgbf000205-resize_0-target.png,250,4.2175,2,5374,248,feet,jsons/v1_VE250_randls_77_rotated.json,1626350,1881894,35,Woman
77,324072,DepthScenes,duration_manipulation_targetAtFixation,jsons/v1_VE250_randls_77_rotated.json,http://54.235.29.9/FacialAge/BNav_EC2/DepthDuration/v2_depth_duration_MTurk/v2_DepthDuration_HTML.html#29,29,1366,625,1366,768,8-20-2022,11-7-5,78,depth_duration_stimuli/000692_2014-06-08_13-09-42_260595134347_rgbf000199-resize_2/000692_2014-06-08_13-09-42_260595134347_rgbf000199-resize_2-target.png,250,3.661,1,3679,250,feet,jsons/v1_VE250_randls_77_rotated.json,1626350,1881894,35,Woman
78,324072,DepthScenes,duration_manipulation_targetAtFixation,jsons/v1_VE250_randls_77_rotated.json,http://54.235.29.9/FacialAge/BNav_EC2/DepthDuration/v2_depth_duration_MTurk/v2_DepthDuration_HTML.html#29,29,1366,625,1366,768,8-20-2022,11-7-5,79,depth_duration_stimuli/000677_2014-06-08_23-10-32_260595134347_rgbf000158-resize_6/000677_2014-06-08_23-10-32_260595134347_rgbf000158-resize_6-target.png,250,3.556,3,3220,245,feet,jsons/v1_VE250_randls_77_rotated.json,1626350,1881894,35,Woman
79,324072,DepthScenes,duration_manipulation_targetAtFixation,jsons/v1_VE250_randls_77_rotated.json,http://54.235.29.9/FacialAge/BNav_EC2/DepthDuration/v2_depth_duration_MTurk/v2_DepthDuration_HTML.html#29,29,1366,625,1366,768,8-20-2022,11-7-5,80,depth_duration_stimuli/001029_2014-06-08_13-17-57_260595134347_rgbf000065-resize_1/001029_2014-06-08_13-17-57_260595134347_rgbf000065-resize_1-target.png,250,3.0835,2,4142,249,feet,jsons/v1_VE250_randls_77_rotated.json,1626350,1881894,35,Woman
80,324072,DepthScenes,duration_manipulation_targetAtFixation,jsons/v1_VE250_randls_77_rotated.json,http://54.235.29.9/FacialAge/BNav_EC2/DepthDuration/v2_depth_duration_MTurk/v2_DepthDuration_HTML.html#29,29,1366,625,1366,768,8-20-2022,11-7-5,81,depth_duration_stimuli/000780_2014-06-08_22-28-29_260595134347_rgbf000126-resize_1/000780_2014-06-08_22-28-29_260595134347_rgbf000126-resize_1-target.png,250,3.3825,1,46085,254,feet,jsons/v1_VE250_randls_77_rotated.json,1626350,1881894,35,Woman
81,324072,DepthScenes,duration_manipulation_targetAtFixation,jsons/v1_VE250_randls_77_rotated.json,http://54.235.29.9/FacialAge/BNav_EC2/DepthDuration/v2_depth_duration_MTurk/v2_DepthDuration_HTML.html#29,29,1366,625,1366,768,8-20-2022,11-7-5,82,depth_duration_stimuli/002445_2014-06-28_20-32-16_260595134347_rgbf000029-resize_4/002445_2014-06-28_20-32-16_260595134347_rgbf000029-resize_4-target.png,250,2.5315,4,3739,249,feet,jsons/v1_VE250_randls_77_rotated.json,1626350,1881894,35,Woman
82,324072,DepthScenes,duration_manipulation_targetAtFixation,jsons/v1_VE250_randls_77_rotated.json,http://54.235.29.9/FacialAge/BNav_EC2/DepthDuration/v2_depth_duration_MTurk/v2_DepthDuration_HTML.html#29,29,1366,625,1366,768,8-20-2022,11-7-5,83,depth_duration_stimuli/000483_2014-06-09_20-41-45_260595134347_rgbf000116-resize_4/000483_2014-06-09_20-41-45_260595134347_rgbf000116-resize_4-target.png,250,1.337,2,3898,260,feet,jsons/v1_VE250_randls_77_rotated.json,1626350,1881894,35,Woman
83,324072,DepthScenes,duration_manipulation_targetAtFixation,jsons/v1_VE250_randls_77_rotated.json,http://54.235.29.9/FacialAge/BNav_EC2/DepthDuration/v2_depth_duration_MTurk/v2_DepthDuration_HTML.html#29,29,1366,625,1366,768,8-20-2022,11-7-5,84,depth_duration_stimuli/000469_2014-06-09_19-42-10_260595134347_rgbf000081-resize_1/000469_2014-06-09_19-42-10_260595134347_rgbf000081-resize_1-target.png,250,1.652,1,9131,260,feet,jsons/v1_VE250_randls_77_rotated.json,1626350,1881894,35,Woman
84,324072,DepthScenes,duration_manipulation_targetAtFixation,jsons/v1_VE250_randls_77_rotated.json,http://54.235.29.9/FacialAge/BNav_EC2/DepthDuration/v2_depth_duration_MTurk/v2_DepthDuration_HTML.html#29,29,1366,625,1366,768,8-20-2022,11-7-5,85,depth_duration_stimuli/000502_2014-06-08_23-02-32_260595134347_rgbf000063-resize_4/000502_2014-06-08_23-02-32_260595134347_rgbf000063-resize_4-target.png,250,2.431,2,3456,249,feet,jsons/v1_VE250_randls_77_rotated.json,1626350,1881894,35,Woman
85,324072,DepthScenes,duration_manipulation_targetAtFixation,jsons/v1_VE250_randls_77_rotated.json,http://54.235.29.9/FacialAge/BNav_EC2/DepthDuration/v2_depth_duration_MTurk/v2_DepthDuration_HTML.html#29,29,1366,625,1366,768,8-20-2022,11-7-5,86,depth_duration_stimuli/001199_2014-06-17_16-03-48_260595134347_rgbf000077-resize_0/001199_2014-06-17_16-03-48_260595134347_rgbf000077-resize_0-target.png,250,3.4375,1,3343,246,feet,jsons/v1_VE250_randls_77_rotated.json,1626350,1881894,35,Woman
86,324072,DepthScenes,duration_manipulation_targetAtFixation,jsons/v1_VE250_randls_77_rotated.json,http://54.235.29.9/FacialAge/BNav_EC2/DepthDuration/v2_depth_duration_MTurk/v2_DepthDuration_HTML.html#29,29,1366,625,1366,768,8-20-2022,11-7-5,87,depth_duration_stimuli/000137_2014-05-20_17-04-49_260595134347_rgbf000120-resize_1/000137_2014-05-20_17-04-49_260595134347_rgbf000120-resize_1-target.png,250,3.786,5,7879,251,feet,jsons/v1_VE250_randls_77_rotated.json,1626350,1881894,35,Woman
87,324072,DepthScenes,duration_manipulation_targetAtFixation,jsons/v1_VE250_randls_77_rotated.json,http://54.235.29.9/FacialAge/BNav_EC2/DepthDuration/v2_depth_duration_MTurk/v2_DepthDuration_HTML.html#29,29,1366,625,1366,768,8-20-2022,11-7-5,88,depth_duration_stimuli/000736_2014-06-08_18-24-15_260595134347_rgbf000206-resize_3/000736_2014-06-08_18-24-15_260595134347_rgbf000206-resize_3-target.png,250,3.515,2,3577,246,feet,jsons/v1_VE250_randls_77_rotated.json,1626350,1881894,35,Woman
88,324072,DepthScenes,duration_manipulation_targetAtFixation,jsons/v1_VE250_randls_77_rotated.json,http://54.235.29.9/FacialAge/BNav_EC2/DepthDuration/v2_depth_duration_MTurk/v2_DepthDuration_HTML.html#29,29,1366,625,1366,768,8-20-2022,11-7-5,89,depth_duration_stimuli/003490_2014-05-21_15-50-11_094959634447_rgbf000101-resize_3/003490_2014-05-21_15-50-11_094959634447_rgbf000101-resize_3-target.png,250,3.6445,5,3922,249,feet,jsons/v1_VE250_randls_77_rotated.json,1626350,1881894,35,Woman
89,324072,DepthScenes,duration_manipulation_targetAtFixation,jsons/v1_VE250_randls_77_rotated.json,http://54.235.29.9/FacialAge/BNav_EC2/DepthDuration/v2_depth_duration_MTurk/v2_DepthDuration_HTML.html#29,29,1366,625,1366,768,8-20-2022,11-7-5,90,depth_duration_stimuli/001175_2014-06-17_15-45-55_260595134347_rgbf000129-resize_4/001175_2014-06-17_15-45-55_260595134347_rgbf000129-resize_4-target.png,250,4.255,4,4925,253,feet,jsons/v1_VE250_randls_77_rotated.json,1626350,1881894,35,Woman
90,324072,DepthScenes,duration_manipulation_targetAtFixation,jsons/v1_VE250_randls_77_rotated.json,http://54.235.29.9/FacialAge/BNav_EC2/DepthDuration/v2_depth_duration_MTurk/v2_DepthDuration_HTML.html#29,29,1366,625,1366,768,8-20-2022,11-7-5,91,depth_duration_stimuli/001447_2014-06-19_17-00-32_260595134347_rgbf000082-resize_5/001447_2014-06-19_17-00-32_260595134347_rgbf000082-resize_5-target.png,250,4.13775,3,3740,241,feet,jsons/v1_VE250_randls_77_rotated.json,1626350,1881894,35,Woman
91,324072,DepthScenes,duration_manipulation_targetAtFixation,jsons/v1_VE250_randls_77_rotated.json,http://54.235.29.9/FacialAge/BNav_EC2/DepthDuration/v2_depth_duration_MTurk/v2_DepthDuration_HTML.html#29,29,1366,625,1366,768,8-20-2022,11-7-5,92,depth_duration_stimuli/000447_2014-06-08_16-15-46_260595134347_rgbf000130-resize_1/000447_2014-06-08_16-15-46_260595134347_rgbf000130-resize_1-target.png,250,4.479,1,3505,237,feet,jsons/v1_VE250_randls_77_rotated.json,1626350,1881894,35,Woman
92,324072,DepthScenes,duration_manipulation_targetAtFixation,jsons/v1_VE250_randls_77_rotated.json,http://54.235.29.9/FacialAge/BNav_EC2/DepthDuration/v2_depth_duration_MTurk/v2_DepthDuration_HTML.html#29,29,1366,625,1366,768,8-20-2022,11-7-5,93,depth_duration_stimuli/000191_2014-05-12_17-07-38_260595134347_rgbf000199-resize_0/000191_2014-05-12_17-07-38_260595134347_rgbf000199-resize_0-target.png,250,3.7995,3,3750,238,feet,jsons/v1_VE250_randls_77_rotated.json,1626350,1881894,35,Woman
93,324072,DepthScenes,duration_manipulation_targetAtFixation,jsons/v1_VE250_randls_77_rotated.json,http://54.235.29.9/FacialAge/BNav_EC2/DepthDuration/v2_depth_duration_MTurk/v2_DepthDuration_HTML.html#29,29,1366,625,1366,768,8-20-2022,11-7-5,94,depth_duration_stimuli/000493_2014-06-09_21-01-18_260595134347_rgbf000196-resize_3/000493_2014-06-09_21-01-18_260595134347_rgbf000196-resize_3-target.png,250,3.44,2,3777,250,feet,jsons/v1_VE250_randls_77_rotated.json,1626350,1881894,35,Woman
94,324072,DepthScenes,duration_manipulation_targetAtFixation,jsons/v1_VE250_randls_77_rotated.json,http://54.235.29.9/FacialAge/BNav_EC2/DepthDuration/v2_depth_duration_MTurk/v2_DepthDuration_HTML.html#29,29,1366,625,1366,768,8-20-2022,11-7-5,95,depth_duration_stimuli/001828_2014-06-26_21-40-03_260595134347_rgbf000024-resize_0/001828_2014-06-26_21-40-03_260595134347_rgbf000024-resize_0-target.png,250,4.8260000000000005,1,3508,248,feet,jsons/v1_VE250_randls_77_rotated.json,1626350,1881894,35,Woman
95,324072,DepthScenes,duration_manipulation_targetAtFixation,jsons/v1_VE250_randls_77_rotated.json,http://54.235.29.9/FacialAge/BNav_EC2/DepthDuration/v2_depth_duration_MTurk/v2_DepthDuration_HTML.html#29,29,1366,625,1366,768,8-20-2022,11-7-5,96,depth_duration_stimuli/000009_2014-05-26_14-32-05_260595134347_rgbf000034-resize_3/000009_2014-05-26_14-32-05_260595134347_rgbf000034-resize_3-target.png,250,3.8715,6,3719,263,feet,jsons/v1_VE250_randls_77_rotated.json,1626350,1881894,35,Woman
96,324072,DepthScenes,duration_manipulation_targetAtFixation,jsons/v1_VE250_randls_77_rotated.json,http://54.235.29.9/FacialAge/BNav_EC2/DepthDuration/v2_depth_duration_MTurk/v2_DepthDuration_HTML.html#29,29,1366,625,1366,768,8-20-2022,11-7-5,97,depth_duration_stimuli/001617_2014-06-20_11-35-32_260595134347_rgbf000066-resize_1/001617_2014-06-20_11-35-32_260595134347_rgbf000066-resize_1-target.png,250,3.7910000000000004,3,3702,249,feet,jsons/v1_VE250_randls_77_rotated.json,1626350,1881894,35,Woman
97,324072,DepthScenes,duration_manipulation_targetAtFixation,jsons/v1_VE250_randls_77_rotated.json,http://54.235.29.9/FacialAge/BNav_EC2/DepthDuration/v2_depth_duration_MTurk/v2_DepthDuration_HTML.html#29,29,1366,625,1366,768,8-20-2022,11-7-5,98,depth_duration_stimuli/001806_2014-06-26_20-50-20_260595134347_rgbf000091-resize_1/001806_2014-06-26_20-50-20_260595134347_rgbf000091-resize_1-target.png,250,2.7305,3,4479,250,feet,jsons/v1_VE250_randls_77_rotated.json,1626350,1881894,35,Woman
98,324072,DepthScenes,duration_manipulation_targetAtFixation,jsons/v1_VE250_randls_77_rotated.json,http://54.235.29.9/FacialAge/BNav_EC2/DepthDuration/v2_depth_duration_MTurk/v2_DepthDuration_HTML.html#29,29,1366,625,1366,768,8-20-2022,11-7-5,99,depth_duration_stimuli/001222_2014-06-17_16-24-06_260595134347_rgbf000073-resize_0/001222_2014-06-17_16-24-06_260595134347_rgbf000073-resize-original.jpg,250,1.4385,0,3822,248,feet,jsons/v1_VE250_randls_77_rotated.json,1626350,1881894,35,Woman
99,324072,DepthScenes,duration_manipulation_targetAtFixation,jsons/v1_VE250_randls_77_rotated.json,http://54.235.29.9/FacialAge/BNav_EC2/DepthDuration/v2_depth_duration_MTurk/v2_DepthDuration_HTML.html#29,29,1366,625,1366,768,8-20-2022,11-7-5,100,depth_duration_stimuli/002750_2014-06-22_19-08-03_094959634447_rgbf000094-resize_4/002750_2014-06-22_19-08-03_094959634447_rgbf000094-resize_4-target.png,250,2.354,2,4488,254,feet,jsons/v1_VE250_randls_77_rotated.json,1626350,1881894,35,Woman
100,324072,DepthScenes,duration_manipulation_targetAtFixation,jsons/v1_VE250_randls_77_rotated.json,http://54.235.29.9/FacialAge/BNav_EC2/DepthDuration/v2_depth_duration_MTurk/v2_DepthDuration_HTML.html#29,29,1366,625,1366,768,8-20-2022,11-7-5,101,depth_duration_stimuli/002549_2014-06-24_13-41-39_094959634447_rgbf000022-resize_3/002549_2014-06-24_13-41-39_094959634447_rgbf000022-resize_3-target.png,250,1.476,5,3747,235,feet,jsons/v1_VE250_randls_77_rotated.json,1626350,1881894,35,Woman
101,324072,DepthScenes,duration_manipulation_targetAtFixation,jsons/v1_VE250_randls_77_rotated.json,http://54.235.29.9/FacialAge/BNav_EC2/DepthDuration/v2_depth_duration_MTurk/v2_DepthDuration_HTML.html#29,29,1366,625,1366,768,8-20-2022,11-7-5,102,depth_duration_stimuli/001450_2014-06-19_17-02-03_260595134347_rgbf000203-resize_4/001450_2014-06-19_17-02-03_260595134347_rgbf000203-resize_4-target.png,250,4.0106666666667,3,3992,252,feet,jsons/v1_VE250_randls_77_rotated.json,1626350,1881894,35,Woman
102,324072,DepthScenes,duration_manipulation_targetAtFixation,jsons/v1_VE250_randls_77_rotated.json,http://54.235.29.9/FacialAge/BNav_EC2/DepthDuration/v2_depth_duration_MTurk/v2_DepthDuration_HTML.html#29,29,1366,625,1366,768,8-20-2022,11-7-5,103,depth_duration_stimuli/001449_2014-06-19_17-01-27_260595134347_rgbf000116-resize_2/001449_2014-06-19_17-01-27_260595134347_rgbf000116-resize_2-target.png,250,3.452,5,3711,244,feet,jsons/v1_VE250_randls_77_rotated.json,1626350,1881894,35,Woman
103,324072,DepthScenes,duration_manipulation_targetAtFixation,jsons/v1_VE250_randls_77_rotated.json,http://54.235.29.9/FacialAge/BNav_EC2/DepthDuration/v2_depth_duration_MTurk/v2_DepthDuration_HTML.html#29,29,1366,625,1366,768,8-20-2022,11-7-5,104,depth_duration_stimuli/002103_2014-06-25_20-00-40_260595134347_rgbf000049-resize_0/002103_2014-06-25_20-00-40_260595134347_rgbf000049-resize_0-target.png,250,4.105,2,4081,249,feet,jsons/v1_VE250_randls_77_rotated.json,1626350,1881894,35,Woman
104,324072,DepthScenes,duration_manipulation_targetAtFixation,jsons/v1_VE250_randls_77_rotated.json,http://54.235.29.9/FacialAge/BNav_EC2/DepthDuration/v2_depth_duration_MTurk/v2_DepthDuration_HTML.html#29,29,1366,625,1366,768,8-20-2022,11-7-5,105,depth_duration_stimuli/002039_2014-06-24_20-22-38_260595134347_rgbf000084-resize_1/002039_2014-06-24_20-22-38_260595134347_rgbf000084-resize_1-target.png,250,4.408,1,3593,243,feet,jsons/v1_VE250_randls_77_rotated.json,1626350,1881894,35,Woman
105,324072,DepthScenes,duration_manipulation_targetAtFixation,jsons/v1_VE250_randls_77_rotated.json,http://54.235.29.9/FacialAge/BNav_EC2/DepthDuration/v2_depth_duration_MTurk/v2_DepthDuration_HTML.html#29,29,1366,625,1366,768,8-20-2022,11-7-5,106,depth_duration_stimuli/001052_2014-06-08_18-24-54_260595134347_rgbf000130-resize_1/001052_2014-06-08_18-24-54_260595134347_rgbf000130-resize_1-target.png,250,4.1045,6,3629,252,feet,jsons/v1_VE250_randls_77_rotated.json,1626350,1881894,35,Woman
106,324072,DepthScenes,duration_manipulation_targetAtFixation,jsons/v1_VE250_randls_77_rotated.json,http://54.235.29.9/FacialAge/BNav_EC2/DepthDuration/v2_depth_duration_MTurk/v2_DepthDuration_HTML.html#29,29,1366,625,1366,768,8-20-2022,11-7-5,107,depth_duration_stimuli/002988_2014-06-15_12-24-20_094959634447_rgbf000150-resize_1/002988_2014-06-15_12-24-20_094959634447_rgbf000150-resize_1-target.png,250,4.7669999999999995,4,4231,247,feet,jsons/v1_VE250_randls_77_rotated.json,1626350,1881894,35,Woman
107,324072,DepthScenes,duration_manipulation_targetAtFixation,jsons/v1_VE250_randls_77_rotated.json,http://54.235.29.9/FacialAge/BNav_EC2/DepthDuration/v2_depth_duration_MTurk/v2_DepthDuration_HTML.html#29,29,1366,625,1366,768,8-20-2022,11-7-5,108,depth_duration_stimuli/000943_2014-06-09_19-31-07_260595134347_rgbf000128-resize_1/000943_2014-06-09_19-31-07_260595134347_rgbf000128-resize_1-target.png,250,1.9765,6,4811,256,feet,jsons/v1_VE250_randls_77_rotated.json,1626350,1881894,35,Woman
108,324072,DepthScenes,duration_manipulation_targetAtFixation,jsons/v1_VE250_randls_77_rotated.json,http://54.235.29.9/FacialAge/BNav_EC2/DepthDuration/v2_depth_duration_MTurk/v2_DepthDuration_HTML.html#29,29,1366,625,1366,768,8-20-2022,11-7-5,109,depth_duration_stimuli/003070_2014-06-15_14-58-27_094959634447_rgbf000150-resize_3/003070_2014-06-15_14-58-27_094959634447_rgbf000150-resize_3-target.png,250,2.9415,1,4225,245,feet,jsons/v1_VE250_randls_77_rotated.json,1626350,1881894,35,Woman
109,324072,DepthScenes,duration_manipulation_targetAtFixation,jsons/v1_VE250_randls_77_rotated.json,http://54.235.29.9/FacialAge/BNav_EC2/DepthDuration/v2_depth_duration_MTurk/v2_DepthDuration_HTML.html#29,29,1366,625,1366,768,8-20-2022,11-7-5,110,depth_duration_stimuli/000734_2014-06-08_17-39-11_260595134347_rgbf000128-resize_2/000734_2014-06-08_17-39-11_260595134347_rgbf000128-resize_2-target.png,250,4.098,3,17736,239,feet,jsons/v1_VE250_randls_77_rotated.json,1626350,1881894,35,Woman
110,324072,DepthScenes,duration_manipulation_targetAtFixation,jsons/v1_VE250_randls_77_rotated.json,http://54.235.29.9/FacialAge/BNav_EC2/DepthDuration/v2_depth_duration_MTurk/v2_DepthDuration_HTML.html#29,29,1366,625,1366,768,8-20-2022,11-7-5,111,depth_duration_stimuli/000739_2014-06-08_18-45-58_260595134347_rgbf000068-resize_1/000739_2014-06-08_18-45-58_260595134347_rgbf000068-resize_1-target.png,250,3.534,2,3565,235,feet,jsons/v1_VE250_randls_77_rotated.json,1626350,1881894,35,Woman
111,324072,DepthScenes,duration_manipulation_targetAtFixation,jsons/v1_VE250_randls_77_rotated.json,http://54.235.29.9/FacialAge/BNav_EC2/DepthDuration/v2_depth_duration_MTurk/v2_DepthDuration_HTML.html#29,29,1366,625,1366,768,8-20-2022,11-7-5,112,depth_duration_stimuli/003010_2014-06-15_12-54-35_094959634447_rgbf000112-resize_0/003010_2014-06-15_12-54-35_094959634447_rgbf000112-resize_0-target.png,250,3.1185,2,7317,240,feet,jsons/v1_VE250_randls_77_rotated.json,1626350,1881894,35,Woman
112,324072,DepthScenes,duration_manipulation_targetAtFixation,jsons/v1_VE250_randls_77_rotated.json,http://54.235.29.9/FacialAge/BNav_EC2/DepthDuration/v2_depth_duration_MTurk/v2_DepthDuration_HTML.html#29,29,1366,625,1366,768,8-20-2022,11-7-5,113,depth_duration_stimuli/001810_2014-06-26_20-51-35_260595134347_rgbf000040-resize_3/001810_2014-06-26_20-51-35_260595134347_rgbf000040-resize_3-target.png,250,2.2525,1,4922,251,feet,jsons/v1_VE250_randls_77_rotated.json,1626350,1881894,35,Woman
113,324072,DepthScenes,duration_manipulation_targetAtFixation,jsons/v1_VE250_randls_77_rotated.json,http://54.235.29.9/FacialAge/BNav_EC2/DepthDuration/v2_depth_duration_MTurk/v2_DepthDuration_HTML.html#29,29,1366,625,1366,768,8-20-2022,11-7-5,114,depth_duration_stimuli/001132_2014-06-17_14-48-54_260595134347_rgbf000100-resize_2/001132_2014-06-17_14-48-54_260595134347_rgbf000100-resize_2-target.png,250,3.753,5,3602,237,feet,jsons/v1_VE250_randls_77_rotated.json,1626350,1881894,35,Woman
114,324072,DepthScenes,duration_manipulation_targetAtFixation,jsons/v1_VE250_randls_77_rotated.json,http://54.235.29.9/FacialAge/BNav_EC2/DepthDuration/v2_depth_duration_MTurk/v2_DepthDuration_HTML.html#29,29,1366,625,1366,768,8-20-2022,11-7-5,115,depth_duration_stimuli/001133_2014-06-17_14-49-16_260595134347_rgbf000100-resize_0/001133_2014-06-17_14-49-16_260595134347_rgbf000100-resize_0-target.png,250,4.2115,2,3566,250,feet,jsons/v1_VE250_randls_77_rotated.json,1626350,1881894,35,Woman
115,324072,DepthScenes,duration_manipulation_targetAtFixation,jsons/v1_VE250_randls_77_rotated.json,http://54.235.29.9/FacialAge/BNav_EC2/DepthDuration/v2_depth_duration_MTurk/v2_DepthDuration_HTML.html#29,29,1366,625,1366,768,8-20-2022,11-7-5,116,depth_duration_stimuli/001516_2014-06-20_16-25-09_260595134347_rgbf000076-resize_2/001516_2014-06-20_16-25-09_260595134347_rgbf000076-resize_2-target.png,250,1.7445,1,3671,245,feet,jsons/v1_VE250_randls_77_rotated.json,1626350,1881894,35,Woman
116,324072,DepthScenes,duration_manipulation_targetAtFixation,jsons/v1_VE250_randls_77_rotated.json,http://54.235.29.9/FacialAge/BNav_EC2/DepthDuration/v2_depth_duration_MTurk/v2_DepthDuration_HTML.html#29,29,1366,625,1366,768,8-20-2022,11-7-5,117,depth_duration_stimuli/002118_2014-06-25_20-32-08_260595134347_rgbf000078-resize_1/002118_2014-06-25_20-32-08_260595134347_rgbf000078-resize_1-target.png,250,2.6460000000000004,4,3509,242,feet,jsons/v1_VE250_randls_77_rotated.json,1626350,1881894,35,Woman
117,324072,DepthScenes,duration_manipulation_targetAtFixation,jsons/v1_VE250_randls_77_rotated.json,http://54.235.29.9/FacialAge/BNav_EC2/DepthDuration/v2_depth_duration_MTurk/v2_DepthDuration_HTML.html#29,29,1366,625,1366,768,8-20-2022,11-7-5,118,depth_duration_stimuli/001815_2014-06-26_20-52-55_260595134347_rgbf000020-resize_0/001815_2014-06-26_20-52-55_260595134347_rgbf000020-resize_0-target.png,250,3.3865,2,3304,250,feet,jsons/v1_VE250_randls_77_rotated.json,1626350,1881894,35,Woman
118,324072,DepthScenes,duration_manipulation_targetAtFixation,jsons/v1_VE250_randls_77_rotated.json,http://54.235.29.9/FacialAge/BNav_EC2/DepthDuration/v2_depth_duration_MTurk/v2_DepthDuration_HTML.html#29,29,1366,625,1366,768,8-20-2022,11-7-5,119,depth_duration_stimuli/001808_2014-06-26_20-50-58_260595134347_rgbf000029-resize_1/001808_2014-06-26_20-50-58_260595134347_rgbf000029-resize_1-target.png,250,4.249,1,3346,236,feet,jsons/v1_VE250_randls_77_rotated.json,1626350,1881894,35,Woman
119,324072,DepthScenes,duration_manipulation_targetAtFixation,jsons/v1_VE250_randls_77_rotated.json,http://54.235.29.9/FacialAge/BNav_EC2/DepthDuration/v2_depth_duration_MTurk/v2_DepthDuration_HTML.html#29,29,1366,625,1366,768,8-20-2022,11-7-5,120,depth_duration_stimuli/000787_2014-06-08_22-33-53_260595134347_rgbf000175-resize_1/000787_2014-06-08_22-33-53_260595134347_rgbf000175-resize-original.jpg,250,4.784,0,4462,239,feet,jsons/v1_VE250_randls_77_rotated.json,1626350,1881894,35,Woman
120,324072,DepthScenes,duration_manipulation_targetAtFixation,jsons/v1_VE250_randls_77_rotated.json,http://54.235.29.9/FacialAge/BNav_EC2/DepthDuration/v2_depth_duration_MTurk/v2_DepthDuration_HTML.html#29,29,1366,625,1366,768,8-20-2022,11-7-5,121,depth_duration_stimuli/000635_2014-06-08_16-38-42_260595134347_rgbf000106-resize_1/000635_2014-06-08_16-38-42_260595134347_rgbf000106-resize_1-target.png,250,2.074,1,3878,249,feet,jsons/v1_VE250_randls_77_rotated.json,1626350,1881894,35,Woman
121,324072,DepthScenes,duration_manipulation_targetAtFixation,jsons/v1_VE250_randls_77_rotated.json,http://54.235.29.9/FacialAge/BNav_EC2/DepthDuration/v2_depth_duration_MTurk/v2_DepthDuration_HTML.html#29,29,1366,625,1366,768,8-20-2022,11-7-5,122,depth_duration_stimuli/002279_2014-06-28_18-55-32_260595134347_rgbf000040-resize_5/002279_2014-06-28_18-55-32_260595134347_rgbf000040-resize_5-target.png,250,1.5043333333333,4,3830,234,feet,jsons/v1_VE250_randls_77_rotated.json,1626350,1881894,35,Woman
122,324072,DepthScenes,duration_manipulation_targetAtFixation,jsons/v1_VE250_randls_77_rotated.json,http://54.235.29.9/FacialAge/BNav_EC2/DepthDuration/v2_depth_duration_MTurk/v2_DepthDuration_HTML.html#29,29,1366,625,1366,768,8-20-2022,11-7-5,123,depth_duration_stimuli/003083_2014-06-15_15-21-03_094959634447_rgbf000063-resize_1/003083_2014-06-15_15-21-03_094959634447_rgbf000063-resize_1-target.png,250,4.1405,2,3776,247,feet,jsons/v1_VE250_randls_77_rotated.json,1626350,1881894,35,Woman
123,324072,DepthScenes,duration_manipulation_targetAtFixation,jsons/v1_VE250_randls_77_rotated.json,http://54.235.29.9/FacialAge/BNav_EC2/DepthDuration/v2_depth_duration_MTurk/v2_DepthDuration_HTML.html#29,29,1366,625,1366,768,8-20-2022,11-7-5,124,depth_duration_stimuli/000486_2014-06-09_20-47-20_260595134347_rgbf000143-resize_2/000486_2014-06-09_20-47-20_260595134347_rgbf000143-resize_2-target.png,250,4.8325,1,3810,245,feet,jsons/v1_VE250_randls_77_rotated.json,1626350,1881894,35,Woman
124,324072,DepthScenes,duration_manipulation_targetAtFixation,jsons/v1_VE250_randls_77_rotated.json,http://54.235.29.9/FacialAge/BNav_EC2/DepthDuration/v2_depth_duration_MTurk/v2_DepthDuration_HTML.html#29,29,1366,625,1366,768,8-20-2022,11-7-5,125,depth_duration_stimuli/000691_2014-06-08_13-08-50_260595134347_rgbf000132-resize_3/000691_2014-06-08_13-08-50_260595134347_rgbf000132-resize_3-target.png,250,4.1530000000000005,5,5468,245,feet,jsons/v1_VE250_randls_77_rotated.json,1626350,1881894,35,Woman
125,324072,DepthScenes,duration_manipulation_targetAtFixation,jsons/v1_VE250_randls_77_rotated.json,http://54.235.29.9/FacialAge/BNav_EC2/DepthDuration/v2_depth_duration_MTurk/v2_DepthDuration_HTML.html#29,29,1366,625,1366,768,8-20-2022,11-7-5,126,depth_duration_stimuli/002213_2014-06-28_18-37-58_260595134347_rgbf000055-resize_1/002213_2014-06-28_18-37-58_260595134347_rgbf000055-resize_1-target.png,250,3.62,2,3845,245,feet,jsons/v1_VE250_randls_77_rotated.json,1626350,1881894,35,Woman
126,324072,DepthScenes,duration_manipulation_targetAtFixation,jsons/v1_VE250_randls_77_rotated.json,http://54.235.29.9/FacialAge/BNav_EC2/DepthDuration/v2_depth_duration_MTurk/v2_DepthDuration_HTML.html#29,29,1366,625,1366,768,8-20-2022,11-7-5,127,depth_duration_stimuli/003495_2014-05-21_16-01-51_094959634447_rgbf000100-resize_3/003495_2014-05-21_16-01-51_094959634447_rgbf000100-resize_3-target.png,250,1.6255,5,4329,244,feet,jsons/v1_VE250_randls_77_rotated.json,1626350,1881894,35,Woman
127,324072,DepthScenes,duration_manipulation_targetAtFixation,jsons/v1_VE250_randls_77_rotated.json,http://54.235.29.9/FacialAge/BNav_EC2/DepthDuration/v2_depth_duration_MTurk/v2_DepthDuration_HTML.html#29,29,1366,625,1366,768,8-20-2022,11-7-5,128,depth_duration_stimuli/001244_2014-06-17_16-47-45_260595134347_rgbf000030-resize_4/001244_2014-06-17_16-47-45_260595134347_rgbf000030-resize_4-target.png,250,2.0425,3,3353,249,feet,jsons/v1_VE250_randls_77_rotated.json,1626350,1881894,35,Woman
128,324072,DepthScenes,duration_manipulation_targetAtFixation,jsons/v1_VE250_randls_77_rotated.json,http://54.235.29.9/FacialAge/BNav_EC2/DepthDuration/v2_depth_duration_MTurk/v2_DepthDuration_HTML.html#29,29,1366,625,1366,768,8-20-2022,11-7-5,129,depth_duration_stimuli/000866_2014-06-09_20-45-42_260595134347_rgbf000139-resize_1/000866_2014-06-09_20-45-42_260595134347_rgbf000139-resize_1-target.png,250,3.2155,2,3582,249,feet,jsons/v1_VE250_randls_77_rotated.json,1626350,1881894,35,Woman
129,324072,DepthScenes,duration_manipulation_targetAtFixation,jsons/v1_VE250_randls_77_rotated.json,http://54.235.29.9/FacialAge/BNav_EC2/DepthDuration/v2_depth_duration_MTurk/v2_DepthDuration_HTML.html#29,29,1366,625,1366,768,8-20-2022,11-7-5,130,depth_duration_stimuli/002989_2014-06-15_12-25-03_094959634447_rgbf000150-resize_3/002989_2014-06-15_12-25-03_094959634447_rgbf000150-resize_3-target.png,250,4.1975,1,5397,245,feet,jsons/v1_VE250_randls_77_rotated.json,1626350,1881894,35,Woman
130,324072,DepthScenes,duration_manipulation_targetAtFixation,jsons/v1_VE250_randls_77_rotated.json,http://54.235.29.9/FacialAge/BNav_EC2/DepthDuration/v2_depth_duration_MTurk/v2_DepthDuration_HTML.html#29,29,1366,625,1366,768,8-20-2022,11-7-5,131,depth_duration_stimuli/001235_2014-06-17_16-37-36_260595134347_rgbf000084-resize_4/001235_2014-06-17_16-37-36_260595134347_rgbf000084-resize_4-target.png,250,3.6605,4,4432,246,feet,jsons/v1_VE250_randls_77_rotated.json,1626350,1881894,35,Woman
131,324072,DepthScenes,duration_manipulation_targetAtFixation,jsons/v1_VE250_randls_77_rotated.json,http://54.235.29.9/FacialAge/BNav_EC2/DepthDuration/v2_depth_duration_MTurk/v2_DepthDuration_HTML.html#29,29,1366,625,1366,768,8-20-2022,11-7-5,132,depth_duration_stimuli/000788_2014-06-08_22-34-36_260595134347_rgbf000131-resize_1/000788_2014-06-08_22-34-36_260595134347_rgbf000131-resize_1-target.png,250,3.359,1,3700,243,feet,jsons/v1_VE250_randls_77_rotated.json,1626350,1881894,35,Woman
132,324072,DepthScenes,duration_manipulation_targetAtFixation,jsons/v1_VE250_randls_77_rotated.json,http://54.235.29.9/FacialAge/BNav_EC2/DepthDuration/v2_depth_duration_MTurk/v2_DepthDuration_HTML.html#29,29,1366,625,1366,768,8-20-2022,11-7-5,133,depth_duration_stimuli/003081_2014-06-15_15-19-16_094959634447_rgbf000150-resize_1/003081_2014-06-15_15-19-16_094959634447_rgbf000150-resize_1-target.png,250,3.9125,6,3478,241,feet,jsons/v1_VE250_randls_77_rotated.json,1626350,1881894,35,Woman
133,324072,DepthScenes,duration_manipulation_targetAtFixation,jsons/v1_VE250_randls_77_rotated.json,http://54.235.29.9/FacialAge/BNav_EC2/DepthDuration/v2_depth_duration_MTurk/v2_DepthDuration_HTML.html#29,29,1366,625,1366,768,8-20-2022,11-7-5,134,depth_duration_stimuli/001417_2014-06-19_16-25-36_260595134347_rgbf000115-resize_5/001417_2014-06-19_16-25-36_260595134347_rgbf000115-resize_5-target.png,250,4.6255,2,3529,245,feet,jsons/v1_VE250_randls_77_rotated.json,1626350,1881894,35,Woman
134,324072,DepthScenes,duration_manipulation_targetAtFixation,jsons/v1_VE250_randls_77_rotated.json,http://54.235.29.9/FacialAge/BNav_EC2/DepthDuration/v2_depth_duration_MTurk/v2_DepthDuration_HTML.html#29,29,1366,625,1366,768,8-20-2022,11-7-5,135,depth_duration_stimuli/000375_2014-06-08_11-17-29_260595134347_rgbf000133-resize_2/000375_2014-06-08_11-17-29_260595134347_rgbf000133-resize-original.jpg,250,4.718,0,4697,250,feet,jsons/v1_VE250_randls_77_rotated.json,1626350,1881894,35,Woman
135,324072,DepthScenes,duration_manipulation_targetAtFixation,jsons/v1_VE250_randls_77_rotated.json,http://54.235.29.9/FacialAge/BNav_EC2/DepthDuration/v2_depth_duration_MTurk/v2_DepthDuration_HTML.html#29,29,1366,625,1366,768,8-20-2022,11-7-5,136,depth_duration_stimuli/002340_2014-06-28_20-05-46_260595134347_rgbf000113-resize_0/002340_2014-06-28_20-05-46_260595134347_rgbf000113-resize_0-target.png,250,2.4735,2,4300,249,feet,jsons/v1_VE250_randls_77_rotated.json,1626350,1881894,35,Woman
136,324072,DepthScenes,duration_manipulation_targetAtFixation,jsons/v1_VE250_randls_77_rotated.json,http://54.235.29.9/FacialAge/BNav_EC2/DepthDuration/v2_depth_duration_MTurk/v2_DepthDuration_HTML.html#29,29,1366,625,1366,768,8-20-2022,11-7-5,137,depth_duration_stimuli/001016_2014-06-09_16-16-10_260595134347_rgbf000112-resize_5/001016_2014-06-09_16-16-10_260595134347_rgbf000112-resize_5-target.png,250,1.6565,4,3494,250,feet,jsons/v1_VE250_randls_77_rotated.json,1626350,1881894,35,Woman
137,324072,DepthScenes,duration_manipulation_targetAtFixation,jsons/v1_VE250_randls_77_rotated.json,http://54.235.29.9/FacialAge/BNav_EC2/DepthDuration/v2_depth_duration_MTurk/v2_DepthDuration_HTML.html#29,29,1366,625,1366,768,8-20-2022,11-7-5,138,depth_duration_stimuli/002995_2014-06-15_12-31-26_094959634447_rgbf000150-resize_1/002995_2014-06-15_12-31-26_094959634447_rgbf000150-resize_1-target.png,250,3.8360000000000003,1,5211,237,feet,jsons/v1_VE250_randls_77_rotated.json,1626350,1881894,35,Woman
138,324072,DepthScenes,duration_manipulation_targetAtFixation,jsons/v1_VE250_randls_77_rotated.json,http://54.235.29.9/FacialAge/BNav_EC2/DepthDuration/v2_depth_duration_MTurk/v2_DepthDuration_HTML.html#29,29,1366,625,1366,768,8-20-2022,11-7-5,139,depth_duration_stimuli/002748_2014-06-22_19-07-22_094959634447_rgbf000078-resize_1/002748_2014-06-22_19-07-22_094959634447_rgbf000078-resize_1-target.png,250,4.6705,2,3834,259,feet,jsons/v1_VE250_randls_77_rotated.json,1626350,1881894,35,Woman
139,324072,DepthScenes,duration_manipulation_targetAtFixation,jsons/v1_VE250_randls_77_rotated.json,http://54.235.29.9/FacialAge/BNav_EC2/DepthDuration/v2_depth_duration_MTurk/v2_DepthDuration_HTML.html#29,29,1366,625,1366,768,8-20-2022,11-7-5,140,depth_duration_stimuli/002639_2014-06-24_14-51-37_094959634447_rgbf000074-resize_4/002639_2014-06-24_14-51-37_094959634447_rgbf000074-resize_4-target.png,250,4.0375,1,3497,251,feet,jsons/v1_VE250_randls_77_rotated.json,1626350,1881894,35,Woman
140,324072,DepthScenes,duration_manipulation_targetAtFixation,jsons/v1_VE250_randls_77_rotated.json,http://54.235.29.9/FacialAge/BNav_EC2/DepthDuration/v2_depth_duration_MTurk/v2_DepthDuration_HTML.html#29,29,1366,625,1366,768,8-20-2022,11-7-5,141,depth_duration_stimuli/003292_2014-05-14_21-53-49_094959634447_rgbf000100-resize_2/003292_2014-05-14_21-53-49_094959634447_rgbf000100-resize_2-target.png,250,3.4815,3,3764,250,feet,jsons/v1_VE250_randls_77_rotated.json,1626350,1881894,35,Woman
141,324072,DepthScenes,duration_manipulation_targetAtFixation,jsons/v1_VE250_randls_77_rotated.json,http://54.235.29.9/FacialAge/BNav_EC2/DepthDuration/v2_depth_duration_MTurk/v2_DepthDuration_HTML.html#29,29,1366,625,1366,768,8-20-2022,11-7-5,142,depth_duration_stimuli/002467_2014-06-28_20-38-07_260595134347_rgbf000026-resize_2/002467_2014-06-28_20-38-07_260595134347_rgbf000026-resize_2-target.png,250,4.742,6,3772,252,feet,jsons/v1_VE250_randls_77_rotated.json,1626350,1881894,35,Woman
142,324072,DepthScenes,duration_manipulation_targetAtFixation,jsons/v1_VE250_randls_77_rotated.json,http://54.235.29.9/FacialAge/BNav_EC2/DepthDuration/v2_depth_duration_MTurk/v2_DepthDuration_HTML.html#29,29,1366,625,1366,768,8-20-2022,11-7-5,143,depth_duration_stimuli/002570_2014-06-24_13-59-54_094959634447_rgbf000059-resize_0/002570_2014-06-24_13-59-54_094959634447_rgbf000059-resize_0-target.png,250,4.037,1,3676,239,feet,jsons/v1_VE250_randls_77_rotated.json,1626350,1881894,35,Woman
143,324072,DepthScenes,duration_manipulation_targetAtFixation,jsons/v1_VE250_randls_77_rotated.json,http://54.235.29.9/FacialAge/BNav_EC2/DepthDuration/v2_depth_duration_MTurk/v2_DepthDuration_HTML.html#29,29,1366,625,1366,768,8-20-2022,11-7-5,144,depth_duration_stimuli/003129_2014-05-12_10-48-10_094959634447_rgbf000100-resize_0/003129_2014-05-12_10-48-10_094959634447_rgbf000100-resize_0-target.png,250,4.9305,2,4419,244,feet,jsons/v1_VE250_randls_77_rotated.json,1626350,1881894,35,Woman
144,324072,DepthScenes,duration_manipulation_targetAtFixation,jsons/v1_VE250_randls_77_rotated.json,http://54.235.29.9/FacialAge/BNav_EC2/DepthDuration/v2_depth_duration_MTurk/v2_DepthDuration_HTML.html#29,29,1366,625,1366,768,8-20-2022,11-7-5,145,depth_duration_stimuli/000414_2014-06-04_19-49-13_260595134347_rgbf000044-resize_0/000414_2014-06-04_19-49-13_260595134347_rgbf000044-resize_0-target.png,250,4.329,2,4128,248,feet,jsons/v1_VE250_randls_77_rotated.json,1626350,1881894,35,Woman
145,324072,DepthScenes,duration_manipulation_targetAtFixation,jsons/v1_VE250_randls_77_rotated.json,http://54.235.29.9/FacialAge/BNav_EC2/DepthDuration/v2_depth_duration_MTurk/v2_DepthDuration_HTML.html#29,29,1366,625,1366,768,8-20-2022,11-7-5,146,depth_duration_stimuli/002949_2014-06-26_15-57-42_094959634447_rgbf000079-resize_1/002949_2014-06-26_15-57-42_094959634447_rgbf000079-resize_1-target.png,250,1.8915,4,3850,256,feet,jsons/v1_VE250_randls_77_rotated.json,1626350,1881894,35,Woman
146,324072,DepthScenes,duration_manipulation_targetAtFixation,jsons/v1_VE250_randls_77_rotated.json,http://54.235.29.9/FacialAge/BNav_EC2/DepthDuration/v2_depth_duration_MTurk/v2_DepthDuration_HTML.html#29,29,1366,625,1366,768,8-20-2022,11-7-5,147,depth_duration_stimuli/000522_2014-06-08_13-35-06_260595134347_rgbf000244-resize_1/000522_2014-06-08_13-35-06_260595134347_rgbf000244-resize_1-target.png,250,2.3715,2,3985,249,feet,jsons/v1_VE250_randls_77_rotated.json,1626350,1881894,35,Woman
147,324072,DepthScenes,duration_manipulation_targetAtFixation,jsons/v1_VE250_randls_77_rotated.json,http://54.235.29.9/FacialAge/BNav_EC2/DepthDuration/v2_depth_duration_MTurk/v2_DepthDuration_HTML.html#29,29,1366,625,1366,768,8-20-2022,11-7-5,148,depth_duration_stimuli/003587_2014-05-23_16-48-02_094959634447_rgbf002384-resize_2/003587_2014-05-23_16-48-02_094959634447_rgbf002384-resize_2-target.png,250,1.357,2,3277,262,feet,jsons/v1_VE250_randls_77_rotated.json,1626350,1881894,35,Woman
148,324072,DepthScenes,duration_manipulation_targetAtFixation,jsons/v1_VE250_randls_77_rotated.json,http://54.235.29.9/FacialAge/BNav_EC2/DepthDuration/v2_depth_duration_MTurk/v2_DepthDuration_HTML.html#29,29,1366,625,1366,768,8-20-2022,11-7-5,149,depth_duration_stimuli/001167_2014-06-17_15-38-07_260595134347_rgbf000108-resize_0/001167_2014-06-17_15-38-07_260595134347_rgbf000108-resize_0-target.png,250,1.8505,4,3969,249,feet,jsons/v1_VE250_randls_77_rotated.json,1626350,1881894,35,Woman
149,324072,DepthScenes,duration_manipulation_targetAtFixation,jsons/v1_VE250_randls_77_rotated.json,http://54.235.29.9/FacialAge/BNav_EC2/DepthDuration/v2_depth_duration_MTurk/v2_DepthDuration_HTML.html#29,29,1366,625,1366,768,8-20-2022,11-7-5,150,depth_duration_stimuli/001214_2014-06-17_16-13-55_260595134347_rgbf000111-resize_0/001214_2014-06-17_16-13-55_260595134347_rgbf000111-resize_0-target.png,250,2.6505,1,4329,241,feet,jsons/v1_VE250_randls_77_rotated.json,1626350,1881894,35,Woman
150,324072,DepthScenes,duration_manipulation_targetAtFixation,jsons/v1_VE250_randls_77_rotated.json,http://54.235.29.9/FacialAge/BNav_EC2/DepthDuration/v2_depth_duration_MTurk/v2_DepthDuration_HTML.html#29,29,1366,625,1366,768,8-20-2022,11-7-5,151,depth_duration_stimuli/000810_2014-06-08_17-20-01_260595134347_rgbf000105-resize_0/000810_2014-06-08_17-20-01_260595134347_rgbf000105-resize_0-target.png,250,1.4865,4,3606,249,feet,jsons/v1_VE250_randls_77_rotated.json,1626350,1881894,35,Woman
151,324072,DepthScenes,duration_manipulation_targetAtFixation,jsons/v1_VE250_randls_77_rotated.json,http://54.235.29.9/FacialAge/BNav_EC2/DepthDuration/v2_depth_duration_MTurk/v2_DepthDuration_HTML.html#29,29,1366,625,1366,768,8-20-2022,11-7-5,152,depth_duration_stimuli/000569_2014-06-09_22-51-47_260595134347_rgbf000141-resize_3/000569_2014-06-09_22-51-47_260595134347_rgbf000141-resize-original.jpg,250,4.512,0,3905,249,feet,jsons/v1_VE250_randls_77_rotated.json,1626350,1881894,35,Woman
152,324072,DepthScenes,duration_manipulation_targetAtFixation,jsons/v1_VE250_randls_77_rotated.json,http://54.235.29.9/FacialAge/BNav_EC2/DepthDuration/v2_depth_duration_MTurk/v2_DepthDuration_HTML.html#29,29,1366,625,1366,768,8-20-2022,11-7-5,153,depth_duration_stimuli/003423_2014-05-21_10-23-26_094959634447_rgbf002665-resize_2/003423_2014-05-21_10-23-26_094959634447_rgbf002665-resize_2-target.png,250,3.2575,2,3599,241,feet,jsons/v1_VE250_randls_77_rotated.json,1626350,1881894,35,Woman
153,324072,DepthScenes,duration_manipulation_targetAtFixation,jsons/v1_VE250_randls_77_rotated.json,http://54.235.29.9/FacialAge/BNav_EC2/DepthDuration/v2_depth_duration_MTurk/v2_DepthDuration_HTML.html#29,29,1366,625,1366,768,8-20-2022,11-7-5,154,depth_duration_stimuli/002905_2014-06-03_18-04-43_094959634447_rgbf000151-resize_2/002905_2014-06-03_18-04-43_094959634447_rgbf000151-resize_2-target.png,250,2.0295,1,6009,258,feet,jsons/v1_VE250_randls_77_rotated.json,1626350,1881894,35,Woman
154,324072,DepthScenes,duration_manipulation_targetAtFixation,jsons/v1_VE250_randls_77_rotated.json,http://54.235.29.9/FacialAge/BNav_EC2/DepthDuration/v2_depth_duration_MTurk/v2_DepthDuration_HTML.html#29,29,1366,625,1366,768,8-20-2022,11-7-5,155,depth_duration_stimuli/001392_2014-06-19_16-07-59_260595134347_rgbf000046-resize_1/001392_2014-06-19_16-07-59_260595134347_rgbf000046-resize_1-target.png,250,4.135,2,3661,259,feet,jsons/v1_VE250_randls_77_rotated.json,1626350,1881894,35,Woman
155,324072,DepthScenes,duration_manipulation_targetAtFixation,jsons/v1_VE250_randls_77_rotated.json,http://54.235.29.9/FacialAge/BNav_EC2/DepthDuration/v2_depth_duration_MTurk/v2_DepthDuration_HTML.html#29,29,1366,625,1366,768,8-20-2022,11-7-5,156,depth_duration_stimuli/001570_2014-06-20_17-21-09_260595134347_rgbf000135-resize_4/001570_2014-06-20_17-21-09_260595134347_rgbf000135-resize_4-target.png,250,4.467,1,3331,247,feet,jsons/v1_VE250_randls_77_rotated.json,1626350,1881894,35,Woman
156,324072,DepthScenes,duration_manipulation_targetAtFixation,jsons/v1_VE250_randls_77_rotated.json,http://54.235.29.9/FacialAge/BNav_EC2/DepthDuration/v2_depth_duration_MTurk/v2_DepthDuration_HTML.html#29,29,1366,625,1366,768,8-20-2022,11-7-5,157,depth_duration_stimuli/000709_2014-06-08_13-51-55_260595134347_rgbf000068-resize_3/000709_2014-06-08_13-51-55_260595134347_rgbf000068-resize_3-target.png,250,1.8030000000000002,4,3783,248,feet,jsons/v1_VE250_randls_77_rotated.json,1626350,1881894,35,Woman
157,324072,DepthScenes,duration_manipulation_targetAtFixation,jsons/v1_VE250_randls_77_rotated.json,http://54.235.29.9/FacialAge/BNav_EC2/DepthDuration/v2_depth_duration_MTurk/v2_DepthDuration_HTML.html#29,29,1366,625,1366,768,8-20-2022,11-7-5,158,depth_duration_stimuli/002057_2014-06-24_21-00-13_260595134347_rgbf000120-resize_1/002057_2014-06-24_21-00-13_260595134347_rgbf000120-resize_1-target.png,250,2.967,0,4232,257,feet,jsons/v1_VE250_randls_77_rotated.json,1626350,1881894,35,Woman
158,324072,DepthScenes,duration_manipulation_targetAtFixation,jsons/v1_VE250_randls_77_rotated.json,http://54.235.29.9/FacialAge/BNav_EC2/DepthDuration/v2_depth_duration_MTurk/v2_DepthDuration_HTML.html#29,29,1366,625,1366,768,8-20-2022,11-7-5,159,depth_duration_stimuli/001032_2014-06-08_13-23-17_260595134347_rgbf000021-resize_3/001032_2014-06-08_13-23-17_260595134347_rgbf000021-resize_3-target.png,250,3.2725,5,4964,249,feet,jsons/v1_VE250_randls_77_rotated.json,1626350,1881894,35,Woman
159,324072,DepthScenes,duration_manipulation_targetAtFixation,jsons/v1_VE250_randls_77_rotated.json,http://54.235.29.9/FacialAge/BNav_EC2/DepthDuration/v2_depth_duration_MTurk/v2_DepthDuration_HTML.html#29,29,1366,625,1366,768,8-20-2022,11-7-5,160,depth_duration_stimuli/001059_2014-06-08_21-53-27_260595134347_rgbf000061-resize_4/001059_2014-06-08_21-53-27_260595134347_rgbf000061-resize_4-target.png,250,2.4185,2,3456,235,feet,jsons/v1_VE250_randls_77_rotated.json,1626350,1881894,35,Woman
160,324072,DepthScenes,duration_manipulation_targetAtFixation,jsons/v1_VE250_randls_77_rotated.json,http://54.235.29.9/FacialAge/BNav_EC2/DepthDuration/v2_depth_duration_MTurk/v2_DepthDuration_HTML.html#29,29,1366,625,1366,768,8-20-2022,11-7-5,161,depth_duration_stimuli/002545_2014-06-24_13-38-53_094959634447_rgbf000080-resize_4/002545_2014-06-24_13-38-53_094959634447_rgbf000080-resize_4-target.png,250,1.9205,6,3587,248,feet,jsons/v1_VE250_randls_77_rotated.json,1626350,1881894,35,Woman
161,324072,DepthScenes,duration_manipulation_targetAtFixation,jsons/v1_VE250_randls_77_rotated.json,http://54.235.29.9/FacialAge/BNav_EC2/DepthDuration/v2_depth_duration_MTurk/v2_DepthDuration_HTML.html#29,29,1366,625,1366,768,8-20-2022,11-7-5,162,depth_duration_stimuli/001092_2014-06-15_17-34-58_260595134347_rgbf000171-resize_3/001092_2014-06-15_17-34-58_260595134347_rgbf000171-resize_3-target.png,250,2.6935,4,5588,248,feet,jsons/v1_VE250_randls_77_rotated.json,1626350,1881894,35,Woman
162,324072,DepthScenes,duration_manipulation_targetAtFixation,jsons/v1_VE250_randls_77_rotated.json,http://54.235.29.9/FacialAge/BNav_EC2/DepthDuration/v2_depth_duration_MTurk/v2_DepthDuration_HTML.html#29,29,1366,625,1366,768,8-20-2022,11-7-5,163,depth_duration_stimuli/002444_2014-06-28_20-32-08_260595134347_rgbf000027-resize_0/002444_2014-06-28_20-32-08_260595134347_rgbf000027-resize_0-target.png,250,4.388999999999999,1,4720,247,feet,jsons/v1_VE250_randls_77_rotated.json,1626350,1881894,35,Woman
163,324072,DepthScenes,duration_manipulation_targetAtFixation,jsons/v1_VE250_randls_77_rotated.json,http://54.235.29.9/FacialAge/BNav_EC2/DepthDuration/v2_depth_duration_MTurk/v2_DepthDuration_HTML.html#29,29,1366,625,1366,768,8-20-2022,11-7-5,164,depth_duration_stimuli/000436_2014-06-09_22-25-11_260595134347_rgbf000137-resize_1/000436_2014-06-09_22-25-11_260595134347_rgbf000137-resize_1-target.png,250,4.0705,4,4219,249,feet,jsons/v1_VE250_randls_77_rotated.json,1626350,1881894,35,Woman
