,subjID,experimentName,versionName,sequenceName,url,selected_row,windowWidth,windowHeight,screenWidth,screenHeight,startDate,startTime,trial,stimulus,duration,actual_depth,depth_estimate,trial_RT,log_sceneDuration,unitSelection,seq_filepath,experimentTime,totalTime,age,gender
0,324625,DepthScenes,duration_manipulation_targetAtFixation,jsons/v1_VE250_randls_52_rotated.json,http://54.235.29.9/FacialAge/BNav_EC2/DepthDuration/v2_depth_duration_MTurk/v2_DepthDuration_HTML.html#26,26,1024,625,1024,768,8-20-2022,11-2-26,1,depth_duration_stimuli/003495_2014-05-21_16-01-51_094959634447_rgbf000100-resize_3/003495_2014-05-21_16-01-51_094959634447_rgbf000100-resize_3-target.png,250,1.6255,1,7144,252,meters,jsons/v1_VE250_randls_52_rotated.json,602263,966752,24,Man
1,324625,DepthScenes,duration_manipulation_targetAtFixation,jsons/v1_VE250_randls_52_rotated.json,http://54.235.29.9/FacialAge/BNav_EC2/DepthDuration/v2_depth_duration_MTurk/v2_DepthDuration_HTML.html#26,26,1024,625,1024,768,8-20-2022,11-2-26,2,depth_duration_stimuli/001244_2014-06-17_16-47-45_260595134347_rgbf000030-resize_4/001244_2014-06-17_16-47-45_260595134347_rgbf000030-resize_4-target.png,250,2.0425,1,4693,283,meters,jsons/v1_VE250_randls_52_rotated.json,602263,966752,24,Man
2,324625,DepthScenes,duration_manipulation_targetAtFixation,jsons/v1_VE250_randls_52_rotated.json,http://54.235.29.9/FacialAge/BNav_EC2/DepthDuration/v2_depth_duration_MTurk/v2_DepthDuration_HTML.html#26,26,1024,625,1024,768,8-20-2022,11-2-26,3,depth_duration_stimuli/002425_2014-06-28_20-27-29_260595134347_rgbf000031-resize_8/002425_2014-06-28_20-27-29_260595134347_rgbf000031-resize_8-target.png,250,3.8960000000000004,0,5899,253,meters,jsons/v1_VE250_randls_52_rotated.json,602263,966752,24,Man
3,324625,DepthScenes,duration_manipulation_targetAtFixation,jsons/v1_VE250_randls_52_rotated.json,http://54.235.29.9/FacialAge/BNav_EC2/DepthDuration/v2_depth_duration_MTurk/v2_DepthDuration_HTML.html#26,26,1024,625,1024,768,8-20-2022,11-2-26,4,depth_duration_stimuli/000642_2014-06-08_16-59-25_260595134347_rgbf000098-resize_2/000642_2014-06-08_16-59-25_260595134347_rgbf000098-resize_2-target.png,250,2.8815,1,11910,241,meters,jsons/v1_VE250_randls_52_rotated.json,602263,966752,24,Man
4,324625,DepthScenes,duration_manipulation_targetAtFixation,jsons/v1_VE250_randls_52_rotated.json,http://54.235.29.9/FacialAge/BNav_EC2/DepthDuration/v2_depth_duration_MTurk/v2_DepthDuration_HTML.html#26,26,1024,625,1024,768,8-20-2022,11-2-26,5,depth_duration_stimuli/001650_2014-06-20_12-09-00_260595134347_rgbf000087-resize_3/001650_2014-06-20_12-09-00_260595134347_rgbf000087-resize_3-target.png,250,1.9505,0,4448,249,meters,jsons/v1_VE250_randls_52_rotated.json,602263,966752,24,Man
5,324625,DepthScenes,duration_manipulation_targetAtFixation,jsons/v1_VE250_randls_52_rotated.json,http://54.235.29.9/FacialAge/BNav_EC2/DepthDuration/v2_depth_duration_MTurk/v2_DepthDuration_HTML.html#26,26,1024,625,1024,768,8-20-2022,11-2-26,6,depth_duration_stimuli/000682_2014-06-08_23-14-58_260595134347_rgbf000041-resize_5/000682_2014-06-08_23-14-58_260595134347_rgbf000041-resize_5-target.png,250,2.7239999999999998,1,3433,255,meters,jsons/v1_VE250_randls_52_rotated.json,602263,966752,24,Man
6,324625,DepthScenes,duration_manipulation_targetAtFixation,jsons/v1_VE250_randls_52_rotated.json,http://54.235.29.9/FacialAge/BNav_EC2/DepthDuration/v2_depth_duration_MTurk/v2_DepthDuration_HTML.html#26,26,1024,625,1024,768,8-20-2022,11-2-26,7,depth_duration_stimuli/002467_2014-06-28_20-38-07_260595134347_rgbf000026-resize_2/002467_2014-06-28_20-38-07_260595134347_rgbf000026-resize_2-target.png,250,4.742,1,4481,251,meters,jsons/v1_VE250_randls_52_rotated.json,602263,966752,24,Man
7,324625,DepthScenes,duration_manipulation_targetAtFixation,jsons/v1_VE250_randls_52_rotated.json,http://54.235.29.9/FacialAge/BNav_EC2/DepthDuration/v2_depth_duration_MTurk/v2_DepthDuration_HTML.html#26,26,1024,625,1024,768,8-20-2022,11-2-26,8,depth_duration_stimuli/002570_2014-06-24_13-59-54_094959634447_rgbf000059-resize_0/002570_2014-06-24_13-59-54_094959634447_rgbf000059-resize_0-target.png,250,4.037,1,3073,250,meters,jsons/v1_VE250_randls_52_rotated.json,602263,966752,24,Man
8,324625,DepthScenes,duration_manipulation_targetAtFixation,jsons/v1_VE250_randls_52_rotated.json,http://54.235.29.9/FacialAge/BNav_EC2/DepthDuration/v2_depth_duration_MTurk/v2_DepthDuration_HTML.html#26,26,1024,625,1024,768,8-20-2022,11-2-26,9,depth_duration_stimuli/000709_2014-06-08_13-51-55_260595134347_rgbf000068-resize_3/000709_2014-06-08_13-51-55_260595134347_rgbf000068-resize_3-target.png,250,1.8030000000000002,1,2739,253,meters,jsons/v1_VE250_randls_52_rotated.json,602263,966752,24,Man
9,324625,DepthScenes,duration_manipulation_targetAtFixation,jsons/v1_VE250_randls_52_rotated.json,http://54.235.29.9/FacialAge/BNav_EC2/DepthDuration/v2_depth_duration_MTurk/v2_DepthDuration_HTML.html#26,26,1024,625,1024,768,8-20-2022,11-2-26,10,depth_duration_stimuli/002057_2014-06-24_21-00-13_260595134347_rgbf000120-resize_1/002057_2014-06-24_21-00-13_260595134347_rgbf000120-resize_1-target.png,250,2.967,1,2951,248,meters,jsons/v1_VE250_randls_52_rotated.json,602263,966752,24,Man
10,324625,DepthScenes,duration_manipulation_targetAtFixation,jsons/v1_VE250_randls_52_rotated.json,http://54.235.29.9/FacialAge/BNav_EC2/DepthDuration/v2_depth_duration_MTurk/v2_DepthDuration_HTML.html#26,26,1024,625,1024,768,8-20-2022,11-2-26,11,depth_duration_stimuli/001094_2014-06-15_17-36-00_260595134347_rgbf000205-resize_0/001094_2014-06-15_17-36-00_260595134347_rgbf000205-resize_0-target.png,250,4.2175,1,4056,248,meters,jsons/v1_VE250_randls_52_rotated.json,602263,966752,24,Man
11,324625,DepthScenes,duration_manipulation_targetAtFixation,jsons/v1_VE250_randls_52_rotated.json,http://54.235.29.9/FacialAge/BNav_EC2/DepthDuration/v2_depth_duration_MTurk/v2_DepthDuration_HTML.html#26,26,1024,625,1024,768,8-20-2022,11-2-26,12,depth_duration_stimuli/000692_2014-06-08_13-09-42_260595134347_rgbf000199-resize_2/000692_2014-06-08_13-09-42_260595134347_rgbf000199-resize_2-target.png,250,3.661,1,2716,249,meters,jsons/v1_VE250_randls_52_rotated.json,602263,966752,24,Man
12,324625,DepthScenes,duration_manipulation_targetAtFixation,jsons/v1_VE250_randls_52_rotated.json,http://54.235.29.9/FacialAge/BNav_EC2/DepthDuration/v2_depth_duration_MTurk/v2_DepthDuration_HTML.html#26,26,1024,625,1024,768,8-20-2022,11-2-26,13,depth_duration_stimuli/002103_2014-06-25_20-00-40_260595134347_rgbf000049-resize_0/002103_2014-06-25_20-00-40_260595134347_rgbf000049-resize_0-target.png,250,4.105,1,4503,245,meters,jsons/v1_VE250_randls_52_rotated.json,602263,966752,24,Man
13,324625,DepthScenes,duration_manipulation_targetAtFixation,jsons/v1_VE250_randls_52_rotated.json,http://54.235.29.9/FacialAge/BNav_EC2/DepthDuration/v2_depth_duration_MTurk/v2_DepthDuration_HTML.html#26,26,1024,625,1024,768,8-20-2022,11-2-26,14,depth_duration_stimuli/002039_2014-06-24_20-22-38_260595134347_rgbf000084-resize_1/002039_2014-06-24_20-22-38_260595134347_rgbf000084-resize_1-target.png,250,4.408,1,2630,250,meters,jsons/v1_VE250_randls_52_rotated.json,602263,966752,24,Man
14,324625,DepthScenes,duration_manipulation_targetAtFixation,jsons/v1_VE250_randls_52_rotated.json,http://54.235.29.9/FacialAge/BNav_EC2/DepthDuration/v2_depth_duration_MTurk/v2_DepthDuration_HTML.html#26,26,1024,625,1024,768,8-20-2022,11-2-26,15,depth_duration_stimuli/001450_2014-06-19_17-02-03_260595134347_rgbf000203-resize_4/001450_2014-06-19_17-02-03_260595134347_rgbf000203-resize_4-target.png,250,4.0106666666667,0,4149,255,meters,jsons/v1_VE250_randls_52_rotated.json,602263,966752,24,Man
15,324625,DepthScenes,duration_manipulation_targetAtFixation,jsons/v1_VE250_randls_52_rotated.json,http://54.235.29.9/FacialAge/BNav_EC2/DepthDuration/v2_depth_duration_MTurk/v2_DepthDuration_HTML.html#26,26,1024,625,1024,768,8-20-2022,11-2-26,16,depth_duration_stimuli/001449_2014-06-19_17-01-27_260595134347_rgbf000116-resize_2/001449_2014-06-19_17-01-27_260595134347_rgbf000116-resize_2-target.png,250,3.452,1,2366,237,meters,jsons/v1_VE250_randls_52_rotated.json,602263,966752,24,Man
16,324625,DepthScenes,duration_manipulation_targetAtFixation,jsons/v1_VE250_randls_52_rotated.json,http://54.235.29.9/FacialAge/BNav_EC2/DepthDuration/v2_depth_duration_MTurk/v2_DepthDuration_HTML.html#26,26,1024,625,1024,768,8-20-2022,11-2-26,17,depth_duration_stimuli/002639_2014-06-24_14-51-37_094959634447_rgbf000074-resize_4/002639_2014-06-24_14-51-37_094959634447_rgbf000074-resize_4-target.png,250,4.0375,1,3351,250,meters,jsons/v1_VE250_randls_52_rotated.json,602263,966752,24,Man
17,324625,DepthScenes,duration_manipulation_targetAtFixation,jsons/v1_VE250_randls_52_rotated.json,http://54.235.29.9/FacialAge/BNav_EC2/DepthDuration/v2_depth_duration_MTurk/v2_DepthDuration_HTML.html#26,26,1024,625,1024,768,8-20-2022,11-2-26,18,depth_duration_stimuli/003292_2014-05-14_21-53-49_094959634447_rgbf000100-resize_2/003292_2014-05-14_21-53-49_094959634447_rgbf000100-resize_2-target.png,250,3.4815,1,2834,249,meters,jsons/v1_VE250_randls_52_rotated.json,602263,966752,24,Man
18,324625,DepthScenes,duration_manipulation_targetAtFixation,jsons/v1_VE250_randls_52_rotated.json,http://54.235.29.9/FacialAge/BNav_EC2/DepthDuration/v2_depth_duration_MTurk/v2_DepthDuration_HTML.html#26,26,1024,625,1024,768,8-20-2022,11-2-26,19,depth_duration_stimuli/001498_2014-06-19_17-45-14_260595134347_rgbf000129-resize_4/001498_2014-06-19_17-45-14_260595134347_rgbf000129-resize-original.jpg,250,1.4075,0,4165,249,meters,jsons/v1_VE250_randls_52_rotated.json,602263,966752,24,Man
19,324625,DepthScenes,duration_manipulation_targetAtFixation,jsons/v1_VE250_randls_52_rotated.json,http://54.235.29.9/FacialAge/BNav_EC2/DepthDuration/v2_depth_duration_MTurk/v2_DepthDuration_HTML.html#26,26,1024,625,1024,768,8-20-2022,11-2-26,20,depth_duration_stimuli/000734_2014-06-08_17-39-11_260595134347_rgbf000128-resize_2/000734_2014-06-08_17-39-11_260595134347_rgbf000128-resize_2-target.png,250,4.098,1,3515,249,meters,jsons/v1_VE250_randls_52_rotated.json,602263,966752,24,Man
20,324625,DepthScenes,duration_manipulation_targetAtFixation,jsons/v1_VE250_randls_52_rotated.json,http://54.235.29.9/FacialAge/BNav_EC2/DepthDuration/v2_depth_duration_MTurk/v2_DepthDuration_HTML.html#26,26,1024,625,1024,768,8-20-2022,11-2-26,21,depth_duration_stimuli/000739_2014-06-08_18-45-58_260595134347_rgbf000068-resize_1/000739_2014-06-08_18-45-58_260595134347_rgbf000068-resize_1-target.png,250,3.534,1,2546,273,meters,jsons/v1_VE250_randls_52_rotated.json,602263,966752,24,Man
21,324625,DepthScenes,duration_manipulation_targetAtFixation,jsons/v1_VE250_randls_52_rotated.json,http://54.235.29.9/FacialAge/BNav_EC2/DepthDuration/v2_depth_duration_MTurk/v2_DepthDuration_HTML.html#26,26,1024,625,1024,768,8-20-2022,11-2-26,22,depth_duration_stimuli/000109_2014-05-14_23-41-52_260595134347_rgbf000035-resize_9/000109_2014-05-14_23-41-52_260595134347_rgbf000035-resize_9-target.png,250,1.3545,0,2873,249,meters,jsons/v1_VE250_randls_52_rotated.json,602263,966752,24,Man
22,324625,DepthScenes,duration_manipulation_targetAtFixation,jsons/v1_VE250_randls_52_rotated.json,http://54.235.29.9/FacialAge/BNav_EC2/DepthDuration/v2_depth_duration_MTurk/v2_DepthDuration_HTML.html#26,26,1024,625,1024,768,8-20-2022,11-2-26,23,depth_duration_stimuli/000470_2014-06-09_19-42-40_260595134347_rgbf000094-resize_1/000470_2014-06-09_19-42-40_260595134347_rgbf000094-resize_1-target.png,250,1.831,1,3009,249,meters,jsons/v1_VE250_randls_52_rotated.json,602263,966752,24,Man
23,324625,DepthScenes,duration_manipulation_targetAtFixation,jsons/v1_VE250_randls_52_rotated.json,http://54.235.29.9/FacialAge/BNav_EC2/DepthDuration/v2_depth_duration_MTurk/v2_DepthDuration_HTML.html#26,26,1024,625,1024,768,8-20-2022,11-2-26,24,depth_duration_stimuli/000749_2014-06-08_21-55-06_260595134347_rgbf000070-resize_2/000749_2014-06-08_21-55-06_260595134347_rgbf000070-resize_2-target.png,250,2.331,0,2675,271,meters,jsons/v1_VE250_randls_52_rotated.json,602263,966752,24,Man
24,324625,DepthScenes,duration_manipulation_targetAtFixation,jsons/v1_VE250_randls_52_rotated.json,http://54.235.29.9/FacialAge/BNav_EC2/DepthDuration/v2_depth_duration_MTurk/v2_DepthDuration_HTML.html#26,26,1024,625,1024,768,8-20-2022,11-2-26,25,depth_duration_stimuli/002788_2014-06-22_19-36-03_094959634447_rgbf000088-resize_2/002788_2014-06-22_19-36-03_094959634447_rgbf000088-resize_2-target.png,250,1.6465,0,2958,251,meters,jsons/v1_VE250_randls_52_rotated.json,602263,966752,24,Man
25,324625,DepthScenes,duration_manipulation_targetAtFixation,jsons/v1_VE250_randls_52_rotated.json,http://54.235.29.9/FacialAge/BNav_EC2/DepthDuration/v2_depth_duration_MTurk/v2_DepthDuration_HTML.html#26,26,1024,625,1024,768,8-20-2022,11-2-26,26,depth_duration_stimuli/002136_2014-06-25_21-18-03_260595134347_rgbf000109-resize_3/002136_2014-06-25_21-18-03_260595134347_rgbf000109-resize_3-target.png,250,1.9569999999999999,1,4348,248,meters,jsons/v1_VE250_randls_52_rotated.json,602263,966752,24,Man
26,324625,DepthScenes,duration_manipulation_targetAtFixation,jsons/v1_VE250_randls_52_rotated.json,http://54.235.29.9/FacialAge/BNav_EC2/DepthDuration/v2_depth_duration_MTurk/v2_DepthDuration_HTML.html#26,26,1024,625,1024,768,8-20-2022,11-2-26,27,depth_duration_stimuli/002964_2014-06-08_17-46-11_094959634447_rgbf000091-resize_4/002964_2014-06-08_17-46-11_094959634447_rgbf000091-resize_4-target.png,250,1.6909999999999998,1,9282,249,meters,jsons/v1_VE250_randls_52_rotated.json,602263,966752,24,Man
27,324625,DepthScenes,duration_manipulation_targetAtFixation,jsons/v1_VE250_randls_52_rotated.json,http://54.235.29.9/FacialAge/BNav_EC2/DepthDuration/v2_depth_duration_MTurk/v2_DepthDuration_HTML.html#26,26,1024,625,1024,768,8-20-2022,11-2-26,28,depth_duration_stimuli/000137_2014-05-20_17-04-49_260595134347_rgbf000120-resize_1/000137_2014-05-20_17-04-49_260595134347_rgbf000120-resize_1-target.png,250,3.786,0,7481,249,meters,jsons/v1_VE250_randls_52_rotated.json,602263,966752,24,Man
28,324625,DepthScenes,duration_manipulation_targetAtFixation,jsons/v1_VE250_randls_52_rotated.json,http://54.235.29.9/FacialAge/BNav_EC2/DepthDuration/v2_depth_duration_MTurk/v2_DepthDuration_HTML.html#26,26,1024,625,1024,768,8-20-2022,11-2-26,29,depth_duration_stimuli/000736_2014-06-08_18-24-15_260595134347_rgbf000206-resize_3/000736_2014-06-08_18-24-15_260595134347_rgbf000206-resize_3-target.png,250,3.515,1,13591,248,meters,jsons/v1_VE250_randls_52_rotated.json,602263,966752,24,Man
29,324625,DepthScenes,duration_manipulation_targetAtFixation,jsons/v1_VE250_randls_52_rotated.json,http://54.235.29.9/FacialAge/BNav_EC2/DepthDuration/v2_depth_duration_MTurk/v2_DepthDuration_HTML.html#26,26,1024,625,1024,768,8-20-2022,11-2-26,30,depth_duration_stimuli/002072_2014-06-24_21-48-06_260595134347_rgbf000115-resize_0/002072_2014-06-24_21-48-06_260595134347_rgbf000115-resize-original.jpg,250,4.702,0,14207,248,meters,jsons/v1_VE250_randls_52_rotated.json,602263,966752,24,Man
30,324625,DepthScenes,duration_manipulation_targetAtFixation,jsons/v1_VE250_randls_52_rotated.json,http://54.235.29.9/FacialAge/BNav_EC2/DepthDuration/v2_depth_duration_MTurk/v2_DepthDuration_HTML.html#26,26,1024,625,1024,768,8-20-2022,11-2-26,31,depth_duration_stimuli/002758_2014-06-22_19-11-20_094959634447_rgbf000128-resize_1/002758_2014-06-22_19-11-20_094959634447_rgbf000128-resize_1-target.png,250,2.555,1,7760,250,meters,jsons/v1_VE250_randls_52_rotated.json,602263,966752,24,Man
31,324625,DepthScenes,duration_manipulation_targetAtFixation,jsons/v1_VE250_randls_52_rotated.json,http://54.235.29.9/FacialAge/BNav_EC2/DepthDuration/v2_depth_duration_MTurk/v2_DepthDuration_HTML.html#26,26,1024,625,1024,768,8-20-2022,11-2-26,32,depth_duration_stimuli/002630_2014-06-24_14-47-50_094959634447_rgbf000055-resize_1/002630_2014-06-24_14-47-50_094959634447_rgbf000055-resize_1-target.png,250,3.0095,1,3429,246,meters,jsons/v1_VE250_randls_52_rotated.json,602263,966752,24,Man
32,324625,DepthScenes,duration_manipulation_targetAtFixation,jsons/v1_VE250_randls_52_rotated.json,http://54.235.29.9/FacialAge/BNav_EC2/DepthDuration/v2_depth_duration_MTurk/v2_DepthDuration_HTML.html#26,26,1024,625,1024,768,8-20-2022,11-2-26,33,depth_duration_stimuli/001815_2014-06-26_20-52-55_260595134347_rgbf000020-resize_0/001815_2014-06-26_20-52-55_260595134347_rgbf000020-resize_0-target.png,250,3.3865,0,2978,251,meters,jsons/v1_VE250_randls_52_rotated.json,602263,966752,24,Man
33,324625,DepthScenes,duration_manipulation_targetAtFixation,jsons/v1_VE250_randls_52_rotated.json,http://54.235.29.9/FacialAge/BNav_EC2/DepthDuration/v2_depth_duration_MTurk/v2_DepthDuration_HTML.html#26,26,1024,625,1024,768,8-20-2022,11-2-26,34,depth_duration_stimuli/001808_2014-06-26_20-50-58_260595134347_rgbf000029-resize_1/001808_2014-06-26_20-50-58_260595134347_rgbf000029-resize_1-target.png,250,4.249,1,2562,249,meters,jsons/v1_VE250_randls_52_rotated.json,602263,966752,24,Man
34,324625,DepthScenes,duration_manipulation_targetAtFixation,jsons/v1_VE250_randls_52_rotated.json,http://54.235.29.9/FacialAge/BNav_EC2/DepthDuration/v2_depth_duration_MTurk/v2_DepthDuration_HTML.html#26,26,1024,625,1024,768,8-20-2022,11-2-26,35,depth_duration_stimuli/003423_2014-05-21_10-23-26_094959634447_rgbf002665-resize_2/003423_2014-05-21_10-23-26_094959634447_rgbf002665-resize_2-target.png,250,3.2575,0,3513,254,meters,jsons/v1_VE250_randls_52_rotated.json,602263,966752,24,Man
35,324625,DepthScenes,duration_manipulation_targetAtFixation,jsons/v1_VE250_randls_52_rotated.json,http://54.235.29.9/FacialAge/BNav_EC2/DepthDuration/v2_depth_duration_MTurk/v2_DepthDuration_HTML.html#26,26,1024,625,1024,768,8-20-2022,11-2-26,36,depth_duration_stimuli/002905_2014-06-03_18-04-43_094959634447_rgbf000151-resize_2/002905_2014-06-03_18-04-43_094959634447_rgbf000151-resize_2-target.png,250,2.0295,1,2571,248,meters,jsons/v1_VE250_randls_52_rotated.json,602263,966752,24,Man
36,324625,DepthScenes,duration_manipulation_targetAtFixation,jsons/v1_VE250_randls_52_rotated.json,http://54.235.29.9/FacialAge/BNav_EC2/DepthDuration/v2_depth_duration_MTurk/v2_DepthDuration_HTML.html#26,26,1024,625,1024,768,8-20-2022,11-2-26,37,depth_duration_stimuli/002657_2014-06-13_15-29-54_094959634447_rgbf000150-resize_1/002657_2014-06-13_15-29-54_094959634447_rgbf000150-resize_1-target.png,250,4.919,1,5953,245,meters,jsons/v1_VE250_randls_52_rotated.json,602263,966752,24,Man
37,324625,DepthScenes,duration_manipulation_targetAtFixation,jsons/v1_VE250_randls_52_rotated.json,http://54.235.29.9/FacialAge/BNav_EC2/DepthDuration/v2_depth_duration_MTurk/v2_DepthDuration_HTML.html#26,26,1024,625,1024,768,8-20-2022,11-2-26,38,depth_duration_stimuli/002375_2014-06-28_20-13-44_260595134347_rgbf000032-resize_1/002375_2014-06-28_20-13-44_260595134347_rgbf000032-resize_1-target.png,250,4.0175,1,2416,244,meters,jsons/v1_VE250_randls_52_rotated.json,602263,966752,24,Man
38,324625,DepthScenes,duration_manipulation_targetAtFixation,jsons/v1_VE250_randls_52_rotated.json,http://54.235.29.9/FacialAge/BNav_EC2/DepthDuration/v2_depth_duration_MTurk/v2_DepthDuration_HTML.html#26,26,1024,625,1024,768,8-20-2022,11-2-26,39,depth_duration_stimuli/001447_2014-06-19_17-00-32_260595134347_rgbf000082-resize_5/001447_2014-06-19_17-00-32_260595134347_rgbf000082-resize_5-target.png,250,4.13775,1,2265,249,meters,jsons/v1_VE250_randls_52_rotated.json,602263,966752,24,Man
39,324625,DepthScenes,duration_manipulation_targetAtFixation,jsons/v1_VE250_randls_52_rotated.json,http://54.235.29.9/FacialAge/BNav_EC2/DepthDuration/v2_depth_duration_MTurk/v2_DepthDuration_HTML.html#26,26,1024,625,1024,768,8-20-2022,11-2-26,40,depth_duration_stimuli/000447_2014-06-08_16-15-46_260595134347_rgbf000130-resize_1/000447_2014-06-08_16-15-46_260595134347_rgbf000130-resize_1-target.png,250,4.479,1,2154,250,meters,jsons/v1_VE250_randls_52_rotated.json,602263,966752,24,Man
40,324625,DepthScenes,duration_manipulation_targetAtFixation,jsons/v1_VE250_randls_52_rotated.json,http://54.235.29.9/FacialAge/BNav_EC2/DepthDuration/v2_depth_duration_MTurk/v2_DepthDuration_HTML.html#26,26,1024,625,1024,768,8-20-2022,11-2-26,41,depth_duration_stimuli/001392_2014-06-19_16-07-59_260595134347_rgbf000046-resize_1/001392_2014-06-19_16-07-59_260595134347_rgbf000046-resize_1-target.png,250,4.135,0,3283,246,meters,jsons/v1_VE250_randls_52_rotated.json,602263,966752,24,Man
41,324625,DepthScenes,duration_manipulation_targetAtFixation,jsons/v1_VE250_randls_52_rotated.json,http://54.235.29.9/FacialAge/BNav_EC2/DepthDuration/v2_depth_duration_MTurk/v2_DepthDuration_HTML.html#26,26,1024,625,1024,768,8-20-2022,11-2-26,42,depth_duration_stimuli/001570_2014-06-20_17-21-09_260595134347_rgbf000135-resize_4/001570_2014-06-20_17-21-09_260595134347_rgbf000135-resize_4-target.png,250,4.467,1,2537,249,meters,jsons/v1_VE250_randls_52_rotated.json,602263,966752,24,Man
42,324625,DepthScenes,duration_manipulation_targetAtFixation,jsons/v1_VE250_randls_52_rotated.json,http://54.235.29.9/FacialAge/BNav_EC2/DepthDuration/v2_depth_duration_MTurk/v2_DepthDuration_HTML.html#26,26,1024,625,1024,768,8-20-2022,11-2-26,43,depth_duration_stimuli/003010_2014-06-15_12-54-35_094959634447_rgbf000112-resize_0/003010_2014-06-15_12-54-35_094959634447_rgbf000112-resize_0-target.png,250,3.1185,0,3348,250,meters,jsons/v1_VE250_randls_52_rotated.json,602263,966752,24,Man
43,324625,DepthScenes,duration_manipulation_targetAtFixation,jsons/v1_VE250_randls_52_rotated.json,http://54.235.29.9/FacialAge/BNav_EC2/DepthDuration/v2_depth_duration_MTurk/v2_DepthDuration_HTML.html#26,26,1024,625,1024,768,8-20-2022,11-2-26,44,depth_duration_stimuli/001810_2014-06-26_20-51-35_260595134347_rgbf000040-resize_3/001810_2014-06-26_20-51-35_260595134347_rgbf000040-resize_3-target.png,250,2.2525,1,2579,249,meters,jsons/v1_VE250_randls_52_rotated.json,602263,966752,24,Man
44,324625,DepthScenes,duration_manipulation_targetAtFixation,jsons/v1_VE250_randls_52_rotated.json,http://54.235.29.9/FacialAge/BNav_EC2/DepthDuration/v2_depth_duration_MTurk/v2_DepthDuration_HTML.html#26,26,1024,625,1024,768,8-20-2022,11-2-26,45,depth_duration_stimuli/001052_2014-06-08_18-24-54_260595134347_rgbf000130-resize_1/001052_2014-06-08_18-24-54_260595134347_rgbf000130-resize_1-target.png,250,4.1045,0,3553,249,meters,jsons/v1_VE250_randls_52_rotated.json,602263,966752,24,Man
45,324625,DepthScenes,duration_manipulation_targetAtFixation,jsons/v1_VE250_randls_52_rotated.json,http://54.235.29.9/FacialAge/BNav_EC2/DepthDuration/v2_depth_duration_MTurk/v2_DepthDuration_HTML.html#26,26,1024,625,1024,768,8-20-2022,11-2-26,46,depth_duration_stimuli/002988_2014-06-15_12-24-20_094959634447_rgbf000150-resize_1/002988_2014-06-15_12-24-20_094959634447_rgbf000150-resize_1-target.png,250,4.7669999999999995,1,2651,250,meters,jsons/v1_VE250_randls_52_rotated.json,602263,966752,24,Man
46,324625,DepthScenes,duration_manipulation_targetAtFixation,jsons/v1_VE250_randls_52_rotated.json,http://54.235.29.9/FacialAge/BNav_EC2/DepthDuration/v2_depth_duration_MTurk/v2_DepthDuration_HTML.html#26,26,1024,625,1024,768,8-20-2022,11-2-26,47,depth_duration_stimuli/000103_2014-05-14_22-01-17_260595134347_rgbf000152-resize_5/000103_2014-05-14_22-01-17_260595134347_rgbf000152-resize_5-target.png,250,1.993,1,2274,250,meters,jsons/v1_VE250_randls_52_rotated.json,602263,966752,24,Man
47,324625,DepthScenes,duration_manipulation_targetAtFixation,jsons/v1_VE250_randls_52_rotated.json,http://54.235.29.9/FacialAge/BNav_EC2/DepthDuration/v2_depth_duration_MTurk/v2_DepthDuration_HTML.html#26,26,1024,625,1024,768,8-20-2022,11-2-26,48,depth_duration_stimuli/001555_2014-06-20_17-12-10_260595134347_rgbf000065-resize_4/001555_2014-06-20_17-12-10_260595134347_rgbf000065-resize_4-target.png,250,1.633,1,2416,246,meters,jsons/v1_VE250_randls_52_rotated.json,602263,966752,24,Man
48,324625,DepthScenes,duration_manipulation_targetAtFixation,jsons/v1_VE250_randls_52_rotated.json,http://54.235.29.9/FacialAge/BNav_EC2/DepthDuration/v2_depth_duration_MTurk/v2_DepthDuration_HTML.html#26,26,1024,625,1024,768,8-20-2022,11-2-26,49,depth_duration_stimuli/001170_2014-06-17_15-43-44_260595134347_rgbf000096-resize_6/001170_2014-06-17_15-43-44_260595134347_rgbf000096-resize-original.jpg,250,1.1909999999999998,1,4138,249,meters,jsons/v1_VE250_randls_52_rotated.json,602263,966752,24,Man
49,324625,DepthScenes,duration_manipulation_targetAtFixation,jsons/v1_VE250_randls_52_rotated.json,http://54.235.29.9/FacialAge/BNav_EC2/DepthDuration/v2_depth_duration_MTurk/v2_DepthDuration_HTML.html#26,26,1024,625,1024,768,8-20-2022,11-2-26,50,depth_duration_stimuli/000866_2014-06-09_20-45-42_260595134347_rgbf000139-resize_1/000866_2014-06-09_20-45-42_260595134347_rgbf000139-resize_1-target.png,250,3.2155,0,3003,249,meters,jsons/v1_VE250_randls_52_rotated.json,602263,966752,24,Man
50,324625,DepthScenes,duration_manipulation_targetAtFixation,jsons/v1_VE250_randls_52_rotated.json,http://54.235.29.9/FacialAge/BNav_EC2/DepthDuration/v2_depth_duration_MTurk/v2_DepthDuration_HTML.html#26,26,1024,625,1024,768,8-20-2022,11-2-26,51,depth_duration_stimuli/002989_2014-06-15_12-25-03_094959634447_rgbf000150-resize_3/002989_2014-06-15_12-25-03_094959634447_rgbf000150-resize_3-target.png,250,4.1975,1,2265,249,meters,jsons/v1_VE250_randls_52_rotated.json,602263,966752,24,Man
51,324625,DepthScenes,duration_manipulation_targetAtFixation,jsons/v1_VE250_randls_52_rotated.json,http://54.235.29.9/FacialAge/BNav_EC2/DepthDuration/v2_depth_duration_MTurk/v2_DepthDuration_HTML.html#26,26,1024,625,1024,768,8-20-2022,11-2-26,52,depth_duration_stimuli/000943_2014-06-09_19-31-07_260595134347_rgbf000128-resize_1/000943_2014-06-09_19-31-07_260595134347_rgbf000128-resize_1-target.png,250,1.9765,1,2203,249,meters,jsons/v1_VE250_randls_52_rotated.json,602263,966752,24,Man
52,324625,DepthScenes,duration_manipulation_targetAtFixation,jsons/v1_VE250_randls_52_rotated.json,http://54.235.29.9/FacialAge/BNav_EC2/DepthDuration/v2_depth_duration_MTurk/v2_DepthDuration_HTML.html#26,26,1024,625,1024,768,8-20-2022,11-2-26,53,depth_duration_stimuli/003070_2014-06-15_14-58-27_094959634447_rgbf000150-resize_3/003070_2014-06-15_14-58-27_094959634447_rgbf000150-resize_3-target.png,250,2.9415,1,1928,249,meters,jsons/v1_VE250_randls_52_rotated.json,602263,966752,24,Man
53,324625,DepthScenes,duration_manipulation_targetAtFixation,jsons/v1_VE250_randls_52_rotated.json,http://54.235.29.9/FacialAge/BNav_EC2/DepthDuration/v2_depth_duration_MTurk/v2_DepthDuration_HTML.html#26,26,1024,625,1024,768,8-20-2022,11-2-26,54,depth_duration_stimuli/002545_2014-06-24_13-38-53_094959634447_rgbf000080-resize_4/002545_2014-06-24_13-38-53_094959634447_rgbf000080-resize_4-target.png,250,1.9205,1,2575,278,meters,jsons/v1_VE250_randls_52_rotated.json,602263,966752,24,Man
54,324625,DepthScenes,duration_manipulation_targetAtFixation,jsons/v1_VE250_randls_52_rotated.json,http://54.235.29.9/FacialAge/BNav_EC2/DepthDuration/v2_depth_duration_MTurk/v2_DepthDuration_HTML.html#26,26,1024,625,1024,768,8-20-2022,11-2-26,55,depth_duration_stimuli/001092_2014-06-15_17-34-58_260595134347_rgbf000171-resize_3/001092_2014-06-15_17-34-58_260595134347_rgbf000171-resize_3-target.png,250,2.6935,1,2093,249,meters,jsons/v1_VE250_randls_52_rotated.json,602263,966752,24,Man
55,324625,DepthScenes,duration_manipulation_targetAtFixation,jsons/v1_VE250_randls_52_rotated.json,http://54.235.29.9/FacialAge/BNav_EC2/DepthDuration/v2_depth_duration_MTurk/v2_DepthDuration_HTML.html#26,26,1024,625,1024,768,8-20-2022,11-2-26,56,depth_duration_stimuli/000665_2014-06-09_20-42-35_260595134347_rgbf000110-resize_1/000665_2014-06-09_20-42-35_260595134347_rgbf000110-resize_1-target.png,250,3.057,1,2344,249,meters,jsons/v1_VE250_randls_52_rotated.json,602263,966752,24,Man
56,324625,DepthScenes,duration_manipulation_targetAtFixation,jsons/v1_VE250_randls_52_rotated.json,http://54.235.29.9/FacialAge/BNav_EC2/DepthDuration/v2_depth_duration_MTurk/v2_DepthDuration_HTML.html#26,26,1024,625,1024,768,8-20-2022,11-2-26,57,depth_duration_stimuli/001150_2014-06-17_15-27-34_260595134347_rgbf000108-resize_2/001150_2014-06-17_15-27-34_260595134347_rgbf000108-resize_2-target.png,250,4.0325,1,3843,255,meters,jsons/v1_VE250_randls_52_rotated.json,602263,966752,24,Man
57,324625,DepthScenes,duration_manipulation_targetAtFixation,jsons/v1_VE250_randls_52_rotated.json,http://54.235.29.9/FacialAge/BNav_EC2/DepthDuration/v2_depth_duration_MTurk/v2_DepthDuration_HTML.html#26,26,1024,625,1024,768,8-20-2022,11-2-26,58,depth_duration_stimuli/000409_2014-06-04_19-23-33_260595134347_rgbf000067-resize_0/000409_2014-06-04_19-23-33_260595134347_rgbf000067-resize_0-target.png,250,3.7335,0,4169,235,meters,jsons/v1_VE250_randls_52_rotated.json,602263,966752,24,Man
58,324625,DepthScenes,duration_manipulation_targetAtFixation,jsons/v1_VE250_randls_52_rotated.json,http://54.235.29.9/FacialAge/BNav_EC2/DepthDuration/v2_depth_duration_MTurk/v2_DepthDuration_HTML.html#26,26,1024,625,1024,768,8-20-2022,11-2-26,59,depth_duration_stimuli/002663_2014-06-13_15-50-26_094959634447_rgbf000075-resize_1/002663_2014-06-13_15-50-26_094959634447_rgbf000075-resize_1-target.png,250,4.7495,1,6992,248,meters,jsons/v1_VE250_randls_52_rotated.json,602263,966752,24,Man
59,324625,DepthScenes,duration_manipulation_targetAtFixation,jsons/v1_VE250_randls_52_rotated.json,http://54.235.29.9/FacialAge/BNav_EC2/DepthDuration/v2_depth_duration_MTurk/v2_DepthDuration_HTML.html#26,26,1024,625,1024,768,8-20-2022,11-2-26,60,depth_duration_stimuli/000927_2014-06-09_16-32-30_260595134347_rgbf000123-resize_3/000927_2014-06-09_16-32-30_260595134347_rgbf000123-resize_3-target.png,250,2.6785,1,4348,250,meters,jsons/v1_VE250_randls_52_rotated.json,602263,966752,24,Man
60,324625,DepthScenes,duration_manipulation_targetAtFixation,jsons/v1_VE250_randls_52_rotated.json,http://54.235.29.9/FacialAge/BNav_EC2/DepthDuration/v2_depth_duration_MTurk/v2_DepthDuration_HTML.html#26,26,1024,625,1024,768,8-20-2022,11-2-26,61,depth_duration_stimuli/001110_2014-06-15_17-25-28_260595134347_rgbf000150-resize_1/001110_2014-06-15_17-25-28_260595134347_rgbf000150-resize_1-target.png,250,1.7115,1,3154,250,meters,jsons/v1_VE250_randls_52_rotated.json,602263,966752,24,Man
61,324625,DepthScenes,duration_manipulation_targetAtFixation,jsons/v1_VE250_randls_52_rotated.json,http://54.235.29.9/FacialAge/BNav_EC2/DepthDuration/v2_depth_duration_MTurk/v2_DepthDuration_HTML.html#26,26,1024,625,1024,768,8-20-2022,11-2-26,62,depth_duration_stimuli/001132_2014-06-17_14-48-54_260595134347_rgbf000100-resize_2/001132_2014-06-17_14-48-54_260595134347_rgbf000100-resize_2-target.png,250,3.753,1,2225,260,meters,jsons/v1_VE250_randls_52_rotated.json,602263,966752,24,Man
62,324625,DepthScenes,duration_manipulation_targetAtFixation,jsons/v1_VE250_randls_52_rotated.json,http://54.235.29.9/FacialAge/BNav_EC2/DepthDuration/v2_depth_duration_MTurk/v2_DepthDuration_HTML.html#26,26,1024,625,1024,768,8-20-2022,11-2-26,63,depth_duration_stimuli/001133_2014-06-17_14-49-16_260595134347_rgbf000100-resize_0/001133_2014-06-17_14-49-16_260595134347_rgbf000100-resize_0-target.png,250,4.2115,1,3128,242,meters,jsons/v1_VE250_randls_52_rotated.json,602263,966752,24,Man
63,324625,DepthScenes,duration_manipulation_targetAtFixation,jsons/v1_VE250_randls_52_rotated.json,http://54.235.29.9/FacialAge/BNav_EC2/DepthDuration/v2_depth_duration_MTurk/v2_DepthDuration_HTML.html#26,26,1024,625,1024,768,8-20-2022,11-2-26,64,depth_duration_stimuli/002344_2014-06-28_20-06-29_260595134347_rgbf000030-resize_1/002344_2014-06-28_20-06-29_260595134347_rgbf000030-resize_1-target.png,250,1.5795,0,4426,250,meters,jsons/v1_VE250_randls_52_rotated.json,602263,966752,24,Man
64,324625,DepthScenes,duration_manipulation_targetAtFixation,jsons/v1_VE250_randls_52_rotated.json,http://54.235.29.9/FacialAge/BNav_EC2/DepthDuration/v2_depth_duration_MTurk/v2_DepthDuration_HTML.html#26,26,1024,625,1024,768,8-20-2022,11-2-26,65,depth_duration_stimuli/002725_2014-06-22_11-47-51_094959634447_rgbf000070-resize_1/002725_2014-06-22_11-47-51_094959634447_rgbf000070-resize_1-target.png,250,2.195,1,2690,257,meters,jsons/v1_VE250_randls_52_rotated.json,602263,966752,24,Man
65,324625,DepthScenes,duration_manipulation_targetAtFixation,jsons/v1_VE250_randls_52_rotated.json,http://54.235.29.9/FacialAge/BNav_EC2/DepthDuration/v2_depth_duration_MTurk/v2_DepthDuration_HTML.html#26,26,1024,625,1024,768,8-20-2022,11-2-26,66,depth_duration_stimuli/001540_2014-06-20_17-01-05_260595134347_rgbf000086-resize_2/001540_2014-06-20_17-01-05_260595134347_rgbf000086-resize-original.jpg,250,1.459,1,2985,248,meters,jsons/v1_VE250_randls_52_rotated.json,602263,966752,24,Man
66,324625,DepthScenes,duration_manipulation_targetAtFixation,jsons/v1_VE250_randls_52_rotated.json,http://54.235.29.9/FacialAge/BNav_EC2/DepthDuration/v2_depth_duration_MTurk/v2_DepthDuration_HTML.html#26,26,1024,625,1024,768,8-20-2022,11-2-26,67,depth_duration_stimuli/002678_2014-06-13_16-15-32_094959634447_rgbf000151-resize_6/002678_2014-06-13_16-15-32_094959634447_rgbf000151-resize_6-target.png,250,2.1830000000000003,1,4195,250,meters,jsons/v1_VE250_randls_52_rotated.json,602263,966752,24,Man
67,324625,DepthScenes,duration_manipulation_targetAtFixation,jsons/v1_VE250_randls_52_rotated.json,http://54.235.29.9/FacialAge/BNav_EC2/DepthDuration/v2_depth_duration_MTurk/v2_DepthDuration_HTML.html#26,26,1024,625,1024,768,8-20-2022,11-2-26,68,depth_duration_stimuli/000368_2014-06-09_15-53-01_260595134347_rgbf000155-resize_2/000368_2014-06-09_15-53-01_260595134347_rgbf000155-resize_2-target.png,250,2.4859999999999998,1,2369,249,meters,jsons/v1_VE250_randls_52_rotated.json,602263,966752,24,Man
68,324625,DepthScenes,duration_manipulation_targetAtFixation,jsons/v1_VE250_randls_52_rotated.json,http://54.235.29.9/FacialAge/BNav_EC2/DepthDuration/v2_depth_duration_MTurk/v2_DepthDuration_HTML.html#26,26,1024,625,1024,768,8-20-2022,11-2-26,69,depth_duration_stimuli/002949_2014-06-26_15-57-42_094959634447_rgbf000079-resize_1/002949_2014-06-26_15-57-42_094959634447_rgbf000079-resize_1-target.png,250,1.8915,1,2358,251,meters,jsons/v1_VE250_randls_52_rotated.json,602263,966752,24,Man
69,324625,DepthScenes,duration_manipulation_targetAtFixation,jsons/v1_VE250_randls_52_rotated.json,http://54.235.29.9/FacialAge/BNav_EC2/DepthDuration/v2_depth_duration_MTurk/v2_DepthDuration_HTML.html#26,26,1024,625,1024,768,8-20-2022,11-2-26,70,depth_duration_stimuli/000522_2014-06-08_13-35-06_260595134347_rgbf000244-resize_1/000522_2014-06-08_13-35-06_260595134347_rgbf000244-resize_1-target.png,250,2.3715,1,3115,248,meters,jsons/v1_VE250_randls_52_rotated.json,602263,966752,24,Man
70,324625,DepthScenes,duration_manipulation_targetAtFixation,jsons/v1_VE250_randls_52_rotated.json,http://54.235.29.9/FacialAge/BNav_EC2/DepthDuration/v2_depth_duration_MTurk/v2_DepthDuration_HTML.html#26,26,1024,625,1024,768,8-20-2022,11-2-26,71,depth_duration_stimuli/001571_2014-06-20_17-21-32_260595134347_rgbf000089-resize_1/001571_2014-06-20_17-21-32_260595134347_rgbf000089-resize_1-target.png,250,1.86,1,2400,250,meters,jsons/v1_VE250_randls_52_rotated.json,602263,966752,24,Man
71,324625,DepthScenes,duration_manipulation_targetAtFixation,jsons/v1_VE250_randls_52_rotated.json,http://54.235.29.9/FacialAge/BNav_EC2/DepthDuration/v2_depth_duration_MTurk/v2_DepthDuration_HTML.html#26,26,1024,625,1024,768,8-20-2022,11-2-26,72,depth_duration_stimuli/002272_2014-06-28_18-53-56_260595134347_rgbf000067-resize_2/002272_2014-06-28_18-53-56_260595134347_rgbf000067-resize_2-target.png,250,1.138,1,2672,249,meters,jsons/v1_VE250_randls_52_rotated.json,602263,966752,24,Man
72,324625,DepthScenes,duration_manipulation_targetAtFixation,jsons/v1_VE250_randls_52_rotated.json,http://54.235.29.9/FacialAge/BNav_EC2/DepthDuration/v2_depth_duration_MTurk/v2_DepthDuration_HTML.html#26,26,1024,625,1024,768,8-20-2022,11-2-26,73,depth_duration_stimuli/001032_2014-06-08_13-23-17_260595134347_rgbf000021-resize_3/001032_2014-06-08_13-23-17_260595134347_rgbf000021-resize_3-target.png,250,3.2725,0,5234,352,meters,jsons/v1_VE250_randls_52_rotated.json,602263,966752,24,Man
73,324625,DepthScenes,duration_manipulation_targetAtFixation,jsons/v1_VE250_randls_52_rotated.json,http://54.235.29.9/FacialAge/BNav_EC2/DepthDuration/v2_depth_duration_MTurk/v2_DepthDuration_HTML.html#26,26,1024,625,1024,768,8-20-2022,11-2-26,74,depth_duration_stimuli/001059_2014-06-08_21-53-27_260595134347_rgbf000061-resize_4/001059_2014-06-08_21-53-27_260595134347_rgbf000061-resize_4-target.png,250,2.4185,1,2218,248,meters,jsons/v1_VE250_randls_52_rotated.json,602263,966752,24,Man
74,324625,DepthScenes,duration_manipulation_targetAtFixation,jsons/v1_VE250_randls_52_rotated.json,http://54.235.29.9/FacialAge/BNav_EC2/DepthDuration/v2_depth_duration_MTurk/v2_DepthDuration_HTML.html#26,26,1024,625,1024,768,8-20-2022,11-2-26,75,depth_duration_stimuli/001828_2014-06-26_21-40-03_260595134347_rgbf000024-resize_0/001828_2014-06-26_21-40-03_260595134347_rgbf000024-resize_0-target.png,250,4.8260000000000005,1,2821,249,meters,jsons/v1_VE250_randls_52_rotated.json,602263,966752,24,Man
75,324625,DepthScenes,duration_manipulation_targetAtFixation,jsons/v1_VE250_randls_52_rotated.json,http://54.235.29.9/FacialAge/BNav_EC2/DepthDuration/v2_depth_duration_MTurk/v2_DepthDuration_HTML.html#26,26,1024,625,1024,768,8-20-2022,11-2-26,76,depth_duration_stimuli/000009_2014-05-26_14-32-05_260595134347_rgbf000034-resize_3/000009_2014-05-26_14-32-05_260595134347_rgbf000034-resize_3-target.png,250,3.8715,1,2961,250,meters,jsons/v1_VE250_randls_52_rotated.json,602263,966752,24,Man
76,324625,DepthScenes,duration_manipulation_targetAtFixation,jsons/v1_VE250_randls_52_rotated.json,http://54.235.29.9/FacialAge/BNav_EC2/DepthDuration/v2_depth_duration_MTurk/v2_DepthDuration_HTML.html#26,26,1024,625,1024,768,8-20-2022,11-2-26,77,depth_duration_stimuli/002995_2014-06-15_12-31-26_094959634447_rgbf000150-resize_1/002995_2014-06-15_12-31-26_094959634447_rgbf000150-resize_1-target.png,250,3.8360000000000003,0,3984,250,meters,jsons/v1_VE250_randls_52_rotated.json,602263,966752,24,Man
77,324625,DepthScenes,duration_manipulation_targetAtFixation,jsons/v1_VE250_randls_52_rotated.json,http://54.235.29.9/FacialAge/BNav_EC2/DepthDuration/v2_depth_duration_MTurk/v2_DepthDuration_HTML.html#26,26,1024,625,1024,768,8-20-2022,11-2-26,78,depth_duration_stimuli/002748_2014-06-22_19-07-22_094959634447_rgbf000078-resize_1/002748_2014-06-22_19-07-22_094959634447_rgbf000078-resize_1-target.png,250,4.6705,1,2200,248,meters,jsons/v1_VE250_randls_52_rotated.json,602263,966752,24,Man
78,324625,DepthScenes,duration_manipulation_targetAtFixation,jsons/v1_VE250_randls_52_rotated.json,http://54.235.29.9/FacialAge/BNav_EC2/DepthDuration/v2_depth_duration_MTurk/v2_DepthDuration_HTML.html#26,26,1024,625,1024,768,8-20-2022,11-2-26,79,depth_duration_stimuli/000191_2014-05-12_17-07-38_260595134347_rgbf000199-resize_0/000191_2014-05-12_17-07-38_260595134347_rgbf000199-resize_0-target.png,250,3.7995,0,2476,246,meters,jsons/v1_VE250_randls_52_rotated.json,602263,966752,24,Man
79,324625,DepthScenes,duration_manipulation_targetAtFixation,jsons/v1_VE250_randls_52_rotated.json,http://54.235.29.9/FacialAge/BNav_EC2/DepthDuration/v2_depth_duration_MTurk/v2_DepthDuration_HTML.html#26,26,1024,625,1024,768,8-20-2022,11-2-26,80,depth_duration_stimuli/000493_2014-06-09_21-01-18_260595134347_rgbf000196-resize_3/000493_2014-06-09_21-01-18_260595134347_rgbf000196-resize_3-target.png,250,3.44,1,2245,251,meters,jsons/v1_VE250_randls_52_rotated.json,602263,966752,24,Man
80,324625,DepthScenes,duration_manipulation_targetAtFixation,jsons/v1_VE250_randls_52_rotated.json,http://54.235.29.9/FacialAge/BNav_EC2/DepthDuration/v2_depth_duration_MTurk/v2_DepthDuration_HTML.html#26,26,1024,625,1024,768,8-20-2022,11-2-26,81,depth_duration_stimuli/002209_2014-06-28_18-36-10_260595134347_rgbf000051-resize_1/002209_2014-06-28_18-36-10_260595134347_rgbf000051-resize_1-target.png,250,2.057,1,5613,246,meters,jsons/v1_VE250_randls_52_rotated.json,602263,966752,24,Man
81,324625,DepthScenes,duration_manipulation_targetAtFixation,jsons/v1_VE250_randls_52_rotated.json,http://54.235.29.9/FacialAge/BNav_EC2/DepthDuration/v2_depth_duration_MTurk/v2_DepthDuration_HTML.html#26,26,1024,625,1024,768,8-20-2022,11-2-26,82,depth_duration_stimuli/002763_2014-06-22_19-13-10_094959634447_rgbf000075-resize_4/002763_2014-06-22_19-13-10_094959634447_rgbf000075-resize_4-target.png,250,1.68375,1,3005,249,meters,jsons/v1_VE250_randls_52_rotated.json,602263,966752,24,Man
82,324625,DepthScenes,duration_manipulation_targetAtFixation,jsons/v1_VE250_randls_52_rotated.json,http://54.235.29.9/FacialAge/BNav_EC2/DepthDuration/v2_depth_duration_MTurk/v2_DepthDuration_HTML.html#26,26,1024,625,1024,768,8-20-2022,11-2-26,83,depth_duration_stimuli/003490_2014-05-21_15-50-11_094959634447_rgbf000101-resize_3/003490_2014-05-21_15-50-11_094959634447_rgbf000101-resize_3-target.png,250,3.6445,1,3740,249,meters,jsons/v1_VE250_randls_52_rotated.json,602263,966752,24,Man
83,324625,DepthScenes,duration_manipulation_targetAtFixation,jsons/v1_VE250_randls_52_rotated.json,http://54.235.29.9/FacialAge/BNav_EC2/DepthDuration/v2_depth_duration_MTurk/v2_DepthDuration_HTML.html#26,26,1024,625,1024,768,8-20-2022,11-2-26,84,depth_duration_stimuli/001175_2014-06-17_15-45-55_260595134347_rgbf000129-resize_4/001175_2014-06-17_15-45-55_260595134347_rgbf000129-resize_4-target.png,250,4.255,1,3289,249,meters,jsons/v1_VE250_randls_52_rotated.json,602263,966752,24,Man
84,324625,DepthScenes,duration_manipulation_targetAtFixation,jsons/v1_VE250_randls_52_rotated.json,http://54.235.29.9/FacialAge/BNav_EC2/DepthDuration/v2_depth_duration_MTurk/v2_DepthDuration_HTML.html#26,26,1024,625,1024,768,8-20-2022,11-2-26,85,depth_duration_stimuli/003587_2014-05-23_16-48-02_094959634447_rgbf002384-resize_2/003587_2014-05-23_16-48-02_094959634447_rgbf002384-resize_2-target.png,250,1.357,1,2689,250,meters,jsons/v1_VE250_randls_52_rotated.json,602263,966752,24,Man
85,324625,DepthScenes,duration_manipulation_targetAtFixation,jsons/v1_VE250_randls_52_rotated.json,http://54.235.29.9/FacialAge/BNav_EC2/DepthDuration/v2_depth_duration_MTurk/v2_DepthDuration_HTML.html#26,26,1024,625,1024,768,8-20-2022,11-2-26,86,depth_duration_stimuli/001167_2014-06-17_15-38-07_260595134347_rgbf000108-resize_0/001167_2014-06-17_15-38-07_260595134347_rgbf000108-resize_0-target.png,250,1.8505,1,2746,248,meters,jsons/v1_VE250_randls_52_rotated.json,602263,966752,24,Man
86,324625,DepthScenes,duration_manipulation_targetAtFixation,jsons/v1_VE250_randls_52_rotated.json,http://54.235.29.9/FacialAge/BNav_EC2/DepthDuration/v2_depth_duration_MTurk/v2_DepthDuration_HTML.html#26,26,1024,625,1024,768,8-20-2022,11-2-26,87,depth_duration_stimuli/001516_2014-06-20_16-25-09_260595134347_rgbf000076-resize_2/001516_2014-06-20_16-25-09_260595134347_rgbf000076-resize_2-target.png,250,1.7445,1,2892,250,meters,jsons/v1_VE250_randls_52_rotated.json,602263,966752,24,Man
87,324625,DepthScenes,duration_manipulation_targetAtFixation,jsons/v1_VE250_randls_52_rotated.json,http://54.235.29.9/FacialAge/BNav_EC2/DepthDuration/v2_depth_duration_MTurk/v2_DepthDuration_HTML.html#26,26,1024,625,1024,768,8-20-2022,11-2-26,88,depth_duration_stimuli/002118_2014-06-25_20-32-08_260595134347_rgbf000078-resize_1/002118_2014-06-25_20-32-08_260595134347_rgbf000078-resize_1-target.png,250,2.6460000000000004,1,2468,249,meters,jsons/v1_VE250_randls_52_rotated.json,602263,966752,24,Man
88,324625,DepthScenes,duration_manipulation_targetAtFixation,jsons/v1_VE250_randls_52_rotated.json,http://54.235.29.9/FacialAge/BNav_EC2/DepthDuration/v2_depth_duration_MTurk/v2_DepthDuration_HTML.html#26,26,1024,625,1024,768,8-20-2022,11-2-26,89,depth_duration_stimuli/000635_2014-06-08_16-38-42_260595134347_rgbf000106-resize_1/000635_2014-06-08_16-38-42_260595134347_rgbf000106-resize_1-target.png,250,2.074,1,2298,248,meters,jsons/v1_VE250_randls_52_rotated.json,602263,966752,24,Man
89,324625,DepthScenes,duration_manipulation_targetAtFixation,jsons/v1_VE250_randls_52_rotated.json,http://54.235.29.9/FacialAge/BNav_EC2/DepthDuration/v2_depth_duration_MTurk/v2_DepthDuration_HTML.html#26,26,1024,625,1024,768,8-20-2022,11-2-26,90,depth_duration_stimuli/002279_2014-06-28_18-55-32_260595134347_rgbf000040-resize_5/002279_2014-06-28_18-55-32_260595134347_rgbf000040-resize_5-target.png,250,1.5043333333333,1,2137,249,meters,jsons/v1_VE250_randls_52_rotated.json,602263,966752,24,Man
90,324625,DepthScenes,duration_manipulation_targetAtFixation,jsons/v1_VE250_randls_52_rotated.json,http://54.235.29.9/FacialAge/BNav_EC2/DepthDuration/v2_depth_duration_MTurk/v2_DepthDuration_HTML.html#26,26,1024,625,1024,768,8-20-2022,11-2-26,91,depth_duration_stimuli/000556_2014-06-09_22-42-56_260595134347_rgbf000214-resize_1/000556_2014-06-09_22-42-56_260595134347_rgbf000214-resize_1-target.png,250,4.8415,1,2161,248,meters,jsons/v1_VE250_randls_52_rotated.json,602263,966752,24,Man
91,324625,DepthScenes,duration_manipulation_targetAtFixation,jsons/v1_VE250_randls_52_rotated.json,http://54.235.29.9/FacialAge/BNav_EC2/DepthDuration/v2_depth_duration_MTurk/v2_DepthDuration_HTML.html#26,26,1024,625,1024,768,8-20-2022,11-2-26,92,depth_duration_stimuli/001158_2014-06-17_15-32-16_260595134347_rgbf000138-resize_2/001158_2014-06-17_15-32-16_260595134347_rgbf000138-resize_2-target.png,250,4.5315,1,2204,249,meters,jsons/v1_VE250_randls_52_rotated.json,602263,966752,24,Man
92,324625,DepthScenes,duration_manipulation_targetAtFixation,jsons/v1_VE250_randls_52_rotated.json,http://54.235.29.9/FacialAge/BNav_EC2/DepthDuration/v2_depth_duration_MTurk/v2_DepthDuration_HTML.html#26,26,1024,625,1024,768,8-20-2022,11-2-26,93,depth_duration_stimuli/000549_2014-06-08_22-10-24_260595134347_rgbf000247-resize_3/000549_2014-06-08_22-10-24_260595134347_rgbf000247-resize_3-target.png,250,1.841,0,2371,249,meters,jsons/v1_VE250_randls_52_rotated.json,602263,966752,24,Man
93,324625,DepthScenes,duration_manipulation_targetAtFixation,jsons/v1_VE250_randls_52_rotated.json,http://54.235.29.9/FacialAge/BNav_EC2/DepthDuration/v2_depth_duration_MTurk/v2_DepthDuration_HTML.html#26,26,1024,625,1024,768,8-20-2022,11-2-26,94,depth_duration_stimuli/001055_2014-06-08_18-45-35_260595134347_rgbf000111-resize_4/001055_2014-06-08_18-45-35_260595134347_rgbf000111-resize_4-target.png,250,2.4290000000000003,1,2018,249,meters,jsons/v1_VE250_randls_52_rotated.json,602263,966752,24,Man
94,324625,DepthScenes,duration_manipulation_targetAtFixation,jsons/v1_VE250_randls_52_rotated.json,http://54.235.29.9/FacialAge/BNav_EC2/DepthDuration/v2_depth_duration_MTurk/v2_DepthDuration_HTML.html#26,26,1024,625,1024,768,8-20-2022,11-2-26,95,depth_duration_stimuli/000483_2014-06-09_20-41-45_260595134347_rgbf000116-resize_4/000483_2014-06-09_20-41-45_260595134347_rgbf000116-resize_4-target.png,250,1.337,1,2122,250,meters,jsons/v1_VE250_randls_52_rotated.json,602263,966752,24,Man
95,324625,DepthScenes,duration_manipulation_targetAtFixation,jsons/v1_VE250_randls_52_rotated.json,http://54.235.29.9/FacialAge/BNav_EC2/DepthDuration/v2_depth_duration_MTurk/v2_DepthDuration_HTML.html#26,26,1024,625,1024,768,8-20-2022,11-2-26,96,depth_duration_stimuli/000469_2014-06-09_19-42-10_260595134347_rgbf000081-resize_1/000469_2014-06-09_19-42-10_260595134347_rgbf000081-resize_1-target.png,250,1.652,1,1858,249,meters,jsons/v1_VE250_randls_52_rotated.json,602263,966752,24,Man
96,324625,DepthScenes,duration_manipulation_targetAtFixation,jsons/v1_VE250_randls_52_rotated.json,http://54.235.29.9/FacialAge/BNav_EC2/DepthDuration/v2_depth_duration_MTurk/v2_DepthDuration_HTML.html#26,26,1024,625,1024,768,8-20-2022,11-2-26,97,depth_duration_stimuli/003079_2014-06-15_15-18-20_094959634447_rgbf000152-resize_8/003079_2014-06-15_15-18-20_094959634447_rgbf000152-resize_8-target.png,250,2.8775,0,2147,248,meters,jsons/v1_VE250_randls_52_rotated.json,602263,966752,24,Man
97,324625,DepthScenes,duration_manipulation_targetAtFixation,jsons/v1_VE250_randls_52_rotated.json,http://54.235.29.9/FacialAge/BNav_EC2/DepthDuration/v2_depth_duration_MTurk/v2_DepthDuration_HTML.html#26,26,1024,625,1024,768,8-20-2022,11-2-26,98,depth_duration_stimuli/000506_2014-06-08_23-21-00_260595134347_rgbf000070-resize_7/000506_2014-06-08_23-21-00_260595134347_rgbf000070-resize_7-target.png,250,4.0585,1,2250,266,meters,jsons/v1_VE250_randls_52_rotated.json,602263,966752,24,Man
98,324625,DepthScenes,duration_manipulation_targetAtFixation,jsons/v1_VE250_randls_52_rotated.json,http://54.235.29.9/FacialAge/BNav_EC2/DepthDuration/v2_depth_duration_MTurk/v2_DepthDuration_HTML.html#26,26,1024,625,1024,768,8-20-2022,11-2-26,99,depth_duration_stimuli/001222_2014-06-17_16-24-06_260595134347_rgbf000073-resize_0/001222_2014-06-17_16-24-06_260595134347_rgbf000073-resize-original.jpg,250,1.4385,1,2569,250,meters,jsons/v1_VE250_randls_52_rotated.json,602263,966752,24,Man
99,324625,DepthScenes,duration_manipulation_targetAtFixation,jsons/v1_VE250_randls_52_rotated.json,http://54.235.29.9/FacialAge/BNav_EC2/DepthDuration/v2_depth_duration_MTurk/v2_DepthDuration_HTML.html#26,26,1024,625,1024,768,8-20-2022,11-2-26,100,depth_duration_stimuli/002875_2014-06-01_15-19-00_094959634447_rgbf000151-resize_1/002875_2014-06-01_15-19-00_094959634447_rgbf000151-resize_1-target.png,250,1.9675,1,2518,250,meters,jsons/v1_VE250_randls_52_rotated.json,602263,966752,24,Man
100,324625,DepthScenes,duration_manipulation_targetAtFixation,jsons/v1_VE250_randls_52_rotated.json,http://54.235.29.9/FacialAge/BNav_EC2/DepthDuration/v2_depth_duration_MTurk/v2_DepthDuration_HTML.html#26,26,1024,625,1024,768,8-20-2022,11-2-26,101,depth_duration_stimuli/001011_2014-06-08_23-18-54_260595134347_rgbf000044-resize_4/001011_2014-06-08_23-18-54_260595134347_rgbf000044-resize_4-target.png,250,2.4730000000000003,1,2128,248,meters,jsons/v1_VE250_randls_52_rotated.json,602263,966752,24,Man
101,324625,DepthScenes,duration_manipulation_targetAtFixation,jsons/v1_VE250_randls_52_rotated.json,http://54.235.29.9/FacialAge/BNav_EC2/DepthDuration/v2_depth_duration_MTurk/v2_DepthDuration_HTML.html#26,26,1024,625,1024,768,8-20-2022,11-2-26,102,depth_duration_stimuli/002637_2014-06-24_14-51-13_094959634447_rgbf000066-resize_4/002637_2014-06-24_14-51-13_094959634447_rgbf000066-resize_4-target.png,250,1.9955,1,2053,250,meters,jsons/v1_VE250_randls_52_rotated.json,602263,966752,24,Man
102,324625,DepthScenes,duration_manipulation_targetAtFixation,jsons/v1_VE250_randls_52_rotated.json,http://54.235.29.9/FacialAge/BNav_EC2/DepthDuration/v2_depth_duration_MTurk/v2_DepthDuration_HTML.html#26,26,1024,625,1024,768,8-20-2022,11-2-26,103,depth_duration_stimuli/003534_2014-05-22_15-06-10_094959634447_rgbf000102-resize_4/003534_2014-05-22_15-06-10_094959634447_rgbf000102-resize_4-target.png,250,1.426,1,7227,249,meters,jsons/v1_VE250_randls_52_rotated.json,602263,966752,24,Man
103,324625,DepthScenes,duration_manipulation_targetAtFixation,jsons/v1_VE250_randls_52_rotated.json,http://54.235.29.9/FacialAge/BNav_EC2/DepthDuration/v2_depth_duration_MTurk/v2_DepthDuration_HTML.html#26,26,1024,625,1024,768,8-20-2022,11-2-26,104,depth_duration_stimuli/000502_2014-06-08_23-02-32_260595134347_rgbf000063-resize_4/000502_2014-06-08_23-02-32_260595134347_rgbf000063-resize_4-target.png,250,2.431,1,2366,250,meters,jsons/v1_VE250_randls_52_rotated.json,602263,966752,24,Man
104,324625,DepthScenes,duration_manipulation_targetAtFixation,jsons/v1_VE250_randls_52_rotated.json,http://54.235.29.9/FacialAge/BNav_EC2/DepthDuration/v2_depth_duration_MTurk/v2_DepthDuration_HTML.html#26,26,1024,625,1024,768,8-20-2022,11-2-26,105,depth_duration_stimuli/001199_2014-06-17_16-03-48_260595134347_rgbf000077-resize_0/001199_2014-06-17_16-03-48_260595134347_rgbf000077-resize_0-target.png,250,3.4375,1,2651,249,meters,jsons/v1_VE250_randls_52_rotated.json,602263,966752,24,Man
105,324625,DepthScenes,duration_manipulation_targetAtFixation,jsons/v1_VE250_randls_52_rotated.json,http://54.235.29.9/FacialAge/BNav_EC2/DepthDuration/v2_depth_duration_MTurk/v2_DepthDuration_HTML.html#26,26,1024,625,1024,768,8-20-2022,11-2-26,106,depth_duration_stimuli/003083_2014-06-15_15-21-03_094959634447_rgbf000063-resize_1/003083_2014-06-15_15-21-03_094959634447_rgbf000063-resize_1-target.png,250,4.1405,1,1983,249,meters,jsons/v1_VE250_randls_52_rotated.json,602263,966752,24,Man
106,324625,DepthScenes,duration_manipulation_targetAtFixation,jsons/v1_VE250_randls_52_rotated.json,http://54.235.29.9/FacialAge/BNav_EC2/DepthDuration/v2_depth_duration_MTurk/v2_DepthDuration_HTML.html#26,26,1024,625,1024,768,8-20-2022,11-2-26,107,depth_duration_stimuli/000486_2014-06-09_20-47-20_260595134347_rgbf000143-resize_2/000486_2014-06-09_20-47-20_260595134347_rgbf000143-resize_2-target.png,250,4.8325,1,2170,249,meters,jsons/v1_VE250_randls_52_rotated.json,602263,966752,24,Man
107,324625,DepthScenes,duration_manipulation_targetAtFixation,jsons/v1_VE250_randls_52_rotated.json,http://54.235.29.9/FacialAge/BNav_EC2/DepthDuration/v2_depth_duration_MTurk/v2_DepthDuration_HTML.html#26,26,1024,625,1024,768,8-20-2022,11-2-26,108,depth_duration_stimuli/002805_2014-06-22_19-54-03_094959634447_rgbf000079-resize_1/002805_2014-06-22_19-54-03_094959634447_rgbf000079-resize_1-target.png,250,3.1439999999999997,1,1950,251,meters,jsons/v1_VE250_randls_52_rotated.json,602263,966752,24,Man
108,324625,DepthScenes,duration_manipulation_targetAtFixation,jsons/v1_VE250_randls_52_rotated.json,http://54.235.29.9/FacialAge/BNav_EC2/DepthDuration/v2_depth_duration_MTurk/v2_DepthDuration_HTML.html#26,26,1024,625,1024,768,8-20-2022,11-2-26,109,depth_duration_stimuli/000906_2014-06-08_13-35-43_260595134347_rgbf000155-resize_1/000906_2014-06-08_13-35-43_260595134347_rgbf000155-resize_1-target.png,250,2.8489999999999998,1,3106,249,meters,jsons/v1_VE250_randls_52_rotated.json,602263,966752,24,Man
109,324625,DepthScenes,duration_manipulation_targetAtFixation,jsons/v1_VE250_randls_52_rotated.json,http://54.235.29.9/FacialAge/BNav_EC2/DepthDuration/v2_depth_duration_MTurk/v2_DepthDuration_HTML.html#26,26,1024,625,1024,768,8-20-2022,11-2-26,110,depth_duration_stimuli/003338_2014-05-20_11-01-23_094959634447_rgbf000051-resize_6/003338_2014-05-20_11-01-23_094959634447_rgbf000051-resize_6-target.png,250,1.693,0,2466,241,meters,jsons/v1_VE250_randls_52_rotated.json,602263,966752,24,Man
110,324625,DepthScenes,duration_manipulation_targetAtFixation,jsons/v1_VE250_randls_52_rotated.json,http://54.235.29.9/FacialAge/BNav_EC2/DepthDuration/v2_depth_duration_MTurk/v2_DepthDuration_HTML.html#26,26,1024,625,1024,768,8-20-2022,11-2-26,111,depth_duration_stimuli/002509_2014-06-24_13-19-22_094959634447_rgbf000077-resize_0/002509_2014-06-24_13-19-22_094959634447_rgbf000077-resize_0-target.png,250,1.3065,1,1800,249,meters,jsons/v1_VE250_randls_52_rotated.json,602263,966752,24,Man
111,324625,DepthScenes,duration_manipulation_targetAtFixation,jsons/v1_VE250_randls_52_rotated.json,http://54.235.29.9/FacialAge/BNav_EC2/DepthDuration/v2_depth_duration_MTurk/v2_DepthDuration_HTML.html#26,26,1024,625,1024,768,8-20-2022,11-2-26,112,depth_duration_stimuli/002199_2014-06-28_18-33-56_260595134347_rgbf000074-resize_0/002199_2014-06-28_18-33-56_260595134347_rgbf000074-resize_0-target.png,250,1.996,0,2426,250,meters,jsons/v1_VE250_randls_52_rotated.json,602263,966752,24,Man
112,324625,DepthScenes,duration_manipulation_targetAtFixation,jsons/v1_VE250_randls_52_rotated.json,http://54.235.29.9/FacialAge/BNav_EC2/DepthDuration/v2_depth_duration_MTurk/v2_DepthDuration_HTML.html#26,26,1024,625,1024,768,8-20-2022,11-2-26,113,depth_duration_stimuli/001056_2014-06-08_18-46-44_260595134347_rgbf000068-resize_0/001056_2014-06-08_18-46-44_260595134347_rgbf000068-resize_0-target.png,250,2.6625,1,2025,249,meters,jsons/v1_VE250_randls_52_rotated.json,602263,966752,24,Man
113,324625,DepthScenes,duration_manipulation_targetAtFixation,jsons/v1_VE250_randls_52_rotated.json,http://54.235.29.9/FacialAge/BNav_EC2/DepthDuration/v2_depth_duration_MTurk/v2_DepthDuration_HTML.html#26,26,1024,625,1024,768,8-20-2022,11-2-26,114,depth_duration_stimuli/002444_2014-06-28_20-32-08_260595134347_rgbf000027-resize_0/002444_2014-06-28_20-32-08_260595134347_rgbf000027-resize_0-target.png,250,4.388999999999999,1,2188,250,meters,jsons/v1_VE250_randls_52_rotated.json,602263,966752,24,Man
114,324625,DepthScenes,duration_manipulation_targetAtFixation,jsons/v1_VE250_randls_52_rotated.json,http://54.235.29.9/FacialAge/BNav_EC2/DepthDuration/v2_depth_duration_MTurk/v2_DepthDuration_HTML.html#26,26,1024,625,1024,768,8-20-2022,11-2-26,115,depth_duration_stimuli/000436_2014-06-09_22-25-11_260595134347_rgbf000137-resize_1/000436_2014-06-09_22-25-11_260595134347_rgbf000137-resize_1-target.png,250,4.0705,1,1872,251,meters,jsons/v1_VE250_randls_52_rotated.json,602263,966752,24,Man
115,324625,DepthScenes,duration_manipulation_targetAtFixation,jsons/v1_VE250_randls_52_rotated.json,http://54.235.29.9/FacialAge/BNav_EC2/DepthDuration/v2_depth_duration_MTurk/v2_DepthDuration_HTML.html#26,26,1024,625,1024,768,8-20-2022,11-2-26,116,depth_duration_stimuli/000742_2014-06-08_18-48-09_260595134347_rgbf000164-resize_4/000742_2014-06-08_18-48-09_260595134347_rgbf000164-resize_4-target.png,250,4.632,1,1973,249,meters,jsons/v1_VE250_randls_52_rotated.json,602263,966752,24,Man
116,324625,DepthScenes,duration_manipulation_targetAtFixation,jsons/v1_VE250_randls_52_rotated.json,http://54.235.29.9/FacialAge/BNav_EC2/DepthDuration/v2_depth_duration_MTurk/v2_DepthDuration_HTML.html#26,26,1024,625,1024,768,8-20-2022,11-2-26,117,depth_duration_stimuli/001066_2014-06-08_22-03-20_260595134347_rgbf000066-resize_4/001066_2014-06-08_22-03-20_260595134347_rgbf000066-resize_4-target.png,250,4.2330000000000005,1,2628,244,meters,jsons/v1_VE250_randls_52_rotated.json,602263,966752,24,Man
117,324625,DepthScenes,duration_manipulation_targetAtFixation,jsons/v1_VE250_randls_52_rotated.json,http://54.235.29.9/FacialAge/BNav_EC2/DepthDuration/v2_depth_duration_MTurk/v2_DepthDuration_HTML.html#26,26,1024,625,1024,768,8-20-2022,11-2-26,118,depth_duration_stimuli/002414_2014-06-28_20-24-58_260595134347_rgbf000067-resize_4/002414_2014-06-28_20-24-58_260595134347_rgbf000067-resize_4-target.png,250,4.363,0,2643,249,meters,jsons/v1_VE250_randls_52_rotated.json,602263,966752,24,Man
118,324625,DepthScenes,duration_manipulation_targetAtFixation,jsons/v1_VE250_randls_52_rotated.json,http://54.235.29.9/FacialAge/BNav_EC2/DepthDuration/v2_depth_duration_MTurk/v2_DepthDuration_HTML.html#26,26,1024,625,1024,768,8-20-2022,11-2-26,119,depth_duration_stimuli/000773_2014-06-08_22-24-54_260595134347_rgbf000093-resize_1/000773_2014-06-08_22-24-54_260595134347_rgbf000093-resize_1-target.png,250,4.973,1,2171,246,meters,jsons/v1_VE250_randls_52_rotated.json,602263,966752,24,Man
119,324625,DepthScenes,duration_manipulation_targetAtFixation,jsons/v1_VE250_randls_52_rotated.json,http://54.235.29.9/FacialAge/BNav_EC2/DepthDuration/v2_depth_duration_MTurk/v2_DepthDuration_HTML.html#26,26,1024,625,1024,768,8-20-2022,11-2-26,120,depth_duration_stimuli/000787_2014-06-08_22-33-53_260595134347_rgbf000175-resize_1/000787_2014-06-08_22-33-53_260595134347_rgbf000175-resize-original.jpg,250,4.784,1,3291,249,meters,jsons/v1_VE250_randls_52_rotated.json,602263,966752,24,Man
120,324625,DepthScenes,duration_manipulation_targetAtFixation,jsons/v1_VE250_randls_52_rotated.json,http://54.235.29.9/FacialAge/BNav_EC2/DepthDuration/v2_depth_duration_MTurk/v2_DepthDuration_HTML.html#26,26,1024,625,1024,768,8-20-2022,11-2-26,121,depth_duration_stimuli/003081_2014-06-15_15-19-16_094959634447_rgbf000150-resize_1/003081_2014-06-15_15-19-16_094959634447_rgbf000150-resize_1-target.png,250,3.9125,1,2225,246,meters,jsons/v1_VE250_randls_52_rotated.json,602263,966752,24,Man
121,324625,DepthScenes,duration_manipulation_targetAtFixation,jsons/v1_VE250_randls_52_rotated.json,http://54.235.29.9/FacialAge/BNav_EC2/DepthDuration/v2_depth_duration_MTurk/v2_DepthDuration_HTML.html#26,26,1024,625,1024,768,8-20-2022,11-2-26,122,depth_duration_stimuli/001417_2014-06-19_16-25-36_260595134347_rgbf000115-resize_5/001417_2014-06-19_16-25-36_260595134347_rgbf000115-resize_5-target.png,250,4.6255,1,2004,250,meters,jsons/v1_VE250_randls_52_rotated.json,602263,966752,24,Man
122,324625,DepthScenes,duration_manipulation_targetAtFixation,jsons/v1_VE250_randls_52_rotated.json,http://54.235.29.9/FacialAge/BNav_EC2/DepthDuration/v2_depth_duration_MTurk/v2_DepthDuration_HTML.html#26,26,1024,625,1024,768,8-20-2022,11-2-26,123,depth_duration_stimuli/002568_2014-06-24_13-59-21_094959634447_rgbf000062-resize_4/002568_2014-06-24_13-59-21_094959634447_rgbf000062-resize_4-target.png,250,3.015,1,1862,258,meters,jsons/v1_VE250_randls_52_rotated.json,602263,966752,24,Man
123,324625,DepthScenes,duration_manipulation_targetAtFixation,jsons/v1_VE250_randls_52_rotated.json,http://54.235.29.9/FacialAge/BNav_EC2/DepthDuration/v2_depth_duration_MTurk/v2_DepthDuration_HTML.html#26,26,1024,625,1024,768,8-20-2022,11-2-26,124,depth_duration_stimuli/003492_2014-05-21_15-50-55_094959634447_rgbf000828-resize_1/003492_2014-05-21_15-50-55_094959634447_rgbf000828-resize_1-target.png,250,4.06875,1,2145,249,meters,jsons/v1_VE250_randls_52_rotated.json,602263,966752,24,Man
124,324625,DepthScenes,duration_manipulation_targetAtFixation,jsons/v1_VE250_randls_52_rotated.json,http://54.235.29.9/FacialAge/BNav_EC2/DepthDuration/v2_depth_duration_MTurk/v2_DepthDuration_HTML.html#26,26,1024,625,1024,768,8-20-2022,11-2-26,125,depth_duration_stimuli/002323_2014-06-28_20-01-54_260595134347_rgbf000051-resize_4/002323_2014-06-28_20-01-54_260595134347_rgbf000051-resize_4-target.png,250,3.7310000000000003,1,2137,251,meters,jsons/v1_VE250_randls_52_rotated.json,602263,966752,24,Man
125,324625,DepthScenes,duration_manipulation_targetAtFixation,jsons/v1_VE250_randls_52_rotated.json,http://54.235.29.9/FacialAge/BNav_EC2/DepthDuration/v2_depth_duration_MTurk/v2_DepthDuration_HTML.html#26,26,1024,625,1024,768,8-20-2022,11-2-26,126,depth_duration_stimuli/000917_2014-06-09_22-45-29_260595134347_rgbf000149-resize_3/000917_2014-06-09_22-45-29_260595134347_rgbf000149-resize_3-target.png,250,4.1865,1,1921,249,meters,jsons/v1_VE250_randls_52_rotated.json,602263,966752,24,Man
126,324625,DepthScenes,duration_manipulation_targetAtFixation,jsons/v1_VE250_randls_52_rotated.json,http://54.235.29.9/FacialAge/BNav_EC2/DepthDuration/v2_depth_duration_MTurk/v2_DepthDuration_HTML.html#26,26,1024,625,1024,768,8-20-2022,11-2-26,127,depth_duration_stimuli/001214_2014-06-17_16-13-55_260595134347_rgbf000111-resize_0/001214_2014-06-17_16-13-55_260595134347_rgbf000111-resize_0-target.png,250,2.6505,1,2083,250,meters,jsons/v1_VE250_randls_52_rotated.json,602263,966752,24,Man
127,324625,DepthScenes,duration_manipulation_targetAtFixation,jsons/v1_VE250_randls_52_rotated.json,http://54.235.29.9/FacialAge/BNav_EC2/DepthDuration/v2_depth_duration_MTurk/v2_DepthDuration_HTML.html#26,26,1024,625,1024,768,8-20-2022,11-2-26,128,depth_duration_stimuli/000810_2014-06-08_17-20-01_260595134347_rgbf000105-resize_0/000810_2014-06-08_17-20-01_260595134347_rgbf000105-resize_0-target.png,250,1.4865,1,3070,247,meters,jsons/v1_VE250_randls_52_rotated.json,602263,966752,24,Man
128,324625,DepthScenes,duration_manipulation_targetAtFixation,jsons/v1_VE250_randls_52_rotated.json,http://54.235.29.9/FacialAge/BNav_EC2/DepthDuration/v2_depth_duration_MTurk/v2_DepthDuration_HTML.html#26,26,1024,625,1024,768,8-20-2022,11-2-26,129,depth_duration_stimuli/000677_2014-06-08_23-10-32_260595134347_rgbf000158-resize_6/000677_2014-06-08_23-10-32_260595134347_rgbf000158-resize_6-target.png,250,3.556,1,2143,250,meters,jsons/v1_VE250_randls_52_rotated.json,602263,966752,24,Man
129,324625,DepthScenes,duration_manipulation_targetAtFixation,jsons/v1_VE250_randls_52_rotated.json,http://54.235.29.9/FacialAge/BNav_EC2/DepthDuration/v2_depth_duration_MTurk/v2_DepthDuration_HTML.html#26,26,1024,625,1024,768,8-20-2022,11-2-26,130,depth_duration_stimuli/001029_2014-06-08_13-17-57_260595134347_rgbf000065-resize_1/001029_2014-06-08_13-17-57_260595134347_rgbf000065-resize_1-target.png,250,3.0835,1,1860,221,meters,jsons/v1_VE250_randls_52_rotated.json,602263,966752,24,Man
130,324625,DepthScenes,duration_manipulation_targetAtFixation,jsons/v1_VE250_randls_52_rotated.json,http://54.235.29.9/FacialAge/BNav_EC2/DepthDuration/v2_depth_duration_MTurk/v2_DepthDuration_HTML.html#26,26,1024,625,1024,768,8-20-2022,11-2-26,131,depth_duration_stimuli/001584_2014-06-20_11-07-43_260595134347_rgbf000002-resize_1/001584_2014-06-20_11-07-43_260595134347_rgbf000002-resize_1-target.png,250,3.53,1,2138,249,meters,jsons/v1_VE250_randls_52_rotated.json,602263,966752,24,Man
131,324625,DepthScenes,duration_manipulation_targetAtFixation,jsons/v1_VE250_randls_52_rotated.json,http://54.235.29.9/FacialAge/BNav_EC2/DepthDuration/v2_depth_duration_MTurk/v2_DepthDuration_HTML.html#26,26,1024,625,1024,768,8-20-2022,11-2-26,132,depth_duration_stimuli/003621_2014-05-23_18-06-08_094959634447_rgbf000101-resize_1/003621_2014-05-23_18-06-08_094959634447_rgbf000101-resize_1-target.png,250,3.9835,1,1886,249,meters,jsons/v1_VE250_randls_52_rotated.json,602263,966752,24,Man
132,324625,DepthScenes,duration_manipulation_targetAtFixation,jsons/v1_VE250_randls_52_rotated.json,http://54.235.29.9/FacialAge/BNav_EC2/DepthDuration/v2_depth_duration_MTurk/v2_DepthDuration_HTML.html#26,26,1024,625,1024,768,8-20-2022,11-2-26,133,depth_duration_stimuli/002340_2014-06-28_20-05-46_260595134347_rgbf000113-resize_0/002340_2014-06-28_20-05-46_260595134347_rgbf000113-resize_0-target.png,250,2.4735,1,1913,250,meters,jsons/v1_VE250_randls_52_rotated.json,602263,966752,24,Man
133,324625,DepthScenes,duration_manipulation_targetAtFixation,jsons/v1_VE250_randls_52_rotated.json,http://54.235.29.9/FacialAge/BNav_EC2/DepthDuration/v2_depth_duration_MTurk/v2_DepthDuration_HTML.html#26,26,1024,625,1024,768,8-20-2022,11-2-26,134,depth_duration_stimuli/001016_2014-06-09_16-16-10_260595134347_rgbf000112-resize_5/001016_2014-06-09_16-16-10_260595134347_rgbf000112-resize_5-target.png,250,1.6565,1,3939,264,meters,jsons/v1_VE250_randls_52_rotated.json,602263,966752,24,Man
134,324625,DepthScenes,duration_manipulation_targetAtFixation,jsons/v1_VE250_randls_52_rotated.json,http://54.235.29.9/FacialAge/BNav_EC2/DepthDuration/v2_depth_duration_MTurk/v2_DepthDuration_HTML.html#26,26,1024,625,1024,768,8-20-2022,11-2-26,135,depth_duration_stimuli/000375_2014-06-08_11-17-29_260595134347_rgbf000133-resize_2/000375_2014-06-08_11-17-29_260595134347_rgbf000133-resize-original.jpg,250,4.718,0,2562,251,meters,jsons/v1_VE250_randls_52_rotated.json,602263,966752,24,Man
135,324625,DepthScenes,duration_manipulation_targetAtFixation,jsons/v1_VE250_randls_52_rotated.json,http://54.235.29.9/FacialAge/BNav_EC2/DepthDuration/v2_depth_duration_MTurk/v2_DepthDuration_HTML.html#26,26,1024,625,1024,768,8-20-2022,11-2-26,136,depth_duration_stimuli/003048_2014-06-15_13-49-43_094959634447_rgbf000150-resize_1/003048_2014-06-15_13-49-43_094959634447_rgbf000150-resize_1-target.png,250,4.0035,1,1984,256,meters,jsons/v1_VE250_randls_52_rotated.json,602263,966752,24,Man
136,324625,DepthScenes,duration_manipulation_targetAtFixation,jsons/v1_VE250_randls_52_rotated.json,http://54.235.29.9/FacialAge/BNav_EC2/DepthDuration/v2_depth_duration_MTurk/v2_DepthDuration_HTML.html#26,26,1024,625,1024,768,8-20-2022,11-2-26,137,depth_duration_stimuli/002043_2014-06-24_20-29-38_260595134347_rgbf000039-resize_4/002043_2014-06-24_20-29-38_260595134347_rgbf000039-resize_4-target.png,250,2.8435,1,3009,249,meters,jsons/v1_VE250_randls_52_rotated.json,602263,966752,24,Man
137,324625,DepthScenes,duration_manipulation_targetAtFixation,jsons/v1_VE250_randls_52_rotated.json,http://54.235.29.9/FacialAge/BNav_EC2/DepthDuration/v2_depth_duration_MTurk/v2_DepthDuration_HTML.html#26,26,1024,625,1024,768,8-20-2022,11-2-26,138,depth_duration_stimuli/003129_2014-05-12_10-48-10_094959634447_rgbf000100-resize_0/003129_2014-05-12_10-48-10_094959634447_rgbf000100-resize_0-target.png,250,4.9305,0,3804,249,meters,jsons/v1_VE250_randls_52_rotated.json,602263,966752,24,Man
138,324625,DepthScenes,duration_manipulation_targetAtFixation,jsons/v1_VE250_randls_52_rotated.json,http://54.235.29.9/FacialAge/BNav_EC2/DepthDuration/v2_depth_duration_MTurk/v2_DepthDuration_HTML.html#26,26,1024,625,1024,768,8-20-2022,11-2-26,139,depth_duration_stimuli/000414_2014-06-04_19-49-13_260595134347_rgbf000044-resize_0/000414_2014-06-04_19-49-13_260595134347_rgbf000044-resize_0-target.png,250,4.329,1,2465,247,meters,jsons/v1_VE250_randls_52_rotated.json,602263,966752,24,Man
139,324625,DepthScenes,duration_manipulation_targetAtFixation,jsons/v1_VE250_randls_52_rotated.json,http://54.235.29.9/FacialAge/BNav_EC2/DepthDuration/v2_depth_duration_MTurk/v2_DepthDuration_HTML.html#26,26,1024,625,1024,768,8-20-2022,11-2-26,140,depth_duration_stimuli/000691_2014-06-08_13-08-50_260595134347_rgbf000132-resize_3/000691_2014-06-08_13-08-50_260595134347_rgbf000132-resize_3-target.png,250,4.1530000000000005,1,2445,249,meters,jsons/v1_VE250_randls_52_rotated.json,602263,966752,24,Man
140,324625,DepthScenes,duration_manipulation_targetAtFixation,jsons/v1_VE250_randls_52_rotated.json,http://54.235.29.9/FacialAge/BNav_EC2/DepthDuration/v2_depth_duration_MTurk/v2_DepthDuration_HTML.html#26,26,1024,625,1024,768,8-20-2022,11-2-26,141,depth_duration_stimuli/002213_2014-06-28_18-37-58_260595134347_rgbf000055-resize_1/002213_2014-06-28_18-37-58_260595134347_rgbf000055-resize_1-target.png,250,3.62,1,2180,250,meters,jsons/v1_VE250_randls_52_rotated.json,602263,966752,24,Man
141,324625,DepthScenes,duration_manipulation_targetAtFixation,jsons/v1_VE250_randls_52_rotated.json,http://54.235.29.9/FacialAge/BNav_EC2/DepthDuration/v2_depth_duration_MTurk/v2_DepthDuration_HTML.html#26,26,1024,625,1024,768,8-20-2022,11-2-26,142,depth_duration_stimuli/000780_2014-06-08_22-28-29_260595134347_rgbf000126-resize_1/000780_2014-06-08_22-28-29_260595134347_rgbf000126-resize_1-target.png,250,3.3825,1,2262,245,meters,jsons/v1_VE250_randls_52_rotated.json,602263,966752,24,Man
142,324625,DepthScenes,duration_manipulation_targetAtFixation,jsons/v1_VE250_randls_52_rotated.json,http://54.235.29.9/FacialAge/BNav_EC2/DepthDuration/v2_depth_duration_MTurk/v2_DepthDuration_HTML.html#26,26,1024,625,1024,768,8-20-2022,11-2-26,143,depth_duration_stimuli/002445_2014-06-28_20-32-16_260595134347_rgbf000029-resize_4/002445_2014-06-28_20-32-16_260595134347_rgbf000029-resize_4-target.png,250,2.5315,1,1989,246,meters,jsons/v1_VE250_randls_52_rotated.json,602263,966752,24,Man
143,324625,DepthScenes,duration_manipulation_targetAtFixation,jsons/v1_VE250_randls_52_rotated.json,http://54.235.29.9/FacialAge/BNav_EC2/DepthDuration/v2_depth_duration_MTurk/v2_DepthDuration_HTML.html#26,26,1024,625,1024,768,8-20-2022,11-2-26,144,depth_duration_stimuli/001136_2014-06-17_15-19-41_260595134347_rgbf000076-resize_3/001136_2014-06-17_15-19-41_260595134347_rgbf000076-resize_3-target.png,250,1.8655,1,2003,244,meters,jsons/v1_VE250_randls_52_rotated.json,602263,966752,24,Man
144,324625,DepthScenes,duration_manipulation_targetAtFixation,jsons/v1_VE250_randls_52_rotated.json,http://54.235.29.9/FacialAge/BNav_EC2/DepthDuration/v2_depth_duration_MTurk/v2_DepthDuration_HTML.html#26,26,1024,625,1024,768,8-20-2022,11-2-26,145,depth_duration_stimuli/001164_2014-06-17_15-35-46_260595134347_rgbf000085-resize_3/001164_2014-06-17_15-35-46_260595134347_rgbf000085-resize_3-target.png,250,2.354,1,1889,247,meters,jsons/v1_VE250_randls_52_rotated.json,602263,966752,24,Man
145,324625,DepthScenes,duration_manipulation_targetAtFixation,jsons/v1_VE250_randls_52_rotated.json,http://54.235.29.9/FacialAge/BNav_EC2/DepthDuration/v2_depth_duration_MTurk/v2_DepthDuration_HTML.html#26,26,1024,625,1024,768,8-20-2022,11-2-26,146,depth_duration_stimuli/003228_2014-05-14_13-42-35_094959634447_rgbf000101-resize_1/003228_2014-05-14_13-42-35_094959634447_rgbf000101-resize_1-target.png,250,1.9680000000000002,1,2388,249,meters,jsons/v1_VE250_randls_52_rotated.json,602263,966752,24,Man
146,324625,DepthScenes,duration_manipulation_targetAtFixation,jsons/v1_VE250_randls_52_rotated.json,http://54.235.29.9/FacialAge/BNav_EC2/DepthDuration/v2_depth_duration_MTurk/v2_DepthDuration_HTML.html#26,26,1024,625,1024,768,8-20-2022,11-2-26,147,depth_duration_stimuli/002600_2014-06-24_14-27-04_094959634447_rgbf000074-resize_2/002600_2014-06-24_14-27-04_094959634447_rgbf000074-resize_2-target.png,250,2.7575,1,1868,249,meters,jsons/v1_VE250_randls_52_rotated.json,602263,966752,24,Man
147,324625,DepthScenes,duration_manipulation_targetAtFixation,jsons/v1_VE250_randls_52_rotated.json,http://54.235.29.9/FacialAge/BNav_EC2/DepthDuration/v2_depth_duration_MTurk/v2_DepthDuration_HTML.html#26,26,1024,625,1024,768,8-20-2022,11-2-26,148,depth_duration_stimuli/002660_2014-06-13_15-44-18_094959634447_rgbf001878-resize_2/002660_2014-06-13_15-44-18_094959634447_rgbf001878-resize_2-target.png,250,3.576,1,2795,249,meters,jsons/v1_VE250_randls_52_rotated.json,602263,966752,24,Man
148,324625,DepthScenes,duration_manipulation_targetAtFixation,jsons/v1_VE250_randls_52_rotated.json,http://54.235.29.9/FacialAge/BNav_EC2/DepthDuration/v2_depth_duration_MTurk/v2_DepthDuration_HTML.html#26,26,1024,625,1024,768,8-20-2022,11-2-26,149,depth_duration_stimuli/002153_2014-06-25_21-27-18_260595134347_rgbf000038-resize_5/002153_2014-06-25_21-27-18_260595134347_rgbf000038-resize_5-target.png,250,2.505,1,2318,250,meters,jsons/v1_VE250_randls_52_rotated.json,602263,966752,24,Man
149,324625,DepthScenes,duration_manipulation_targetAtFixation,jsons/v1_VE250_randls_52_rotated.json,http://54.235.29.9/FacialAge/BNav_EC2/DepthDuration/v2_depth_duration_MTurk/v2_DepthDuration_HTML.html#26,26,1024,625,1024,768,8-20-2022,11-2-26,150,depth_duration_stimuli/001235_2014-06-17_16-37-36_260595134347_rgbf000084-resize_4/001235_2014-06-17_16-37-36_260595134347_rgbf000084-resize_4-target.png,250,3.6605,1,2048,247,meters,jsons/v1_VE250_randls_52_rotated.json,602263,966752,24,Man
150,324625,DepthScenes,duration_manipulation_targetAtFixation,jsons/v1_VE250_randls_52_rotated.json,http://54.235.29.9/FacialAge/BNav_EC2/DepthDuration/v2_depth_duration_MTurk/v2_DepthDuration_HTML.html#26,26,1024,625,1024,768,8-20-2022,11-2-26,151,depth_duration_stimuli/000788_2014-06-08_22-34-36_260595134347_rgbf000131-resize_1/000788_2014-06-08_22-34-36_260595134347_rgbf000131-resize_1-target.png,250,3.359,1,2397,264,meters,jsons/v1_VE250_randls_52_rotated.json,602263,966752,24,Man
151,324625,DepthScenes,duration_manipulation_targetAtFixation,jsons/v1_VE250_randls_52_rotated.json,http://54.235.29.9/FacialAge/BNav_EC2/DepthDuration/v2_depth_duration_MTurk/v2_DepthDuration_HTML.html#26,26,1024,625,1024,768,8-20-2022,11-2-26,152,depth_duration_stimuli/000569_2014-06-09_22-51-47_260595134347_rgbf000141-resize_3/000569_2014-06-09_22-51-47_260595134347_rgbf000141-resize-original.jpg,250,4.512,0,2562,250,meters,jsons/v1_VE250_randls_52_rotated.json,602263,966752,24,Man
152,324625,DepthScenes,duration_manipulation_targetAtFixation,jsons/v1_VE250_randls_52_rotated.json,http://54.235.29.9/FacialAge/BNav_EC2/DepthDuration/v2_depth_duration_MTurk/v2_DepthDuration_HTML.html#26,26,1024,625,1024,768,8-20-2022,11-2-26,153,depth_duration_stimuli/001617_2014-06-20_11-35-32_260595134347_rgbf000066-resize_1/001617_2014-06-20_11-35-32_260595134347_rgbf000066-resize_1-target.png,250,3.7910000000000004,1,1869,249,meters,jsons/v1_VE250_randls_52_rotated.json,602263,966752,24,Man
153,324625,DepthScenes,duration_manipulation_targetAtFixation,jsons/v1_VE250_randls_52_rotated.json,http://54.235.29.9/FacialAge/BNav_EC2/DepthDuration/v2_depth_duration_MTurk/v2_DepthDuration_HTML.html#26,26,1024,625,1024,768,8-20-2022,11-2-26,154,depth_duration_stimuli/001806_2014-06-26_20-50-20_260595134347_rgbf000091-resize_1/001806_2014-06-26_20-50-20_260595134347_rgbf000091-resize_1-target.png,250,2.7305,1,1805,249,meters,jsons/v1_VE250_randls_52_rotated.json,602263,966752,24,Man
154,324625,DepthScenes,duration_manipulation_targetAtFixation,jsons/v1_VE250_randls_52_rotated.json,http://54.235.29.9/FacialAge/BNav_EC2/DepthDuration/v2_depth_duration_MTurk/v2_DepthDuration_HTML.html#26,26,1024,625,1024,768,8-20-2022,11-2-26,155,depth_duration_stimuli/002953_2014-06-08_17-32-18_094959634447_rgbf000059-resize_5/002953_2014-06-08_17-32-18_094959634447_rgbf000059-resize_5-target.png,250,1.551,1,10566,249,meters,jsons/v1_VE250_randls_52_rotated.json,602263,966752,24,Man
155,324625,DepthScenes,duration_manipulation_targetAtFixation,jsons/v1_VE250_randls_52_rotated.json,http://54.235.29.9/FacialAge/BNav_EC2/DepthDuration/v2_depth_duration_MTurk/v2_DepthDuration_HTML.html#26,26,1024,625,1024,768,8-20-2022,11-2-26,156,depth_duration_stimuli/000878_2014-06-08_22-52-45_260595134347_rgbf000045-resize_2/000878_2014-06-08_22-52-45_260595134347_rgbf000045-resize_2-target.png,250,2.092,1,3377,247,meters,jsons/v1_VE250_randls_52_rotated.json,602263,966752,24,Man
156,324625,DepthScenes,duration_manipulation_targetAtFixation,jsons/v1_VE250_randls_52_rotated.json,http://54.235.29.9/FacialAge/BNav_EC2/DepthDuration/v2_depth_duration_MTurk/v2_DepthDuration_HTML.html#26,26,1024,625,1024,768,8-20-2022,11-2-26,157,depth_duration_stimuli/000854_2014-06-09_19-43-13_260595134347_rgbf000066-resize_0/000854_2014-06-09_19-43-13_260595134347_rgbf000066-resize_0-target.png,250,3.068,1,2074,249,meters,jsons/v1_VE250_randls_52_rotated.json,602263,966752,24,Man
157,324625,DepthScenes,duration_manipulation_targetAtFixation,jsons/v1_VE250_randls_52_rotated.json,http://54.235.29.9/FacialAge/BNav_EC2/DepthDuration/v2_depth_duration_MTurk/v2_DepthDuration_HTML.html#26,26,1024,625,1024,768,8-20-2022,11-2-26,158,depth_duration_stimuli/000758_2014-06-08_22-05-08_260595134347_rgbf000085-resize_0/000758_2014-06-08_22-05-08_260595134347_rgbf000085-resize_0-target.png,250,3.3810000000000002,1,1971,249,meters,jsons/v1_VE250_randls_52_rotated.json,602263,966752,24,Man
158,324625,DepthScenes,duration_manipulation_targetAtFixation,jsons/v1_VE250_randls_52_rotated.json,http://54.235.29.9/FacialAge/BNav_EC2/DepthDuration/v2_depth_duration_MTurk/v2_DepthDuration_HTML.html#26,26,1024,625,1024,768,8-20-2022,11-2-26,159,depth_duration_stimuli/002750_2014-06-22_19-08-03_094959634447_rgbf000094-resize_4/002750_2014-06-22_19-08-03_094959634447_rgbf000094-resize_4-target.png,250,2.354,1,2060,54,meters,jsons/v1_VE250_randls_52_rotated.json,602263,966752,24,Man
159,324625,DepthScenes,duration_manipulation_targetAtFixation,jsons/v1_VE250_randls_52_rotated.json,http://54.235.29.9/FacialAge/BNav_EC2/DepthDuration/v2_depth_duration_MTurk/v2_DepthDuration_HTML.html#26,26,1024,625,1024,768,8-20-2022,11-2-26,160,depth_duration_stimuli/002549_2014-06-24_13-41-39_094959634447_rgbf000022-resize_3/002549_2014-06-24_13-41-39_094959634447_rgbf000022-resize_3-target.png,250,1.476,1,2274,250,meters,jsons/v1_VE250_randls_52_rotated.json,602263,966752,24,Man
160,324625,DepthScenes,duration_manipulation_targetAtFixation,jsons/v1_VE250_randls_52_rotated.json,http://54.235.29.9/FacialAge/BNav_EC2/DepthDuration/v2_depth_duration_MTurk/v2_DepthDuration_HTML.html#26,26,1024,625,1024,768,8-20-2022,11-2-26,161,depth_duration_stimuli/000457_2014-06-08_16-52-43_260595134347_rgbf000199-resize_1/000457_2014-06-08_16-52-43_260595134347_rgbf000199-resize_1-target.png,250,3.6489999999999996,1,2060,250,meters,jsons/v1_VE250_randls_52_rotated.json,602263,966752,24,Man
161,324625,DepthScenes,duration_manipulation_targetAtFixation,jsons/v1_VE250_randls_52_rotated.json,http://54.235.29.9/FacialAge/BNav_EC2/DepthDuration/v2_depth_duration_MTurk/v2_DepthDuration_HTML.html#26,26,1024,625,1024,768,8-20-2022,11-2-26,162,depth_duration_stimuli/000929_2014-06-09_16-33-19_260595134347_rgbf000139-resize_0/000929_2014-06-09_16-33-19_260595134347_rgbf000139-resize_0-target.png,250,2.8680000000000003,1,1776,293,meters,jsons/v1_VE250_randls_52_rotated.json,602263,966752,24,Man
162,324625,DepthScenes,duration_manipulation_targetAtFixation,jsons/v1_VE250_randls_52_rotated.json,http://54.235.29.9/FacialAge/BNav_EC2/DepthDuration/v2_depth_duration_MTurk/v2_DepthDuration_HTML.html#26,26,1024,625,1024,768,8-20-2022,11-2-26,163,depth_duration_stimuli/001100_2014-06-15_17-46-26_260595134347_rgbf000225-resize_2/001100_2014-06-15_17-46-26_260595134347_rgbf000225-resize_2-target.png,250,2.24,1,3316,250,meters,jsons/v1_VE250_randls_52_rotated.json,602263,966752,24,Man
163,324625,DepthScenes,duration_manipulation_targetAtFixation,jsons/v1_VE250_randls_52_rotated.json,http://54.235.29.9/FacialAge/BNav_EC2/DepthDuration/v2_depth_duration_MTurk/v2_DepthDuration_HTML.html#26,26,1024,625,1024,768,8-20-2022,11-2-26,164,depth_duration_stimuli/002784_2014-06-22_19-26-30_094959634447_rgbf000083-resize_3/002784_2014-06-22_19-26-30_094959634447_rgbf000083-resize_3-target.png,250,1.8046666666667,1,2125,247,meters,jsons/v1_VE250_randls_52_rotated.json,602263,966752,24,Man
