,subjID,experimentName,versionName,sequenceName,url,selected_row,windowWidth,windowHeight,screenWidth,screenHeight,startDate,startTime,trial,stimulus,duration,actual_depth,depth_estimate,trial_RT,log_sceneDuration,unitSelection,seq_filepath,experimentTime,totalTime,age,gender
0,326049,DepthScenes,duration_manipulation_targetAtFixation,jsons/v1_VE1000_randls_48.json,http://54.235.29.9/FacialAge/BNav_EC2/DepthDuration/v2_depth_duration_MTurk/v2_DepthDuration_HTML.html#81,81,1366,768,1366,768,8-22-2022,8-5-40,1,depth_duration_stimuli/001417_2014-06-19_16-25-36_260595134347_rgbf000115-resize_5/001417_2014-06-19_16-25-36_260595134347_rgbf000115-resize_5-target.png,1000,4.6255,2,4792,1049,meters,jsons/v1_VE1000_randls_48.json,1218273,1375201,48,Man
1,326049,DepthScenes,duration_manipulation_targetAtFixation,jsons/v1_VE1000_randls_48.json,http://54.235.29.9/FacialAge/BNav_EC2/DepthDuration/v2_depth_duration_MTurk/v2_DepthDuration_HTML.html#81,81,1366,768,1366,768,8-22-2022,8-5-40,2,depth_duration_stimuli/003081_2014-06-15_15-19-16_094959634447_rgbf000150-resize_1/003081_2014-06-15_15-19-16_094959634447_rgbf000150-resize_1-target.png,1000,3.9125,3,4067,991,meters,jsons/v1_VE1000_randls_48.json,1218273,1375201,48,Man
2,326049,DepthScenes,duration_manipulation_targetAtFixation,jsons/v1_VE1000_randls_48.json,http://54.235.29.9/FacialAge/BNav_EC2/DepthDuration/v2_depth_duration_MTurk/v2_DepthDuration_HTML.html#81,81,1366,768,1366,768,8-22-2022,8-5-40,3,depth_duration_stimuli/001555_2014-06-20_17-12-10_260595134347_rgbf000065-resize_4/001555_2014-06-20_17-12-10_260595134347_rgbf000065-resize_4-target.png,1000,1.633,21,5596,992,meters,jsons/v1_VE1000_randls_48.json,1218273,1375201,48,Man
3,326049,DepthScenes,duration_manipulation_targetAtFixation,jsons/v1_VE1000_randls_48.json,http://54.235.29.9/FacialAge/BNav_EC2/DepthDuration/v2_depth_duration_MTurk/v2_DepthDuration_HTML.html#81,81,1366,768,1366,768,8-22-2022,8-5-40,4,depth_duration_stimuli/000103_2014-05-14_22-01-17_260595134347_rgbf000152-resize_5/000103_2014-05-14_22-01-17_260595134347_rgbf000152-resize_5-target.png,1000,1.993,15,4356,1130,meters,jsons/v1_VE1000_randls_48.json,1218273,1375201,48,Man
4,326049,DepthScenes,duration_manipulation_targetAtFixation,jsons/v1_VE1000_randls_48.json,http://54.235.29.9/FacialAge/BNav_EC2/DepthDuration/v2_depth_duration_MTurk/v2_DepthDuration_HTML.html#81,81,1366,768,1366,768,8-22-2022,8-5-40,5,depth_duration_stimuli/000414_2014-06-04_19-49-13_260595134347_rgbf000044-resize_0/000414_2014-06-04_19-49-13_260595134347_rgbf000044-resize_0-target.png,1000,4.329,10,5566,1007,meters,jsons/v1_VE1000_randls_48.json,1218273,1375201,48,Man
5,326049,DepthScenes,duration_manipulation_targetAtFixation,jsons/v1_VE1000_randls_48.json,http://54.235.29.9/FacialAge/BNav_EC2/DepthDuration/v2_depth_duration_MTurk/v2_DepthDuration_HTML.html#81,81,1366,768,1366,768,8-22-2022,8-5-40,6,depth_duration_stimuli/003129_2014-05-12_10-48-10_094959634447_rgbf000100-resize_0/003129_2014-05-12_10-48-10_094959634447_rgbf000100-resize_0-target.png,1000,4.9305,15,4399,1003,meters,jsons/v1_VE1000_randls_48.json,1218273,1375201,48,Man
6,326049,DepthScenes,duration_manipulation_targetAtFixation,jsons/v1_VE1000_randls_48.json,http://54.235.29.9/FacialAge/BNav_EC2/DepthDuration/v2_depth_duration_MTurk/v2_DepthDuration_HTML.html#81,81,1366,768,1366,768,8-22-2022,8-5-40,7,depth_duration_stimuli/002663_2014-06-13_15-50-26_094959634447_rgbf000075-resize_1/002663_2014-06-13_15-50-26_094959634447_rgbf000075-resize_1-target.png,1000,4.7495,16,4562,989,meters,jsons/v1_VE1000_randls_48.json,1218273,1375201,48,Man
7,326049,DepthScenes,duration_manipulation_targetAtFixation,jsons/v1_VE1000_randls_48.json,http://54.235.29.9/FacialAge/BNav_EC2/DepthDuration/v2_depth_duration_MTurk/v2_DepthDuration_HTML.html#81,81,1366,768,1366,768,8-22-2022,8-5-40,8,depth_duration_stimuli/000409_2014-06-04_19-23-33_260595134347_rgbf000067-resize_0/000409_2014-06-04_19-23-33_260595134347_rgbf000067-resize_0-target.png,1000,3.7335,17,4556,978,meters,jsons/v1_VE1000_randls_48.json,1218273,1375201,48,Man
8,326049,DepthScenes,duration_manipulation_targetAtFixation,jsons/v1_VE1000_randls_48.json,http://54.235.29.9/FacialAge/BNav_EC2/DepthDuration/v2_depth_duration_MTurk/v2_DepthDuration_HTML.html#81,81,1366,768,1366,768,8-22-2022,8-5-40,9,depth_duration_stimuli/002725_2014-06-22_11-47-51_094959634447_rgbf000070-resize_1/002725_2014-06-22_11-47-51_094959634447_rgbf000070-resize_1-target.png,1000,2.195,20,5229,998,meters,jsons/v1_VE1000_randls_48.json,1218273,1375201,48,Man
9,326049,DepthScenes,duration_manipulation_targetAtFixation,jsons/v1_VE1000_randls_48.json,http://54.235.29.9/FacialAge/BNav_EC2/DepthDuration/v2_depth_duration_MTurk/v2_DepthDuration_HTML.html#81,81,1366,768,1366,768,8-22-2022,8-5-40,10,depth_duration_stimuli/002344_2014-06-28_20-06-29_260595134347_rgbf000030-resize_1/002344_2014-06-28_20-06-29_260595134347_rgbf000030-resize_1-target.png,1000,1.5795,20,4640,991,meters,jsons/v1_VE1000_randls_48.json,1218273,1375201,48,Man
10,326049,DepthScenes,duration_manipulation_targetAtFixation,jsons/v1_VE1000_randls_48.json,http://54.235.29.9/FacialAge/BNav_EC2/DepthDuration/v2_depth_duration_MTurk/v2_DepthDuration_HTML.html#81,81,1366,768,1366,768,8-22-2022,8-5-40,11,depth_duration_stimuli/001158_2014-06-17_15-32-16_260595134347_rgbf000138-resize_2/001158_2014-06-17_15-32-16_260595134347_rgbf000138-resize_2-target.png,1000,4.5315,22,5098,988,meters,jsons/v1_VE1000_randls_48.json,1218273,1375201,48,Man
11,326049,DepthScenes,duration_manipulation_targetAtFixation,jsons/v1_VE1000_randls_48.json,http://54.235.29.9/FacialAge/BNav_EC2/DepthDuration/v2_depth_duration_MTurk/v2_DepthDuration_HTML.html#81,81,1366,768,1366,768,8-22-2022,8-5-40,12,depth_duration_stimuli/000556_2014-06-09_22-42-56_260595134347_rgbf000214-resize_1/000556_2014-06-09_22-42-56_260595134347_rgbf000214-resize_1-target.png,1000,4.8415,20,4823,995,meters,jsons/v1_VE1000_randls_48.json,1218273,1375201,48,Man
12,326049,DepthScenes,duration_manipulation_targetAtFixation,jsons/v1_VE1000_randls_48.json,http://54.235.29.9/FacialAge/BNav_EC2/DepthDuration/v2_depth_duration_MTurk/v2_DepthDuration_HTML.html#81,81,1366,768,1366,768,8-22-2022,8-5-40,13,depth_duration_stimuli/000569_2014-06-09_22-51-47_260595134347_rgbf000141-resize_3/000569_2014-06-09_22-51-47_260595134347_rgbf000141-resize-original.jpg,1000,4.512,20,4912,997,meters,jsons/v1_VE1000_randls_48.json,1218273,1375201,48,Man
13,326049,DepthScenes,duration_manipulation_targetAtFixation,jsons/v1_VE1000_randls_48.json,http://54.235.29.9/FacialAge/BNav_EC2/DepthDuration/v2_depth_duration_MTurk/v2_DepthDuration_HTML.html#81,81,1366,768,1366,768,8-22-2022,8-5-40,14,depth_duration_stimuli/001059_2014-06-08_21-53-27_260595134347_rgbf000061-resize_4/001059_2014-06-08_21-53-27_260595134347_rgbf000061-resize_4-target.png,1000,2.4185,25,8000,1001,meters,jsons/v1_VE1000_randls_48.json,1218273,1375201,48,Man
14,326049,DepthScenes,duration_manipulation_targetAtFixation,jsons/v1_VE1000_randls_48.json,http://54.235.29.9/FacialAge/BNav_EC2/DepthDuration/v2_depth_duration_MTurk/v2_DepthDuration_HTML.html#81,81,1366,768,1366,768,8-22-2022,8-5-40,15,depth_duration_stimuli/001032_2014-06-08_13-23-17_260595134347_rgbf000021-resize_3/001032_2014-06-08_13-23-17_260595134347_rgbf000021-resize_3-target.png,1000,3.2725,22,4124,991,meters,jsons/v1_VE1000_randls_48.json,1218273,1375201,48,Man
15,326049,DepthScenes,duration_manipulation_targetAtFixation,jsons/v1_VE1000_randls_48.json,http://54.235.29.9/FacialAge/BNav_EC2/DepthDuration/v2_depth_duration_MTurk/v2_DepthDuration_HTML.html#81,81,1366,768,1366,768,8-22-2022,8-5-40,16,depth_duration_stimuli/003070_2014-06-15_14-58-27_094959634447_rgbf000150-resize_3/003070_2014-06-15_14-58-27_094959634447_rgbf000150-resize_3-target.png,1000,2.9415,25,4899,990,meters,jsons/v1_VE1000_randls_48.json,1218273,1375201,48,Man
16,326049,DepthScenes,duration_manipulation_targetAtFixation,jsons/v1_VE1000_randls_48.json,http://54.235.29.9/FacialAge/BNav_EC2/DepthDuration/v2_depth_duration_MTurk/v2_DepthDuration_HTML.html#81,81,1366,768,1366,768,8-22-2022,8-5-40,17,depth_duration_stimuli/000943_2014-06-09_19-31-07_260595134347_rgbf000128-resize_1/000943_2014-06-09_19-31-07_260595134347_rgbf000128-resize_1-target.png,1000,1.9765,25,4346,995,meters,jsons/v1_VE1000_randls_48.json,1218273,1375201,48,Man
17,326049,DepthScenes,duration_manipulation_targetAtFixation,jsons/v1_VE1000_randls_48.json,http://54.235.29.9/FacialAge/BNav_EC2/DepthDuration/v2_depth_duration_MTurk/v2_DepthDuration_HTML.html#81,81,1366,768,1366,768,8-22-2022,8-5-40,18,depth_duration_stimuli/001055_2014-06-08_18-45-35_260595134347_rgbf000111-resize_4/001055_2014-06-08_18-45-35_260595134347_rgbf000111-resize_4-target.png,1000,2.4290000000000003,24,14318,982,meters,jsons/v1_VE1000_randls_48.json,1218273,1375201,48,Man
18,326049,DepthScenes,duration_manipulation_targetAtFixation,jsons/v1_VE1000_randls_48.json,http://54.235.29.9/FacialAge/BNav_EC2/DepthDuration/v2_depth_duration_MTurk/v2_DepthDuration_HTML.html#81,81,1366,768,1366,768,8-22-2022,8-5-40,19,depth_duration_stimuli/000549_2014-06-08_22-10-24_260595134347_rgbf000247-resize_3/000549_2014-06-08_22-10-24_260595134347_rgbf000247-resize_3-target.png,1000,1.841,225,7625,998,meters,jsons/v1_VE1000_randls_48.json,1218273,1375201,48,Man
19,326049,DepthScenes,duration_manipulation_targetAtFixation,jsons/v1_VE1000_randls_48.json,http://54.235.29.9/FacialAge/BNav_EC2/DepthDuration/v2_depth_duration_MTurk/v2_DepthDuration_HTML.html#81,81,1366,768,1366,768,8-22-2022,8-5-40,20,depth_duration_stimuli/002509_2014-06-24_13-19-22_094959634447_rgbf000077-resize_0/002509_2014-06-24_13-19-22_094959634447_rgbf000077-resize_0-target.png,1000,1.3065,25,5008,990,meters,jsons/v1_VE1000_randls_48.json,1218273,1375201,48,Man
20,326049,DepthScenes,duration_manipulation_targetAtFixation,jsons/v1_VE1000_randls_48.json,http://54.235.29.9/FacialAge/BNav_EC2/DepthDuration/v2_depth_duration_MTurk/v2_DepthDuration_HTML.html#81,81,1366,768,1366,768,8-22-2022,8-5-40,21,depth_duration_stimuli/003338_2014-05-20_11-01-23_094959634447_rgbf000051-resize_6/003338_2014-05-20_11-01-23_094959634447_rgbf000051-resize_6-target.png,1000,1.693,25,4160,1015,meters,jsons/v1_VE1000_randls_48.json,1218273,1375201,48,Man
21,326049,DepthScenes,duration_manipulation_targetAtFixation,jsons/v1_VE1000_randls_48.json,http://54.235.29.9/FacialAge/BNav_EC2/DepthDuration/v2_depth_duration_MTurk/v2_DepthDuration_HTML.html#81,81,1366,768,1366,768,8-22-2022,8-5-40,22,depth_duration_stimuli/001133_2014-06-17_14-49-16_260595134347_rgbf000100-resize_0/001133_2014-06-17_14-49-16_260595134347_rgbf000100-resize_0-target.png,1000,4.2115,22,6687,994,meters,jsons/v1_VE1000_randls_48.json,1218273,1375201,48,Man
22,326049,DepthScenes,duration_manipulation_targetAtFixation,jsons/v1_VE1000_randls_48.json,http://54.235.29.9/FacialAge/BNav_EC2/DepthDuration/v2_depth_duration_MTurk/v2_DepthDuration_HTML.html#81,81,1366,768,1366,768,8-22-2022,8-5-40,23,depth_duration_stimuli/001132_2014-06-17_14-48-54_260595134347_rgbf000100-resize_2/001132_2014-06-17_14-48-54_260595134347_rgbf000100-resize_2-target.png,1000,3.753,22,4895,997,meters,jsons/v1_VE1000_randls_48.json,1218273,1375201,48,Man
23,326049,DepthScenes,duration_manipulation_targetAtFixation,jsons/v1_VE1000_randls_48.json,http://54.235.29.9/FacialAge/BNav_EC2/DepthDuration/v2_depth_duration_MTurk/v2_DepthDuration_HTML.html#81,81,1366,768,1366,768,8-22-2022,8-5-40,24,depth_duration_stimuli/002989_2014-06-15_12-25-03_094959634447_rgbf000150-resize_3/002989_2014-06-15_12-25-03_094959634447_rgbf000150-resize_3-target.png,1000,4.1975,22,8917,1004,meters,jsons/v1_VE1000_randls_48.json,1218273,1375201,48,Man
24,326049,DepthScenes,duration_manipulation_targetAtFixation,jsons/v1_VE1000_randls_48.json,http://54.235.29.9/FacialAge/BNav_EC2/DepthDuration/v2_depth_duration_MTurk/v2_DepthDuration_HTML.html#81,81,1366,768,1366,768,8-22-2022,8-5-40,25,depth_duration_stimuli/000866_2014-06-09_20-45-42_260595134347_rgbf000139-resize_1/000866_2014-06-09_20-45-42_260595134347_rgbf000139-resize_1-target.png,1000,3.2155,15,15554,989,meters,jsons/v1_VE1000_randls_48.json,1218273,1375201,48,Man
25,326049,DepthScenes,duration_manipulation_targetAtFixation,jsons/v1_VE1000_randls_48.json,http://54.235.29.9/FacialAge/BNav_EC2/DepthDuration/v2_depth_duration_MTurk/v2_DepthDuration_HTML.html#81,81,1366,768,1366,768,8-22-2022,8-5-40,26,depth_duration_stimuli/000773_2014-06-08_22-24-54_260595134347_rgbf000093-resize_1/000773_2014-06-08_22-24-54_260595134347_rgbf000093-resize_1-target.png,1000,4.973,20,4938,996,meters,jsons/v1_VE1000_randls_48.json,1218273,1375201,48,Man
26,326049,DepthScenes,duration_manipulation_targetAtFixation,jsons/v1_VE1000_randls_48.json,http://54.235.29.9/FacialAge/BNav_EC2/DepthDuration/v2_depth_duration_MTurk/v2_DepthDuration_HTML.html#81,81,1366,768,1366,768,8-22-2022,8-5-40,27,depth_duration_stimuli/002414_2014-06-28_20-24-58_260595134347_rgbf000067-resize_4/002414_2014-06-28_20-24-58_260595134347_rgbf000067-resize_4-target.png,1000,4.363,60,6887,997,meters,jsons/v1_VE1000_randls_48.json,1218273,1375201,48,Man
27,326049,DepthScenes,duration_manipulation_targetAtFixation,jsons/v1_VE1000_randls_48.json,http://54.235.29.9/FacialAge/BNav_EC2/DepthDuration/v2_depth_duration_MTurk/v2_DepthDuration_HTML.html#81,81,1366,768,1366,768,8-22-2022,8-5-40,28,depth_duration_stimuli/000929_2014-06-09_16-33-19_260595134347_rgbf000139-resize_0/000929_2014-06-09_16-33-19_260595134347_rgbf000139-resize_0-target.png,1000,2.8680000000000003,10,4310,988,meters,jsons/v1_VE1000_randls_48.json,1218273,1375201,48,Man
28,326049,DepthScenes,duration_manipulation_targetAtFixation,jsons/v1_VE1000_randls_48.json,http://54.235.29.9/FacialAge/BNav_EC2/DepthDuration/v2_depth_duration_MTurk/v2_DepthDuration_HTML.html#81,81,1366,768,1366,768,8-22-2022,8-5-40,29,depth_duration_stimuli/000457_2014-06-08_16-52-43_260595134347_rgbf000199-resize_1/000457_2014-06-08_16-52-43_260595134347_rgbf000199-resize_1-target.png,1000,3.6489999999999996,20,4931,985,meters,jsons/v1_VE1000_randls_48.json,1218273,1375201,48,Man
29,326049,DepthScenes,duration_manipulation_targetAtFixation,jsons/v1_VE1000_randls_48.json,http://54.235.29.9/FacialAge/BNav_EC2/DepthDuration/v2_depth_duration_MTurk/v2_DepthDuration_HTML.html#81,81,1366,768,1366,768,8-22-2022,8-5-40,30,depth_duration_stimuli/000375_2014-06-08_11-17-29_260595134347_rgbf000133-resize_2/000375_2014-06-08_11-17-29_260595134347_rgbf000133-resize-original.jpg,1000,4.718,60,4645,988,meters,jsons/v1_VE1000_randls_48.json,1218273,1375201,48,Man
30,326049,DepthScenes,duration_manipulation_targetAtFixation,jsons/v1_VE1000_randls_48.json,http://54.235.29.9/FacialAge/BNav_EC2/DepthDuration/v2_depth_duration_MTurk/v2_DepthDuration_HTML.html#81,81,1366,768,1366,768,8-22-2022,8-5-40,31,depth_duration_stimuli/000788_2014-06-08_22-34-36_260595134347_rgbf000131-resize_1/000788_2014-06-08_22-34-36_260595134347_rgbf000131-resize_1-target.png,1000,3.359,20,4245,972,meters,jsons/v1_VE1000_randls_48.json,1218273,1375201,48,Man
31,326049,DepthScenes,duration_manipulation_targetAtFixation,jsons/v1_VE1000_randls_48.json,http://54.235.29.9/FacialAge/BNav_EC2/DepthDuration/v2_depth_duration_MTurk/v2_DepthDuration_HTML.html#81,81,1366,768,1366,768,8-22-2022,8-5-40,32,depth_duration_stimuli/001235_2014-06-17_16-37-36_260595134347_rgbf000084-resize_4/001235_2014-06-17_16-37-36_260595134347_rgbf000084-resize_4-target.png,1000,3.6605,15,6127,997,meters,jsons/v1_VE1000_randls_48.json,1218273,1375201,48,Man
32,326049,DepthScenes,duration_manipulation_targetAtFixation,jsons/v1_VE1000_randls_48.json,http://54.235.29.9/FacialAge/BNav_EC2/DepthDuration/v2_depth_duration_MTurk/v2_DepthDuration_HTML.html#81,81,1366,768,1366,768,8-22-2022,8-5-40,33,depth_duration_stimuli/003492_2014-05-21_15-50-55_094959634447_rgbf000828-resize_1/003492_2014-05-21_15-50-55_094959634447_rgbf000828-resize_1-target.png,1000,4.06875,60,5306,998,meters,jsons/v1_VE1000_randls_48.json,1218273,1375201,48,Man
33,326049,DepthScenes,duration_manipulation_targetAtFixation,jsons/v1_VE1000_randls_48.json,http://54.235.29.9/FacialAge/BNav_EC2/DepthDuration/v2_depth_duration_MTurk/v2_DepthDuration_HTML.html#81,81,1366,768,1366,768,8-22-2022,8-5-40,34,depth_duration_stimuli/002568_2014-06-24_13-59-21_094959634447_rgbf000062-resize_4/002568_2014-06-24_13-59-21_094959634447_rgbf000062-resize_4-target.png,1000,3.015,30,3754,984,meters,jsons/v1_VE1000_randls_48.json,1218273,1375201,48,Man
34,326049,DepthScenes,duration_manipulation_targetAtFixation,jsons/v1_VE1000_randls_48.json,http://54.235.29.9/FacialAge/BNav_EC2/DepthDuration/v2_depth_duration_MTurk/v2_DepthDuration_HTML.html#81,81,1366,768,1366,768,8-22-2022,8-5-40,35,depth_duration_stimuli/003621_2014-05-23_18-06-08_094959634447_rgbf000101-resize_1/003621_2014-05-23_18-06-08_094959634447_rgbf000101-resize_1-target.png,1000,3.9835,25,10273,1002,meters,jsons/v1_VE1000_randls_48.json,1218273,1375201,48,Man
35,326049,DepthScenes,duration_manipulation_targetAtFixation,jsons/v1_VE1000_randls_48.json,http://54.235.29.9/FacialAge/BNav_EC2/DepthDuration/v2_depth_duration_MTurk/v2_DepthDuration_HTML.html#81,81,1366,768,1366,768,8-22-2022,8-5-40,36,depth_duration_stimuli/001584_2014-06-20_11-07-43_260595134347_rgbf000002-resize_1/001584_2014-06-20_11-07-43_260595134347_rgbf000002-resize_1-target.png,1000,3.53,22,13655,995,meters,jsons/v1_VE1000_randls_48.json,1218273,1375201,48,Man
36,326049,DepthScenes,duration_manipulation_targetAtFixation,jsons/v1_VE1000_randls_48.json,http://54.235.29.9/FacialAge/BNav_EC2/DepthDuration/v2_depth_duration_MTurk/v2_DepthDuration_HTML.html#81,81,1366,768,1366,768,8-22-2022,8-5-40,37,depth_duration_stimuli/000368_2014-06-09_15-53-01_260595134347_rgbf000155-resize_2/000368_2014-06-09_15-53-01_260595134347_rgbf000155-resize_2-target.png,1000,2.4859999999999998,25,9790,932,meters,jsons/v1_VE1000_randls_48.json,1218273,1375201,48,Man
37,326049,DepthScenes,duration_manipulation_targetAtFixation,jsons/v1_VE1000_randls_48.json,http://54.235.29.9/FacialAge/BNav_EC2/DepthDuration/v2_depth_duration_MTurk/v2_DepthDuration_HTML.html#81,81,1366,768,1366,768,8-22-2022,8-5-40,38,depth_duration_stimuli/002678_2014-06-13_16-15-32_094959634447_rgbf000151-resize_6/002678_2014-06-13_16-15-32_094959634447_rgbf000151-resize_6-target.png,1000,2.1830000000000003,22,32969,997,meters,jsons/v1_VE1000_randls_48.json,1218273,1375201,48,Man
38,326049,DepthScenes,duration_manipulation_targetAtFixation,jsons/v1_VE1000_randls_48.json,http://54.235.29.9/FacialAge/BNav_EC2/DepthDuration/v2_depth_duration_MTurk/v2_DepthDuration_HTML.html#81,81,1366,768,1366,768,8-22-2022,8-5-40,39,depth_duration_stimuli/001808_2014-06-26_20-50-58_260595134347_rgbf000029-resize_1/001808_2014-06-26_20-50-58_260595134347_rgbf000029-resize_1-target.png,1000,4.249,25,6219,998,meters,jsons/v1_VE1000_randls_48.json,1218273,1375201,48,Man
39,326049,DepthScenes,duration_manipulation_targetAtFixation,jsons/v1_VE1000_randls_48.json,http://54.235.29.9/FacialAge/BNav_EC2/DepthDuration/v2_depth_duration_MTurk/v2_DepthDuration_HTML.html#81,81,1366,768,1366,768,8-22-2022,8-5-40,40,depth_duration_stimuli/001815_2014-06-26_20-52-55_260595134347_rgbf000020-resize_0/001815_2014-06-26_20-52-55_260595134347_rgbf000020-resize_0-target.png,1000,3.3865,25,5406,979,meters,jsons/v1_VE1000_randls_48.json,1218273,1375201,48,Man
40,326049,DepthScenes,duration_manipulation_targetAtFixation,jsons/v1_VE1000_randls_48.json,http://54.235.29.9/FacialAge/BNav_EC2/DepthDuration/v2_depth_duration_MTurk/v2_DepthDuration_HTML.html#81,81,1366,768,1366,768,8-22-2022,8-5-40,41,depth_duration_stimuli/001164_2014-06-17_15-35-46_260595134347_rgbf000085-resize_3/001164_2014-06-17_15-35-46_260595134347_rgbf000085-resize_3-target.png,1000,2.354,22,4280,998,meters,jsons/v1_VE1000_randls_48.json,1218273,1375201,48,Man
41,326049,DepthScenes,duration_manipulation_targetAtFixation,jsons/v1_VE1000_randls_48.json,http://54.235.29.9/FacialAge/BNav_EC2/DepthDuration/v2_depth_duration_MTurk/v2_DepthDuration_HTML.html#81,81,1366,768,1366,768,8-22-2022,8-5-40,42,depth_duration_stimuli/001136_2014-06-17_15-19-41_260595134347_rgbf000076-resize_3/001136_2014-06-17_15-19-41_260595134347_rgbf000076-resize_3-target.png,1000,1.8655,22,4844,990,meters,jsons/v1_VE1000_randls_48.json,1218273,1375201,48,Man
42,326049,DepthScenes,duration_manipulation_targetAtFixation,jsons/v1_VE1000_randls_48.json,http://54.235.29.9/FacialAge/BNav_EC2/DepthDuration/v2_depth_duration_MTurk/v2_DepthDuration_HTML.html#81,81,1366,768,1366,768,8-22-2022,8-5-40,43,depth_duration_stimuli/000493_2014-06-09_21-01-18_260595134347_rgbf000196-resize_3/000493_2014-06-09_21-01-18_260595134347_rgbf000196-resize_3-target.png,1000,3.44,25,4161,996,meters,jsons/v1_VE1000_randls_48.json,1218273,1375201,48,Man
43,326049,DepthScenes,duration_manipulation_targetAtFixation,jsons/v1_VE1000_randls_48.json,http://54.235.29.9/FacialAge/BNav_EC2/DepthDuration/v2_depth_duration_MTurk/v2_DepthDuration_HTML.html#81,81,1366,768,1366,768,8-22-2022,8-5-40,44,depth_duration_stimuli/000191_2014-05-12_17-07-38_260595134347_rgbf000199-resize_0/000191_2014-05-12_17-07-38_260595134347_rgbf000199-resize_0-target.png,1000,3.7995,22,4492,999,meters,jsons/v1_VE1000_randls_48.json,1218273,1375201,48,Man
44,326049,DepthScenes,duration_manipulation_targetAtFixation,jsons/v1_VE1000_randls_48.json,http://54.235.29.9/FacialAge/BNav_EC2/DepthDuration/v2_depth_duration_MTurk/v2_DepthDuration_HTML.html#81,81,1366,768,1366,768,8-22-2022,8-5-40,45,depth_duration_stimuli/000787_2014-06-08_22-33-53_260595134347_rgbf000175-resize_1/000787_2014-06-08_22-33-53_260595134347_rgbf000175-resize-original.jpg,1000,4.784,25,5165,994,meters,jsons/v1_VE1000_randls_48.json,1218273,1375201,48,Man
45,326049,DepthScenes,duration_manipulation_targetAtFixation,jsons/v1_VE1000_randls_48.json,http://54.235.29.9/FacialAge/BNav_EC2/DepthDuration/v2_depth_duration_MTurk/v2_DepthDuration_HTML.html#81,81,1366,768,1366,768,8-22-2022,8-5-40,46,depth_duration_stimuli/002748_2014-06-22_19-07-22_094959634447_rgbf000078-resize_1/002748_2014-06-22_19-07-22_094959634447_rgbf000078-resize_1-target.png,1000,4.6705,22,6023,992,meters,jsons/v1_VE1000_randls_48.json,1218273,1375201,48,Man
46,326049,DepthScenes,duration_manipulation_targetAtFixation,jsons/v1_VE1000_randls_48.json,http://54.235.29.9/FacialAge/BNav_EC2/DepthDuration/v2_depth_duration_MTurk/v2_DepthDuration_HTML.html#81,81,1366,768,1366,768,8-22-2022,8-5-40,47,depth_duration_stimuli/002995_2014-06-15_12-31-26_094959634447_rgbf000150-resize_1/002995_2014-06-15_12-31-26_094959634447_rgbf000150-resize_1-target.png,1000,3.8360000000000003,22,4207,1000,meters,jsons/v1_VE1000_randls_48.json,1218273,1375201,48,Man
47,326049,DepthScenes,duration_manipulation_targetAtFixation,jsons/v1_VE1000_randls_48.json,http://54.235.29.9/FacialAge/BNav_EC2/DepthDuration/v2_depth_duration_MTurk/v2_DepthDuration_HTML.html#81,81,1366,768,1366,768,8-22-2022,8-5-40,48,depth_duration_stimuli/000736_2014-06-08_18-24-15_260595134347_rgbf000206-resize_3/000736_2014-06-08_18-24-15_260595134347_rgbf000206-resize_3-target.png,1000,3.515,22,4552,978,meters,jsons/v1_VE1000_randls_48.json,1218273,1375201,48,Man
48,326049,DepthScenes,duration_manipulation_targetAtFixation,jsons/v1_VE1000_randls_48.json,http://54.235.29.9/FacialAge/BNav_EC2/DepthDuration/v2_depth_duration_MTurk/v2_DepthDuration_HTML.html#81,81,1366,768,1366,768,8-22-2022,8-5-40,49,depth_duration_stimuli/000137_2014-05-20_17-04-49_260595134347_rgbf000120-resize_1/000137_2014-05-20_17-04-49_260595134347_rgbf000120-resize_1-target.png,1000,3.786,20,4217,994,meters,jsons/v1_VE1000_randls_48.json,1218273,1375201,48,Man
49,326049,DepthScenes,duration_manipulation_targetAtFixation,jsons/v1_VE1000_randls_48.json,http://54.235.29.9/FacialAge/BNav_EC2/DepthDuration/v2_depth_duration_MTurk/v2_DepthDuration_HTML.html#81,81,1366,768,1366,768,8-22-2022,8-5-40,50,depth_duration_stimuli/002272_2014-06-28_18-53-56_260595134347_rgbf000067-resize_2/002272_2014-06-28_18-53-56_260595134347_rgbf000067-resize_2-target.png,1000,1.138,20,4746,998,meters,jsons/v1_VE1000_randls_48.json,1218273,1375201,48,Man
50,326049,DepthScenes,duration_manipulation_targetAtFixation,jsons/v1_VE1000_randls_48.json,http://54.235.29.9/FacialAge/BNav_EC2/DepthDuration/v2_depth_duration_MTurk/v2_DepthDuration_HTML.html#81,81,1366,768,1366,768,8-22-2022,8-5-40,51,depth_duration_stimuli/001571_2014-06-20_17-21-32_260595134347_rgbf000089-resize_1/001571_2014-06-20_17-21-32_260595134347_rgbf000089-resize_1-target.png,1000,1.86,25,4550,1000,meters,jsons/v1_VE1000_randls_48.json,1218273,1375201,48,Man
51,326049,DepthScenes,duration_manipulation_targetAtFixation,jsons/v1_VE1000_randls_48.json,http://54.235.29.9/FacialAge/BNav_EC2/DepthDuration/v2_depth_duration_MTurk/v2_DepthDuration_HTML.html#81,81,1366,768,1366,768,8-22-2022,8-5-40,52,depth_duration_stimuli/001110_2014-06-15_17-25-28_260595134347_rgbf000150-resize_1/001110_2014-06-15_17-25-28_260595134347_rgbf000150-resize_1-target.png,1000,1.7115,25,4321,1012,meters,jsons/v1_VE1000_randls_48.json,1218273,1375201,48,Man
52,326049,DepthScenes,duration_manipulation_targetAtFixation,jsons/v1_VE1000_randls_48.json,http://54.235.29.9/FacialAge/BNav_EC2/DepthDuration/v2_depth_duration_MTurk/v2_DepthDuration_HTML.html#81,81,1366,768,1366,768,8-22-2022,8-5-40,53,depth_duration_stimuli/000927_2014-06-09_16-32-30_260595134347_rgbf000123-resize_3/000927_2014-06-09_16-32-30_260595134347_rgbf000123-resize_3-target.png,1000,2.6785,25,3996,997,meters,jsons/v1_VE1000_randls_48.json,1218273,1375201,48,Man
53,326049,DepthScenes,duration_manipulation_targetAtFixation,jsons/v1_VE1000_randls_48.json,http://54.235.29.9/FacialAge/BNav_EC2/DepthDuration/v2_depth_duration_MTurk/v2_DepthDuration_HTML.html#81,81,1366,768,1366,768,8-22-2022,8-5-40,54,depth_duration_stimuli/001056_2014-06-08_18-46-44_260595134347_rgbf000068-resize_0/001056_2014-06-08_18-46-44_260595134347_rgbf000068-resize_0-target.png,1000,2.6625,25,7494,996,meters,jsons/v1_VE1000_randls_48.json,1218273,1375201,48,Man
54,326049,DepthScenes,duration_manipulation_targetAtFixation,jsons/v1_VE1000_randls_48.json,http://54.235.29.9/FacialAge/BNav_EC2/DepthDuration/v2_depth_duration_MTurk/v2_DepthDuration_HTML.html#81,81,1366,768,1366,768,8-22-2022,8-5-40,55,depth_duration_stimuli/002199_2014-06-28_18-33-56_260595134347_rgbf000074-resize_0/002199_2014-06-28_18-33-56_260595134347_rgbf000074-resize_0-target.png,1000,1.996,25,4467,989,meters,jsons/v1_VE1000_randls_48.json,1218273,1375201,48,Man
55,326049,DepthScenes,duration_manipulation_targetAtFixation,jsons/v1_VE1000_randls_48.json,http://54.235.29.9/FacialAge/BNav_EC2/DepthDuration/v2_depth_duration_MTurk/v2_DepthDuration_HTML.html#81,81,1366,768,1366,768,8-22-2022,8-5-40,56,depth_duration_stimuli/002784_2014-06-22_19-26-30_094959634447_rgbf000083-resize_3/002784_2014-06-22_19-26-30_094959634447_rgbf000083-resize_3-target.png,1000,1.8046666666667,25,6057,1004,meters,jsons/v1_VE1000_randls_48.json,1218273,1375201,48,Man
56,326049,DepthScenes,duration_manipulation_targetAtFixation,jsons/v1_VE1000_randls_48.json,http://54.235.29.9/FacialAge/BNav_EC2/DepthDuration/v2_depth_duration_MTurk/v2_DepthDuration_HTML.html#81,81,1366,768,1366,768,8-22-2022,8-5-40,57,depth_duration_stimuli/001100_2014-06-15_17-46-26_260595134347_rgbf000225-resize_2/001100_2014-06-15_17-46-26_260595134347_rgbf000225-resize_2-target.png,1000,2.24,25,4502,1002,meters,jsons/v1_VE1000_randls_48.json,1218273,1375201,48,Man
57,326049,DepthScenes,duration_manipulation_targetAtFixation,jsons/v1_VE1000_randls_48.json,http://54.235.29.9/FacialAge/BNav_EC2/DepthDuration/v2_depth_duration_MTurk/v2_DepthDuration_HTML.html#81,81,1366,768,1366,768,8-22-2022,8-5-40,58,depth_duration_stimuli/001167_2014-06-17_15-38-07_260595134347_rgbf000108-resize_0/001167_2014-06-17_15-38-07_260595134347_rgbf000108-resize_0-target.png,1000,1.8505,25,5177,978,meters,jsons/v1_VE1000_randls_48.json,1218273,1375201,48,Man
58,326049,DepthScenes,duration_manipulation_targetAtFixation,jsons/v1_VE1000_randls_48.json,http://54.235.29.9/FacialAge/BNav_EC2/DepthDuration/v2_depth_duration_MTurk/v2_DepthDuration_HTML.html#81,81,1366,768,1366,768,8-22-2022,8-5-40,59,depth_duration_stimuli/003587_2014-05-23_16-48-02_094959634447_rgbf002384-resize_2/003587_2014-05-23_16-48-02_094959634447_rgbf002384-resize_2-target.png,1000,1.357,22,15441,986,meters,jsons/v1_VE1000_randls_48.json,1218273,1375201,48,Man
59,326049,DepthScenes,duration_manipulation_targetAtFixation,jsons/v1_VE1000_randls_48.json,http://54.235.29.9/FacialAge/BNav_EC2/DepthDuration/v2_depth_duration_MTurk/v2_DepthDuration_HTML.html#81,81,1366,768,1366,768,8-22-2022,8-5-40,60,depth_duration_stimuli/003292_2014-05-14_21-53-49_094959634447_rgbf000100-resize_2/003292_2014-05-14_21-53-49_094959634447_rgbf000100-resize_2-target.png,1000,3.4815,25,5354,1005,meters,jsons/v1_VE1000_randls_48.json,1218273,1375201,48,Man
60,326049,DepthScenes,duration_manipulation_targetAtFixation,jsons/v1_VE1000_randls_48.json,http://54.235.29.9/FacialAge/BNav_EC2/DepthDuration/v2_depth_duration_MTurk/v2_DepthDuration_HTML.html#81,81,1366,768,1366,768,8-22-2022,8-5-40,61,depth_duration_stimuli/002639_2014-06-24_14-51-37_094959634447_rgbf000074-resize_4/002639_2014-06-24_14-51-37_094959634447_rgbf000074-resize_4-target.png,1000,4.0375,22,9685,996,meters,jsons/v1_VE1000_randls_48.json,1218273,1375201,48,Man
61,326049,DepthScenes,duration_manipulation_targetAtFixation,jsons/v1_VE1000_randls_48.json,http://54.235.29.9/FacialAge/BNav_EC2/DepthDuration/v2_depth_duration_MTurk/v2_DepthDuration_HTML.html#81,81,1366,768,1366,768,8-22-2022,8-5-40,62,depth_duration_stimuli/000917_2014-06-09_22-45-29_260595134347_rgbf000149-resize_3/000917_2014-06-09_22-45-29_260595134347_rgbf000149-resize_3-target.png,1000,4.1865,22,10635,995,meters,jsons/v1_VE1000_randls_48.json,1218273,1375201,48,Man
62,326049,DepthScenes,duration_manipulation_targetAtFixation,jsons/v1_VE1000_randls_48.json,http://54.235.29.9/FacialAge/BNav_EC2/DepthDuration/v2_depth_duration_MTurk/v2_DepthDuration_HTML.html#81,81,1366,768,1366,768,8-22-2022,8-5-40,63,depth_duration_stimuli/002323_2014-06-28_20-01-54_260595134347_rgbf000051-resize_4/002323_2014-06-28_20-01-54_260595134347_rgbf000051-resize_4-target.png,1000,3.7310000000000003,25,10594,997,meters,jsons/v1_VE1000_randls_48.json,1218273,1375201,48,Man
63,326049,DepthScenes,duration_manipulation_targetAtFixation,jsons/v1_VE1000_randls_48.json,http://54.235.29.9/FacialAge/BNav_EC2/DepthDuration/v2_depth_duration_MTurk/v2_DepthDuration_HTML.html#81,81,1366,768,1366,768,8-22-2022,8-5-40,64,depth_duration_stimuli/001029_2014-06-08_13-17-57_260595134347_rgbf000065-resize_1/001029_2014-06-08_13-17-57_260595134347_rgbf000065-resize_1-target.png,1000,3.0835,25,6239,996,meters,jsons/v1_VE1000_randls_48.json,1218273,1375201,48,Man
64,326049,DepthScenes,duration_manipulation_targetAtFixation,jsons/v1_VE1000_randls_48.json,http://54.235.29.9/FacialAge/BNav_EC2/DepthDuration/v2_depth_duration_MTurk/v2_DepthDuration_HTML.html#81,81,1366,768,1366,768,8-22-2022,8-5-40,65,depth_duration_stimuli/000677_2014-06-08_23-10-32_260595134347_rgbf000158-resize_6/000677_2014-06-08_23-10-32_260595134347_rgbf000158-resize_6-target.png,1000,3.556,25,238948,1002,meters,jsons/v1_VE1000_randls_48.json,1218273,1375201,48,Man
65,326049,DepthScenes,duration_manipulation_targetAtFixation,jsons/v1_VE1000_randls_48.json,http://54.235.29.9/FacialAge/BNav_EC2/DepthDuration/v2_depth_duration_MTurk/v2_DepthDuration_HTML.html#81,81,1366,768,1366,768,8-22-2022,8-5-40,66,depth_duration_stimuli/001222_2014-06-17_16-24-06_260595134347_rgbf000073-resize_0/001222_2014-06-17_16-24-06_260595134347_rgbf000073-resize-original.jpg,1000,1.4385,25,5052,990,meters,jsons/v1_VE1000_randls_48.json,1218273,1375201,48,Man
66,326049,DepthScenes,duration_manipulation_targetAtFixation,jsons/v1_VE1000_randls_48.json,http://54.235.29.9/FacialAge/BNav_EC2/DepthDuration/v2_depth_duration_MTurk/v2_DepthDuration_HTML.html#81,81,1366,768,1366,768,8-22-2022,8-5-40,67,depth_duration_stimuli/002549_2014-06-24_13-41-39_094959634447_rgbf000022-resize_3/002549_2014-06-24_13-41-39_094959634447_rgbf000022-resize_3-target.png,1000,1.476,24,5232,1005,meters,jsons/v1_VE1000_randls_48.json,1218273,1375201,48,Man
67,326049,DepthScenes,duration_manipulation_targetAtFixation,jsons/v1_VE1000_randls_48.json,http://54.235.29.9/FacialAge/BNav_EC2/DepthDuration/v2_depth_duration_MTurk/v2_DepthDuration_HTML.html#81,81,1366,768,1366,768,8-22-2022,8-5-40,68,depth_duration_stimuli/002750_2014-06-22_19-08-03_094959634447_rgbf000094-resize_4/002750_2014-06-22_19-08-03_094959634447_rgbf000094-resize_4-target.png,1000,2.354,25,4536,894,meters,jsons/v1_VE1000_randls_48.json,1218273,1375201,48,Man
68,326049,DepthScenes,duration_manipulation_targetAtFixation,jsons/v1_VE1000_randls_48.json,http://54.235.29.9/FacialAge/BNav_EC2/DepthDuration/v2_depth_duration_MTurk/v2_DepthDuration_HTML.html#81,81,1366,768,1366,768,8-22-2022,8-5-40,69,depth_duration_stimuli/002788_2014-06-22_19-36-03_094959634447_rgbf000088-resize_2/002788_2014-06-22_19-36-03_094959634447_rgbf000088-resize_2-target.png,1000,1.6465,22,5319,991,meters,jsons/v1_VE1000_randls_48.json,1218273,1375201,48,Man
69,326049,DepthScenes,duration_manipulation_targetAtFixation,jsons/v1_VE1000_randls_48.json,http://54.235.29.9/FacialAge/BNav_EC2/DepthDuration/v2_depth_duration_MTurk/v2_DepthDuration_HTML.html#81,81,1366,768,1366,768,8-22-2022,8-5-40,70,depth_duration_stimuli/000749_2014-06-08_21-55-06_260595134347_rgbf000070-resize_2/000749_2014-06-08_21-55-06_260595134347_rgbf000070-resize_2-target.png,1000,2.331,22,4208,1042,meters,jsons/v1_VE1000_randls_48.json,1218273,1375201,48,Man
70,326049,DepthScenes,duration_manipulation_targetAtFixation,jsons/v1_VE1000_randls_48.json,http://54.235.29.9/FacialAge/BNav_EC2/DepthDuration/v2_depth_duration_MTurk/v2_DepthDuration_HTML.html#81,81,1366,768,1366,768,8-22-2022,8-5-40,71,depth_duration_stimuli/001011_2014-06-08_23-18-54_260595134347_rgbf000044-resize_4/001011_2014-06-08_23-18-54_260595134347_rgbf000044-resize_4-target.png,1000,2.4730000000000003,22,5166,979,meters,jsons/v1_VE1000_randls_48.json,1218273,1375201,48,Man
71,326049,DepthScenes,duration_manipulation_targetAtFixation,jsons/v1_VE1000_randls_48.json,http://54.235.29.9/FacialAge/BNav_EC2/DepthDuration/v2_depth_duration_MTurk/v2_DepthDuration_HTML.html#81,81,1366,768,1366,768,8-22-2022,8-5-40,72,depth_duration_stimuli/002875_2014-06-01_15-19-00_094959634447_rgbf000151-resize_1/002875_2014-06-01_15-19-00_094959634447_rgbf000151-resize_1-target.png,1000,1.9675,22,5425,995,meters,jsons/v1_VE1000_randls_48.json,1218273,1375201,48,Man
72,326049,DepthScenes,duration_manipulation_targetAtFixation,jsons/v1_VE1000_randls_48.json,http://54.235.29.9/FacialAge/BNav_EC2/DepthDuration/v2_depth_duration_MTurk/v2_DepthDuration_HTML.html#81,81,1366,768,1366,768,8-22-2022,8-5-40,73,depth_duration_stimuli/002153_2014-06-25_21-27-18_260595134347_rgbf000038-resize_5/002153_2014-06-25_21-27-18_260595134347_rgbf000038-resize_5-target.png,1000,2.505,22,4871,897,meters,jsons/v1_VE1000_randls_48.json,1218273,1375201,48,Man
73,326049,DepthScenes,duration_manipulation_targetAtFixation,jsons/v1_VE1000_randls_48.json,http://54.235.29.9/FacialAge/BNav_EC2/DepthDuration/v2_depth_duration_MTurk/v2_DepthDuration_HTML.html#81,81,1366,768,1366,768,8-22-2022,8-5-40,74,depth_duration_stimuli/002660_2014-06-13_15-44-18_094959634447_rgbf001878-resize_2/002660_2014-06-13_15-44-18_094959634447_rgbf001878-resize_2-target.png,1000,3.576,22,11986,1008,meters,jsons/v1_VE1000_randls_48.json,1218273,1375201,48,Man
74,326049,DepthScenes,duration_manipulation_targetAtFixation,jsons/v1_VE1000_randls_48.json,http://54.235.29.9/FacialAge/BNav_EC2/DepthDuration/v2_depth_duration_MTurk/v2_DepthDuration_HTML.html#81,81,1366,768,1366,768,8-22-2022,8-5-40,75,depth_duration_stimuli/002570_2014-06-24_13-59-54_094959634447_rgbf000059-resize_0/002570_2014-06-24_13-59-54_094959634447_rgbf000059-resize_0-target.png,1000,4.037,25,7930,996,meters,jsons/v1_VE1000_randls_48.json,1218273,1375201,48,Man
75,326049,DepthScenes,duration_manipulation_targetAtFixation,jsons/v1_VE1000_randls_48.json,http://54.235.29.9/FacialAge/BNav_EC2/DepthDuration/v2_depth_duration_MTurk/v2_DepthDuration_HTML.html#81,81,1366,768,1366,768,8-22-2022,8-5-40,76,depth_duration_stimuli/002467_2014-06-28_20-38-07_260595134347_rgbf000026-resize_2/002467_2014-06-28_20-38-07_260595134347_rgbf000026-resize_2-target.png,1000,4.742,25,6812,1010,meters,jsons/v1_VE1000_randls_48.json,1218273,1375201,48,Man
76,326049,DepthScenes,duration_manipulation_targetAtFixation,jsons/v1_VE1000_randls_48.json,http://54.235.29.9/FacialAge/BNav_EC2/DepthDuration/v2_depth_duration_MTurk/v2_DepthDuration_HTML.html#81,81,1366,768,1366,768,8-22-2022,8-5-40,77,depth_duration_stimuli/001066_2014-06-08_22-03-20_260595134347_rgbf000066-resize_4/001066_2014-06-08_22-03-20_260595134347_rgbf000066-resize_4-target.png,1000,4.2330000000000005,22,8095,996,meters,jsons/v1_VE1000_randls_48.json,1218273,1375201,48,Man
77,326049,DepthScenes,duration_manipulation_targetAtFixation,jsons/v1_VE1000_randls_48.json,http://54.235.29.9/FacialAge/BNav_EC2/DepthDuration/v2_depth_duration_MTurk/v2_DepthDuration_HTML.html#81,81,1366,768,1366,768,8-22-2022,8-5-40,78,depth_duration_stimuli/000742_2014-06-08_18-48-09_260595134347_rgbf000164-resize_4/000742_2014-06-08_18-48-09_260595134347_rgbf000164-resize_4-target.png,1000,4.632,22,4797,983,meters,jsons/v1_VE1000_randls_48.json,1218273,1375201,48,Man
78,326049,DepthScenes,duration_manipulation_targetAtFixation,jsons/v1_VE1000_randls_48.json,http://54.235.29.9/FacialAge/BNav_EC2/DepthDuration/v2_depth_duration_MTurk/v2_DepthDuration_HTML.html#81,81,1366,768,1366,768,8-22-2022,8-5-40,79,depth_duration_stimuli/000436_2014-06-09_22-25-11_260595134347_rgbf000137-resize_1/000436_2014-06-09_22-25-11_260595134347_rgbf000137-resize_1-target.png,1000,4.0705,20,5301,989,meters,jsons/v1_VE1000_randls_48.json,1218273,1375201,48,Man
79,326049,DepthScenes,duration_manipulation_targetAtFixation,jsons/v1_VE1000_randls_48.json,http://54.235.29.9/FacialAge/BNav_EC2/DepthDuration/v2_depth_duration_MTurk/v2_DepthDuration_HTML.html#81,81,1366,768,1366,768,8-22-2022,8-5-40,80,depth_duration_stimuli/002444_2014-06-28_20-32-08_260595134347_rgbf000027-resize_0/002444_2014-06-28_20-32-08_260595134347_rgbf000027-resize_0-target.png,1000,4.388999999999999,22,4411,974,meters,jsons/v1_VE1000_randls_48.json,1218273,1375201,48,Man
80,326049,DepthScenes,duration_manipulation_targetAtFixation,jsons/v1_VE1000_randls_48.json,http://54.235.29.9/FacialAge/BNav_EC2/DepthDuration/v2_depth_duration_MTurk/v2_DepthDuration_HTML.html#81,81,1366,768,1366,768,8-22-2022,8-5-40,81,depth_duration_stimuli/000682_2014-06-08_23-14-58_260595134347_rgbf000041-resize_5/000682_2014-06-08_23-14-58_260595134347_rgbf000041-resize_5-target.png,1000,2.7239999999999998,22,5117,1009,meters,jsons/v1_VE1000_randls_48.json,1218273,1375201,48,Man
81,326049,DepthScenes,duration_manipulation_targetAtFixation,jsons/v1_VE1000_randls_48.json,http://54.235.29.9/FacialAge/BNav_EC2/DepthDuration/v2_depth_duration_MTurk/v2_DepthDuration_HTML.html#81,81,1366,768,1366,768,8-22-2022,8-5-40,82,depth_duration_stimuli/001650_2014-06-20_12-09-00_260595134347_rgbf000087-resize_3/001650_2014-06-20_12-09-00_260595134347_rgbf000087-resize_3-target.png,1000,1.9505,22,4242,997,meters,jsons/v1_VE1000_randls_48.json,1218273,1375201,48,Man
82,326049,DepthScenes,duration_manipulation_targetAtFixation,jsons/v1_VE1000_randls_48.json,http://54.235.29.9/FacialAge/BNav_EC2/DepthDuration/v2_depth_duration_MTurk/v2_DepthDuration_HTML.html#81,81,1366,768,1366,768,8-22-2022,8-5-40,83,depth_duration_stimuli/001092_2014-06-15_17-34-58_260595134347_rgbf000171-resize_3/001092_2014-06-15_17-34-58_260595134347_rgbf000171-resize_3-target.png,1000,2.6935,25,5224,999,meters,jsons/v1_VE1000_randls_48.json,1218273,1375201,48,Man
83,326049,DepthScenes,duration_manipulation_targetAtFixation,jsons/v1_VE1000_randls_48.json,http://54.235.29.9/FacialAge/BNav_EC2/DepthDuration/v2_depth_duration_MTurk/v2_DepthDuration_HTML.html#81,81,1366,768,1366,768,8-22-2022,8-5-40,84,depth_duration_stimuli/002545_2014-06-24_13-38-53_094959634447_rgbf000080-resize_4/002545_2014-06-24_13-38-53_094959634447_rgbf000080-resize_4-target.png,1000,1.9205,25,5100,997,meters,jsons/v1_VE1000_randls_48.json,1218273,1375201,48,Man
84,326049,DepthScenes,duration_manipulation_targetAtFixation,jsons/v1_VE1000_randls_48.json,http://54.235.29.9/FacialAge/BNav_EC2/DepthDuration/v2_depth_duration_MTurk/v2_DepthDuration_HTML.html#81,81,1366,768,1366,768,8-22-2022,8-5-40,85,depth_duration_stimuli/000486_2014-06-09_20-47-20_260595134347_rgbf000143-resize_2/000486_2014-06-09_20-47-20_260595134347_rgbf000143-resize_2-target.png,1000,4.8325,55,4718,983,meters,jsons/v1_VE1000_randls_48.json,1218273,1375201,48,Man
85,326049,DepthScenes,duration_manipulation_targetAtFixation,jsons/v1_VE1000_randls_48.json,http://54.235.29.9/FacialAge/BNav_EC2/DepthDuration/v2_depth_duration_MTurk/v2_DepthDuration_HTML.html#81,81,1366,768,1366,768,8-22-2022,8-5-40,86,depth_duration_stimuli/003083_2014-06-15_15-21-03_094959634447_rgbf000063-resize_1/003083_2014-06-15_15-21-03_094959634447_rgbf000063-resize_1-target.png,1000,4.1405,22,4197,990,meters,jsons/v1_VE1000_randls_48.json,1218273,1375201,48,Man
86,326049,DepthScenes,duration_manipulation_targetAtFixation,jsons/v1_VE1000_randls_48.json,http://54.235.29.9/FacialAge/BNav_EC2/DepthDuration/v2_depth_duration_MTurk/v2_DepthDuration_HTML.html#81,81,1366,768,1366,768,8-22-2022,8-5-40,87,depth_duration_stimuli/002445_2014-06-28_20-32-16_260595134347_rgbf000029-resize_4/002445_2014-06-28_20-32-16_260595134347_rgbf000029-resize_4-target.png,1000,2.5315,22,4824,990,meters,jsons/v1_VE1000_randls_48.json,1218273,1375201,48,Man
87,326049,DepthScenes,duration_manipulation_targetAtFixation,jsons/v1_VE1000_randls_48.json,http://54.235.29.9/FacialAge/BNav_EC2/DepthDuration/v2_depth_duration_MTurk/v2_DepthDuration_HTML.html#81,81,1366,768,1366,768,8-22-2022,8-5-40,88,depth_duration_stimuli/000780_2014-06-08_22-28-29_260595134347_rgbf000126-resize_1/000780_2014-06-08_22-28-29_260595134347_rgbf000126-resize_1-target.png,1000,3.3825,22,4312,1009,meters,jsons/v1_VE1000_randls_48.json,1218273,1375201,48,Man
88,326049,DepthScenes,duration_manipulation_targetAtFixation,jsons/v1_VE1000_randls_48.json,http://54.235.29.9/FacialAge/BNav_EC2/DepthDuration/v2_depth_duration_MTurk/v2_DepthDuration_HTML.html#81,81,1366,768,1366,768,8-22-2022,8-5-40,89,depth_duration_stimuli/002763_2014-06-22_19-13-10_094959634447_rgbf000075-resize_4/002763_2014-06-22_19-13-10_094959634447_rgbf000075-resize_4-target.png,1000,1.68375,22,5683,1053,meters,jsons/v1_VE1000_randls_48.json,1218273,1375201,48,Man
89,326049,DepthScenes,duration_manipulation_targetAtFixation,jsons/v1_VE1000_randls_48.json,http://54.235.29.9/FacialAge/BNav_EC2/DepthDuration/v2_depth_duration_MTurk/v2_DepthDuration_HTML.html#81,81,1366,768,1366,768,8-22-2022,8-5-40,90,depth_duration_stimuli/002209_2014-06-28_18-36-10_260595134347_rgbf000051-resize_1/002209_2014-06-28_18-36-10_260595134347_rgbf000051-resize_1-target.png,1000,2.057,22,3911,1018,meters,jsons/v1_VE1000_randls_48.json,1218273,1375201,48,Man
90,326049,DepthScenes,duration_manipulation_targetAtFixation,jsons/v1_VE1000_randls_48.json,http://54.235.29.9/FacialAge/BNav_EC2/DepthDuration/v2_depth_duration_MTurk/v2_DepthDuration_HTML.html#81,81,1366,768,1366,768,8-22-2022,8-5-40,91,depth_duration_stimuli/001570_2014-06-20_17-21-09_260595134347_rgbf000135-resize_4/001570_2014-06-20_17-21-09_260595134347_rgbf000135-resize_4-target.png,1000,4.467,20,5139,1002,meters,jsons/v1_VE1000_randls_48.json,1218273,1375201,48,Man
91,326049,DepthScenes,duration_manipulation_targetAtFixation,jsons/v1_VE1000_randls_48.json,http://54.235.29.9/FacialAge/BNav_EC2/DepthDuration/v2_depth_duration_MTurk/v2_DepthDuration_HTML.html#81,81,1366,768,1366,768,8-22-2022,8-5-40,92,depth_duration_stimuli/001392_2014-06-19_16-07-59_260595134347_rgbf000046-resize_1/001392_2014-06-19_16-07-59_260595134347_rgbf000046-resize_1-target.png,1000,4.135,25,4115,1001,meters,jsons/v1_VE1000_randls_48.json,1218273,1375201,48,Man
92,326049,DepthScenes,duration_manipulation_targetAtFixation,jsons/v1_VE1000_randls_48.json,http://54.235.29.9/FacialAge/BNav_EC2/DepthDuration/v2_depth_duration_MTurk/v2_DepthDuration_HTML.html#81,81,1366,768,1366,768,8-22-2022,8-5-40,93,depth_duration_stimuli/001175_2014-06-17_15-45-55_260595134347_rgbf000129-resize_4/001175_2014-06-17_15-45-55_260595134347_rgbf000129-resize_4-target.png,1000,4.255,25,5070,986,meters,jsons/v1_VE1000_randls_48.json,1218273,1375201,48,Man
93,326049,DepthScenes,duration_manipulation_targetAtFixation,jsons/v1_VE1000_randls_48.json,http://54.235.29.9/FacialAge/BNav_EC2/DepthDuration/v2_depth_duration_MTurk/v2_DepthDuration_HTML.html#81,81,1366,768,1366,768,8-22-2022,8-5-40,94,depth_duration_stimuli/003490_2014-05-21_15-50-11_094959634447_rgbf000101-resize_3/003490_2014-05-21_15-50-11_094959634447_rgbf000101-resize_3-target.png,1000,3.6445,25,3930,997,meters,jsons/v1_VE1000_randls_48.json,1218273,1375201,48,Man
94,326049,DepthScenes,duration_manipulation_targetAtFixation,jsons/v1_VE1000_randls_48.json,http://54.235.29.9/FacialAge/BNav_EC2/DepthDuration/v2_depth_duration_MTurk/v2_DepthDuration_HTML.html#81,81,1366,768,1366,768,8-22-2022,8-5-40,95,depth_duration_stimuli/000692_2014-06-08_13-09-42_260595134347_rgbf000199-resize_2/000692_2014-06-08_13-09-42_260595134347_rgbf000199-resize_2-target.png,1000,3.661,22,4626,1083,meters,jsons/v1_VE1000_randls_48.json,1218273,1375201,48,Man
95,326049,DepthScenes,duration_manipulation_targetAtFixation,jsons/v1_VE1000_randls_48.json,http://54.235.29.9/FacialAge/BNav_EC2/DepthDuration/v2_depth_duration_MTurk/v2_DepthDuration_HTML.html#81,81,1366,768,1366,768,8-22-2022,8-5-40,96,depth_duration_stimuli/001094_2014-06-15_17-36-00_260595134347_rgbf000205-resize_0/001094_2014-06-15_17-36-00_260595134347_rgbf000205-resize_0-target.png,1000,4.2175,25,4616,997,meters,jsons/v1_VE1000_randls_48.json,1218273,1375201,48,Man
96,326049,DepthScenes,duration_manipulation_targetAtFixation,jsons/v1_VE1000_randls_48.json,http://54.235.29.9/FacialAge/BNav_EC2/DepthDuration/v2_depth_duration_MTurk/v2_DepthDuration_HTML.html#81,81,1366,768,1366,768,8-22-2022,8-5-40,97,depth_duration_stimuli/000810_2014-06-08_17-20-01_260595134347_rgbf000105-resize_0/000810_2014-06-08_17-20-01_260595134347_rgbf000105-resize_0-target.png,1000,1.4865,22,4476,1010,meters,jsons/v1_VE1000_randls_48.json,1218273,1375201,48,Man
97,326049,DepthScenes,duration_manipulation_targetAtFixation,jsons/v1_VE1000_randls_48.json,http://54.235.29.9/FacialAge/BNav_EC2/DepthDuration/v2_depth_duration_MTurk/v2_DepthDuration_HTML.html#81,81,1366,768,1366,768,8-22-2022,8-5-40,98,depth_duration_stimuli/001214_2014-06-17_16-13-55_260595134347_rgbf000111-resize_0/001214_2014-06-17_16-13-55_260595134347_rgbf000111-resize_0-target.png,1000,2.6505,20,4735,1002,meters,jsons/v1_VE1000_randls_48.json,1218273,1375201,48,Man
98,326049,DepthScenes,duration_manipulation_targetAtFixation,jsons/v1_VE1000_randls_48.json,http://54.235.29.9/FacialAge/BNav_EC2/DepthDuration/v2_depth_duration_MTurk/v2_DepthDuration_HTML.html#81,81,1366,768,1366,768,8-22-2022,8-5-40,99,depth_duration_stimuli/001540_2014-06-20_17-01-05_260595134347_rgbf000086-resize_2/001540_2014-06-20_17-01-05_260595134347_rgbf000086-resize-original.jpg,1000,1.459,22,5662,1011,meters,jsons/v1_VE1000_randls_48.json,1218273,1375201,48,Man
99,326049,DepthScenes,duration_manipulation_targetAtFixation,jsons/v1_VE1000_randls_48.json,http://54.235.29.9/FacialAge/BNav_EC2/DepthDuration/v2_depth_duration_MTurk/v2_DepthDuration_HTML.html#81,81,1366,768,1366,768,8-22-2022,8-5-40,100,depth_duration_stimuli/001016_2014-06-09_16-16-10_260595134347_rgbf000112-resize_5/001016_2014-06-09_16-16-10_260595134347_rgbf000112-resize_5-target.png,1000,1.6565,20,4675,998,meters,jsons/v1_VE1000_randls_48.json,1218273,1375201,48,Man
100,326049,DepthScenes,duration_manipulation_targetAtFixation,jsons/v1_VE1000_randls_48.json,http://54.235.29.9/FacialAge/BNav_EC2/DepthDuration/v2_depth_duration_MTurk/v2_DepthDuration_HTML.html#81,81,1366,768,1366,768,8-22-2022,8-5-40,101,depth_duration_stimuli/002340_2014-06-28_20-05-46_260595134347_rgbf000113-resize_0/002340_2014-06-28_20-05-46_260595134347_rgbf000113-resize_0-target.png,1000,2.4735,22,4449,1033,meters,jsons/v1_VE1000_randls_48.json,1218273,1375201,48,Man
101,326049,DepthScenes,duration_manipulation_targetAtFixation,jsons/v1_VE1000_randls_48.json,http://54.235.29.9/FacialAge/BNav_EC2/DepthDuration/v2_depth_duration_MTurk/v2_DepthDuration_HTML.html#81,81,1366,768,1366,768,8-22-2022,8-5-40,102,depth_duration_stimuli/000739_2014-06-08_18-45-58_260595134347_rgbf000068-resize_1/000739_2014-06-08_18-45-58_260595134347_rgbf000068-resize_1-target.png,1000,3.534,25,4190,997,meters,jsons/v1_VE1000_randls_48.json,1218273,1375201,48,Man
102,326049,DepthScenes,duration_manipulation_targetAtFixation,jsons/v1_VE1000_randls_48.json,http://54.235.29.9/FacialAge/BNav_EC2/DepthDuration/v2_depth_duration_MTurk/v2_DepthDuration_HTML.html#81,81,1366,768,1366,768,8-22-2022,8-5-40,103,depth_duration_stimuli/000734_2014-06-08_17-39-11_260595134347_rgbf000128-resize_2/000734_2014-06-08_17-39-11_260595134347_rgbf000128-resize_2-target.png,1000,4.098,25,3927,1000,meters,jsons/v1_VE1000_randls_48.json,1218273,1375201,48,Man
103,326049,DepthScenes,duration_manipulation_targetAtFixation,jsons/v1_VE1000_randls_48.json,http://54.235.29.9/FacialAge/BNav_EC2/DepthDuration/v2_depth_duration_MTurk/v2_DepthDuration_HTML.html#81,81,1366,768,1366,768,8-22-2022,8-5-40,104,depth_duration_stimuli/000009_2014-05-26_14-32-05_260595134347_rgbf000034-resize_3/000009_2014-05-26_14-32-05_260595134347_rgbf000034-resize_3-target.png,1000,3.8715,25,5893,998,meters,jsons/v1_VE1000_randls_48.json,1218273,1375201,48,Man
104,326049,DepthScenes,duration_manipulation_targetAtFixation,jsons/v1_VE1000_randls_48.json,http://54.235.29.9/FacialAge/BNav_EC2/DepthDuration/v2_depth_duration_MTurk/v2_DepthDuration_HTML.html#81,81,1366,768,1366,768,8-22-2022,8-5-40,105,depth_duration_stimuli/001828_2014-06-26_21-40-03_260595134347_rgbf000024-resize_0/001828_2014-06-26_21-40-03_260595134347_rgbf000024-resize_0-target.png,1000,4.8260000000000005,25,4145,993,meters,jsons/v1_VE1000_randls_48.json,1218273,1375201,48,Man
105,326049,DepthScenes,duration_manipulation_targetAtFixation,jsons/v1_VE1000_randls_48.json,http://54.235.29.9/FacialAge/BNav_EC2/DepthDuration/v2_depth_duration_MTurk/v2_DepthDuration_HTML.html#81,81,1366,768,1366,768,8-22-2022,8-5-40,106,depth_duration_stimuli/000506_2014-06-08_23-21-00_260595134347_rgbf000070-resize_7/000506_2014-06-08_23-21-00_260595134347_rgbf000070-resize_7-target.png,1000,4.0585,20,4705,1008,meters,jsons/v1_VE1000_randls_48.json,1218273,1375201,48,Man
106,326049,DepthScenes,duration_manipulation_targetAtFixation,jsons/v1_VE1000_randls_48.json,http://54.235.29.9/FacialAge/BNav_EC2/DepthDuration/v2_depth_duration_MTurk/v2_DepthDuration_HTML.html#81,81,1366,768,1366,768,8-22-2022,8-5-40,107,depth_duration_stimuli/003079_2014-06-15_15-18-20_094959634447_rgbf000152-resize_8/003079_2014-06-15_15-18-20_094959634447_rgbf000152-resize_8-target.png,1000,2.8775,25,5023,1000,meters,jsons/v1_VE1000_randls_48.json,1218273,1375201,48,Man
107,326049,DepthScenes,duration_manipulation_targetAtFixation,jsons/v1_VE1000_randls_48.json,http://54.235.29.9/FacialAge/BNav_EC2/DepthDuration/v2_depth_duration_MTurk/v2_DepthDuration_HTML.html#81,81,1366,768,1366,768,8-22-2022,8-5-40,108,depth_duration_stimuli/000878_2014-06-08_22-52-45_260595134347_rgbf000045-resize_2/000878_2014-06-08_22-52-45_260595134347_rgbf000045-resize_2-target.png,1000,2.092,20,4454,998,meters,jsons/v1_VE1000_randls_48.json,1218273,1375201,48,Man
108,326049,DepthScenes,duration_manipulation_targetAtFixation,jsons/v1_VE1000_randls_48.json,http://54.235.29.9/FacialAge/BNav_EC2/DepthDuration/v2_depth_duration_MTurk/v2_DepthDuration_HTML.html#81,81,1366,768,1366,768,8-22-2022,8-5-40,109,depth_duration_stimuli/002953_2014-06-08_17-32-18_094959634447_rgbf000059-resize_5/002953_2014-06-08_17-32-18_094959634447_rgbf000059-resize_5-target.png,1000,1.551,20,4551,985,meters,jsons/v1_VE1000_randls_48.json,1218273,1375201,48,Man
109,326049,DepthScenes,duration_manipulation_targetAtFixation,jsons/v1_VE1000_randls_48.json,http://54.235.29.9/FacialAge/BNav_EC2/DepthDuration/v2_depth_duration_MTurk/v2_DepthDuration_HTML.html#81,81,1366,768,1366,768,8-22-2022,8-5-40,110,depth_duration_stimuli/000470_2014-06-09_19-42-40_260595134347_rgbf000094-resize_1/000470_2014-06-09_19-42-40_260595134347_rgbf000094-resize_1-target.png,1000,1.831,52,5066,995,meters,jsons/v1_VE1000_randls_48.json,1218273,1375201,48,Man
110,326049,DepthScenes,duration_manipulation_targetAtFixation,jsons/v1_VE1000_randls_48.json,http://54.235.29.9/FacialAge/BNav_EC2/DepthDuration/v2_depth_duration_MTurk/v2_DepthDuration_HTML.html#81,81,1366,768,1366,768,8-22-2022,8-5-40,111,depth_duration_stimuli/000109_2014-05-14_23-41-52_260595134347_rgbf000035-resize_9/000109_2014-05-14_23-41-52_260595134347_rgbf000035-resize_9-target.png,1000,1.3545,25,3125,992,meters,jsons/v1_VE1000_randls_48.json,1218273,1375201,48,Man
111,326049,DepthScenes,duration_manipulation_targetAtFixation,jsons/v1_VE1000_randls_48.json,http://54.235.29.9/FacialAge/BNav_EC2/DepthDuration/v2_depth_duration_MTurk/v2_DepthDuration_HTML.html#81,81,1366,768,1366,768,8-22-2022,8-5-40,112,depth_duration_stimuli/000642_2014-06-08_16-59-25_260595134347_rgbf000098-resize_2/000642_2014-06-08_16-59-25_260595134347_rgbf000098-resize_2-target.png,1000,2.8815,25,3516,998,meters,jsons/v1_VE1000_randls_48.json,1218273,1375201,48,Man
112,326049,DepthScenes,duration_manipulation_targetAtFixation,jsons/v1_VE1000_randls_48.json,http://54.235.29.9/FacialAge/BNav_EC2/DepthDuration/v2_depth_duration_MTurk/v2_DepthDuration_HTML.html#81,81,1366,768,1366,768,8-22-2022,8-5-40,113,depth_duration_stimuli/002425_2014-06-28_20-27-29_260595134347_rgbf000031-resize_8/002425_2014-06-28_20-27-29_260595134347_rgbf000031-resize_8-target.png,1000,3.8960000000000004,25,3579,1004,meters,jsons/v1_VE1000_randls_48.json,1218273,1375201,48,Man
113,326049,DepthScenes,duration_manipulation_targetAtFixation,jsons/v1_VE1000_randls_48.json,http://54.235.29.9/FacialAge/BNav_EC2/DepthDuration/v2_depth_duration_MTurk/v2_DepthDuration_HTML.html#81,81,1366,768,1366,768,8-22-2022,8-5-40,114,depth_duration_stimuli/002964_2014-06-08_17-46-11_094959634447_rgbf000091-resize_4/002964_2014-06-08_17-46-11_094959634447_rgbf000091-resize_4-target.png,1000,1.6909999999999998,25,3712,996,meters,jsons/v1_VE1000_randls_48.json,1218273,1375201,48,Man
114,326049,DepthScenes,duration_manipulation_targetAtFixation,jsons/v1_VE1000_randls_48.json,http://54.235.29.9/FacialAge/BNav_EC2/DepthDuration/v2_depth_duration_MTurk/v2_DepthDuration_HTML.html#81,81,1366,768,1366,768,8-22-2022,8-5-40,115,depth_duration_stimuli/002136_2014-06-25_21-18-03_260595134347_rgbf000109-resize_3/002136_2014-06-25_21-18-03_260595134347_rgbf000109-resize_3-target.png,1000,1.9569999999999999,25,4705,996,meters,jsons/v1_VE1000_randls_48.json,1218273,1375201,48,Man
115,326049,DepthScenes,duration_manipulation_targetAtFixation,jsons/v1_VE1000_randls_48.json,http://54.235.29.9/FacialAge/BNav_EC2/DepthDuration/v2_depth_duration_MTurk/v2_DepthDuration_HTML.html#81,81,1366,768,1366,768,8-22-2022,8-5-40,116,depth_duration_stimuli/001170_2014-06-17_15-43-44_260595134347_rgbf000096-resize_6/001170_2014-06-17_15-43-44_260595134347_rgbf000096-resize-original.jpg,1000,1.1909999999999998,25,4126,989,meters,jsons/v1_VE1000_randls_48.json,1218273,1375201,48,Man
116,326049,DepthScenes,duration_manipulation_targetAtFixation,jsons/v1_VE1000_randls_48.json,http://54.235.29.9/FacialAge/BNav_EC2/DepthDuration/v2_depth_duration_MTurk/v2_DepthDuration_HTML.html#81,81,1366,768,1366,768,8-22-2022,8-5-40,117,depth_duration_stimuli/002043_2014-06-24_20-29-38_260595134347_rgbf000039-resize_4/002043_2014-06-24_20-29-38_260595134347_rgbf000039-resize_4-target.png,1000,2.8435,25,3522,992,meters,jsons/v1_VE1000_randls_48.json,1218273,1375201,48,Man
117,326049,DepthScenes,duration_manipulation_targetAtFixation,jsons/v1_VE1000_randls_48.json,http://54.235.29.9/FacialAge/BNav_EC2/DepthDuration/v2_depth_duration_MTurk/v2_DepthDuration_HTML.html#81,81,1366,768,1366,768,8-22-2022,8-5-40,118,depth_duration_stimuli/003048_2014-06-15_13-49-43_094959634447_rgbf000150-resize_1/003048_2014-06-15_13-49-43_094959634447_rgbf000150-resize_1-target.png,1000,4.0035,25,3455,986,meters,jsons/v1_VE1000_randls_48.json,1218273,1375201,48,Man
118,326049,DepthScenes,duration_manipulation_targetAtFixation,jsons/v1_VE1000_randls_48.json,http://54.235.29.9/FacialAge/BNav_EC2/DepthDuration/v2_depth_duration_MTurk/v2_DepthDuration_HTML.html#81,81,1366,768,1366,768,8-22-2022,8-5-40,119,depth_duration_stimuli/002039_2014-06-24_20-22-38_260595134347_rgbf000084-resize_1/002039_2014-06-24_20-22-38_260595134347_rgbf000084-resize_1-target.png,1000,4.408,25,4173,986,meters,jsons/v1_VE1000_randls_48.json,1218273,1375201,48,Man
119,326049,DepthScenes,duration_manipulation_targetAtFixation,jsons/v1_VE1000_randls_48.json,http://54.235.29.9/FacialAge/BNav_EC2/DepthDuration/v2_depth_duration_MTurk/v2_DepthDuration_HTML.html#81,81,1366,768,1366,768,8-22-2022,8-5-40,120,depth_duration_stimuli/002103_2014-06-25_20-00-40_260595134347_rgbf000049-resize_0/002103_2014-06-25_20-00-40_260595134347_rgbf000049-resize_0-target.png,1000,4.105,25,3088,998,meters,jsons/v1_VE1000_randls_48.json,1218273,1375201,48,Man
120,326049,DepthScenes,duration_manipulation_targetAtFixation,jsons/v1_VE1000_randls_48.json,http://54.235.29.9/FacialAge/BNav_EC2/DepthDuration/v2_depth_duration_MTurk/v2_DepthDuration_HTML.html#81,81,1366,768,1366,768,8-22-2022,8-5-40,121,depth_duration_stimuli/003534_2014-05-22_15-06-10_094959634447_rgbf000102-resize_4/003534_2014-05-22_15-06-10_094959634447_rgbf000102-resize_4-target.png,1000,1.426,2,4980,984,meters,jsons/v1_VE1000_randls_48.json,1218273,1375201,48,Man
121,326049,DepthScenes,duration_manipulation_targetAtFixation,jsons/v1_VE1000_randls_48.json,http://54.235.29.9/FacialAge/BNav_EC2/DepthDuration/v2_depth_duration_MTurk/v2_DepthDuration_HTML.html#81,81,1366,768,1366,768,8-22-2022,8-5-40,122,depth_duration_stimuli/002637_2014-06-24_14-51-13_094959634447_rgbf000066-resize_4/002637_2014-06-24_14-51-13_094959634447_rgbf000066-resize_4-target.png,1000,1.9955,25,3663,995,meters,jsons/v1_VE1000_randls_48.json,1218273,1375201,48,Man
122,326049,DepthScenes,duration_manipulation_targetAtFixation,jsons/v1_VE1000_randls_48.json,http://54.235.29.9/FacialAge/BNav_EC2/DepthDuration/v2_depth_duration_MTurk/v2_DepthDuration_HTML.html#81,81,1366,768,1366,768,8-22-2022,8-5-40,123,depth_duration_stimuli/001199_2014-06-17_16-03-48_260595134347_rgbf000077-resize_0/001199_2014-06-17_16-03-48_260595134347_rgbf000077-resize_0-target.png,1000,3.4375,25,3923,1009,meters,jsons/v1_VE1000_randls_48.json,1218273,1375201,48,Man
123,326049,DepthScenes,duration_manipulation_targetAtFixation,jsons/v1_VE1000_randls_48.json,http://54.235.29.9/FacialAge/BNav_EC2/DepthDuration/v2_depth_duration_MTurk/v2_DepthDuration_HTML.html#81,81,1366,768,1366,768,8-22-2022,8-5-40,124,depth_duration_stimuli/000502_2014-06-08_23-02-32_260595134347_rgbf000063-resize_4/000502_2014-06-08_23-02-32_260595134347_rgbf000063-resize_4-target.png,1000,2.431,25,4407,1002,meters,jsons/v1_VE1000_randls_48.json,1218273,1375201,48,Man
124,326049,DepthScenes,duration_manipulation_targetAtFixation,jsons/v1_VE1000_randls_48.json,http://54.235.29.9/FacialAge/BNav_EC2/DepthDuration/v2_depth_duration_MTurk/v2_DepthDuration_HTML.html#81,81,1366,768,1366,768,8-22-2022,8-5-40,125,depth_duration_stimuli/000469_2014-06-09_19-42-10_260595134347_rgbf000081-resize_1/000469_2014-06-09_19-42-10_260595134347_rgbf000081-resize_1-target.png,1000,1.652,25,3840,992,meters,jsons/v1_VE1000_randls_48.json,1218273,1375201,48,Man
125,326049,DepthScenes,duration_manipulation_targetAtFixation,jsons/v1_VE1000_randls_48.json,http://54.235.29.9/FacialAge/BNav_EC2/DepthDuration/v2_depth_duration_MTurk/v2_DepthDuration_HTML.html#81,81,1366,768,1366,768,8-22-2022,8-5-40,126,depth_duration_stimuli/000483_2014-06-09_20-41-45_260595134347_rgbf000116-resize_4/000483_2014-06-09_20-41-45_260595134347_rgbf000116-resize_4-target.png,1000,1.337,25,3295,1004,meters,jsons/v1_VE1000_randls_48.json,1218273,1375201,48,Man
126,326049,DepthScenes,duration_manipulation_targetAtFixation,jsons/v1_VE1000_randls_48.json,http://54.235.29.9/FacialAge/BNav_EC2/DepthDuration/v2_depth_duration_MTurk/v2_DepthDuration_HTML.html#81,81,1366,768,1366,768,8-22-2022,8-5-40,127,depth_duration_stimuli/000758_2014-06-08_22-05-08_260595134347_rgbf000085-resize_0/000758_2014-06-08_22-05-08_260595134347_rgbf000085-resize_0-target.png,1000,3.3810000000000002,25,3633,999,meters,jsons/v1_VE1000_randls_48.json,1218273,1375201,48,Man
127,326049,DepthScenes,duration_manipulation_targetAtFixation,jsons/v1_VE1000_randls_48.json,http://54.235.29.9/FacialAge/BNav_EC2/DepthDuration/v2_depth_duration_MTurk/v2_DepthDuration_HTML.html#81,81,1366,768,1366,768,8-22-2022,8-5-40,128,depth_duration_stimuli/000854_2014-06-09_19-43-13_260595134347_rgbf000066-resize_0/000854_2014-06-09_19-43-13_260595134347_rgbf000066-resize_0-target.png,1000,3.068,25,3015,999,meters,jsons/v1_VE1000_randls_48.json,1218273,1375201,48,Man
128,326049,DepthScenes,duration_manipulation_targetAtFixation,jsons/v1_VE1000_randls_48.json,http://54.235.29.9/FacialAge/BNav_EC2/DepthDuration/v2_depth_duration_MTurk/v2_DepthDuration_HTML.html#81,81,1366,768,1366,768,8-22-2022,8-5-40,129,depth_duration_stimuli/002118_2014-06-25_20-32-08_260595134347_rgbf000078-resize_1/002118_2014-06-25_20-32-08_260595134347_rgbf000078-resize_1-target.png,1000,2.6460000000000004,25,3233,995,meters,jsons/v1_VE1000_randls_48.json,1218273,1375201,48,Man
129,326049,DepthScenes,duration_manipulation_targetAtFixation,jsons/v1_VE1000_randls_48.json,http://54.235.29.9/FacialAge/BNav_EC2/DepthDuration/v2_depth_duration_MTurk/v2_DepthDuration_HTML.html#81,81,1366,768,1366,768,8-22-2022,8-5-40,130,depth_duration_stimuli/001516_2014-06-20_16-25-09_260595134347_rgbf000076-resize_2/001516_2014-06-20_16-25-09_260595134347_rgbf000076-resize_2-target.png,1000,1.7445,25,2866,1005,meters,jsons/v1_VE1000_randls_48.json,1218273,1375201,48,Man
130,326049,DepthScenes,duration_manipulation_targetAtFixation,jsons/v1_VE1000_randls_48.json,http://54.235.29.9/FacialAge/BNav_EC2/DepthDuration/v2_depth_duration_MTurk/v2_DepthDuration_HTML.html#81,81,1366,768,1366,768,8-22-2022,8-5-40,131,depth_duration_stimuli/001810_2014-06-26_20-51-35_260595134347_rgbf000040-resize_3/001810_2014-06-26_20-51-35_260595134347_rgbf000040-resize_3-target.png,1000,2.2525,25,16891,1011,meters,jsons/v1_VE1000_randls_48.json,1218273,1375201,48,Man
131,326049,DepthScenes,duration_manipulation_targetAtFixation,jsons/v1_VE1000_randls_48.json,http://54.235.29.9/FacialAge/BNav_EC2/DepthDuration/v2_depth_duration_MTurk/v2_DepthDuration_HTML.html#81,81,1366,768,1366,768,8-22-2022,8-5-40,132,depth_duration_stimuli/003010_2014-06-15_12-54-35_094959634447_rgbf000112-resize_0/003010_2014-06-15_12-54-35_094959634447_rgbf000112-resize_0-target.png,1000,3.1185,22,12163,1006,meters,jsons/v1_VE1000_randls_48.json,1218273,1375201,48,Man
132,326049,DepthScenes,duration_manipulation_targetAtFixation,jsons/v1_VE1000_randls_48.json,http://54.235.29.9/FacialAge/BNav_EC2/DepthDuration/v2_depth_duration_MTurk/v2_DepthDuration_HTML.html#81,81,1366,768,1366,768,8-22-2022,8-5-40,133,depth_duration_stimuli/002375_2014-06-28_20-13-44_260595134347_rgbf000032-resize_1/002375_2014-06-28_20-13-44_260595134347_rgbf000032-resize_1-target.png,1000,4.0175,24,3486,980,meters,jsons/v1_VE1000_randls_48.json,1218273,1375201,48,Man
133,326049,DepthScenes,duration_manipulation_targetAtFixation,jsons/v1_VE1000_randls_48.json,http://54.235.29.9/FacialAge/BNav_EC2/DepthDuration/v2_depth_duration_MTurk/v2_DepthDuration_HTML.html#81,81,1366,768,1366,768,8-22-2022,8-5-40,134,depth_duration_stimuli/002657_2014-06-13_15-29-54_094959634447_rgbf000150-resize_1/002657_2014-06-13_15-29-54_094959634447_rgbf000150-resize_1-target.png,1000,4.919,24,5751,915,meters,jsons/v1_VE1000_randls_48.json,1218273,1375201,48,Man
134,326049,DepthScenes,duration_manipulation_targetAtFixation,jsons/v1_VE1000_randls_48.json,http://54.235.29.9/FacialAge/BNav_EC2/DepthDuration/v2_depth_duration_MTurk/v2_DepthDuration_HTML.html#81,81,1366,768,1366,768,8-22-2022,8-5-40,135,depth_duration_stimuli/002072_2014-06-24_21-48-06_260595134347_rgbf000115-resize_0/002072_2014-06-24_21-48-06_260595134347_rgbf000115-resize-original.jpg,1000,4.702,24,5346,1007,meters,jsons/v1_VE1000_randls_48.json,1218273,1375201,48,Man
135,326049,DepthScenes,duration_manipulation_targetAtFixation,jsons/v1_VE1000_randls_48.json,http://54.235.29.9/FacialAge/BNav_EC2/DepthDuration/v2_depth_duration_MTurk/v2_DepthDuration_HTML.html#81,81,1366,768,1366,768,8-22-2022,8-5-40,136,depth_duration_stimuli/001244_2014-06-17_16-47-45_260595134347_rgbf000030-resize_4/001244_2014-06-17_16-47-45_260595134347_rgbf000030-resize_4-target.png,1000,2.0425,24,3715,994,meters,jsons/v1_VE1000_randls_48.json,1218273,1375201,48,Man
136,326049,DepthScenes,duration_manipulation_targetAtFixation,jsons/v1_VE1000_randls_48.json,http://54.235.29.9/FacialAge/BNav_EC2/DepthDuration/v2_depth_duration_MTurk/v2_DepthDuration_HTML.html#81,81,1366,768,1366,768,8-22-2022,8-5-40,137,depth_duration_stimuli/003495_2014-05-21_16-01-51_094959634447_rgbf000100-resize_3/003495_2014-05-21_16-01-51_094959634447_rgbf000100-resize_3-target.png,1000,1.6255,24,3181,1009,meters,jsons/v1_VE1000_randls_48.json,1218273,1375201,48,Man
137,326049,DepthScenes,duration_manipulation_targetAtFixation,jsons/v1_VE1000_randls_48.json,http://54.235.29.9/FacialAge/BNav_EC2/DepthDuration/v2_depth_duration_MTurk/v2_DepthDuration_HTML.html#81,81,1366,768,1366,768,8-22-2022,8-5-40,138,depth_duration_stimuli/001806_2014-06-26_20-50-20_260595134347_rgbf000091-resize_1/001806_2014-06-26_20-50-20_260595134347_rgbf000091-resize_1-target.png,1000,2.7305,24,4657,990,meters,jsons/v1_VE1000_randls_48.json,1218273,1375201,48,Man
138,326049,DepthScenes,duration_manipulation_targetAtFixation,jsons/v1_VE1000_randls_48.json,http://54.235.29.9/FacialAge/BNav_EC2/DepthDuration/v2_depth_duration_MTurk/v2_DepthDuration_HTML.html#81,81,1366,768,1366,768,8-22-2022,8-5-40,139,depth_duration_stimuli/001617_2014-06-20_11-35-32_260595134347_rgbf000066-resize_1/001617_2014-06-20_11-35-32_260595134347_rgbf000066-resize_1-target.png,1000,3.7910000000000004,24,3952,998,meters,jsons/v1_VE1000_randls_48.json,1218273,1375201,48,Man
139,326049,DepthScenes,duration_manipulation_targetAtFixation,jsons/v1_VE1000_randls_48.json,http://54.235.29.9/FacialAge/BNav_EC2/DepthDuration/v2_depth_duration_MTurk/v2_DepthDuration_HTML.html#81,81,1366,768,1366,768,8-22-2022,8-5-40,140,depth_duration_stimuli/001150_2014-06-17_15-27-34_260595134347_rgbf000108-resize_2/001150_2014-06-17_15-27-34_260595134347_rgbf000108-resize_2-target.png,1000,4.0325,24,3717,1000,meters,jsons/v1_VE1000_randls_48.json,1218273,1375201,48,Man
140,326049,DepthScenes,duration_manipulation_targetAtFixation,jsons/v1_VE1000_randls_48.json,http://54.235.29.9/FacialAge/BNav_EC2/DepthDuration/v2_depth_duration_MTurk/v2_DepthDuration_HTML.html#81,81,1366,768,1366,768,8-22-2022,8-5-40,141,depth_duration_stimuli/000665_2014-06-09_20-42-35_260595134347_rgbf000110-resize_1/000665_2014-06-09_20-42-35_260595134347_rgbf000110-resize_1-target.png,1000,3.057,24,5203,987,meters,jsons/v1_VE1000_randls_48.json,1218273,1375201,48,Man
141,326049,DepthScenes,duration_manipulation_targetAtFixation,jsons/v1_VE1000_randls_48.json,http://54.235.29.9/FacialAge/BNav_EC2/DepthDuration/v2_depth_duration_MTurk/v2_DepthDuration_HTML.html#81,81,1366,768,1366,768,8-22-2022,8-5-40,142,depth_duration_stimuli/000522_2014-06-08_13-35-06_260595134347_rgbf000244-resize_1/000522_2014-06-08_13-35-06_260595134347_rgbf000244-resize_1-target.png,1000,2.3715,24,6473,1020,meters,jsons/v1_VE1000_randls_48.json,1218273,1375201,48,Man
142,326049,DepthScenes,duration_manipulation_targetAtFixation,jsons/v1_VE1000_randls_48.json,http://54.235.29.9/FacialAge/BNav_EC2/DepthDuration/v2_depth_duration_MTurk/v2_DepthDuration_HTML.html#81,81,1366,768,1366,768,8-22-2022,8-5-40,143,depth_duration_stimuli/002949_2014-06-26_15-57-42_094959634447_rgbf000079-resize_1/002949_2014-06-26_15-57-42_094959634447_rgbf000079-resize_1-target.png,1000,1.8915,24,3143,989,meters,jsons/v1_VE1000_randls_48.json,1218273,1375201,48,Man
143,326049,DepthScenes,duration_manipulation_targetAtFixation,jsons/v1_VE1000_randls_48.json,http://54.235.29.9/FacialAge/BNav_EC2/DepthDuration/v2_depth_duration_MTurk/v2_DepthDuration_HTML.html#81,81,1366,768,1366,768,8-22-2022,8-5-40,144,depth_duration_stimuli/000906_2014-06-08_13-35-43_260595134347_rgbf000155-resize_1/000906_2014-06-08_13-35-43_260595134347_rgbf000155-resize_1-target.png,1000,2.8489999999999998,24,3371,1004,meters,jsons/v1_VE1000_randls_48.json,1218273,1375201,48,Man
144,326049,DepthScenes,duration_manipulation_targetAtFixation,jsons/v1_VE1000_randls_48.json,http://54.235.29.9/FacialAge/BNav_EC2/DepthDuration/v2_depth_duration_MTurk/v2_DepthDuration_HTML.html#81,81,1366,768,1366,768,8-22-2022,8-5-40,145,depth_duration_stimuli/002805_2014-06-22_19-54-03_094959634447_rgbf000079-resize_1/002805_2014-06-22_19-54-03_094959634447_rgbf000079-resize_1-target.png,1000,3.1439999999999997,24,3796,1004,meters,jsons/v1_VE1000_randls_48.json,1218273,1375201,48,Man
145,326049,DepthScenes,duration_manipulation_targetAtFixation,jsons/v1_VE1000_randls_48.json,http://54.235.29.9/FacialAge/BNav_EC2/DepthDuration/v2_depth_duration_MTurk/v2_DepthDuration_HTML.html#81,81,1366,768,1366,768,8-22-2022,8-5-40,146,depth_duration_stimuli/001498_2014-06-19_17-45-14_260595134347_rgbf000129-resize_4/001498_2014-06-19_17-45-14_260595134347_rgbf000129-resize-original.jpg,1000,1.4075,24,29133,997,meters,jsons/v1_VE1000_randls_48.json,1218273,1375201,48,Man
146,326049,DepthScenes,duration_manipulation_targetAtFixation,jsons/v1_VE1000_randls_48.json,http://54.235.29.9/FacialAge/BNav_EC2/DepthDuration/v2_depth_duration_MTurk/v2_DepthDuration_HTML.html#81,81,1366,768,1366,768,8-22-2022,8-5-40,147,depth_duration_stimuli/001449_2014-06-19_17-01-27_260595134347_rgbf000116-resize_2/001449_2014-06-19_17-01-27_260595134347_rgbf000116-resize_2-target.png,1000,3.452,24,4105,1006,meters,jsons/v1_VE1000_randls_48.json,1218273,1375201,48,Man
147,326049,DepthScenes,duration_manipulation_targetAtFixation,jsons/v1_VE1000_randls_48.json,http://54.235.29.9/FacialAge/BNav_EC2/DepthDuration/v2_depth_duration_MTurk/v2_DepthDuration_HTML.html#81,81,1366,768,1366,768,8-22-2022,8-5-40,148,depth_duration_stimuli/001450_2014-06-19_17-02-03_260595134347_rgbf000203-resize_4/001450_2014-06-19_17-02-03_260595134347_rgbf000203-resize_4-target.png,1000,4.0106666666667,24,2939,999,meters,jsons/v1_VE1000_randls_48.json,1218273,1375201,48,Man
148,326049,DepthScenes,duration_manipulation_targetAtFixation,jsons/v1_VE1000_randls_48.json,http://54.235.29.9/FacialAge/BNav_EC2/DepthDuration/v2_depth_duration_MTurk/v2_DepthDuration_HTML.html#81,81,1366,768,1366,768,8-22-2022,8-5-40,149,depth_duration_stimuli/002988_2014-06-15_12-24-20_094959634447_rgbf000150-resize_1/002988_2014-06-15_12-24-20_094959634447_rgbf000150-resize_1-target.png,1000,4.7669999999999995,24,3804,1001,meters,jsons/v1_VE1000_randls_48.json,1218273,1375201,48,Man
149,326049,DepthScenes,duration_manipulation_targetAtFixation,jsons/v1_VE1000_randls_48.json,http://54.235.29.9/FacialAge/BNav_EC2/DepthDuration/v2_depth_duration_MTurk/v2_DepthDuration_HTML.html#81,81,1366,768,1366,768,8-22-2022,8-5-40,150,depth_duration_stimuli/001052_2014-06-08_18-24-54_260595134347_rgbf000130-resize_1/001052_2014-06-08_18-24-54_260595134347_rgbf000130-resize_1-target.png,1000,4.1045,24,2811,998,meters,jsons/v1_VE1000_randls_48.json,1218273,1375201,48,Man
150,326049,DepthScenes,duration_manipulation_targetAtFixation,jsons/v1_VE1000_randls_48.json,http://54.235.29.9/FacialAge/BNav_EC2/DepthDuration/v2_depth_duration_MTurk/v2_DepthDuration_HTML.html#81,81,1366,768,1366,768,8-22-2022,8-5-40,151,depth_duration_stimuli/002905_2014-06-03_18-04-43_094959634447_rgbf000151-resize_2/002905_2014-06-03_18-04-43_094959634447_rgbf000151-resize_2-target.png,1000,2.0295,24,3553,1027,meters,jsons/v1_VE1000_randls_48.json,1218273,1375201,48,Man
151,326049,DepthScenes,duration_manipulation_targetAtFixation,jsons/v1_VE1000_randls_48.json,http://54.235.29.9/FacialAge/BNav_EC2/DepthDuration/v2_depth_duration_MTurk/v2_DepthDuration_HTML.html#81,81,1366,768,1366,768,8-22-2022,8-5-40,152,depth_duration_stimuli/003423_2014-05-21_10-23-26_094959634447_rgbf002665-resize_2/003423_2014-05-21_10-23-26_094959634447_rgbf002665-resize_2-target.png,1000,3.2575,24,2733,987,meters,jsons/v1_VE1000_randls_48.json,1218273,1375201,48,Man
152,326049,DepthScenes,duration_manipulation_targetAtFixation,jsons/v1_VE1000_randls_48.json,http://54.235.29.9/FacialAge/BNav_EC2/DepthDuration/v2_depth_duration_MTurk/v2_DepthDuration_HTML.html#81,81,1366,768,1366,768,8-22-2022,8-5-40,153,depth_duration_stimuli/002213_2014-06-28_18-37-58_260595134347_rgbf000055-resize_1/002213_2014-06-28_18-37-58_260595134347_rgbf000055-resize_1-target.png,1000,3.62,24,3305,998,meters,jsons/v1_VE1000_randls_48.json,1218273,1375201,48,Man
153,326049,DepthScenes,duration_manipulation_targetAtFixation,jsons/v1_VE1000_randls_48.json,http://54.235.29.9/FacialAge/BNav_EC2/DepthDuration/v2_depth_duration_MTurk/v2_DepthDuration_HTML.html#81,81,1366,768,1366,768,8-22-2022,8-5-40,154,depth_duration_stimuli/000691_2014-06-08_13-08-50_260595134347_rgbf000132-resize_3/000691_2014-06-08_13-08-50_260595134347_rgbf000132-resize_3-target.png,1000,4.1530000000000005,24,2969,998,meters,jsons/v1_VE1000_randls_48.json,1218273,1375201,48,Man
154,326049,DepthScenes,duration_manipulation_targetAtFixation,jsons/v1_VE1000_randls_48.json,http://54.235.29.9/FacialAge/BNav_EC2/DepthDuration/v2_depth_duration_MTurk/v2_DepthDuration_HTML.html#81,81,1366,768,1366,768,8-22-2022,8-5-40,155,depth_duration_stimuli/000447_2014-06-08_16-15-46_260595134347_rgbf000130-resize_1/000447_2014-06-08_16-15-46_260595134347_rgbf000130-resize_1-target.png,1000,4.479,24,3334,1004,meters,jsons/v1_VE1000_randls_48.json,1218273,1375201,48,Man
155,326049,DepthScenes,duration_manipulation_targetAtFixation,jsons/v1_VE1000_randls_48.json,http://54.235.29.9/FacialAge/BNav_EC2/DepthDuration/v2_depth_duration_MTurk/v2_DepthDuration_HTML.html#81,81,1366,768,1366,768,8-22-2022,8-5-40,156,depth_duration_stimuli/001447_2014-06-19_17-00-32_260595134347_rgbf000082-resize_5/001447_2014-06-19_17-00-32_260595134347_rgbf000082-resize_5-target.png,1000,4.13775,24,2724,848,meters,jsons/v1_VE1000_randls_48.json,1218273,1375201,48,Man
156,326049,DepthScenes,duration_manipulation_targetAtFixation,jsons/v1_VE1000_randls_48.json,http://54.235.29.9/FacialAge/BNav_EC2/DepthDuration/v2_depth_duration_MTurk/v2_DepthDuration_HTML.html#81,81,1366,768,1366,768,8-22-2022,8-5-40,157,depth_duration_stimuli/002600_2014-06-24_14-27-04_094959634447_rgbf000074-resize_2/002600_2014-06-24_14-27-04_094959634447_rgbf000074-resize_2-target.png,1000,2.7575,25,3102,995,meters,jsons/v1_VE1000_randls_48.json,1218273,1375201,48,Man
157,326049,DepthScenes,duration_manipulation_targetAtFixation,jsons/v1_VE1000_randls_48.json,http://54.235.29.9/FacialAge/BNav_EC2/DepthDuration/v2_depth_duration_MTurk/v2_DepthDuration_HTML.html#81,81,1366,768,1366,768,8-22-2022,8-5-40,158,depth_duration_stimuli/003228_2014-05-14_13-42-35_094959634447_rgbf000101-resize_1/003228_2014-05-14_13-42-35_094959634447_rgbf000101-resize_1-target.png,1000,1.9680000000000002,21,2939,1022,meters,jsons/v1_VE1000_randls_48.json,1218273,1375201,48,Man
158,326049,DepthScenes,duration_manipulation_targetAtFixation,jsons/v1_VE1000_randls_48.json,http://54.235.29.9/FacialAge/BNav_EC2/DepthDuration/v2_depth_duration_MTurk/v2_DepthDuration_HTML.html#81,81,1366,768,1366,768,8-22-2022,8-5-40,159,depth_duration_stimuli/002630_2014-06-24_14-47-50_094959634447_rgbf000055-resize_1/002630_2014-06-24_14-47-50_094959634447_rgbf000055-resize_1-target.png,1000,3.0095,21,3287,992,meters,jsons/v1_VE1000_randls_48.json,1218273,1375201,48,Man
159,326049,DepthScenes,duration_manipulation_targetAtFixation,jsons/v1_VE1000_randls_48.json,http://54.235.29.9/FacialAge/BNav_EC2/DepthDuration/v2_depth_duration_MTurk/v2_DepthDuration_HTML.html#81,81,1366,768,1366,768,8-22-2022,8-5-40,160,depth_duration_stimuli/002758_2014-06-22_19-11-20_094959634447_rgbf000128-resize_1/002758_2014-06-22_19-11-20_094959634447_rgbf000128-resize_1-target.png,1000,2.555,21,2675,984,meters,jsons/v1_VE1000_randls_48.json,1218273,1375201,48,Man
160,326049,DepthScenes,duration_manipulation_targetAtFixation,jsons/v1_VE1000_randls_48.json,http://54.235.29.9/FacialAge/BNav_EC2/DepthDuration/v2_depth_duration_MTurk/v2_DepthDuration_HTML.html#81,81,1366,768,1366,768,8-22-2022,8-5-40,161,depth_duration_stimuli/002279_2014-06-28_18-55-32_260595134347_rgbf000040-resize_5/002279_2014-06-28_18-55-32_260595134347_rgbf000040-resize_5-target.png,1000,1.5043333333333,21,3411,1018,meters,jsons/v1_VE1000_randls_48.json,1218273,1375201,48,Man
161,326049,DepthScenes,duration_manipulation_targetAtFixation,jsons/v1_VE1000_randls_48.json,http://54.235.29.9/FacialAge/BNav_EC2/DepthDuration/v2_depth_duration_MTurk/v2_DepthDuration_HTML.html#81,81,1366,768,1366,768,8-22-2022,8-5-40,162,depth_duration_stimuli/000635_2014-06-08_16-38-42_260595134347_rgbf000106-resize_1/000635_2014-06-08_16-38-42_260595134347_rgbf000106-resize_1-target.png,1000,2.074,21,2941,1004,meters,jsons/v1_VE1000_randls_48.json,1218273,1375201,48,Man
162,326049,DepthScenes,duration_manipulation_targetAtFixation,jsons/v1_VE1000_randls_48.json,http://54.235.29.9/FacialAge/BNav_EC2/DepthDuration/v2_depth_duration_MTurk/v2_DepthDuration_HTML.html#81,81,1366,768,1366,768,8-22-2022,8-5-40,163,depth_duration_stimuli/002057_2014-06-24_21-00-13_260595134347_rgbf000120-resize_1/002057_2014-06-24_21-00-13_260595134347_rgbf000120-resize_1-target.png,1000,2.967,21,3762,997,meters,jsons/v1_VE1000_randls_48.json,1218273,1375201,48,Man
163,326049,DepthScenes,duration_manipulation_targetAtFixation,jsons/v1_VE1000_randls_48.json,http://54.235.29.9/FacialAge/BNav_EC2/DepthDuration/v2_depth_duration_MTurk/v2_DepthDuration_HTML.html#81,81,1366,768,1366,768,8-22-2022,8-5-40,164,depth_duration_stimuli/000709_2014-06-08_13-51-55_260595134347_rgbf000068-resize_3/000709_2014-06-08_13-51-55_260595134347_rgbf000068-resize_3-target.png,1000,1.8030000000000002,21,3299,994,meters,jsons/v1_VE1000_randls_48.json,1218273,1375201,48,Man
