,subjID,experimentName,versionName,sequenceName,url,selected_row,windowWidth,windowHeight,screenWidth,screenHeight,startDate,startTime,trial,stimulus,duration,actual_depth,depth_estimate,trial_RT,log_sceneDuration,unitSelection,seq_filepath,experimentTime,totalTime,age,gender
0,328135,DepthScenes,duration_manipulation_targetAtFixation,jsons/v1_VE1000_randls_74.json,http://54.235.29.9/FacialAge/BNav_EC2/DepthDuration/v2_depth_duration_MTurk/v2_DepthDuration_HTML.html#414,414,704,252,1366,768,9-4-2022,7-35-44,1,depth_duration_stimuli/002630_2014-06-24_14-47-50_094959634447_rgbf000055-resize_1/002630_2014-06-24_14-47-50_094959634447_rgbf000055-resize_1-target.png,1000,3.0095,0,11450,998,meters,jsons/v1_VE1000_randls_74.json,1416063,1716859,38,Woman
1,328135,DepthScenes,duration_manipulation_targetAtFixation,jsons/v1_VE1000_randls_74.json,http://54.235.29.9/FacialAge/BNav_EC2/DepthDuration/v2_depth_duration_MTurk/v2_DepthDuration_HTML.html#414,414,704,252,1366,768,9-4-2022,7-35-44,2,depth_duration_stimuli/002758_2014-06-22_19-11-20_094959634447_rgbf000128-resize_1/002758_2014-06-22_19-11-20_094959634447_rgbf000128-resize_1-target.png,1000,2.555,0,4337,997,meters,jsons/v1_VE1000_randls_74.json,1416063,1716859,38,Woman
2,328135,DepthScenes,duration_manipulation_targetAtFixation,jsons/v1_VE1000_randls_74.json,http://54.235.29.9/FacialAge/BNav_EC2/DepthDuration/v2_depth_duration_MTurk/v2_DepthDuration_HTML.html#414,414,704,252,1366,768,9-4-2022,7-35-44,3,depth_duration_stimuli/000493_2014-06-09_21-01-18_260595134347_rgbf000196-resize_3/000493_2014-06-09_21-01-18_260595134347_rgbf000196-resize_3-target.png,1000,3.44,0,7159,999,meters,jsons/v1_VE1000_randls_74.json,1416063,1716859,38,Woman
3,328135,DepthScenes,duration_manipulation_targetAtFixation,jsons/v1_VE1000_randls_74.json,http://54.235.29.9/FacialAge/BNav_EC2/DepthDuration/v2_depth_duration_MTurk/v2_DepthDuration_HTML.html#414,414,704,252,1366,768,9-4-2022,7-35-44,4,depth_duration_stimuli/000191_2014-05-12_17-07-38_260595134347_rgbf000199-resize_0/000191_2014-05-12_17-07-38_260595134347_rgbf000199-resize_0-target.png,1000,3.7995,0,6685,1000,meters,jsons/v1_VE1000_randls_74.json,1416063,1716859,38,Woman
4,328135,DepthScenes,duration_manipulation_targetAtFixation,jsons/v1_VE1000_randls_74.json,http://54.235.29.9/FacialAge/BNav_EC2/DepthDuration/v2_depth_duration_MTurk/v2_DepthDuration_HTML.html#414,414,704,252,1366,768,9-4-2022,7-35-44,5,depth_duration_stimuli/003534_2014-05-22_15-06-10_094959634447_rgbf000102-resize_4/003534_2014-05-22_15-06-10_094959634447_rgbf000102-resize_4-target.png,1000,1.426,0,5723,999,meters,jsons/v1_VE1000_randls_74.json,1416063,1716859,38,Woman
5,328135,DepthScenes,duration_manipulation_targetAtFixation,jsons/v1_VE1000_randls_74.json,http://54.235.29.9/FacialAge/BNav_EC2/DepthDuration/v2_depth_duration_MTurk/v2_DepthDuration_HTML.html#414,414,704,252,1366,768,9-4-2022,7-35-44,6,depth_duration_stimuli/002637_2014-06-24_14-51-13_094959634447_rgbf000066-resize_4/002637_2014-06-24_14-51-13_094959634447_rgbf000066-resize_4-target.png,1000,1.9955,0,6379,998,meters,jsons/v1_VE1000_randls_74.json,1416063,1716859,38,Woman
6,328135,DepthScenes,duration_manipulation_targetAtFixation,jsons/v1_VE1000_randls_74.json,http://54.235.29.9/FacialAge/BNav_EC2/DepthDuration/v2_depth_duration_MTurk/v2_DepthDuration_HTML.html#414,414,704,252,1366,768,9-4-2022,7-35-44,7,depth_duration_stimuli/000929_2014-06-09_16-33-19_260595134347_rgbf000139-resize_0/000929_2014-06-09_16-33-19_260595134347_rgbf000139-resize_0-target.png,1000,2.8680000000000003,0,9898,999,meters,jsons/v1_VE1000_randls_74.json,1416063,1716859,38,Woman
7,328135,DepthScenes,duration_manipulation_targetAtFixation,jsons/v1_VE1000_randls_74.json,http://54.235.29.9/FacialAge/BNav_EC2/DepthDuration/v2_depth_duration_MTurk/v2_DepthDuration_HTML.html#414,414,704,252,1366,768,9-4-2022,7-35-44,8,depth_duration_stimuli/000457_2014-06-08_16-52-43_260595134347_rgbf000199-resize_1/000457_2014-06-08_16-52-43_260595134347_rgbf000199-resize_1-target.png,1000,3.6489999999999996,0,25103,999,meters,jsons/v1_VE1000_randls_74.json,1416063,1716859,38,Woman
8,328135,DepthScenes,duration_manipulation_targetAtFixation,jsons/v1_VE1000_randls_74.json,http://54.235.29.9/FacialAge/BNav_EC2/DepthDuration/v2_depth_duration_MTurk/v2_DepthDuration_HTML.html#414,414,704,252,1366,768,9-4-2022,7-35-44,9,depth_duration_stimuli/002788_2014-06-22_19-36-03_094959634447_rgbf000088-resize_2/002788_2014-06-22_19-36-03_094959634447_rgbf000088-resize_2-target.png,1000,1.6465,0,4220,998,meters,jsons/v1_VE1000_randls_74.json,1416063,1716859,38,Woman
9,328135,DepthScenes,duration_manipulation_targetAtFixation,jsons/v1_VE1000_randls_74.json,http://54.235.29.9/FacialAge/BNav_EC2/DepthDuration/v2_depth_duration_MTurk/v2_DepthDuration_HTML.html#414,414,704,252,1366,768,9-4-2022,7-35-44,10,depth_duration_stimuli/000749_2014-06-08_21-55-06_260595134347_rgbf000070-resize_2/000749_2014-06-08_21-55-06_260595134347_rgbf000070-resize_2-target.png,1000,2.331,0,5740,999,meters,jsons/v1_VE1000_randls_74.json,1416063,1716859,38,Woman
10,328135,DepthScenes,duration_manipulation_targetAtFixation,jsons/v1_VE1000_randls_74.json,http://54.235.29.9/FacialAge/BNav_EC2/DepthDuration/v2_depth_duration_MTurk/v2_DepthDuration_HTML.html#414,414,704,252,1366,768,9-4-2022,7-35-44,11,depth_duration_stimuli/002153_2014-06-25_21-27-18_260595134347_rgbf000038-resize_5/002153_2014-06-25_21-27-18_260595134347_rgbf000038-resize_5-target.png,1000,2.505,0,5676,1000,meters,jsons/v1_VE1000_randls_74.json,1416063,1716859,38,Woman
11,328135,DepthScenes,duration_manipulation_targetAtFixation,jsons/v1_VE1000_randls_74.json,http://54.235.29.9/FacialAge/BNav_EC2/DepthDuration/v2_depth_duration_MTurk/v2_DepthDuration_HTML.html#414,414,704,252,1366,768,9-4-2022,7-35-44,12,depth_duration_stimuli/002660_2014-06-13_15-44-18_094959634447_rgbf001878-resize_2/002660_2014-06-13_15-44-18_094959634447_rgbf001878-resize_2-target.png,1000,3.576,0,7844,1000,meters,jsons/v1_VE1000_randls_74.json,1416063,1716859,38,Woman
12,328135,DepthScenes,duration_manipulation_targetAtFixation,jsons/v1_VE1000_randls_74.json,http://54.235.29.9/FacialAge/BNav_EC2/DepthDuration/v2_depth_duration_MTurk/v2_DepthDuration_HTML.html#414,414,704,252,1366,768,9-4-2022,7-35-44,13,depth_duration_stimuli/000569_2014-06-09_22-51-47_260595134347_rgbf000141-resize_3/000569_2014-06-09_22-51-47_260595134347_rgbf000141-resize-original.jpg,1000,4.512,0,8617,998,meters,jsons/v1_VE1000_randls_74.json,1416063,1716859,38,Woman
13,328135,DepthScenes,duration_manipulation_targetAtFixation,jsons/v1_VE1000_randls_74.json,http://54.235.29.9/FacialAge/BNav_EC2/DepthDuration/v2_depth_duration_MTurk/v2_DepthDuration_HTML.html#414,414,704,252,1366,768,9-4-2022,7-35-44,14,depth_duration_stimuli/000506_2014-06-08_23-21-00_260595134347_rgbf000070-resize_7/000506_2014-06-08_23-21-00_260595134347_rgbf000070-resize_7-target.png,1000,4.0585,0,6716,1001,meters,jsons/v1_VE1000_randls_74.json,1416063,1716859,38,Woman
14,328135,DepthScenes,duration_manipulation_targetAtFixation,jsons/v1_VE1000_randls_74.json,http://54.235.29.9/FacialAge/BNav_EC2/DepthDuration/v2_depth_duration_MTurk/v2_DepthDuration_HTML.html#414,414,704,252,1366,768,9-4-2022,7-35-44,15,depth_duration_stimuli/003079_2014-06-15_15-18-20_094959634447_rgbf000152-resize_8/003079_2014-06-15_15-18-20_094959634447_rgbf000152-resize_8-target.png,1000,2.8775,0,7149,999,meters,jsons/v1_VE1000_randls_74.json,1416063,1716859,38,Woman
15,328135,DepthScenes,duration_manipulation_targetAtFixation,jsons/v1_VE1000_randls_74.json,http://54.235.29.9/FacialAge/BNav_EC2/DepthDuration/v2_depth_duration_MTurk/v2_DepthDuration_HTML.html#414,414,704,252,1366,768,9-4-2022,7-35-44,16,depth_duration_stimuli/002549_2014-06-24_13-41-39_094959634447_rgbf000022-resize_3/002549_2014-06-24_13-41-39_094959634447_rgbf000022-resize_3-target.png,1000,1.476,0,5728,999,meters,jsons/v1_VE1000_randls_74.json,1416063,1716859,38,Woman
16,328135,DepthScenes,duration_manipulation_targetAtFixation,jsons/v1_VE1000_randls_74.json,http://54.235.29.9/FacialAge/BNav_EC2/DepthDuration/v2_depth_duration_MTurk/v2_DepthDuration_HTML.html#414,414,704,252,1366,768,9-4-2022,7-35-44,17,depth_duration_stimuli/002750_2014-06-22_19-08-03_094959634447_rgbf000094-resize_4/002750_2014-06-22_19-08-03_094959634447_rgbf000094-resize_4-target.png,1000,2.354,0,5178,999,meters,jsons/v1_VE1000_randls_74.json,1416063,1716859,38,Woman
17,328135,DepthScenes,duration_manipulation_targetAtFixation,jsons/v1_VE1000_randls_74.json,http://54.235.29.9/FacialAge/BNav_EC2/DepthDuration/v2_depth_duration_MTurk/v2_DepthDuration_HTML.html#414,414,704,252,1366,768,9-4-2022,7-35-44,18,depth_duration_stimuli/002989_2014-06-15_12-25-03_094959634447_rgbf000150-resize_3/002989_2014-06-15_12-25-03_094959634447_rgbf000150-resize_3-target.png,1000,4.1975,0,4776,999,meters,jsons/v1_VE1000_randls_74.json,1416063,1716859,38,Woman
18,328135,DepthScenes,duration_manipulation_targetAtFixation,jsons/v1_VE1000_randls_74.json,http://54.235.29.9/FacialAge/BNav_EC2/DepthDuration/v2_depth_duration_MTurk/v2_DepthDuration_HTML.html#414,414,704,252,1366,768,9-4-2022,7-35-44,19,depth_duration_stimuli/000866_2014-06-09_20-45-42_260595134347_rgbf000139-resize_1/000866_2014-06-09_20-45-42_260595134347_rgbf000139-resize_1-target.png,1000,3.2155,0,6890,999,meters,jsons/v1_VE1000_randls_74.json,1416063,1716859,38,Woman
19,328135,DepthScenes,duration_manipulation_targetAtFixation,jsons/v1_VE1000_randls_74.json,http://54.235.29.9/FacialAge/BNav_EC2/DepthDuration/v2_depth_duration_MTurk/v2_DepthDuration_HTML.html#414,414,704,252,1366,768,9-4-2022,7-35-44,20,depth_duration_stimuli/003070_2014-06-15_14-58-27_094959634447_rgbf000150-resize_3/003070_2014-06-15_14-58-27_094959634447_rgbf000150-resize_3-target.png,1000,2.9415,0,5172,999,meters,jsons/v1_VE1000_randls_74.json,1416063,1716859,38,Woman
20,328135,DepthScenes,duration_manipulation_targetAtFixation,jsons/v1_VE1000_randls_74.json,http://54.235.29.9/FacialAge/BNav_EC2/DepthDuration/v2_depth_duration_MTurk/v2_DepthDuration_HTML.html#414,414,704,252,1366,768,9-4-2022,7-35-44,21,depth_duration_stimuli/000943_2014-06-09_19-31-07_260595134347_rgbf000128-resize_1/000943_2014-06-09_19-31-07_260595134347_rgbf000128-resize_1-target.png,1000,1.9765,0,5028,999,meters,jsons/v1_VE1000_randls_74.json,1416063,1716859,38,Woman
21,328135,DepthScenes,duration_manipulation_targetAtFixation,jsons/v1_VE1000_randls_74.json,http://54.235.29.9/FacialAge/BNav_EC2/DepthDuration/v2_depth_duration_MTurk/v2_DepthDuration_HTML.html#414,414,704,252,1366,768,9-4-2022,7-35-44,22,depth_duration_stimuli/000682_2014-06-08_23-14-58_260595134347_rgbf000041-resize_5/000682_2014-06-08_23-14-58_260595134347_rgbf000041-resize_5-target.png,1000,2.7239999999999998,0,7129,998,meters,jsons/v1_VE1000_randls_74.json,1416063,1716859,38,Woman
22,328135,DepthScenes,duration_manipulation_targetAtFixation,jsons/v1_VE1000_randls_74.json,http://54.235.29.9/FacialAge/BNav_EC2/DepthDuration/v2_depth_duration_MTurk/v2_DepthDuration_HTML.html#414,414,704,252,1366,768,9-4-2022,7-35-44,23,depth_duration_stimuli/001650_2014-06-20_12-09-00_260595134347_rgbf000087-resize_3/001650_2014-06-20_12-09-00_260595134347_rgbf000087-resize_3-target.png,1000,1.9505,0,169216,1000,meters,jsons/v1_VE1000_randls_74.json,1416063,1716859,38,Woman
23,328135,DepthScenes,duration_manipulation_targetAtFixation,jsons/v1_VE1000_randls_74.json,http://54.235.29.9/FacialAge/BNav_EC2/DepthDuration/v2_depth_duration_MTurk/v2_DepthDuration_HTML.html#414,414,704,252,1366,768,9-4-2022,7-35-44,24,depth_duration_stimuli/001417_2014-06-19_16-25-36_260595134347_rgbf000115-resize_5/001417_2014-06-19_16-25-36_260595134347_rgbf000115-resize_5-target.png,1000,4.6255,0,6074,997,meters,jsons/v1_VE1000_randls_74.json,1416063,1716859,38,Woman
24,328135,DepthScenes,duration_manipulation_targetAtFixation,jsons/v1_VE1000_randls_74.json,http://54.235.29.9/FacialAge/BNav_EC2/DepthDuration/v2_depth_duration_MTurk/v2_DepthDuration_HTML.html#414,414,704,252,1366,768,9-4-2022,7-35-44,25,depth_duration_stimuli/003081_2014-06-15_15-19-16_094959634447_rgbf000150-resize_1/003081_2014-06-15_15-19-16_094959634447_rgbf000150-resize_1-target.png,1000,3.9125,0,4803,1004,meters,jsons/v1_VE1000_randls_74.json,1416063,1716859,38,Woman
25,328135,DepthScenes,duration_manipulation_targetAtFixation,jsons/v1_VE1000_randls_74.json,http://54.235.29.9/FacialAge/BNav_EC2/DepthDuration/v2_depth_duration_MTurk/v2_DepthDuration_HTML.html#414,414,704,252,1366,768,9-4-2022,7-35-44,26,depth_duration_stimuli/001570_2014-06-20_17-21-09_260595134347_rgbf000135-resize_4/001570_2014-06-20_17-21-09_260595134347_rgbf000135-resize_4-target.png,1000,4.467,0,5942,1000,meters,jsons/v1_VE1000_randls_74.json,1416063,1716859,38,Woman
26,328135,DepthScenes,duration_manipulation_targetAtFixation,jsons/v1_VE1000_randls_74.json,http://54.235.29.9/FacialAge/BNav_EC2/DepthDuration/v2_depth_duration_MTurk/v2_DepthDuration_HTML.html#414,414,704,252,1366,768,9-4-2022,7-35-44,27,depth_duration_stimuli/001392_2014-06-19_16-07-59_260595134347_rgbf000046-resize_1/001392_2014-06-19_16-07-59_260595134347_rgbf000046-resize_1-target.png,1000,4.135,0,4842,999,meters,jsons/v1_VE1000_randls_74.json,1416063,1716859,38,Woman
27,328135,DepthScenes,duration_manipulation_targetAtFixation,jsons/v1_VE1000_randls_74.json,http://54.235.29.9/FacialAge/BNav_EC2/DepthDuration/v2_depth_duration_MTurk/v2_DepthDuration_HTML.html#414,414,704,252,1366,768,9-4-2022,7-35-44,28,depth_duration_stimuli/003621_2014-05-23_18-06-08_094959634447_rgbf000101-resize_1/003621_2014-05-23_18-06-08_094959634447_rgbf000101-resize_1-target.png,1000,3.9835,0,8730,1000,meters,jsons/v1_VE1000_randls_74.json,1416063,1716859,38,Woman
28,328135,DepthScenes,duration_manipulation_targetAtFixation,jsons/v1_VE1000_randls_74.json,http://54.235.29.9/FacialAge/BNav_EC2/DepthDuration/v2_depth_duration_MTurk/v2_DepthDuration_HTML.html#414,414,704,252,1366,768,9-4-2022,7-35-44,29,depth_duration_stimuli/001584_2014-06-20_11-07-43_260595134347_rgbf000002-resize_1/001584_2014-06-20_11-07-43_260595134347_rgbf000002-resize_1-target.png,1000,3.53,0,8005,998,meters,jsons/v1_VE1000_randls_74.json,1416063,1716859,38,Woman
29,328135,DepthScenes,duration_manipulation_targetAtFixation,jsons/v1_VE1000_randls_74.json,http://54.235.29.9/FacialAge/BNav_EC2/DepthDuration/v2_depth_duration_MTurk/v2_DepthDuration_HTML.html#414,414,704,252,1366,768,9-4-2022,7-35-44,30,depth_duration_stimuli/000375_2014-06-08_11-17-29_260595134347_rgbf000133-resize_2/000375_2014-06-08_11-17-29_260595134347_rgbf000133-resize-original.jpg,1000,4.718,0,5408,999,meters,jsons/v1_VE1000_randls_74.json,1416063,1716859,38,Woman
30,328135,DepthScenes,duration_manipulation_targetAtFixation,jsons/v1_VE1000_randls_74.json,http://54.235.29.9/FacialAge/BNav_EC2/DepthDuration/v2_depth_duration_MTurk/v2_DepthDuration_HTML.html#414,414,704,252,1366,768,9-4-2022,7-35-44,31,depth_duration_stimuli/001810_2014-06-26_20-51-35_260595134347_rgbf000040-resize_3/001810_2014-06-26_20-51-35_260595134347_rgbf000040-resize_3-target.png,1000,2.2525,0,6442,1005,meters,jsons/v1_VE1000_randls_74.json,1416063,1716859,38,Woman
31,328135,DepthScenes,duration_manipulation_targetAtFixation,jsons/v1_VE1000_randls_74.json,http://54.235.29.9/FacialAge/BNav_EC2/DepthDuration/v2_depth_duration_MTurk/v2_DepthDuration_HTML.html#414,414,704,252,1366,768,9-4-2022,7-35-44,32,depth_duration_stimuli/003010_2014-06-15_12-54-35_094959634447_rgbf000112-resize_0/003010_2014-06-15_12-54-35_094959634447_rgbf000112-resize_0-target.png,1000,3.1185,0,5800,999,meters,jsons/v1_VE1000_randls_74.json,1416063,1716859,38,Woman
32,328135,DepthScenes,duration_manipulation_targetAtFixation,jsons/v1_VE1000_randls_74.json,http://54.235.29.9/FacialAge/BNav_EC2/DepthDuration/v2_depth_duration_MTurk/v2_DepthDuration_HTML.html#414,414,704,252,1366,768,9-4-2022,7-35-44,33,depth_duration_stimuli/000739_2014-06-08_18-45-58_260595134347_rgbf000068-resize_1/000739_2014-06-08_18-45-58_260595134347_rgbf000068-resize_1-target.png,1000,3.534,0,5666,999,meters,jsons/v1_VE1000_randls_74.json,1416063,1716859,38,Woman
33,328135,DepthScenes,duration_manipulation_targetAtFixation,jsons/v1_VE1000_randls_74.json,http://54.235.29.9/FacialAge/BNav_EC2/DepthDuration/v2_depth_duration_MTurk/v2_DepthDuration_HTML.html#414,414,704,252,1366,768,9-4-2022,7-35-44,34,depth_duration_stimuli/000734_2014-06-08_17-39-11_260595134347_rgbf000128-resize_2/000734_2014-06-08_17-39-11_260595134347_rgbf000128-resize_2-target.png,1000,4.098,0,6639,1030,meters,jsons/v1_VE1000_randls_74.json,1416063,1716859,38,Woman
34,328135,DepthScenes,duration_manipulation_targetAtFixation,jsons/v1_VE1000_randls_74.json,http://54.235.29.9/FacialAge/BNav_EC2/DepthDuration/v2_depth_duration_MTurk/v2_DepthDuration_HTML.html#414,414,704,252,1366,768,9-4-2022,7-35-44,35,depth_duration_stimuli/002600_2014-06-24_14-27-04_094959634447_rgbf000074-resize_2/002600_2014-06-24_14-27-04_094959634447_rgbf000074-resize_2-target.png,1000,2.7575,0,6289,999,meters,jsons/v1_VE1000_randls_74.json,1416063,1716859,38,Woman
35,328135,DepthScenes,duration_manipulation_targetAtFixation,jsons/v1_VE1000_randls_74.json,http://54.235.29.9/FacialAge/BNav_EC2/DepthDuration/v2_depth_duration_MTurk/v2_DepthDuration_HTML.html#414,414,704,252,1366,768,9-4-2022,7-35-44,36,depth_duration_stimuli/003228_2014-05-14_13-42-35_094959634447_rgbf000101-resize_1/003228_2014-05-14_13-42-35_094959634447_rgbf000101-resize_1-target.png,1000,1.9680000000000002,0,6161,997,meters,jsons/v1_VE1000_randls_74.json,1416063,1716859,38,Woman
36,328135,DepthScenes,duration_manipulation_targetAtFixation,jsons/v1_VE1000_randls_74.json,http://54.235.29.9/FacialAge/BNav_EC2/DepthDuration/v2_depth_duration_MTurk/v2_DepthDuration_HTML.html#414,414,704,252,1366,768,9-4-2022,7-35-44,37,depth_duration_stimuli/000486_2014-06-09_20-47-20_260595134347_rgbf000143-resize_2/000486_2014-06-09_20-47-20_260595134347_rgbf000143-resize_2-target.png,1000,4.8325,0,6346,998,meters,jsons/v1_VE1000_randls_74.json,1416063,1716859,38,Woman
37,328135,DepthScenes,duration_manipulation_targetAtFixation,jsons/v1_VE1000_randls_74.json,http://54.235.29.9/FacialAge/BNav_EC2/DepthDuration/v2_depth_duration_MTurk/v2_DepthDuration_HTML.html#414,414,704,252,1366,768,9-4-2022,7-35-44,38,depth_duration_stimuli/003083_2014-06-15_15-21-03_094959634447_rgbf000063-resize_1/003083_2014-06-15_15-21-03_094959634447_rgbf000063-resize_1-target.png,1000,4.1405,0,7009,1000,meters,jsons/v1_VE1000_randls_74.json,1416063,1716859,38,Woman
38,328135,DepthScenes,duration_manipulation_targetAtFixation,jsons/v1_VE1000_randls_74.json,http://54.235.29.9/FacialAge/BNav_EC2/DepthDuration/v2_depth_duration_MTurk/v2_DepthDuration_HTML.html#414,414,704,252,1366,768,9-4-2022,7-35-44,39,depth_duration_stimuli/001029_2014-06-08_13-17-57_260595134347_rgbf000065-resize_1/001029_2014-06-08_13-17-57_260595134347_rgbf000065-resize_1-target.png,1000,3.0835,0,6645,997,meters,jsons/v1_VE1000_randls_74.json,1416063,1716859,38,Woman
39,328135,DepthScenes,duration_manipulation_targetAtFixation,jsons/v1_VE1000_randls_74.json,http://54.235.29.9/FacialAge/BNav_EC2/DepthDuration/v2_depth_duration_MTurk/v2_DepthDuration_HTML.html#414,414,704,252,1366,768,9-4-2022,7-35-44,40,depth_duration_stimuli/000677_2014-06-08_23-10-32_260595134347_rgbf000158-resize_6/000677_2014-06-08_23-10-32_260595134347_rgbf000158-resize_6-target.png,1000,3.556,0,7818,1000,meters,jsons/v1_VE1000_randls_74.json,1416063,1716859,38,Woman
40,328135,DepthScenes,duration_manipulation_targetAtFixation,jsons/v1_VE1000_randls_74.json,http://54.235.29.9/FacialAge/BNav_EC2/DepthDuration/v2_depth_duration_MTurk/v2_DepthDuration_HTML.html#414,414,704,252,1366,768,9-4-2022,7-35-44,41,depth_duration_stimuli/001066_2014-06-08_22-03-20_260595134347_rgbf000066-resize_4/001066_2014-06-08_22-03-20_260595134347_rgbf000066-resize_4-target.png,1000,4.2330000000000005,0,6128,998,meters,jsons/v1_VE1000_randls_74.json,1416063,1716859,38,Woman
41,328135,DepthScenes,duration_manipulation_targetAtFixation,jsons/v1_VE1000_randls_74.json,http://54.235.29.9/FacialAge/BNav_EC2/DepthDuration/v2_depth_duration_MTurk/v2_DepthDuration_HTML.html#414,414,704,252,1366,768,9-4-2022,7-35-44,42,depth_duration_stimuli/000742_2014-06-08_18-48-09_260595134347_rgbf000164-resize_4/000742_2014-06-08_18-48-09_260595134347_rgbf000164-resize_4-target.png,1000,4.632,0,6169,1011,meters,jsons/v1_VE1000_randls_74.json,1416063,1716859,38,Woman
42,328135,DepthScenes,duration_manipulation_targetAtFixation,jsons/v1_VE1000_randls_74.json,http://54.235.29.9/FacialAge/BNav_EC2/DepthDuration/v2_depth_duration_MTurk/v2_DepthDuration_HTML.html#414,414,704,252,1366,768,9-4-2022,7-35-44,43,depth_duration_stimuli/001175_2014-06-17_15-45-55_260595134347_rgbf000129-resize_4/001175_2014-06-17_15-45-55_260595134347_rgbf000129-resize_4-target.png,1000,4.255,0,40842,998,meters,jsons/v1_VE1000_randls_74.json,1416063,1716859,38,Woman
43,328135,DepthScenes,duration_manipulation_targetAtFixation,jsons/v1_VE1000_randls_74.json,http://54.235.29.9/FacialAge/BNav_EC2/DepthDuration/v2_depth_duration_MTurk/v2_DepthDuration_HTML.html#414,414,704,252,1366,768,9-4-2022,7-35-44,44,depth_duration_stimuli/003490_2014-05-21_15-50-11_094959634447_rgbf000101-resize_3/003490_2014-05-21_15-50-11_094959634447_rgbf000101-resize_3-target.png,1000,3.6445,0,6570,1005,meters,jsons/v1_VE1000_randls_74.json,1416063,1716859,38,Woman
44,328135,DepthScenes,duration_manipulation_targetAtFixation,jsons/v1_VE1000_randls_74.json,http://54.235.29.9/FacialAge/BNav_EC2/DepthDuration/v2_depth_duration_MTurk/v2_DepthDuration_HTML.html#414,414,704,252,1366,768,9-4-2022,7-35-44,45,depth_duration_stimuli/000787_2014-06-08_22-33-53_260595134347_rgbf000175-resize_1/000787_2014-06-08_22-33-53_260595134347_rgbf000175-resize-original.jpg,1000,4.784,0,7683,999,meters,jsons/v1_VE1000_randls_74.json,1416063,1716859,38,Woman
45,328135,DepthScenes,duration_manipulation_targetAtFixation,jsons/v1_VE1000_randls_74.json,http://54.235.29.9/FacialAge/BNav_EC2/DepthDuration/v2_depth_duration_MTurk/v2_DepthDuration_HTML.html#414,414,704,252,1366,768,9-4-2022,7-35-44,46,depth_duration_stimuli/001150_2014-06-17_15-27-34_260595134347_rgbf000108-resize_2/001150_2014-06-17_15-27-34_260595134347_rgbf000108-resize_2-target.png,1000,4.0325,0,6627,999,meters,jsons/v1_VE1000_randls_74.json,1416063,1716859,38,Woman
46,328135,DepthScenes,duration_manipulation_targetAtFixation,jsons/v1_VE1000_randls_74.json,http://54.235.29.9/FacialAge/BNav_EC2/DepthDuration/v2_depth_duration_MTurk/v2_DepthDuration_HTML.html#414,414,704,252,1366,768,9-4-2022,7-35-44,47,depth_duration_stimuli/000665_2014-06-09_20-42-35_260595134347_rgbf000110-resize_1/000665_2014-06-09_20-42-35_260595134347_rgbf000110-resize_1-target.png,1000,3.057,0,6565,998,meters,jsons/v1_VE1000_randls_74.json,1416063,1716859,38,Woman
47,328135,DepthScenes,duration_manipulation_targetAtFixation,jsons/v1_VE1000_randls_74.json,http://54.235.29.9/FacialAge/BNav_EC2/DepthDuration/v2_depth_duration_MTurk/v2_DepthDuration_HTML.html#414,414,704,252,1366,768,9-4-2022,7-35-44,48,depth_duration_stimuli/002057_2014-06-24_21-00-13_260595134347_rgbf000120-resize_1/002057_2014-06-24_21-00-13_260595134347_rgbf000120-resize_1-target.png,1000,2.967,0,6654,998,meters,jsons/v1_VE1000_randls_74.json,1416063,1716859,38,Woman
48,328135,DepthScenes,duration_manipulation_targetAtFixation,jsons/v1_VE1000_randls_74.json,http://54.235.29.9/FacialAge/BNav_EC2/DepthDuration/v2_depth_duration_MTurk/v2_DepthDuration_HTML.html#414,414,704,252,1366,768,9-4-2022,7-35-44,49,depth_duration_stimuli/000709_2014-06-08_13-51-55_260595134347_rgbf000068-resize_3/000709_2014-06-08_13-51-55_260595134347_rgbf000068-resize_3-target.png,1000,1.8030000000000002,0,6923,1002,meters,jsons/v1_VE1000_randls_74.json,1416063,1716859,38,Woman
49,328135,DepthScenes,duration_manipulation_targetAtFixation,jsons/v1_VE1000_randls_74.json,http://54.235.29.9/FacialAge/BNav_EC2/DepthDuration/v2_depth_duration_MTurk/v2_DepthDuration_HTML.html#414,414,704,252,1366,768,9-4-2022,7-35-44,50,depth_duration_stimuli/000736_2014-06-08_18-24-15_260595134347_rgbf000206-resize_3/000736_2014-06-08_18-24-15_260595134347_rgbf000206-resize_3-target.png,1000,3.515,0,7045,999,meters,jsons/v1_VE1000_randls_74.json,1416063,1716859,38,Woman
50,328135,DepthScenes,duration_manipulation_targetAtFixation,jsons/v1_VE1000_randls_74.json,http://54.235.29.9/FacialAge/BNav_EC2/DepthDuration/v2_depth_duration_MTurk/v2_DepthDuration_HTML.html#414,414,704,252,1366,768,9-4-2022,7-35-44,51,depth_duration_stimuli/000137_2014-05-20_17-04-49_260595134347_rgbf000120-resize_1/000137_2014-05-20_17-04-49_260595134347_rgbf000120-resize_1-target.png,1000,3.786,0,5493,1002,meters,jsons/v1_VE1000_randls_74.json,1416063,1716859,38,Woman
51,328135,DepthScenes,duration_manipulation_targetAtFixation,jsons/v1_VE1000_randls_74.json,http://54.235.29.9/FacialAge/BNav_EC2/DepthDuration/v2_depth_duration_MTurk/v2_DepthDuration_HTML.html#414,414,704,252,1366,768,9-4-2022,7-35-44,52,depth_duration_stimuli/000878_2014-06-08_22-52-45_260595134347_rgbf000045-resize_2/000878_2014-06-08_22-52-45_260595134347_rgbf000045-resize_2-target.png,1000,2.092,0,8176,1000,meters,jsons/v1_VE1000_randls_74.json,1416063,1716859,38,Woman
52,328135,DepthScenes,duration_manipulation_targetAtFixation,jsons/v1_VE1000_randls_74.json,http://54.235.29.9/FacialAge/BNav_EC2/DepthDuration/v2_depth_duration_MTurk/v2_DepthDuration_HTML.html#414,414,704,252,1366,768,9-4-2022,7-35-44,53,depth_duration_stimuli/002953_2014-06-08_17-32-18_094959634447_rgbf000059-resize_5/002953_2014-06-08_17-32-18_094959634447_rgbf000059-resize_5-target.png,1000,1.551,0,7353,999,meters,jsons/v1_VE1000_randls_74.json,1416063,1716859,38,Woman
53,328135,DepthScenes,duration_manipulation_targetAtFixation,jsons/v1_VE1000_randls_74.json,http://54.235.29.9/FacialAge/BNav_EC2/DepthDuration/v2_depth_duration_MTurk/v2_DepthDuration_HTML.html#414,414,704,252,1366,768,9-4-2022,7-35-44,54,depth_duration_stimuli/002375_2014-06-28_20-13-44_260595134347_rgbf000032-resize_1/002375_2014-06-28_20-13-44_260595134347_rgbf000032-resize_1-target.png,1000,4.0175,0,12302,1004,meters,jsons/v1_VE1000_randls_74.json,1416063,1716859,38,Woman
54,328135,DepthScenes,duration_manipulation_targetAtFixation,jsons/v1_VE1000_randls_74.json,http://54.235.29.9/FacialAge/BNav_EC2/DepthDuration/v2_depth_duration_MTurk/v2_DepthDuration_HTML.html#414,414,704,252,1366,768,9-4-2022,7-35-44,55,depth_duration_stimuli/002657_2014-06-13_15-29-54_094959634447_rgbf000150-resize_1/002657_2014-06-13_15-29-54_094959634447_rgbf000150-resize_1-target.png,1000,4.919,0,6618,999,meters,jsons/v1_VE1000_randls_74.json,1416063,1716859,38,Woman
55,328135,DepthScenes,duration_manipulation_targetAtFixation,jsons/v1_VE1000_randls_74.json,http://54.235.29.9/FacialAge/BNav_EC2/DepthDuration/v2_depth_duration_MTurk/v2_DepthDuration_HTML.html#414,414,704,252,1366,768,9-4-2022,7-35-44,56,depth_duration_stimuli/001016_2014-06-09_16-16-10_260595134347_rgbf000112-resize_5/001016_2014-06-09_16-16-10_260595134347_rgbf000112-resize_5-target.png,1000,1.6565,0,5918,992,meters,jsons/v1_VE1000_randls_74.json,1416063,1716859,38,Woman
56,328135,DepthScenes,duration_manipulation_targetAtFixation,jsons/v1_VE1000_randls_74.json,http://54.235.29.9/FacialAge/BNav_EC2/DepthDuration/v2_depth_duration_MTurk/v2_DepthDuration_HTML.html#414,414,704,252,1366,768,9-4-2022,7-35-44,57,depth_duration_stimuli/002340_2014-06-28_20-05-46_260595134347_rgbf000113-resize_0/002340_2014-06-28_20-05-46_260595134347_rgbf000113-resize_0-target.png,1000,2.4735,0,4113,999,meters,jsons/v1_VE1000_randls_74.json,1416063,1716859,38,Woman
57,328135,DepthScenes,duration_manipulation_targetAtFixation,jsons/v1_VE1000_randls_74.json,http://54.235.29.9/FacialAge/BNav_EC2/DepthDuration/v2_depth_duration_MTurk/v2_DepthDuration_HTML.html#414,414,704,252,1366,768,9-4-2022,7-35-44,58,depth_duration_stimuli/001011_2014-06-08_23-18-54_260595134347_rgbf000044-resize_4/001011_2014-06-08_23-18-54_260595134347_rgbf000044-resize_4-target.png,1000,2.4730000000000003,0,6583,983,meters,jsons/v1_VE1000_randls_74.json,1416063,1716859,38,Woman
58,328135,DepthScenes,duration_manipulation_targetAtFixation,jsons/v1_VE1000_randls_74.json,http://54.235.29.9/FacialAge/BNav_EC2/DepthDuration/v2_depth_duration_MTurk/v2_DepthDuration_HTML.html#414,414,704,252,1366,768,9-4-2022,7-35-44,59,depth_duration_stimuli/002875_2014-06-01_15-19-00_094959634447_rgbf000151-resize_1/002875_2014-06-01_15-19-00_094959634447_rgbf000151-resize_1-target.png,1000,1.9675,0,7322,1000,meters,jsons/v1_VE1000_randls_74.json,1416063,1716859,38,Woman
59,328135,DepthScenes,duration_manipulation_targetAtFixation,jsons/v1_VE1000_randls_74.json,http://54.235.29.9/FacialAge/BNav_EC2/DepthDuration/v2_depth_duration_MTurk/v2_DepthDuration_HTML.html#414,414,704,252,1366,768,9-4-2022,7-35-44,60,depth_duration_stimuli/000758_2014-06-08_22-05-08_260595134347_rgbf000085-resize_0/000758_2014-06-08_22-05-08_260595134347_rgbf000085-resize_0-target.png,1000,3.3810000000000002,0,8367,999,meters,jsons/v1_VE1000_randls_74.json,1416063,1716859,38,Woman
60,328135,DepthScenes,duration_manipulation_targetAtFixation,jsons/v1_VE1000_randls_74.json,http://54.235.29.9/FacialAge/BNav_EC2/DepthDuration/v2_depth_duration_MTurk/v2_DepthDuration_HTML.html#414,414,704,252,1366,768,9-4-2022,7-35-44,61,depth_duration_stimuli/000854_2014-06-09_19-43-13_260595134347_rgbf000066-resize_0/000854_2014-06-09_19-43-13_260595134347_rgbf000066-resize_0-target.png,1000,3.068,0,8415,999,meters,jsons/v1_VE1000_randls_74.json,1416063,1716859,38,Woman
61,328135,DepthScenes,duration_manipulation_targetAtFixation,jsons/v1_VE1000_randls_74.json,http://54.235.29.9/FacialAge/BNav_EC2/DepthDuration/v2_depth_duration_MTurk/v2_DepthDuration_HTML.html#414,414,704,252,1366,768,9-4-2022,7-35-44,62,depth_duration_stimuli/001199_2014-06-17_16-03-48_260595134347_rgbf000077-resize_0/001199_2014-06-17_16-03-48_260595134347_rgbf000077-resize_0-target.png,1000,3.4375,0,8414,999,meters,jsons/v1_VE1000_randls_74.json,1416063,1716859,38,Woman
62,328135,DepthScenes,duration_manipulation_targetAtFixation,jsons/v1_VE1000_randls_74.json,http://54.235.29.9/FacialAge/BNav_EC2/DepthDuration/v2_depth_duration_MTurk/v2_DepthDuration_HTML.html#414,414,704,252,1366,768,9-4-2022,7-35-44,63,depth_duration_stimuli/000502_2014-06-08_23-02-32_260595134347_rgbf000063-resize_4/000502_2014-06-08_23-02-32_260595134347_rgbf000063-resize_4-target.png,1000,2.431,0,6305,998,meters,jsons/v1_VE1000_randls_74.json,1416063,1716859,38,Woman
63,328135,DepthScenes,duration_manipulation_targetAtFixation,jsons/v1_VE1000_randls_74.json,http://54.235.29.9/FacialAge/BNav_EC2/DepthDuration/v2_depth_duration_MTurk/v2_DepthDuration_HTML.html#414,414,704,252,1366,768,9-4-2022,7-35-44,64,depth_duration_stimuli/001806_2014-06-26_20-50-20_260595134347_rgbf000091-resize_1/001806_2014-06-26_20-50-20_260595134347_rgbf000091-resize_1-target.png,1000,2.7305,0,6085,999,meters,jsons/v1_VE1000_randls_74.json,1416063,1716859,38,Woman
64,328135,DepthScenes,duration_manipulation_targetAtFixation,jsons/v1_VE1000_randls_74.json,http://54.235.29.9/FacialAge/BNav_EC2/DepthDuration/v2_depth_duration_MTurk/v2_DepthDuration_HTML.html#414,414,704,252,1366,768,9-4-2022,7-35-44,65,depth_duration_stimuli/001617_2014-06-20_11-35-32_260595134347_rgbf000066-resize_1/001617_2014-06-20_11-35-32_260595134347_rgbf000066-resize_1-target.png,1000,3.7910000000000004,0,10673,999,meters,jsons/v1_VE1000_randls_74.json,1416063,1716859,38,Woman
65,328135,DepthScenes,duration_manipulation_targetAtFixation,jsons/v1_VE1000_randls_74.json,http://54.235.29.9/FacialAge/BNav_EC2/DepthDuration/v2_depth_duration_MTurk/v2_DepthDuration_HTML.html#414,414,704,252,1366,768,9-4-2022,7-35-44,66,depth_duration_stimuli/001222_2014-06-17_16-24-06_260595134347_rgbf000073-resize_0/001222_2014-06-17_16-24-06_260595134347_rgbf000073-resize-original.jpg,1000,1.4385,0,4204,998,meters,jsons/v1_VE1000_randls_74.json,1416063,1716859,38,Woman
66,328135,DepthScenes,duration_manipulation_targetAtFixation,jsons/v1_VE1000_randls_74.json,http://54.235.29.9/FacialAge/BNav_EC2/DepthDuration/v2_depth_duration_MTurk/v2_DepthDuration_HTML.html#414,414,704,252,1366,768,9-4-2022,7-35-44,67,depth_duration_stimuli/001167_2014-06-17_15-38-07_260595134347_rgbf000108-resize_0/001167_2014-06-17_15-38-07_260595134347_rgbf000108-resize_0-target.png,1000,1.8505,0,6412,1000,meters,jsons/v1_VE1000_randls_74.json,1416063,1716859,38,Woman
67,328135,DepthScenes,duration_manipulation_targetAtFixation,jsons/v1_VE1000_randls_74.json,http://54.235.29.9/FacialAge/BNav_EC2/DepthDuration/v2_depth_duration_MTurk/v2_DepthDuration_HTML.html#414,414,704,252,1366,768,9-4-2022,7-35-44,68,depth_duration_stimuli/003587_2014-05-23_16-48-02_094959634447_rgbf002384-resize_2/003587_2014-05-23_16-48-02_094959634447_rgbf002384-resize_2-target.png,1000,1.357,0,6689,998,meters,jsons/v1_VE1000_randls_74.json,1416063,1716859,38,Woman
68,328135,DepthScenes,duration_manipulation_targetAtFixation,jsons/v1_VE1000_randls_74.json,http://54.235.29.9/FacialAge/BNav_EC2/DepthDuration/v2_depth_duration_MTurk/v2_DepthDuration_HTML.html#414,414,704,252,1366,768,9-4-2022,7-35-44,69,depth_duration_stimuli/002663_2014-06-13_15-50-26_094959634447_rgbf000075-resize_1/002663_2014-06-13_15-50-26_094959634447_rgbf000075-resize_1-target.png,1000,4.7495,0,6296,999,meters,jsons/v1_VE1000_randls_74.json,1416063,1716859,38,Woman
69,328135,DepthScenes,duration_manipulation_targetAtFixation,jsons/v1_VE1000_randls_74.json,http://54.235.29.9/FacialAge/BNav_EC2/DepthDuration/v2_depth_duration_MTurk/v2_DepthDuration_HTML.html#414,414,704,252,1366,768,9-4-2022,7-35-44,70,depth_duration_stimuli/000409_2014-06-04_19-23-33_260595134347_rgbf000067-resize_0/000409_2014-06-04_19-23-33_260595134347_rgbf000067-resize_0-target.png,1000,3.7335,0,5905,1000,meters,jsons/v1_VE1000_randls_74.json,1416063,1716859,38,Woman
70,328135,DepthScenes,duration_manipulation_targetAtFixation,jsons/v1_VE1000_randls_74.json,http://54.235.29.9/FacialAge/BNav_EC2/DepthDuration/v2_depth_duration_MTurk/v2_DepthDuration_HTML.html#414,414,704,252,1366,768,9-4-2022,7-35-44,71,depth_duration_stimuli/002043_2014-06-24_20-29-38_260595134347_rgbf000039-resize_4/002043_2014-06-24_20-29-38_260595134347_rgbf000039-resize_4-target.png,1000,2.8435,0,7866,973,meters,jsons/v1_VE1000_randls_74.json,1416063,1716859,38,Woman
71,328135,DepthScenes,duration_manipulation_targetAtFixation,jsons/v1_VE1000_randls_74.json,http://54.235.29.9/FacialAge/BNav_EC2/DepthDuration/v2_depth_duration_MTurk/v2_DepthDuration_HTML.html#414,414,704,252,1366,768,9-4-2022,7-35-44,72,depth_duration_stimuli/003048_2014-06-15_13-49-43_094959634447_rgbf000150-resize_1/003048_2014-06-15_13-49-43_094959634447_rgbf000150-resize_1-target.png,1000,4.0035,0,6793,1000,meters,jsons/v1_VE1000_randls_74.json,1416063,1716859,38,Woman
72,328135,DepthScenes,duration_manipulation_targetAtFixation,jsons/v1_VE1000_randls_74.json,http://54.235.29.9/FacialAge/BNav_EC2/DepthDuration/v2_depth_duration_MTurk/v2_DepthDuration_HTML.html#414,414,704,252,1366,768,9-4-2022,7-35-44,73,depth_duration_stimuli/002272_2014-06-28_18-53-56_260595134347_rgbf000067-resize_2/002272_2014-06-28_18-53-56_260595134347_rgbf000067-resize_2-target.png,1000,1.138,0,6566,999,meters,jsons/v1_VE1000_randls_74.json,1416063,1716859,38,Woman
73,328135,DepthScenes,duration_manipulation_targetAtFixation,jsons/v1_VE1000_randls_74.json,http://54.235.29.9/FacialAge/BNav_EC2/DepthDuration/v2_depth_duration_MTurk/v2_DepthDuration_HTML.html#414,414,704,252,1366,768,9-4-2022,7-35-44,74,depth_duration_stimuli/001571_2014-06-20_17-21-32_260595134347_rgbf000089-resize_1/001571_2014-06-20_17-21-32_260595134347_rgbf000089-resize_1-target.png,1000,1.86,0,5799,999,meters,jsons/v1_VE1000_randls_74.json,1416063,1716859,38,Woman
74,328135,DepthScenes,duration_manipulation_targetAtFixation,jsons/v1_VE1000_randls_74.json,http://54.235.29.9/FacialAge/BNav_EC2/DepthDuration/v2_depth_duration_MTurk/v2_DepthDuration_HTML.html#414,414,704,252,1366,768,9-4-2022,7-35-44,75,depth_duration_stimuli/002748_2014-06-22_19-07-22_094959634447_rgbf000078-resize_1/002748_2014-06-22_19-07-22_094959634447_rgbf000078-resize_1-target.png,1000,4.6705,0,4699,999,meters,jsons/v1_VE1000_randls_74.json,1416063,1716859,38,Woman
75,328135,DepthScenes,duration_manipulation_targetAtFixation,jsons/v1_VE1000_randls_74.json,http://54.235.29.9/FacialAge/BNav_EC2/DepthDuration/v2_depth_duration_MTurk/v2_DepthDuration_HTML.html#414,414,704,252,1366,768,9-4-2022,7-35-44,76,depth_duration_stimuli/002995_2014-06-15_12-31-26_094959634447_rgbf000150-resize_1/002995_2014-06-15_12-31-26_094959634447_rgbf000150-resize_1-target.png,1000,3.8360000000000003,0,24897,985,meters,jsons/v1_VE1000_randls_74.json,1416063,1716859,38,Woman
76,328135,DepthScenes,duration_manipulation_targetAtFixation,jsons/v1_VE1000_randls_74.json,http://54.235.29.9/FacialAge/BNav_EC2/DepthDuration/v2_depth_duration_MTurk/v2_DepthDuration_HTML.html#414,414,704,252,1366,768,9-4-2022,7-35-44,77,depth_duration_stimuli/002509_2014-06-24_13-19-22_094959634447_rgbf000077-resize_0/002509_2014-06-24_13-19-22_094959634447_rgbf000077-resize_0-target.png,1000,1.3065,0,2412,1000,meters,jsons/v1_VE1000_randls_74.json,1416063,1716859,38,Woman
77,328135,DepthScenes,duration_manipulation_targetAtFixation,jsons/v1_VE1000_randls_74.json,http://54.235.29.9/FacialAge/BNav_EC2/DepthDuration/v2_depth_duration_MTurk/v2_DepthDuration_HTML.html#414,414,704,252,1366,768,9-4-2022,7-35-44,78,depth_duration_stimuli/003338_2014-05-20_11-01-23_094959634447_rgbf000051-resize_6/003338_2014-05-20_11-01-23_094959634447_rgbf000051-resize_6-target.png,1000,1.693,0,2259,999,meters,jsons/v1_VE1000_randls_74.json,1416063,1716859,38,Woman
78,328135,DepthScenes,duration_manipulation_targetAtFixation,jsons/v1_VE1000_randls_74.json,http://54.235.29.9/FacialAge/BNav_EC2/DepthDuration/v2_depth_duration_MTurk/v2_DepthDuration_HTML.html#414,414,704,252,1366,768,9-4-2022,7-35-44,79,depth_duration_stimuli/002039_2014-06-24_20-22-38_260595134347_rgbf000084-resize_1/002039_2014-06-24_20-22-38_260595134347_rgbf000084-resize_1-target.png,1000,4.408,0,2270,999,meters,jsons/v1_VE1000_randls_74.json,1416063,1716859,38,Woman
79,328135,DepthScenes,duration_manipulation_targetAtFixation,jsons/v1_VE1000_randls_74.json,http://54.235.29.9/FacialAge/BNav_EC2/DepthDuration/v2_depth_duration_MTurk/v2_DepthDuration_HTML.html#414,414,704,252,1366,768,9-4-2022,7-35-44,80,depth_duration_stimuli/002103_2014-06-25_20-00-40_260595134347_rgbf000049-resize_0/002103_2014-06-25_20-00-40_260595134347_rgbf000049-resize_0-target.png,1000,4.105,0,16166,1000,meters,jsons/v1_VE1000_randls_74.json,1416063,1716859,38,Woman
80,328135,DepthScenes,duration_manipulation_targetAtFixation,jsons/v1_VE1000_randls_74.json,http://54.235.29.9/FacialAge/BNav_EC2/DepthDuration/v2_depth_duration_MTurk/v2_DepthDuration_HTML.html#414,414,704,252,1366,768,9-4-2022,7-35-44,81,depth_duration_stimuli/001110_2014-06-15_17-25-28_260595134347_rgbf000150-resize_1/001110_2014-06-15_17-25-28_260595134347_rgbf000150-resize_1-target.png,1000,1.7115,0,3094,999,meters,jsons/v1_VE1000_randls_74.json,1416063,1716859,38,Woman
81,328135,DepthScenes,duration_manipulation_targetAtFixation,jsons/v1_VE1000_randls_74.json,http://54.235.29.9/FacialAge/BNav_EC2/DepthDuration/v2_depth_duration_MTurk/v2_DepthDuration_HTML.html#414,414,704,252,1366,768,9-4-2022,7-35-44,82,depth_duration_stimuli/000927_2014-06-09_16-32-30_260595134347_rgbf000123-resize_3/000927_2014-06-09_16-32-30_260595134347_rgbf000123-resize_3-target.png,1000,2.6785,0,2225,990,meters,jsons/v1_VE1000_randls_74.json,1416063,1716859,38,Woman
82,328135,DepthScenes,duration_manipulation_targetAtFixation,jsons/v1_VE1000_randls_74.json,http://54.235.29.9/FacialAge/BNav_EC2/DepthDuration/v2_depth_duration_MTurk/v2_DepthDuration_HTML.html#414,414,704,252,1366,768,9-4-2022,7-35-44,83,depth_duration_stimuli/000906_2014-06-08_13-35-43_260595134347_rgbf000155-resize_1/000906_2014-06-08_13-35-43_260595134347_rgbf000155-resize_1-target.png,1000,2.8489999999999998,0,10509,998,meters,jsons/v1_VE1000_randls_74.json,1416063,1716859,38,Woman
83,328135,DepthScenes,duration_manipulation_targetAtFixation,jsons/v1_VE1000_randls_74.json,http://54.235.29.9/FacialAge/BNav_EC2/DepthDuration/v2_depth_duration_MTurk/v2_DepthDuration_HTML.html#414,414,704,252,1366,768,9-4-2022,7-35-44,84,depth_duration_stimuli/002805_2014-06-22_19-54-03_094959634447_rgbf000079-resize_1/002805_2014-06-22_19-54-03_094959634447_rgbf000079-resize_1-target.png,1000,3.1439999999999997,0,2160,1000,meters,jsons/v1_VE1000_randls_74.json,1416063,1716859,38,Woman
84,328135,DepthScenes,duration_manipulation_targetAtFixation,jsons/v1_VE1000_randls_74.json,http://54.235.29.9/FacialAge/BNav_EC2/DepthDuration/v2_depth_duration_MTurk/v2_DepthDuration_HTML.html#414,414,704,252,1366,768,9-4-2022,7-35-44,85,depth_duration_stimuli/001059_2014-06-08_21-53-27_260595134347_rgbf000061-resize_4/001059_2014-06-08_21-53-27_260595134347_rgbf000061-resize_4-target.png,1000,2.4185,0,10061,1005,meters,jsons/v1_VE1000_randls_74.json,1416063,1716859,38,Woman
85,328135,DepthScenes,duration_manipulation_targetAtFixation,jsons/v1_VE1000_randls_74.json,http://54.235.29.9/FacialAge/BNav_EC2/DepthDuration/v2_depth_duration_MTurk/v2_DepthDuration_HTML.html#414,414,704,252,1366,768,9-4-2022,7-35-44,86,depth_duration_stimuli/001032_2014-06-08_13-23-17_260595134347_rgbf000021-resize_3/001032_2014-06-08_13-23-17_260595134347_rgbf000021-resize_3-target.png,1000,3.2725,0,11233,1000,meters,jsons/v1_VE1000_randls_74.json,1416063,1716859,38,Woman
86,328135,DepthScenes,duration_manipulation_targetAtFixation,jsons/v1_VE1000_randls_74.json,http://54.235.29.9/FacialAge/BNav_EC2/DepthDuration/v2_depth_duration_MTurk/v2_DepthDuration_HTML.html#414,414,704,252,1366,768,9-4-2022,7-35-44,87,depth_duration_stimuli/002784_2014-06-22_19-26-30_094959634447_rgbf000083-resize_3/002784_2014-06-22_19-26-30_094959634447_rgbf000083-resize_3-target.png,1000,1.8046666666667,0,2330,1004,meters,jsons/v1_VE1000_randls_74.json,1416063,1716859,38,Woman
87,328135,DepthScenes,duration_manipulation_targetAtFixation,jsons/v1_VE1000_randls_74.json,http://54.235.29.9/FacialAge/BNav_EC2/DepthDuration/v2_depth_duration_MTurk/v2_DepthDuration_HTML.html#414,414,704,252,1366,768,9-4-2022,7-35-44,88,depth_duration_stimuli/001100_2014-06-15_17-46-26_260595134347_rgbf000225-resize_2/001100_2014-06-15_17-46-26_260595134347_rgbf000225-resize_2-target.png,1000,2.24,0,13766,1000,meters,jsons/v1_VE1000_randls_74.json,1416063,1716859,38,Woman
88,328135,DepthScenes,duration_manipulation_targetAtFixation,jsons/v1_VE1000_randls_74.json,http://54.235.29.9/FacialAge/BNav_EC2/DepthDuration/v2_depth_duration_MTurk/v2_DepthDuration_HTML.html#414,414,704,252,1366,768,9-4-2022,7-35-44,89,depth_duration_stimuli/001555_2014-06-20_17-12-10_260595134347_rgbf000065-resize_4/001555_2014-06-20_17-12-10_260595134347_rgbf000065-resize_4-target.png,1000,1.633,0,2110,1000,meters,jsons/v1_VE1000_randls_74.json,1416063,1716859,38,Woman
89,328135,DepthScenes,duration_manipulation_targetAtFixation,jsons/v1_VE1000_randls_74.json,http://54.235.29.9/FacialAge/BNav_EC2/DepthDuration/v2_depth_duration_MTurk/v2_DepthDuration_HTML.html#414,414,704,252,1366,768,9-4-2022,7-35-44,90,depth_duration_stimuli/000103_2014-05-14_22-01-17_260595134347_rgbf000152-resize_5/000103_2014-05-14_22-01-17_260595134347_rgbf000152-resize_5-target.png,1000,1.993,0,5597,999,meters,jsons/v1_VE1000_randls_74.json,1416063,1716859,38,Woman
90,328135,DepthScenes,duration_manipulation_targetAtFixation,jsons/v1_VE1000_randls_74.json,http://54.235.29.9/FacialAge/BNav_EC2/DepthDuration/v2_depth_duration_MTurk/v2_DepthDuration_HTML.html#414,414,704,252,1366,768,9-4-2022,7-35-44,91,depth_duration_stimuli/000447_2014-06-08_16-15-46_260595134347_rgbf000130-resize_1/000447_2014-06-08_16-15-46_260595134347_rgbf000130-resize_1-target.png,1000,4.479,0,2288,999,meters,jsons/v1_VE1000_randls_74.json,1416063,1716859,38,Woman
91,328135,DepthScenes,duration_manipulation_targetAtFixation,jsons/v1_VE1000_randls_74.json,http://54.235.29.9/FacialAge/BNav_EC2/DepthDuration/v2_depth_duration_MTurk/v2_DepthDuration_HTML.html#414,414,704,252,1366,768,9-4-2022,7-35-44,92,depth_duration_stimuli/001447_2014-06-19_17-00-32_260595134347_rgbf000082-resize_5/001447_2014-06-19_17-00-32_260595134347_rgbf000082-resize_5-target.png,1000,4.13775,0,16877,999,meters,jsons/v1_VE1000_randls_74.json,1416063,1716859,38,Woman
92,328135,DepthScenes,duration_manipulation_targetAtFixation,jsons/v1_VE1000_randls_74.json,http://54.235.29.9/FacialAge/BNav_EC2/DepthDuration/v2_depth_duration_MTurk/v2_DepthDuration_HTML.html#414,414,704,252,1366,768,9-4-2022,7-35-44,93,depth_duration_stimuli/002445_2014-06-28_20-32-16_260595134347_rgbf000029-resize_4/002445_2014-06-28_20-32-16_260595134347_rgbf000029-resize_4-target.png,1000,2.5315,0,2527,998,meters,jsons/v1_VE1000_randls_74.json,1416063,1716859,38,Woman
93,328135,DepthScenes,duration_manipulation_targetAtFixation,jsons/v1_VE1000_randls_74.json,http://54.235.29.9/FacialAge/BNav_EC2/DepthDuration/v2_depth_duration_MTurk/v2_DepthDuration_HTML.html#414,414,704,252,1366,768,9-4-2022,7-35-44,94,depth_duration_stimuli/000780_2014-06-08_22-28-29_260595134347_rgbf000126-resize_1/000780_2014-06-08_22-28-29_260595134347_rgbf000126-resize_1-target.png,1000,3.3825,0,5381,999,meters,jsons/v1_VE1000_randls_74.json,1416063,1716859,38,Woman
94,328135,DepthScenes,duration_manipulation_targetAtFixation,jsons/v1_VE1000_randls_74.json,http://54.235.29.9/FacialAge/BNav_EC2/DepthDuration/v2_depth_duration_MTurk/v2_DepthDuration_HTML.html#414,414,704,252,1366,768,9-4-2022,7-35-44,95,depth_duration_stimuli/002570_2014-06-24_13-59-54_094959634447_rgbf000059-resize_0/002570_2014-06-24_13-59-54_094959634447_rgbf000059-resize_0-target.png,1000,4.037,0,5821,999,meters,jsons/v1_VE1000_randls_74.json,1416063,1716859,38,Woman
95,328135,DepthScenes,duration_manipulation_targetAtFixation,jsons/v1_VE1000_randls_74.json,http://54.235.29.9/FacialAge/BNav_EC2/DepthDuration/v2_depth_duration_MTurk/v2_DepthDuration_HTML.html#414,414,704,252,1366,768,9-4-2022,7-35-44,96,depth_duration_stimuli/002467_2014-06-28_20-38-07_260595134347_rgbf000026-resize_2/002467_2014-06-28_20-38-07_260595134347_rgbf000026-resize_2-target.png,1000,4.742,0,6342,1004,meters,jsons/v1_VE1000_randls_74.json,1416063,1716859,38,Woman
96,328135,DepthScenes,duration_manipulation_targetAtFixation,jsons/v1_VE1000_randls_74.json,http://54.235.29.9/FacialAge/BNav_EC2/DepthDuration/v2_depth_duration_MTurk/v2_DepthDuration_HTML.html#414,414,704,252,1366,768,9-4-2022,7-35-44,97,depth_duration_stimuli/003292_2014-05-14_21-53-49_094959634447_rgbf000100-resize_2/003292_2014-05-14_21-53-49_094959634447_rgbf000100-resize_2-target.png,1000,3.4815,0,5175,999,meters,jsons/v1_VE1000_randls_74.json,1416063,1716859,38,Woman
97,328135,DepthScenes,duration_manipulation_targetAtFixation,jsons/v1_VE1000_randls_74.json,http://54.235.29.9/FacialAge/BNav_EC2/DepthDuration/v2_depth_duration_MTurk/v2_DepthDuration_HTML.html#414,414,704,252,1366,768,9-4-2022,7-35-44,98,depth_duration_stimuli/002639_2014-06-24_14-51-37_094959634447_rgbf000074-resize_4/002639_2014-06-24_14-51-37_094959634447_rgbf000074-resize_4-target.png,1000,4.0375,0,6434,999,meters,jsons/v1_VE1000_randls_74.json,1416063,1716859,38,Woman
98,328135,DepthScenes,duration_manipulation_targetAtFixation,jsons/v1_VE1000_randls_74.json,http://54.235.29.9/FacialAge/BNav_EC2/DepthDuration/v2_depth_duration_MTurk/v2_DepthDuration_HTML.html#414,414,704,252,1366,768,9-4-2022,7-35-44,99,depth_duration_stimuli/001540_2014-06-20_17-01-05_260595134347_rgbf000086-resize_2/001540_2014-06-20_17-01-05_260595134347_rgbf000086-resize-original.jpg,1000,1.459,0,6126,980,meters,jsons/v1_VE1000_randls_74.json,1416063,1716859,38,Woman
99,328135,DepthScenes,duration_manipulation_targetAtFixation,jsons/v1_VE1000_randls_74.json,http://54.235.29.9/FacialAge/BNav_EC2/DepthDuration/v2_depth_duration_MTurk/v2_DepthDuration_HTML.html#414,414,704,252,1366,768,9-4-2022,7-35-44,100,depth_duration_stimuli/001449_2014-06-19_17-01-27_260595134347_rgbf000116-resize_2/001449_2014-06-19_17-01-27_260595134347_rgbf000116-resize_2-target.png,1000,3.452,0,5593,990,meters,jsons/v1_VE1000_randls_74.json,1416063,1716859,38,Woman
100,328135,DepthScenes,duration_manipulation_targetAtFixation,jsons/v1_VE1000_randls_74.json,http://54.235.29.9/FacialAge/BNav_EC2/DepthDuration/v2_depth_duration_MTurk/v2_DepthDuration_HTML.html#414,414,704,252,1366,768,9-4-2022,7-35-44,101,depth_duration_stimuli/001450_2014-06-19_17-02-03_260595134347_rgbf000203-resize_4/001450_2014-06-19_17-02-03_260595134347_rgbf000203-resize_4-target.png,1000,4.0106666666667,0,7906,999,meters,jsons/v1_VE1000_randls_74.json,1416063,1716859,38,Woman
101,328135,DepthScenes,duration_manipulation_targetAtFixation,jsons/v1_VE1000_randls_74.json,http://54.235.29.9/FacialAge/BNav_EC2/DepthDuration/v2_depth_duration_MTurk/v2_DepthDuration_HTML.html#414,414,704,252,1366,768,9-4-2022,7-35-44,102,depth_duration_stimuli/002988_2014-06-15_12-24-20_094959634447_rgbf000150-resize_1/002988_2014-06-15_12-24-20_094959634447_rgbf000150-resize_1-target.png,1000,4.7669999999999995,0,5855,1003,meters,jsons/v1_VE1000_randls_74.json,1416063,1716859,38,Woman
102,328135,DepthScenes,duration_manipulation_targetAtFixation,jsons/v1_VE1000_randls_74.json,http://54.235.29.9/FacialAge/BNav_EC2/DepthDuration/v2_depth_duration_MTurk/v2_DepthDuration_HTML.html#414,414,704,252,1366,768,9-4-2022,7-35-44,103,depth_duration_stimuli/001052_2014-06-08_18-24-54_260595134347_rgbf000130-resize_1/001052_2014-06-08_18-24-54_260595134347_rgbf000130-resize_1-target.png,1000,4.1045,0,5779,999,meters,jsons/v1_VE1000_randls_74.json,1416063,1716859,38,Woman
103,328135,DepthScenes,duration_manipulation_targetAtFixation,jsons/v1_VE1000_randls_74.json,http://54.235.29.9/FacialAge/BNav_EC2/DepthDuration/v2_depth_duration_MTurk/v2_DepthDuration_HTML.html#414,414,704,252,1366,768,9-4-2022,7-35-44,104,depth_duration_stimuli/002964_2014-06-08_17-46-11_094959634447_rgbf000091-resize_4/002964_2014-06-08_17-46-11_094959634447_rgbf000091-resize_4-target.png,1000,1.6909999999999998,0,9688,1001,meters,jsons/v1_VE1000_randls_74.json,1416063,1716859,38,Woman
104,328135,DepthScenes,duration_manipulation_targetAtFixation,jsons/v1_VE1000_randls_74.json,http://54.235.29.9/FacialAge/BNav_EC2/DepthDuration/v2_depth_duration_MTurk/v2_DepthDuration_HTML.html#414,414,704,252,1366,768,9-4-2022,7-35-44,105,depth_duration_stimuli/002136_2014-06-25_21-18-03_260595134347_rgbf000109-resize_3/002136_2014-06-25_21-18-03_260595134347_rgbf000109-resize_3-target.png,1000,1.9569999999999999,0,5923,999,meters,jsons/v1_VE1000_randls_74.json,1416063,1716859,38,Woman
105,328135,DepthScenes,duration_manipulation_targetAtFixation,jsons/v1_VE1000_randls_74.json,http://54.235.29.9/FacialAge/BNav_EC2/DepthDuration/v2_depth_duration_MTurk/v2_DepthDuration_HTML.html#414,414,704,252,1366,768,9-4-2022,7-35-44,106,depth_duration_stimuli/000788_2014-06-08_22-34-36_260595134347_rgbf000131-resize_1/000788_2014-06-08_22-34-36_260595134347_rgbf000131-resize_1-target.png,1000,3.359,0,6621,998,meters,jsons/v1_VE1000_randls_74.json,1416063,1716859,38,Woman
106,328135,DepthScenes,duration_manipulation_targetAtFixation,jsons/v1_VE1000_randls_74.json,http://54.235.29.9/FacialAge/BNav_EC2/DepthDuration/v2_depth_duration_MTurk/v2_DepthDuration_HTML.html#414,414,704,252,1366,768,9-4-2022,7-35-44,107,depth_duration_stimuli/001235_2014-06-17_16-37-36_260595134347_rgbf000084-resize_4/001235_2014-06-17_16-37-36_260595134347_rgbf000084-resize_4-target.png,1000,3.6605,0,6259,1001,meters,jsons/v1_VE1000_randls_74.json,1416063,1716859,38,Woman
107,328135,DepthScenes,duration_manipulation_targetAtFixation,jsons/v1_VE1000_randls_74.json,http://54.235.29.9/FacialAge/BNav_EC2/DepthDuration/v2_depth_duration_MTurk/v2_DepthDuration_HTML.html#414,414,704,252,1366,768,9-4-2022,7-35-44,108,depth_duration_stimuli/001056_2014-06-08_18-46-44_260595134347_rgbf000068-resize_0/001056_2014-06-08_18-46-44_260595134347_rgbf000068-resize_0-target.png,1000,2.6625,0,41849,1000,meters,jsons/v1_VE1000_randls_74.json,1416063,1716859,38,Woman
108,328135,DepthScenes,duration_manipulation_targetAtFixation,jsons/v1_VE1000_randls_74.json,http://54.235.29.9/FacialAge/BNav_EC2/DepthDuration/v2_depth_duration_MTurk/v2_DepthDuration_HTML.html#414,414,704,252,1366,768,9-4-2022,7-35-44,109,depth_duration_stimuli/002199_2014-06-28_18-33-56_260595134347_rgbf000074-resize_0/002199_2014-06-28_18-33-56_260595134347_rgbf000074-resize_0-target.png,1000,1.996,0,8281,1000,meters,jsons/v1_VE1000_randls_74.json,1416063,1716859,38,Woman
109,328135,DepthScenes,duration_manipulation_targetAtFixation,jsons/v1_VE1000_randls_74.json,http://54.235.29.9/FacialAge/BNav_EC2/DepthDuration/v2_depth_duration_MTurk/v2_DepthDuration_HTML.html#414,414,704,252,1366,768,9-4-2022,7-35-44,110,depth_duration_stimuli/000692_2014-06-08_13-09-42_260595134347_rgbf000199-resize_2/000692_2014-06-08_13-09-42_260595134347_rgbf000199-resize_2-target.png,1000,3.661,0,47017,999,meters,jsons/v1_VE1000_randls_74.json,1416063,1716859,38,Woman
110,328135,DepthScenes,duration_manipulation_targetAtFixation,jsons/v1_VE1000_randls_74.json,http://54.235.29.9/FacialAge/BNav_EC2/DepthDuration/v2_depth_duration_MTurk/v2_DepthDuration_HTML.html#414,414,704,252,1366,768,9-4-2022,7-35-44,111,depth_duration_stimuli/001094_2014-06-15_17-36-00_260595134347_rgbf000205-resize_0/001094_2014-06-15_17-36-00_260595134347_rgbf000205-resize_0-target.png,1000,4.2175,0,2175,998,meters,jsons/v1_VE1000_randls_74.json,1416063,1716859,38,Woman
111,328135,DepthScenes,duration_manipulation_targetAtFixation,jsons/v1_VE1000_randls_74.json,http://54.235.29.9/FacialAge/BNav_EC2/DepthDuration/v2_depth_duration_MTurk/v2_DepthDuration_HTML.html#414,414,704,252,1366,768,9-4-2022,7-35-44,112,depth_duration_stimuli/000469_2014-06-09_19-42-10_260595134347_rgbf000081-resize_1/000469_2014-06-09_19-42-10_260595134347_rgbf000081-resize_1-target.png,1000,1.652,0,2177,998,meters,jsons/v1_VE1000_randls_74.json,1416063,1716859,38,Woman
112,328135,DepthScenes,duration_manipulation_targetAtFixation,jsons/v1_VE1000_randls_74.json,http://54.235.29.9/FacialAge/BNav_EC2/DepthDuration/v2_depth_duration_MTurk/v2_DepthDuration_HTML.html#414,414,704,252,1366,768,9-4-2022,7-35-44,113,depth_duration_stimuli/000483_2014-06-09_20-41-45_260595134347_rgbf000116-resize_4/000483_2014-06-09_20-41-45_260595134347_rgbf000116-resize_4-target.png,1000,1.337,0,2062,988,meters,jsons/v1_VE1000_randls_74.json,1416063,1716859,38,Woman
113,328135,DepthScenes,duration_manipulation_targetAtFixation,jsons/v1_VE1000_randls_74.json,http://54.235.29.9/FacialAge/BNav_EC2/DepthDuration/v2_depth_duration_MTurk/v2_DepthDuration_HTML.html#414,414,704,252,1366,768,9-4-2022,7-35-44,114,depth_duration_stimuli/000470_2014-06-09_19-42-40_260595134347_rgbf000094-resize_1/000470_2014-06-09_19-42-40_260595134347_rgbf000094-resize_1-target.png,1000,1.831,0,5302,1000,meters,jsons/v1_VE1000_randls_74.json,1416063,1716859,38,Woman
114,328135,DepthScenes,duration_manipulation_targetAtFixation,jsons/v1_VE1000_randls_74.json,http://54.235.29.9/FacialAge/BNav_EC2/DepthDuration/v2_depth_duration_MTurk/v2_DepthDuration_HTML.html#414,414,704,252,1366,768,9-4-2022,7-35-44,115,depth_duration_stimuli/000109_2014-05-14_23-41-52_260595134347_rgbf000035-resize_9/000109_2014-05-14_23-41-52_260595134347_rgbf000035-resize_9-target.png,1000,1.3545,0,2305,1000,meters,jsons/v1_VE1000_randls_74.json,1416063,1716859,38,Woman
115,328135,DepthScenes,duration_manipulation_targetAtFixation,jsons/v1_VE1000_randls_74.json,http://54.235.29.9/FacialAge/BNav_EC2/DepthDuration/v2_depth_duration_MTurk/v2_DepthDuration_HTML.html#414,414,704,252,1366,768,9-4-2022,7-35-44,116,depth_duration_stimuli/001170_2014-06-17_15-43-44_260595134347_rgbf000096-resize_6/001170_2014-06-17_15-43-44_260595134347_rgbf000096-resize-original.jpg,1000,1.1909999999999998,0,30631,1000,meters,jsons/v1_VE1000_randls_74.json,1416063,1716859,38,Woman
116,328135,DepthScenes,duration_manipulation_targetAtFixation,jsons/v1_VE1000_randls_74.json,http://54.235.29.9/FacialAge/BNav_EC2/DepthDuration/v2_depth_duration_MTurk/v2_DepthDuration_HTML.html#414,414,704,252,1366,768,9-4-2022,7-35-44,117,depth_duration_stimuli/000009_2014-05-26_14-32-05_260595134347_rgbf000034-resize_3/000009_2014-05-26_14-32-05_260595134347_rgbf000034-resize_3-target.png,1000,3.8715,0,46908,999,meters,jsons/v1_VE1000_randls_74.json,1416063,1716859,38,Woman
117,328135,DepthScenes,duration_manipulation_targetAtFixation,jsons/v1_VE1000_randls_74.json,http://54.235.29.9/FacialAge/BNav_EC2/DepthDuration/v2_depth_duration_MTurk/v2_DepthDuration_HTML.html#414,414,704,252,1366,768,9-4-2022,7-35-44,118,depth_duration_stimuli/001828_2014-06-26_21-40-03_260595134347_rgbf000024-resize_0/001828_2014-06-26_21-40-03_260595134347_rgbf000024-resize_0-target.png,1000,4.8260000000000005,0,16232,998,meters,jsons/v1_VE1000_randls_74.json,1416063,1716859,38,Woman
118,328135,DepthScenes,duration_manipulation_targetAtFixation,jsons/v1_VE1000_randls_74.json,http://54.235.29.9/FacialAge/BNav_EC2/DepthDuration/v2_depth_duration_MTurk/v2_DepthDuration_HTML.html#414,414,704,252,1366,768,9-4-2022,7-35-44,119,depth_duration_stimuli/000642_2014-06-08_16-59-25_260595134347_rgbf000098-resize_2/000642_2014-06-08_16-59-25_260595134347_rgbf000098-resize_2-target.png,1000,2.8815,0,2291,998,meters,jsons/v1_VE1000_randls_74.json,1416063,1716859,38,Woman
119,328135,DepthScenes,duration_manipulation_targetAtFixation,jsons/v1_VE1000_randls_74.json,http://54.235.29.9/FacialAge/BNav_EC2/DepthDuration/v2_depth_duration_MTurk/v2_DepthDuration_HTML.html#414,414,704,252,1366,768,9-4-2022,7-35-44,120,depth_duration_stimuli/002425_2014-06-28_20-27-29_260595134347_rgbf000031-resize_8/002425_2014-06-28_20-27-29_260595134347_rgbf000031-resize_8-target.png,1000,3.8960000000000004,0,12815,998,meters,jsons/v1_VE1000_randls_74.json,1416063,1716859,38,Woman
120,328135,DepthScenes,duration_manipulation_targetAtFixation,jsons/v1_VE1000_randls_74.json,http://54.235.29.9/FacialAge/BNav_EC2/DepthDuration/v2_depth_duration_MTurk/v2_DepthDuration_HTML.html#414,414,704,252,1366,768,9-4-2022,7-35-44,121,depth_duration_stimuli/002763_2014-06-22_19-13-10_094959634447_rgbf000075-resize_4/002763_2014-06-22_19-13-10_094959634447_rgbf000075-resize_4-target.png,1000,1.68375,0,38317,1015,meters,jsons/v1_VE1000_randls_74.json,1416063,1716859,38,Woman
121,328135,DepthScenes,duration_manipulation_targetAtFixation,jsons/v1_VE1000_randls_74.json,http://54.235.29.9/FacialAge/BNav_EC2/DepthDuration/v2_depth_duration_MTurk/v2_DepthDuration_HTML.html#414,414,704,252,1366,768,9-4-2022,7-35-44,122,depth_duration_stimuli/002209_2014-06-28_18-36-10_260595134347_rgbf000051-resize_1/002209_2014-06-28_18-36-10_260595134347_rgbf000051-resize_1-target.png,1000,2.057,0,2202,998,meters,jsons/v1_VE1000_randls_74.json,1416063,1716859,38,Woman
122,328135,DepthScenes,duration_manipulation_targetAtFixation,jsons/v1_VE1000_randls_74.json,http://54.235.29.9/FacialAge/BNav_EC2/DepthDuration/v2_depth_duration_MTurk/v2_DepthDuration_HTML.html#414,414,704,252,1366,768,9-4-2022,7-35-44,123,depth_duration_stimuli/002905_2014-06-03_18-04-43_094959634447_rgbf000151-resize_2/002905_2014-06-03_18-04-43_094959634447_rgbf000151-resize_2-target.png,1000,2.0295,0,2148,999,meters,jsons/v1_VE1000_randls_74.json,1416063,1716859,38,Woman
123,328135,DepthScenes,duration_manipulation_targetAtFixation,jsons/v1_VE1000_randls_74.json,http://54.235.29.9/FacialAge/BNav_EC2/DepthDuration/v2_depth_duration_MTurk/v2_DepthDuration_HTML.html#414,414,704,252,1366,768,9-4-2022,7-35-44,124,depth_duration_stimuli/003423_2014-05-21_10-23-26_094959634447_rgbf002665-resize_2/003423_2014-05-21_10-23-26_094959634447_rgbf002665-resize_2-target.png,1000,3.2575,0,2075,988,meters,jsons/v1_VE1000_randls_74.json,1416063,1716859,38,Woman
124,328135,DepthScenes,duration_manipulation_targetAtFixation,jsons/v1_VE1000_randls_74.json,http://54.235.29.9/FacialAge/BNav_EC2/DepthDuration/v2_depth_duration_MTurk/v2_DepthDuration_HTML.html#414,414,704,252,1366,768,9-4-2022,7-35-44,125,depth_duration_stimuli/002118_2014-06-25_20-32-08_260595134347_rgbf000078-resize_1/002118_2014-06-25_20-32-08_260595134347_rgbf000078-resize_1-target.png,1000,2.6460000000000004,0,2154,999,meters,jsons/v1_VE1000_randls_74.json,1416063,1716859,38,Woman
125,328135,DepthScenes,duration_manipulation_targetAtFixation,jsons/v1_VE1000_randls_74.json,http://54.235.29.9/FacialAge/BNav_EC2/DepthDuration/v2_depth_duration_MTurk/v2_DepthDuration_HTML.html#414,414,704,252,1366,768,9-4-2022,7-35-44,126,depth_duration_stimuli/001516_2014-06-20_16-25-09_260595134347_rgbf000076-resize_2/001516_2014-06-20_16-25-09_260595134347_rgbf000076-resize_2-target.png,1000,1.7445,0,24936,998,meters,jsons/v1_VE1000_randls_74.json,1416063,1716859,38,Woman
126,328135,DepthScenes,duration_manipulation_targetAtFixation,jsons/v1_VE1000_randls_74.json,http://54.235.29.9/FacialAge/BNav_EC2/DepthDuration/v2_depth_duration_MTurk/v2_DepthDuration_HTML.html#414,414,704,252,1366,768,9-4-2022,7-35-44,127,depth_duration_stimuli/000436_2014-06-09_22-25-11_260595134347_rgbf000137-resize_1/000436_2014-06-09_22-25-11_260595134347_rgbf000137-resize_1-target.png,1000,4.0705,0,2047,999,meters,jsons/v1_VE1000_randls_74.json,1416063,1716859,38,Woman
127,328135,DepthScenes,duration_manipulation_targetAtFixation,jsons/v1_VE1000_randls_74.json,http://54.235.29.9/FacialAge/BNav_EC2/DepthDuration/v2_depth_duration_MTurk/v2_DepthDuration_HTML.html#414,414,704,252,1366,768,9-4-2022,7-35-44,128,depth_duration_stimuli/002444_2014-06-28_20-32-08_260595134347_rgbf000027-resize_0/002444_2014-06-28_20-32-08_260595134347_rgbf000027-resize_0-target.png,1000,4.388999999999999,0,2053,1001,meters,jsons/v1_VE1000_randls_74.json,1416063,1716859,38,Woman
128,328135,DepthScenes,duration_manipulation_targetAtFixation,jsons/v1_VE1000_randls_74.json,http://54.235.29.9/FacialAge/BNav_EC2/DepthDuration/v2_depth_duration_MTurk/v2_DepthDuration_HTML.html#414,414,704,252,1366,768,9-4-2022,7-35-44,129,depth_duration_stimuli/000810_2014-06-08_17-20-01_260595134347_rgbf000105-resize_0/000810_2014-06-08_17-20-01_260595134347_rgbf000105-resize_0-target.png,1000,1.4865,0,2050,998,meters,jsons/v1_VE1000_randls_74.json,1416063,1716859,38,Woman
129,328135,DepthScenes,duration_manipulation_targetAtFixation,jsons/v1_VE1000_randls_74.json,http://54.235.29.9/FacialAge/BNav_EC2/DepthDuration/v2_depth_duration_MTurk/v2_DepthDuration_HTML.html#414,414,704,252,1366,768,9-4-2022,7-35-44,130,depth_duration_stimuli/001214_2014-06-17_16-13-55_260595134347_rgbf000111-resize_0/001214_2014-06-17_16-13-55_260595134347_rgbf000111-resize_0-target.png,1000,2.6505,0,1964,1000,meters,jsons/v1_VE1000_randls_74.json,1416063,1716859,38,Woman
130,328135,DepthScenes,duration_manipulation_targetAtFixation,jsons/v1_VE1000_randls_74.json,http://54.235.29.9/FacialAge/BNav_EC2/DepthDuration/v2_depth_duration_MTurk/v2_DepthDuration_HTML.html#414,414,704,252,1366,768,9-4-2022,7-35-44,131,depth_duration_stimuli/000773_2014-06-08_22-24-54_260595134347_rgbf000093-resize_1/000773_2014-06-08_22-24-54_260595134347_rgbf000093-resize_1-target.png,1000,4.973,0,3053,999,meters,jsons/v1_VE1000_randls_74.json,1416063,1716859,38,Woman
131,328135,DepthScenes,duration_manipulation_targetAtFixation,jsons/v1_VE1000_randls_74.json,http://54.235.29.9/FacialAge/BNav_EC2/DepthDuration/v2_depth_duration_MTurk/v2_DepthDuration_HTML.html#414,414,704,252,1366,768,9-4-2022,7-35-44,132,depth_duration_stimuli/002414_2014-06-28_20-24-58_260595134347_rgbf000067-resize_4/002414_2014-06-28_20-24-58_260595134347_rgbf000067-resize_4-target.png,1000,4.363,0,3030,1000,meters,jsons/v1_VE1000_randls_74.json,1416063,1716859,38,Woman
132,328135,DepthScenes,duration_manipulation_targetAtFixation,jsons/v1_VE1000_randls_74.json,http://54.235.29.9/FacialAge/BNav_EC2/DepthDuration/v2_depth_duration_MTurk/v2_DepthDuration_HTML.html#414,414,704,252,1366,768,9-4-2022,7-35-44,133,depth_duration_stimuli/000368_2014-06-09_15-53-01_260595134347_rgbf000155-resize_2/000368_2014-06-09_15-53-01_260595134347_rgbf000155-resize_2-target.png,1000,2.4859999999999998,0,2804,998,meters,jsons/v1_VE1000_randls_74.json,1416063,1716859,38,Woman
133,328135,DepthScenes,duration_manipulation_targetAtFixation,jsons/v1_VE1000_randls_74.json,http://54.235.29.9/FacialAge/BNav_EC2/DepthDuration/v2_depth_duration_MTurk/v2_DepthDuration_HTML.html#414,414,704,252,1366,768,9-4-2022,7-35-44,134,depth_duration_stimuli/002678_2014-06-13_16-15-32_094959634447_rgbf000151-resize_6/002678_2014-06-13_16-15-32_094959634447_rgbf000151-resize_6-target.png,1000,2.1830000000000003,0,3426,999,meters,jsons/v1_VE1000_randls_74.json,1416063,1716859,38,Woman
134,328135,DepthScenes,duration_manipulation_targetAtFixation,jsons/v1_VE1000_randls_74.json,http://54.235.29.9/FacialAge/BNav_EC2/DepthDuration/v2_depth_duration_MTurk/v2_DepthDuration_HTML.html#414,414,704,252,1366,768,9-4-2022,7-35-44,135,depth_duration_stimuli/002072_2014-06-24_21-48-06_260595134347_rgbf000115-resize_0/002072_2014-06-24_21-48-06_260595134347_rgbf000115-resize-original.jpg,1000,4.702,0,3148,997,meters,jsons/v1_VE1000_randls_74.json,1416063,1716859,38,Woman
135,328135,DepthScenes,duration_manipulation_targetAtFixation,jsons/v1_VE1000_randls_74.json,http://54.235.29.9/FacialAge/BNav_EC2/DepthDuration/v2_depth_duration_MTurk/v2_DepthDuration_HTML.html#414,414,704,252,1366,768,9-4-2022,7-35-44,136,depth_duration_stimuli/001808_2014-06-26_20-50-58_260595134347_rgbf000029-resize_1/001808_2014-06-26_20-50-58_260595134347_rgbf000029-resize_1-target.png,1000,4.249,0,3012,999,meters,jsons/v1_VE1000_randls_74.json,1416063,1716859,38,Woman
136,328135,DepthScenes,duration_manipulation_targetAtFixation,jsons/v1_VE1000_randls_74.json,http://54.235.29.9/FacialAge/BNav_EC2/DepthDuration/v2_depth_duration_MTurk/v2_DepthDuration_HTML.html#414,414,704,252,1366,768,9-4-2022,7-35-44,137,depth_duration_stimuli/001815_2014-06-26_20-52-55_260595134347_rgbf000020-resize_0/001815_2014-06-26_20-52-55_260595134347_rgbf000020-resize_0-target.png,1000,3.3865,0,2677,1000,meters,jsons/v1_VE1000_randls_74.json,1416063,1716859,38,Woman
137,328135,DepthScenes,duration_manipulation_targetAtFixation,jsons/v1_VE1000_randls_74.json,http://54.235.29.9/FacialAge/BNav_EC2/DepthDuration/v2_depth_duration_MTurk/v2_DepthDuration_HTML.html#414,414,704,252,1366,768,9-4-2022,7-35-44,138,depth_duration_stimuli/001158_2014-06-17_15-32-16_260595134347_rgbf000138-resize_2/001158_2014-06-17_15-32-16_260595134347_rgbf000138-resize_2-target.png,1000,4.5315,0,3760,999,meters,jsons/v1_VE1000_randls_74.json,1416063,1716859,38,Woman
138,328135,DepthScenes,duration_manipulation_targetAtFixation,jsons/v1_VE1000_randls_74.json,http://54.235.29.9/FacialAge/BNav_EC2/DepthDuration/v2_depth_duration_MTurk/v2_DepthDuration_HTML.html#414,414,704,252,1366,768,9-4-2022,7-35-44,139,depth_duration_stimuli/000556_2014-06-09_22-42-56_260595134347_rgbf000214-resize_1/000556_2014-06-09_22-42-56_260595134347_rgbf000214-resize_1-target.png,1000,4.8415,0,2686,999,meters,jsons/v1_VE1000_randls_74.json,1416063,1716859,38,Woman
139,328135,DepthScenes,duration_manipulation_targetAtFixation,jsons/v1_VE1000_randls_74.json,http://54.235.29.9/FacialAge/BNav_EC2/DepthDuration/v2_depth_duration_MTurk/v2_DepthDuration_HTML.html#414,414,704,252,1366,768,9-4-2022,7-35-44,140,depth_duration_stimuli/000522_2014-06-08_13-35-06_260595134347_rgbf000244-resize_1/000522_2014-06-08_13-35-06_260595134347_rgbf000244-resize_1-target.png,1000,2.3715,0,2717,1009,meters,jsons/v1_VE1000_randls_74.json,1416063,1716859,38,Woman
140,328135,DepthScenes,duration_manipulation_targetAtFixation,jsons/v1_VE1000_randls_74.json,http://54.235.29.9/FacialAge/BNav_EC2/DepthDuration/v2_depth_duration_MTurk/v2_DepthDuration_HTML.html#414,414,704,252,1366,768,9-4-2022,7-35-44,141,depth_duration_stimuli/002949_2014-06-26_15-57-42_094959634447_rgbf000079-resize_1/002949_2014-06-26_15-57-42_094959634447_rgbf000079-resize_1-target.png,1000,1.8915,0,3098,985,meters,jsons/v1_VE1000_randls_74.json,1416063,1716859,38,Woman
141,328135,DepthScenes,duration_manipulation_targetAtFixation,jsons/v1_VE1000_randls_74.json,http://54.235.29.9/FacialAge/BNav_EC2/DepthDuration/v2_depth_duration_MTurk/v2_DepthDuration_HTML.html#414,414,704,252,1366,768,9-4-2022,7-35-44,142,depth_duration_stimuli/000917_2014-06-09_22-45-29_260595134347_rgbf000149-resize_3/000917_2014-06-09_22-45-29_260595134347_rgbf000149-resize_3-target.png,1000,4.1865,0,2684,1000,meters,jsons/v1_VE1000_randls_74.json,1416063,1716859,38,Woman
142,328135,DepthScenes,duration_manipulation_targetAtFixation,jsons/v1_VE1000_randls_74.json,http://54.235.29.9/FacialAge/BNav_EC2/DepthDuration/v2_depth_duration_MTurk/v2_DepthDuration_HTML.html#414,414,704,252,1366,768,9-4-2022,7-35-44,143,depth_duration_stimuli/002323_2014-06-28_20-01-54_260595134347_rgbf000051-resize_4/002323_2014-06-28_20-01-54_260595134347_rgbf000051-resize_4-target.png,1000,3.7310000000000003,0,2594,999,meters,jsons/v1_VE1000_randls_74.json,1416063,1716859,38,Woman
143,328135,DepthScenes,duration_manipulation_targetAtFixation,jsons/v1_VE1000_randls_74.json,http://54.235.29.9/FacialAge/BNav_EC2/DepthDuration/v2_depth_duration_MTurk/v2_DepthDuration_HTML.html#414,414,704,252,1366,768,9-4-2022,7-35-44,144,depth_duration_stimuli/002725_2014-06-22_11-47-51_094959634447_rgbf000070-resize_1/002725_2014-06-22_11-47-51_094959634447_rgbf000070-resize_1-target.png,1000,2.195,0,2966,977,meters,jsons/v1_VE1000_randls_74.json,1416063,1716859,38,Woman
144,328135,DepthScenes,duration_manipulation_targetAtFixation,jsons/v1_VE1000_randls_74.json,http://54.235.29.9/FacialAge/BNav_EC2/DepthDuration/v2_depth_duration_MTurk/v2_DepthDuration_HTML.html#414,414,704,252,1366,768,9-4-2022,7-35-44,145,depth_duration_stimuli/002344_2014-06-28_20-06-29_260595134347_rgbf000030-resize_1/002344_2014-06-28_20-06-29_260595134347_rgbf000030-resize_1-target.png,1000,1.5795,0,3536,1001,meters,jsons/v1_VE1000_randls_74.json,1416063,1716859,38,Woman
145,328135,DepthScenes,duration_manipulation_targetAtFixation,jsons/v1_VE1000_randls_74.json,http://54.235.29.9/FacialAge/BNav_EC2/DepthDuration/v2_depth_duration_MTurk/v2_DepthDuration_HTML.html#414,414,704,252,1366,768,9-4-2022,7-35-44,146,depth_duration_stimuli/001498_2014-06-19_17-45-14_260595134347_rgbf000129-resize_4/001498_2014-06-19_17-45-14_260595134347_rgbf000129-resize-original.jpg,1000,1.4075,0,2169,998,meters,jsons/v1_VE1000_randls_74.json,1416063,1716859,38,Woman
146,328135,DepthScenes,duration_manipulation_targetAtFixation,jsons/v1_VE1000_randls_74.json,http://54.235.29.9/FacialAge/BNav_EC2/DepthDuration/v2_depth_duration_MTurk/v2_DepthDuration_HTML.html#414,414,704,252,1366,768,9-4-2022,7-35-44,147,depth_duration_stimuli/001164_2014-06-17_15-35-46_260595134347_rgbf000085-resize_3/001164_2014-06-17_15-35-46_260595134347_rgbf000085-resize_3-target.png,1000,2.354,0,2060,1000,meters,jsons/v1_VE1000_randls_74.json,1416063,1716859,38,Woman
147,328135,DepthScenes,duration_manipulation_targetAtFixation,jsons/v1_VE1000_randls_74.json,http://54.235.29.9/FacialAge/BNav_EC2/DepthDuration/v2_depth_duration_MTurk/v2_DepthDuration_HTML.html#414,414,704,252,1366,768,9-4-2022,7-35-44,148,depth_duration_stimuli/001136_2014-06-17_15-19-41_260595134347_rgbf000076-resize_3/001136_2014-06-17_15-19-41_260595134347_rgbf000076-resize_3-target.png,1000,1.8655,0,2041,1000,meters,jsons/v1_VE1000_randls_74.json,1416063,1716859,38,Woman
148,328135,DepthScenes,duration_manipulation_targetAtFixation,jsons/v1_VE1000_randls_74.json,http://54.235.29.9/FacialAge/BNav_EC2/DepthDuration/v2_depth_duration_MTurk/v2_DepthDuration_HTML.html#414,414,704,252,1366,768,9-4-2022,7-35-44,149,depth_duration_stimuli/001244_2014-06-17_16-47-45_260595134347_rgbf000030-resize_4/001244_2014-06-17_16-47-45_260595134347_rgbf000030-resize_4-target.png,1000,2.0425,0,2066,998,meters,jsons/v1_VE1000_randls_74.json,1416063,1716859,38,Woman
149,328135,DepthScenes,duration_manipulation_targetAtFixation,jsons/v1_VE1000_randls_74.json,http://54.235.29.9/FacialAge/BNav_EC2/DepthDuration/v2_depth_duration_MTurk/v2_DepthDuration_HTML.html#414,414,704,252,1366,768,9-4-2022,7-35-44,150,depth_duration_stimuli/003495_2014-05-21_16-01-51_094959634447_rgbf000100-resize_3/003495_2014-05-21_16-01-51_094959634447_rgbf000100-resize_3-target.png,1000,1.6255,0,2080,1000,meters,jsons/v1_VE1000_randls_74.json,1416063,1716859,38,Woman
150,328135,DepthScenes,duration_manipulation_targetAtFixation,jsons/v1_VE1000_randls_74.json,http://54.235.29.9/FacialAge/BNav_EC2/DepthDuration/v2_depth_duration_MTurk/v2_DepthDuration_HTML.html#414,414,704,252,1366,768,9-4-2022,7-35-44,151,depth_duration_stimuli/002279_2014-06-28_18-55-32_260595134347_rgbf000040-resize_5/002279_2014-06-28_18-55-32_260595134347_rgbf000040-resize_5-target.png,1000,1.5043333333333,0,2130,999,meters,jsons/v1_VE1000_randls_74.json,1416063,1716859,38,Woman
151,328135,DepthScenes,duration_manipulation_targetAtFixation,jsons/v1_VE1000_randls_74.json,http://54.235.29.9/FacialAge/BNav_EC2/DepthDuration/v2_depth_duration_MTurk/v2_DepthDuration_HTML.html#414,414,704,252,1366,768,9-4-2022,7-35-44,152,depth_duration_stimuli/000635_2014-06-08_16-38-42_260595134347_rgbf000106-resize_1/000635_2014-06-08_16-38-42_260595134347_rgbf000106-resize_1-target.png,1000,2.074,0,2396,979,meters,jsons/v1_VE1000_randls_74.json,1416063,1716859,38,Woman
152,328135,DepthScenes,duration_manipulation_targetAtFixation,jsons/v1_VE1000_randls_74.json,http://54.235.29.9/FacialAge/BNav_EC2/DepthDuration/v2_depth_duration_MTurk/v2_DepthDuration_HTML.html#414,414,704,252,1366,768,9-4-2022,7-35-44,153,depth_duration_stimuli/001092_2014-06-15_17-34-58_260595134347_rgbf000171-resize_3/001092_2014-06-15_17-34-58_260595134347_rgbf000171-resize_3-target.png,1000,2.6935,0,1995,1000,meters,jsons/v1_VE1000_randls_74.json,1416063,1716859,38,Woman
153,328135,DepthScenes,duration_manipulation_targetAtFixation,jsons/v1_VE1000_randls_74.json,http://54.235.29.9/FacialAge/BNav_EC2/DepthDuration/v2_depth_duration_MTurk/v2_DepthDuration_HTML.html#414,414,704,252,1366,768,9-4-2022,7-35-44,154,depth_duration_stimuli/002545_2014-06-24_13-38-53_094959634447_rgbf000080-resize_4/002545_2014-06-24_13-38-53_094959634447_rgbf000080-resize_4-target.png,1000,1.9205,0,2119,998,meters,jsons/v1_VE1000_randls_74.json,1416063,1716859,38,Woman
154,328135,DepthScenes,duration_manipulation_targetAtFixation,jsons/v1_VE1000_randls_74.json,http://54.235.29.9/FacialAge/BNav_EC2/DepthDuration/v2_depth_duration_MTurk/v2_DepthDuration_HTML.html#414,414,704,252,1366,768,9-4-2022,7-35-44,155,depth_duration_stimuli/001133_2014-06-17_14-49-16_260595134347_rgbf000100-resize_0/001133_2014-06-17_14-49-16_260595134347_rgbf000100-resize_0-target.png,1000,4.2115,0,2237,1000,meters,jsons/v1_VE1000_randls_74.json,1416063,1716859,38,Woman
155,328135,DepthScenes,duration_manipulation_targetAtFixation,jsons/v1_VE1000_randls_74.json,http://54.235.29.9/FacialAge/BNav_EC2/DepthDuration/v2_depth_duration_MTurk/v2_DepthDuration_HTML.html#414,414,704,252,1366,768,9-4-2022,7-35-44,156,depth_duration_stimuli/001132_2014-06-17_14-48-54_260595134347_rgbf000100-resize_2/001132_2014-06-17_14-48-54_260595134347_rgbf000100-resize_2-target.png,1000,3.753,0,2036,995,meters,jsons/v1_VE1000_randls_74.json,1416063,1716859,38,Woman
156,328135,DepthScenes,duration_manipulation_targetAtFixation,jsons/v1_VE1000_randls_74.json,http://54.235.29.9/FacialAge/BNav_EC2/DepthDuration/v2_depth_duration_MTurk/v2_DepthDuration_HTML.html#414,414,704,252,1366,768,9-4-2022,7-35-44,157,depth_duration_stimuli/000414_2014-06-04_19-49-13_260595134347_rgbf000044-resize_0/000414_2014-06-04_19-49-13_260595134347_rgbf000044-resize_0-target.png,1000,4.329,0,2301,1000,meters,jsons/v1_VE1000_randls_74.json,1416063,1716859,38,Woman
157,328135,DepthScenes,duration_manipulation_targetAtFixation,jsons/v1_VE1000_randls_74.json,http://54.235.29.9/FacialAge/BNav_EC2/DepthDuration/v2_depth_duration_MTurk/v2_DepthDuration_HTML.html#414,414,704,252,1366,768,9-4-2022,7-35-44,158,depth_duration_stimuli/003129_2014-05-12_10-48-10_094959634447_rgbf000100-resize_0/003129_2014-05-12_10-48-10_094959634447_rgbf000100-resize_0-target.png,1000,4.9305,0,2132,999,meters,jsons/v1_VE1000_randls_74.json,1416063,1716859,38,Woman
158,328135,DepthScenes,duration_manipulation_targetAtFixation,jsons/v1_VE1000_randls_74.json,http://54.235.29.9/FacialAge/BNav_EC2/DepthDuration/v2_depth_duration_MTurk/v2_DepthDuration_HTML.html#414,414,704,252,1366,768,9-4-2022,7-35-44,159,depth_duration_stimuli/001055_2014-06-08_18-45-35_260595134347_rgbf000111-resize_4/001055_2014-06-08_18-45-35_260595134347_rgbf000111-resize_4-target.png,1000,2.4290000000000003,0,1991,1000,meters,jsons/v1_VE1000_randls_74.json,1416063,1716859,38,Woman
159,328135,DepthScenes,duration_manipulation_targetAtFixation,jsons/v1_VE1000_randls_74.json,http://54.235.29.9/FacialAge/BNav_EC2/DepthDuration/v2_depth_duration_MTurk/v2_DepthDuration_HTML.html#414,414,704,252,1366,768,9-4-2022,7-35-44,160,depth_duration_stimuli/000549_2014-06-08_22-10-24_260595134347_rgbf000247-resize_3/000549_2014-06-08_22-10-24_260595134347_rgbf000247-resize_3-target.png,1000,1.841,0,2027,1000,meters,jsons/v1_VE1000_randls_74.json,1416063,1716859,38,Woman
160,328135,DepthScenes,duration_manipulation_targetAtFixation,jsons/v1_VE1000_randls_74.json,http://54.235.29.9/FacialAge/BNav_EC2/DepthDuration/v2_depth_duration_MTurk/v2_DepthDuration_HTML.html#414,414,704,252,1366,768,9-4-2022,7-35-44,161,depth_duration_stimuli/003492_2014-05-21_15-50-55_094959634447_rgbf000828-resize_1/003492_2014-05-21_15-50-55_094959634447_rgbf000828-resize_1-target.png,1000,4.06875,0,4163,1000,meters,jsons/v1_VE1000_randls_74.json,1416063,1716859,38,Woman
161,328135,DepthScenes,duration_manipulation_targetAtFixation,jsons/v1_VE1000_randls_74.json,http://54.235.29.9/FacialAge/BNav_EC2/DepthDuration/v2_depth_duration_MTurk/v2_DepthDuration_HTML.html#414,414,704,252,1366,768,9-4-2022,7-35-44,162,depth_duration_stimuli/002568_2014-06-24_13-59-21_094959634447_rgbf000062-resize_4/002568_2014-06-24_13-59-21_094959634447_rgbf000062-resize_4-target.png,1000,3.015,0,11842,1000,meters,jsons/v1_VE1000_randls_74.json,1416063,1716859,38,Woman
162,328135,DepthScenes,duration_manipulation_targetAtFixation,jsons/v1_VE1000_randls_74.json,http://54.235.29.9/FacialAge/BNav_EC2/DepthDuration/v2_depth_duration_MTurk/v2_DepthDuration_HTML.html#414,414,704,252,1366,768,9-4-2022,7-35-44,163,depth_duration_stimuli/002213_2014-06-28_18-37-58_260595134347_rgbf000055-resize_1/002213_2014-06-28_18-37-58_260595134347_rgbf000055-resize_1-target.png,1000,3.62,0,2067,1007,meters,jsons/v1_VE1000_randls_74.json,1416063,1716859,38,Woman
163,328135,DepthScenes,duration_manipulation_targetAtFixation,jsons/v1_VE1000_randls_74.json,http://54.235.29.9/FacialAge/BNav_EC2/DepthDuration/v2_depth_duration_MTurk/v2_DepthDuration_HTML.html#414,414,704,252,1366,768,9-4-2022,7-35-44,164,depth_duration_stimuli/000691_2014-06-08_13-08-50_260595134347_rgbf000132-resize_3/000691_2014-06-08_13-08-50_260595134347_rgbf000132-resize_3-target.png,1000,4.1530000000000005,0,2001,999,meters,jsons/v1_VE1000_randls_74.json,1416063,1716859,38,Woman
