,subjID,experimentName,versionName,sequenceName,url,selected_row,windowWidth,windowHeight,screenWidth,screenHeight,startDate,startTime,trial,stimulus,duration,actual_depth,depth_estimate,trial_RT,log_sceneDuration,unitSelection,seq_filepath,experimentTime,totalTime,age,gender
0,329190,DepthScenes,duration_manipulation_targetAtFixation,jsons/v1_VE250_randls_18.json,http://54.235.29.9/FacialAge/BNav_EC2/DepthDuration/v2_depth_duration_MTurk/v2_DepthDuration_HTML.html#4,4,933,747,1600,900,9-3-2022,16-10-41,1,depth_duration_stimuli/002509_2014-06-24_13-19-22_094959634447_rgbf000077-resize_0/002509_2014-06-24_13-19-22_094959634447_rgbf000077-resize_0-target.png,250,1.3065,50,8513,246,meters,jsons/v1_VE250_randls_18.json,1491325,1975689,24,Man
1,329190,DepthScenes,duration_manipulation_targetAtFixation,jsons/v1_VE250_randls_18.json,http://54.235.29.9/FacialAge/BNav_EC2/DepthDuration/v2_depth_duration_MTurk/v2_DepthDuration_HTML.html#4,4,933,747,1600,900,9-3-2022,16-10-41,2,depth_duration_stimuli/003338_2014-05-20_11-01-23_094959634447_rgbf000051-resize_6/003338_2014-05-20_11-01-23_094959634447_rgbf000051-resize_6-target.png,250,1.693,60,6434,246,meters,jsons/v1_VE250_randls_18.json,1491325,1975689,24,Man
2,329190,DepthScenes,duration_manipulation_targetAtFixation,jsons/v1_VE250_randls_18.json,http://54.235.29.9/FacialAge/BNav_EC2/DepthDuration/v2_depth_duration_MTurk/v2_DepthDuration_HTML.html#4,4,933,747,1600,900,9-3-2022,16-10-41,3,depth_duration_stimuli/002375_2014-06-28_20-13-44_260595134347_rgbf000032-resize_1/002375_2014-06-28_20-13-44_260595134347_rgbf000032-resize_1-target.png,250,4.0175,40,5444,258,meters,jsons/v1_VE250_randls_18.json,1491325,1975689,24,Man
3,329190,DepthScenes,duration_manipulation_targetAtFixation,jsons/v1_VE250_randls_18.json,http://54.235.29.9/FacialAge/BNav_EC2/DepthDuration/v2_depth_duration_MTurk/v2_DepthDuration_HTML.html#4,4,933,747,1600,900,9-3-2022,16-10-41,4,depth_duration_stimuli/002657_2014-06-13_15-29-54_094959634447_rgbf000150-resize_1/002657_2014-06-13_15-29-54_094959634447_rgbf000150-resize_1-target.png,250,4.919,30,4653,254,meters,jsons/v1_VE250_randls_18.json,1491325,1975689,24,Man
4,329190,DepthScenes,duration_manipulation_targetAtFixation,jsons/v1_VE250_randls_18.json,http://54.235.29.9/FacialAge/BNav_EC2/DepthDuration/v2_depth_duration_MTurk/v2_DepthDuration_HTML.html#4,4,933,747,1600,900,9-3-2022,16-10-41,5,depth_duration_stimuli/001110_2014-06-15_17-25-28_260595134347_rgbf000150-resize_1/001110_2014-06-15_17-25-28_260595134347_rgbf000150-resize_1-target.png,250,1.7115,40,6897,264,meters,jsons/v1_VE250_randls_18.json,1491325,1975689,24,Man
5,329190,DepthScenes,duration_manipulation_targetAtFixation,jsons/v1_VE250_randls_18.json,http://54.235.29.9/FacialAge/BNav_EC2/DepthDuration/v2_depth_duration_MTurk/v2_DepthDuration_HTML.html#4,4,933,747,1600,900,9-3-2022,16-10-41,6,depth_duration_stimuli/000927_2014-06-09_16-32-30_260595134347_rgbf000123-resize_3/000927_2014-06-09_16-32-30_260595134347_rgbf000123-resize_3-target.png,250,2.6785,50,5977,248,meters,jsons/v1_VE250_randls_18.json,1491325,1975689,24,Man
6,329190,DepthScenes,duration_manipulation_targetAtFixation,jsons/v1_VE250_randls_18.json,http://54.235.29.9/FacialAge/BNav_EC2/DepthDuration/v2_depth_duration_MTurk/v2_DepthDuration_HTML.html#4,4,933,747,1600,900,9-3-2022,16-10-41,7,depth_duration_stimuli/000692_2014-06-08_13-09-42_260595134347_rgbf000199-resize_2/000692_2014-06-08_13-09-42_260595134347_rgbf000199-resize_2-target.png,250,3.661,60,5550,248,meters,jsons/v1_VE250_randls_18.json,1491325,1975689,24,Man
7,329190,DepthScenes,duration_manipulation_targetAtFixation,jsons/v1_VE250_randls_18.json,http://54.235.29.9/FacialAge/BNav_EC2/DepthDuration/v2_depth_duration_MTurk/v2_DepthDuration_HTML.html#4,4,933,747,1600,900,9-3-2022,16-10-41,8,depth_duration_stimuli/001094_2014-06-15_17-36-00_260595134347_rgbf000205-resize_0/001094_2014-06-15_17-36-00_260595134347_rgbf000205-resize_0-target.png,250,4.2175,50,5380,242,meters,jsons/v1_VE250_randls_18.json,1491325,1975689,24,Man
8,329190,DepthScenes,duration_manipulation_targetAtFixation,jsons/v1_VE250_randls_18.json,http://54.235.29.9/FacialAge/BNav_EC2/DepthDuration/v2_depth_duration_MTurk/v2_DepthDuration_HTML.html#4,4,933,747,1600,900,9-3-2022,16-10-41,9,depth_duration_stimuli/001417_2014-06-19_16-25-36_260595134347_rgbf000115-resize_5/001417_2014-06-19_16-25-36_260595134347_rgbf000115-resize_5-target.png,250,4.6255,40,8133,248,meters,jsons/v1_VE250_randls_18.json,1491325,1975689,24,Man
9,329190,DepthScenes,duration_manipulation_targetAtFixation,jsons/v1_VE250_randls_18.json,http://54.235.29.9/FacialAge/BNav_EC2/DepthDuration/v2_depth_duration_MTurk/v2_DepthDuration_HTML.html#4,4,933,747,1600,900,9-3-2022,16-10-41,10,depth_duration_stimuli/003081_2014-06-15_15-19-16_094959634447_rgbf000150-resize_1/003081_2014-06-15_15-19-16_094959634447_rgbf000150-resize_1-target.png,250,3.9125,50,5360,249,meters,jsons/v1_VE250_randls_18.json,1491325,1975689,24,Man
10,329190,DepthScenes,duration_manipulation_targetAtFixation,jsons/v1_VE250_randls_18.json,http://54.235.29.9/FacialAge/BNav_EC2/DepthDuration/v2_depth_duration_MTurk/v2_DepthDuration_HTML.html#4,4,933,747,1600,900,9-3-2022,16-10-41,11,depth_duration_stimuli/001055_2014-06-08_18-45-35_260595134347_rgbf000111-resize_4/001055_2014-06-08_18-45-35_260595134347_rgbf000111-resize_4-target.png,250,2.4290000000000003,50,7626,239,meters,jsons/v1_VE250_randls_18.json,1491325,1975689,24,Man
11,329190,DepthScenes,duration_manipulation_targetAtFixation,jsons/v1_VE250_randls_18.json,http://54.235.29.9/FacialAge/BNav_EC2/DepthDuration/v2_depth_duration_MTurk/v2_DepthDuration_HTML.html#4,4,933,747,1600,900,9-3-2022,16-10-41,12,depth_duration_stimuli/000549_2014-06-08_22-10-24_260595134347_rgbf000247-resize_3/000549_2014-06-08_22-10-24_260595134347_rgbf000247-resize_3-target.png,250,1.841,60,6667,257,meters,jsons/v1_VE250_randls_18.json,1491325,1975689,24,Man
12,329190,DepthScenes,duration_manipulation_targetAtFixation,jsons/v1_VE250_randls_18.json,http://54.235.29.9/FacialAge/BNav_EC2/DepthDuration/v2_depth_duration_MTurk/v2_DepthDuration_HTML.html#4,4,933,747,1600,900,9-3-2022,16-10-41,13,depth_duration_stimuli/000569_2014-06-09_22-51-47_260595134347_rgbf000141-resize_3/000569_2014-06-09_22-51-47_260595134347_rgbf000141-resize-original.jpg,250,4.512,50,5976,248,meters,jsons/v1_VE250_randls_18.json,1491325,1975689,24,Man
13,329190,DepthScenes,duration_manipulation_targetAtFixation,jsons/v1_VE250_randls_18.json,http://54.235.29.9/FacialAge/BNav_EC2/DepthDuration/v2_depth_duration_MTurk/v2_DepthDuration_HTML.html#4,4,1600,900,1600,900,9-3-2022,16-10-41,14,depth_duration_stimuli/001175_2014-06-17_15-45-55_260595134347_rgbf000129-resize_4/001175_2014-06-17_15-45-55_260595134347_rgbf000129-resize_4-target.png,250,4.255,50,8047,240,meters,jsons/v1_VE250_randls_18.json,1491325,1975689,24,Man
14,329190,DepthScenes,duration_manipulation_targetAtFixation,jsons/v1_VE250_randls_18.json,http://54.235.29.9/FacialAge/BNav_EC2/DepthDuration/v2_depth_duration_MTurk/v2_DepthDuration_HTML.html#4,4,1600,900,1600,900,9-3-2022,16-10-41,15,depth_duration_stimuli/003490_2014-05-21_15-50-11_094959634447_rgbf000101-resize_3/003490_2014-05-21_15-50-11_094959634447_rgbf000101-resize_3-target.png,250,3.6445,55,6180,230,meters,jsons/v1_VE250_randls_18.json,1491325,1975689,24,Man
15,329190,DepthScenes,duration_manipulation_targetAtFixation,jsons/v1_VE250_randls_18.json,http://54.235.29.9/FacialAge/BNav_EC2/DepthDuration/v2_depth_duration_MTurk/v2_DepthDuration_HTML.html#4,4,1600,900,1600,900,9-3-2022,16-10-41,16,depth_duration_stimuli/000788_2014-06-08_22-34-36_260595134347_rgbf000131-resize_1/000788_2014-06-08_22-34-36_260595134347_rgbf000131-resize_1-target.png,250,3.359,50,19262,259,meters,jsons/v1_VE250_randls_18.json,1491325,1975689,24,Man
16,329190,DepthScenes,duration_manipulation_targetAtFixation,jsons/v1_VE250_randls_18.json,http://54.235.29.9/FacialAge/BNav_EC2/DepthDuration/v2_depth_duration_MTurk/v2_DepthDuration_HTML.html#4,4,1600,900,1600,900,9-3-2022,16-10-41,17,depth_duration_stimuli/001235_2014-06-17_16-37-36_260595134347_rgbf000084-resize_4/001235_2014-06-17_16-37-36_260595134347_rgbf000084-resize_4-target.png,250,3.6605,60,7378,243,meters,jsons/v1_VE250_randls_18.json,1491325,1975689,24,Man
17,329190,DepthScenes,duration_manipulation_targetAtFixation,jsons/v1_VE250_randls_18.json,http://54.235.29.9/FacialAge/BNav_EC2/DepthDuration/v2_depth_duration_MTurk/v2_DepthDuration_HTML.html#4,4,1600,900,1600,900,9-3-2022,16-10-41,18,depth_duration_stimuli/000436_2014-06-09_22-25-11_260595134347_rgbf000137-resize_1/000436_2014-06-09_22-25-11_260595134347_rgbf000137-resize_1-target.png,250,4.0705,50,16024,230,meters,jsons/v1_VE250_randls_18.json,1491325,1975689,24,Man
18,329190,DepthScenes,duration_manipulation_targetAtFixation,jsons/v1_VE250_randls_18.json,http://54.235.29.9/FacialAge/BNav_EC2/DepthDuration/v2_depth_duration_MTurk/v2_DepthDuration_HTML.html#4,4,1600,900,1600,900,9-3-2022,16-10-41,19,depth_duration_stimuli/002444_2014-06-28_20-32-08_260595134347_rgbf000027-resize_0/002444_2014-06-28_20-32-08_260595134347_rgbf000027-resize_0-target.png,250,4.388999999999999,65,5145,244,meters,jsons/v1_VE250_randls_18.json,1491325,1975689,24,Man
19,329190,DepthScenes,duration_manipulation_targetAtFixation,jsons/v1_VE250_randls_18.json,http://54.235.29.9/FacialAge/BNav_EC2/DepthDuration/v2_depth_duration_MTurk/v2_DepthDuration_HTML.html#4,4,1600,900,1600,900,9-3-2022,16-10-41,20,depth_duration_stimuli/002570_2014-06-24_13-59-54_094959634447_rgbf000059-resize_0/002570_2014-06-24_13-59-54_094959634447_rgbf000059-resize_0-target.png,250,4.037,45,5021,257,meters,jsons/v1_VE250_randls_18.json,1491325,1975689,24,Man
20,329190,DepthScenes,duration_manipulation_targetAtFixation,jsons/v1_VE250_randls_18.json,http://54.235.29.9/FacialAge/BNav_EC2/DepthDuration/v2_depth_duration_MTurk/v2_DepthDuration_HTML.html#4,4,1600,900,1600,900,9-3-2022,16-10-41,21,depth_duration_stimuli/002467_2014-06-28_20-38-07_260595134347_rgbf000026-resize_2/002467_2014-06-28_20-38-07_260595134347_rgbf000026-resize_2-target.png,250,4.742,60,5287,255,meters,jsons/v1_VE250_randls_18.json,1491325,1975689,24,Man
21,329190,DepthScenes,duration_manipulation_targetAtFixation,jsons/v1_VE250_randls_18.json,http://54.235.29.9/FacialAge/BNav_EC2/DepthDuration/v2_depth_duration_MTurk/v2_DepthDuration_HTML.html#4,4,1600,900,1600,900,9-3-2022,16-10-41,22,depth_duration_stimuli/002988_2014-06-15_12-24-20_094959634447_rgbf000150-resize_1/002988_2014-06-15_12-24-20_094959634447_rgbf000150-resize_1-target.png,250,4.7669999999999995,80,5992,252,meters,jsons/v1_VE250_randls_18.json,1491325,1975689,24,Man
22,329190,DepthScenes,duration_manipulation_targetAtFixation,jsons/v1_VE250_randls_18.json,http://54.235.29.9/FacialAge/BNav_EC2/DepthDuration/v2_depth_duration_MTurk/v2_DepthDuration_HTML.html#4,4,1600,900,1600,900,9-3-2022,16-10-41,23,depth_duration_stimuli/001052_2014-06-08_18-24-54_260595134347_rgbf000130-resize_1/001052_2014-06-08_18-24-54_260595134347_rgbf000130-resize_1-target.png,250,4.1045,60,7446,252,meters,jsons/v1_VE250_randls_18.json,1491325,1975689,24,Man
23,329190,DepthScenes,duration_manipulation_targetAtFixation,jsons/v1_VE250_randls_18.json,http://54.235.29.9/FacialAge/BNav_EC2/DepthDuration/v2_depth_duration_MTurk/v2_DepthDuration_HTML.html#4,4,1600,900,1600,900,9-3-2022,16-10-41,24,depth_duration_stimuli/000739_2014-06-08_18-45-58_260595134347_rgbf000068-resize_1/000739_2014-06-08_18-45-58_260595134347_rgbf000068-resize_1-target.png,250,3.534,60,8314,255,meters,jsons/v1_VE250_randls_18.json,1491325,1975689,24,Man
24,329190,DepthScenes,duration_manipulation_targetAtFixation,jsons/v1_VE250_randls_18.json,http://54.235.29.9/FacialAge/BNav_EC2/DepthDuration/v2_depth_duration_MTurk/v2_DepthDuration_HTML.html#4,4,1600,900,1600,900,9-3-2022,16-10-41,25,depth_duration_stimuli/000734_2014-06-08_17-39-11_260595134347_rgbf000128-resize_2/000734_2014-06-08_17-39-11_260595134347_rgbf000128-resize_2-target.png,250,4.098,45,6866,255,meters,jsons/v1_VE250_randls_18.json,1491325,1975689,24,Man
25,329190,DepthScenes,duration_manipulation_targetAtFixation,jsons/v1_VE250_randls_18.json,http://54.235.29.9/FacialAge/BNav_EC2/DepthDuration/v2_depth_duration_MTurk/v2_DepthDuration_HTML.html#4,4,1600,900,1600,900,9-3-2022,16-10-41,26,depth_duration_stimuli/002279_2014-06-28_18-55-32_260595134347_rgbf000040-resize_5/002279_2014-06-28_18-55-32_260595134347_rgbf000040-resize_5-target.png,250,1.5043333333333,70,24417,243,meters,jsons/v1_VE250_randls_18.json,1491325,1975689,24,Man
26,329190,DepthScenes,duration_manipulation_targetAtFixation,jsons/v1_VE250_randls_18.json,http://54.235.29.9/FacialAge/BNav_EC2/DepthDuration/v2_depth_duration_MTurk/v2_DepthDuration_HTML.html#4,4,1600,900,1600,900,9-3-2022,16-10-41,27,depth_duration_stimuli/000635_2014-06-08_16-38-42_260595134347_rgbf000106-resize_1/000635_2014-06-08_16-38-42_260595134347_rgbf000106-resize_1-target.png,250,2.074,70,10550,242,meters,jsons/v1_VE250_randls_18.json,1491325,1975689,24,Man
27,329190,DepthScenes,duration_manipulation_targetAtFixation,jsons/v1_VE250_randls_18.json,http://54.235.29.9/FacialAge/BNav_EC2/DepthDuration/v2_depth_duration_MTurk/v2_DepthDuration_HTML.html#4,4,1600,900,1600,900,9-3-2022,16-10-41,28,depth_duration_stimuli/001133_2014-06-17_14-49-16_260595134347_rgbf000100-resize_0/001133_2014-06-17_14-49-16_260595134347_rgbf000100-resize_0-target.png,250,4.2115,50,6342,237,meters,jsons/v1_VE250_randls_18.json,1491325,1975689,24,Man
28,329190,DepthScenes,duration_manipulation_targetAtFixation,jsons/v1_VE250_randls_18.json,http://54.235.29.9/FacialAge/BNav_EC2/DepthDuration/v2_depth_duration_MTurk/v2_DepthDuration_HTML.html#4,4,1600,900,1600,900,9-3-2022,16-10-41,29,depth_duration_stimuli/001132_2014-06-17_14-48-54_260595134347_rgbf000100-resize_2/001132_2014-06-17_14-48-54_260595134347_rgbf000100-resize_2-target.png,250,3.753,80,4448,249,meters,jsons/v1_VE250_randls_18.json,1491325,1975689,24,Man
29,329190,DepthScenes,duration_manipulation_targetAtFixation,jsons/v1_VE250_randls_18.json,http://54.235.29.9/FacialAge/BNav_EC2/DepthDuration/v2_depth_duration_MTurk/v2_DepthDuration_HTML.html#4,4,1600,900,1600,900,9-3-2022,16-10-41,30,depth_duration_stimuli/000375_2014-06-08_11-17-29_260595134347_rgbf000133-resize_2/000375_2014-06-08_11-17-29_260595134347_rgbf000133-resize-original.jpg,250,4.718,70,5198,247,meters,jsons/v1_VE250_randls_18.json,1491325,1975689,24,Man
30,329190,DepthScenes,duration_manipulation_targetAtFixation,jsons/v1_VE250_randls_18.json,http://54.235.29.9/FacialAge/BNav_EC2/DepthDuration/v2_depth_duration_MTurk/v2_DepthDuration_HTML.html#4,4,1600,900,1600,900,9-3-2022,16-10-41,31,depth_duration_stimuli/001029_2014-06-08_13-17-57_260595134347_rgbf000065-resize_1/001029_2014-06-08_13-17-57_260595134347_rgbf000065-resize_1-target.png,250,3.0835,65,4993,243,meters,jsons/v1_VE250_randls_18.json,1491325,1975689,24,Man
31,329190,DepthScenes,duration_manipulation_targetAtFixation,jsons/v1_VE250_randls_18.json,http://54.235.29.9/FacialAge/BNav_EC2/DepthDuration/v2_depth_duration_MTurk/v2_DepthDuration_HTML.html#4,4,1600,900,1600,900,9-3-2022,16-10-41,32,depth_duration_stimuli/000677_2014-06-08_23-10-32_260595134347_rgbf000158-resize_6/000677_2014-06-08_23-10-32_260595134347_rgbf000158-resize_6-target.png,250,3.556,50,5578,265,meters,jsons/v1_VE250_randls_18.json,1491325,1975689,24,Man
32,329190,DepthScenes,duration_manipulation_targetAtFixation,jsons/v1_VE250_randls_18.json,http://54.235.29.9/FacialAge/BNav_EC2/DepthDuration/v2_depth_duration_MTurk/v2_DepthDuration_HTML.html#4,4,1600,900,1600,900,9-3-2022,16-10-41,33,depth_duration_stimuli/001066_2014-06-08_22-03-20_260595134347_rgbf000066-resize_4/001066_2014-06-08_22-03-20_260595134347_rgbf000066-resize_4-target.png,250,4.2330000000000005,70,6452,238,meters,jsons/v1_VE250_randls_18.json,1491325,1975689,24,Man
33,329190,DepthScenes,duration_manipulation_targetAtFixation,jsons/v1_VE250_randls_18.json,http://54.235.29.9/FacialAge/BNav_EC2/DepthDuration/v2_depth_duration_MTurk/v2_DepthDuration_HTML.html#4,4,1600,900,1600,900,9-3-2022,16-10-41,34,depth_duration_stimuli/000742_2014-06-08_18-48-09_260595134347_rgbf000164-resize_4/000742_2014-06-08_18-48-09_260595134347_rgbf000164-resize_4-target.png,250,4.632,70,6546,252,meters,jsons/v1_VE250_randls_18.json,1491325,1975689,24,Man
34,329190,DepthScenes,duration_manipulation_targetAtFixation,jsons/v1_VE250_randls_18.json,http://54.235.29.9/FacialAge/BNav_EC2/DepthDuration/v2_depth_duration_MTurk/v2_DepthDuration_HTML.html#4,4,1600,900,1600,900,9-3-2022,16-10-41,35,depth_duration_stimuli/001059_2014-06-08_21-53-27_260595134347_rgbf000061-resize_4/001059_2014-06-08_21-53-27_260595134347_rgbf000061-resize_4-target.png,250,2.4185,65,5640,249,meters,jsons/v1_VE250_randls_18.json,1491325,1975689,24,Man
35,329190,DepthScenes,duration_manipulation_targetAtFixation,jsons/v1_VE250_randls_18.json,http://54.235.29.9/FacialAge/BNav_EC2/DepthDuration/v2_depth_duration_MTurk/v2_DepthDuration_HTML.html#4,4,1600,900,1600,900,9-3-2022,16-10-41,36,depth_duration_stimuli/001032_2014-06-08_13-23-17_260595134347_rgbf000021-resize_3/001032_2014-06-08_13-23-17_260595134347_rgbf000021-resize_3-target.png,250,3.2725,50,7904,247,meters,jsons/v1_VE250_randls_18.json,1491325,1975689,24,Man
36,329190,DepthScenes,duration_manipulation_targetAtFixation,jsons/v1_VE250_randls_18.json,http://54.235.29.9/FacialAge/BNav_EC2/DepthDuration/v2_depth_duration_MTurk/v2_DepthDuration_HTML.html#4,4,1600,900,1600,900,9-3-2022,16-10-41,37,depth_duration_stimuli/000506_2014-06-08_23-21-00_260595134347_rgbf000070-resize_7/000506_2014-06-08_23-21-00_260595134347_rgbf000070-resize_7-target.png,250,4.0585,70,6375,248,meters,jsons/v1_VE250_randls_18.json,1491325,1975689,24,Man
37,329190,DepthScenes,duration_manipulation_targetAtFixation,jsons/v1_VE250_randls_18.json,http://54.235.29.9/FacialAge/BNav_EC2/DepthDuration/v2_depth_duration_MTurk/v2_DepthDuration_HTML.html#4,4,1600,900,1600,900,9-3-2022,16-10-41,38,depth_duration_stimuli/003079_2014-06-15_15-18-20_094959634447_rgbf000152-resize_8/003079_2014-06-15_15-18-20_094959634447_rgbf000152-resize_8-target.png,250,2.8775,60,4578,251,meters,jsons/v1_VE250_randls_18.json,1491325,1975689,24,Man
38,329190,DepthScenes,duration_manipulation_targetAtFixation,jsons/v1_VE250_randls_18.json,http://54.235.29.9/FacialAge/BNav_EC2/DepthDuration/v2_depth_duration_MTurk/v2_DepthDuration_HTML.html#4,4,1600,900,1600,900,9-3-2022,16-10-41,39,depth_duration_stimuli/001056_2014-06-08_18-46-44_260595134347_rgbf000068-resize_0/001056_2014-06-08_18-46-44_260595134347_rgbf000068-resize_0-target.png,250,2.6625,80,7186,257,meters,jsons/v1_VE250_randls_18.json,1491325,1975689,24,Man
39,329190,DepthScenes,duration_manipulation_targetAtFixation,jsons/v1_VE250_randls_18.json,http://54.235.29.9/FacialAge/BNav_EC2/DepthDuration/v2_depth_duration_MTurk/v2_DepthDuration_HTML.html#4,4,1600,900,1600,900,9-3-2022,16-10-41,40,depth_duration_stimuli/002199_2014-06-28_18-33-56_260595134347_rgbf000074-resize_0/002199_2014-06-28_18-33-56_260595134347_rgbf000074-resize_0-target.png,250,1.996,70,6510,257,meters,jsons/v1_VE250_randls_18.json,1491325,1975689,24,Man
40,329190,DepthScenes,duration_manipulation_targetAtFixation,jsons/v1_VE250_randls_18.json,http://54.235.29.9/FacialAge/BNav_EC2/DepthDuration/v2_depth_duration_MTurk/v2_DepthDuration_HTML.html#4,4,1600,900,1600,900,9-3-2022,16-10-41,41,depth_duration_stimuli/000368_2014-06-09_15-53-01_260595134347_rgbf000155-resize_2/000368_2014-06-09_15-53-01_260595134347_rgbf000155-resize_2-target.png,250,2.4859999999999998,80,8599,239,meters,jsons/v1_VE250_randls_18.json,1491325,1975689,24,Man
41,329190,DepthScenes,duration_manipulation_targetAtFixation,jsons/v1_VE250_randls_18.json,http://54.235.29.9/FacialAge/BNav_EC2/DepthDuration/v2_depth_duration_MTurk/v2_DepthDuration_HTML.html#4,4,1600,900,1600,900,9-3-2022,16-10-41,42,depth_duration_stimuli/002678_2014-06-13_16-15-32_094959634447_rgbf000151-resize_6/002678_2014-06-13_16-15-32_094959634447_rgbf000151-resize_6-target.png,250,2.1830000000000003,70,6399,254,meters,jsons/v1_VE250_randls_18.json,1491325,1975689,24,Man
42,329190,DepthScenes,duration_manipulation_targetAtFixation,jsons/v1_VE250_randls_18.json,http://54.235.29.9/FacialAge/BNav_EC2/DepthDuration/v2_depth_duration_MTurk/v2_DepthDuration_HTML.html#4,4,1600,900,1600,900,9-3-2022,16-10-41,43,depth_duration_stimuli/001016_2014-06-09_16-16-10_260595134347_rgbf000112-resize_5/001016_2014-06-09_16-16-10_260595134347_rgbf000112-resize_5-target.png,250,1.6565,60,4779,239,meters,jsons/v1_VE250_randls_18.json,1491325,1975689,24,Man
43,329190,DepthScenes,duration_manipulation_targetAtFixation,jsons/v1_VE250_randls_18.json,http://54.235.29.9/FacialAge/BNav_EC2/DepthDuration/v2_depth_duration_MTurk/v2_DepthDuration_HTML.html#4,4,1600,900,1600,900,9-3-2022,16-10-41,44,depth_duration_stimuli/002340_2014-06-28_20-05-46_260595134347_rgbf000113-resize_0/002340_2014-06-28_20-05-46_260595134347_rgbf000113-resize_0-target.png,250,2.4735,70,9515,259,meters,jsons/v1_VE250_randls_18.json,1491325,1975689,24,Man
44,329190,DepthScenes,duration_manipulation_targetAtFixation,jsons/v1_VE250_randls_18.json,http://54.235.29.9/FacialAge/BNav_EC2/DepthDuration/v2_depth_duration_MTurk/v2_DepthDuration_HTML.html#4,4,1600,900,1600,900,9-3-2022,16-10-41,45,depth_duration_stimuli/000787_2014-06-08_22-33-53_260595134347_rgbf000175-resize_1/000787_2014-06-08_22-33-53_260595134347_rgbf000175-resize-original.jpg,250,4.784,60,21111,258,meters,jsons/v1_VE250_randls_18.json,1491325,1975689,24,Man
45,329190,DepthScenes,duration_manipulation_targetAtFixation,jsons/v1_VE250_randls_18.json,http://54.235.29.9/FacialAge/BNav_EC2/DepthDuration/v2_depth_duration_MTurk/v2_DepthDuration_HTML.html#4,4,1600,900,1600,900,9-3-2022,16-10-41,46,depth_duration_stimuli/000929_2014-06-09_16-33-19_260595134347_rgbf000139-resize_0/000929_2014-06-09_16-33-19_260595134347_rgbf000139-resize_0-target.png,250,2.8680000000000003,80,13694,250,meters,jsons/v1_VE250_randls_18.json,1491325,1975689,24,Man
46,329190,DepthScenes,duration_manipulation_targetAtFixation,jsons/v1_VE250_randls_18.json,http://54.235.29.9/FacialAge/BNav_EC2/DepthDuration/v2_depth_duration_MTurk/v2_DepthDuration_HTML.html#4,4,1600,900,1600,900,9-3-2022,16-10-41,47,depth_duration_stimuli/000457_2014-06-08_16-52-43_260595134347_rgbf000199-resize_1/000457_2014-06-08_16-52-43_260595134347_rgbf000199-resize_1-target.png,250,3.6489999999999996,50,5156,258,meters,jsons/v1_VE250_randls_18.json,1491325,1975689,24,Man
47,329190,DepthScenes,duration_manipulation_targetAtFixation,jsons/v1_VE250_randls_18.json,http://54.235.29.9/FacialAge/BNav_EC2/DepthDuration/v2_depth_duration_MTurk/v2_DepthDuration_HTML.html#4,4,1600,900,1600,900,9-3-2022,16-10-41,48,depth_duration_stimuli/000522_2014-06-08_13-35-06_260595134347_rgbf000244-resize_1/000522_2014-06-08_13-35-06_260595134347_rgbf000244-resize_1-target.png,250,2.3715,45,9872,258,meters,jsons/v1_VE250_randls_18.json,1491325,1975689,24,Man
48,329190,DepthScenes,duration_manipulation_targetAtFixation,jsons/v1_VE250_randls_18.json,http://54.235.29.9/FacialAge/BNav_EC2/DepthDuration/v2_depth_duration_MTurk/v2_DepthDuration_HTML.html#4,4,1600,900,1600,900,9-3-2022,16-10-41,49,depth_duration_stimuli/002949_2014-06-26_15-57-42_094959634447_rgbf000079-resize_1/002949_2014-06-26_15-57-42_094959634447_rgbf000079-resize_1-target.png,250,1.8915,70,6232,247,meters,jsons/v1_VE250_randls_18.json,1491325,1975689,24,Man
49,329190,DepthScenes,duration_manipulation_targetAtFixation,jsons/v1_VE250_randls_18.json,http://54.235.29.9/FacialAge/BNav_EC2/DepthDuration/v2_depth_duration_MTurk/v2_DepthDuration_HTML.html#4,4,1600,900,1600,900,9-3-2022,16-10-41,50,depth_duration_stimuli/000414_2014-06-04_19-49-13_260595134347_rgbf000044-resize_0/000414_2014-06-04_19-49-13_260595134347_rgbf000044-resize_0-target.png,250,4.329,60,13315,256,meters,jsons/v1_VE250_randls_18.json,1491325,1975689,24,Man
50,329190,DepthScenes,duration_manipulation_targetAtFixation,jsons/v1_VE250_randls_18.json,http://54.235.29.9/FacialAge/BNav_EC2/DepthDuration/v2_depth_duration_MTurk/v2_DepthDuration_HTML.html#4,4,1600,900,1600,900,9-3-2022,16-10-41,51,depth_duration_stimuli/003129_2014-05-12_10-48-10_094959634447_rgbf000100-resize_0/003129_2014-05-12_10-48-10_094959634447_rgbf000100-resize_0-target.png,250,4.9305,50,5069,252,meters,jsons/v1_VE250_randls_18.json,1491325,1975689,24,Man
51,329190,DepthScenes,duration_manipulation_targetAtFixation,jsons/v1_VE250_randls_18.json,http://54.235.29.9/FacialAge/BNav_EC2/DepthDuration/v2_depth_duration_MTurk/v2_DepthDuration_HTML.html#4,4,1600,900,1600,900,9-3-2022,16-10-41,52,depth_duration_stimuli/000758_2014-06-08_22-05-08_260595134347_rgbf000085-resize_0/000758_2014-06-08_22-05-08_260595134347_rgbf000085-resize_0-target.png,250,3.3810000000000002,65,6028,248,meters,jsons/v1_VE250_randls_18.json,1491325,1975689,24,Man
52,329190,DepthScenes,duration_manipulation_targetAtFixation,jsons/v1_VE250_randls_18.json,http://54.235.29.9/FacialAge/BNav_EC2/DepthDuration/v2_depth_duration_MTurk/v2_DepthDuration_HTML.html#4,4,1600,900,1600,900,9-3-2022,16-10-41,53,depth_duration_stimuli/000854_2014-06-09_19-43-13_260595134347_rgbf000066-resize_0/000854_2014-06-09_19-43-13_260595134347_rgbf000066-resize_0-target.png,250,3.068,70,10775,257,meters,jsons/v1_VE250_randls_18.json,1491325,1975689,24,Man
53,329190,DepthScenes,duration_manipulation_targetAtFixation,jsons/v1_VE250_randls_18.json,http://54.235.29.9/FacialAge/BNav_EC2/DepthDuration/v2_depth_duration_MTurk/v2_DepthDuration_HTML.html#4,4,1600,900,1600,900,9-3-2022,16-10-41,54,depth_duration_stimuli/000486_2014-06-09_20-47-20_260595134347_rgbf000143-resize_2/000486_2014-06-09_20-47-20_260595134347_rgbf000143-resize_2-target.png,250,4.8325,70,6852,259,meters,jsons/v1_VE250_randls_18.json,1491325,1975689,24,Man
54,329190,DepthScenes,duration_manipulation_targetAtFixation,jsons/v1_VE250_randls_18.json,http://54.235.29.9/FacialAge/BNav_EC2/DepthDuration/v2_depth_duration_MTurk/v2_DepthDuration_HTML.html#4,4,1600,900,1600,900,9-3-2022,16-10-41,55,depth_duration_stimuli/003083_2014-06-15_15-21-03_094959634447_rgbf000063-resize_1/003083_2014-06-15_15-21-03_094959634447_rgbf000063-resize_1-target.png,250,4.1405,60,14502,242,meters,jsons/v1_VE250_randls_18.json,1491325,1975689,24,Man
55,329190,DepthScenes,duration_manipulation_targetAtFixation,jsons/v1_VE250_randls_18.json,http://54.235.29.9/FacialAge/BNav_EC2/DepthDuration/v2_depth_duration_MTurk/v2_DepthDuration_HTML.html#4,4,1600,900,1600,900,9-3-2022,16-10-41,56,depth_duration_stimuli/000773_2014-06-08_22-24-54_260595134347_rgbf000093-resize_1/000773_2014-06-08_22-24-54_260595134347_rgbf000093-resize_1-target.png,250,4.973,65,9960,243,meters,jsons/v1_VE250_randls_18.json,1491325,1975689,24,Man
56,329190,DepthScenes,duration_manipulation_targetAtFixation,jsons/v1_VE250_randls_18.json,http://54.235.29.9/FacialAge/BNav_EC2/DepthDuration/v2_depth_duration_MTurk/v2_DepthDuration_HTML.html#4,4,1600,900,1600,900,9-3-2022,16-10-41,57,depth_duration_stimuli/002414_2014-06-28_20-24-58_260595134347_rgbf000067-resize_4/002414_2014-06-28_20-24-58_260595134347_rgbf000067-resize_4-target.png,250,4.363,70,5669,251,meters,jsons/v1_VE250_randls_18.json,1491325,1975689,24,Man
57,329190,DepthScenes,duration_manipulation_targetAtFixation,jsons/v1_VE250_randls_18.json,http://54.235.29.9/FacialAge/BNav_EC2/DepthDuration/v2_depth_duration_MTurk/v2_DepthDuration_HTML.html#4,4,1600,900,1600,900,9-3-2022,16-10-41,58,depth_duration_stimuli/000493_2014-06-09_21-01-18_260595134347_rgbf000196-resize_3/000493_2014-06-09_21-01-18_260595134347_rgbf000196-resize_3-target.png,250,3.44,65,24088,258,meters,jsons/v1_VE250_randls_18.json,1491325,1975689,24,Man
58,329190,DepthScenes,duration_manipulation_targetAtFixation,jsons/v1_VE250_randls_18.json,http://54.235.29.9/FacialAge/BNav_EC2/DepthDuration/v2_depth_duration_MTurk/v2_DepthDuration_HTML.html#4,4,1600,900,1600,900,9-3-2022,16-10-41,59,depth_duration_stimuli/000191_2014-05-12_17-07-38_260595134347_rgbf000199-resize_0/000191_2014-05-12_17-07-38_260595134347_rgbf000199-resize_0-target.png,250,3.7995,70,22764,255,meters,jsons/v1_VE250_randls_18.json,1491325,1975689,24,Man
59,329190,DepthScenes,duration_manipulation_targetAtFixation,jsons/v1_VE250_randls_18.json,http://54.235.29.9/FacialAge/BNav_EC2/DepthDuration/v2_depth_duration_MTurk/v2_DepthDuration_HTML.html#4,4,1600,900,1600,900,9-3-2022,16-10-41,60,depth_duration_stimuli/002153_2014-06-25_21-27-18_260595134347_rgbf000038-resize_5/002153_2014-06-25_21-27-18_260595134347_rgbf000038-resize_5-target.png,250,2.505,65,10837,255,meters,jsons/v1_VE250_randls_18.json,1491325,1975689,24,Man
60,329190,DepthScenes,duration_manipulation_targetAtFixation,jsons/v1_VE250_randls_18.json,http://54.235.29.9/FacialAge/BNav_EC2/DepthDuration/v2_depth_duration_MTurk/v2_DepthDuration_HTML.html#4,4,1600,900,1600,900,9-3-2022,16-10-41,61,depth_duration_stimuli/002660_2014-06-13_15-44-18_094959634447_rgbf001878-resize_2/002660_2014-06-13_15-44-18_094959634447_rgbf001878-resize_2-target.png,250,3.576,80,5648,259,meters,jsons/v1_VE250_randls_18.json,1491325,1975689,24,Man
61,329190,DepthScenes,duration_manipulation_targetAtFixation,jsons/v1_VE250_randls_18.json,http://54.235.29.9/FacialAge/BNav_EC2/DepthDuration/v2_depth_duration_MTurk/v2_DepthDuration_HTML.html#4,4,1600,900,1600,900,9-3-2022,16-10-41,62,depth_duration_stimuli/002748_2014-06-22_19-07-22_094959634447_rgbf000078-resize_1/002748_2014-06-22_19-07-22_094959634447_rgbf000078-resize_1-target.png,250,4.6705,70,4677,252,meters,jsons/v1_VE250_randls_18.json,1491325,1975689,24,Man
62,329190,DepthScenes,duration_manipulation_targetAtFixation,jsons/v1_VE250_randls_18.json,http://54.235.29.9/FacialAge/BNav_EC2/DepthDuration/v2_depth_duration_MTurk/v2_DepthDuration_HTML.html#4,4,1600,900,1600,900,9-3-2022,16-10-41,63,depth_duration_stimuli/002995_2014-06-15_12-31-26_094959634447_rgbf000150-resize_1/002995_2014-06-15_12-31-26_094959634447_rgbf000150-resize_1-target.png,250,3.8360000000000003,70,12027,251,meters,jsons/v1_VE250_randls_18.json,1491325,1975689,24,Man
63,329190,DepthScenes,duration_manipulation_targetAtFixation,jsons/v1_VE250_randls_18.json,http://54.235.29.9/FacialAge/BNav_EC2/DepthDuration/v2_depth_duration_MTurk/v2_DepthDuration_HTML.html#4,4,1600,900,1600,900,9-3-2022,16-10-41,64,depth_duration_stimuli/001092_2014-06-15_17-34-58_260595134347_rgbf000171-resize_3/001092_2014-06-15_17-34-58_260595134347_rgbf000171-resize_3-target.png,250,2.6935,65,6242,257,meters,jsons/v1_VE250_randls_18.json,1491325,1975689,24,Man
64,329190,DepthScenes,duration_manipulation_targetAtFixation,jsons/v1_VE250_randls_18.json,http://54.235.29.9/FacialAge/BNav_EC2/DepthDuration/v2_depth_duration_MTurk/v2_DepthDuration_HTML.html#4,4,1600,900,1600,900,9-3-2022,16-10-41,65,depth_duration_stimuli/002545_2014-06-24_13-38-53_094959634447_rgbf000080-resize_4/002545_2014-06-24_13-38-53_094959634447_rgbf000080-resize_4-target.png,250,1.9205,70,7556,237,meters,jsons/v1_VE250_randls_18.json,1491325,1975689,24,Man
65,329190,DepthScenes,duration_manipulation_targetAtFixation,jsons/v1_VE250_randls_18.json,http://54.235.29.9/FacialAge/BNav_EC2/DepthDuration/v2_depth_duration_MTurk/v2_DepthDuration_HTML.html#4,4,1600,900,1600,900,9-3-2022,16-10-41,66,depth_duration_stimuli/001222_2014-06-17_16-24-06_260595134347_rgbf000073-resize_0/001222_2014-06-17_16-24-06_260595134347_rgbf000073-resize-original.jpg,250,1.4385,80,6249,246,meters,jsons/v1_VE250_randls_18.json,1491325,1975689,24,Man
66,329190,DepthScenes,duration_manipulation_targetAtFixation,jsons/v1_VE250_randls_18.json,http://54.235.29.9/FacialAge/BNav_EC2/DepthDuration/v2_depth_duration_MTurk/v2_DepthDuration_HTML.html#4,4,1600,900,1600,900,9-3-2022,16-10-41,67,depth_duration_stimuli/001555_2014-06-20_17-12-10_260595134347_rgbf000065-resize_4/001555_2014-06-20_17-12-10_260595134347_rgbf000065-resize_4-target.png,250,1.633,80,15504,258,meters,jsons/v1_VE250_randls_18.json,1491325,1975689,24,Man
67,329190,DepthScenes,duration_manipulation_targetAtFixation,jsons/v1_VE250_randls_18.json,http://54.235.29.9/FacialAge/BNav_EC2/DepthDuration/v2_depth_duration_MTurk/v2_DepthDuration_HTML.html#4,4,1600,900,1600,900,9-3-2022,16-10-41,68,depth_duration_stimuli/000103_2014-05-14_22-01-17_260595134347_rgbf000152-resize_5/000103_2014-05-14_22-01-17_260595134347_rgbf000152-resize_5-target.png,250,1.993,65,5834,249,meters,jsons/v1_VE250_randls_18.json,1491325,1975689,24,Man
68,329190,DepthScenes,duration_manipulation_targetAtFixation,jsons/v1_VE250_randls_18.json,http://54.235.29.9/FacialAge/BNav_EC2/DepthDuration/v2_depth_duration_MTurk/v2_DepthDuration_HTML.html#4,4,1600,900,1600,900,9-3-2022,16-10-41,69,depth_duration_stimuli/000447_2014-06-08_16-15-46_260595134347_rgbf000130-resize_1/000447_2014-06-08_16-15-46_260595134347_rgbf000130-resize_1-target.png,250,4.479,70,18586,250,meters,jsons/v1_VE250_randls_18.json,1491325,1975689,24,Man
69,329190,DepthScenes,duration_manipulation_targetAtFixation,jsons/v1_VE250_randls_18.json,http://54.235.29.9/FacialAge/BNav_EC2/DepthDuration/v2_depth_duration_MTurk/v2_DepthDuration_HTML.html#4,4,1600,900,1600,900,9-3-2022,16-10-41,70,depth_duration_stimuli/001447_2014-06-19_17-00-32_260595134347_rgbf000082-resize_5/001447_2014-06-19_17-00-32_260595134347_rgbf000082-resize_5-target.png,250,4.13775,65,4436,258,meters,jsons/v1_VE250_randls_18.json,1491325,1975689,24,Man
70,329190,DepthScenes,duration_manipulation_targetAtFixation,jsons/v1_VE250_randls_18.json,http://54.235.29.9/FacialAge/BNav_EC2/DepthDuration/v2_depth_duration_MTurk/v2_DepthDuration_HTML.html#4,4,1600,900,1600,900,9-3-2022,16-10-41,71,depth_duration_stimuli/001808_2014-06-26_20-50-58_260595134347_rgbf000029-resize_1/001808_2014-06-26_20-50-58_260595134347_rgbf000029-resize_1-target.png,250,4.249,55,4544,240,meters,jsons/v1_VE250_randls_18.json,1491325,1975689,24,Man
71,329190,DepthScenes,duration_manipulation_targetAtFixation,jsons/v1_VE250_randls_18.json,http://54.235.29.9/FacialAge/BNav_EC2/DepthDuration/v2_depth_duration_MTurk/v2_DepthDuration_HTML.html#4,4,1600,900,1600,900,9-3-2022,16-10-41,72,depth_duration_stimuli/001815_2014-06-26_20-52-55_260595134347_rgbf000020-resize_0/001815_2014-06-26_20-52-55_260595134347_rgbf000020-resize_0-target.png,250,3.3865,80,4540,238,meters,jsons/v1_VE250_randls_18.json,1491325,1975689,24,Man
72,329190,DepthScenes,duration_manipulation_targetAtFixation,jsons/v1_VE250_randls_18.json,http://54.235.29.9/FacialAge/BNav_EC2/DepthDuration/v2_depth_duration_MTurk/v2_DepthDuration_HTML.html#4,4,1600,900,1600,900,9-3-2022,16-10-41,73,depth_duration_stimuli/000469_2014-06-09_19-42-10_260595134347_rgbf000081-resize_1/000469_2014-06-09_19-42-10_260595134347_rgbf000081-resize_1-target.png,250,1.652,70,4701,248,meters,jsons/v1_VE250_randls_18.json,1491325,1975689,24,Man
73,329190,DepthScenes,duration_manipulation_targetAtFixation,jsons/v1_VE250_randls_18.json,http://54.235.29.9/FacialAge/BNav_EC2/DepthDuration/v2_depth_duration_MTurk/v2_DepthDuration_HTML.html#4,4,1600,900,1600,900,9-3-2022,16-10-41,74,depth_duration_stimuli/000483_2014-06-09_20-41-45_260595134347_rgbf000116-resize_4/000483_2014-06-09_20-41-45_260595134347_rgbf000116-resize_4-target.png,250,1.337,50,10573,249,meters,jsons/v1_VE250_randls_18.json,1491325,1975689,24,Man
74,329190,DepthScenes,duration_manipulation_targetAtFixation,jsons/v1_VE250_randls_18.json,http://54.235.29.9/FacialAge/BNav_EC2/DepthDuration/v2_depth_duration_MTurk/v2_DepthDuration_HTML.html#4,4,1600,900,1600,900,9-3-2022,16-10-41,75,depth_duration_stimuli/002600_2014-06-24_14-27-04_094959634447_rgbf000074-resize_2/002600_2014-06-24_14-27-04_094959634447_rgbf000074-resize_2-target.png,250,2.7575,70,9639,246,meters,jsons/v1_VE250_randls_18.json,1491325,1975689,24,Man
75,329190,DepthScenes,duration_manipulation_targetAtFixation,jsons/v1_VE250_randls_18.json,http://54.235.29.9/FacialAge/BNav_EC2/DepthDuration/v2_depth_duration_MTurk/v2_DepthDuration_HTML.html#4,4,1600,900,1600,900,9-3-2022,16-10-41,76,depth_duration_stimuli/003228_2014-05-14_13-42-35_094959634447_rgbf000101-resize_1/003228_2014-05-14_13-42-35_094959634447_rgbf000101-resize_1-target.png,250,1.9680000000000002,65,6404,252,meters,jsons/v1_VE250_randls_18.json,1491325,1975689,24,Man
76,329190,DepthScenes,duration_manipulation_targetAtFixation,jsons/v1_VE250_randls_18.json,http://54.235.29.9/FacialAge/BNav_EC2/DepthDuration/v2_depth_duration_MTurk/v2_DepthDuration_HTML.html#4,4,1600,900,1600,900,9-3-2022,16-10-41,77,depth_duration_stimuli/002989_2014-06-15_12-25-03_094959634447_rgbf000150-resize_3/002989_2014-06-15_12-25-03_094959634447_rgbf000150-resize_3-target.png,250,4.1975,50,8540,236,meters,jsons/v1_VE250_randls_18.json,1491325,1975689,24,Man
77,329190,DepthScenes,duration_manipulation_targetAtFixation,jsons/v1_VE250_randls_18.json,http://54.235.29.9/FacialAge/BNav_EC2/DepthDuration/v2_depth_duration_MTurk/v2_DepthDuration_HTML.html#4,4,1600,900,1600,900,9-3-2022,16-10-41,78,depth_duration_stimuli/000866_2014-06-09_20-45-42_260595134347_rgbf000139-resize_1/000866_2014-06-09_20-45-42_260595134347_rgbf000139-resize_1-target.png,250,3.2155,65,5172,248,meters,jsons/v1_VE250_randls_18.json,1491325,1975689,24,Man
78,329190,DepthScenes,duration_manipulation_targetAtFixation,jsons/v1_VE250_randls_18.json,http://54.235.29.9/FacialAge/BNav_EC2/DepthDuration/v2_depth_duration_MTurk/v2_DepthDuration_HTML.html#4,4,1600,900,1600,900,9-3-2022,16-10-41,79,depth_duration_stimuli/001810_2014-06-26_20-51-35_260595134347_rgbf000040-resize_3/001810_2014-06-26_20-51-35_260595134347_rgbf000040-resize_3-target.png,250,2.2525,70,4283,244,meters,jsons/v1_VE250_randls_18.json,1491325,1975689,24,Man
79,329190,DepthScenes,duration_manipulation_targetAtFixation,jsons/v1_VE250_randls_18.json,http://54.235.29.9/FacialAge/BNav_EC2/DepthDuration/v2_depth_duration_MTurk/v2_DepthDuration_HTML.html#4,4,1600,900,1600,900,9-3-2022,16-10-41,80,depth_duration_stimuli/003010_2014-06-15_12-54-35_094959634447_rgbf000112-resize_0/003010_2014-06-15_12-54-35_094959634447_rgbf000112-resize_0-target.png,250,3.1185,50,7539,248,meters,jsons/v1_VE250_randls_18.json,1491325,1975689,24,Man
80,329190,DepthScenes,duration_manipulation_targetAtFixation,jsons/v1_VE250_randls_18.json,http://54.235.29.9/FacialAge/BNav_EC2/DepthDuration/v2_depth_duration_MTurk/v2_DepthDuration_HTML.html#4,4,1600,900,1600,900,9-3-2022,16-10-41,81,depth_duration_stimuli/000642_2014-06-08_16-59-25_260595134347_rgbf000098-resize_2/000642_2014-06-08_16-59-25_260595134347_rgbf000098-resize_2-target.png,250,2.8815,70,6356,237,meters,jsons/v1_VE250_randls_18.json,1491325,1975689,24,Man
81,329190,DepthScenes,duration_manipulation_targetAtFixation,jsons/v1_VE250_randls_18.json,http://54.235.29.9/FacialAge/BNav_EC2/DepthDuration/v2_depth_duration_MTurk/v2_DepthDuration_HTML.html#4,4,1600,900,1600,900,9-3-2022,16-10-41,82,depth_duration_stimuli/002425_2014-06-28_20-27-29_260595134347_rgbf000031-resize_8/002425_2014-06-28_20-27-29_260595134347_rgbf000031-resize_8-target.png,250,3.8960000000000004,75,5377,252,meters,jsons/v1_VE250_randls_18.json,1491325,1975689,24,Man
82,329190,DepthScenes,duration_manipulation_targetAtFixation,jsons/v1_VE250_randls_18.json,http://54.235.29.9/FacialAge/BNav_EC2/DepthDuration/v2_depth_duration_MTurk/v2_DepthDuration_HTML.html#4,4,1600,900,1600,900,9-3-2022,16-10-41,83,depth_duration_stimuli/002057_2014-06-24_21-00-13_260595134347_rgbf000120-resize_1/002057_2014-06-24_21-00-13_260595134347_rgbf000120-resize_1-target.png,250,2.967,70,12229,241,meters,jsons/v1_VE250_randls_18.json,1491325,1975689,24,Man
83,329190,DepthScenes,duration_manipulation_targetAtFixation,jsons/v1_VE250_randls_18.json,http://54.235.29.9/FacialAge/BNav_EC2/DepthDuration/v2_depth_duration_MTurk/v2_DepthDuration_HTML.html#4,4,1600,900,1600,900,9-3-2022,16-10-41,84,depth_duration_stimuli/000709_2014-06-08_13-51-55_260595134347_rgbf000068-resize_3/000709_2014-06-08_13-51-55_260595134347_rgbf000068-resize_3-target.png,250,1.8030000000000002,65,7713,245,meters,jsons/v1_VE250_randls_18.json,1491325,1975689,24,Man
84,329190,DepthScenes,duration_manipulation_targetAtFixation,jsons/v1_VE250_randls_18.json,http://54.235.29.9/FacialAge/BNav_EC2/DepthDuration/v2_depth_duration_MTurk/v2_DepthDuration_HTML.html#4,4,1600,900,1600,900,9-3-2022,16-10-41,85,depth_duration_stimuli/001449_2014-06-19_17-01-27_260595134347_rgbf000116-resize_2/001449_2014-06-19_17-01-27_260595134347_rgbf000116-resize_2-target.png,250,3.452,65,6154,258,meters,jsons/v1_VE250_randls_18.json,1491325,1975689,24,Man
85,329190,DepthScenes,duration_manipulation_targetAtFixation,jsons/v1_VE250_randls_18.json,http://54.235.29.9/FacialAge/BNav_EC2/DepthDuration/v2_depth_duration_MTurk/v2_DepthDuration_HTML.html#4,4,1600,900,1600,900,9-3-2022,16-10-41,86,depth_duration_stimuli/001450_2014-06-19_17-02-03_260595134347_rgbf000203-resize_4/001450_2014-06-19_17-02-03_260595134347_rgbf000203-resize_4-target.png,250,4.0106666666667,80,7384,243,meters,jsons/v1_VE250_randls_18.json,1491325,1975689,24,Man
86,329190,DepthScenes,duration_manipulation_targetAtFixation,jsons/v1_VE250_randls_18.json,http://54.235.29.9/FacialAge/BNav_EC2/DepthDuration/v2_depth_duration_MTurk/v2_DepthDuration_HTML.html#4,4,1600,900,1600,900,9-3-2022,16-10-41,87,depth_duration_stimuli/000878_2014-06-08_22-52-45_260595134347_rgbf000045-resize_2/000878_2014-06-08_22-52-45_260595134347_rgbf000045-resize_2-target.png,250,2.092,65,6726,254,meters,jsons/v1_VE250_randls_18.json,1491325,1975689,24,Man
87,329190,DepthScenes,duration_manipulation_targetAtFixation,jsons/v1_VE250_randls_18.json,http://54.235.29.9/FacialAge/BNav_EC2/DepthDuration/v2_depth_duration_MTurk/v2_DepthDuration_HTML.html#4,4,1600,900,1600,900,9-3-2022,16-10-41,88,depth_duration_stimuli/002953_2014-06-08_17-32-18_094959634447_rgbf000059-resize_5/002953_2014-06-08_17-32-18_094959634447_rgbf000059-resize_5-target.png,250,1.551,65,9321,246,meters,jsons/v1_VE250_randls_18.json,1491325,1975689,24,Man
88,329190,DepthScenes,duration_manipulation_targetAtFixation,jsons/v1_VE250_randls_18.json,http://54.235.29.9/FacialAge/BNav_EC2/DepthDuration/v2_depth_duration_MTurk/v2_DepthDuration_HTML.html#4,4,1600,900,1600,900,9-3-2022,16-10-41,89,depth_duration_stimuli/002118_2014-06-25_20-32-08_260595134347_rgbf000078-resize_1/002118_2014-06-25_20-32-08_260595134347_rgbf000078-resize_1-target.png,250,2.6460000000000004,70,6216,253,meters,jsons/v1_VE250_randls_18.json,1491325,1975689,24,Man
89,329190,DepthScenes,duration_manipulation_targetAtFixation,jsons/v1_VE250_randls_18.json,http://54.235.29.9/FacialAge/BNav_EC2/DepthDuration/v2_depth_duration_MTurk/v2_DepthDuration_HTML.html#4,4,1600,900,1600,900,9-3-2022,16-10-41,90,depth_duration_stimuli/001516_2014-06-20_16-25-09_260595134347_rgbf000076-resize_2/001516_2014-06-20_16-25-09_260595134347_rgbf000076-resize_2-target.png,250,1.7445,80,5689,242,meters,jsons/v1_VE250_randls_18.json,1491325,1975689,24,Man
90,329190,DepthScenes,duration_manipulation_targetAtFixation,jsons/v1_VE250_randls_18.json,http://54.235.29.9/FacialAge/BNav_EC2/DepthDuration/v2_depth_duration_MTurk/v2_DepthDuration_HTML.html#4,4,1600,900,1600,900,9-3-2022,16-10-41,91,depth_duration_stimuli/002549_2014-06-24_13-41-39_094959634447_rgbf000022-resize_3/002549_2014-06-24_13-41-39_094959634447_rgbf000022-resize_3-target.png,250,1.476,70,21243,251,meters,jsons/v1_VE250_randls_18.json,1491325,1975689,24,Man
91,329190,DepthScenes,duration_manipulation_targetAtFixation,jsons/v1_VE250_randls_18.json,http://54.235.29.9/FacialAge/BNav_EC2/DepthDuration/v2_depth_duration_MTurk/v2_DepthDuration_HTML.html#4,4,1600,900,1600,900,9-3-2022,16-10-41,92,depth_duration_stimuli/002750_2014-06-22_19-08-03_094959634447_rgbf000094-resize_4/002750_2014-06-22_19-08-03_094959634447_rgbf000094-resize_4-target.png,250,2.354,75,4868,245,meters,jsons/v1_VE250_randls_18.json,1491325,1975689,24,Man
92,329190,DepthScenes,duration_manipulation_targetAtFixation,jsons/v1_VE250_randls_18.json,http://54.235.29.9/FacialAge/BNav_EC2/DepthDuration/v2_depth_duration_MTurk/v2_DepthDuration_HTML.html#4,4,1600,900,1600,900,9-3-2022,16-10-41,93,depth_duration_stimuli/002663_2014-06-13_15-50-26_094959634447_rgbf000075-resize_1/002663_2014-06-13_15-50-26_094959634447_rgbf000075-resize_1-target.png,250,4.7495,80,4318,258,meters,jsons/v1_VE250_randls_18.json,1491325,1975689,24,Man
93,329190,DepthScenes,duration_manipulation_targetAtFixation,jsons/v1_VE250_randls_18.json,http://54.235.29.9/FacialAge/BNav_EC2/DepthDuration/v2_depth_duration_MTurk/v2_DepthDuration_HTML.html#4,4,1600,900,1600,900,9-3-2022,16-10-41,94,depth_duration_stimuli/000409_2014-06-04_19-23-33_260595134347_rgbf000067-resize_0/000409_2014-06-04_19-23-33_260595134347_rgbf000067-resize_0-target.png,250,3.7335,60,4532,256,meters,jsons/v1_VE250_randls_18.json,1491325,1975689,24,Man
94,329190,DepthScenes,duration_manipulation_targetAtFixation,jsons/v1_VE250_randls_18.json,http://54.235.29.9/FacialAge/BNav_EC2/DepthDuration/v2_depth_duration_MTurk/v2_DepthDuration_HTML.html#4,4,1600,900,1600,900,9-3-2022,16-10-41,95,depth_duration_stimuli/002272_2014-06-28_18-53-56_260595134347_rgbf000067-resize_2/002272_2014-06-28_18-53-56_260595134347_rgbf000067-resize_2-target.png,250,1.138,60,16879,258,meters,jsons/v1_VE250_randls_18.json,1491325,1975689,24,Man
95,329190,DepthScenes,duration_manipulation_targetAtFixation,jsons/v1_VE250_randls_18.json,http://54.235.29.9/FacialAge/BNav_EC2/DepthDuration/v2_depth_duration_MTurk/v2_DepthDuration_HTML.html#4,4,1600,900,1600,900,9-3-2022,16-10-41,96,depth_duration_stimuli/001571_2014-06-20_17-21-32_260595134347_rgbf000089-resize_1/001571_2014-06-20_17-21-32_260595134347_rgbf000089-resize_1-target.png,250,1.86,80,4144,257,meters,jsons/v1_VE250_randls_18.json,1491325,1975689,24,Man
96,329190,DepthScenes,duration_manipulation_targetAtFixation,jsons/v1_VE250_randls_18.json,http://54.235.29.9/FacialAge/BNav_EC2/DepthDuration/v2_depth_duration_MTurk/v2_DepthDuration_HTML.html#4,4,1600,900,1600,900,9-3-2022,16-10-41,97,depth_duration_stimuli/002630_2014-06-24_14-47-50_094959634447_rgbf000055-resize_1/002630_2014-06-24_14-47-50_094959634447_rgbf000055-resize_1-target.png,250,3.0095,75,4002,249,meters,jsons/v1_VE250_randls_18.json,1491325,1975689,24,Man
97,329190,DepthScenes,duration_manipulation_targetAtFixation,jsons/v1_VE250_randls_18.json,http://54.235.29.9/FacialAge/BNav_EC2/DepthDuration/v2_depth_duration_MTurk/v2_DepthDuration_HTML.html#4,4,1600,900,1600,900,9-3-2022,16-10-41,98,depth_duration_stimuli/002758_2014-06-22_19-11-20_094959634447_rgbf000128-resize_1/002758_2014-06-22_19-11-20_094959634447_rgbf000128-resize_1-target.png,250,2.555,75,4358,262,meters,jsons/v1_VE250_randls_18.json,1491325,1975689,24,Man
98,329190,DepthScenes,duration_manipulation_targetAtFixation,jsons/v1_VE250_randls_18.json,http://54.235.29.9/FacialAge/BNav_EC2/DepthDuration/v2_depth_duration_MTurk/v2_DepthDuration_HTML.html#4,4,1600,900,1600,900,9-3-2022,16-10-41,99,depth_duration_stimuli/001540_2014-06-20_17-01-05_260595134347_rgbf000086-resize_2/001540_2014-06-20_17-01-05_260595134347_rgbf000086-resize-original.jpg,250,1.459,80,5466,257,meters,jsons/v1_VE250_randls_18.json,1491325,1975689,24,Man
99,329190,DepthScenes,duration_manipulation_targetAtFixation,jsons/v1_VE250_randls_18.json,http://54.235.29.9/FacialAge/BNav_EC2/DepthDuration/v2_depth_duration_MTurk/v2_DepthDuration_HTML.html#4,4,1600,900,1600,900,9-3-2022,16-10-41,100,depth_duration_stimuli/002788_2014-06-22_19-36-03_094959634447_rgbf000088-resize_2/002788_2014-06-22_19-36-03_094959634447_rgbf000088-resize_2-target.png,250,1.6465,70,14405,258,meters,jsons/v1_VE250_randls_18.json,1491325,1975689,24,Man
100,329190,DepthScenes,duration_manipulation_targetAtFixation,jsons/v1_VE250_randls_18.json,http://54.235.29.9/FacialAge/BNav_EC2/DepthDuration/v2_depth_duration_MTurk/v2_DepthDuration_HTML.html#4,4,1600,900,1600,900,9-3-2022,16-10-41,101,depth_duration_stimuli/000749_2014-06-08_21-55-06_260595134347_rgbf000070-resize_2/000749_2014-06-08_21-55-06_260595134347_rgbf000070-resize_2-target.png,250,2.331,45,4413,257,meters,jsons/v1_VE250_randls_18.json,1491325,1975689,24,Man
101,329190,DepthScenes,duration_manipulation_targetAtFixation,jsons/v1_VE250_randls_18.json,http://54.235.29.9/FacialAge/BNav_EC2/DepthDuration/v2_depth_duration_MTurk/v2_DepthDuration_HTML.html#4,4,1600,900,1600,900,9-3-2022,16-10-41,102,depth_duration_stimuli/000906_2014-06-08_13-35-43_260595134347_rgbf000155-resize_1/000906_2014-06-08_13-35-43_260595134347_rgbf000155-resize_1-target.png,250,2.8489999999999998,75,4523,257,meters,jsons/v1_VE250_randls_18.json,1491325,1975689,24,Man
102,329190,DepthScenes,duration_manipulation_targetAtFixation,jsons/v1_VE250_randls_18.json,http://54.235.29.9/FacialAge/BNav_EC2/DepthDuration/v2_depth_duration_MTurk/v2_DepthDuration_HTML.html#4,4,1600,900,1600,900,9-3-2022,16-10-41,103,depth_duration_stimuli/002805_2014-06-22_19-54-03_094959634447_rgbf000079-resize_1/002805_2014-06-22_19-54-03_094959634447_rgbf000079-resize_1-target.png,250,3.1439999999999997,50,5476,246,meters,jsons/v1_VE250_randls_18.json,1491325,1975689,24,Man
103,329190,DepthScenes,duration_manipulation_targetAtFixation,jsons/v1_VE250_randls_18.json,http://54.235.29.9/FacialAge/BNav_EC2/DepthDuration/v2_depth_duration_MTurk/v2_DepthDuration_HTML.html#4,4,1600,900,1600,900,9-3-2022,16-10-41,104,depth_duration_stimuli/001570_2014-06-20_17-21-09_260595134347_rgbf000135-resize_4/001570_2014-06-20_17-21-09_260595134347_rgbf000135-resize_4-target.png,250,4.467,70,5525,238,meters,jsons/v1_VE250_randls_18.json,1491325,1975689,24,Man
104,329190,DepthScenes,duration_manipulation_targetAtFixation,jsons/v1_VE250_randls_18.json,http://54.235.29.9/FacialAge/BNav_EC2/DepthDuration/v2_depth_duration_MTurk/v2_DepthDuration_HTML.html#4,4,1600,900,1600,900,9-3-2022,16-10-41,105,depth_duration_stimuli/001392_2014-06-19_16-07-59_260595134347_rgbf000046-resize_1/001392_2014-06-19_16-07-59_260595134347_rgbf000046-resize_1-target.png,250,4.135,40,4967,256,meters,jsons/v1_VE250_randls_18.json,1491325,1975689,24,Man
105,329190,DepthScenes,duration_manipulation_targetAtFixation,jsons/v1_VE250_randls_18.json,http://54.235.29.9/FacialAge/BNav_EC2/DepthDuration/v2_depth_duration_MTurk/v2_DepthDuration_HTML.html#4,4,1600,900,1600,900,9-3-2022,16-10-41,106,depth_duration_stimuli/002905_2014-06-03_18-04-43_094959634447_rgbf000151-resize_2/002905_2014-06-03_18-04-43_094959634447_rgbf000151-resize_2-target.png,250,2.0295,40,5768,262,meters,jsons/v1_VE250_randls_18.json,1491325,1975689,24,Man
106,329190,DepthScenes,duration_manipulation_targetAtFixation,jsons/v1_VE250_randls_18.json,http://54.235.29.9/FacialAge/BNav_EC2/DepthDuration/v2_depth_duration_MTurk/v2_DepthDuration_HTML.html#4,4,1600,900,1600,900,9-3-2022,16-10-41,107,depth_duration_stimuli/003423_2014-05-21_10-23-26_094959634447_rgbf002665-resize_2/003423_2014-05-21_10-23-26_094959634447_rgbf002665-resize_2-target.png,250,3.2575,50,9683,248,meters,jsons/v1_VE250_randls_18.json,1491325,1975689,24,Man
107,329190,DepthScenes,duration_manipulation_targetAtFixation,jsons/v1_VE250_randls_18.json,http://54.235.29.9/FacialAge/BNav_EC2/DepthDuration/v2_depth_duration_MTurk/v2_DepthDuration_HTML.html#4,4,1600,900,1600,900,9-3-2022,16-10-41,108,depth_duration_stimuli/002725_2014-06-22_11-47-51_094959634447_rgbf000070-resize_1/002725_2014-06-22_11-47-51_094959634447_rgbf000070-resize_1-target.png,250,2.195,60,27512,241,meters,jsons/v1_VE250_randls_18.json,1491325,1975689,24,Man
108,329190,DepthScenes,duration_manipulation_targetAtFixation,jsons/v1_VE250_randls_18.json,http://54.235.29.9/FacialAge/BNav_EC2/DepthDuration/v2_depth_duration_MTurk/v2_DepthDuration_HTML.html#4,4,1600,900,1600,900,9-3-2022,16-10-41,109,depth_duration_stimuli/002344_2014-06-28_20-06-29_260595134347_rgbf000030-resize_1/002344_2014-06-28_20-06-29_260595134347_rgbf000030-resize_1-target.png,250,1.5795,70,11328,245,meters,jsons/v1_VE250_randls_18.json,1491325,1975689,24,Man
109,329190,DepthScenes,duration_manipulation_targetAtFixation,jsons/v1_VE250_randls_18.json,http://54.235.29.9/FacialAge/BNav_EC2/DepthDuration/v2_depth_duration_MTurk/v2_DepthDuration_HTML.html#4,4,1600,900,1600,900,9-3-2022,16-10-41,110,depth_duration_stimuli/003621_2014-05-23_18-06-08_094959634447_rgbf000101-resize_1/003621_2014-05-23_18-06-08_094959634447_rgbf000101-resize_1-target.png,250,3.9835,60,6460,248,meters,jsons/v1_VE250_randls_18.json,1491325,1975689,24,Man
110,329190,DepthScenes,duration_manipulation_targetAtFixation,jsons/v1_VE250_randls_18.json,http://54.235.29.9/FacialAge/BNav_EC2/DepthDuration/v2_depth_duration_MTurk/v2_DepthDuration_HTML.html#4,4,1600,900,1600,900,9-3-2022,16-10-41,111,depth_duration_stimuli/001584_2014-06-20_11-07-43_260595134347_rgbf000002-resize_1/001584_2014-06-20_11-07-43_260595134347_rgbf000002-resize_1-target.png,250,3.53,70,6002,252,meters,jsons/v1_VE250_randls_18.json,1491325,1975689,24,Man
111,329190,DepthScenes,duration_manipulation_targetAtFixation,jsons/v1_VE250_randls_18.json,http://54.235.29.9/FacialAge/BNav_EC2/DepthDuration/v2_depth_duration_MTurk/v2_DepthDuration_HTML.html#4,4,1600,900,1600,900,9-3-2022,16-10-41,112,depth_duration_stimuli/002213_2014-06-28_18-37-58_260595134347_rgbf000055-resize_1/002213_2014-06-28_18-37-58_260595134347_rgbf000055-resize_1-target.png,250,3.62,60,7128,257,meters,jsons/v1_VE250_randls_18.json,1491325,1975689,24,Man
112,329190,DepthScenes,duration_manipulation_targetAtFixation,jsons/v1_VE250_randls_18.json,http://54.235.29.9/FacialAge/BNav_EC2/DepthDuration/v2_depth_duration_MTurk/v2_DepthDuration_HTML.html#4,4,1600,900,1600,900,9-3-2022,16-10-41,113,depth_duration_stimuli/000691_2014-06-08_13-08-50_260595134347_rgbf000132-resize_3/000691_2014-06-08_13-08-50_260595134347_rgbf000132-resize_3-target.png,250,4.1530000000000005,70,4620,257,meters,jsons/v1_VE250_randls_18.json,1491325,1975689,24,Man
113,329190,DepthScenes,duration_manipulation_targetAtFixation,jsons/v1_VE250_randls_18.json,http://54.235.29.9/FacialAge/BNav_EC2/DepthDuration/v2_depth_duration_MTurk/v2_DepthDuration_HTML.html#4,4,1600,900,1600,900,9-3-2022,16-10-41,114,depth_duration_stimuli/001199_2014-06-17_16-03-48_260595134347_rgbf000077-resize_0/001199_2014-06-17_16-03-48_260595134347_rgbf000077-resize_0-target.png,250,3.4375,60,4021,257,meters,jsons/v1_VE250_randls_18.json,1491325,1975689,24,Man
114,329190,DepthScenes,duration_manipulation_targetAtFixation,jsons/v1_VE250_randls_18.json,http://54.235.29.9/FacialAge/BNav_EC2/DepthDuration/v2_depth_duration_MTurk/v2_DepthDuration_HTML.html#4,4,1600,900,1600,900,9-3-2022,16-10-41,115,depth_duration_stimuli/000502_2014-06-08_23-02-32_260595134347_rgbf000063-resize_4/000502_2014-06-08_23-02-32_260595134347_rgbf000063-resize_4-target.png,250,2.431,70,5451,257,meters,jsons/v1_VE250_randls_18.json,1491325,1975689,24,Man
115,329190,DepthScenes,duration_manipulation_targetAtFixation,jsons/v1_VE250_randls_18.json,http://54.235.29.9/FacialAge/BNav_EC2/DepthDuration/v2_depth_duration_MTurk/v2_DepthDuration_HTML.html#4,4,1600,900,1600,900,9-3-2022,16-10-41,116,depth_duration_stimuli/001170_2014-06-17_15-43-44_260595134347_rgbf000096-resize_6/001170_2014-06-17_15-43-44_260595134347_rgbf000096-resize-original.jpg,250,1.1909999999999998,65,4689,252,meters,jsons/v1_VE250_randls_18.json,1491325,1975689,24,Man
116,329190,DepthScenes,duration_manipulation_targetAtFixation,jsons/v1_VE250_randls_18.json,http://54.235.29.9/FacialAge/BNav_EC2/DepthDuration/v2_depth_duration_MTurk/v2_DepthDuration_HTML.html#4,4,1600,900,1600,900,9-3-2022,16-10-41,117,depth_duration_stimuli/003492_2014-05-21_15-50-55_094959634447_rgbf000828-resize_1/003492_2014-05-21_15-50-55_094959634447_rgbf000828-resize_1-target.png,250,4.06875,75,35110,250,meters,jsons/v1_VE250_randls_18.json,1491325,1975689,24,Man
117,329190,DepthScenes,duration_manipulation_targetAtFixation,jsons/v1_VE250_randls_18.json,http://54.235.29.9/FacialAge/BNav_EC2/DepthDuration/v2_depth_duration_MTurk/v2_DepthDuration_HTML.html#4,4,1600,900,1600,900,9-3-2022,16-10-41,118,depth_duration_stimuli/002568_2014-06-24_13-59-21_094959634447_rgbf000062-resize_4/002568_2014-06-24_13-59-21_094959634447_rgbf000062-resize_4-target.png,250,3.015,60,6385,257,meters,jsons/v1_VE250_randls_18.json,1491325,1975689,24,Man
118,329190,DepthScenes,duration_manipulation_targetAtFixation,jsons/v1_VE250_randls_18.json,http://54.235.29.9/FacialAge/BNav_EC2/DepthDuration/v2_depth_duration_MTurk/v2_DepthDuration_HTML.html#4,4,1600,900,1600,900,9-3-2022,16-10-41,119,depth_duration_stimuli/001158_2014-06-17_15-32-16_260595134347_rgbf000138-resize_2/001158_2014-06-17_15-32-16_260595134347_rgbf000138-resize_2-target.png,250,4.5315,70,4375,250,meters,jsons/v1_VE250_randls_18.json,1491325,1975689,24,Man
119,329190,DepthScenes,duration_manipulation_targetAtFixation,jsons/v1_VE250_randls_18.json,http://54.235.29.9/FacialAge/BNav_EC2/DepthDuration/v2_depth_duration_MTurk/v2_DepthDuration_HTML.html#4,4,1600,900,1600,900,9-3-2022,16-10-41,120,depth_duration_stimuli/000556_2014-06-09_22-42-56_260595134347_rgbf000214-resize_1/000556_2014-06-09_22-42-56_260595134347_rgbf000214-resize_1-target.png,250,4.8415,50,11119,248,meters,jsons/v1_VE250_randls_18.json,1491325,1975689,24,Man
120,329190,DepthScenes,duration_manipulation_targetAtFixation,jsons/v1_VE250_randls_18.json,http://54.235.29.9/FacialAge/BNav_EC2/DepthDuration/v2_depth_duration_MTurk/v2_DepthDuration_HTML.html#4,4,1600,900,1600,900,9-3-2022,16-10-41,121,depth_duration_stimuli/002784_2014-06-22_19-26-30_094959634447_rgbf000083-resize_3/002784_2014-06-22_19-26-30_094959634447_rgbf000083-resize_3-target.png,250,1.8046666666667,60,14813,248,meters,jsons/v1_VE250_randls_18.json,1491325,1975689,24,Man
121,329190,DepthScenes,duration_manipulation_targetAtFixation,jsons/v1_VE250_randls_18.json,http://54.235.29.9/FacialAge/BNav_EC2/DepthDuration/v2_depth_duration_MTurk/v2_DepthDuration_HTML.html#4,4,1600,900,1600,900,9-3-2022,16-10-41,122,depth_duration_stimuli/001100_2014-06-15_17-46-26_260595134347_rgbf000225-resize_2/001100_2014-06-15_17-46-26_260595134347_rgbf000225-resize_2-target.png,250,2.24,70,9268,253,meters,jsons/v1_VE250_randls_18.json,1491325,1975689,24,Man
122,329190,DepthScenes,duration_manipulation_targetAtFixation,jsons/v1_VE250_randls_18.json,http://54.235.29.9/FacialAge/BNav_EC2/DepthDuration/v2_depth_duration_MTurk/v2_DepthDuration_HTML.html#4,4,1600,900,1600,900,9-3-2022,16-10-41,123,depth_duration_stimuli/003070_2014-06-15_14-58-27_094959634447_rgbf000150-resize_3/003070_2014-06-15_14-58-27_094959634447_rgbf000150-resize_3-target.png,250,2.9415,75,10020,254,meters,jsons/v1_VE250_randls_18.json,1491325,1975689,24,Man
123,329190,DepthScenes,duration_manipulation_targetAtFixation,jsons/v1_VE250_randls_18.json,http://54.235.29.9/FacialAge/BNav_EC2/DepthDuration/v2_depth_duration_MTurk/v2_DepthDuration_HTML.html#4,4,1600,900,1600,900,9-3-2022,16-10-41,124,depth_duration_stimuli/000943_2014-06-09_19-31-07_260595134347_rgbf000128-resize_1/000943_2014-06-09_19-31-07_260595134347_rgbf000128-resize_1-target.png,250,1.9765,60,33594,244,meters,jsons/v1_VE250_randls_18.json,1491325,1975689,24,Man
124,329190,DepthScenes,duration_manipulation_targetAtFixation,jsons/v1_VE250_randls_18.json,http://54.235.29.9/FacialAge/BNav_EC2/DepthDuration/v2_depth_duration_MTurk/v2_DepthDuration_HTML.html#4,4,1600,900,1600,900,9-3-2022,16-10-41,125,depth_duration_stimuli/003534_2014-05-22_15-06-10_094959634447_rgbf000102-resize_4/003534_2014-05-22_15-06-10_094959634447_rgbf000102-resize_4-target.png,250,1.426,65,17142,243,meters,jsons/v1_VE250_randls_18.json,1491325,1975689,24,Man
125,329190,DepthScenes,duration_manipulation_targetAtFixation,jsons/v1_VE250_randls_18.json,http://54.235.29.9/FacialAge/BNav_EC2/DepthDuration/v2_depth_duration_MTurk/v2_DepthDuration_HTML.html#4,4,1600,900,1600,900,9-3-2022,16-10-41,126,depth_duration_stimuli/002637_2014-06-24_14-51-13_094959634447_rgbf000066-resize_4/002637_2014-06-24_14-51-13_094959634447_rgbf000066-resize_4-target.png,250,1.9955,70,5119,258,meters,jsons/v1_VE250_randls_18.json,1491325,1975689,24,Man
126,329190,DepthScenes,duration_manipulation_targetAtFixation,jsons/v1_VE250_randls_18.json,http://54.235.29.9/FacialAge/BNav_EC2/DepthDuration/v2_depth_duration_MTurk/v2_DepthDuration_HTML.html#4,4,1600,900,1600,900,9-3-2022,16-10-41,127,depth_duration_stimuli/000009_2014-05-26_14-32-05_260595134347_rgbf000034-resize_3/000009_2014-05-26_14-32-05_260595134347_rgbf000034-resize_3-target.png,250,3.8715,60,5303,237,meters,jsons/v1_VE250_randls_18.json,1491325,1975689,24,Man
127,329190,DepthScenes,duration_manipulation_targetAtFixation,jsons/v1_VE250_randls_18.json,http://54.235.29.9/FacialAge/BNav_EC2/DepthDuration/v2_depth_duration_MTurk/v2_DepthDuration_HTML.html#4,4,1600,900,1600,900,9-3-2022,16-10-41,128,depth_duration_stimuli/001828_2014-06-26_21-40-03_260595134347_rgbf000024-resize_0/001828_2014-06-26_21-40-03_260595134347_rgbf000024-resize_0-target.png,250,4.8260000000000005,80,8761,249,meters,jsons/v1_VE250_randls_18.json,1491325,1975689,24,Man
128,329190,DepthScenes,duration_manipulation_targetAtFixation,jsons/v1_VE250_randls_18.json,http://54.235.29.9/FacialAge/BNav_EC2/DepthDuration/v2_depth_duration_MTurk/v2_DepthDuration_HTML.html#4,4,1600,900,1600,900,9-3-2022,16-10-41,129,depth_duration_stimuli/001806_2014-06-26_20-50-20_260595134347_rgbf000091-resize_1/001806_2014-06-26_20-50-20_260595134347_rgbf000091-resize_1-target.png,250,2.7305,70,10043,250,meters,jsons/v1_VE250_randls_18.json,1491325,1975689,24,Man
129,329190,DepthScenes,duration_manipulation_targetAtFixation,jsons/v1_VE250_randls_18.json,http://54.235.29.9/FacialAge/BNav_EC2/DepthDuration/v2_depth_duration_MTurk/v2_DepthDuration_HTML.html#4,4,1600,900,1600,900,9-3-2022,16-10-41,130,depth_duration_stimuli/001617_2014-06-20_11-35-32_260595134347_rgbf000066-resize_1/001617_2014-06-20_11-35-32_260595134347_rgbf000066-resize_1-target.png,250,3.7910000000000004,65,6360,257,meters,jsons/v1_VE250_randls_18.json,1491325,1975689,24,Man
130,329190,DepthScenes,duration_manipulation_targetAtFixation,jsons/v1_VE250_randls_18.json,http://54.235.29.9/FacialAge/BNav_EC2/DepthDuration/v2_depth_duration_MTurk/v2_DepthDuration_HTML.html#4,4,1600,900,1600,900,9-3-2022,16-10-41,131,depth_duration_stimuli/002445_2014-06-28_20-32-16_260595134347_rgbf000029-resize_4/002445_2014-06-28_20-32-16_260595134347_rgbf000029-resize_4-target.png,250,2.5315,80,20529,255,meters,jsons/v1_VE250_randls_18.json,1491325,1975689,24,Man
131,329190,DepthScenes,duration_manipulation_targetAtFixation,jsons/v1_VE250_randls_18.json,http://54.235.29.9/FacialAge/BNav_EC2/DepthDuration/v2_depth_duration_MTurk/v2_DepthDuration_HTML.html#4,4,1600,900,1600,900,9-3-2022,16-10-41,132,depth_duration_stimuli/000780_2014-06-08_22-28-29_260595134347_rgbf000126-resize_1/000780_2014-06-08_22-28-29_260595134347_rgbf000126-resize_1-target.png,250,3.3825,70,16706,251,meters,jsons/v1_VE250_randls_18.json,1491325,1975689,24,Man
132,329190,DepthScenes,duration_manipulation_targetAtFixation,jsons/v1_VE250_randls_18.json,http://54.235.29.9/FacialAge/BNav_EC2/DepthDuration/v2_depth_duration_MTurk/v2_DepthDuration_HTML.html#4,4,1600,900,1600,900,9-3-2022,16-10-41,133,depth_duration_stimuli/000917_2014-06-09_22-45-29_260595134347_rgbf000149-resize_3/000917_2014-06-09_22-45-29_260595134347_rgbf000149-resize_3-target.png,250,4.1865,65,3893,250,meters,jsons/v1_VE250_randls_18.json,1491325,1975689,24,Man
133,329190,DepthScenes,duration_manipulation_targetAtFixation,jsons/v1_VE250_randls_18.json,http://54.235.29.9/FacialAge/BNav_EC2/DepthDuration/v2_depth_duration_MTurk/v2_DepthDuration_HTML.html#4,4,1600,900,1600,900,9-3-2022,16-10-41,134,depth_duration_stimuli/002323_2014-06-28_20-01-54_260595134347_rgbf000051-resize_4/002323_2014-06-28_20-01-54_260595134347_rgbf000051-resize_4-target.png,250,3.7310000000000003,70,3902,257,meters,jsons/v1_VE250_randls_18.json,1491325,1975689,24,Man
134,329190,DepthScenes,duration_manipulation_targetAtFixation,jsons/v1_VE250_randls_18.json,http://54.235.29.9/FacialAge/BNav_EC2/DepthDuration/v2_depth_duration_MTurk/v2_DepthDuration_HTML.html#4,4,1600,900,1600,900,9-3-2022,16-10-41,135,depth_duration_stimuli/002072_2014-06-24_21-48-06_260595134347_rgbf000115-resize_0/002072_2014-06-24_21-48-06_260595134347_rgbf000115-resize-original.jpg,250,4.702,80,3987,245,meters,jsons/v1_VE250_randls_18.json,1491325,1975689,24,Man
135,329190,DepthScenes,duration_manipulation_targetAtFixation,jsons/v1_VE250_randls_18.json,http://54.235.29.9/FacialAge/BNav_EC2/DepthDuration/v2_depth_duration_MTurk/v2_DepthDuration_HTML.html#4,4,1600,900,1600,900,9-3-2022,16-10-41,136,depth_duration_stimuli/002043_2014-06-24_20-29-38_260595134347_rgbf000039-resize_4/002043_2014-06-24_20-29-38_260595134347_rgbf000039-resize_4-target.png,250,2.8435,70,12191,258,meters,jsons/v1_VE250_randls_18.json,1491325,1975689,24,Man
136,329190,DepthScenes,duration_manipulation_targetAtFixation,jsons/v1_VE250_randls_18.json,http://54.235.29.9/FacialAge/BNav_EC2/DepthDuration/v2_depth_duration_MTurk/v2_DepthDuration_HTML.html#4,4,1600,900,1600,900,9-3-2022,16-10-41,137,depth_duration_stimuli/003048_2014-06-15_13-49-43_094959634447_rgbf000150-resize_1/003048_2014-06-15_13-49-43_094959634447_rgbf000150-resize_1-target.png,250,4.0035,67,9641,252,meters,jsons/v1_VE250_randls_18.json,1491325,1975689,24,Man
137,329190,DepthScenes,duration_manipulation_targetAtFixation,jsons/v1_VE250_randls_18.json,http://54.235.29.9/FacialAge/BNav_EC2/DepthDuration/v2_depth_duration_MTurk/v2_DepthDuration_HTML.html#4,4,1600,900,1600,900,9-3-2022,16-10-41,138,depth_duration_stimuli/000682_2014-06-08_23-14-58_260595134347_rgbf000041-resize_5/000682_2014-06-08_23-14-58_260595134347_rgbf000041-resize_5-target.png,250,2.7239999999999998,70,6495,255,meters,jsons/v1_VE250_randls_18.json,1491325,1975689,24,Man
138,329190,DepthScenes,duration_manipulation_targetAtFixation,jsons/v1_VE250_randls_18.json,http://54.235.29.9/FacialAge/BNav_EC2/DepthDuration/v2_depth_duration_MTurk/v2_DepthDuration_HTML.html#4,4,1600,900,1600,900,9-3-2022,16-10-41,139,depth_duration_stimuli/001650_2014-06-20_12-09-00_260595134347_rgbf000087-resize_3/001650_2014-06-20_12-09-00_260595134347_rgbf000087-resize_3-target.png,250,1.9505,75,23717,258,meters,jsons/v1_VE250_randls_18.json,1491325,1975689,24,Man
139,329190,DepthScenes,duration_manipulation_targetAtFixation,jsons/v1_VE250_randls_18.json,http://54.235.29.9/FacialAge/BNav_EC2/DepthDuration/v2_depth_duration_MTurk/v2_DepthDuration_HTML.html#4,4,1600,900,1600,900,9-3-2022,16-10-41,140,depth_duration_stimuli/000736_2014-06-08_18-24-15_260595134347_rgbf000206-resize_3/000736_2014-06-08_18-24-15_260595134347_rgbf000206-resize_3-target.png,250,3.515,80,3703,241,meters,jsons/v1_VE250_randls_18.json,1491325,1975689,24,Man
140,329190,DepthScenes,duration_manipulation_targetAtFixation,jsons/v1_VE250_randls_18.json,http://54.235.29.9/FacialAge/BNav_EC2/DepthDuration/v2_depth_duration_MTurk/v2_DepthDuration_HTML.html#4,4,1600,900,1600,900,9-3-2022,16-10-41,141,depth_duration_stimuli/000137_2014-05-20_17-04-49_260595134347_rgbf000120-resize_1/000137_2014-05-20_17-04-49_260595134347_rgbf000120-resize_1-target.png,250,3.786,56,5242,264,meters,jsons/v1_VE250_randls_18.json,1491325,1975689,24,Man
141,329190,DepthScenes,duration_manipulation_targetAtFixation,jsons/v1_VE250_randls_18.json,http://54.235.29.9/FacialAge/BNav_EC2/DepthDuration/v2_depth_duration_MTurk/v2_DepthDuration_HTML.html#4,4,1600,900,1600,900,9-3-2022,16-10-41,142,depth_duration_stimuli/000810_2014-06-08_17-20-01_260595134347_rgbf000105-resize_0/000810_2014-06-08_17-20-01_260595134347_rgbf000105-resize_0-target.png,250,1.4865,65,7877,250,meters,jsons/v1_VE250_randls_18.json,1491325,1975689,24,Man
142,329190,DepthScenes,duration_manipulation_targetAtFixation,jsons/v1_VE250_randls_18.json,http://54.235.29.9/FacialAge/BNav_EC2/DepthDuration/v2_depth_duration_MTurk/v2_DepthDuration_HTML.html#4,4,1600,900,1600,900,9-3-2022,16-10-41,143,depth_duration_stimuli/001214_2014-06-17_16-13-55_260595134347_rgbf000111-resize_0/001214_2014-06-17_16-13-55_260595134347_rgbf000111-resize_0-target.png,250,2.6505,70,5069,251,meters,jsons/v1_VE250_randls_18.json,1491325,1975689,24,Man
143,329190,DepthScenes,duration_manipulation_targetAtFixation,jsons/v1_VE250_randls_18.json,http://54.235.29.9/FacialAge/BNav_EC2/DepthDuration/v2_depth_duration_MTurk/v2_DepthDuration_HTML.html#4,4,1600,900,1600,900,9-3-2022,16-10-41,144,depth_duration_stimuli/002964_2014-06-08_17-46-11_094959634447_rgbf000091-resize_4/002964_2014-06-08_17-46-11_094959634447_rgbf000091-resize_4-target.png,250,1.6909999999999998,67,12835,258,meters,jsons/v1_VE250_randls_18.json,1491325,1975689,24,Man
144,329190,DepthScenes,duration_manipulation_targetAtFixation,jsons/v1_VE250_randls_18.json,http://54.235.29.9/FacialAge/BNav_EC2/DepthDuration/v2_depth_duration_MTurk/v2_DepthDuration_HTML.html#4,4,1600,900,1600,900,9-3-2022,16-10-41,145,depth_duration_stimuli/002136_2014-06-25_21-18-03_260595134347_rgbf000109-resize_3/002136_2014-06-25_21-18-03_260595134347_rgbf000109-resize_3-target.png,250,1.9569999999999999,70,4635,245,meters,jsons/v1_VE250_randls_18.json,1491325,1975689,24,Man
145,329190,DepthScenes,duration_manipulation_targetAtFixation,jsons/v1_VE250_randls_18.json,http://54.235.29.9/FacialAge/BNav_EC2/DepthDuration/v2_depth_duration_MTurk/v2_DepthDuration_HTML.html#4,4,1600,900,1600,900,9-3-2022,16-10-41,146,depth_duration_stimuli/001498_2014-06-19_17-45-14_260595134347_rgbf000129-resize_4/001498_2014-06-19_17-45-14_260595134347_rgbf000129-resize-original.jpg,250,1.4075,65,8325,255,meters,jsons/v1_VE250_randls_18.json,1491325,1975689,24,Man
146,329190,DepthScenes,duration_manipulation_targetAtFixation,jsons/v1_VE250_randls_18.json,http://54.235.29.9/FacialAge/BNav_EC2/DepthDuration/v2_depth_duration_MTurk/v2_DepthDuration_HTML.html#4,4,1600,900,1600,900,9-3-2022,16-10-41,147,depth_duration_stimuli/001244_2014-06-17_16-47-45_260595134347_rgbf000030-resize_4/001244_2014-06-17_16-47-45_260595134347_rgbf000030-resize_4-target.png,250,2.0425,65,4035,250,meters,jsons/v1_VE250_randls_18.json,1491325,1975689,24,Man
147,329190,DepthScenes,duration_manipulation_targetAtFixation,jsons/v1_VE250_randls_18.json,http://54.235.29.9/FacialAge/BNav_EC2/DepthDuration/v2_depth_duration_MTurk/v2_DepthDuration_HTML.html#4,4,1600,900,1600,900,9-3-2022,16-10-41,148,depth_duration_stimuli/003495_2014-05-21_16-01-51_094959634447_rgbf000100-resize_3/003495_2014-05-21_16-01-51_094959634447_rgbf000100-resize_3-target.png,250,1.6255,67,3610,259,meters,jsons/v1_VE250_randls_18.json,1491325,1975689,24,Man
148,329190,DepthScenes,duration_manipulation_targetAtFixation,jsons/v1_VE250_randls_18.json,http://54.235.29.9/FacialAge/BNav_EC2/DepthDuration/v2_depth_duration_MTurk/v2_DepthDuration_HTML.html#4,4,1600,900,1600,900,9-3-2022,16-10-41,149,depth_duration_stimuli/001167_2014-06-17_15-38-07_260595134347_rgbf000108-resize_0/001167_2014-06-17_15-38-07_260595134347_rgbf000108-resize_0-target.png,250,1.8505,75,6767,242,meters,jsons/v1_VE250_randls_18.json,1491325,1975689,24,Man
149,329190,DepthScenes,duration_manipulation_targetAtFixation,jsons/v1_VE250_randls_18.json,http://54.235.29.9/FacialAge/BNav_EC2/DepthDuration/v2_depth_duration_MTurk/v2_DepthDuration_HTML.html#4,4,1600,900,1600,900,9-3-2022,16-10-41,150,depth_duration_stimuli/003587_2014-05-23_16-48-02_094959634447_rgbf002384-resize_2/003587_2014-05-23_16-48-02_094959634447_rgbf002384-resize_2-target.png,250,1.357,65,4065,236,meters,jsons/v1_VE250_randls_18.json,1491325,1975689,24,Man
150,329190,DepthScenes,duration_manipulation_targetAtFixation,jsons/v1_VE250_randls_18.json,http://54.235.29.9/FacialAge/BNav_EC2/DepthDuration/v2_depth_duration_MTurk/v2_DepthDuration_HTML.html#4,4,1600,900,1600,900,9-3-2022,16-10-41,151,depth_duration_stimuli/001164_2014-06-17_15-35-46_260595134347_rgbf000085-resize_3/001164_2014-06-17_15-35-46_260595134347_rgbf000085-resize_3-target.png,250,2.354,50,7503,250,meters,jsons/v1_VE250_randls_18.json,1491325,1975689,24,Man
151,329190,DepthScenes,duration_manipulation_targetAtFixation,jsons/v1_VE250_randls_18.json,http://54.235.29.9/FacialAge/BNav_EC2/DepthDuration/v2_depth_duration_MTurk/v2_DepthDuration_HTML.html#4,4,1600,900,1600,900,9-3-2022,16-10-41,152,depth_duration_stimuli/001136_2014-06-17_15-19-41_260595134347_rgbf000076-resize_3/001136_2014-06-17_15-19-41_260595134347_rgbf000076-resize_3-target.png,250,1.8655,67,9763,251,meters,jsons/v1_VE250_randls_18.json,1491325,1975689,24,Man
152,329190,DepthScenes,duration_manipulation_targetAtFixation,jsons/v1_VE250_randls_18.json,http://54.235.29.9/FacialAge/BNav_EC2/DepthDuration/v2_depth_duration_MTurk/v2_DepthDuration_HTML.html#4,4,1600,900,1600,900,9-3-2022,16-10-41,153,depth_duration_stimuli/002039_2014-06-24_20-22-38_260595134347_rgbf000084-resize_1/002039_2014-06-24_20-22-38_260595134347_rgbf000084-resize_1-target.png,250,4.408,70,24342,251,meters,jsons/v1_VE250_randls_18.json,1491325,1975689,24,Man
153,329190,DepthScenes,duration_manipulation_targetAtFixation,jsons/v1_VE250_randls_18.json,http://54.235.29.9/FacialAge/BNav_EC2/DepthDuration/v2_depth_duration_MTurk/v2_DepthDuration_HTML.html#4,4,1600,900,1600,900,9-3-2022,16-10-41,154,depth_duration_stimuli/002103_2014-06-25_20-00-40_260595134347_rgbf000049-resize_0/002103_2014-06-25_20-00-40_260595134347_rgbf000049-resize_0-target.png,250,4.105,75,5223,254,meters,jsons/v1_VE250_randls_18.json,1491325,1975689,24,Man
154,329190,DepthScenes,duration_manipulation_targetAtFixation,jsons/v1_VE250_randls_18.json,http://54.235.29.9/FacialAge/BNav_EC2/DepthDuration/v2_depth_duration_MTurk/v2_DepthDuration_HTML.html#4,4,1600,900,1600,900,9-3-2022,16-10-41,155,depth_duration_stimuli/001011_2014-06-08_23-18-54_260595134347_rgbf000044-resize_4/001011_2014-06-08_23-18-54_260595134347_rgbf000044-resize_4-target.png,250,2.4730000000000003,60,6501,259,meters,jsons/v1_VE250_randls_18.json,1491325,1975689,24,Man
155,329190,DepthScenes,duration_manipulation_targetAtFixation,jsons/v1_VE250_randls_18.json,http://54.235.29.9/FacialAge/BNav_EC2/DepthDuration/v2_depth_duration_MTurk/v2_DepthDuration_HTML.html#4,4,1600,900,1600,900,9-3-2022,16-10-41,156,depth_duration_stimuli/002875_2014-06-01_15-19-00_094959634447_rgbf000151-resize_1/002875_2014-06-01_15-19-00_094959634447_rgbf000151-resize_1-target.png,250,1.9675,78,11766,249,meters,jsons/v1_VE250_randls_18.json,1491325,1975689,24,Man
156,329190,DepthScenes,duration_manipulation_targetAtFixation,jsons/v1_VE250_randls_18.json,http://54.235.29.9/FacialAge/BNav_EC2/DepthDuration/v2_depth_duration_MTurk/v2_DepthDuration_HTML.html#4,4,1600,900,1600,900,9-3-2022,16-10-41,157,depth_duration_stimuli/001150_2014-06-17_15-27-34_260595134347_rgbf000108-resize_2/001150_2014-06-17_15-27-34_260595134347_rgbf000108-resize_2-target.png,250,4.0325,65,7396,251,meters,jsons/v1_VE250_randls_18.json,1491325,1975689,24,Man
157,329190,DepthScenes,duration_manipulation_targetAtFixation,jsons/v1_VE250_randls_18.json,http://54.235.29.9/FacialAge/BNav_EC2/DepthDuration/v2_depth_duration_MTurk/v2_DepthDuration_HTML.html#4,4,1600,900,1600,900,9-3-2022,16-10-41,158,depth_duration_stimuli/000665_2014-06-09_20-42-35_260595134347_rgbf000110-resize_1/000665_2014-06-09_20-42-35_260595134347_rgbf000110-resize_1-target.png,250,3.057,75,4575,246,meters,jsons/v1_VE250_randls_18.json,1491325,1975689,24,Man
158,329190,DepthScenes,duration_manipulation_targetAtFixation,jsons/v1_VE250_randls_18.json,http://54.235.29.9/FacialAge/BNav_EC2/DepthDuration/v2_depth_duration_MTurk/v2_DepthDuration_HTML.html#4,4,1600,900,1600,900,9-3-2022,16-10-41,159,depth_duration_stimuli/002763_2014-06-22_19-13-10_094959634447_rgbf000075-resize_4/002763_2014-06-22_19-13-10_094959634447_rgbf000075-resize_4-target.png,250,1.68375,67,7119,250,meters,jsons/v1_VE250_randls_18.json,1491325,1975689,24,Man
159,329190,DepthScenes,duration_manipulation_targetAtFixation,jsons/v1_VE250_randls_18.json,http://54.235.29.9/FacialAge/BNav_EC2/DepthDuration/v2_depth_duration_MTurk/v2_DepthDuration_HTML.html#4,4,1600,900,1600,900,9-3-2022,16-10-41,160,depth_duration_stimuli/002209_2014-06-28_18-36-10_260595134347_rgbf000051-resize_1/002209_2014-06-28_18-36-10_260595134347_rgbf000051-resize_1-target.png,250,2.057,78,4665,259,meters,jsons/v1_VE250_randls_18.json,1491325,1975689,24,Man
160,329190,DepthScenes,duration_manipulation_targetAtFixation,jsons/v1_VE250_randls_18.json,http://54.235.29.9/FacialAge/BNav_EC2/DepthDuration/v2_depth_duration_MTurk/v2_DepthDuration_HTML.html#4,4,1600,900,1600,900,9-3-2022,16-10-41,161,depth_duration_stimuli/003292_2014-05-14_21-53-49_094959634447_rgbf000100-resize_2/003292_2014-05-14_21-53-49_094959634447_rgbf000100-resize_2-target.png,250,3.4815,58,6111,256,meters,jsons/v1_VE250_randls_18.json,1491325,1975689,24,Man
161,329190,DepthScenes,duration_manipulation_targetAtFixation,jsons/v1_VE250_randls_18.json,http://54.235.29.9/FacialAge/BNav_EC2/DepthDuration/v2_depth_duration_MTurk/v2_DepthDuration_HTML.html#4,4,1600,900,1600,900,9-3-2022,16-10-41,162,depth_duration_stimuli/002639_2014-06-24_14-51-37_094959634447_rgbf000074-resize_4/002639_2014-06-24_14-51-37_094959634447_rgbf000074-resize_4-target.png,250,4.0375,76,5830,247,meters,jsons/v1_VE250_randls_18.json,1491325,1975689,24,Man
162,329190,DepthScenes,duration_manipulation_targetAtFixation,jsons/v1_VE250_randls_18.json,http://54.235.29.9/FacialAge/BNav_EC2/DepthDuration/v2_depth_duration_MTurk/v2_DepthDuration_HTML.html#4,4,1600,900,1600,900,9-3-2022,16-10-41,163,depth_duration_stimuli/000470_2014-06-09_19-42-40_260595134347_rgbf000094-resize_1/000470_2014-06-09_19-42-40_260595134347_rgbf000094-resize_1-target.png,250,1.831,75,6055,250,meters,jsons/v1_VE250_randls_18.json,1491325,1975689,24,Man
163,329190,DepthScenes,duration_manipulation_targetAtFixation,jsons/v1_VE250_randls_18.json,http://54.235.29.9/FacialAge/BNav_EC2/DepthDuration/v2_depth_duration_MTurk/v2_DepthDuration_HTML.html#4,4,1600,900,1600,900,9-3-2022,16-10-41,164,depth_duration_stimuli/000109_2014-05-14_23-41-52_260595134347_rgbf000035-resize_9/000109_2014-05-14_23-41-52_260595134347_rgbf000035-resize_9-target.png,250,1.3545,75,17359,246,meters,jsons/v1_VE250_randls_18.json,1491325,1975689,24,Man
