,subjID,experimentName,versionName,sequenceName,url,selected_row,windowWidth,windowHeight,screenWidth,screenHeight,startDate,startTime,trial,stimulus,duration,actual_depth,depth_estimate,trial_RT,log_sceneDuration,unitSelection,seq_filepath,experimentTime,totalTime,age,gender
0,330501,DepthScenes,duration_manipulation_targetAtFixation,jsons/VE125_randls_58_rotated.json,http://54.235.29.9/FacialAge/BNav_EC2/DepthDuration/v2_depth_duration_MTurk/v2_DepthDuration_HTML.html#3,3,1280,881,1280,1024,9-18-2022,13-22-42,1,depth_duration_stimuli/000742_2014-06-08_18-48-09_260595134347_rgbf000164-resize_4/000742_2014-06-08_18-48-09_260595134347_rgbf000164-resize_4-target.png,125,4.632,2,11732,129,feet,jsons/VE125_randls_58_rotated.json,925962,1363529,47,Man
1,330501,DepthScenes,duration_manipulation_targetAtFixation,jsons/VE125_randls_58_rotated.json,http://54.235.29.9/FacialAge/BNav_EC2/DepthDuration/v2_depth_duration_MTurk/v2_DepthDuration_HTML.html#3,3,1280,881,1280,1024,9-18-2022,13-22-42,2,depth_duration_stimuli/001066_2014-06-08_22-03-20_260595134347_rgbf000066-resize_4/001066_2014-06-08_22-03-20_260595134347_rgbf000066-resize_4-target.png,125,4.2330000000000005,0,5578,127,feet,jsons/VE125_randls_58_rotated.json,925962,1363529,47,Man
2,330501,DepthScenes,duration_manipulation_targetAtFixation,jsons/VE125_randls_58_rotated.json,http://54.235.29.9/FacialAge/BNav_EC2/DepthDuration/v2_depth_duration_MTurk/v2_DepthDuration_HTML.html#3,3,1280,881,1280,1024,9-18-2022,13-22-42,3,depth_duration_stimuli/001392_2014-06-19_16-07-59_260595134347_rgbf000046-resize_1/001392_2014-06-19_16-07-59_260595134347_rgbf000046-resize_1-target.png,125,4.135,3,67060,175,feet,jsons/VE125_randls_58_rotated.json,925962,1363529,47,Man
3,330501,DepthScenes,duration_manipulation_targetAtFixation,jsons/VE125_randls_58_rotated.json,http://54.235.29.9/FacialAge/BNav_EC2/DepthDuration/v2_depth_duration_MTurk/v2_DepthDuration_HTML.html#3,3,1280,881,1280,1024,9-18-2022,13-22-42,4,depth_duration_stimuli/001570_2014-06-20_17-21-09_260595134347_rgbf000135-resize_4/001570_2014-06-20_17-21-09_260595134347_rgbf000135-resize_4-target.png,125,4.467,3,8278,130,feet,jsons/VE125_randls_58_rotated.json,925962,1363529,47,Man
4,330501,DepthScenes,duration_manipulation_targetAtFixation,jsons/VE125_randls_58_rotated.json,http://54.235.29.9/FacialAge/BNav_EC2/DepthDuration/v2_depth_duration_MTurk/v2_DepthDuration_HTML.html#3,3,1280,881,1280,1024,9-18-2022,13-22-42,5,depth_duration_stimuli/001815_2014-06-26_20-52-55_260595134347_rgbf000020-resize_0/001815_2014-06-26_20-52-55_260595134347_rgbf000020-resize_0-target.png,125,3.3865,4,12869,128,feet,jsons/VE125_randls_58_rotated.json,925962,1363529,47,Man
5,330501,DepthScenes,duration_manipulation_targetAtFixation,jsons/VE125_randls_58_rotated.json,http://54.235.29.9/FacialAge/BNav_EC2/DepthDuration/v2_depth_duration_MTurk/v2_DepthDuration_HTML.html#3,3,1280,881,1280,1024,9-18-2022,13-22-42,6,depth_duration_stimuli/001808_2014-06-26_20-50-58_260595134347_rgbf000029-resize_1/001808_2014-06-26_20-50-58_260595134347_rgbf000029-resize_1-target.png,125,4.249,4,8203,134,feet,jsons/VE125_randls_58_rotated.json,925962,1363529,47,Man
6,330501,DepthScenes,duration_manipulation_targetAtFixation,jsons/VE125_randls_58_rotated.json,http://54.235.29.9/FacialAge/BNav_EC2/DepthDuration/v2_depth_duration_MTurk/v2_DepthDuration_HTML.html#3,3,1280,881,1280,1024,9-18-2022,13-22-42,7,depth_duration_stimuli/002660_2014-06-13_15-44-18_094959634447_rgbf001878-resize_2/002660_2014-06-13_15-44-18_094959634447_rgbf001878-resize_2-target.png,125,3.576,3,6410,109,feet,jsons/VE125_randls_58_rotated.json,925962,1363529,47,Man
7,330501,DepthScenes,duration_manipulation_targetAtFixation,jsons/VE125_randls_58_rotated.json,http://54.235.29.9/FacialAge/BNav_EC2/DepthDuration/v2_depth_duration_MTurk/v2_DepthDuration_HTML.html#3,3,1280,881,1280,1024,9-18-2022,13-22-42,8,depth_duration_stimuli/002153_2014-06-25_21-27-18_260595134347_rgbf000038-resize_5/002153_2014-06-25_21-27-18_260595134347_rgbf000038-resize_5-target.png,125,2.505,2,10460,116,feet,jsons/VE125_randls_58_rotated.json,925962,1363529,47,Man
8,330501,DepthScenes,duration_manipulation_targetAtFixation,jsons/VE125_randls_58_rotated.json,http://54.235.29.9/FacialAge/BNav_EC2/DepthDuration/v2_depth_duration_MTurk/v2_DepthDuration_HTML.html#3,3,1280,881,1280,1024,9-18-2022,13-22-42,9,depth_duration_stimuli/000749_2014-06-08_21-55-06_260595134347_rgbf000070-resize_2/000749_2014-06-08_21-55-06_260595134347_rgbf000070-resize_2-target.png,125,2.331,2,4276,108,feet,jsons/VE125_randls_58_rotated.json,925962,1363529,47,Man
9,330501,DepthScenes,duration_manipulation_targetAtFixation,jsons/VE125_randls_58_rotated.json,http://54.235.29.9/FacialAge/BNav_EC2/DepthDuration/v2_depth_duration_MTurk/v2_DepthDuration_HTML.html#3,3,1280,881,1280,1024,9-18-2022,13-22-42,10,depth_duration_stimuli/002788_2014-06-22_19-36-03_094959634447_rgbf000088-resize_2/002788_2014-06-22_19-36-03_094959634447_rgbf000088-resize_2-target.png,125,1.6465,3,6653,107,feet,jsons/VE125_randls_58_rotated.json,925962,1363529,47,Man
10,330501,DepthScenes,duration_manipulation_targetAtFixation,jsons/VE125_randls_58_rotated.json,http://54.235.29.9/FacialAge/BNav_EC2/DepthDuration/v2_depth_duration_MTurk/v2_DepthDuration_HTML.html#3,3,1280,881,1280,1024,9-18-2022,13-22-42,11,depth_duration_stimuli/002323_2014-06-28_20-01-54_260595134347_rgbf000051-resize_4/002323_2014-06-28_20-01-54_260595134347_rgbf000051-resize_4-target.png,125,3.7310000000000003,4,4725,119,feet,jsons/VE125_randls_58_rotated.json,925962,1363529,47,Man
11,330501,DepthScenes,duration_manipulation_targetAtFixation,jsons/VE125_randls_58_rotated.json,http://54.235.29.9/FacialAge/BNav_EC2/DepthDuration/v2_depth_duration_MTurk/v2_DepthDuration_HTML.html#3,3,1280,881,1280,1024,9-18-2022,13-22-42,12,depth_duration_stimuli/000917_2014-06-09_22-45-29_260595134347_rgbf000149-resize_3/000917_2014-06-09_22-45-29_260595134347_rgbf000149-resize_3-target.png,125,4.1865,5,7816,117,feet,jsons/VE125_randls_58_rotated.json,925962,1363529,47,Man
12,330501,DepthScenes,duration_manipulation_targetAtFixation,jsons/VE125_randls_58_rotated.json,http://54.235.29.9/FacialAge/BNav_EC2/DepthDuration/v2_depth_duration_MTurk/v2_DepthDuration_HTML.html#3,3,1280,881,1280,1024,9-18-2022,13-22-42,13,depth_duration_stimuli/002136_2014-06-25_21-18-03_260595134347_rgbf000109-resize_3/002136_2014-06-25_21-18-03_260595134347_rgbf000109-resize_3-target.png,125,1.9569999999999999,2,8044,89,feet,jsons/VE125_randls_58_rotated.json,925962,1363529,47,Man
13,330501,DepthScenes,duration_manipulation_targetAtFixation,jsons/VE125_randls_58_rotated.json,http://54.235.29.9/FacialAge/BNav_EC2/DepthDuration/v2_depth_duration_MTurk/v2_DepthDuration_HTML.html#3,3,1280,881,1280,1024,9-18-2022,13-22-42,14,depth_duration_stimuli/002964_2014-06-08_17-46-11_094959634447_rgbf000091-resize_4/002964_2014-06-08_17-46-11_094959634447_rgbf000091-resize_4-target.png,125,1.6909999999999998,1,3965,124,feet,jsons/VE125_randls_58_rotated.json,925962,1363529,47,Man
14,330501,DepthScenes,duration_manipulation_targetAtFixation,jsons/VE125_randls_58_rotated.json,http://54.235.29.9/FacialAge/BNav_EC2/DepthDuration/v2_depth_duration_MTurk/v2_DepthDuration_HTML.html#3,3,1280,881,1280,1024,9-18-2022,13-22-42,15,depth_duration_stimuli/000635_2014-06-08_16-38-42_260595134347_rgbf000106-resize_1/000635_2014-06-08_16-38-42_260595134347_rgbf000106-resize_1-target.png,125,2.074,3,10582,109,feet,jsons/VE125_randls_58_rotated.json,925962,1363529,47,Man
15,330501,DepthScenes,duration_manipulation_targetAtFixation,jsons/VE125_randls_58_rotated.json,http://54.235.29.9/FacialAge/BNav_EC2/DepthDuration/v2_depth_duration_MTurk/v2_DepthDuration_HTML.html#3,3,1280,881,1280,1024,9-18-2022,13-22-42,16,depth_duration_stimuli/002279_2014-06-28_18-55-32_260595134347_rgbf000040-resize_5/002279_2014-06-28_18-55-32_260595134347_rgbf000040-resize_5-target.png,125,1.5043333333333,1,3898,130,feet,jsons/VE125_randls_58_rotated.json,925962,1363529,47,Man
16,330501,DepthScenes,duration_manipulation_targetAtFixation,jsons/VE125_randls_58_rotated.json,http://54.235.29.9/FacialAge/BNav_EC2/DepthDuration/v2_depth_duration_MTurk/v2_DepthDuration_HTML.html#3,3,1280,881,1280,1024,9-18-2022,13-22-42,17,depth_duration_stimuli/000709_2014-06-08_13-51-55_260595134347_rgbf000068-resize_3/000709_2014-06-08_13-51-55_260595134347_rgbf000068-resize_3-target.png,125,1.8030000000000002,2,8131,120,feet,jsons/VE125_randls_58_rotated.json,925962,1363529,47,Man
17,330501,DepthScenes,duration_manipulation_targetAtFixation,jsons/VE125_randls_58_rotated.json,http://54.235.29.9/FacialAge/BNav_EC2/DepthDuration/v2_depth_duration_MTurk/v2_DepthDuration_HTML.html#3,3,1280,881,1280,1024,9-18-2022,13-22-42,18,depth_duration_stimuli/002057_2014-06-24_21-00-13_260595134347_rgbf000120-resize_1/002057_2014-06-24_21-00-13_260595134347_rgbf000120-resize_1-target.png,125,2.967,5,12710,111,feet,jsons/VE125_randls_58_rotated.json,925962,1363529,47,Man
18,330501,DepthScenes,duration_manipulation_targetAtFixation,jsons/VE125_randls_58_rotated.json,http://54.235.29.9/FacialAge/BNav_EC2/DepthDuration/v2_depth_duration_MTurk/v2_DepthDuration_HTML.html#3,3,1280,881,1280,1024,9-18-2022,13-22-42,19,depth_duration_stimuli/001498_2014-06-19_17-45-14_260595134347_rgbf000129-resize_4/001498_2014-06-19_17-45-14_260595134347_rgbf000129-resize-original.jpg,125,1.4075,0,13966,126,feet,jsons/VE125_randls_58_rotated.json,925962,1363529,47,Man
19,330501,DepthScenes,duration_manipulation_targetAtFixation,jsons/VE125_randls_58_rotated.json,http://54.235.29.9/FacialAge/BNav_EC2/DepthDuration/v2_depth_duration_MTurk/v2_DepthDuration_HTML.html#3,3,1280,881,1280,1024,9-18-2022,13-22-42,20,depth_duration_stimuli/002875_2014-06-01_15-19-00_094959634447_rgbf000151-resize_1/002875_2014-06-01_15-19-00_094959634447_rgbf000151-resize_1-target.png,125,1.9675,2,5705,122,feet,jsons/VE125_randls_58_rotated.json,925962,1363529,47,Man
20,330501,DepthScenes,duration_manipulation_targetAtFixation,jsons/VE125_randls_58_rotated.json,http://54.235.29.9/FacialAge/BNav_EC2/DepthDuration/v2_depth_duration_MTurk/v2_DepthDuration_HTML.html#3,3,1280,881,1280,1024,9-18-2022,13-22-42,21,depth_duration_stimuli/001011_2014-06-08_23-18-54_260595134347_rgbf000044-resize_4/001011_2014-06-08_23-18-54_260595134347_rgbf000044-resize_4-target.png,125,2.4730000000000003,5,5365,116,feet,jsons/VE125_randls_58_rotated.json,925962,1363529,47,Man
21,330501,DepthScenes,duration_manipulation_targetAtFixation,jsons/VE125_randls_58_rotated.json,http://54.235.29.9/FacialAge/BNav_EC2/DepthDuration/v2_depth_duration_MTurk/v2_DepthDuration_HTML.html#3,3,1280,881,1280,1024,9-18-2022,13-22-42,22,depth_duration_stimuli/000866_2014-06-09_20-45-42_260595134347_rgbf000139-resize_1/000866_2014-06-09_20-45-42_260595134347_rgbf000139-resize_1-target.png,125,3.2155,2,7457,103,feet,jsons/VE125_randls_58_rotated.json,925962,1363529,47,Man
22,330501,DepthScenes,duration_manipulation_targetAtFixation,jsons/VE125_randls_58_rotated.json,http://54.235.29.9/FacialAge/BNav_EC2/DepthDuration/v2_depth_duration_MTurk/v2_DepthDuration_HTML.html#3,3,1280,881,1280,1024,9-18-2022,13-22-42,23,depth_duration_stimuli/002989_2014-06-15_12-25-03_094959634447_rgbf000150-resize_3/002989_2014-06-15_12-25-03_094959634447_rgbf000150-resize_3-target.png,125,4.1975,6,6088,140,feet,jsons/VE125_randls_58_rotated.json,925962,1363529,47,Man
23,330501,DepthScenes,duration_manipulation_targetAtFixation,jsons/VE125_randls_58_rotated.json,http://54.235.29.9/FacialAge/BNav_EC2/DepthDuration/v2_depth_duration_MTurk/v2_DepthDuration_HTML.html#3,3,1280,881,1280,1024,9-18-2022,13-22-42,24,depth_duration_stimuli/000109_2014-05-14_23-41-52_260595134347_rgbf000035-resize_9/000109_2014-05-14_23-41-52_260595134347_rgbf000035-resize_9-target.png,125,1.3545,2,4096,121,feet,jsons/VE125_randls_58_rotated.json,925962,1363529,47,Man
24,330501,DepthScenes,duration_manipulation_targetAtFixation,jsons/VE125_randls_58_rotated.json,http://54.235.29.9/FacialAge/BNav_EC2/DepthDuration/v2_depth_duration_MTurk/v2_DepthDuration_HTML.html#3,3,1280,881,1280,1024,9-18-2022,13-22-42,25,depth_duration_stimuli/000470_2014-06-09_19-42-40_260595134347_rgbf000094-resize_1/000470_2014-06-09_19-42-40_260595134347_rgbf000094-resize_1-target.png,125,1.831,2,2938,135,feet,jsons/VE125_randls_58_rotated.json,925962,1363529,47,Man
25,330501,DepthScenes,duration_manipulation_targetAtFixation,jsons/VE125_randls_58_rotated.json,http://54.235.29.9/FacialAge/BNav_EC2/DepthDuration/v2_depth_duration_MTurk/v2_DepthDuration_HTML.html#3,3,1280,881,1280,1024,9-18-2022,13-22-42,26,depth_duration_stimuli/003587_2014-05-23_16-48-02_094959634447_rgbf002384-resize_2/003587_2014-05-23_16-48-02_094959634447_rgbf002384-resize_2-target.png,125,1.357,1,3225,121,feet,jsons/VE125_randls_58_rotated.json,925962,1363529,47,Man
26,330501,DepthScenes,duration_manipulation_targetAtFixation,jsons/VE125_randls_58_rotated.json,http://54.235.29.9/FacialAge/BNav_EC2/DepthDuration/v2_depth_duration_MTurk/v2_DepthDuration_HTML.html#3,3,1280,881,1280,1024,9-18-2022,13-22-42,27,depth_duration_stimuli/001167_2014-06-17_15-38-07_260595134347_rgbf000108-resize_0/001167_2014-06-17_15-38-07_260595134347_rgbf000108-resize_0-target.png,125,1.8505,1,3015,68,feet,jsons/VE125_randls_58_rotated.json,925962,1363529,47,Man
27,330501,DepthScenes,duration_manipulation_targetAtFixation,jsons/VE125_randls_58_rotated.json,http://54.235.29.9/FacialAge/BNav_EC2/DepthDuration/v2_depth_duration_MTurk/v2_DepthDuration_HTML.html#3,3,1280,881,1280,1024,9-18-2022,13-22-42,28,depth_duration_stimuli/002103_2014-06-25_20-00-40_260595134347_rgbf000049-resize_0/002103_2014-06-25_20-00-40_260595134347_rgbf000049-resize_0-target.png,125,4.105,2,4244,147,feet,jsons/VE125_randls_58_rotated.json,925962,1363529,47,Man
28,330501,DepthScenes,duration_manipulation_targetAtFixation,jsons/VE125_randls_58_rotated.json,http://54.235.29.9/FacialAge/BNav_EC2/DepthDuration/v2_depth_duration_MTurk/v2_DepthDuration_HTML.html#3,3,1280,881,1280,1024,9-18-2022,13-22-42,29,depth_duration_stimuli/002039_2014-06-24_20-22-38_260595134347_rgbf000084-resize_1/002039_2014-06-24_20-22-38_260595134347_rgbf000084-resize_1-target.png,125,4.408,5,5897,177,feet,jsons/VE125_randls_58_rotated.json,925962,1363529,47,Man
29,330501,DepthScenes,duration_manipulation_targetAtFixation,jsons/VE125_randls_58_rotated.json,http://54.235.29.9/FacialAge/BNav_EC2/DepthDuration/v2_depth_duration_MTurk/v2_DepthDuration_HTML.html#3,3,1280,881,1280,1024,9-18-2022,13-22-42,30,depth_duration_stimuli/002072_2014-06-24_21-48-06_260595134347_rgbf000115-resize_0/002072_2014-06-24_21-48-06_260595134347_rgbf000115-resize-original.jpg,125,4.702,0,3166,137,feet,jsons/VE125_randls_58_rotated.json,925962,1363529,47,Man
30,330501,DepthScenes,duration_manipulation_targetAtFixation,jsons/VE125_randls_58_rotated.json,http://54.235.29.9/FacialAge/BNav_EC2/DepthDuration/v2_depth_duration_MTurk/v2_DepthDuration_HTML.html#3,3,1280,881,1280,1024,9-18-2022,13-22-42,31,depth_duration_stimuli/003129_2014-05-12_10-48-10_094959634447_rgbf000100-resize_0/003129_2014-05-12_10-48-10_094959634447_rgbf000100-resize_0-target.png,125,4.9305,6,4980,234,feet,jsons/VE125_randls_58_rotated.json,925962,1363529,47,Man
31,330501,DepthScenes,duration_manipulation_targetAtFixation,jsons/VE125_randls_58_rotated.json,http://54.235.29.9/FacialAge/BNav_EC2/DepthDuration/v2_depth_duration_MTurk/v2_DepthDuration_HTML.html#3,3,1280,881,1280,1024,9-18-2022,13-22-42,32,depth_duration_stimuli/000414_2014-06-04_19-49-13_260595134347_rgbf000044-resize_0/000414_2014-06-04_19-49-13_260595134347_rgbf000044-resize_0-target.png,125,4.329,6,5596,130,feet,jsons/VE125_randls_58_rotated.json,925962,1363529,47,Man
32,330501,DepthScenes,duration_manipulation_targetAtFixation,jsons/VE125_randls_58_rotated.json,http://54.235.29.9/FacialAge/BNav_EC2/DepthDuration/v2_depth_duration_MTurk/v2_DepthDuration_HTML.html#3,3,1280,881,1280,1024,9-18-2022,13-22-42,33,depth_duration_stimuli/002637_2014-06-24_14-51-13_094959634447_rgbf000066-resize_4/002637_2014-06-24_14-51-13_094959634447_rgbf000066-resize_4-target.png,125,1.9955,3,3930,124,feet,jsons/VE125_randls_58_rotated.json,925962,1363529,47,Man
33,330501,DepthScenes,duration_manipulation_targetAtFixation,jsons/VE125_randls_58_rotated.json,http://54.235.29.9/FacialAge/BNav_EC2/DepthDuration/v2_depth_duration_MTurk/v2_DepthDuration_HTML.html#3,3,1280,881,1280,1024,9-18-2022,13-22-42,34,depth_duration_stimuli/003534_2014-05-22_15-06-10_094959634447_rgbf000102-resize_4/003534_2014-05-22_15-06-10_094959634447_rgbf000102-resize_4-target.png,125,1.426,1,3167,114,feet,jsons/VE125_randls_58_rotated.json,925962,1363529,47,Man
34,330501,DepthScenes,duration_manipulation_targetAtFixation,jsons/VE125_randls_58_rotated.json,http://54.235.29.9/FacialAge/BNav_EC2/DepthDuration/v2_depth_duration_MTurk/v2_DepthDuration_HTML.html#3,3,1280,881,1280,1024,9-18-2022,13-22-42,35,depth_duration_stimuli/002953_2014-06-08_17-32-18_094959634447_rgbf000059-resize_5/002953_2014-06-08_17-32-18_094959634447_rgbf000059-resize_5-target.png,125,1.551,1,2993,119,feet,jsons/VE125_randls_58_rotated.json,925962,1363529,47,Man
35,330501,DepthScenes,duration_manipulation_targetAtFixation,jsons/VE125_randls_58_rotated.json,http://54.235.29.9/FacialAge/BNav_EC2/DepthDuration/v2_depth_duration_MTurk/v2_DepthDuration_HTML.html#3,3,1280,881,1280,1024,9-18-2022,13-22-42,36,depth_duration_stimuli/000878_2014-06-08_22-52-45_260595134347_rgbf000045-resize_2/000878_2014-06-08_22-52-45_260595134347_rgbf000045-resize_2-target.png,125,2.092,3,5099,119,feet,jsons/VE125_randls_58_rotated.json,925962,1363529,47,Man
36,330501,DepthScenes,duration_manipulation_targetAtFixation,jsons/VE125_randls_58_rotated.json,http://54.235.29.9/FacialAge/BNav_EC2/DepthDuration/v2_depth_duration_MTurk/v2_DepthDuration_HTML.html#3,3,1280,881,1280,1024,9-18-2022,13-22-42,37,depth_duration_stimuli/002750_2014-06-22_19-08-03_094959634447_rgbf000094-resize_4/002750_2014-06-22_19-08-03_094959634447_rgbf000094-resize_4-target.png,125,2.354,5,5152,136,feet,jsons/VE125_randls_58_rotated.json,925962,1363529,47,Man
37,330501,DepthScenes,duration_manipulation_targetAtFixation,jsons/VE125_randls_58_rotated.json,http://54.235.29.9/FacialAge/BNav_EC2/DepthDuration/v2_depth_duration_MTurk/v2_DepthDuration_HTML.html#3,3,1280,881,1280,1024,9-18-2022,13-22-42,38,depth_duration_stimuli/002549_2014-06-24_13-41-39_094959634447_rgbf000022-resize_3/002549_2014-06-24_13-41-39_094959634447_rgbf000022-resize_3-target.png,125,1.476,2,4348,143,feet,jsons/VE125_randls_58_rotated.json,925962,1363529,47,Man
38,330501,DepthScenes,duration_manipulation_targetAtFixation,jsons/VE125_randls_58_rotated.json,http://54.235.29.9/FacialAge/BNav_EC2/DepthDuration/v2_depth_duration_MTurk/v2_DepthDuration_HTML.html#3,3,1280,881,1280,1024,9-18-2022,13-22-42,39,depth_duration_stimuli/003010_2014-06-15_12-54-35_094959634447_rgbf000112-resize_0/003010_2014-06-15_12-54-35_094959634447_rgbf000112-resize_0-target.png,125,3.1185,5,5229,205,feet,jsons/VE125_randls_58_rotated.json,925962,1363529,47,Man
39,330501,DepthScenes,duration_manipulation_targetAtFixation,jsons/VE125_randls_58_rotated.json,http://54.235.29.9/FacialAge/BNav_EC2/DepthDuration/v2_depth_duration_MTurk/v2_DepthDuration_HTML.html#3,3,1280,881,1280,1024,9-18-2022,13-22-42,40,depth_duration_stimuli/001810_2014-06-26_20-51-35_260595134347_rgbf000040-resize_3/001810_2014-06-26_20-51-35_260595134347_rgbf000040-resize_3-target.png,125,2.2525,2,3693,128,feet,jsons/VE125_randls_58_rotated.json,925962,1363529,47,Man
40,330501,DepthScenes,duration_manipulation_targetAtFixation,jsons/VE125_randls_58_rotated.json,http://54.235.29.9/FacialAge/BNav_EC2/DepthDuration/v2_depth_duration_MTurk/v2_DepthDuration_HTML.html#3,3,1280,881,1280,1024,9-18-2022,13-22-42,41,depth_duration_stimuli/000927_2014-06-09_16-32-30_260595134347_rgbf000123-resize_3/000927_2014-06-09_16-32-30_260595134347_rgbf000123-resize_3-target.png,125,2.6785,5,4513,124,feet,jsons/VE125_randls_58_rotated.json,925962,1363529,47,Man
41,330501,DepthScenes,duration_manipulation_targetAtFixation,jsons/VE125_randls_58_rotated.json,http://54.235.29.9/FacialAge/BNav_EC2/DepthDuration/v2_depth_duration_MTurk/v2_DepthDuration_HTML.html#3,3,1280,881,1280,1024,9-18-2022,13-22-42,42,depth_duration_stimuli/001110_2014-06-15_17-25-28_260595134347_rgbf000150-resize_1/001110_2014-06-15_17-25-28_260595134347_rgbf000150-resize_1-target.png,125,1.7115,2,4150,149,feet,jsons/VE125_randls_58_rotated.json,925962,1363529,47,Man
42,330501,DepthScenes,duration_manipulation_targetAtFixation,jsons/VE125_randls_58_rotated.json,http://54.235.29.9/FacialAge/BNav_EC2/DepthDuration/v2_depth_duration_MTurk/v2_DepthDuration_HTML.html#3,3,1280,881,1280,1024,9-18-2022,13-22-42,43,depth_duration_stimuli/000137_2014-05-20_17-04-49_260595134347_rgbf000120-resize_1/000137_2014-05-20_17-04-49_260595134347_rgbf000120-resize_1-target.png,125,3.786,2,6458,130,feet,jsons/VE125_randls_58_rotated.json,925962,1363529,47,Man
43,330501,DepthScenes,duration_manipulation_targetAtFixation,jsons/VE125_randls_58_rotated.json,http://54.235.29.9/FacialAge/BNav_EC2/DepthDuration/v2_depth_duration_MTurk/v2_DepthDuration_HTML.html#3,3,1280,881,1280,1024,9-18-2022,13-22-42,44,depth_duration_stimuli/000736_2014-06-08_18-24-15_260595134347_rgbf000206-resize_3/000736_2014-06-08_18-24-15_260595134347_rgbf000206-resize_3-target.png,125,3.515,4,4320,147,feet,jsons/VE125_randls_58_rotated.json,925962,1363529,47,Man
44,330501,DepthScenes,duration_manipulation_targetAtFixation,jsons/VE125_randls_58_rotated.json,http://54.235.29.9/FacialAge/BNav_EC2/DepthDuration/v2_depth_duration_MTurk/v2_DepthDuration_HTML.html#3,3,1280,881,1280,1024,9-18-2022,13-22-42,45,depth_duration_stimuli/001136_2014-06-17_15-19-41_260595134347_rgbf000076-resize_3/001136_2014-06-17_15-19-41_260595134347_rgbf000076-resize_3-target.png,125,1.8655,3,3990,153,feet,jsons/VE125_randls_58_rotated.json,925962,1363529,47,Man
45,330501,DepthScenes,duration_manipulation_targetAtFixation,jsons/VE125_randls_58_rotated.json,http://54.235.29.9/FacialAge/BNav_EC2/DepthDuration/v2_depth_duration_MTurk/v2_DepthDuration_HTML.html#3,3,1280,881,1280,1024,9-18-2022,13-22-42,46,depth_duration_stimuli/001164_2014-06-17_15-35-46_260595134347_rgbf000085-resize_3/001164_2014-06-17_15-35-46_260595134347_rgbf000085-resize_3-target.png,125,2.354,3,3489,130,feet,jsons/VE125_randls_58_rotated.json,925962,1363529,47,Man
46,330501,DepthScenes,duration_manipulation_targetAtFixation,jsons/VE125_randls_58_rotated.json,http://54.235.29.9/FacialAge/BNav_EC2/DepthDuration/v2_depth_duration_MTurk/v2_DepthDuration_HTML.html#3,3,1280,881,1280,1024,9-18-2022,13-22-42,47,depth_duration_stimuli/002639_2014-06-24_14-51-37_094959634447_rgbf000074-resize_4/002639_2014-06-24_14-51-37_094959634447_rgbf000074-resize_4-target.png,125,4.0375,6,5104,168,feet,jsons/VE125_randls_58_rotated.json,925962,1363529,47,Man
47,330501,DepthScenes,duration_manipulation_targetAtFixation,jsons/VE125_randls_58_rotated.json,http://54.235.29.9/FacialAge/BNav_EC2/DepthDuration/v2_depth_duration_MTurk/v2_DepthDuration_HTML.html#3,3,1280,881,1280,1024,9-18-2022,13-22-42,48,depth_duration_stimuli/003292_2014-05-14_21-53-49_094959634447_rgbf000100-resize_2/003292_2014-05-14_21-53-49_094959634447_rgbf000100-resize_2-target.png,125,3.4815,4,3370,111,feet,jsons/VE125_randls_58_rotated.json,925962,1363529,47,Man
48,330501,DepthScenes,duration_manipulation_targetAtFixation,jsons/VE125_randls_58_rotated.json,http://54.235.29.9/FacialAge/BNav_EC2/DepthDuration/v2_depth_duration_MTurk/v2_DepthDuration_HTML.html#3,3,1280,881,1280,1024,9-18-2022,13-22-42,49,depth_duration_stimuli/001170_2014-06-17_15-43-44_260595134347_rgbf000096-resize_6/001170_2014-06-17_15-43-44_260595134347_rgbf000096-resize-original.jpg,125,1.1909999999999998,0,3987,121,feet,jsons/VE125_randls_58_rotated.json,925962,1363529,47,Man
49,330501,DepthScenes,duration_manipulation_targetAtFixation,jsons/VE125_randls_58_rotated.json,http://54.235.29.9/FacialAge/BNav_EC2/DepthDuration/v2_depth_duration_MTurk/v2_DepthDuration_HTML.html#3,3,1280,881,1280,1024,9-18-2022,13-22-42,50,depth_duration_stimuli/000409_2014-06-04_19-23-33_260595134347_rgbf000067-resize_0/000409_2014-06-04_19-23-33_260595134347_rgbf000067-resize_0-target.png,125,3.7335,3,6229,116,feet,jsons/VE125_randls_58_rotated.json,925962,1363529,47,Man
50,330501,DepthScenes,duration_manipulation_targetAtFixation,jsons/VE125_randls_58_rotated.json,http://54.235.29.9/FacialAge/BNav_EC2/DepthDuration/v2_depth_duration_MTurk/v2_DepthDuration_HTML.html#3,3,1280,881,1280,1024,9-18-2022,13-22-42,51,depth_duration_stimuli/002663_2014-06-13_15-50-26_094959634447_rgbf000075-resize_1/002663_2014-06-13_15-50-26_094959634447_rgbf000075-resize_1-target.png,125,4.7495,6,5320,125,feet,jsons/VE125_randls_58_rotated.json,925962,1363529,47,Man
51,330501,DepthScenes,duration_manipulation_targetAtFixation,jsons/VE125_randls_58_rotated.json,http://54.235.29.9/FacialAge/BNav_EC2/DepthDuration/v2_depth_duration_MTurk/v2_DepthDuration_HTML.html#3,3,1280,881,1280,1024,9-18-2022,13-22-42,52,depth_duration_stimuli/000556_2014-06-09_22-42-56_260595134347_rgbf000214-resize_1/000556_2014-06-09_22-42-56_260595134347_rgbf000214-resize_1-target.png,125,4.8415,6,4442,156,feet,jsons/VE125_randls_58_rotated.json,925962,1363529,47,Man
52,330501,DepthScenes,duration_manipulation_targetAtFixation,jsons/VE125_randls_58_rotated.json,http://54.235.29.9/FacialAge/BNav_EC2/DepthDuration/v2_depth_duration_MTurk/v2_DepthDuration_HTML.html#3,3,1280,881,1280,1024,9-18-2022,13-22-42,53,depth_duration_stimuli/001158_2014-06-17_15-32-16_260595134347_rgbf000138-resize_2/001158_2014-06-17_15-32-16_260595134347_rgbf000138-resize_2-target.png,125,4.5315,5,5240,131,feet,jsons/VE125_randls_58_rotated.json,925962,1363529,47,Man
53,330501,DepthScenes,duration_manipulation_targetAtFixation,jsons/VE125_randls_58_rotated.json,http://54.235.29.9/FacialAge/BNav_EC2/DepthDuration/v2_depth_duration_MTurk/v2_DepthDuration_HTML.html#3,3,1280,881,1280,1024,9-18-2022,13-22-42,54,depth_duration_stimuli/001032_2014-06-08_13-23-17_260595134347_rgbf000021-resize_3/001032_2014-06-08_13-23-17_260595134347_rgbf000021-resize_3-target.png,125,3.2725,3,3749,179,feet,jsons/VE125_randls_58_rotated.json,925962,1363529,47,Man
54,330501,DepthScenes,duration_manipulation_targetAtFixation,jsons/VE125_randls_58_rotated.json,http://54.235.29.9/FacialAge/BNav_EC2/DepthDuration/v2_depth_duration_MTurk/v2_DepthDuration_HTML.html#3,3,1280,881,1280,1024,9-18-2022,13-22-42,55,depth_duration_stimuli/001059_2014-06-08_21-53-27_260595134347_rgbf000061-resize_4/001059_2014-06-08_21-53-27_260595134347_rgbf000061-resize_4-target.png,125,2.4185,0,3306,112,feet,jsons/VE125_randls_58_rotated.json,925962,1363529,47,Man
55,330501,DepthScenes,duration_manipulation_targetAtFixation,jsons/VE125_randls_58_rotated.json,http://54.235.29.9/FacialAge/BNav_EC2/DepthDuration/v2_depth_duration_MTurk/v2_DepthDuration_HTML.html#3,3,1280,881,1280,1024,9-18-2022,13-22-42,56,depth_duration_stimuli/002209_2014-06-28_18-36-10_260595134347_rgbf000051-resize_1/002209_2014-06-28_18-36-10_260595134347_rgbf000051-resize_1-target.png,125,2.057,2,4180,186,feet,jsons/VE125_randls_58_rotated.json,925962,1363529,47,Man
56,330501,DepthScenes,duration_manipulation_targetAtFixation,jsons/VE125_randls_58_rotated.json,http://54.235.29.9/FacialAge/BNav_EC2/DepthDuration/v2_depth_duration_MTurk/v2_DepthDuration_HTML.html#3,3,1280,881,1280,1024,9-18-2022,13-22-42,57,depth_duration_stimuli/002763_2014-06-22_19-13-10_094959634447_rgbf000075-resize_4/002763_2014-06-22_19-13-10_094959634447_rgbf000075-resize_4-target.png,125,1.68375,4,4422,120,feet,jsons/VE125_randls_58_rotated.json,925962,1363529,47,Man
57,330501,DepthScenes,duration_manipulation_targetAtFixation,jsons/VE125_randls_58_rotated.json,http://54.235.29.9/FacialAge/BNav_EC2/DepthDuration/v2_depth_duration_MTurk/v2_DepthDuration_HTML.html#3,3,1280,881,1280,1024,9-18-2022,13-22-42,58,depth_duration_stimuli/000549_2014-06-08_22-10-24_260595134347_rgbf000247-resize_3/000549_2014-06-08_22-10-24_260595134347_rgbf000247-resize_3-target.png,125,1.841,1,2699,142,feet,jsons/VE125_randls_58_rotated.json,925962,1363529,47,Man
58,330501,DepthScenes,duration_manipulation_targetAtFixation,jsons/VE125_randls_58_rotated.json,http://54.235.29.9/FacialAge/BNav_EC2/DepthDuration/v2_depth_duration_MTurk/v2_DepthDuration_HTML.html#3,3,1280,881,1280,1024,9-18-2022,13-22-42,59,depth_duration_stimuli/001055_2014-06-08_18-45-35_260595134347_rgbf000111-resize_4/001055_2014-06-08_18-45-35_260595134347_rgbf000111-resize_4-target.png,125,2.4290000000000003,5,3004,110,feet,jsons/VE125_randls_58_rotated.json,925962,1363529,47,Man
59,330501,DepthScenes,duration_manipulation_targetAtFixation,jsons/VE125_randls_58_rotated.json,http://54.235.29.9/FacialAge/BNav_EC2/DepthDuration/v2_depth_duration_MTurk/v2_DepthDuration_HTML.html#3,3,1280,881,1280,1024,9-18-2022,13-22-42,60,depth_duration_stimuli/002758_2014-06-22_19-11-20_094959634447_rgbf000128-resize_1/002758_2014-06-22_19-11-20_094959634447_rgbf000128-resize_1-target.png,125,2.555,4,2871,127,feet,jsons/VE125_randls_58_rotated.json,925962,1363529,47,Man
60,330501,DepthScenes,duration_manipulation_targetAtFixation,jsons/VE125_randls_58_rotated.json,http://54.235.29.9/FacialAge/BNav_EC2/DepthDuration/v2_depth_duration_MTurk/v2_DepthDuration_HTML.html#3,3,1280,881,1280,1024,9-18-2022,13-22-42,61,depth_duration_stimuli/002630_2014-06-24_14-47-50_094959634447_rgbf000055-resize_1/002630_2014-06-24_14-47-50_094959634447_rgbf000055-resize_1-target.png,125,3.0095,6,3647,262,feet,jsons/VE125_randls_58_rotated.json,925962,1363529,47,Man
61,330501,DepthScenes,duration_manipulation_targetAtFixation,jsons/VE125_randls_58_rotated.json,http://54.235.29.9/FacialAge/BNav_EC2/DepthDuration/v2_depth_duration_MTurk/v2_DepthDuration_HTML.html#3,3,1280,881,1280,1024,9-18-2022,13-22-42,62,depth_duration_stimuli/001828_2014-06-26_21-40-03_260595134347_rgbf000024-resize_0/001828_2014-06-26_21-40-03_260595134347_rgbf000024-resize_0-target.png,125,4.8260000000000005,5,2953,130,feet,jsons/VE125_randls_58_rotated.json,925962,1363529,47,Man
62,330501,DepthScenes,duration_manipulation_targetAtFixation,jsons/VE125_randls_58_rotated.json,http://54.235.29.9/FacialAge/BNav_EC2/DepthDuration/v2_depth_duration_MTurk/v2_DepthDuration_HTML.html#3,3,1280,881,1280,1024,9-18-2022,13-22-42,63,depth_duration_stimuli/000009_2014-05-26_14-32-05_260595134347_rgbf000034-resize_3/000009_2014-05-26_14-32-05_260595134347_rgbf000034-resize_3-target.png,125,3.8715,7,3633,137,feet,jsons/VE125_randls_58_rotated.json,925962,1363529,47,Man
63,330501,DepthScenes,duration_manipulation_targetAtFixation,jsons/VE125_randls_58_rotated.json,http://54.235.29.9/FacialAge/BNav_EC2/DepthDuration/v2_depth_duration_MTurk/v2_DepthDuration_HTML.html#3,3,1280,881,1280,1024,9-18-2022,13-22-42,64,depth_duration_stimuli/003079_2014-06-15_15-18-20_094959634447_rgbf000152-resize_8/003079_2014-06-15_15-18-20_094959634447_rgbf000152-resize_8-target.png,125,2.8775,8,6971,127,feet,jsons/VE125_randls_58_rotated.json,925962,1363529,47,Man
64,330501,DepthScenes,duration_manipulation_targetAtFixation,jsons/VE125_randls_58_rotated.json,http://54.235.29.9/FacialAge/BNav_EC2/DepthDuration/v2_depth_duration_MTurk/v2_DepthDuration_HTML.html#3,3,1280,881,1280,1024,9-18-2022,13-22-42,65,depth_duration_stimuli/000506_2014-06-08_23-21-00_260595134347_rgbf000070-resize_7/000506_2014-06-08_23-21-00_260595134347_rgbf000070-resize_7-target.png,125,4.0585,5,3788,115,feet,jsons/VE125_randls_58_rotated.json,925962,1363529,47,Man
65,330501,DepthScenes,duration_manipulation_targetAtFixation,jsons/VE125_randls_58_rotated.json,http://54.235.29.9/FacialAge/BNav_EC2/DepthDuration/v2_depth_duration_MTurk/v2_DepthDuration_HTML.html#3,3,1280,881,1280,1024,9-18-2022,13-22-42,66,depth_duration_stimuli/001540_2014-06-20_17-01-05_260595134347_rgbf000086-resize_2/001540_2014-06-20_17-01-05_260595134347_rgbf000086-resize-original.jpg,125,1.459,0,6553,137,feet,jsons/VE125_randls_58_rotated.json,925962,1363529,47,Man
66,330501,DepthScenes,duration_manipulation_targetAtFixation,jsons/VE125_randls_58_rotated.json,http://54.235.29.9/FacialAge/BNav_EC2/DepthDuration/v2_depth_duration_MTurk/v2_DepthDuration_HTML.html#3,3,1280,881,1280,1024,9-18-2022,13-22-42,67,depth_duration_stimuli/003423_2014-05-21_10-23-26_094959634447_rgbf002665-resize_2/003423_2014-05-21_10-23-26_094959634447_rgbf002665-resize_2-target.png,125,3.2575,5,3626,121,feet,jsons/VE125_randls_58_rotated.json,925962,1363529,47,Man
67,330501,DepthScenes,duration_manipulation_targetAtFixation,jsons/VE125_randls_58_rotated.json,http://54.235.29.9/FacialAge/BNav_EC2/DepthDuration/v2_depth_duration_MTurk/v2_DepthDuration_HTML.html#3,3,1280,881,1280,1024,9-18-2022,13-22-42,68,depth_duration_stimuli/002905_2014-06-03_18-04-43_094959634447_rgbf000151-resize_2/002905_2014-06-03_18-04-43_094959634447_rgbf000151-resize_2-target.png,125,2.0295,4,5096,159,feet,jsons/VE125_randls_58_rotated.json,925962,1363529,47,Man
68,330501,DepthScenes,duration_manipulation_targetAtFixation,jsons/VE125_randls_58_rotated.json,http://54.235.29.9/FacialAge/BNav_EC2/DepthDuration/v2_depth_duration_MTurk/v2_DepthDuration_HTML.html#3,3,1280,881,1280,1024,9-18-2022,13-22-42,69,depth_duration_stimuli/000854_2014-06-09_19-43-13_260595134347_rgbf000066-resize_0/000854_2014-06-09_19-43-13_260595134347_rgbf000066-resize_0-target.png,125,3.068,4,4176,151,feet,jsons/VE125_randls_58_rotated.json,925962,1363529,47,Man
69,330501,DepthScenes,duration_manipulation_targetAtFixation,jsons/VE125_randls_58_rotated.json,http://54.235.29.9/FacialAge/BNav_EC2/DepthDuration/v2_depth_duration_MTurk/v2_DepthDuration_HTML.html#3,3,1280,881,1280,1024,9-18-2022,13-22-42,70,depth_duration_stimuli/000758_2014-06-08_22-05-08_260595134347_rgbf000085-resize_0/000758_2014-06-08_22-05-08_260595134347_rgbf000085-resize_0-target.png,125,3.3810000000000002,0,2862,169,feet,jsons/VE125_randls_58_rotated.json,925962,1363529,47,Man
70,330501,DepthScenes,duration_manipulation_targetAtFixation,jsons/VE125_randls_58_rotated.json,http://54.235.29.9/FacialAge/BNav_EC2/DepthDuration/v2_depth_duration_MTurk/v2_DepthDuration_HTML.html#3,3,1280,881,1280,1024,9-18-2022,13-22-42,71,depth_duration_stimuli/000502_2014-06-08_23-02-32_260595134347_rgbf000063-resize_4/000502_2014-06-08_23-02-32_260595134347_rgbf000063-resize_4-target.png,125,2.431,3,3717,132,feet,jsons/VE125_randls_58_rotated.json,925962,1363529,47,Man
71,330501,DepthScenes,duration_manipulation_targetAtFixation,jsons/VE125_randls_58_rotated.json,http://54.235.29.9/FacialAge/BNav_EC2/DepthDuration/v2_depth_duration_MTurk/v2_DepthDuration_HTML.html#3,3,1280,881,1280,1024,9-18-2022,13-22-42,72,depth_duration_stimuli/001199_2014-06-17_16-03-48_260595134347_rgbf000077-resize_0/001199_2014-06-17_16-03-48_260595134347_rgbf000077-resize_0-target.png,125,3.4375,5,3050,119,feet,jsons/VE125_randls_58_rotated.json,925962,1363529,47,Man
72,330501,DepthScenes,duration_manipulation_targetAtFixation,jsons/VE125_randls_58_rotated.json,http://54.235.29.9/FacialAge/BNav_EC2/DepthDuration/v2_depth_duration_MTurk/v2_DepthDuration_HTML.html#3,3,1280,881,1280,1024,9-18-2022,13-22-42,73,depth_duration_stimuli/001571_2014-06-20_17-21-32_260595134347_rgbf000089-resize_1/001571_2014-06-20_17-21-32_260595134347_rgbf000089-resize_1-target.png,125,1.86,2,5882,144,feet,jsons/VE125_randls_58_rotated.json,925962,1363529,47,Man
73,330501,DepthScenes,duration_manipulation_targetAtFixation,jsons/VE125_randls_58_rotated.json,http://54.235.29.9/FacialAge/BNav_EC2/DepthDuration/v2_depth_duration_MTurk/v2_DepthDuration_HTML.html#3,3,1280,881,1280,1024,9-18-2022,13-22-42,74,depth_duration_stimuli/002272_2014-06-28_18-53-56_260595134347_rgbf000067-resize_2/002272_2014-06-28_18-53-56_260595134347_rgbf000067-resize_2-target.png,125,1.138,1,5726,112,feet,jsons/VE125_randls_58_rotated.json,925962,1363529,47,Man
74,330501,DepthScenes,duration_manipulation_targetAtFixation,jsons/VE125_randls_58_rotated.json,http://54.235.29.9/FacialAge/BNav_EC2/DepthDuration/v2_depth_duration_MTurk/v2_DepthDuration_HTML.html#3,3,1280,881,1280,1024,9-18-2022,13-22-42,75,depth_duration_stimuli/002995_2014-06-15_12-31-26_094959634447_rgbf000150-resize_1/002995_2014-06-15_12-31-26_094959634447_rgbf000150-resize_1-target.png,125,3.8360000000000003,6,4243,150,feet,jsons/VE125_randls_58_rotated.json,925962,1363529,47,Man
75,330501,DepthScenes,duration_manipulation_targetAtFixation,jsons/VE125_randls_58_rotated.json,http://54.235.29.9/FacialAge/BNav_EC2/DepthDuration/v2_depth_duration_MTurk/v2_DepthDuration_HTML.html#3,3,1280,881,1280,1024,9-18-2022,13-22-42,76,depth_duration_stimuli/002748_2014-06-22_19-07-22_094959634447_rgbf000078-resize_1/002748_2014-06-22_19-07-22_094959634447_rgbf000078-resize_1-target.png,125,4.6705,8,3631,130,feet,jsons/VE125_randls_58_rotated.json,925962,1363529,47,Man
76,330501,DepthScenes,duration_manipulation_targetAtFixation,jsons/VE125_randls_58_rotated.json,http://54.235.29.9/FacialAge/BNav_EC2/DepthDuration/v2_depth_duration_MTurk/v2_DepthDuration_HTML.html#3,3,1280,881,1280,1024,9-18-2022,13-22-42,77,depth_duration_stimuli/002467_2014-06-28_20-38-07_260595134347_rgbf000026-resize_2/002467_2014-06-28_20-38-07_260595134347_rgbf000026-resize_2-target.png,125,4.742,6,6017,99,feet,jsons/VE125_randls_58_rotated.json,925962,1363529,47,Man
77,330501,DepthScenes,duration_manipulation_targetAtFixation,jsons/VE125_randls_58_rotated.json,http://54.235.29.9/FacialAge/BNav_EC2/DepthDuration/v2_depth_duration_MTurk/v2_DepthDuration_HTML.html#3,3,1280,881,1280,1024,9-18-2022,13-22-42,78,depth_duration_stimuli/002570_2014-06-24_13-59-54_094959634447_rgbf000059-resize_0/002570_2014-06-24_13-59-54_094959634447_rgbf000059-resize_0-target.png,125,4.037,6,6391,122,feet,jsons/VE125_randls_58_rotated.json,925962,1363529,47,Man
78,330501,DepthScenes,duration_manipulation_targetAtFixation,jsons/VE125_randls_58_rotated.json,http://54.235.29.9/FacialAge/BNav_EC2/DepthDuration/v2_depth_duration_MTurk/v2_DepthDuration_HTML.html#3,3,1280,881,1280,1024,9-18-2022,13-22-42,79,depth_duration_stimuli/002805_2014-06-22_19-54-03_094959634447_rgbf000079-resize_1/002805_2014-06-22_19-54-03_094959634447_rgbf000079-resize_1-target.png,125,3.1439999999999997,7,7505,125,feet,jsons/VE125_randls_58_rotated.json,925962,1363529,47,Man
79,330501,DepthScenes,duration_manipulation_targetAtFixation,jsons/VE125_randls_58_rotated.json,http://54.235.29.9/FacialAge/BNav_EC2/DepthDuration/v2_depth_duration_MTurk/v2_DepthDuration_HTML.html#3,3,1280,881,1280,1024,9-18-2022,13-22-42,80,depth_duration_stimuli/000906_2014-06-08_13-35-43_260595134347_rgbf000155-resize_1/000906_2014-06-08_13-35-43_260595134347_rgbf000155-resize_1-target.png,125,2.8489999999999998,6,3452,121,feet,jsons/VE125_randls_58_rotated.json,925962,1363529,47,Man
80,330501,DepthScenes,duration_manipulation_targetAtFixation,jsons/VE125_randls_58_rotated.json,http://54.235.29.9/FacialAge/BNav_EC2/DepthDuration/v2_depth_duration_MTurk/v2_DepthDuration_HTML.html#3,3,1280,881,1280,1024,9-18-2022,13-22-42,81,depth_duration_stimuli/001584_2014-06-20_11-07-43_260595134347_rgbf000002-resize_1/001584_2014-06-20_11-07-43_260595134347_rgbf000002-resize_1-target.png,125,3.53,4,3600,127,feet,jsons/VE125_randls_58_rotated.json,925962,1363529,47,Man
81,330501,DepthScenes,duration_manipulation_targetAtFixation,jsons/VE125_randls_58_rotated.json,http://54.235.29.9/FacialAge/BNav_EC2/DepthDuration/v2_depth_duration_MTurk/v2_DepthDuration_HTML.html#3,3,1280,881,1280,1024,9-18-2022,13-22-42,82,depth_duration_stimuli/003621_2014-05-23_18-06-08_094959634447_rgbf000101-resize_1/003621_2014-05-23_18-06-08_094959634447_rgbf000101-resize_1-target.png,125,3.9835,8,4544,130,feet,jsons/VE125_randls_58_rotated.json,925962,1363529,47,Man
82,330501,DepthScenes,duration_manipulation_targetAtFixation,jsons/VE125_randls_58_rotated.json,http://54.235.29.9/FacialAge/BNav_EC2/DepthDuration/v2_depth_duration_MTurk/v2_DepthDuration_HTML.html#3,3,1280,881,1280,1024,9-18-2022,13-22-42,83,depth_duration_stimuli/002340_2014-06-28_20-05-46_260595134347_rgbf000113-resize_0/002340_2014-06-28_20-05-46_260595134347_rgbf000113-resize_0-target.png,125,2.4735,9,3132,77,feet,jsons/VE125_randls_58_rotated.json,925962,1363529,47,Man
83,330501,DepthScenes,duration_manipulation_targetAtFixation,jsons/VE125_randls_58_rotated.json,http://54.235.29.9/FacialAge/BNav_EC2/DepthDuration/v2_depth_duration_MTurk/v2_DepthDuration_HTML.html#3,3,1280,881,1280,1024,9-18-2022,13-22-42,84,depth_duration_stimuli/001016_2014-06-09_16-16-10_260595134347_rgbf000112-resize_5/001016_2014-06-09_16-16-10_260595134347_rgbf000112-resize_5-target.png,125,1.6565,3,5184,146,feet,jsons/VE125_randls_58_rotated.json,925962,1363529,47,Man
84,330501,DepthScenes,duration_manipulation_targetAtFixation,jsons/VE125_randls_58_rotated.json,http://54.235.29.9/FacialAge/BNav_EC2/DepthDuration/v2_depth_duration_MTurk/v2_DepthDuration_HTML.html#3,3,1280,881,1280,1024,9-18-2022,13-22-42,85,depth_duration_stimuli/001132_2014-06-17_14-48-54_260595134347_rgbf000100-resize_2/001132_2014-06-17_14-48-54_260595134347_rgbf000100-resize_2-target.png,125,3.753,5,3770,236,feet,jsons/VE125_randls_58_rotated.json,925962,1363529,47,Man
85,330501,DepthScenes,duration_manipulation_targetAtFixation,jsons/VE125_randls_58_rotated.json,http://54.235.29.9/FacialAge/BNav_EC2/DepthDuration/v2_depth_duration_MTurk/v2_DepthDuration_HTML.html#3,3,1280,881,1280,1024,9-18-2022,13-22-42,86,depth_duration_stimuli/001133_2014-06-17_14-49-16_260595134347_rgbf000100-resize_0/001133_2014-06-17_14-49-16_260595134347_rgbf000100-resize_0-target.png,125,4.2115,5,3038,94,feet,jsons/VE125_randls_58_rotated.json,925962,1363529,47,Man
86,330501,DepthScenes,duration_manipulation_targetAtFixation,jsons/VE125_randls_58_rotated.json,http://54.235.29.9/FacialAge/BNav_EC2/DepthDuration/v2_depth_duration_MTurk/v2_DepthDuration_HTML.html#3,3,1280,881,1280,1024,9-18-2022,13-22-42,87,depth_duration_stimuli/002199_2014-06-28_18-33-56_260595134347_rgbf000074-resize_0/002199_2014-06-28_18-33-56_260595134347_rgbf000074-resize_0-target.png,125,1.996,1,3043,65,feet,jsons/VE125_randls_58_rotated.json,925962,1363529,47,Man
87,330501,DepthScenes,duration_manipulation_targetAtFixation,jsons/VE125_randls_58_rotated.json,http://54.235.29.9/FacialAge/BNav_EC2/DepthDuration/v2_depth_duration_MTurk/v2_DepthDuration_HTML.html#3,3,1280,881,1280,1024,9-18-2022,13-22-42,88,depth_duration_stimuli/001056_2014-06-08_18-46-44_260595134347_rgbf000068-resize_0/001056_2014-06-08_18-46-44_260595134347_rgbf000068-resize_0-target.png,125,2.6625,5,3348,125,feet,jsons/VE125_randls_58_rotated.json,925962,1363529,47,Man
88,330501,DepthScenes,duration_manipulation_targetAtFixation,jsons/VE125_randls_58_rotated.json,http://54.235.29.9/FacialAge/BNav_EC2/DepthDuration/v2_depth_duration_MTurk/v2_DepthDuration_HTML.html#3,3,1280,881,1280,1024,9-18-2022,13-22-42,89,depth_duration_stimuli/003083_2014-06-15_15-21-03_094959634447_rgbf000063-resize_1/003083_2014-06-15_15-21-03_094959634447_rgbf000063-resize_1-target.png,125,4.1405,8,4222,81,feet,jsons/VE125_randls_58_rotated.json,925962,1363529,47,Man
89,330501,DepthScenes,duration_manipulation_targetAtFixation,jsons/VE125_randls_58_rotated.json,http://54.235.29.9/FacialAge/BNav_EC2/DepthDuration/v2_depth_duration_MTurk/v2_DepthDuration_HTML.html#3,3,1280,881,1280,1024,9-18-2022,13-22-42,90,depth_duration_stimuli/000486_2014-06-09_20-47-20_260595134347_rgbf000143-resize_2/000486_2014-06-09_20-47-20_260595134347_rgbf000143-resize_2-target.png,125,4.8325,4,2902,265,feet,jsons/VE125_randls_58_rotated.json,925962,1363529,47,Man
90,330501,DepthScenes,duration_manipulation_targetAtFixation,jsons/VE125_randls_58_rotated.json,http://54.235.29.9/FacialAge/BNav_EC2/DepthDuration/v2_depth_duration_MTurk/v2_DepthDuration_HTML.html#3,3,1280,881,1280,1024,9-18-2022,13-22-42,91,depth_duration_stimuli/003048_2014-06-15_13-49-43_094959634447_rgbf000150-resize_1/003048_2014-06-15_13-49-43_094959634447_rgbf000150-resize_1-target.png,125,4.0035,6,4617,115,feet,jsons/VE125_randls_58_rotated.json,925962,1363529,47,Man
91,330501,DepthScenes,duration_manipulation_targetAtFixation,jsons/VE125_randls_58_rotated.json,http://54.235.29.9/FacialAge/BNav_EC2/DepthDuration/v2_depth_duration_MTurk/v2_DepthDuration_HTML.html#3,3,1280,881,1280,1024,9-18-2022,13-22-42,92,depth_duration_stimuli/002043_2014-06-24_20-29-38_260595134347_rgbf000039-resize_4/002043_2014-06-24_20-29-38_260595134347_rgbf000039-resize_4-target.png,125,2.8435,5,3671,125,feet,jsons/VE125_randls_58_rotated.json,925962,1363529,47,Man
92,330501,DepthScenes,duration_manipulation_targetAtFixation,jsons/VE125_randls_58_rotated.json,http://54.235.29.9/FacialAge/BNav_EC2/DepthDuration/v2_depth_duration_MTurk/v2_DepthDuration_HTML.html#3,3,1280,881,1280,1024,9-18-2022,13-22-42,93,depth_duration_stimuli/001447_2014-06-19_17-00-32_260595134347_rgbf000082-resize_5/001447_2014-06-19_17-00-32_260595134347_rgbf000082-resize_5-target.png,125,4.13775,4,2664,131,feet,jsons/VE125_randls_58_rotated.json,925962,1363529,47,Man
93,330501,DepthScenes,duration_manipulation_targetAtFixation,jsons/VE125_randls_58_rotated.json,http://54.235.29.9/FacialAge/BNav_EC2/DepthDuration/v2_depth_duration_MTurk/v2_DepthDuration_HTML.html#3,3,1280,881,1280,1024,9-18-2022,13-22-42,94,depth_duration_stimuli/000447_2014-06-08_16-15-46_260595134347_rgbf000130-resize_1/000447_2014-06-08_16-15-46_260595134347_rgbf000130-resize_1-target.png,125,4.479,6,5168,160,feet,jsons/VE125_randls_58_rotated.json,925962,1363529,47,Man
94,330501,DepthScenes,duration_manipulation_targetAtFixation,jsons/VE125_randls_58_rotated.json,http://54.235.29.9/FacialAge/BNav_EC2/DepthDuration/v2_depth_duration_MTurk/v2_DepthDuration_HTML.html#3,3,1280,881,1280,1024,9-18-2022,13-22-42,95,depth_duration_stimuli/001100_2014-06-15_17-46-26_260595134347_rgbf000225-resize_2/001100_2014-06-15_17-46-26_260595134347_rgbf000225-resize_2-target.png,125,2.24,2,4223,151,feet,jsons/VE125_randls_58_rotated.json,925962,1363529,47,Man
95,330501,DepthScenes,duration_manipulation_targetAtFixation,jsons/VE125_randls_58_rotated.json,http://54.235.29.9/FacialAge/BNav_EC2/DepthDuration/v2_depth_duration_MTurk/v2_DepthDuration_HTML.html#3,3,1280,881,1280,1024,9-18-2022,13-22-42,96,depth_duration_stimuli/002784_2014-06-22_19-26-30_094959634447_rgbf000083-resize_3/002784_2014-06-22_19-26-30_094959634447_rgbf000083-resize_3-target.png,125,1.8046666666667,0,3024,121,feet,jsons/VE125_randls_58_rotated.json,925962,1363529,47,Man
96,330501,DepthScenes,duration_manipulation_targetAtFixation,jsons/VE125_randls_58_rotated.json,http://54.235.29.9/FacialAge/BNav_EC2/DepthDuration/v2_depth_duration_MTurk/v2_DepthDuration_HTML.html#3,3,1280,881,1280,1024,9-18-2022,13-22-42,97,depth_duration_stimuli/003081_2014-06-15_15-19-16_094959634447_rgbf000150-resize_1/003081_2014-06-15_15-19-16_094959634447_rgbf000150-resize_1-target.png,125,3.9125,5,3083,116,feet,jsons/VE125_randls_58_rotated.json,925962,1363529,47,Man
97,330501,DepthScenes,duration_manipulation_targetAtFixation,jsons/VE125_randls_58_rotated.json,http://54.235.29.9/FacialAge/BNav_EC2/DepthDuration/v2_depth_duration_MTurk/v2_DepthDuration_HTML.html#3,3,1280,881,1280,1024,9-18-2022,13-22-42,98,depth_duration_stimuli/001417_2014-06-19_16-25-36_260595134347_rgbf000115-resize_5/001417_2014-06-19_16-25-36_260595134347_rgbf000115-resize_5-target.png,125,4.6255,0,2985,93,feet,jsons/VE125_randls_58_rotated.json,925962,1363529,47,Man
98,330501,DepthScenes,duration_manipulation_targetAtFixation,jsons/VE125_randls_58_rotated.json,http://54.235.29.9/FacialAge/BNav_EC2/DepthDuration/v2_depth_duration_MTurk/v2_DepthDuration_HTML.html#3,3,1280,881,1280,1024,9-18-2022,13-22-42,99,depth_duration_stimuli/001222_2014-06-17_16-24-06_260595134347_rgbf000073-resize_0/001222_2014-06-17_16-24-06_260595134347_rgbf000073-resize-original.jpg,125,1.4385,0,4052,187,feet,jsons/VE125_randls_58_rotated.json,925962,1363529,47,Man
99,330501,DepthScenes,duration_manipulation_targetAtFixation,jsons/VE125_randls_58_rotated.json,http://54.235.29.9/FacialAge/BNav_EC2/DepthDuration/v2_depth_duration_MTurk/v2_DepthDuration_HTML.html#3,3,1280,881,1280,1024,9-18-2022,13-22-42,100,depth_duration_stimuli/002678_2014-06-13_16-15-32_094959634447_rgbf000151-resize_6/002678_2014-06-13_16-15-32_094959634447_rgbf000151-resize_6-target.png,125,2.1830000000000003,4,4394,93,feet,jsons/VE125_randls_58_rotated.json,925962,1363529,47,Man
100,330501,DepthScenes,duration_manipulation_targetAtFixation,jsons/VE125_randls_58_rotated.json,http://54.235.29.9/FacialAge/BNav_EC2/DepthDuration/v2_depth_duration_MTurk/v2_DepthDuration_HTML.html#3,3,1280,881,1280,1024,9-18-2022,13-22-42,101,depth_duration_stimuli/000368_2014-06-09_15-53-01_260595134347_rgbf000155-resize_2/000368_2014-06-09_15-53-01_260595134347_rgbf000155-resize_2-target.png,125,2.4859999999999998,2,3551,111,feet,jsons/VE125_randls_58_rotated.json,925962,1363529,47,Man
101,330501,DepthScenes,duration_manipulation_targetAtFixation,jsons/VE125_randls_58_rotated.json,http://54.235.29.9/FacialAge/BNav_EC2/DepthDuration/v2_depth_duration_MTurk/v2_DepthDuration_HTML.html#3,3,1280,881,1280,1024,9-18-2022,13-22-42,102,depth_duration_stimuli/002425_2014-06-28_20-27-29_260595134347_rgbf000031-resize_8/002425_2014-06-28_20-27-29_260595134347_rgbf000031-resize_8-target.png,125,3.8960000000000004,4,5550,110,feet,jsons/VE125_randls_58_rotated.json,925962,1363529,47,Man
102,330501,DepthScenes,duration_manipulation_targetAtFixation,jsons/VE125_randls_58_rotated.json,http://54.235.29.9/FacialAge/BNav_EC2/DepthDuration/v2_depth_duration_MTurk/v2_DepthDuration_HTML.html#3,3,1280,881,1280,1024,9-18-2022,13-22-42,103,depth_duration_stimuli/000642_2014-06-08_16-59-25_260595134347_rgbf000098-resize_2/000642_2014-06-08_16-59-25_260595134347_rgbf000098-resize_2-target.png,125,2.8815,0,2543,118,feet,jsons/VE125_randls_58_rotated.json,925962,1363529,47,Man
103,330501,DepthScenes,duration_manipulation_targetAtFixation,jsons/VE125_randls_58_rotated.json,http://54.235.29.9/FacialAge/BNav_EC2/DepthDuration/v2_depth_duration_MTurk/v2_DepthDuration_HTML.html#3,3,1280,881,1280,1024,9-18-2022,13-22-42,104,depth_duration_stimuli/000103_2014-05-14_22-01-17_260595134347_rgbf000152-resize_5/000103_2014-05-14_22-01-17_260595134347_rgbf000152-resize_5-target.png,125,1.993,3,3528,136,feet,jsons/VE125_randls_58_rotated.json,925962,1363529,47,Man
104,330501,DepthScenes,duration_manipulation_targetAtFixation,jsons/VE125_randls_58_rotated.json,http://54.235.29.9/FacialAge/BNav_EC2/DepthDuration/v2_depth_duration_MTurk/v2_DepthDuration_HTML.html#3,3,1280,881,1280,1024,9-18-2022,13-22-42,105,depth_duration_stimuli/001555_2014-06-20_17-12-10_260595134347_rgbf000065-resize_4/001555_2014-06-20_17-12-10_260595134347_rgbf000065-resize_4-target.png,125,1.633,1,2591,137,feet,jsons/VE125_randls_58_rotated.json,925962,1363529,47,Man
105,330501,DepthScenes,duration_manipulation_targetAtFixation,jsons/VE125_randls_58_rotated.json,http://54.235.29.9/FacialAge/BNav_EC2/DepthDuration/v2_depth_duration_MTurk/v2_DepthDuration_HTML.html#3,3,1280,881,1280,1024,9-18-2022,13-22-42,106,depth_duration_stimuli/000483_2014-06-09_20-41-45_260595134347_rgbf000116-resize_4/000483_2014-06-09_20-41-45_260595134347_rgbf000116-resize_4-target.png,125,1.337,1,2430,130,feet,jsons/VE125_randls_58_rotated.json,925962,1363529,47,Man
106,330501,DepthScenes,duration_manipulation_targetAtFixation,jsons/VE125_randls_58_rotated.json,http://54.235.29.9/FacialAge/BNav_EC2/DepthDuration/v2_depth_duration_MTurk/v2_DepthDuration_HTML.html#3,3,1280,881,1280,1024,9-18-2022,13-22-42,107,depth_duration_stimuli/000469_2014-06-09_19-42-10_260595134347_rgbf000081-resize_1/000469_2014-06-09_19-42-10_260595134347_rgbf000081-resize_1-target.png,125,1.652,1,3223,135,feet,jsons/VE125_randls_58_rotated.json,925962,1363529,47,Man
107,330501,DepthScenes,duration_manipulation_targetAtFixation,jsons/VE125_randls_58_rotated.json,http://54.235.29.9/FacialAge/BNav_EC2/DepthDuration/v2_depth_duration_MTurk/v2_DepthDuration_HTML.html#3,3,1280,881,1280,1024,9-18-2022,13-22-42,108,depth_duration_stimuli/002568_2014-06-24_13-59-21_094959634447_rgbf000062-resize_4/002568_2014-06-24_13-59-21_094959634447_rgbf000062-resize_4-target.png,125,3.015,4,3208,125,feet,jsons/VE125_randls_58_rotated.json,925962,1363529,47,Man
108,330501,DepthScenes,duration_manipulation_targetAtFixation,jsons/VE125_randls_58_rotated.json,http://54.235.29.9/FacialAge/BNav_EC2/DepthDuration/v2_depth_duration_MTurk/v2_DepthDuration_HTML.html#3,3,1280,881,1280,1024,9-18-2022,13-22-42,109,depth_duration_stimuli/003492_2014-05-21_15-50-55_094959634447_rgbf000828-resize_1/003492_2014-05-21_15-50-55_094959634447_rgbf000828-resize_1-target.png,125,4.06875,8,4353,130,feet,jsons/VE125_randls_58_rotated.json,925962,1363529,47,Man
109,330501,DepthScenes,duration_manipulation_targetAtFixation,jsons/VE125_randls_58_rotated.json,http://54.235.29.9/FacialAge/BNav_EC2/DepthDuration/v2_depth_duration_MTurk/v2_DepthDuration_HTML.html#3,3,1280,881,1280,1024,9-18-2022,13-22-42,110,depth_duration_stimuli/000457_2014-06-08_16-52-43_260595134347_rgbf000199-resize_1/000457_2014-06-08_16-52-43_260595134347_rgbf000199-resize_1-target.png,125,3.6489999999999996,4,6702,114,feet,jsons/VE125_randls_58_rotated.json,925962,1363529,47,Man
110,330501,DepthScenes,duration_manipulation_targetAtFixation,jsons/VE125_randls_58_rotated.json,http://54.235.29.9/FacialAge/BNav_EC2/DepthDuration/v2_depth_duration_MTurk/v2_DepthDuration_HTML.html#3,3,1280,881,1280,1024,9-18-2022,13-22-42,111,depth_duration_stimuli/000929_2014-06-09_16-33-19_260595134347_rgbf000139-resize_0/000929_2014-06-09_16-33-19_260595134347_rgbf000139-resize_0-target.png,125,2.8680000000000003,4,4815,118,feet,jsons/VE125_randls_58_rotated.json,925962,1363529,47,Man
111,330501,DepthScenes,duration_manipulation_targetAtFixation,jsons/VE125_randls_58_rotated.json,http://54.235.29.9/FacialAge/BNav_EC2/DepthDuration/v2_depth_duration_MTurk/v2_DepthDuration_HTML.html#3,3,1280,881,1280,1024,9-18-2022,13-22-42,112,depth_duration_stimuli/003490_2014-05-21_15-50-11_094959634447_rgbf000101-resize_3/003490_2014-05-21_15-50-11_094959634447_rgbf000101-resize_3-target.png,125,3.6445,2,7648,133,feet,jsons/VE125_randls_58_rotated.json,925962,1363529,47,Man
112,330501,DepthScenes,duration_manipulation_targetAtFixation,jsons/VE125_randls_58_rotated.json,http://54.235.29.9/FacialAge/BNav_EC2/DepthDuration/v2_depth_duration_MTurk/v2_DepthDuration_HTML.html#3,3,1280,881,1280,1024,9-18-2022,13-22-42,113,depth_duration_stimuli/001175_2014-06-17_15-45-55_260595134347_rgbf000129-resize_4/001175_2014-06-17_15-45-55_260595134347_rgbf000129-resize_4-target.png,125,4.255,5,3080,114,feet,jsons/VE125_randls_58_rotated.json,925962,1363529,47,Man
113,330501,DepthScenes,duration_manipulation_targetAtFixation,jsons/VE125_randls_58_rotated.json,http://54.235.29.9/FacialAge/BNav_EC2/DepthDuration/v2_depth_duration_MTurk/v2_DepthDuration_HTML.html#3,3,1280,881,1280,1024,9-18-2022,13-22-42,114,depth_duration_stimuli/001214_2014-06-17_16-13-55_260595134347_rgbf000111-resize_0/001214_2014-06-17_16-13-55_260595134347_rgbf000111-resize_0-target.png,125,2.6505,3,3170,119,feet,jsons/VE125_randls_58_rotated.json,925962,1363529,47,Man
114,330501,DepthScenes,duration_manipulation_targetAtFixation,jsons/VE125_randls_58_rotated.json,http://54.235.29.9/FacialAge/BNav_EC2/DepthDuration/v2_depth_duration_MTurk/v2_DepthDuration_HTML.html#3,3,1280,881,1280,1024,9-18-2022,13-22-42,115,depth_duration_stimuli/000810_2014-06-08_17-20-01_260595134347_rgbf000105-resize_0/000810_2014-06-08_17-20-01_260595134347_rgbf000105-resize_0-target.png,125,1.4865,2,3058,123,feet,jsons/VE125_randls_58_rotated.json,925962,1363529,47,Man
115,330501,DepthScenes,duration_manipulation_targetAtFixation,jsons/VE125_randls_58_rotated.json,http://54.235.29.9/FacialAge/BNav_EC2/DepthDuration/v2_depth_duration_MTurk/v2_DepthDuration_HTML.html#3,3,1280,881,1280,1024,9-18-2022,13-22-42,116,depth_duration_stimuli/000665_2014-06-09_20-42-35_260595134347_rgbf000110-resize_1/000665_2014-06-09_20-42-35_260595134347_rgbf000110-resize_1-target.png,125,3.057,4,4471,81,feet,jsons/VE125_randls_58_rotated.json,925962,1363529,47,Man
116,330501,DepthScenes,duration_manipulation_targetAtFixation,jsons/VE125_randls_58_rotated.json,http://54.235.29.9/FacialAge/BNav_EC2/DepthDuration/v2_depth_duration_MTurk/v2_DepthDuration_HTML.html#3,3,1280,881,1280,1024,9-18-2022,13-22-42,117,depth_duration_stimuli/001150_2014-06-17_15-27-34_260595134347_rgbf000108-resize_2/001150_2014-06-17_15-27-34_260595134347_rgbf000108-resize_2-target.png,125,4.0325,5,11895,135,feet,jsons/VE125_randls_58_rotated.json,925962,1363529,47,Man
117,330501,DepthScenes,duration_manipulation_targetAtFixation,jsons/VE125_randls_58_rotated.json,http://54.235.29.9/FacialAge/BNav_EC2/DepthDuration/v2_depth_duration_MTurk/v2_DepthDuration_HTML.html#3,3,1280,881,1280,1024,9-18-2022,13-22-42,118,depth_duration_stimuli/003228_2014-05-14_13-42-35_094959634447_rgbf000101-resize_1/003228_2014-05-14_13-42-35_094959634447_rgbf000101-resize_1-target.png,125,1.9680000000000002,2,3321,132,feet,jsons/VE125_randls_58_rotated.json,925962,1363529,47,Man
118,330501,DepthScenes,duration_manipulation_targetAtFixation,jsons/VE125_randls_58_rotated.json,http://54.235.29.9/FacialAge/BNav_EC2/DepthDuration/v2_depth_duration_MTurk/v2_DepthDuration_HTML.html#3,3,1280,881,1280,1024,9-18-2022,13-22-42,119,depth_duration_stimuli/002600_2014-06-24_14-27-04_094959634447_rgbf000074-resize_2/002600_2014-06-24_14-27-04_094959634447_rgbf000074-resize_2-target.png,125,2.7575,4,3608,125,feet,jsons/VE125_randls_58_rotated.json,925962,1363529,47,Man
119,330501,DepthScenes,duration_manipulation_targetAtFixation,jsons/VE125_randls_58_rotated.json,http://54.235.29.9/FacialAge/BNav_EC2/DepthDuration/v2_depth_duration_MTurk/v2_DepthDuration_HTML.html#3,3,1280,881,1280,1024,9-18-2022,13-22-42,120,depth_duration_stimuli/000787_2014-06-08_22-33-53_260595134347_rgbf000175-resize_1/000787_2014-06-08_22-33-53_260595134347_rgbf000175-resize-original.jpg,125,4.784,0,4791,125,feet,jsons/VE125_randls_58_rotated.json,925962,1363529,47,Man
120,330501,DepthScenes,duration_manipulation_targetAtFixation,jsons/VE125_randls_58_rotated.json,http://54.235.29.9/FacialAge/BNav_EC2/DepthDuration/v2_depth_duration_MTurk/v2_DepthDuration_HTML.html#3,3,1280,881,1280,1024,9-18-2022,13-22-42,121,depth_duration_stimuli/002444_2014-06-28_20-32-08_260595134347_rgbf000027-resize_0/002444_2014-06-28_20-32-08_260595134347_rgbf000027-resize_0-target.png,125,4.388999999999999,5,3267,104,feet,jsons/VE125_randls_58_rotated.json,925962,1363529,47,Man
121,330501,DepthScenes,duration_manipulation_targetAtFixation,jsons/VE125_randls_58_rotated.json,http://54.235.29.9/FacialAge/BNav_EC2/DepthDuration/v2_depth_duration_MTurk/v2_DepthDuration_HTML.html#3,3,1280,881,1280,1024,9-18-2022,13-22-42,122,depth_duration_stimuli/000436_2014-06-09_22-25-11_260595134347_rgbf000137-resize_1/000436_2014-06-09_22-25-11_260595134347_rgbf000137-resize_1-target.png,125,4.0705,6,6272,101,feet,jsons/VE125_randls_58_rotated.json,925962,1363529,47,Man
122,330501,DepthScenes,duration_manipulation_targetAtFixation,jsons/VE125_randls_58_rotated.json,http://54.235.29.9/FacialAge/BNav_EC2/DepthDuration/v2_depth_duration_MTurk/v2_DepthDuration_HTML.html#3,3,1280,881,1280,1024,9-18-2022,13-22-42,123,depth_duration_stimuli/001094_2014-06-15_17-36-00_260595134347_rgbf000205-resize_0/001094_2014-06-15_17-36-00_260595134347_rgbf000205-resize_0-target.png,125,4.2175,7,3446,118,feet,jsons/VE125_randls_58_rotated.json,925962,1363529,47,Man
123,330501,DepthScenes,duration_manipulation_targetAtFixation,jsons/VE125_randls_58_rotated.json,http://54.235.29.9/FacialAge/BNav_EC2/DepthDuration/v2_depth_duration_MTurk/v2_DepthDuration_HTML.html#3,3,1280,881,1280,1024,9-18-2022,13-22-42,124,depth_duration_stimuli/000692_2014-06-08_13-09-42_260595134347_rgbf000199-resize_2/000692_2014-06-08_13-09-42_260595134347_rgbf000199-resize_2-target.png,125,3.661,4,2978,230,feet,jsons/VE125_randls_58_rotated.json,925962,1363529,47,Man
124,330501,DepthScenes,duration_manipulation_targetAtFixation,jsons/VE125_randls_58_rotated.json,http://54.235.29.9/FacialAge/BNav_EC2/DepthDuration/v2_depth_duration_MTurk/v2_DepthDuration_HTML.html#3,3,1280,881,1280,1024,9-18-2022,13-22-42,125,depth_duration_stimuli/001450_2014-06-19_17-02-03_260595134347_rgbf000203-resize_4/001450_2014-06-19_17-02-03_260595134347_rgbf000203-resize_4-target.png,125,4.0106666666667,8,4057,106,feet,jsons/VE125_randls_58_rotated.json,925962,1363529,47,Man
125,330501,DepthScenes,duration_manipulation_targetAtFixation,jsons/VE125_randls_58_rotated.json,http://54.235.29.9/FacialAge/BNav_EC2/DepthDuration/v2_depth_duration_MTurk/v2_DepthDuration_HTML.html#3,3,1280,881,1280,1024,9-18-2022,13-22-42,126,depth_duration_stimuli/001449_2014-06-19_17-01-27_260595134347_rgbf000116-resize_2/001449_2014-06-19_17-01-27_260595134347_rgbf000116-resize_2-target.png,125,3.452,5,3241,128,feet,jsons/VE125_randls_58_rotated.json,925962,1363529,47,Man
126,330501,DepthScenes,duration_manipulation_targetAtFixation,jsons/VE125_randls_58_rotated.json,http://54.235.29.9/FacialAge/BNav_EC2/DepthDuration/v2_depth_duration_MTurk/v2_DepthDuration_HTML.html#3,3,1280,881,1280,1024,9-18-2022,13-22-42,127,depth_duration_stimuli/000943_2014-06-09_19-31-07_260595134347_rgbf000128-resize_1/000943_2014-06-09_19-31-07_260595134347_rgbf000128-resize_1-target.png,125,1.9765,2,2557,122,feet,jsons/VE125_randls_58_rotated.json,925962,1363529,47,Man
127,330501,DepthScenes,duration_manipulation_targetAtFixation,jsons/VE125_randls_58_rotated.json,http://54.235.29.9/FacialAge/BNav_EC2/DepthDuration/v2_depth_duration_MTurk/v2_DepthDuration_HTML.html#3,3,1280,881,1280,1024,9-18-2022,13-22-42,128,depth_duration_stimuli/003070_2014-06-15_14-58-27_094959634447_rgbf000150-resize_3/003070_2014-06-15_14-58-27_094959634447_rgbf000150-resize_3-target.png,125,2.9415,4,2238,112,feet,jsons/VE125_randls_58_rotated.json,925962,1363529,47,Man
128,330501,DepthScenes,duration_manipulation_targetAtFixation,jsons/VE125_randls_58_rotated.json,http://54.235.29.9/FacialAge/BNav_EC2/DepthDuration/v2_depth_duration_MTurk/v2_DepthDuration_HTML.html#3,3,1280,881,1280,1024,9-18-2022,13-22-42,129,depth_duration_stimuli/003338_2014-05-20_11-01-23_094959634447_rgbf000051-resize_6/003338_2014-05-20_11-01-23_094959634447_rgbf000051-resize_6-target.png,125,1.693,2,2755,134,feet,jsons/VE125_randls_58_rotated.json,925962,1363529,47,Man
129,330501,DepthScenes,duration_manipulation_targetAtFixation,jsons/VE125_randls_58_rotated.json,http://54.235.29.9/FacialAge/BNav_EC2/DepthDuration/v2_depth_duration_MTurk/v2_DepthDuration_HTML.html#3,3,1280,881,1280,1024,9-18-2022,13-22-42,130,depth_duration_stimuli/002509_2014-06-24_13-19-22_094959634447_rgbf000077-resize_0/002509_2014-06-24_13-19-22_094959634447_rgbf000077-resize_0-target.png,125,1.3065,1,2567,123,feet,jsons/VE125_randls_58_rotated.json,925962,1363529,47,Man
130,330501,DepthScenes,duration_manipulation_targetAtFixation,jsons/VE125_randls_58_rotated.json,http://54.235.29.9/FacialAge/BNav_EC2/DepthDuration/v2_depth_duration_MTurk/v2_DepthDuration_HTML.html#3,3,1280,881,1280,1024,9-18-2022,13-22-42,131,depth_duration_stimuli/000780_2014-06-08_22-28-29_260595134347_rgbf000126-resize_1/000780_2014-06-08_22-28-29_260595134347_rgbf000126-resize_1-target.png,125,3.3825,5,3412,122,feet,jsons/VE125_randls_58_rotated.json,925962,1363529,47,Man
131,330501,DepthScenes,duration_manipulation_targetAtFixation,jsons/VE125_randls_58_rotated.json,http://54.235.29.9/FacialAge/BNav_EC2/DepthDuration/v2_depth_duration_MTurk/v2_DepthDuration_HTML.html#3,3,1280,881,1280,1024,9-18-2022,13-22-42,132,depth_duration_stimuli/002445_2014-06-28_20-32-16_260595134347_rgbf000029-resize_4/002445_2014-06-28_20-32-16_260595134347_rgbf000029-resize_4-target.png,125,2.5315,2,3273,123,feet,jsons/VE125_randls_58_rotated.json,925962,1363529,47,Man
132,330501,DepthScenes,duration_manipulation_targetAtFixation,jsons/VE125_randls_58_rotated.json,http://54.235.29.9/FacialAge/BNav_EC2/DepthDuration/v2_depth_duration_MTurk/v2_DepthDuration_HTML.html#3,3,1280,881,1280,1024,9-18-2022,13-22-42,133,depth_duration_stimuli/002657_2014-06-13_15-29-54_094959634447_rgbf000150-resize_1/002657_2014-06-13_15-29-54_094959634447_rgbf000150-resize_1-target.png,125,4.919,5,2960,125,feet,jsons/VE125_randls_58_rotated.json,925962,1363529,47,Man
133,330501,DepthScenes,duration_manipulation_targetAtFixation,jsons/VE125_randls_58_rotated.json,http://54.235.29.9/FacialAge/BNav_EC2/DepthDuration/v2_depth_duration_MTurk/v2_DepthDuration_HTML.html#3,3,1280,881,1280,1024,9-18-2022,13-22-42,134,depth_duration_stimuli/002375_2014-06-28_20-13-44_260595134347_rgbf000032-resize_1/002375_2014-06-28_20-13-44_260595134347_rgbf000032-resize_1-target.png,125,4.0175,3,4380,124,feet,jsons/VE125_randls_58_rotated.json,925962,1363529,47,Man
134,330501,DepthScenes,duration_manipulation_targetAtFixation,jsons/VE125_randls_58_rotated.json,http://54.235.29.9/FacialAge/BNav_EC2/DepthDuration/v2_depth_duration_MTurk/v2_DepthDuration_HTML.html#3,3,1280,881,1280,1024,9-18-2022,13-22-42,135,depth_duration_stimuli/000375_2014-06-08_11-17-29_260595134347_rgbf000133-resize_2/000375_2014-06-08_11-17-29_260595134347_rgbf000133-resize-original.jpg,125,4.718,0,6407,120,feet,jsons/VE125_randls_58_rotated.json,925962,1363529,47,Man
135,330501,DepthScenes,duration_manipulation_targetAtFixation,jsons/VE125_randls_58_rotated.json,http://54.235.29.9/FacialAge/BNav_EC2/DepthDuration/v2_depth_duration_MTurk/v2_DepthDuration_HTML.html#3,3,1280,881,1280,1024,9-18-2022,13-22-42,136,depth_duration_stimuli/002949_2014-06-26_15-57-42_094959634447_rgbf000079-resize_1/002949_2014-06-26_15-57-42_094959634447_rgbf000079-resize_1-target.png,125,1.8915,2,2370,94,feet,jsons/VE125_randls_58_rotated.json,925962,1363529,47,Man
136,330501,DepthScenes,duration_manipulation_targetAtFixation,jsons/VE125_randls_58_rotated.json,http://54.235.29.9/FacialAge/BNav_EC2/DepthDuration/v2_depth_duration_MTurk/v2_DepthDuration_HTML.html#3,3,1280,881,1280,1024,9-18-2022,13-22-42,137,depth_duration_stimuli/000522_2014-06-08_13-35-06_260595134347_rgbf000244-resize_1/000522_2014-06-08_13-35-06_260595134347_rgbf000244-resize_1-target.png,125,2.3715,1,2300,128,feet,jsons/VE125_randls_58_rotated.json,925962,1363529,47,Man
137,330501,DepthScenes,duration_manipulation_targetAtFixation,jsons/VE125_randls_58_rotated.json,http://54.235.29.9/FacialAge/BNav_EC2/DepthDuration/v2_depth_duration_MTurk/v2_DepthDuration_HTML.html#3,3,1280,881,1280,1024,9-18-2022,13-22-42,138,depth_duration_stimuli/001516_2014-06-20_16-25-09_260595134347_rgbf000076-resize_2/001516_2014-06-20_16-25-09_260595134347_rgbf000076-resize_2-target.png,125,1.7445,4,3070,140,feet,jsons/VE125_randls_58_rotated.json,925962,1363529,47,Man
138,330501,DepthScenes,duration_manipulation_targetAtFixation,jsons/VE125_randls_58_rotated.json,http://54.235.29.9/FacialAge/BNav_EC2/DepthDuration/v2_depth_duration_MTurk/v2_DepthDuration_HTML.html#3,3,1280,881,1280,1024,9-18-2022,13-22-42,139,depth_duration_stimuli/002118_2014-06-25_20-32-08_260595134347_rgbf000078-resize_1/002118_2014-06-25_20-32-08_260595134347_rgbf000078-resize_1-target.png,125,2.6460000000000004,3,3333,128,feet,jsons/VE125_randls_58_rotated.json,925962,1363529,47,Man
139,330501,DepthScenes,duration_manipulation_targetAtFixation,jsons/VE125_randls_58_rotated.json,http://54.235.29.9/FacialAge/BNav_EC2/DepthDuration/v2_depth_duration_MTurk/v2_DepthDuration_HTML.html#3,3,1280,881,1280,1024,9-18-2022,13-22-42,140,depth_duration_stimuli/001235_2014-06-17_16-37-36_260595134347_rgbf000084-resize_4/001235_2014-06-17_16-37-36_260595134347_rgbf000084-resize_4-target.png,125,3.6605,3,3991,123,feet,jsons/VE125_randls_58_rotated.json,925962,1363529,47,Man
140,330501,DepthScenes,duration_manipulation_targetAtFixation,jsons/VE125_randls_58_rotated.json,http://54.235.29.9/FacialAge/BNav_EC2/DepthDuration/v2_depth_duration_MTurk/v2_DepthDuration_HTML.html#3,3,1280,881,1280,1024,9-18-2022,13-22-42,141,depth_duration_stimuli/000788_2014-06-08_22-34-36_260595134347_rgbf000131-resize_1/000788_2014-06-08_22-34-36_260595134347_rgbf000131-resize_1-target.png,125,3.359,3,5699,132,feet,jsons/VE125_randls_58_rotated.json,925962,1363529,47,Man
141,330501,DepthScenes,duration_manipulation_targetAtFixation,jsons/VE125_randls_58_rotated.json,http://54.235.29.9/FacialAge/BNav_EC2/DepthDuration/v2_depth_duration_MTurk/v2_DepthDuration_HTML.html#3,3,1280,881,1280,1024,9-18-2022,13-22-42,142,depth_duration_stimuli/000191_2014-05-12_17-07-38_260595134347_rgbf000199-resize_0/000191_2014-05-12_17-07-38_260595134347_rgbf000199-resize_0-target.png,125,3.7995,7,3535,182,feet,jsons/VE125_randls_58_rotated.json,925962,1363529,47,Man
142,330501,DepthScenes,duration_manipulation_targetAtFixation,jsons/VE125_randls_58_rotated.json,http://54.235.29.9/FacialAge/BNav_EC2/DepthDuration/v2_depth_duration_MTurk/v2_DepthDuration_HTML.html#3,3,1280,881,1280,1024,9-18-2022,13-22-42,143,depth_duration_stimuli/000493_2014-06-09_21-01-18_260595134347_rgbf000196-resize_3/000493_2014-06-09_21-01-18_260595134347_rgbf000196-resize_3-target.png,125,3.44,5,3815,125,feet,jsons/VE125_randls_58_rotated.json,925962,1363529,47,Man
143,330501,DepthScenes,duration_manipulation_targetAtFixation,jsons/VE125_randls_58_rotated.json,http://54.235.29.9/FacialAge/BNav_EC2/DepthDuration/v2_depth_duration_MTurk/v2_DepthDuration_HTML.html#3,3,1280,881,1280,1024,9-18-2022,13-22-42,144,depth_duration_stimuli/002545_2014-06-24_13-38-53_094959634447_rgbf000080-resize_4/002545_2014-06-24_13-38-53_094959634447_rgbf000080-resize_4-target.png,125,1.9205,3,2974,124,feet,jsons/VE125_randls_58_rotated.json,925962,1363529,47,Man
144,330501,DepthScenes,duration_manipulation_targetAtFixation,jsons/VE125_randls_58_rotated.json,http://54.235.29.9/FacialAge/BNav_EC2/DepthDuration/v2_depth_duration_MTurk/v2_DepthDuration_HTML.html#3,3,1280,881,1280,1024,9-18-2022,13-22-42,145,depth_duration_stimuli/001092_2014-06-15_17-34-58_260595134347_rgbf000171-resize_3/001092_2014-06-15_17-34-58_260595134347_rgbf000171-resize_3-target.png,125,2.6935,2,2665,103,feet,jsons/VE125_randls_58_rotated.json,925962,1363529,47,Man
145,330501,DepthScenes,duration_manipulation_targetAtFixation,jsons/VE125_randls_58_rotated.json,http://54.235.29.9/FacialAge/BNav_EC2/DepthDuration/v2_depth_duration_MTurk/v2_DepthDuration_HTML.html#3,3,1280,881,1280,1024,9-18-2022,13-22-42,146,depth_duration_stimuli/002344_2014-06-28_20-06-29_260595134347_rgbf000030-resize_1/002344_2014-06-28_20-06-29_260595134347_rgbf000030-resize_1-target.png,125,1.5795,1,2811,117,feet,jsons/VE125_randls_58_rotated.json,925962,1363529,47,Man
146,330501,DepthScenes,duration_manipulation_targetAtFixation,jsons/VE125_randls_58_rotated.json,http://54.235.29.9/FacialAge/BNav_EC2/DepthDuration/v2_depth_duration_MTurk/v2_DepthDuration_HTML.html#3,3,1280,881,1280,1024,9-18-2022,13-22-42,147,depth_duration_stimuli/002725_2014-06-22_11-47-51_094959634447_rgbf000070-resize_1/002725_2014-06-22_11-47-51_094959634447_rgbf000070-resize_1-target.png,125,2.195,4,3753,127,feet,jsons/VE125_randls_58_rotated.json,925962,1363529,47,Man
147,330501,DepthScenes,duration_manipulation_targetAtFixation,jsons/VE125_randls_58_rotated.json,http://54.235.29.9/FacialAge/BNav_EC2/DepthDuration/v2_depth_duration_MTurk/v2_DepthDuration_HTML.html#3,3,1280,881,1280,1024,9-18-2022,13-22-42,148,depth_duration_stimuli/003495_2014-05-21_16-01-51_094959634447_rgbf000100-resize_3/003495_2014-05-21_16-01-51_094959634447_rgbf000100-resize_3-target.png,125,1.6255,1,2316,107,feet,jsons/VE125_randls_58_rotated.json,925962,1363529,47,Man
148,330501,DepthScenes,duration_manipulation_targetAtFixation,jsons/VE125_randls_58_rotated.json,http://54.235.29.9/FacialAge/BNav_EC2/DepthDuration/v2_depth_duration_MTurk/v2_DepthDuration_HTML.html#3,3,1280,881,1280,1024,9-18-2022,13-22-42,149,depth_duration_stimuli/001244_2014-06-17_16-47-45_260595134347_rgbf000030-resize_4/001244_2014-06-17_16-47-45_260595134347_rgbf000030-resize_4-target.png,125,2.0425,4,7805,125,feet,jsons/VE125_randls_58_rotated.json,925962,1363529,47,Man
149,330501,DepthScenes,duration_manipulation_targetAtFixation,jsons/VE125_randls_58_rotated.json,http://54.235.29.9/FacialAge/BNav_EC2/DepthDuration/v2_depth_duration_MTurk/v2_DepthDuration_HTML.html#3,3,1280,881,1280,1024,9-18-2022,13-22-42,150,depth_duration_stimuli/001617_2014-06-20_11-35-32_260595134347_rgbf000066-resize_1/001617_2014-06-20_11-35-32_260595134347_rgbf000066-resize_1-target.png,125,3.7910000000000004,6,3377,133,feet,jsons/VE125_randls_58_rotated.json,925962,1363529,47,Man
150,330501,DepthScenes,duration_manipulation_targetAtFixation,jsons/VE125_randls_58_rotated.json,http://54.235.29.9/FacialAge/BNav_EC2/DepthDuration/v2_depth_duration_MTurk/v2_DepthDuration_HTML.html#3,3,1280,881,1280,1024,9-18-2022,13-22-42,151,depth_duration_stimuli/001806_2014-06-26_20-50-20_260595134347_rgbf000091-resize_1/001806_2014-06-26_20-50-20_260595134347_rgbf000091-resize_1-target.png,125,2.7305,0,6891,119,feet,jsons/VE125_randls_58_rotated.json,925962,1363529,47,Man
151,330501,DepthScenes,duration_manipulation_targetAtFixation,jsons/VE125_randls_58_rotated.json,http://54.235.29.9/FacialAge/BNav_EC2/DepthDuration/v2_depth_duration_MTurk/v2_DepthDuration_HTML.html#3,3,1280,881,1280,1024,9-18-2022,13-22-42,152,depth_duration_stimuli/000569_2014-06-09_22-51-47_260595134347_rgbf000141-resize_3/000569_2014-06-09_22-51-47_260595134347_rgbf000141-resize-original.jpg,125,4.512,0,2731,128,feet,jsons/VE125_randls_58_rotated.json,925962,1363529,47,Man
152,330501,DepthScenes,duration_manipulation_targetAtFixation,jsons/VE125_randls_58_rotated.json,http://54.235.29.9/FacialAge/BNav_EC2/DepthDuration/v2_depth_duration_MTurk/v2_DepthDuration_HTML.html#3,3,1280,881,1280,1024,9-18-2022,13-22-42,153,depth_duration_stimuli/001052_2014-06-08_18-24-54_260595134347_rgbf000130-resize_1/001052_2014-06-08_18-24-54_260595134347_rgbf000130-resize_1-target.png,125,4.1045,5,2993,127,feet,jsons/VE125_randls_58_rotated.json,925962,1363529,47,Man
153,330501,DepthScenes,duration_manipulation_targetAtFixation,jsons/VE125_randls_58_rotated.json,http://54.235.29.9/FacialAge/BNav_EC2/DepthDuration/v2_depth_duration_MTurk/v2_DepthDuration_HTML.html#3,3,1280,881,1280,1024,9-18-2022,13-22-42,154,depth_duration_stimuli/002988_2014-06-15_12-24-20_094959634447_rgbf000150-resize_1/002988_2014-06-15_12-24-20_094959634447_rgbf000150-resize_1-target.png,125,4.7669999999999995,9,29469,128,feet,jsons/VE125_randls_58_rotated.json,925962,1363529,47,Man
154,330501,DepthScenes,duration_manipulation_targetAtFixation,jsons/VE125_randls_58_rotated.json,http://54.235.29.9/FacialAge/BNav_EC2/DepthDuration/v2_depth_duration_MTurk/v2_DepthDuration_HTML.html#3,3,1280,881,1280,1024,9-18-2022,13-22-42,155,depth_duration_stimuli/002414_2014-06-28_20-24-58_260595134347_rgbf000067-resize_4/002414_2014-06-28_20-24-58_260595134347_rgbf000067-resize_4-target.png,125,4.363,6,3723,121,feet,jsons/VE125_randls_58_rotated.json,925962,1363529,47,Man
155,330501,DepthScenes,duration_manipulation_targetAtFixation,jsons/VE125_randls_58_rotated.json,http://54.235.29.9/FacialAge/BNav_EC2/DepthDuration/v2_depth_duration_MTurk/v2_DepthDuration_HTML.html#3,3,1280,881,1280,1024,9-18-2022,13-22-42,156,depth_duration_stimuli/000773_2014-06-08_22-24-54_260595134347_rgbf000093-resize_1/000773_2014-06-08_22-24-54_260595134347_rgbf000093-resize_1-target.png,125,4.973,5,2311,122,feet,jsons/VE125_randls_58_rotated.json,925962,1363529,47,Man
156,330501,DepthScenes,duration_manipulation_targetAtFixation,jsons/VE125_randls_58_rotated.json,http://54.235.29.9/FacialAge/BNav_EC2/DepthDuration/v2_depth_duration_MTurk/v2_DepthDuration_HTML.html#3,3,1280,881,1280,1024,9-18-2022,13-22-42,157,depth_duration_stimuli/000734_2014-06-08_17-39-11_260595134347_rgbf000128-resize_2/000734_2014-06-08_17-39-11_260595134347_rgbf000128-resize_2-target.png,125,4.098,6,3148,166,feet,jsons/VE125_randls_58_rotated.json,925962,1363529,47,Man
157,330501,DepthScenes,duration_manipulation_targetAtFixation,jsons/VE125_randls_58_rotated.json,http://54.235.29.9/FacialAge/BNav_EC2/DepthDuration/v2_depth_duration_MTurk/v2_DepthDuration_HTML.html#3,3,1280,881,1280,1024,9-18-2022,13-22-42,158,depth_duration_stimuli/000739_2014-06-08_18-45-58_260595134347_rgbf000068-resize_1/000739_2014-06-08_18-45-58_260595134347_rgbf000068-resize_1-target.png,125,3.534,6,4049,133,feet,jsons/VE125_randls_58_rotated.json,925962,1363529,47,Man
158,330501,DepthScenes,duration_manipulation_targetAtFixation,jsons/VE125_randls_58_rotated.json,http://54.235.29.9/FacialAge/BNav_EC2/DepthDuration/v2_depth_duration_MTurk/v2_DepthDuration_HTML.html#3,3,1280,881,1280,1024,9-18-2022,13-22-42,159,depth_duration_stimuli/000691_2014-06-08_13-08-50_260595134347_rgbf000132-resize_3/000691_2014-06-08_13-08-50_260595134347_rgbf000132-resize_3-target.png,125,4.1530000000000005,5,2729,133,feet,jsons/VE125_randls_58_rotated.json,925962,1363529,47,Man
159,330501,DepthScenes,duration_manipulation_targetAtFixation,jsons/VE125_randls_58_rotated.json,http://54.235.29.9/FacialAge/BNav_EC2/DepthDuration/v2_depth_duration_MTurk/v2_DepthDuration_HTML.html#3,3,1280,881,1280,1024,9-18-2022,13-22-42,160,depth_duration_stimuli/002213_2014-06-28_18-37-58_260595134347_rgbf000055-resize_1/002213_2014-06-28_18-37-58_260595134347_rgbf000055-resize_1-target.png,125,3.62,0,3458,52,feet,jsons/VE125_randls_58_rotated.json,925962,1363529,47,Man
160,330501,DepthScenes,duration_manipulation_targetAtFixation,jsons/VE125_randls_58_rotated.json,http://54.235.29.9/FacialAge/BNav_EC2/DepthDuration/v2_depth_duration_MTurk/v2_DepthDuration_HTML.html#3,3,1280,881,1280,1024,9-18-2022,13-22-42,161,depth_duration_stimuli/001650_2014-06-20_12-09-00_260595134347_rgbf000087-resize_3/001650_2014-06-20_12-09-00_260595134347_rgbf000087-resize_3-target.png,125,1.9505,2,12150,127,feet,jsons/VE125_randls_58_rotated.json,925962,1363529,47,Man
161,330501,DepthScenes,duration_manipulation_targetAtFixation,jsons/VE125_randls_58_rotated.json,http://54.235.29.9/FacialAge/BNav_EC2/DepthDuration/v2_depth_duration_MTurk/v2_DepthDuration_HTML.html#3,3,1280,881,1280,1024,9-18-2022,13-22-42,162,depth_duration_stimuli/000682_2014-06-08_23-14-58_260595134347_rgbf000041-resize_5/000682_2014-06-08_23-14-58_260595134347_rgbf000041-resize_5-target.png,125,2.7239999999999998,3,3481,132,feet,jsons/VE125_randls_58_rotated.json,925962,1363529,47,Man
162,330501,DepthScenes,duration_manipulation_targetAtFixation,jsons/VE125_randls_58_rotated.json,http://54.235.29.9/FacialAge/BNav_EC2/DepthDuration/v2_depth_duration_MTurk/v2_DepthDuration_HTML.html#3,3,1280,881,1280,1024,9-18-2022,13-22-42,163,depth_duration_stimuli/000677_2014-06-08_23-10-32_260595134347_rgbf000158-resize_6/000677_2014-06-08_23-10-32_260595134347_rgbf000158-resize_6-target.png,125,3.556,4,3852,122,feet,jsons/VE125_randls_58_rotated.json,925962,1363529,47,Man
163,330501,DepthScenes,duration_manipulation_targetAtFixation,jsons/VE125_randls_58_rotated.json,http://54.235.29.9/FacialAge/BNav_EC2/DepthDuration/v2_depth_duration_MTurk/v2_DepthDuration_HTML.html#3,3,1280,881,1280,1024,9-18-2022,13-22-42,164,depth_duration_stimuli/001029_2014-06-08_13-17-57_260595134347_rgbf000065-resize_1/001029_2014-06-08_13-17-57_260595134347_rgbf000065-resize_1-target.png,125,3.0835,5,2394,118,feet,jsons/VE125_randls_58_rotated.json,925962,1363529,47,Man
