,subjID,experimentName,versionName,sequenceName,url,selected_row,windowWidth,windowHeight,screenWidth,screenHeight,startDate,startTime,trial,stimulus,duration,actual_depth,depth_estimate,trial_RT,log_sceneDuration,unitSelection,seq_filepath,experimentTime,totalTime,age,gender
0,331300,DepthScenes,duration_manipulation_targetAtFixation,jsons/VE125_randls_68.json,http://54.235.29.9/FacialAge/BNav_EC2/DepthDuration/v2_depth_duration_MTurk/v2_DepthDuration_HTML.html#155,155,1440,789,1440,900,9-31-2022,10-8-33,1,depth_duration_stimuli/000522_2014-06-08_13-35-06_260595134347_rgbf000244-resize_1/000522_2014-06-08_13-35-06_260595134347_rgbf000244-resize_1-target.png,125,2.3715,40,10979,125,meters,jsons/VE125_randls_68.json,1422321,1617395,40,Woman
1,331300,DepthScenes,duration_manipulation_targetAtFixation,jsons/VE125_randls_68.json,http://54.235.29.9/FacialAge/BNav_EC2/DepthDuration/v2_depth_duration_MTurk/v2_DepthDuration_HTML.html#155,155,1440,789,1440,900,9-31-2022,10-8-33,2,depth_duration_stimuli/002949_2014-06-26_15-57-42_094959634447_rgbf000079-resize_1/002949_2014-06-26_15-57-42_094959634447_rgbf000079-resize_1-target.png,125,1.8915,44,6901,124,meters,jsons/VE125_randls_68.json,1422321,1617395,40,Woman
2,331300,DepthScenes,duration_manipulation_targetAtFixation,jsons/VE125_randls_68.json,http://54.235.29.9/FacialAge/BNav_EC2/DepthDuration/v2_depth_duration_MTurk/v2_DepthDuration_HTML.html#155,155,1440,789,1440,900,9-31-2022,10-8-33,3,depth_duration_stimuli/001167_2014-06-17_15-38-07_260595134347_rgbf000108-resize_0/001167_2014-06-17_15-38-07_260595134347_rgbf000108-resize_0-target.png,125,1.8505,35,7569,126,meters,jsons/VE125_randls_68.json,1422321,1617395,40,Woman
3,331300,DepthScenes,duration_manipulation_targetAtFixation,jsons/VE125_randls_68.json,http://54.235.29.9/FacialAge/BNav_EC2/DepthDuration/v2_depth_duration_MTurk/v2_DepthDuration_HTML.html#155,155,1440,789,1440,900,9-31-2022,10-8-33,4,depth_duration_stimuli/003587_2014-05-23_16-48-02_094959634447_rgbf002384-resize_2/003587_2014-05-23_16-48-02_094959634447_rgbf002384-resize_2-target.png,125,1.357,25,9260,126,meters,jsons/VE125_randls_68.json,1422321,1617395,40,Woman
4,331300,DepthScenes,duration_manipulation_targetAtFixation,jsons/VE125_randls_68.json,http://54.235.29.9/FacialAge/BNav_EC2/DepthDuration/v2_depth_duration_MTurk/v2_DepthDuration_HTML.html#155,155,1440,789,1440,900,9-31-2022,10-8-33,5,depth_duration_stimuli/003070_2014-06-15_14-58-27_094959634447_rgbf000150-resize_3/003070_2014-06-15_14-58-27_094959634447_rgbf000150-resize_3-target.png,125,2.9415,45,9989,125,meters,jsons/VE125_randls_68.json,1422321,1617395,40,Woman
5,331300,DepthScenes,duration_manipulation_targetAtFixation,jsons/VE125_randls_68.json,http://54.235.29.9/FacialAge/BNav_EC2/DepthDuration/v2_depth_duration_MTurk/v2_DepthDuration_HTML.html#155,155,1440,789,1440,900,9-31-2022,10-8-33,6,depth_duration_stimuli/000943_2014-06-09_19-31-07_260595134347_rgbf000128-resize_1/000943_2014-06-09_19-31-07_260595134347_rgbf000128-resize_1-target.png,125,1.9765,40,7267,125,meters,jsons/VE125_randls_68.json,1422321,1617395,40,Woman
6,331300,DepthScenes,duration_manipulation_targetAtFixation,jsons/VE125_randls_68.json,http://54.235.29.9/FacialAge/BNav_EC2/DepthDuration/v2_depth_duration_MTurk/v2_DepthDuration_HTML.html#155,155,1440,789,1440,900,9-31-2022,10-8-33,7,depth_duration_stimuli/001810_2014-06-26_20-51-35_260595134347_rgbf000040-resize_3/001810_2014-06-26_20-51-35_260595134347_rgbf000040-resize_3-target.png,125,2.2525,50,9286,125,meters,jsons/VE125_randls_68.json,1422321,1617395,40,Woman
7,331300,DepthScenes,duration_manipulation_targetAtFixation,jsons/VE125_randls_68.json,http://54.235.29.9/FacialAge/BNav_EC2/DepthDuration/v2_depth_duration_MTurk/v2_DepthDuration_HTML.html#155,155,1440,789,1440,900,9-31-2022,10-8-33,8,depth_duration_stimuli/003010_2014-06-15_12-54-35_094959634447_rgbf000112-resize_0/003010_2014-06-15_12-54-35_094959634447_rgbf000112-resize_0-target.png,125,3.1185,30,6157,126,meters,jsons/VE125_randls_68.json,1422321,1617395,40,Woman
8,331300,DepthScenes,duration_manipulation_targetAtFixation,jsons/VE125_randls_68.json,http://54.235.29.9/FacialAge/BNav_EC2/DepthDuration/v2_depth_duration_MTurk/v2_DepthDuration_HTML.html#155,155,1440,789,1440,900,9-31-2022,10-8-33,9,depth_duration_stimuli/000758_2014-06-08_22-05-08_260595134347_rgbf000085-resize_0/000758_2014-06-08_22-05-08_260595134347_rgbf000085-resize_0-target.png,125,3.3810000000000002,35,9771,126,meters,jsons/VE125_randls_68.json,1422321,1617395,40,Woman
9,331300,DepthScenes,duration_manipulation_targetAtFixation,jsons/VE125_randls_68.json,http://54.235.29.9/FacialAge/BNav_EC2/DepthDuration/v2_depth_duration_MTurk/v2_DepthDuration_HTML.html#155,155,1440,789,1440,900,9-31-2022,10-8-33,10,depth_duration_stimuli/000854_2014-06-09_19-43-13_260595134347_rgbf000066-resize_0/000854_2014-06-09_19-43-13_260595134347_rgbf000066-resize_0-target.png,125,3.068,20,6747,124,meters,jsons/VE125_randls_68.json,1422321,1617395,40,Woman
10,331300,DepthScenes,duration_manipulation_targetAtFixation,jsons/VE125_randls_68.json,http://54.235.29.9/FacialAge/BNav_EC2/DepthDuration/v2_depth_duration_MTurk/v2_DepthDuration_HTML.html#155,155,1440,789,1440,900,9-31-2022,10-8-33,11,depth_duration_stimuli/001417_2014-06-19_16-25-36_260595134347_rgbf000115-resize_5/001417_2014-06-19_16-25-36_260595134347_rgbf000115-resize_5-target.png,125,4.6255,30,8694,125,meters,jsons/VE125_randls_68.json,1422321,1617395,40,Woman
11,331300,DepthScenes,duration_manipulation_targetAtFixation,jsons/VE125_randls_68.json,http://54.235.29.9/FacialAge/BNav_EC2/DepthDuration/v2_depth_duration_MTurk/v2_DepthDuration_HTML.html#155,155,1440,789,1440,900,9-31-2022,10-8-33,12,depth_duration_stimuli/003081_2014-06-15_15-19-16_094959634447_rgbf000150-resize_1/003081_2014-06-15_15-19-16_094959634447_rgbf000150-resize_1-target.png,125,3.9125,42,6939,125,meters,jsons/VE125_randls_68.json,1422321,1617395,40,Woman
12,331300,DepthScenes,duration_manipulation_targetAtFixation,jsons/VE125_randls_68.json,http://54.235.29.9/FacialAge/BNav_EC2/DepthDuration/v2_depth_duration_MTurk/v2_DepthDuration_HTML.html#155,155,1440,789,1440,900,9-31-2022,10-8-33,13,depth_duration_stimuli/000569_2014-06-09_22-51-47_260595134347_rgbf000141-resize_3/000569_2014-06-09_22-51-47_260595134347_rgbf000141-resize-original.jpg,125,4.512,45,6302,127,meters,jsons/VE125_randls_68.json,1422321,1617395,40,Woman
13,331300,DepthScenes,duration_manipulation_targetAtFixation,jsons/VE125_randls_68.json,http://54.235.29.9/FacialAge/BNav_EC2/DepthDuration/v2_depth_duration_MTurk/v2_DepthDuration_HTML.html#155,155,1440,789,1440,900,9-31-2022,10-8-33,14,depth_duration_stimuli/001164_2014-06-17_15-35-46_260595134347_rgbf000085-resize_3/001164_2014-06-17_15-35-46_260595134347_rgbf000085-resize_3-target.png,125,2.354,35,9687,125,meters,jsons/VE125_randls_68.json,1422321,1617395,40,Woman
14,331300,DepthScenes,duration_manipulation_targetAtFixation,jsons/VE125_randls_68.json,http://54.235.29.9/FacialAge/BNav_EC2/DepthDuration/v2_depth_duration_MTurk/v2_DepthDuration_HTML.html#155,155,1440,789,1440,900,9-31-2022,10-8-33,15,depth_duration_stimuli/001136_2014-06-17_15-19-41_260595134347_rgbf000076-resize_3/001136_2014-06-17_15-19-41_260595134347_rgbf000076-resize_3-target.png,125,1.8655,50,6183,125,meters,jsons/VE125_randls_68.json,1422321,1617395,40,Woman
15,331300,DepthScenes,duration_manipulation_targetAtFixation,jsons/VE125_randls_68.json,http://54.235.29.9/FacialAge/BNav_EC2/DepthDuration/v2_depth_duration_MTurk/v2_DepthDuration_HTML.html#155,155,1440,789,1440,900,9-31-2022,10-8-33,16,depth_duration_stimuli/002057_2014-06-24_21-00-13_260595134347_rgbf000120-resize_1/002057_2014-06-24_21-00-13_260595134347_rgbf000120-resize_1-target.png,125,2.967,35,9279,125,meters,jsons/VE125_randls_68.json,1422321,1617395,40,Woman
16,331300,DepthScenes,duration_manipulation_targetAtFixation,jsons/VE125_randls_68.json,http://54.235.29.9/FacialAge/BNav_EC2/DepthDuration/v2_depth_duration_MTurk/v2_DepthDuration_HTML.html#155,155,1440,789,1440,900,9-31-2022,10-8-33,17,depth_duration_stimuli/000709_2014-06-08_13-51-55_260595134347_rgbf000068-resize_3/000709_2014-06-08_13-51-55_260595134347_rgbf000068-resize_3-target.png,125,1.8030000000000002,32,5989,125,meters,jsons/VE125_randls_68.json,1422321,1617395,40,Woman
17,331300,DepthScenes,duration_manipulation_targetAtFixation,jsons/VE125_randls_68.json,http://54.235.29.9/FacialAge/BNav_EC2/DepthDuration/v2_depth_duration_MTurk/v2_DepthDuration_HTML.html#155,155,1440,789,1440,900,9-31-2022,10-8-33,18,depth_duration_stimuli/001199_2014-06-17_16-03-48_260595134347_rgbf000077-resize_0/001199_2014-06-17_16-03-48_260595134347_rgbf000077-resize_0-target.png,125,3.4375,25,8936,125,meters,jsons/VE125_randls_68.json,1422321,1617395,40,Woman
18,331300,DepthScenes,duration_manipulation_targetAtFixation,jsons/VE125_randls_68.json,http://54.235.29.9/FacialAge/BNav_EC2/DepthDuration/v2_depth_duration_MTurk/v2_DepthDuration_HTML.html#155,155,1440,789,1440,900,9-31-2022,10-8-33,19,depth_duration_stimuli/000502_2014-06-08_23-02-32_260595134347_rgbf000063-resize_4/000502_2014-06-08_23-02-32_260595134347_rgbf000063-resize_4-target.png,125,2.431,20,5950,125,meters,jsons/VE125_randls_68.json,1422321,1617395,40,Woman
19,331300,DepthScenes,duration_manipulation_targetAtFixation,jsons/VE125_randls_68.json,http://54.235.29.9/FacialAge/BNav_EC2/DepthDuration/v2_depth_duration_MTurk/v2_DepthDuration_HTML.html#155,155,1440,789,1440,900,9-31-2022,10-8-33,20,depth_duration_stimuli/000493_2014-06-09_21-01-18_260595134347_rgbf000196-resize_3/000493_2014-06-09_21-01-18_260595134347_rgbf000196-resize_3-target.png,125,3.44,25,9552,125,meters,jsons/VE125_randls_68.json,1422321,1617395,40,Woman
20,331300,DepthScenes,duration_manipulation_targetAtFixation,jsons/VE125_randls_68.json,http://54.235.29.9/FacialAge/BNav_EC2/DepthDuration/v2_depth_duration_MTurk/v2_DepthDuration_HTML.html#155,155,1440,789,1440,900,9-31-2022,10-8-33,21,depth_duration_stimuli/000191_2014-05-12_17-07-38_260595134347_rgbf000199-resize_0/000191_2014-05-12_17-07-38_260595134347_rgbf000199-resize_0-target.png,125,3.7995,45,5907,126,meters,jsons/VE125_randls_68.json,1422321,1617395,40,Woman
21,331300,DepthScenes,duration_manipulation_targetAtFixation,jsons/VE125_randls_68.json,http://54.235.29.9/FacialAge/BNav_EC2/DepthDuration/v2_depth_duration_MTurk/v2_DepthDuration_HTML.html#155,155,1440,789,1440,900,9-31-2022,10-8-33,22,depth_duration_stimuli/001808_2014-06-26_20-50-58_260595134347_rgbf000029-resize_1/001808_2014-06-26_20-50-58_260595134347_rgbf000029-resize_1-target.png,125,4.249,50,9059,126,meters,jsons/VE125_randls_68.json,1422321,1617395,40,Woman
22,331300,DepthScenes,duration_manipulation_targetAtFixation,jsons/VE125_randls_68.json,http://54.235.29.9/FacialAge/BNav_EC2/DepthDuration/v2_depth_duration_MTurk/v2_DepthDuration_HTML.html#155,155,1440,789,1440,900,9-31-2022,10-8-33,23,depth_duration_stimuli/001815_2014-06-26_20-52-55_260595134347_rgbf000020-resize_0/001815_2014-06-26_20-52-55_260595134347_rgbf000020-resize_0-target.png,125,3.3865,35,6241,125,meters,jsons/VE125_randls_68.json,1422321,1617395,40,Woman
23,331300,DepthScenes,duration_manipulation_targetAtFixation,jsons/VE125_randls_68.json,http://54.235.29.9/FacialAge/BNav_EC2/DepthDuration/v2_depth_duration_MTurk/v2_DepthDuration_HTML.html#155,155,1440,789,1440,900,9-31-2022,10-8-33,24,depth_duration_stimuli/000906_2014-06-08_13-35-43_260595134347_rgbf000155-resize_1/000906_2014-06-08_13-35-43_260595134347_rgbf000155-resize_1-target.png,125,2.8489999999999998,30,8862,125,meters,jsons/VE125_randls_68.json,1422321,1617395,40,Woman
24,331300,DepthScenes,duration_manipulation_targetAtFixation,jsons/VE125_randls_68.json,http://54.235.29.9/FacialAge/BNav_EC2/DepthDuration/v2_depth_duration_MTurk/v2_DepthDuration_HTML.html#155,155,1440,789,1440,900,9-31-2022,10-8-33,25,depth_duration_stimuli/002805_2014-06-22_19-54-03_094959634447_rgbf000079-resize_1/002805_2014-06-22_19-54-03_094959634447_rgbf000079-resize_1-target.png,125,3.1439999999999997,25,9030,126,meters,jsons/VE125_randls_68.json,1422321,1617395,40,Woman
25,331300,DepthScenes,duration_manipulation_targetAtFixation,jsons/VE125_randls_68.json,http://54.235.29.9/FacialAge/BNav_EC2/DepthDuration/v2_depth_duration_MTurk/v2_DepthDuration_HTML.html#155,155,1440,789,1440,900,9-31-2022,10-8-33,26,depth_duration_stimuli/002549_2014-06-24_13-41-39_094959634447_rgbf000022-resize_3/002549_2014-06-24_13-41-39_094959634447_rgbf000022-resize_3-target.png,125,1.476,40,10753,126,meters,jsons/VE125_randls_68.json,1422321,1617395,40,Woman
26,331300,DepthScenes,duration_manipulation_targetAtFixation,jsons/VE125_randls_68.json,http://54.235.29.9/FacialAge/BNav_EC2/DepthDuration/v2_depth_duration_MTurk/v2_DepthDuration_HTML.html#155,155,1440,789,1440,900,9-31-2022,10-8-33,27,depth_duration_stimuli/002750_2014-06-22_19-08-03_094959634447_rgbf000094-resize_4/002750_2014-06-22_19-08-03_094959634447_rgbf000094-resize_4-target.png,125,2.354,42,7152,124,meters,jsons/VE125_randls_68.json,1422321,1617395,40,Woman
27,331300,DepthScenes,duration_manipulation_targetAtFixation,jsons/VE125_randls_68.json,http://54.235.29.9/FacialAge/BNav_EC2/DepthDuration/v2_depth_duration_MTurk/v2_DepthDuration_HTML.html#155,155,1440,789,1440,900,9-31-2022,10-8-33,28,depth_duration_stimuli/001570_2014-06-20_17-21-09_260595134347_rgbf000135-resize_4/001570_2014-06-20_17-21-09_260595134347_rgbf000135-resize_4-target.png,125,4.467,40,11329,125,meters,jsons/VE125_randls_68.json,1422321,1617395,40,Woman
28,331300,DepthScenes,duration_manipulation_targetAtFixation,jsons/VE125_randls_68.json,http://54.235.29.9/FacialAge/BNav_EC2/DepthDuration/v2_depth_duration_MTurk/v2_DepthDuration_HTML.html#155,155,1440,789,1440,900,9-31-2022,10-8-33,29,depth_duration_stimuli/001392_2014-06-19_16-07-59_260595134347_rgbf000046-resize_1/001392_2014-06-19_16-07-59_260595134347_rgbf000046-resize_1-target.png,125,4.135,35,6171,125,meters,jsons/VE125_randls_68.json,1422321,1617395,40,Woman
29,331300,DepthScenes,duration_manipulation_targetAtFixation,jsons/VE125_randls_68.json,http://54.235.29.9/FacialAge/BNav_EC2/DepthDuration/v2_depth_duration_MTurk/v2_DepthDuration_HTML.html#155,155,1440,789,1440,900,9-31-2022,10-8-33,30,depth_duration_stimuli/000375_2014-06-08_11-17-29_260595134347_rgbf000133-resize_2/000375_2014-06-08_11-17-29_260595134347_rgbf000133-resize-original.jpg,125,4.718,60,10275,126,meters,jsons/VE125_randls_68.json,1422321,1617395,40,Woman
30,331300,DepthScenes,duration_manipulation_targetAtFixation,jsons/VE125_randls_68.json,http://54.235.29.9/FacialAge/BNav_EC2/DepthDuration/v2_depth_duration_MTurk/v2_DepthDuration_HTML.html#155,155,1440,789,1440,900,9-31-2022,10-8-33,31,depth_duration_stimuli/001449_2014-06-19_17-01-27_260595134347_rgbf000116-resize_2/001449_2014-06-19_17-01-27_260595134347_rgbf000116-resize_2-target.png,125,3.452,65,9954,124,meters,jsons/VE125_randls_68.json,1422321,1617395,40,Woman
31,331300,DepthScenes,duration_manipulation_targetAtFixation,jsons/VE125_randls_68.json,http://54.235.29.9/FacialAge/BNav_EC2/DepthDuration/v2_depth_duration_MTurk/v2_DepthDuration_HTML.html#155,155,1440,789,1440,900,9-31-2022,10-8-33,32,depth_duration_stimuli/001450_2014-06-19_17-02-03_260595134347_rgbf000203-resize_4/001450_2014-06-19_17-02-03_260595134347_rgbf000203-resize_4-target.png,125,4.0106666666667,41,6224,126,meters,jsons/VE125_randls_68.json,1422321,1617395,40,Woman
32,331300,DepthScenes,duration_manipulation_targetAtFixation,jsons/VE125_randls_68.json,http://54.235.29.9/FacialAge/BNav_EC2/DepthDuration/v2_depth_duration_MTurk/v2_DepthDuration_HTML.html#155,155,1440,789,1440,900,9-31-2022,10-8-33,33,depth_duration_stimuli/002905_2014-06-03_18-04-43_094959634447_rgbf000151-resize_2/002905_2014-06-03_18-04-43_094959634447_rgbf000151-resize_2-target.png,125,2.0295,42,9731,126,meters,jsons/VE125_randls_68.json,1422321,1617395,40,Woman
33,331300,DepthScenes,duration_manipulation_targetAtFixation,jsons/VE125_randls_68.json,http://54.235.29.9/FacialAge/BNav_EC2/DepthDuration/v2_depth_duration_MTurk/v2_DepthDuration_HTML.html#155,155,1440,789,1440,900,9-31-2022,10-8-33,34,depth_duration_stimuli/003423_2014-05-21_10-23-26_094959634447_rgbf002665-resize_2/003423_2014-05-21_10-23-26_094959634447_rgbf002665-resize_2-target.png,125,3.2575,24,6153,125,meters,jsons/VE125_randls_68.json,1422321,1617395,40,Woman
34,331300,DepthScenes,duration_manipulation_targetAtFixation,jsons/VE125_randls_68.json,http://54.235.29.9/FacialAge/BNav_EC2/DepthDuration/v2_depth_duration_MTurk/v2_DepthDuration_HTML.html#155,155,1440,789,1440,900,9-31-2022,10-8-33,35,depth_duration_stimuli/002445_2014-06-28_20-32-16_260595134347_rgbf000029-resize_4/002445_2014-06-28_20-32-16_260595134347_rgbf000029-resize_4-target.png,125,2.5315,35,6477,125,meters,jsons/VE125_randls_68.json,1422321,1617395,40,Woman
35,331300,DepthScenes,duration_manipulation_targetAtFixation,jsons/VE125_randls_68.json,http://54.235.29.9/FacialAge/BNav_EC2/DepthDuration/v2_depth_duration_MTurk/v2_DepthDuration_HTML.html#155,155,1440,789,1440,900,9-31-2022,10-8-33,36,depth_duration_stimuli/000780_2014-06-08_22-28-29_260595134347_rgbf000126-resize_1/000780_2014-06-08_22-28-29_260595134347_rgbf000126-resize_1-target.png,125,3.3825,35,11362,126,meters,jsons/VE125_randls_68.json,1422321,1617395,40,Woman
36,331300,DepthScenes,duration_manipulation_targetAtFixation,jsons/VE125_randls_68.json,http://54.235.29.9/FacialAge/BNav_EC2/DepthDuration/v2_depth_duration_MTurk/v2_DepthDuration_HTML.html#155,155,1440,789,1440,900,9-31-2022,10-8-33,37,depth_duration_stimuli/000009_2014-05-26_14-32-05_260595134347_rgbf000034-resize_3/000009_2014-05-26_14-32-05_260595134347_rgbf000034-resize_3-target.png,125,3.8715,25,10110,125,meters,jsons/VE125_randls_68.json,1422321,1617395,40,Woman
37,331300,DepthScenes,duration_manipulation_targetAtFixation,jsons/VE125_randls_68.json,http://54.235.29.9/FacialAge/BNav_EC2/DepthDuration/v2_depth_duration_MTurk/v2_DepthDuration_HTML.html#155,155,1440,789,1440,900,9-31-2022,10-8-33,38,depth_duration_stimuli/001828_2014-06-26_21-40-03_260595134347_rgbf000024-resize_0/001828_2014-06-26_21-40-03_260595134347_rgbf000024-resize_0-target.png,125,4.8260000000000005,26,6452,126,meters,jsons/VE125_randls_68.json,1422321,1617395,40,Woman
38,331300,DepthScenes,duration_manipulation_targetAtFixation,jsons/VE125_randls_68.json,http://54.235.29.9/FacialAge/BNav_EC2/DepthDuration/v2_depth_duration_MTurk/v2_DepthDuration_HTML.html#155,155,1440,789,1440,900,9-31-2022,10-8-33,39,depth_duration_stimuli/000642_2014-06-08_16-59-25_260595134347_rgbf000098-resize_2/000642_2014-06-08_16-59-25_260595134347_rgbf000098-resize_2-target.png,125,2.8815,50,12296,125,meters,jsons/VE125_randls_68.json,1422321,1617395,40,Woman
39,331300,DepthScenes,duration_manipulation_targetAtFixation,jsons/VE125_randls_68.json,http://54.235.29.9/FacialAge/BNav_EC2/DepthDuration/v2_depth_duration_MTurk/v2_DepthDuration_HTML.html#155,155,1440,789,1440,900,9-31-2022,10-8-33,40,depth_duration_stimuli/002425_2014-06-28_20-27-29_260595134347_rgbf000031-resize_8/002425_2014-06-28_20-27-29_260595134347_rgbf000031-resize_8-target.png,125,3.8960000000000004,55,6436,126,meters,jsons/VE125_randls_68.json,1422321,1617395,40,Woman
40,331300,DepthScenes,duration_manipulation_targetAtFixation,jsons/VE125_randls_68.json,http://54.235.29.9/FacialAge/BNav_EC2/DepthDuration/v2_depth_duration_MTurk/v2_DepthDuration_HTML.html#155,155,1440,789,1440,900,9-31-2022,10-8-33,41,depth_duration_stimuli/000788_2014-06-08_22-34-36_260595134347_rgbf000131-resize_1/000788_2014-06-08_22-34-36_260595134347_rgbf000131-resize_1-target.png,125,3.359,45,10531,126,meters,jsons/VE125_randls_68.json,1422321,1617395,40,Woman
41,331300,DepthScenes,duration_manipulation_targetAtFixation,jsons/VE125_randls_68.json,http://54.235.29.9/FacialAge/BNav_EC2/DepthDuration/v2_depth_duration_MTurk/v2_DepthDuration_HTML.html#155,155,1440,789,1440,900,9-31-2022,10-8-33,42,depth_duration_stimuli/001235_2014-06-17_16-37-36_260595134347_rgbf000084-resize_4/001235_2014-06-17_16-37-36_260595134347_rgbf000084-resize_4-target.png,125,3.6605,36,6919,125,meters,jsons/VE125_randls_68.json,1422321,1617395,40,Woman
42,331300,DepthScenes,duration_manipulation_targetAtFixation,jsons/VE125_randls_68.json,http://54.235.29.9/FacialAge/BNav_EC2/DepthDuration/v2_depth_duration_MTurk/v2_DepthDuration_HTML.html#155,155,1440,789,1440,900,9-31-2022,10-8-33,43,depth_duration_stimuli/002763_2014-06-22_19-13-10_094959634447_rgbf000075-resize_4/002763_2014-06-22_19-13-10_094959634447_rgbf000075-resize_4-target.png,125,1.68375,36,9274,125,meters,jsons/VE125_randls_68.json,1422321,1617395,40,Woman
43,331300,DepthScenes,duration_manipulation_targetAtFixation,jsons/VE125_randls_68.json,http://54.235.29.9/FacialAge/BNav_EC2/DepthDuration/v2_depth_duration_MTurk/v2_DepthDuration_HTML.html#155,155,1440,789,1440,900,9-31-2022,10-8-33,44,depth_duration_stimuli/002209_2014-06-28_18-36-10_260595134347_rgbf000051-resize_1/002209_2014-06-28_18-36-10_260595134347_rgbf000051-resize_1-target.png,125,2.057,50,5340,126,meters,jsons/VE125_randls_68.json,1422321,1617395,40,Woman
44,331300,DepthScenes,duration_manipulation_targetAtFixation,jsons/VE125_randls_68.json,http://54.235.29.9/FacialAge/BNav_EC2/DepthDuration/v2_depth_duration_MTurk/v2_DepthDuration_HTML.html#155,155,1440,789,1440,900,9-31-2022,10-8-33,45,depth_duration_stimuli/000787_2014-06-08_22-33-53_260595134347_rgbf000175-resize_1/000787_2014-06-08_22-33-53_260595134347_rgbf000175-resize-original.jpg,125,4.784,35,9769,125,meters,jsons/VE125_randls_68.json,1422321,1617395,40,Woman
45,331300,DepthScenes,duration_manipulation_targetAtFixation,jsons/VE125_randls_68.json,http://54.235.29.9/FacialAge/BNav_EC2/DepthDuration/v2_depth_duration_MTurk/v2_DepthDuration_HTML.html#155,155,1440,789,1440,900,9-31-2022,10-8-33,46,depth_duration_stimuli/001059_2014-06-08_21-53-27_260595134347_rgbf000061-resize_4/001059_2014-06-08_21-53-27_260595134347_rgbf000061-resize_4-target.png,125,2.4185,45,9956,125,meters,jsons/VE125_randls_68.json,1422321,1617395,40,Woman
46,331300,DepthScenes,duration_manipulation_targetAtFixation,jsons/VE125_randls_68.json,http://54.235.29.9/FacialAge/BNav_EC2/DepthDuration/v2_depth_duration_MTurk/v2_DepthDuration_HTML.html#155,155,1440,789,1440,900,9-31-2022,10-8-33,47,depth_duration_stimuli/001032_2014-06-08_13-23-17_260595134347_rgbf000021-resize_3/001032_2014-06-08_13-23-17_260595134347_rgbf000021-resize_3-target.png,125,3.2725,60,5309,126,meters,jsons/VE125_randls_68.json,1422321,1617395,40,Woman
47,331300,DepthScenes,duration_manipulation_targetAtFixation,jsons/VE125_randls_68.json,http://54.235.29.9/FacialAge/BNav_EC2/DepthDuration/v2_depth_duration_MTurk/v2_DepthDuration_HTML.html#155,155,1440,789,1440,900,9-31-2022,10-8-33,48,depth_duration_stimuli/002788_2014-06-22_19-36-03_094959634447_rgbf000088-resize_2/002788_2014-06-22_19-36-03_094959634447_rgbf000088-resize_2-target.png,125,1.6465,25,9010,126,meters,jsons/VE125_randls_68.json,1422321,1617395,40,Woman
48,331300,DepthScenes,duration_manipulation_targetAtFixation,jsons/VE125_randls_68.json,http://54.235.29.9/FacialAge/BNav_EC2/DepthDuration/v2_depth_duration_MTurk/v2_DepthDuration_HTML.html#155,155,1440,789,1440,900,9-31-2022,10-8-33,49,depth_duration_stimuli/000749_2014-06-08_21-55-06_260595134347_rgbf000070-resize_2/000749_2014-06-08_21-55-06_260595134347_rgbf000070-resize_2-target.png,125,2.331,35,5567,126,meters,jsons/VE125_randls_68.json,1422321,1617395,40,Woman
49,331300,DepthScenes,duration_manipulation_targetAtFixation,jsons/VE125_randls_68.json,http://54.235.29.9/FacialAge/BNav_EC2/DepthDuration/v2_depth_duration_MTurk/v2_DepthDuration_HTML.html#155,155,1440,789,1440,900,9-31-2022,10-8-33,50,depth_duration_stimuli/000469_2014-06-09_19-42-10_260595134347_rgbf000081-resize_1/000469_2014-06-09_19-42-10_260595134347_rgbf000081-resize_1-target.png,125,1.652,25,9287,126,meters,jsons/VE125_randls_68.json,1422321,1617395,40,Woman
50,331300,DepthScenes,duration_manipulation_targetAtFixation,jsons/VE125_randls_68.json,http://54.235.29.9/FacialAge/BNav_EC2/DepthDuration/v2_depth_duration_MTurk/v2_DepthDuration_HTML.html#155,155,1440,789,1440,900,9-31-2022,10-8-33,51,depth_duration_stimuli/000483_2014-06-09_20-41-45_260595134347_rgbf000116-resize_4/000483_2014-06-09_20-41-45_260595134347_rgbf000116-resize_4-target.png,125,1.337,30,5596,126,meters,jsons/VE125_randls_68.json,1422321,1617395,40,Woman
51,331300,DepthScenes,duration_manipulation_targetAtFixation,jsons/VE125_randls_68.json,http://54.235.29.9/FacialAge/BNav_EC2/DepthDuration/v2_depth_duration_MTurk/v2_DepthDuration_HTML.html#155,155,1440,789,1440,900,9-31-2022,10-8-33,52,depth_duration_stimuli/001055_2014-06-08_18-45-35_260595134347_rgbf000111-resize_4/001055_2014-06-08_18-45-35_260595134347_rgbf000111-resize_4-target.png,125,2.4290000000000003,45,5372,126,meters,jsons/VE125_randls_68.json,1422321,1617395,40,Woman
52,331300,DepthScenes,duration_manipulation_targetAtFixation,jsons/VE125_randls_68.json,http://54.235.29.9/FacialAge/BNav_EC2/DepthDuration/v2_depth_duration_MTurk/v2_DepthDuration_HTML.html#155,155,1440,789,1440,900,9-31-2022,10-8-33,53,depth_duration_stimuli/000549_2014-06-08_22-10-24_260595134347_rgbf000247-resize_3/000549_2014-06-08_22-10-24_260595134347_rgbf000247-resize_3-target.png,125,1.841,40,5316,126,meters,jsons/VE125_randls_68.json,1422321,1617395,40,Woman
53,331300,DepthScenes,duration_manipulation_targetAtFixation,jsons/VE125_randls_68.json,http://54.235.29.9/FacialAge/BNav_EC2/DepthDuration/v2_depth_duration_MTurk/v2_DepthDuration_HTML.html#155,155,1440,789,1440,900,9-31-2022,10-8-33,54,depth_duration_stimuli/000810_2014-06-08_17-20-01_260595134347_rgbf000105-resize_0/000810_2014-06-08_17-20-01_260595134347_rgbf000105-resize_0-target.png,125,1.4865,20,11051,126,meters,jsons/VE125_randls_68.json,1422321,1617395,40,Woman
54,331300,DepthScenes,duration_manipulation_targetAtFixation,jsons/VE125_randls_68.json,http://54.235.29.9/FacialAge/BNav_EC2/DepthDuration/v2_depth_duration_MTurk/v2_DepthDuration_HTML.html#155,155,1440,789,1440,900,9-31-2022,10-8-33,55,depth_duration_stimuli/001214_2014-06-17_16-13-55_260595134347_rgbf000111-resize_0/001214_2014-06-17_16-13-55_260595134347_rgbf000111-resize_0-target.png,125,2.6505,25,4796,126,meters,jsons/VE125_randls_68.json,1422321,1617395,40,Woman
55,331300,DepthScenes,duration_manipulation_targetAtFixation,jsons/VE125_randls_68.json,http://54.235.29.9/FacialAge/BNav_EC2/DepthDuration/v2_depth_duration_MTurk/v2_DepthDuration_HTML.html#155,155,1440,789,1440,900,9-31-2022,10-8-33,56,depth_duration_stimuli/001092_2014-06-15_17-34-58_260595134347_rgbf000171-resize_3/001092_2014-06-15_17-34-58_260595134347_rgbf000171-resize_3-target.png,125,2.6935,22,10014,125,meters,jsons/VE125_randls_68.json,1422321,1617395,40,Woman
56,331300,DepthScenes,duration_manipulation_targetAtFixation,jsons/VE125_randls_68.json,http://54.235.29.9/FacialAge/BNav_EC2/DepthDuration/v2_depth_duration_MTurk/v2_DepthDuration_HTML.html#155,155,1440,789,1440,900,9-31-2022,10-8-33,57,depth_duration_stimuli/002545_2014-06-24_13-38-53_094959634447_rgbf000080-resize_4/002545_2014-06-24_13-38-53_094959634447_rgbf000080-resize_4-target.png,125,1.9205,45,5851,125,meters,jsons/VE125_randls_68.json,1422321,1617395,40,Woman
57,331300,DepthScenes,duration_manipulation_targetAtFixation,jsons/VE125_randls_68.json,http://54.235.29.9/FacialAge/BNav_EC2/DepthDuration/v2_depth_duration_MTurk/v2_DepthDuration_HTML.html#155,155,1440,789,1440,900,9-31-2022,10-8-33,58,depth_duration_stimuli/002989_2014-06-15_12-25-03_094959634447_rgbf000150-resize_3/002989_2014-06-15_12-25-03_094959634447_rgbf000150-resize_3-target.png,125,4.1975,32,6144,126,meters,jsons/VE125_randls_68.json,1422321,1617395,40,Woman
58,331300,DepthScenes,duration_manipulation_targetAtFixation,jsons/VE125_randls_68.json,http://54.235.29.9/FacialAge/BNav_EC2/DepthDuration/v2_depth_duration_MTurk/v2_DepthDuration_HTML.html#155,155,1440,789,1440,900,9-31-2022,10-8-33,59,depth_duration_stimuli/000866_2014-06-09_20-45-42_260595134347_rgbf000139-resize_1/000866_2014-06-09_20-45-42_260595134347_rgbf000139-resize_1-target.png,125,3.2155,15,11709,126,meters,jsons/VE125_randls_68.json,1422321,1617395,40,Woman
59,331300,DepthScenes,duration_manipulation_targetAtFixation,jsons/VE125_randls_68.json,http://54.235.29.9/FacialAge/BNav_EC2/DepthDuration/v2_depth_duration_MTurk/v2_DepthDuration_HTML.html#155,155,1440,789,1440,900,9-31-2022,10-8-33,60,depth_duration_stimuli/001244_2014-06-17_16-47-45_260595134347_rgbf000030-resize_4/001244_2014-06-17_16-47-45_260595134347_rgbf000030-resize_4-target.png,125,2.0425,16,7641,126,meters,jsons/VE125_randls_68.json,1422321,1617395,40,Woman
60,331300,DepthScenes,duration_manipulation_targetAtFixation,jsons/VE125_randls_68.json,http://54.235.29.9/FacialAge/BNav_EC2/DepthDuration/v2_depth_duration_MTurk/v2_DepthDuration_HTML.html#155,155,1440,789,1440,900,9-31-2022,10-8-33,61,depth_duration_stimuli/003495_2014-05-21_16-01-51_094959634447_rgbf000100-resize_3/003495_2014-05-21_16-01-51_094959634447_rgbf000100-resize_3-target.png,125,1.6255,18,6857,124,meters,jsons/VE125_randls_68.json,1422321,1617395,40,Woman
61,331300,DepthScenes,duration_manipulation_targetAtFixation,jsons/VE125_randls_68.json,http://54.235.29.9/FacialAge/BNav_EC2/DepthDuration/v2_depth_duration_MTurk/v2_DepthDuration_HTML.html#155,155,1440,789,1440,900,9-31-2022,10-8-33,62,depth_duration_stimuli/002043_2014-06-24_20-29-38_260595134347_rgbf000039-resize_4/002043_2014-06-24_20-29-38_260595134347_rgbf000039-resize_4-target.png,125,2.8435,35,6111,125,meters,jsons/VE125_randls_68.json,1422321,1617395,40,Woman
62,331300,DepthScenes,duration_manipulation_targetAtFixation,jsons/VE125_randls_68.json,http://54.235.29.9/FacialAge/BNav_EC2/DepthDuration/v2_depth_duration_MTurk/v2_DepthDuration_HTML.html#155,155,1440,789,1440,900,9-31-2022,10-8-33,63,depth_duration_stimuli/003048_2014-06-15_13-49-43_094959634447_rgbf000150-resize_1/003048_2014-06-15_13-49-43_094959634447_rgbf000150-resize_1-target.png,125,4.0035,30,5450,125,meters,jsons/VE125_randls_68.json,1422321,1617395,40,Woman
63,331300,DepthScenes,duration_manipulation_targetAtFixation,jsons/VE125_randls_68.json,http://54.235.29.9/FacialAge/BNav_EC2/DepthDuration/v2_depth_duration_MTurk/v2_DepthDuration_HTML.html#155,155,1440,789,1440,900,9-31-2022,10-8-33,64,depth_duration_stimuli/000773_2014-06-08_22-24-54_260595134347_rgbf000093-resize_1/000773_2014-06-08_22-24-54_260595134347_rgbf000093-resize_1-target.png,125,4.973,32,6502,125,meters,jsons/VE125_randls_68.json,1422321,1617395,40,Woman
64,331300,DepthScenes,duration_manipulation_targetAtFixation,jsons/VE125_randls_68.json,http://54.235.29.9/FacialAge/BNav_EC2/DepthDuration/v2_depth_duration_MTurk/v2_DepthDuration_HTML.html#155,155,1440,789,1440,900,9-31-2022,10-8-33,65,depth_duration_stimuli/002414_2014-06-28_20-24-58_260595134347_rgbf000067-resize_4/002414_2014-06-28_20-24-58_260595134347_rgbf000067-resize_4-target.png,125,4.363,25,16077,125,meters,jsons/VE125_randls_68.json,1422321,1617395,40,Woman
65,331300,DepthScenes,duration_manipulation_targetAtFixation,jsons/VE125_randls_68.json,http://54.235.29.9/FacialAge/BNav_EC2/DepthDuration/v2_depth_duration_MTurk/v2_DepthDuration_HTML.html#155,155,1440,789,1440,900,9-31-2022,10-8-33,66,depth_duration_stimuli/001222_2014-06-17_16-24-06_260595134347_rgbf000073-resize_0/001222_2014-06-17_16-24-06_260595134347_rgbf000073-resize-original.jpg,125,1.4385,42,10409,126,meters,jsons/VE125_randls_68.json,1422321,1617395,40,Woman
66,331300,DepthScenes,duration_manipulation_targetAtFixation,jsons/VE125_randls_68.json,http://54.235.29.9/FacialAge/BNav_EC2/DepthDuration/v2_depth_duration_MTurk/v2_DepthDuration_HTML.html#155,155,1440,789,1440,900,9-31-2022,10-8-33,67,depth_duration_stimuli/001150_2014-06-17_15-27-34_260595134347_rgbf000108-resize_2/001150_2014-06-17_15-27-34_260595134347_rgbf000108-resize_2-target.png,125,4.0325,35,9613,125,meters,jsons/VE125_randls_68.json,1422321,1617395,40,Woman
67,331300,DepthScenes,duration_manipulation_targetAtFixation,jsons/VE125_randls_68.json,http://54.235.29.9/FacialAge/BNav_EC2/DepthDuration/v2_depth_duration_MTurk/v2_DepthDuration_HTML.html#155,155,1440,789,1440,900,9-31-2022,10-8-33,68,depth_duration_stimuli/000665_2014-06-09_20-42-35_260595134347_rgbf000110-resize_1/000665_2014-06-09_20-42-35_260595134347_rgbf000110-resize_1-target.png,125,3.057,32,5120,126,meters,jsons/VE125_randls_68.json,1422321,1617395,40,Woman
68,331300,DepthScenes,duration_manipulation_targetAtFixation,jsons/VE125_randls_68.json,http://54.235.29.9/FacialAge/BNav_EC2/DepthDuration/v2_depth_duration_MTurk/v2_DepthDuration_HTML.html#155,155,1440,789,1440,900,9-31-2022,10-8-33,69,depth_duration_stimuli/000692_2014-06-08_13-09-42_260595134347_rgbf000199-resize_2/000692_2014-06-08_13-09-42_260595134347_rgbf000199-resize_2-target.png,125,3.661,45,8875,125,meters,jsons/VE125_randls_68.json,1422321,1617395,40,Woman
69,331300,DepthScenes,duration_manipulation_targetAtFixation,jsons/VE125_randls_68.json,http://54.235.29.9/FacialAge/BNav_EC2/DepthDuration/v2_depth_duration_MTurk/v2_DepthDuration_HTML.html#155,155,1440,789,1440,900,9-31-2022,10-8-33,70,depth_duration_stimuli/001094_2014-06-15_17-36-00_260595134347_rgbf000205-resize_0/001094_2014-06-15_17-36-00_260595134347_rgbf000205-resize_0-target.png,125,4.2175,31,6920,126,meters,jsons/VE125_randls_68.json,1422321,1617395,40,Woman
70,331300,DepthScenes,duration_manipulation_targetAtFixation,jsons/VE125_randls_68.json,http://54.235.29.9/FacialAge/BNav_EC2/DepthDuration/v2_depth_duration_MTurk/v2_DepthDuration_HTML.html#155,155,1440,789,1440,900,9-31-2022,10-8-33,71,depth_duration_stimuli/000436_2014-06-09_22-25-11_260595134347_rgbf000137-resize_1/000436_2014-06-09_22-25-11_260595134347_rgbf000137-resize_1-target.png,125,4.0705,32,9465,124,meters,jsons/VE125_randls_68.json,1422321,1617395,40,Woman
71,331300,DepthScenes,duration_manipulation_targetAtFixation,jsons/VE125_randls_68.json,http://54.235.29.9/FacialAge/BNav_EC2/DepthDuration/v2_depth_duration_MTurk/v2_DepthDuration_HTML.html#155,155,1440,789,1440,900,9-31-2022,10-8-33,72,depth_duration_stimuli/002444_2014-06-28_20-32-08_260595134347_rgbf000027-resize_0/002444_2014-06-28_20-32-08_260595134347_rgbf000027-resize_0-target.png,125,4.388999999999999,25,6109,125,meters,jsons/VE125_randls_68.json,1422321,1617395,40,Woman
72,331300,DepthScenes,duration_manipulation_targetAtFixation,jsons/VE125_randls_68.json,http://54.235.29.9/FacialAge/BNav_EC2/DepthDuration/v2_depth_duration_MTurk/v2_DepthDuration_HTML.html#155,155,1440,789,1440,900,9-31-2022,10-8-33,73,depth_duration_stimuli/002725_2014-06-22_11-47-51_094959634447_rgbf000070-resize_1/002725_2014-06-22_11-47-51_094959634447_rgbf000070-resize_1-target.png,125,2.195,20,8200,125,meters,jsons/VE125_randls_68.json,1422321,1617395,40,Woman
73,331300,DepthScenes,duration_manipulation_targetAtFixation,jsons/VE125_randls_68.json,http://54.235.29.9/FacialAge/BNav_EC2/DepthDuration/v2_depth_duration_MTurk/v2_DepthDuration_HTML.html#155,155,1440,789,1440,900,9-31-2022,10-8-33,74,depth_duration_stimuli/002344_2014-06-28_20-06-29_260595134347_rgbf000030-resize_1/002344_2014-06-28_20-06-29_260595134347_rgbf000030-resize_1-target.png,125,1.5795,23,6468,126,meters,jsons/VE125_randls_68.json,1422321,1617395,40,Woman
74,331300,DepthScenes,duration_manipulation_targetAtFixation,jsons/VE125_randls_68.json,http://54.235.29.9/FacialAge/BNav_EC2/DepthDuration/v2_depth_duration_MTurk/v2_DepthDuration_HTML.html#155,155,1440,789,1440,900,9-31-2022,10-8-33,75,depth_duration_stimuli/000878_2014-06-08_22-52-45_260595134347_rgbf000045-resize_2/000878_2014-06-08_22-52-45_260595134347_rgbf000045-resize_2-target.png,125,2.092,21,5537,129,meters,jsons/VE125_randls_68.json,1422321,1617395,40,Woman
75,331300,DepthScenes,duration_manipulation_targetAtFixation,jsons/VE125_randls_68.json,http://54.235.29.9/FacialAge/BNav_EC2/DepthDuration/v2_depth_duration_MTurk/v2_DepthDuration_HTML.html#155,155,1440,789,1440,900,9-31-2022,10-8-33,76,depth_duration_stimuli/002953_2014-06-08_17-32-18_094959634447_rgbf000059-resize_5/002953_2014-06-08_17-32-18_094959634447_rgbf000059-resize_5-target.png,125,1.551,35,6047,125,meters,jsons/VE125_randls_68.json,1422321,1617395,40,Woman
76,331300,DepthScenes,duration_manipulation_targetAtFixation,jsons/VE125_randls_68.json,http://54.235.29.9/FacialAge/BNav_EC2/DepthDuration/v2_depth_duration_MTurk/v2_DepthDuration_HTML.html#155,155,1440,789,1440,900,9-31-2022,10-8-33,77,depth_duration_stimuli/002279_2014-06-28_18-55-32_260595134347_rgbf000040-resize_5/002279_2014-06-28_18-55-32_260595134347_rgbf000040-resize_5-target.png,125,1.5043333333333,70,5702,126,meters,jsons/VE125_randls_68.json,1422321,1617395,40,Woman
77,331300,DepthScenes,duration_manipulation_targetAtFixation,jsons/VE125_randls_68.json,http://54.235.29.9/FacialAge/BNav_EC2/DepthDuration/v2_depth_duration_MTurk/v2_DepthDuration_HTML.html#155,155,1440,789,1440,900,9-31-2022,10-8-33,78,depth_duration_stimuli/000635_2014-06-08_16-38-42_260595134347_rgbf000106-resize_1/000635_2014-06-08_16-38-42_260595134347_rgbf000106-resize_1-target.png,125,2.074,36,9012,126,meters,jsons/VE125_randls_68.json,1422321,1617395,40,Woman
78,331300,DepthScenes,duration_manipulation_targetAtFixation,jsons/VE125_randls_68.json,http://54.235.29.9/FacialAge/BNav_EC2/DepthDuration/v2_depth_duration_MTurk/v2_DepthDuration_HTML.html#155,155,1440,789,1440,900,9-31-2022,10-8-33,79,depth_duration_stimuli/002509_2014-06-24_13-19-22_094959634447_rgbf000077-resize_0/002509_2014-06-24_13-19-22_094959634447_rgbf000077-resize_0-target.png,125,1.3065,56,9105,126,meters,jsons/VE125_randls_68.json,1422321,1617395,40,Woman
79,331300,DepthScenes,duration_manipulation_targetAtFixation,jsons/VE125_randls_68.json,http://54.235.29.9/FacialAge/BNav_EC2/DepthDuration/v2_depth_duration_MTurk/v2_DepthDuration_HTML.html#155,155,1440,789,1440,900,9-31-2022,10-8-33,80,depth_duration_stimuli/003338_2014-05-20_11-01-23_094959634447_rgbf000051-resize_6/003338_2014-05-20_11-01-23_094959634447_rgbf000051-resize_6-target.png,125,1.693,51,5635,126,meters,jsons/VE125_randls_68.json,1422321,1617395,40,Woman
80,331300,DepthScenes,duration_manipulation_targetAtFixation,jsons/VE125_randls_68.json,http://54.235.29.9/FacialAge/BNav_EC2/DepthDuration/v2_depth_duration_MTurk/v2_DepthDuration_HTML.html#155,155,1440,789,1440,900,9-31-2022,10-8-33,81,depth_duration_stimuli/002153_2014-06-25_21-27-18_260595134347_rgbf000038-resize_5/002153_2014-06-25_21-27-18_260595134347_rgbf000038-resize_5-target.png,125,2.505,42,5788,126,meters,jsons/VE125_randls_68.json,1422321,1617395,40,Woman
81,331300,DepthScenes,duration_manipulation_targetAtFixation,jsons/VE125_randls_68.json,http://54.235.29.9/FacialAge/BNav_EC2/DepthDuration/v2_depth_duration_MTurk/v2_DepthDuration_HTML.html#155,155,1440,789,1440,900,9-31-2022,10-8-33,82,depth_duration_stimuli/002660_2014-06-13_15-44-18_094959634447_rgbf001878-resize_2/002660_2014-06-13_15-44-18_094959634447_rgbf001878-resize_2-target.png,125,3.576,38,9779,126,meters,jsons/VE125_randls_68.json,1422321,1617395,40,Woman
82,331300,DepthScenes,duration_manipulation_targetAtFixation,jsons/VE125_randls_68.json,http://54.235.29.9/FacialAge/BNav_EC2/DepthDuration/v2_depth_duration_MTurk/v2_DepthDuration_HTML.html#155,155,1440,789,1440,900,9-31-2022,10-8-33,83,depth_duration_stimuli/002039_2014-06-24_20-22-38_260595134347_rgbf000084-resize_1/002039_2014-06-24_20-22-38_260595134347_rgbf000084-resize_1-target.png,125,4.408,60,9938,126,meters,jsons/VE125_randls_68.json,1422321,1617395,40,Woman
83,331300,DepthScenes,duration_manipulation_targetAtFixation,jsons/VE125_randls_68.json,http://54.235.29.9/FacialAge/BNav_EC2/DepthDuration/v2_depth_duration_MTurk/v2_DepthDuration_HTML.html#155,155,1440,789,1440,900,9-31-2022,10-8-33,84,depth_duration_stimuli/002103_2014-06-25_20-00-40_260595134347_rgbf000049-resize_0/002103_2014-06-25_20-00-40_260595134347_rgbf000049-resize_0-target.png,125,4.105,26,4799,125,meters,jsons/VE125_randls_68.json,1422321,1617395,40,Woman
84,331300,DepthScenes,duration_manipulation_targetAtFixation,jsons/VE125_randls_68.json,http://54.235.29.9/FacialAge/BNav_EC2/DepthDuration/v2_depth_duration_MTurk/v2_DepthDuration_HTML.html#155,155,1440,789,1440,900,9-31-2022,10-8-33,85,depth_duration_stimuli/000470_2014-06-09_19-42-40_260595134347_rgbf000094-resize_1/000470_2014-06-09_19-42-40_260595134347_rgbf000094-resize_1-target.png,125,1.831,25,9132,124,meters,jsons/VE125_randls_68.json,1422321,1617395,40,Woman
85,331300,DepthScenes,duration_manipulation_targetAtFixation,jsons/VE125_randls_68.json,http://54.235.29.9/FacialAge/BNav_EC2/DepthDuration/v2_depth_duration_MTurk/v2_DepthDuration_HTML.html#155,155,1440,789,1440,900,9-31-2022,10-8-33,86,depth_duration_stimuli/000109_2014-05-14_23-41-52_260595134347_rgbf000035-resize_9/000109_2014-05-14_23-41-52_260595134347_rgbf000035-resize_9-target.png,125,1.3545,22,7319,125,meters,jsons/VE125_randls_68.json,1422321,1617395,40,Woman
86,331300,DepthScenes,duration_manipulation_targetAtFixation,jsons/VE125_randls_68.json,http://54.235.29.9/FacialAge/BNav_EC2/DepthDuration/v2_depth_duration_MTurk/v2_DepthDuration_HTML.html#155,155,1440,789,1440,900,9-31-2022,10-8-33,87,depth_duration_stimuli/002213_2014-06-28_18-37-58_260595134347_rgbf000055-resize_1/002213_2014-06-28_18-37-58_260595134347_rgbf000055-resize_1-target.png,125,3.62,32,9826,126,meters,jsons/VE125_randls_68.json,1422321,1617395,40,Woman
87,331300,DepthScenes,duration_manipulation_targetAtFixation,jsons/VE125_randls_68.json,http://54.235.29.9/FacialAge/BNav_EC2/DepthDuration/v2_depth_duration_MTurk/v2_DepthDuration_HTML.html#155,155,1440,789,1440,900,9-31-2022,10-8-33,88,depth_duration_stimuli/000691_2014-06-08_13-08-50_260595134347_rgbf000132-resize_3/000691_2014-06-08_13-08-50_260595134347_rgbf000132-resize_3-target.png,125,4.1530000000000005,25,5112,125,meters,jsons/VE125_randls_68.json,1422321,1617395,40,Woman
88,331300,DepthScenes,duration_manipulation_targetAtFixation,jsons/VE125_randls_68.json,http://54.235.29.9/FacialAge/BNav_EC2/DepthDuration/v2_depth_duration_MTurk/v2_DepthDuration_HTML.html#155,155,1440,789,1440,900,9-31-2022,10-8-33,89,depth_duration_stimuli/000736_2014-06-08_18-24-15_260595134347_rgbf000206-resize_3/000736_2014-06-08_18-24-15_260595134347_rgbf000206-resize_3-target.png,125,3.515,50,10395,126,meters,jsons/VE125_randls_68.json,1422321,1617395,40,Woman
89,331300,DepthScenes,duration_manipulation_targetAtFixation,jsons/VE125_randls_68.json,http://54.235.29.9/FacialAge/BNav_EC2/DepthDuration/v2_depth_duration_MTurk/v2_DepthDuration_HTML.html#155,155,1440,789,1440,900,9-31-2022,10-8-33,90,depth_duration_stimuli/000137_2014-05-20_17-04-49_260595134347_rgbf000120-resize_1/000137_2014-05-20_17-04-49_260595134347_rgbf000120-resize_1-target.png,125,3.786,42,4974,126,meters,jsons/VE125_randls_68.json,1422321,1617395,40,Woman
90,331300,DepthScenes,duration_manipulation_targetAtFixation,jsons/VE125_randls_68.json,http://54.235.29.9/FacialAge/BNav_EC2/DepthDuration/v2_depth_duration_MTurk/v2_DepthDuration_HTML.html#155,155,1440,789,1440,900,9-31-2022,10-8-33,91,depth_duration_stimuli/002630_2014-06-24_14-47-50_094959634447_rgbf000055-resize_1/002630_2014-06-24_14-47-50_094959634447_rgbf000055-resize_1-target.png,125,3.0095,28,9428,126,meters,jsons/VE125_randls_68.json,1422321,1617395,40,Woman
91,331300,DepthScenes,duration_manipulation_targetAtFixation,jsons/VE125_randls_68.json,http://54.235.29.9/FacialAge/BNav_EC2/DepthDuration/v2_depth_duration_MTurk/v2_DepthDuration_HTML.html#155,155,1440,789,1440,900,9-31-2022,10-8-33,92,depth_duration_stimuli/002758_2014-06-22_19-11-20_094959634447_rgbf000128-resize_1/002758_2014-06-22_19-11-20_094959634447_rgbf000128-resize_1-target.png,125,2.555,24,5632,126,meters,jsons/VE125_randls_68.json,1422321,1617395,40,Woman
92,331300,DepthScenes,duration_manipulation_targetAtFixation,jsons/VE125_randls_68.json,http://54.235.29.9/FacialAge/BNav_EC2/DepthDuration/v2_depth_duration_MTurk/v2_DepthDuration_HTML.html#155,155,1440,789,1440,900,9-31-2022,10-8-33,93,depth_duration_stimuli/000506_2014-06-08_23-21-00_260595134347_rgbf000070-resize_7/000506_2014-06-08_23-21-00_260595134347_rgbf000070-resize_7-target.png,125,4.0585,26,13058,125,meters,jsons/VE125_randls_68.json,1422321,1617395,40,Woman
93,331300,DepthScenes,duration_manipulation_targetAtFixation,jsons/VE125_randls_68.json,http://54.235.29.9/FacialAge/BNav_EC2/DepthDuration/v2_depth_duration_MTurk/v2_DepthDuration_HTML.html#155,155,1440,789,1440,900,9-31-2022,10-8-33,94,depth_duration_stimuli/003079_2014-06-15_15-18-20_094959634447_rgbf000152-resize_8/003079_2014-06-15_15-18-20_094959634447_rgbf000152-resize_8-target.png,125,2.8775,60,5543,126,meters,jsons/VE125_randls_68.json,1422321,1617395,40,Woman
94,331300,DepthScenes,duration_manipulation_targetAtFixation,jsons/VE125_randls_68.json,http://54.235.29.9/FacialAge/BNav_EC2/DepthDuration/v2_depth_duration_MTurk/v2_DepthDuration_HTML.html#155,155,1440,789,1440,900,9-31-2022,10-8-33,95,depth_duration_stimuli/002118_2014-06-25_20-32-08_260595134347_rgbf000078-resize_1/002118_2014-06-25_20-32-08_260595134347_rgbf000078-resize_1-target.png,125,2.6460000000000004,25,9740,126,meters,jsons/VE125_randls_68.json,1422321,1617395,40,Woman
95,331300,DepthScenes,duration_manipulation_targetAtFixation,jsons/VE125_randls_68.json,http://54.235.29.9/FacialAge/BNav_EC2/DepthDuration/v2_depth_duration_MTurk/v2_DepthDuration_HTML.html#155,155,1440,789,1440,900,9-31-2022,10-8-33,96,depth_duration_stimuli/001516_2014-06-20_16-25-09_260595134347_rgbf000076-resize_2/001516_2014-06-20_16-25-09_260595134347_rgbf000076-resize_2-target.png,125,1.7445,15,5445,125,meters,jsons/VE125_randls_68.json,1422321,1617395,40,Woman
96,331300,DepthScenes,duration_manipulation_targetAtFixation,jsons/VE125_randls_68.json,http://54.235.29.9/FacialAge/BNav_EC2/DepthDuration/v2_depth_duration_MTurk/v2_DepthDuration_HTML.html#155,155,1440,789,1440,900,9-31-2022,10-8-33,97,depth_duration_stimuli/000682_2014-06-08_23-14-58_260595134347_rgbf000041-resize_5/000682_2014-06-08_23-14-58_260595134347_rgbf000041-resize_5-target.png,125,2.7239999999999998,62,5440,125,meters,jsons/VE125_randls_68.json,1422321,1617395,40,Woman
97,331300,DepthScenes,duration_manipulation_targetAtFixation,jsons/VE125_randls_68.json,http://54.235.29.9/FacialAge/BNav_EC2/DepthDuration/v2_depth_duration_MTurk/v2_DepthDuration_HTML.html#155,155,1440,789,1440,900,9-31-2022,10-8-33,98,depth_duration_stimuli/001650_2014-06-20_12-09-00_260595134347_rgbf000087-resize_3/001650_2014-06-20_12-09-00_260595134347_rgbf000087-resize_3-target.png,125,1.9505,52,6245,126,meters,jsons/VE125_randls_68.json,1422321,1617395,40,Woman
98,331300,DepthScenes,duration_manipulation_targetAtFixation,jsons/VE125_randls_68.json,http://54.235.29.9/FacialAge/BNav_EC2/DepthDuration/v2_depth_duration_MTurk/v2_DepthDuration_HTML.html#155,155,1440,789,1440,900,9-31-2022,10-8-33,99,depth_duration_stimuli/001540_2014-06-20_17-01-05_260595134347_rgbf000086-resize_2/001540_2014-06-20_17-01-05_260595134347_rgbf000086-resize-original.jpg,125,1.459,37,9859,125,meters,jsons/VE125_randls_68.json,1422321,1617395,40,Woman
99,331300,DepthScenes,duration_manipulation_targetAtFixation,jsons/VE125_randls_68.json,http://54.235.29.9/FacialAge/BNav_EC2/DepthDuration/v2_depth_duration_MTurk/v2_DepthDuration_HTML.html#155,155,1440,789,1440,900,9-31-2022,10-8-33,100,depth_duration_stimuli/002988_2014-06-15_12-24-20_094959634447_rgbf000150-resize_1/002988_2014-06-15_12-24-20_094959634447_rgbf000150-resize_1-target.png,125,4.7669999999999995,41,9228,126,meters,jsons/VE125_randls_68.json,1422321,1617395,40,Woman
100,331300,DepthScenes,duration_manipulation_targetAtFixation,jsons/VE125_randls_68.json,http://54.235.29.9/FacialAge/BNav_EC2/DepthDuration/v2_depth_duration_MTurk/v2_DepthDuration_HTML.html#155,155,1440,789,1440,900,9-31-2022,10-8-33,101,depth_duration_stimuli/001052_2014-06-08_18-24-54_260595134347_rgbf000130-resize_1/001052_2014-06-08_18-24-54_260595134347_rgbf000130-resize_1-target.png,125,4.1045,44,8050,125,meters,jsons/VE125_randls_68.json,1422321,1617395,40,Woman
101,331300,DepthScenes,duration_manipulation_targetAtFixation,jsons/VE125_randls_68.json,http://54.235.29.9/FacialAge/BNav_EC2/DepthDuration/v2_depth_duration_MTurk/v2_DepthDuration_HTML.html#155,155,1440,789,1440,900,9-31-2022,10-8-33,102,depth_duration_stimuli/001056_2014-06-08_18-46-44_260595134347_rgbf000068-resize_0/001056_2014-06-08_18-46-44_260595134347_rgbf000068-resize_0-target.png,125,2.6625,25,8599,126,meters,jsons/VE125_randls_68.json,1422321,1617395,40,Woman
102,331300,DepthScenes,duration_manipulation_targetAtFixation,jsons/VE125_randls_68.json,http://54.235.29.9/FacialAge/BNav_EC2/DepthDuration/v2_depth_duration_MTurk/v2_DepthDuration_HTML.html#155,155,1440,789,1440,900,9-31-2022,10-8-33,103,depth_duration_stimuli/002199_2014-06-28_18-33-56_260595134347_rgbf000074-resize_0/002199_2014-06-28_18-33-56_260595134347_rgbf000074-resize_0-target.png,125,1.996,52,4912,126,meters,jsons/VE125_randls_68.json,1422321,1617395,40,Woman
103,331300,DepthScenes,duration_manipulation_targetAtFixation,jsons/VE125_randls_68.json,http://54.235.29.9/FacialAge/BNav_EC2/DepthDuration/v2_depth_duration_MTurk/v2_DepthDuration_HTML.html#155,155,1440,789,1440,900,9-31-2022,10-8-33,104,depth_duration_stimuli/002663_2014-06-13_15-50-26_094959634447_rgbf000075-resize_1/002663_2014-06-13_15-50-26_094959634447_rgbf000075-resize_1-target.png,125,4.7495,25,8768,126,meters,jsons/VE125_randls_68.json,1422321,1617395,40,Woman
104,331300,DepthScenes,duration_manipulation_targetAtFixation,jsons/VE125_randls_68.json,http://54.235.29.9/FacialAge/BNav_EC2/DepthDuration/v2_depth_duration_MTurk/v2_DepthDuration_HTML.html#155,155,1440,789,1440,900,9-31-2022,10-8-33,105,depth_duration_stimuli/000409_2014-06-04_19-23-33_260595134347_rgbf000067-resize_0/000409_2014-06-04_19-23-33_260595134347_rgbf000067-resize_0-target.png,125,3.7335,23,6007,125,meters,jsons/VE125_randls_68.json,1422321,1617395,40,Woman
105,331300,DepthScenes,duration_manipulation_targetAtFixation,jsons/VE125_randls_68.json,http://54.235.29.9/FacialAge/BNav_EC2/DepthDuration/v2_depth_duration_MTurk/v2_DepthDuration_HTML.html#155,155,1440,789,1440,900,9-31-2022,10-8-33,106,depth_duration_stimuli/002784_2014-06-22_19-26-30_094959634447_rgbf000083-resize_3/002784_2014-06-22_19-26-30_094959634447_rgbf000083-resize_3-target.png,125,1.8046666666667,17,9804,125,meters,jsons/VE125_randls_68.json,1422321,1617395,40,Woman
106,331300,DepthScenes,duration_manipulation_targetAtFixation,jsons/VE125_randls_68.json,http://54.235.29.9/FacialAge/BNav_EC2/DepthDuration/v2_depth_duration_MTurk/v2_DepthDuration_HTML.html#155,155,1440,789,1440,900,9-31-2022,10-8-33,107,depth_duration_stimuli/001100_2014-06-15_17-46-26_260595134347_rgbf000225-resize_2/001100_2014-06-15_17-46-26_260595134347_rgbf000225-resize_2-target.png,125,2.24,18,5676,125,meters,jsons/VE125_randls_68.json,1422321,1617395,40,Woman
107,331300,DepthScenes,duration_manipulation_targetAtFixation,jsons/VE125_randls_68.json,http://54.235.29.9/FacialAge/BNav_EC2/DepthDuration/v2_depth_duration_MTurk/v2_DepthDuration_HTML.html#155,155,1440,789,1440,900,9-31-2022,10-8-33,108,depth_duration_stimuli/003534_2014-05-22_15-06-10_094959634447_rgbf000102-resize_4/003534_2014-05-22_15-06-10_094959634447_rgbf000102-resize_4-target.png,125,1.426,15,9394,126,meters,jsons/VE125_randls_68.json,1422321,1617395,40,Woman
108,331300,DepthScenes,duration_manipulation_targetAtFixation,jsons/VE125_randls_68.json,http://54.235.29.9/FacialAge/BNav_EC2/DepthDuration/v2_depth_duration_MTurk/v2_DepthDuration_HTML.html#155,155,1440,789,1440,900,9-31-2022,10-8-33,109,depth_duration_stimuli/002637_2014-06-24_14-51-13_094959634447_rgbf000066-resize_4/002637_2014-06-24_14-51-13_094959634447_rgbf000066-resize_4-target.png,125,1.9955,22,4947,126,meters,jsons/VE125_randls_68.json,1422321,1617395,40,Woman
109,331300,DepthScenes,duration_manipulation_targetAtFixation,jsons/VE125_randls_68.json,http://54.235.29.9/FacialAge/BNav_EC2/DepthDuration/v2_depth_duration_MTurk/v2_DepthDuration_HTML.html#155,155,1440,789,1440,900,9-31-2022,10-8-33,110,depth_duration_stimuli/001029_2014-06-08_13-17-57_260595134347_rgbf000065-resize_1/001029_2014-06-08_13-17-57_260595134347_rgbf000065-resize_1-target.png,125,3.0835,18,9639,126,meters,jsons/VE125_randls_68.json,1422321,1617395,40,Woman
110,331300,DepthScenes,duration_manipulation_targetAtFixation,jsons/VE125_randls_68.json,http://54.235.29.9/FacialAge/BNav_EC2/DepthDuration/v2_depth_duration_MTurk/v2_DepthDuration_HTML.html#155,155,1440,789,1440,900,9-31-2022,10-8-33,111,depth_duration_stimuli/000677_2014-06-08_23-10-32_260595134347_rgbf000158-resize_6/000677_2014-06-08_23-10-32_260595134347_rgbf000158-resize_6-target.png,125,3.556,62,5370,124,meters,jsons/VE125_randls_68.json,1422321,1617395,40,Woman
111,331300,DepthScenes,duration_manipulation_targetAtFixation,jsons/VE125_randls_68.json,http://54.235.29.9/FacialAge/BNav_EC2/DepthDuration/v2_depth_duration_MTurk/v2_DepthDuration_HTML.html#155,155,1440,789,1440,900,9-31-2022,10-8-33,112,depth_duration_stimuli/000917_2014-06-09_22-45-29_260595134347_rgbf000149-resize_3/000917_2014-06-09_22-45-29_260595134347_rgbf000149-resize_3-target.png,125,4.1865,24,15223,126,meters,jsons/VE125_randls_68.json,1422321,1617395,40,Woman
112,331300,DepthScenes,duration_manipulation_targetAtFixation,jsons/VE125_randls_68.json,http://54.235.29.9/FacialAge/BNav_EC2/DepthDuration/v2_depth_duration_MTurk/v2_DepthDuration_HTML.html#155,155,1440,789,1440,900,9-31-2022,10-8-33,113,depth_duration_stimuli/002323_2014-06-28_20-01-54_260595134347_rgbf000051-resize_4/002323_2014-06-28_20-01-54_260595134347_rgbf000051-resize_4-target.png,125,3.7310000000000003,21,5326,126,meters,jsons/VE125_randls_68.json,1422321,1617395,40,Woman
113,331300,DepthScenes,duration_manipulation_targetAtFixation,jsons/VE125_randls_68.json,http://54.235.29.9/FacialAge/BNav_EC2/DepthDuration/v2_depth_duration_MTurk/v2_DepthDuration_HTML.html#155,155,1440,789,1440,900,9-31-2022,10-8-33,114,depth_duration_stimuli/003621_2014-05-23_18-06-08_094959634447_rgbf000101-resize_1/003621_2014-05-23_18-06-08_094959634447_rgbf000101-resize_1-target.png,125,3.9835,26,9832,126,meters,jsons/VE125_randls_68.json,1422321,1617395,40,Woman
114,331300,DepthScenes,duration_manipulation_targetAtFixation,jsons/VE125_randls_68.json,http://54.235.29.9/FacialAge/BNav_EC2/DepthDuration/v2_depth_duration_MTurk/v2_DepthDuration_HTML.html#155,155,1440,789,1440,900,9-31-2022,10-8-33,115,depth_duration_stimuli/001584_2014-06-20_11-07-43_260595134347_rgbf000002-resize_1/001584_2014-06-20_11-07-43_260595134347_rgbf000002-resize_1-target.png,125,3.53,13,5001,125,meters,jsons/VE125_randls_68.json,1422321,1617395,40,Woman
115,331300,DepthScenes,duration_manipulation_targetAtFixation,jsons/VE125_randls_68.json,http://54.235.29.9/FacialAge/BNav_EC2/DepthDuration/v2_depth_duration_MTurk/v2_DepthDuration_HTML.html#155,155,1440,789,1440,900,9-31-2022,10-8-33,116,depth_duration_stimuli/001170_2014-06-17_15-43-44_260595134347_rgbf000096-resize_6/001170_2014-06-17_15-43-44_260595134347_rgbf000096-resize-original.jpg,125,1.1909999999999998,44,6376,125,meters,jsons/VE125_randls_68.json,1422321,1617395,40,Woman
116,331300,DepthScenes,duration_manipulation_targetAtFixation,jsons/VE125_randls_68.json,http://54.235.29.9/FacialAge/BNav_EC2/DepthDuration/v2_depth_duration_MTurk/v2_DepthDuration_HTML.html#155,155,1440,789,1440,900,9-31-2022,10-8-33,117,depth_duration_stimuli/002600_2014-06-24_14-27-04_094959634447_rgbf000074-resize_2/002600_2014-06-24_14-27-04_094959634447_rgbf000074-resize_2-target.png,125,2.7575,12,9525,126,meters,jsons/VE125_randls_68.json,1422321,1617395,40,Woman
117,331300,DepthScenes,duration_manipulation_targetAtFixation,jsons/VE125_randls_68.json,http://54.235.29.9/FacialAge/BNav_EC2/DepthDuration/v2_depth_duration_MTurk/v2_DepthDuration_HTML.html#155,155,1440,789,1440,900,9-31-2022,10-8-33,118,depth_duration_stimuli/003228_2014-05-14_13-42-35_094959634447_rgbf000101-resize_1/003228_2014-05-14_13-42-35_094959634447_rgbf000101-resize_1-target.png,125,1.9680000000000002,18,5293,125,meters,jsons/VE125_randls_68.json,1422321,1617395,40,Woman
118,331300,DepthScenes,duration_manipulation_targetAtFixation,jsons/VE125_randls_68.json,http://54.235.29.9/FacialAge/BNav_EC2/DepthDuration/v2_depth_duration_MTurk/v2_DepthDuration_HTML.html#155,155,1440,789,1440,900,9-31-2022,10-8-33,119,depth_duration_stimuli/002570_2014-06-24_13-59-54_094959634447_rgbf000059-resize_0/002570_2014-06-24_13-59-54_094959634447_rgbf000059-resize_0-target.png,125,4.037,14,10532,125,meters,jsons/VE125_randls_68.json,1422321,1617395,40,Woman
119,331300,DepthScenes,duration_manipulation_targetAtFixation,jsons/VE125_randls_68.json,http://54.235.29.9/FacialAge/BNav_EC2/DepthDuration/v2_depth_duration_MTurk/v2_DepthDuration_HTML.html#155,155,1440,789,1440,900,9-31-2022,10-8-33,120,depth_duration_stimuli/002467_2014-06-28_20-38-07_260595134347_rgbf000026-resize_2/002467_2014-06-28_20-38-07_260595134347_rgbf000026-resize_2-target.png,125,4.742,18,8914,126,meters,jsons/VE125_randls_68.json,1422321,1617395,40,Woman
120,331300,DepthScenes,duration_manipulation_targetAtFixation,jsons/VE125_randls_68.json,http://54.235.29.9/FacialAge/BNav_EC2/DepthDuration/v2_depth_duration_MTurk/v2_DepthDuration_HTML.html#155,155,1440,789,1440,900,9-31-2022,10-8-33,121,depth_duration_stimuli/001175_2014-06-17_15-45-55_260595134347_rgbf000129-resize_4/001175_2014-06-17_15-45-55_260595134347_rgbf000129-resize_4-target.png,125,4.255,72,9081,126,meters,jsons/VE125_randls_68.json,1422321,1617395,40,Woman
121,331300,DepthScenes,duration_manipulation_targetAtFixation,jsons/VE125_randls_68.json,http://54.235.29.9/FacialAge/BNav_EC2/DepthDuration/v2_depth_duration_MTurk/v2_DepthDuration_HTML.html#155,155,1440,789,1440,900,9-31-2022,10-8-33,122,depth_duration_stimuli/003490_2014-05-21_15-50-11_094959634447_rgbf000101-resize_3/003490_2014-05-21_15-50-11_094959634447_rgbf000101-resize_3-target.png,125,3.6445,35,12148,124,meters,jsons/VE125_randls_68.json,1422321,1617395,40,Woman
122,331300,DepthScenes,duration_manipulation_targetAtFixation,jsons/VE125_randls_68.json,http://54.235.29.9/FacialAge/BNav_EC2/DepthDuration/v2_depth_duration_MTurk/v2_DepthDuration_HTML.html#155,155,1440,789,1440,900,9-31-2022,10-8-33,123,depth_duration_stimuli/003492_2014-05-21_15-50-55_094959634447_rgbf000828-resize_1/003492_2014-05-21_15-50-55_094959634447_rgbf000828-resize_1-target.png,125,4.06875,33,10519,127,meters,jsons/VE125_randls_68.json,1422321,1617395,40,Woman
123,331300,DepthScenes,duration_manipulation_targetAtFixation,jsons/VE125_randls_68.json,http://54.235.29.9/FacialAge/BNav_EC2/DepthDuration/v2_depth_duration_MTurk/v2_DepthDuration_HTML.html#155,155,1440,789,1440,900,9-31-2022,10-8-33,124,depth_duration_stimuli/002568_2014-06-24_13-59-21_094959634447_rgbf000062-resize_4/002568_2014-06-24_13-59-21_094959634447_rgbf000062-resize_4-target.png,125,3.015,16,7569,125,meters,jsons/VE125_randls_68.json,1422321,1617395,40,Woman
124,331300,DepthScenes,duration_manipulation_targetAtFixation,jsons/VE125_randls_68.json,http://54.235.29.9/FacialAge/BNav_EC2/DepthDuration/v2_depth_duration_MTurk/v2_DepthDuration_HTML.html#155,155,1440,789,1440,900,9-31-2022,10-8-33,125,depth_duration_stimuli/001158_2014-06-17_15-32-16_260595134347_rgbf000138-resize_2/001158_2014-06-17_15-32-16_260595134347_rgbf000138-resize_2-target.png,125,4.5315,19,11290,124,meters,jsons/VE125_randls_68.json,1422321,1617395,40,Woman
125,331300,DepthScenes,duration_manipulation_targetAtFixation,jsons/VE125_randls_68.json,http://54.235.29.9/FacialAge/BNav_EC2/DepthDuration/v2_depth_duration_MTurk/v2_DepthDuration_HTML.html#155,155,1440,789,1440,900,9-31-2022,10-8-33,126,depth_duration_stimuli/000556_2014-06-09_22-42-56_260595134347_rgbf000214-resize_1/000556_2014-06-09_22-42-56_260595134347_rgbf000214-resize_1-target.png,125,4.8415,14,5808,126,meters,jsons/VE125_randls_68.json,1422321,1617395,40,Woman
126,331300,DepthScenes,duration_manipulation_targetAtFixation,jsons/VE125_randls_68.json,http://54.235.29.9/FacialAge/BNav_EC2/DepthDuration/v2_depth_duration_MTurk/v2_DepthDuration_HTML.html#155,155,1440,789,1440,900,9-31-2022,10-8-33,127,depth_duration_stimuli/001133_2014-06-17_14-49-16_260595134347_rgbf000100-resize_0/001133_2014-06-17_14-49-16_260595134347_rgbf000100-resize_0-target.png,125,4.2115,17,8424,126,meters,jsons/VE125_randls_68.json,1422321,1617395,40,Woman
127,331300,DepthScenes,duration_manipulation_targetAtFixation,jsons/VE125_randls_68.json,http://54.235.29.9/FacialAge/BNav_EC2/DepthDuration/v2_depth_duration_MTurk/v2_DepthDuration_HTML.html#155,155,1440,789,1440,900,9-31-2022,10-8-33,128,depth_duration_stimuli/001132_2014-06-17_14-48-54_260595134347_rgbf000100-resize_2/001132_2014-06-17_14-48-54_260595134347_rgbf000100-resize_2-target.png,125,3.753,18,12239,125,meters,jsons/VE125_randls_68.json,1422321,1617395,40,Woman
128,331300,DepthScenes,duration_manipulation_targetAtFixation,jsons/VE125_randls_68.json,http://54.235.29.9/FacialAge/BNav_EC2/DepthDuration/v2_depth_duration_MTurk/v2_DepthDuration_HTML.html#155,155,1440,789,1440,900,9-31-2022,10-8-33,129,depth_duration_stimuli/002375_2014-06-28_20-13-44_260595134347_rgbf000032-resize_1/002375_2014-06-28_20-13-44_260595134347_rgbf000032-resize_1-target.png,125,4.0175,16,11892,126,meters,jsons/VE125_randls_68.json,1422321,1617395,40,Woman
129,331300,DepthScenes,duration_manipulation_targetAtFixation,jsons/VE125_randls_68.json,http://54.235.29.9/FacialAge/BNav_EC2/DepthDuration/v2_depth_duration_MTurk/v2_DepthDuration_HTML.html#155,155,1440,789,1440,900,9-31-2022,10-8-33,130,depth_duration_stimuli/002657_2014-06-13_15-29-54_094959634447_rgbf000150-resize_1/002657_2014-06-13_15-29-54_094959634447_rgbf000150-resize_1-target.png,125,4.919,33,5875,124,meters,jsons/VE125_randls_68.json,1422321,1617395,40,Woman
130,331300,DepthScenes,duration_manipulation_targetAtFixation,jsons/VE125_randls_68.json,http://54.235.29.9/FacialAge/BNav_EC2/DepthDuration/v2_depth_duration_MTurk/v2_DepthDuration_HTML.html#155,155,1440,789,1440,900,9-31-2022,10-8-33,131,depth_duration_stimuli/000414_2014-06-04_19-49-13_260595134347_rgbf000044-resize_0/000414_2014-06-04_19-49-13_260595134347_rgbf000044-resize_0-target.png,125,4.329,23,11181,125,meters,jsons/VE125_randls_68.json,1422321,1617395,40,Woman
131,331300,DepthScenes,duration_manipulation_targetAtFixation,jsons/VE125_randls_68.json,http://54.235.29.9/FacialAge/BNav_EC2/DepthDuration/v2_depth_duration_MTurk/v2_DepthDuration_HTML.html#155,155,1440,789,1440,900,9-31-2022,10-8-33,132,depth_duration_stimuli/003129_2014-05-12_10-48-10_094959634447_rgbf000100-resize_0/003129_2014-05-12_10-48-10_094959634447_rgbf000100-resize_0-target.png,125,4.9305,25,6874,125,meters,jsons/VE125_randls_68.json,1422321,1617395,40,Woman
132,331300,DepthScenes,duration_manipulation_targetAtFixation,jsons/VE125_randls_68.json,http://54.235.29.9/FacialAge/BNav_EC2/DepthDuration/v2_depth_duration_MTurk/v2_DepthDuration_HTML.html#155,155,1440,789,1440,900,9-31-2022,10-8-33,133,depth_duration_stimuli/000739_2014-06-08_18-45-58_260595134347_rgbf000068-resize_1/000739_2014-06-08_18-45-58_260595134347_rgbf000068-resize_1-target.png,125,3.534,22,6457,126,meters,jsons/VE125_randls_68.json,1422321,1617395,40,Woman
133,331300,DepthScenes,duration_manipulation_targetAtFixation,jsons/VE125_randls_68.json,http://54.235.29.9/FacialAge/BNav_EC2/DepthDuration/v2_depth_duration_MTurk/v2_DepthDuration_HTML.html#155,155,1440,789,1440,900,9-31-2022,10-8-33,134,depth_duration_stimuli/000734_2014-06-08_17-39-11_260595134347_rgbf000128-resize_2/000734_2014-06-08_17-39-11_260595134347_rgbf000128-resize_2-target.png,125,4.098,43,11731,126,meters,jsons/VE125_randls_68.json,1422321,1617395,40,Woman
134,331300,DepthScenes,duration_manipulation_targetAtFixation,jsons/VE125_randls_68.json,http://54.235.29.9/FacialAge/BNav_EC2/DepthDuration/v2_depth_duration_MTurk/v2_DepthDuration_HTML.html#155,155,1440,789,1440,900,9-31-2022,10-8-33,135,depth_duration_stimuli/002072_2014-06-24_21-48-06_260595134347_rgbf000115-resize_0/002072_2014-06-24_21-48-06_260595134347_rgbf000115-resize-original.jpg,125,4.702,22,15483,125,meters,jsons/VE125_randls_68.json,1422321,1617395,40,Woman
135,331300,DepthScenes,duration_manipulation_targetAtFixation,jsons/VE125_randls_68.json,http://54.235.29.9/FacialAge/BNav_EC2/DepthDuration/v2_depth_duration_MTurk/v2_DepthDuration_HTML.html#155,155,1440,789,1440,900,9-31-2022,10-8-33,136,depth_duration_stimuli/000929_2014-06-09_16-33-19_260595134347_rgbf000139-resize_0/000929_2014-06-09_16-33-19_260595134347_rgbf000139-resize_0-target.png,125,2.8680000000000003,18,9039,125,meters,jsons/VE125_randls_68.json,1422321,1617395,40,Woman
136,331300,DepthScenes,duration_manipulation_targetAtFixation,jsons/VE125_randls_68.json,http://54.235.29.9/FacialAge/BNav_EC2/DepthDuration/v2_depth_duration_MTurk/v2_DepthDuration_HTML.html#155,155,1440,789,1440,900,9-31-2022,10-8-33,137,depth_duration_stimuli/000457_2014-06-08_16-52-43_260595134347_rgbf000199-resize_1/000457_2014-06-08_16-52-43_260595134347_rgbf000199-resize_1-target.png,125,3.6489999999999996,32,5030,126,meters,jsons/VE125_randls_68.json,1422321,1617395,40,Woman
137,331300,DepthScenes,duration_manipulation_targetAtFixation,jsons/VE125_randls_68.json,http://54.235.29.9/FacialAge/BNav_EC2/DepthDuration/v2_depth_duration_MTurk/v2_DepthDuration_HTML.html#155,155,1440,789,1440,900,9-31-2022,10-8-33,138,depth_duration_stimuli/000486_2014-06-09_20-47-20_260595134347_rgbf000143-resize_2/000486_2014-06-09_20-47-20_260595134347_rgbf000143-resize_2-target.png,125,4.8325,25,4878,126,meters,jsons/VE125_randls_68.json,1422321,1617395,40,Woman
138,331300,DepthScenes,duration_manipulation_targetAtFixation,jsons/VE125_randls_68.json,http://54.235.29.9/FacialAge/BNav_EC2/DepthDuration/v2_depth_duration_MTurk/v2_DepthDuration_HTML.html#155,155,1440,789,1440,900,9-31-2022,10-8-33,139,depth_duration_stimuli/003083_2014-06-15_15-21-03_094959634447_rgbf000063-resize_1/003083_2014-06-15_15-21-03_094959634447_rgbf000063-resize_1-target.png,125,4.1405,26,11455,126,meters,jsons/VE125_randls_68.json,1422321,1617395,40,Woman
139,331300,DepthScenes,duration_manipulation_targetAtFixation,jsons/VE125_randls_68.json,http://54.235.29.9/FacialAge/BNav_EC2/DepthDuration/v2_depth_duration_MTurk/v2_DepthDuration_HTML.html#155,155,1440,789,1440,900,9-31-2022,10-8-33,140,depth_duration_stimuli/001555_2014-06-20_17-12-10_260595134347_rgbf000065-resize_4/001555_2014-06-20_17-12-10_260595134347_rgbf000065-resize_4-target.png,125,1.633,26,6142,126,meters,jsons/VE125_randls_68.json,1422321,1617395,40,Woman
140,331300,DepthScenes,duration_manipulation_targetAtFixation,jsons/VE125_randls_68.json,http://54.235.29.9/FacialAge/BNav_EC2/DepthDuration/v2_depth_duration_MTurk/v2_DepthDuration_HTML.html#155,155,1440,789,1440,900,9-31-2022,10-8-33,141,depth_duration_stimuli/000103_2014-05-14_22-01-17_260595134347_rgbf000152-resize_5/000103_2014-05-14_22-01-17_260595134347_rgbf000152-resize_5-target.png,125,1.993,32,10906,126,meters,jsons/VE125_randls_68.json,1422321,1617395,40,Woman
141,331300,DepthScenes,duration_manipulation_targetAtFixation,jsons/VE125_randls_68.json,http://54.235.29.9/FacialAge/BNav_EC2/DepthDuration/v2_depth_duration_MTurk/v2_DepthDuration_HTML.html#155,155,1440,789,1440,900,9-31-2022,10-8-33,142,depth_duration_stimuli/002964_2014-06-08_17-46-11_094959634447_rgbf000091-resize_4/002964_2014-06-08_17-46-11_094959634447_rgbf000091-resize_4-target.png,125,1.6909999999999998,18,10272,126,meters,jsons/VE125_randls_68.json,1422321,1617395,40,Woman
142,331300,DepthScenes,duration_manipulation_targetAtFixation,jsons/VE125_randls_68.json,http://54.235.29.9/FacialAge/BNav_EC2/DepthDuration/v2_depth_duration_MTurk/v2_DepthDuration_HTML.html#155,155,1440,789,1440,900,9-31-2022,10-8-33,143,depth_duration_stimuli/002136_2014-06-25_21-18-03_260595134347_rgbf000109-resize_3/002136_2014-06-25_21-18-03_260595134347_rgbf000109-resize_3-target.png,125,1.9569999999999999,26,5845,125,meters,jsons/VE125_randls_68.json,1422321,1617395,40,Woman
143,331300,DepthScenes,duration_manipulation_targetAtFixation,jsons/VE125_randls_68.json,http://54.235.29.9/FacialAge/BNav_EC2/DepthDuration/v2_depth_duration_MTurk/v2_DepthDuration_HTML.html#155,155,1440,789,1440,900,9-31-2022,10-8-33,144,depth_duration_stimuli/002748_2014-06-22_19-07-22_094959634447_rgbf000078-resize_1/002748_2014-06-22_19-07-22_094959634447_rgbf000078-resize_1-target.png,125,4.6705,17,12407,125,meters,jsons/VE125_randls_68.json,1422321,1617395,40,Woman
144,331300,DepthScenes,duration_manipulation_targetAtFixation,jsons/VE125_randls_68.json,http://54.235.29.9/FacialAge/BNav_EC2/DepthDuration/v2_depth_duration_MTurk/v2_DepthDuration_HTML.html#155,155,1440,789,1440,900,9-31-2022,10-8-33,145,depth_duration_stimuli/002995_2014-06-15_12-31-26_094959634447_rgbf000150-resize_1/002995_2014-06-15_12-31-26_094959634447_rgbf000150-resize_1-target.png,125,3.8360000000000003,15,6384,125,meters,jsons/VE125_randls_68.json,1422321,1617395,40,Woman
145,331300,DepthScenes,duration_manipulation_targetAtFixation,jsons/VE125_randls_68.json,http://54.235.29.9/FacialAge/BNav_EC2/DepthDuration/v2_depth_duration_MTurk/v2_DepthDuration_HTML.html#155,155,1440,789,1440,900,9-31-2022,10-8-33,146,depth_duration_stimuli/001498_2014-06-19_17-45-14_260595134347_rgbf000129-resize_4/001498_2014-06-19_17-45-14_260595134347_rgbf000129-resize-original.jpg,125,1.4075,17,10312,127,meters,jsons/VE125_randls_68.json,1422321,1617395,40,Woman
146,331300,DepthScenes,duration_manipulation_targetAtFixation,jsons/VE125_randls_68.json,http://54.235.29.9/FacialAge/BNav_EC2/DepthDuration/v2_depth_duration_MTurk/v2_DepthDuration_HTML.html#155,155,1440,789,1440,900,9-31-2022,10-8-33,147,depth_duration_stimuli/000447_2014-06-08_16-15-46_260595134347_rgbf000130-resize_1/000447_2014-06-08_16-15-46_260595134347_rgbf000130-resize_1-target.png,125,4.479,28,12613,125,meters,jsons/VE125_randls_68.json,1422321,1617395,40,Woman
147,331300,DepthScenes,duration_manipulation_targetAtFixation,jsons/VE125_randls_68.json,http://54.235.29.9/FacialAge/BNav_EC2/DepthDuration/v2_depth_duration_MTurk/v2_DepthDuration_HTML.html#155,155,1440,789,1440,900,9-31-2022,10-8-33,148,depth_duration_stimuli/001447_2014-06-19_17-00-32_260595134347_rgbf000082-resize_5/001447_2014-06-19_17-00-32_260595134347_rgbf000082-resize_5-target.png,125,4.13775,32,6745,125,meters,jsons/VE125_randls_68.json,1422321,1617395,40,Woman
148,331300,DepthScenes,duration_manipulation_targetAtFixation,jsons/VE125_randls_68.json,http://54.235.29.9/FacialAge/BNav_EC2/DepthDuration/v2_depth_duration_MTurk/v2_DepthDuration_HTML.html#155,155,1440,789,1440,900,9-31-2022,10-8-33,149,depth_duration_stimuli/000368_2014-06-09_15-53-01_260595134347_rgbf000155-resize_2/000368_2014-06-09_15-53-01_260595134347_rgbf000155-resize_2-target.png,125,2.4859999999999998,24,6081,125,meters,jsons/VE125_randls_68.json,1422321,1617395,40,Woman
149,331300,DepthScenes,duration_manipulation_targetAtFixation,jsons/VE125_randls_68.json,http://54.235.29.9/FacialAge/BNav_EC2/DepthDuration/v2_depth_duration_MTurk/v2_DepthDuration_HTML.html#155,155,1440,789,1440,900,9-31-2022,10-8-33,150,depth_duration_stimuli/002678_2014-06-13_16-15-32_094959634447_rgbf000151-resize_6/002678_2014-06-13_16-15-32_094959634447_rgbf000151-resize_6-target.png,125,2.1830000000000003,25,9036,126,meters,jsons/VE125_randls_68.json,1422321,1617395,40,Woman
150,331300,DepthScenes,duration_manipulation_targetAtFixation,jsons/VE125_randls_68.json,http://54.235.29.9/FacialAge/BNav_EC2/DepthDuration/v2_depth_duration_MTurk/v2_DepthDuration_HTML.html#155,155,1440,789,1440,900,9-31-2022,10-8-33,151,depth_duration_stimuli/003292_2014-05-14_21-53-49_094959634447_rgbf000100-resize_2/003292_2014-05-14_21-53-49_094959634447_rgbf000100-resize_2-target.png,125,3.4815,27,10674,125,meters,jsons/VE125_randls_68.json,1422321,1617395,40,Woman
151,331300,DepthScenes,duration_manipulation_targetAtFixation,jsons/VE125_randls_68.json,http://54.235.29.9/FacialAge/BNav_EC2/DepthDuration/v2_depth_duration_MTurk/v2_DepthDuration_HTML.html#155,155,1440,789,1440,900,9-31-2022,10-8-33,152,depth_duration_stimuli/002639_2014-06-24_14-51-37_094959634447_rgbf000074-resize_4/002639_2014-06-24_14-51-37_094959634447_rgbf000074-resize_4-target.png,125,4.0375,14,6257,125,meters,jsons/VE125_randls_68.json,1422321,1617395,40,Woman
152,331300,DepthScenes,duration_manipulation_targetAtFixation,jsons/VE125_randls_68.json,http://54.235.29.9/FacialAge/BNav_EC2/DepthDuration/v2_depth_duration_MTurk/v2_DepthDuration_HTML.html#155,155,1440,789,1440,900,9-31-2022,10-8-33,153,depth_duration_stimuli/001011_2014-06-08_23-18-54_260595134347_rgbf000044-resize_4/001011_2014-06-08_23-18-54_260595134347_rgbf000044-resize_4-target.png,125,2.4730000000000003,27,6431,123,meters,jsons/VE125_randls_68.json,1422321,1617395,40,Woman
153,331300,DepthScenes,duration_manipulation_targetAtFixation,jsons/VE125_randls_68.json,http://54.235.29.9/FacialAge/BNav_EC2/DepthDuration/v2_depth_duration_MTurk/v2_DepthDuration_HTML.html#155,155,1440,789,1440,900,9-31-2022,10-8-33,154,depth_duration_stimuli/002875_2014-06-01_15-19-00_094959634447_rgbf000151-resize_1/002875_2014-06-01_15-19-00_094959634447_rgbf000151-resize_1-target.png,125,1.9675,29,11585,125,meters,jsons/VE125_randls_68.json,1422321,1617395,40,Woman
154,331300,DepthScenes,duration_manipulation_targetAtFixation,jsons/VE125_randls_68.json,http://54.235.29.9/FacialAge/BNav_EC2/DepthDuration/v2_depth_duration_MTurk/v2_DepthDuration_HTML.html#155,155,1440,789,1440,900,9-31-2022,10-8-33,155,depth_duration_stimuli/002272_2014-06-28_18-53-56_260595134347_rgbf000067-resize_2/002272_2014-06-28_18-53-56_260595134347_rgbf000067-resize_2-target.png,125,1.138,42,9368,125,meters,jsons/VE125_randls_68.json,1422321,1617395,40,Woman
155,331300,DepthScenes,duration_manipulation_targetAtFixation,jsons/VE125_randls_68.json,http://54.235.29.9/FacialAge/BNav_EC2/DepthDuration/v2_depth_duration_MTurk/v2_DepthDuration_HTML.html#155,155,1440,789,1440,900,9-31-2022,10-8-33,156,depth_duration_stimuli/001571_2014-06-20_17-21-32_260595134347_rgbf000089-resize_1/001571_2014-06-20_17-21-32_260595134347_rgbf000089-resize_1-target.png,125,1.86,31,6039,126,meters,jsons/VE125_randls_68.json,1422321,1617395,40,Woman
156,331300,DepthScenes,duration_manipulation_targetAtFixation,jsons/VE125_randls_68.json,http://54.235.29.9/FacialAge/BNav_EC2/DepthDuration/v2_depth_duration_MTurk/v2_DepthDuration_HTML.html#155,155,1440,789,1440,900,9-31-2022,10-8-33,157,depth_duration_stimuli/001016_2014-06-09_16-16-10_260595134347_rgbf000112-resize_5/001016_2014-06-09_16-16-10_260595134347_rgbf000112-resize_5-target.png,125,1.6565,16,11070,126,meters,jsons/VE125_randls_68.json,1422321,1617395,40,Woman
157,331300,DepthScenes,duration_manipulation_targetAtFixation,jsons/VE125_randls_68.json,http://54.235.29.9/FacialAge/BNav_EC2/DepthDuration/v2_depth_duration_MTurk/v2_DepthDuration_HTML.html#155,155,1440,789,1440,900,9-31-2022,10-8-33,158,depth_duration_stimuli/002340_2014-06-28_20-05-46_260595134347_rgbf000113-resize_0/002340_2014-06-28_20-05-46_260595134347_rgbf000113-resize_0-target.png,125,2.4735,14,4863,126,meters,jsons/VE125_randls_68.json,1422321,1617395,40,Woman
158,331300,DepthScenes,duration_manipulation_targetAtFixation,jsons/VE125_randls_68.json,http://54.235.29.9/FacialAge/BNav_EC2/DepthDuration/v2_depth_duration_MTurk/v2_DepthDuration_HTML.html#155,155,1440,789,1440,900,9-31-2022,10-8-33,159,depth_duration_stimuli/001110_2014-06-15_17-25-28_260595134347_rgbf000150-resize_1/001110_2014-06-15_17-25-28_260595134347_rgbf000150-resize_1-target.png,125,1.7115,22,10102,126,meters,jsons/VE125_randls_68.json,1422321,1617395,40,Woman
159,331300,DepthScenes,duration_manipulation_targetAtFixation,jsons/VE125_randls_68.json,http://54.235.29.9/FacialAge/BNav_EC2/DepthDuration/v2_depth_duration_MTurk/v2_DepthDuration_HTML.html#155,155,1440,789,1440,900,9-31-2022,10-8-33,160,depth_duration_stimuli/000927_2014-06-09_16-32-30_260595134347_rgbf000123-resize_3/000927_2014-06-09_16-32-30_260595134347_rgbf000123-resize_3-target.png,125,2.6785,11,5283,125,meters,jsons/VE125_randls_68.json,1422321,1617395,40,Woman
160,331300,DepthScenes,duration_manipulation_targetAtFixation,jsons/VE125_randls_68.json,http://54.235.29.9/FacialAge/BNav_EC2/DepthDuration/v2_depth_duration_MTurk/v2_DepthDuration_HTML.html#155,155,1440,789,1440,900,9-31-2022,10-8-33,161,depth_duration_stimuli/001066_2014-06-08_22-03-20_260595134347_rgbf000066-resize_4/001066_2014-06-08_22-03-20_260595134347_rgbf000066-resize_4-target.png,125,4.2330000000000005,26,9901,125,meters,jsons/VE125_randls_68.json,1422321,1617395,40,Woman
161,331300,DepthScenes,duration_manipulation_targetAtFixation,jsons/VE125_randls_68.json,http://54.235.29.9/FacialAge/BNav_EC2/DepthDuration/v2_depth_duration_MTurk/v2_DepthDuration_HTML.html#155,155,1440,789,1440,900,9-31-2022,10-8-33,162,depth_duration_stimuli/000742_2014-06-08_18-48-09_260595134347_rgbf000164-resize_4/000742_2014-06-08_18-48-09_260595134347_rgbf000164-resize_4-target.png,125,4.632,17,6704,126,meters,jsons/VE125_randls_68.json,1422321,1617395,40,Woman
162,331300,DepthScenes,duration_manipulation_targetAtFixation,jsons/VE125_randls_68.json,http://54.235.29.9/FacialAge/BNav_EC2/DepthDuration/v2_depth_duration_MTurk/v2_DepthDuration_HTML.html#155,155,1440,789,1440,900,9-31-2022,10-8-33,163,depth_duration_stimuli/001806_2014-06-26_20-50-20_260595134347_rgbf000091-resize_1/001806_2014-06-26_20-50-20_260595134347_rgbf000091-resize_1-target.png,125,2.7305,22,5243,126,meters,jsons/VE125_randls_68.json,1422321,1617395,40,Woman
163,331300,DepthScenes,duration_manipulation_targetAtFixation,jsons/VE125_randls_68.json,http://54.235.29.9/FacialAge/BNav_EC2/DepthDuration/v2_depth_duration_MTurk/v2_DepthDuration_HTML.html#155,155,1440,789,1440,900,9-31-2022,10-8-33,164,depth_duration_stimuli/001617_2014-06-20_11-35-32_260595134347_rgbf000066-resize_1/001617_2014-06-20_11-35-32_260595134347_rgbf000066-resize_1-target.png,125,3.7910000000000004,12,9939,125,meters,jsons/VE125_randls_68.json,1422321,1617395,40,Woman
