,subjID,experimentName,versionName,sequenceName,url,selected_row,windowWidth,windowHeight,screenWidth,screenHeight,startDate,startTime,trial,stimulus,duration,actual_depth,depth_estimate,trial_RT,log_sceneDuration,unitSelection,seq_filepath,experimentTime,totalTime,age,gender
0,331695,DepthScenes,duration_manipulation_targetAtFixation,jsons/VE125_randls_15.json,http://54.235.29.9/FacialAge/BNav_EC2/DepthDuration/v2_depth_duration_MTurk/v2_DepthDuration_HTML.html#21,21,1920,937,1920,1080,8-29-2022,14-29-4,1,depth_duration_stimuli/002964_2014-06-08_17-46-11_094959634447_rgbf000091-resize_4/002964_2014-06-08_17-46-11_094959634447_rgbf000091-resize_4-target.png,125,1.6909999999999998,4,4227,137,feet,jsons/VE125_randls_15.json,425063,593104,26,Man
1,331695,DepthScenes,duration_manipulation_targetAtFixation,jsons/VE125_randls_15.json,http://54.235.29.9/FacialAge/BNav_EC2/DepthDuration/v2_depth_duration_MTurk/v2_DepthDuration_HTML.html#21,21,1920,937,1920,1080,8-29-2022,14-29-4,2,depth_duration_stimuli/002136_2014-06-25_21-18-03_260595134347_rgbf000109-resize_3/002136_2014-06-25_21-18-03_260595134347_rgbf000109-resize_3-target.png,125,1.9569999999999999,5,1873,125,feet,jsons/VE125_randls_15.json,425063,593104,26,Man
2,331695,DepthScenes,duration_manipulation_targetAtFixation,jsons/VE125_randls_15.json,http://54.235.29.9/FacialAge/BNav_EC2/DepthDuration/v2_depth_duration_MTurk/v2_DepthDuration_HTML.html#21,21,1920,937,1920,1080,8-29-2022,14-29-4,3,depth_duration_stimuli/002272_2014-06-28_18-53-56_260595134347_rgbf000067-resize_2/002272_2014-06-28_18-53-56_260595134347_rgbf000067-resize_2-target.png,125,1.138,4,1988,125,feet,jsons/VE125_randls_15.json,425063,593104,26,Man
3,331695,DepthScenes,duration_manipulation_targetAtFixation,jsons/VE125_randls_15.json,http://54.235.29.9/FacialAge/BNav_EC2/DepthDuration/v2_depth_duration_MTurk/v2_DepthDuration_HTML.html#21,21,1920,937,1920,1080,8-29-2022,14-29-4,4,depth_duration_stimuli/001571_2014-06-20_17-21-32_260595134347_rgbf000089-resize_1/001571_2014-06-20_17-21-32_260595134347_rgbf000089-resize_1-target.png,125,1.86,5,1960,124,feet,jsons/VE125_randls_15.json,425063,593104,26,Man
4,331695,DepthScenes,duration_manipulation_targetAtFixation,jsons/VE125_randls_15.json,http://54.235.29.9/FacialAge/BNav_EC2/DepthDuration/v2_depth_duration_MTurk/v2_DepthDuration_HTML.html#21,21,1920,937,1920,1080,8-29-2022,14-29-4,5,depth_duration_stimuli/002988_2014-06-15_12-24-20_094959634447_rgbf000150-resize_1/002988_2014-06-15_12-24-20_094959634447_rgbf000150-resize_1-target.png,125,4.7669999999999995,15,2447,138,feet,jsons/VE125_randls_15.json,425063,593104,26,Man
5,331695,DepthScenes,duration_manipulation_targetAtFixation,jsons/VE125_randls_15.json,http://54.235.29.9/FacialAge/BNav_EC2/DepthDuration/v2_depth_duration_MTurk/v2_DepthDuration_HTML.html#21,21,1920,937,1920,1080,8-29-2022,14-29-4,6,depth_duration_stimuli/001052_2014-06-08_18-24-54_260595134347_rgbf000130-resize_1/001052_2014-06-08_18-24-54_260595134347_rgbf000130-resize_1-target.png,125,4.1045,7,1997,129,feet,jsons/VE125_randls_15.json,425063,593104,26,Man
6,331695,DepthScenes,duration_manipulation_targetAtFixation,jsons/VE125_randls_15.json,http://54.235.29.9/FacialAge/BNav_EC2/DepthDuration/v2_depth_duration_MTurk/v2_DepthDuration_HTML.html#21,21,1920,937,1920,1080,8-29-2022,14-29-4,7,depth_duration_stimuli/001110_2014-06-15_17-25-28_260595134347_rgbf000150-resize_1/001110_2014-06-15_17-25-28_260595134347_rgbf000150-resize_1-target.png,125,1.7115,4,2118,123,feet,jsons/VE125_randls_15.json,425063,593104,26,Man
7,331695,DepthScenes,duration_manipulation_targetAtFixation,jsons/VE125_randls_15.json,http://54.235.29.9/FacialAge/BNav_EC2/DepthDuration/v2_depth_duration_MTurk/v2_DepthDuration_HTML.html#21,21,1920,937,1920,1080,8-29-2022,14-29-4,8,depth_duration_stimuli/000927_2014-06-09_16-32-30_260595134347_rgbf000123-resize_3/000927_2014-06-09_16-32-30_260595134347_rgbf000123-resize_3-target.png,125,2.6785,5,2362,124,feet,jsons/VE125_randls_15.json,425063,593104,26,Man
8,331695,DepthScenes,duration_manipulation_targetAtFixation,jsons/VE125_randls_15.json,http://54.235.29.9/FacialAge/BNav_EC2/DepthDuration/v2_depth_duration_MTurk/v2_DepthDuration_HTML.html#21,21,1920,937,1920,1080,8-29-2022,14-29-4,9,depth_duration_stimuli/002748_2014-06-22_19-07-22_094959634447_rgbf000078-resize_1/002748_2014-06-22_19-07-22_094959634447_rgbf000078-resize_1-target.png,125,4.6705,10,2678,124,feet,jsons/VE125_randls_15.json,425063,593104,26,Man
9,331695,DepthScenes,duration_manipulation_targetAtFixation,jsons/VE125_randls_15.json,http://54.235.29.9/FacialAge/BNav_EC2/DepthDuration/v2_depth_duration_MTurk/v2_DepthDuration_HTML.html#21,21,1920,937,1920,1080,8-29-2022,14-29-4,10,depth_duration_stimuli/002995_2014-06-15_12-31-26_094959634447_rgbf000150-resize_1/002995_2014-06-15_12-31-26_094959634447_rgbf000150-resize_1-target.png,125,3.8360000000000003,8,1878,124,feet,jsons/VE125_randls_15.json,425063,593104,26,Man
10,331695,DepthScenes,duration_manipulation_targetAtFixation,jsons/VE125_randls_15.json,http://54.235.29.9/FacialAge/BNav_EC2/DepthDuration/v2_depth_duration_MTurk/v2_DepthDuration_HTML.html#21,21,1920,937,1920,1080,8-29-2022,14-29-4,11,depth_duration_stimuli/000773_2014-06-08_22-24-54_260595134347_rgbf000093-resize_1/000773_2014-06-08_22-24-54_260595134347_rgbf000093-resize_1-target.png,125,4.973,7,1772,126,feet,jsons/VE125_randls_15.json,425063,593104,26,Man
11,331695,DepthScenes,duration_manipulation_targetAtFixation,jsons/VE125_randls_15.json,http://54.235.29.9/FacialAge/BNav_EC2/DepthDuration/v2_depth_duration_MTurk/v2_DepthDuration_HTML.html#21,21,1920,937,1920,1080,8-29-2022,14-29-4,12,depth_duration_stimuli/002414_2014-06-28_20-24-58_260595134347_rgbf000067-resize_4/002414_2014-06-28_20-24-58_260595134347_rgbf000067-resize_4-target.png,125,4.363,7,1889,125,feet,jsons/VE125_randls_15.json,425063,593104,26,Man
12,331695,DepthScenes,duration_manipulation_targetAtFixation,jsons/VE125_randls_15.json,http://54.235.29.9/FacialAge/BNav_EC2/DepthDuration/v2_depth_duration_MTurk/v2_DepthDuration_HTML.html#21,21,1920,937,1920,1080,8-29-2022,14-29-4,13,depth_duration_stimuli/000569_2014-06-09_22-51-47_260595134347_rgbf000141-resize_3/000569_2014-06-09_22-51-47_260595134347_rgbf000141-resize-original.jpg,125,4.512,0,2718,122,feet,jsons/VE125_randls_15.json,425063,593104,26,Man
13,331695,DepthScenes,duration_manipulation_targetAtFixation,jsons/VE125_randls_15.json,http://54.235.29.9/FacialAge/BNav_EC2/DepthDuration/v2_depth_duration_MTurk/v2_DepthDuration_HTML.html#21,21,1920,937,1920,1080,8-29-2022,14-29-4,14,depth_duration_stimuli/002279_2014-06-28_18-55-32_260595134347_rgbf000040-resize_5/002279_2014-06-28_18-55-32_260595134347_rgbf000040-resize_5-target.png,125,1.5043333333333,4,2817,124,feet,jsons/VE125_randls_15.json,425063,593104,26,Man
14,331695,DepthScenes,duration_manipulation_targetAtFixation,jsons/VE125_randls_15.json,http://54.235.29.9/FacialAge/BNav_EC2/DepthDuration/v2_depth_duration_MTurk/v2_DepthDuration_HTML.html#21,21,1920,937,1920,1080,8-29-2022,14-29-4,15,depth_duration_stimuli/000635_2014-06-08_16-38-42_260595134347_rgbf000106-resize_1/000635_2014-06-08_16-38-42_260595134347_rgbf000106-resize_1-target.png,125,2.074,6,1784,123,feet,jsons/VE125_randls_15.json,425063,593104,26,Man
15,331695,DepthScenes,duration_manipulation_targetAtFixation,jsons/VE125_randls_15.json,http://54.235.29.9/FacialAge/BNav_EC2/DepthDuration/v2_depth_duration_MTurk/v2_DepthDuration_HTML.html#21,21,1920,937,1920,1080,8-29-2022,14-29-4,16,depth_duration_stimuli/001417_2014-06-19_16-25-36_260595134347_rgbf000115-resize_5/001417_2014-06-19_16-25-36_260595134347_rgbf000115-resize_5-target.png,125,4.6255,7,1744,123,feet,jsons/VE125_randls_15.json,425063,593104,26,Man
16,331695,DepthScenes,duration_manipulation_targetAtFixation,jsons/VE125_randls_15.json,http://54.235.29.9/FacialAge/BNav_EC2/DepthDuration/v2_depth_duration_MTurk/v2_DepthDuration_HTML.html#21,21,1920,937,1920,1080,8-29-2022,14-29-4,17,depth_duration_stimuli/003081_2014-06-15_15-19-16_094959634447_rgbf000150-resize_1/003081_2014-06-15_15-19-16_094959634447_rgbf000150-resize_1-target.png,125,3.9125,0,1939,125,feet,jsons/VE125_randls_15.json,425063,593104,26,Man
17,331695,DepthScenes,duration_manipulation_targetAtFixation,jsons/VE125_randls_15.json,http://54.235.29.9/FacialAge/BNav_EC2/DepthDuration/v2_depth_duration_MTurk/v2_DepthDuration_HTML.html#21,21,1920,937,1920,1080,8-29-2022,14-29-4,18,depth_duration_stimuli/003492_2014-05-21_15-50-55_094959634447_rgbf000828-resize_1/003492_2014-05-21_15-50-55_094959634447_rgbf000828-resize_1-target.png,125,4.06875,8,1941,122,feet,jsons/VE125_randls_15.json,425063,593104,26,Man
18,331695,DepthScenes,duration_manipulation_targetAtFixation,jsons/VE125_randls_15.json,http://54.235.29.9/FacialAge/BNav_EC2/DepthDuration/v2_depth_duration_MTurk/v2_DepthDuration_HTML.html#21,21,1920,937,1920,1080,8-29-2022,14-29-4,19,depth_duration_stimuli/002568_2014-06-24_13-59-21_094959634447_rgbf000062-resize_4/002568_2014-06-24_13-59-21_094959634447_rgbf000062-resize_4-target.png,125,3.015,6,1790,130,feet,jsons/VE125_randls_15.json,425063,593104,26,Man
19,331695,DepthScenes,duration_manipulation_targetAtFixation,jsons/VE125_randls_15.json,http://54.235.29.9/FacialAge/BNav_EC2/DepthDuration/v2_depth_duration_MTurk/v2_DepthDuration_HTML.html#21,21,1920,937,1920,1080,8-29-2022,14-29-4,20,depth_duration_stimuli/002989_2014-06-15_12-25-03_094959634447_rgbf000150-resize_3/002989_2014-06-15_12-25-03_094959634447_rgbf000150-resize_3-target.png,125,4.1975,7,1699,129,feet,jsons/VE125_randls_15.json,425063,593104,26,Man
20,331695,DepthScenes,duration_manipulation_targetAtFixation,jsons/VE125_randls_15.json,http://54.235.29.9/FacialAge/BNav_EC2/DepthDuration/v2_depth_duration_MTurk/v2_DepthDuration_HTML.html#21,21,1920,937,1920,1080,8-29-2022,14-29-4,21,depth_duration_stimuli/000866_2014-06-09_20-45-42_260595134347_rgbf000139-resize_1/000866_2014-06-09_20-45-42_260595134347_rgbf000139-resize_1-target.png,125,3.2155,5,2224,136,feet,jsons/VE125_randls_15.json,425063,593104,26,Man
21,331695,DepthScenes,duration_manipulation_targetAtFixation,jsons/VE125_randls_15.json,http://54.235.29.9/FacialAge/BNav_EC2/DepthDuration/v2_depth_duration_MTurk/v2_DepthDuration_HTML.html#21,21,1920,937,1920,1080,8-29-2022,14-29-4,22,depth_duration_stimuli/001810_2014-06-26_20-51-35_260595134347_rgbf000040-resize_3/001810_2014-06-26_20-51-35_260595134347_rgbf000040-resize_3-target.png,125,2.2525,5,1692,125,feet,jsons/VE125_randls_15.json,425063,593104,26,Man
22,331695,DepthScenes,duration_manipulation_targetAtFixation,jsons/VE125_randls_15.json,http://54.235.29.9/FacialAge/BNav_EC2/DepthDuration/v2_depth_duration_MTurk/v2_DepthDuration_HTML.html#21,21,1920,937,1920,1080,8-29-2022,14-29-4,23,depth_duration_stimuli/003010_2014-06-15_12-54-35_094959634447_rgbf000112-resize_0/003010_2014-06-15_12-54-35_094959634447_rgbf000112-resize_0-target.png,125,3.1185,7,1865,135,feet,jsons/VE125_randls_15.json,425063,593104,26,Man
23,331695,DepthScenes,duration_manipulation_targetAtFixation,jsons/VE125_randls_15.json,http://54.235.29.9/FacialAge/BNav_EC2/DepthDuration/v2_depth_duration_MTurk/v2_DepthDuration_HTML.html#21,21,1920,937,1920,1080,8-29-2022,14-29-4,24,depth_duration_stimuli/000486_2014-06-09_20-47-20_260595134347_rgbf000143-resize_2/000486_2014-06-09_20-47-20_260595134347_rgbf000143-resize_2-target.png,125,4.8325,6,1781,124,feet,jsons/VE125_randls_15.json,425063,593104,26,Man
24,331695,DepthScenes,duration_manipulation_targetAtFixation,jsons/VE125_randls_15.json,http://54.235.29.9/FacialAge/BNav_EC2/DepthDuration/v2_depth_duration_MTurk/v2_DepthDuration_HTML.html#21,21,1920,937,1920,1080,8-29-2022,14-29-4,25,depth_duration_stimuli/003083_2014-06-15_15-21-03_094959634447_rgbf000063-resize_1/003083_2014-06-15_15-21-03_094959634447_rgbf000063-resize_1-target.png,125,4.1405,8,1960,123,feet,jsons/VE125_randls_15.json,425063,593104,26,Man
25,331695,DepthScenes,duration_manipulation_targetAtFixation,jsons/VE125_randls_15.json,http://54.235.29.9/FacialAge/BNav_EC2/DepthDuration/v2_depth_duration_MTurk/v2_DepthDuration_HTML.html#21,21,1920,937,1920,1080,8-29-2022,14-29-4,26,depth_duration_stimuli/002375_2014-06-28_20-13-44_260595134347_rgbf000032-resize_1/002375_2014-06-28_20-13-44_260595134347_rgbf000032-resize_1-target.png,125,4.0175,5,1562,122,feet,jsons/VE125_randls_15.json,425063,593104,26,Man
26,331695,DepthScenes,duration_manipulation_targetAtFixation,jsons/VE125_randls_15.json,http://54.235.29.9/FacialAge/BNav_EC2/DepthDuration/v2_depth_duration_MTurk/v2_DepthDuration_HTML.html#21,21,1920,937,1920,1080,8-29-2022,14-29-4,27,depth_duration_stimuli/002657_2014-06-13_15-29-54_094959634447_rgbf000150-resize_1/002657_2014-06-13_15-29-54_094959634447_rgbf000150-resize_1-target.png,125,4.919,7,2575,137,feet,jsons/VE125_randls_15.json,425063,593104,26,Man
27,331695,DepthScenes,duration_manipulation_targetAtFixation,jsons/VE125_randls_15.json,http://54.235.29.9/FacialAge/BNav_EC2/DepthDuration/v2_depth_duration_MTurk/v2_DepthDuration_HTML.html#21,21,1920,937,1920,1080,8-29-2022,14-29-4,28,depth_duration_stimuli/001199_2014-06-17_16-03-48_260595134347_rgbf000077-resize_0/001199_2014-06-17_16-03-48_260595134347_rgbf000077-resize_0-target.png,125,3.4375,5,1599,122,feet,jsons/VE125_randls_15.json,425063,593104,26,Man
28,331695,DepthScenes,duration_manipulation_targetAtFixation,jsons/VE125_randls_15.json,http://54.235.29.9/FacialAge/BNav_EC2/DepthDuration/v2_depth_duration_MTurk/v2_DepthDuration_HTML.html#21,21,1920,937,1920,1080,8-29-2022,14-29-4,29,depth_duration_stimuli/000502_2014-06-08_23-02-32_260595134347_rgbf000063-resize_4/000502_2014-06-08_23-02-32_260595134347_rgbf000063-resize_4-target.png,125,2.431,5,1601,123,feet,jsons/VE125_randls_15.json,425063,593104,26,Man
29,331695,DepthScenes,duration_manipulation_targetAtFixation,jsons/VE125_randls_15.json,http://54.235.29.9/FacialAge/BNav_EC2/DepthDuration/v2_depth_duration_MTurk/v2_DepthDuration_HTML.html#21,21,1920,937,1920,1080,8-29-2022,14-29-4,30,depth_duration_stimuli/000375_2014-06-08_11-17-29_260595134347_rgbf000133-resize_2/000375_2014-06-08_11-17-29_260595134347_rgbf000133-resize-original.jpg,125,4.718,0,2387,137,feet,jsons/VE125_randls_15.json,425063,593104,26,Man
30,331695,DepthScenes,duration_manipulation_targetAtFixation,jsons/VE125_randls_15.json,http://54.235.29.9/FacialAge/BNav_EC2/DepthDuration/v2_depth_duration_MTurk/v2_DepthDuration_HTML.html#21,21,1920,937,1920,1080,8-29-2022,14-29-4,31,depth_duration_stimuli/001066_2014-06-08_22-03-20_260595134347_rgbf000066-resize_4/001066_2014-06-08_22-03-20_260595134347_rgbf000066-resize_4-target.png,125,4.2330000000000005,10,2474,139,feet,jsons/VE125_randls_15.json,425063,593104,26,Man
31,331695,DepthScenes,duration_manipulation_targetAtFixation,jsons/VE125_randls_15.json,http://54.235.29.9/FacialAge/BNav_EC2/DepthDuration/v2_depth_duration_MTurk/v2_DepthDuration_HTML.html#21,21,1920,937,1920,1080,8-29-2022,14-29-4,32,depth_duration_stimuli/000742_2014-06-08_18-48-09_260595134347_rgbf000164-resize_4/000742_2014-06-08_18-48-09_260595134347_rgbf000164-resize_4-target.png,125,4.632,8,1981,115,feet,jsons/VE125_randls_15.json,425063,593104,26,Man
32,331695,DepthScenes,duration_manipulation_targetAtFixation,jsons/VE125_randls_15.json,http://54.235.29.9/FacialAge/BNav_EC2/DepthDuration/v2_depth_duration_MTurk/v2_DepthDuration_HTML.html#21,21,1920,937,1920,1080,8-29-2022,14-29-4,33,depth_duration_stimuli/001806_2014-06-26_20-50-20_260595134347_rgbf000091-resize_1/001806_2014-06-26_20-50-20_260595134347_rgbf000091-resize_1-target.png,125,2.7305,5,1833,121,feet,jsons/VE125_randls_15.json,425063,593104,26,Man
33,331695,DepthScenes,duration_manipulation_targetAtFixation,jsons/VE125_randls_15.json,http://54.235.29.9/FacialAge/BNav_EC2/DepthDuration/v2_depth_duration_MTurk/v2_DepthDuration_HTML.html#21,21,1920,937,1920,1080,8-29-2022,14-29-4,34,depth_duration_stimuli/001617_2014-06-20_11-35-32_260595134347_rgbf000066-resize_1/001617_2014-06-20_11-35-32_260595134347_rgbf000066-resize_1-target.png,125,3.7910000000000004,10,1998,124,feet,jsons/VE125_randls_15.json,425063,593104,26,Man
34,331695,DepthScenes,duration_manipulation_targetAtFixation,jsons/VE125_randls_15.json,http://54.235.29.9/FacialAge/BNav_EC2/DepthDuration/v2_depth_duration_MTurk/v2_DepthDuration_HTML.html#21,21,1920,937,1920,1080,8-29-2022,14-29-4,35,depth_duration_stimuli/002763_2014-06-22_19-13-10_094959634447_rgbf000075-resize_4/002763_2014-06-22_19-13-10_094959634447_rgbf000075-resize_4-target.png,125,1.68375,4,1830,132,feet,jsons/VE125_randls_15.json,425063,593104,26,Man
35,331695,DepthScenes,duration_manipulation_targetAtFixation,jsons/VE125_randls_15.json,http://54.235.29.9/FacialAge/BNav_EC2/DepthDuration/v2_depth_duration_MTurk/v2_DepthDuration_HTML.html#21,21,1920,937,1920,1080,8-29-2022,14-29-4,36,depth_duration_stimuli/002209_2014-06-28_18-36-10_260595134347_rgbf000051-resize_1/002209_2014-06-28_18-36-10_260595134347_rgbf000051-resize_1-target.png,125,2.057,4,2230,122,feet,jsons/VE125_randls_15.json,425063,593104,26,Man
36,331695,DepthScenes,duration_manipulation_targetAtFixation,jsons/VE125_randls_15.json,http://54.235.29.9/FacialAge/BNav_EC2/DepthDuration/v2_depth_duration_MTurk/v2_DepthDuration_HTML.html#21,21,1920,937,1920,1080,8-29-2022,14-29-4,37,depth_duration_stimuli/002905_2014-06-03_18-04-43_094959634447_rgbf000151-resize_2/002905_2014-06-03_18-04-43_094959634447_rgbf000151-resize_2-target.png,125,2.0295,4,1673,123,feet,jsons/VE125_randls_15.json,425063,593104,26,Man
37,331695,DepthScenes,duration_manipulation_targetAtFixation,jsons/VE125_randls_15.json,http://54.235.29.9/FacialAge/BNav_EC2/DepthDuration/v2_depth_duration_MTurk/v2_DepthDuration_HTML.html#21,21,1920,937,1920,1080,8-29-2022,14-29-4,38,depth_duration_stimuli/003423_2014-05-21_10-23-26_094959634447_rgbf002665-resize_2/003423_2014-05-21_10-23-26_094959634447_rgbf002665-resize_2-target.png,125,3.2575,13,2746,135,feet,jsons/VE125_randls_15.json,425063,593104,26,Man
38,331695,DepthScenes,duration_manipulation_targetAtFixation,jsons/VE125_randls_15.json,http://54.235.29.9/FacialAge/BNav_EC2/DepthDuration/v2_depth_duration_MTurk/v2_DepthDuration_HTML.html#21,21,1920,937,1920,1080,8-29-2022,14-29-4,39,depth_duration_stimuli/001011_2014-06-08_23-18-54_260595134347_rgbf000044-resize_4/001011_2014-06-08_23-18-54_260595134347_rgbf000044-resize_4-target.png,125,2.4730000000000003,9,2213,126,feet,jsons/VE125_randls_15.json,425063,593104,26,Man
39,331695,DepthScenes,duration_manipulation_targetAtFixation,jsons/VE125_randls_15.json,http://54.235.29.9/FacialAge/BNav_EC2/DepthDuration/v2_depth_duration_MTurk/v2_DepthDuration_HTML.html#21,21,1920,937,1920,1080,8-29-2022,14-29-4,40,depth_duration_stimuli/002875_2014-06-01_15-19-00_094959634447_rgbf000151-resize_1/002875_2014-06-01_15-19-00_094959634447_rgbf000151-resize_1-target.png,125,1.9675,6,1668,123,feet,jsons/VE125_randls_15.json,425063,593104,26,Man
40,331695,DepthScenes,duration_manipulation_targetAtFixation,jsons/VE125_randls_15.json,http://54.235.29.9/FacialAge/BNav_EC2/DepthDuration/v2_depth_duration_MTurk/v2_DepthDuration_HTML.html#21,21,1920,937,1920,1080,8-29-2022,14-29-4,41,depth_duration_stimuli/000414_2014-06-04_19-49-13_260595134347_rgbf000044-resize_0/000414_2014-06-04_19-49-13_260595134347_rgbf000044-resize_0-target.png,125,4.329,6,2060,127,feet,jsons/VE125_randls_15.json,425063,593104,26,Man
41,331695,DepthScenes,duration_manipulation_targetAtFixation,jsons/VE125_randls_15.json,http://54.235.29.9/FacialAge/BNav_EC2/DepthDuration/v2_depth_duration_MTurk/v2_DepthDuration_HTML.html#21,21,1920,937,1920,1080,8-29-2022,14-29-4,42,depth_duration_stimuli/003129_2014-05-12_10-48-10_094959634447_rgbf000100-resize_0/003129_2014-05-12_10-48-10_094959634447_rgbf000100-resize_0-target.png,125,4.9305,13,2111,123,feet,jsons/VE125_randls_15.json,425063,593104,26,Man
42,331695,DepthScenes,duration_manipulation_targetAtFixation,jsons/VE125_randls_15.json,http://54.235.29.9/FacialAge/BNav_EC2/DepthDuration/v2_depth_duration_MTurk/v2_DepthDuration_HTML.html#21,21,1920,937,1920,1080,8-29-2022,14-29-4,43,depth_duration_stimuli/000506_2014-06-08_23-21-00_260595134347_rgbf000070-resize_7/000506_2014-06-08_23-21-00_260595134347_rgbf000070-resize_7-target.png,125,4.0585,13,2068,128,feet,jsons/VE125_randls_15.json,425063,593104,26,Man
43,331695,DepthScenes,duration_manipulation_targetAtFixation,jsons/VE125_randls_15.json,http://54.235.29.9/FacialAge/BNav_EC2/DepthDuration/v2_depth_duration_MTurk/v2_DepthDuration_HTML.html#21,21,1920,937,1920,1080,8-29-2022,14-29-4,44,depth_duration_stimuli/003079_2014-06-15_15-18-20_094959634447_rgbf000152-resize_8/003079_2014-06-15_15-18-20_094959634447_rgbf000152-resize_8-target.png,125,2.8775,10,2085,125,feet,jsons/VE125_randls_15.json,425063,593104,26,Man
44,331695,DepthScenes,duration_manipulation_targetAtFixation,jsons/VE125_randls_15.json,http://54.235.29.9/FacialAge/BNav_EC2/DepthDuration/v2_depth_duration_MTurk/v2_DepthDuration_HTML.html#21,21,1920,937,1920,1080,8-29-2022,14-29-4,45,depth_duration_stimuli/000787_2014-06-08_22-33-53_260595134347_rgbf000175-resize_1/000787_2014-06-08_22-33-53_260595134347_rgbf000175-resize-original.jpg,125,4.784,0,1689,122,feet,jsons/VE125_randls_15.json,425063,593104,26,Man
45,331695,DepthScenes,duration_manipulation_targetAtFixation,jsons/VE125_randls_15.json,http://54.235.29.9/FacialAge/BNav_EC2/DepthDuration/v2_depth_duration_MTurk/v2_DepthDuration_HTML.html#21,21,1920,937,1920,1080,8-29-2022,14-29-4,46,depth_duration_stimuli/001016_2014-06-09_16-16-10_260595134347_rgbf000112-resize_5/001016_2014-06-09_16-16-10_260595134347_rgbf000112-resize_5-target.png,125,1.6565,5,1685,122,feet,jsons/VE125_randls_15.json,425063,593104,26,Man
46,331695,DepthScenes,duration_manipulation_targetAtFixation,jsons/VE125_randls_15.json,http://54.235.29.9/FacialAge/BNav_EC2/DepthDuration/v2_depth_duration_MTurk/v2_DepthDuration_HTML.html#21,21,1920,937,1920,1080,8-29-2022,14-29-4,47,depth_duration_stimuli/002340_2014-06-28_20-05-46_260595134347_rgbf000113-resize_0/002340_2014-06-28_20-05-46_260595134347_rgbf000113-resize_0-target.png,125,2.4735,5,1969,130,feet,jsons/VE125_randls_15.json,425063,593104,26,Man
47,331695,DepthScenes,duration_manipulation_targetAtFixation,jsons/VE125_randls_15.json,http://54.235.29.9/FacialAge/BNav_EC2/DepthDuration/v2_depth_duration_MTurk/v2_DepthDuration_HTML.html#21,21,1920,937,1920,1080,8-29-2022,14-29-4,48,depth_duration_stimuli/000368_2014-06-09_15-53-01_260595134347_rgbf000155-resize_2/000368_2014-06-09_15-53-01_260595134347_rgbf000155-resize_2-target.png,125,2.4859999999999998,5,1858,124,feet,jsons/VE125_randls_15.json,425063,593104,26,Man
48,331695,DepthScenes,duration_manipulation_targetAtFixation,jsons/VE125_randls_15.json,http://54.235.29.9/FacialAge/BNav_EC2/DepthDuration/v2_depth_duration_MTurk/v2_DepthDuration_HTML.html#21,21,1920,937,1920,1080,8-29-2022,14-29-4,49,depth_duration_stimuli/002678_2014-06-13_16-15-32_094959634447_rgbf000151-resize_6/002678_2014-06-13_16-15-32_094959634447_rgbf000151-resize_6-target.png,125,2.1830000000000003,10,3149,124,feet,jsons/VE125_randls_15.json,425063,593104,26,Man
49,331695,DepthScenes,duration_manipulation_targetAtFixation,jsons/VE125_randls_15.json,http://54.235.29.9/FacialAge/BNav_EC2/DepthDuration/v2_depth_duration_MTurk/v2_DepthDuration_HTML.html#21,21,1920,937,1920,1080,8-29-2022,14-29-4,50,depth_duration_stimuli/000917_2014-06-09_22-45-29_260595134347_rgbf000149-resize_3/000917_2014-06-09_22-45-29_260595134347_rgbf000149-resize_3-target.png,125,4.1865,7,1803,111,feet,jsons/VE125_randls_15.json,425063,593104,26,Man
50,331695,DepthScenes,duration_manipulation_targetAtFixation,jsons/VE125_randls_15.json,http://54.235.29.9/FacialAge/BNav_EC2/DepthDuration/v2_depth_duration_MTurk/v2_DepthDuration_HTML.html#21,21,1920,937,1920,1080,8-29-2022,14-29-4,51,depth_duration_stimuli/002323_2014-06-28_20-01-54_260595134347_rgbf000051-resize_4/002323_2014-06-28_20-01-54_260595134347_rgbf000051-resize_4-target.png,125,3.7310000000000003,6,1725,123,feet,jsons/VE125_randls_15.json,425063,593104,26,Man
51,331695,DepthScenes,duration_manipulation_targetAtFixation,jsons/VE125_randls_15.json,http://54.235.29.9/FacialAge/BNav_EC2/DepthDuration/v2_depth_duration_MTurk/v2_DepthDuration_HTML.html#21,21,1920,937,1920,1080,8-29-2022,14-29-4,52,depth_duration_stimuli/001150_2014-06-17_15-27-34_260595134347_rgbf000108-resize_2/001150_2014-06-17_15-27-34_260595134347_rgbf000108-resize_2-target.png,125,4.0325,7,1859,124,feet,jsons/VE125_randls_15.json,425063,593104,26,Man
52,331695,DepthScenes,duration_manipulation_targetAtFixation,jsons/VE125_randls_15.json,http://54.235.29.9/FacialAge/BNav_EC2/DepthDuration/v2_depth_duration_MTurk/v2_DepthDuration_HTML.html#21,21,1920,937,1920,1080,8-29-2022,14-29-4,53,depth_duration_stimuli/000665_2014-06-09_20-42-35_260595134347_rgbf000110-resize_1/000665_2014-06-09_20-42-35_260595134347_rgbf000110-resize_1-target.png,125,3.057,6,1521,124,feet,jsons/VE125_randls_15.json,425063,593104,26,Man
53,331695,DepthScenes,duration_manipulation_targetAtFixation,jsons/VE125_randls_15.json,http://54.235.29.9/FacialAge/BNav_EC2/DepthDuration/v2_depth_duration_MTurk/v2_DepthDuration_HTML.html#21,21,1920,937,1920,1080,8-29-2022,14-29-4,54,depth_duration_stimuli/001244_2014-06-17_16-47-45_260595134347_rgbf000030-resize_4/001244_2014-06-17_16-47-45_260595134347_rgbf000030-resize_4-target.png,125,2.0425,0,2138,128,feet,jsons/VE125_randls_15.json,425063,593104,26,Man
54,331695,DepthScenes,duration_manipulation_targetAtFixation,jsons/VE125_randls_15.json,http://54.235.29.9/FacialAge/BNav_EC2/DepthDuration/v2_depth_duration_MTurk/v2_DepthDuration_HTML.html#21,21,1920,937,1920,1080,8-29-2022,14-29-4,55,depth_duration_stimuli/003495_2014-05-21_16-01-51_094959634447_rgbf000100-resize_3/003495_2014-05-21_16-01-51_094959634447_rgbf000100-resize_3-target.png,125,1.6255,4,1595,137,feet,jsons/VE125_randls_15.json,425063,593104,26,Man
55,331695,DepthScenes,duration_manipulation_targetAtFixation,jsons/VE125_randls_15.json,http://54.235.29.9/FacialAge/BNav_EC2/DepthDuration/v2_depth_duration_MTurk/v2_DepthDuration_HTML.html#21,21,1920,937,1920,1080,8-29-2022,14-29-4,56,depth_duration_stimuli/003534_2014-05-22_15-06-10_094959634447_rgbf000102-resize_4/003534_2014-05-22_15-06-10_094959634447_rgbf000102-resize_4-target.png,125,1.426,3,1625,124,feet,jsons/VE125_randls_15.json,425063,593104,26,Man
56,331695,DepthScenes,duration_manipulation_targetAtFixation,jsons/VE125_randls_15.json,http://54.235.29.9/FacialAge/BNav_EC2/DepthDuration/v2_depth_duration_MTurk/v2_DepthDuration_HTML.html#21,21,1920,937,1920,1080,8-29-2022,14-29-4,57,depth_duration_stimuli/002637_2014-06-24_14-51-13_094959634447_rgbf000066-resize_4/002637_2014-06-24_14-51-13_094959634447_rgbf000066-resize_4-target.png,125,1.9955,5,2211,124,feet,jsons/VE125_randls_15.json,425063,593104,26,Man
57,331695,DepthScenes,duration_manipulation_targetAtFixation,jsons/VE125_randls_15.json,http://54.235.29.9/FacialAge/BNav_EC2/DepthDuration/v2_depth_duration_MTurk/v2_DepthDuration_HTML.html#21,21,1920,937,1920,1080,8-29-2022,14-29-4,58,depth_duration_stimuli/003621_2014-05-23_18-06-08_094959634447_rgbf000101-resize_1/003621_2014-05-23_18-06-08_094959634447_rgbf000101-resize_1-target.png,125,3.9835,8,1879,123,feet,jsons/VE125_randls_15.json,425063,593104,26,Man
58,331695,DepthScenes,duration_manipulation_targetAtFixation,jsons/VE125_randls_15.json,http://54.235.29.9/FacialAge/BNav_EC2/DepthDuration/v2_depth_duration_MTurk/v2_DepthDuration_HTML.html#21,21,1920,937,1920,1080,8-29-2022,14-29-4,59,depth_duration_stimuli/001584_2014-06-20_11-07-43_260595134347_rgbf000002-resize_1/001584_2014-06-20_11-07-43_260595134347_rgbf000002-resize_1-target.png,125,3.53,7,1647,139,feet,jsons/VE125_randls_15.json,425063,593104,26,Man
59,331695,DepthScenes,duration_manipulation_targetAtFixation,jsons/VE125_randls_15.json,http://54.235.29.9/FacialAge/BNav_EC2/DepthDuration/v2_depth_duration_MTurk/v2_DepthDuration_HTML.html#21,21,1920,937,1920,1080,8-29-2022,14-29-4,60,depth_duration_stimuli/000522_2014-06-08_13-35-06_260595134347_rgbf000244-resize_1/000522_2014-06-08_13-35-06_260595134347_rgbf000244-resize_1-target.png,125,2.3715,3,1803,125,feet,jsons/VE125_randls_15.json,425063,593104,26,Man
60,331695,DepthScenes,duration_manipulation_targetAtFixation,jsons/VE125_randls_15.json,http://54.235.29.9/FacialAge/BNav_EC2/DepthDuration/v2_depth_duration_MTurk/v2_DepthDuration_HTML.html#21,21,1920,937,1920,1080,8-29-2022,14-29-4,61,depth_duration_stimuli/002949_2014-06-26_15-57-42_094959634447_rgbf000079-resize_1/002949_2014-06-26_15-57-42_094959634447_rgbf000079-resize_1-target.png,125,1.8915,4,2034,123,feet,jsons/VE125_randls_15.json,425063,593104,26,Man
61,331695,DepthScenes,duration_manipulation_targetAtFixation,jsons/VE125_randls_15.json,http://54.235.29.9/FacialAge/BNav_EC2/DepthDuration/v2_depth_duration_MTurk/v2_DepthDuration_HTML.html#21,21,1920,937,1920,1080,8-29-2022,14-29-4,62,depth_duration_stimuli/001055_2014-06-08_18-45-35_260595134347_rgbf000111-resize_4/001055_2014-06-08_18-45-35_260595134347_rgbf000111-resize_4-target.png,125,2.4290000000000003,6,1628,126,feet,jsons/VE125_randls_15.json,425063,593104,26,Man
62,331695,DepthScenes,duration_manipulation_targetAtFixation,jsons/VE125_randls_15.json,http://54.235.29.9/FacialAge/BNav_EC2/DepthDuration/v2_depth_duration_MTurk/v2_DepthDuration_HTML.html#21,21,1920,937,1920,1080,8-29-2022,14-29-4,63,depth_duration_stimuli/000549_2014-06-08_22-10-24_260595134347_rgbf000247-resize_3/000549_2014-06-08_22-10-24_260595134347_rgbf000247-resize_3-target.png,125,1.841,3,1473,127,feet,jsons/VE125_randls_15.json,425063,593104,26,Man
63,331695,DepthScenes,duration_manipulation_targetAtFixation,jsons/VE125_randls_15.json,http://54.235.29.9/FacialAge/BNav_EC2/DepthDuration/v2_depth_duration_MTurk/v2_DepthDuration_HTML.html#21,21,1920,937,1920,1080,8-29-2022,14-29-4,64,depth_duration_stimuli/001808_2014-06-26_20-50-58_260595134347_rgbf000029-resize_1/001808_2014-06-26_20-50-58_260595134347_rgbf000029-resize_1-target.png,125,4.249,7,1686,123,feet,jsons/VE125_randls_15.json,425063,593104,26,Man
64,331695,DepthScenes,duration_manipulation_targetAtFixation,jsons/VE125_randls_15.json,http://54.235.29.9/FacialAge/BNav_EC2/DepthDuration/v2_depth_duration_MTurk/v2_DepthDuration_HTML.html#21,21,1920,937,1920,1080,8-29-2022,14-29-4,65,depth_duration_stimuli/001815_2014-06-26_20-52-55_260595134347_rgbf000020-resize_0/001815_2014-06-26_20-52-55_260595134347_rgbf000020-resize_0-target.png,125,3.3865,6,1639,124,feet,jsons/VE125_randls_15.json,425063,593104,26,Man
65,331695,DepthScenes,duration_manipulation_targetAtFixation,jsons/VE125_randls_15.json,http://54.235.29.9/FacialAge/BNav_EC2/DepthDuration/v2_depth_duration_MTurk/v2_DepthDuration_HTML.html#21,21,1920,937,1920,1080,8-29-2022,14-29-4,66,depth_duration_stimuli/001222_2014-06-17_16-24-06_260595134347_rgbf000073-resize_0/001222_2014-06-17_16-24-06_260595134347_rgbf000073-resize-original.jpg,125,1.4385,0,1844,123,feet,jsons/VE125_randls_15.json,425063,593104,26,Man
66,331695,DepthScenes,duration_manipulation_targetAtFixation,jsons/VE125_randls_15.json,http://54.235.29.9/FacialAge/BNav_EC2/DepthDuration/v2_depth_duration_MTurk/v2_DepthDuration_HTML.html#21,21,1920,937,1920,1080,8-29-2022,14-29-4,67,depth_duration_stimuli/002153_2014-06-25_21-27-18_260595134347_rgbf000038-resize_5/002153_2014-06-25_21-27-18_260595134347_rgbf000038-resize_5-target.png,125,2.505,4,1619,138,feet,jsons/VE125_randls_15.json,425063,593104,26,Man
67,331695,DepthScenes,duration_manipulation_targetAtFixation,jsons/VE125_randls_15.json,http://54.235.29.9/FacialAge/BNav_EC2/DepthDuration/v2_depth_duration_MTurk/v2_DepthDuration_HTML.html#21,21,1920,937,1920,1080,8-29-2022,14-29-4,68,depth_duration_stimuli/002660_2014-06-13_15-44-18_094959634447_rgbf001878-resize_2/002660_2014-06-13_15-44-18_094959634447_rgbf001878-resize_2-target.png,125,3.576,6,1811,109,feet,jsons/VE125_randls_15.json,425063,593104,26,Man
68,331695,DepthScenes,duration_manipulation_targetAtFixation,jsons/VE125_randls_15.json,http://54.235.29.9/FacialAge/BNav_EC2/DepthDuration/v2_depth_duration_MTurk/v2_DepthDuration_HTML.html#21,21,1920,937,1920,1080,8-29-2022,14-29-4,69,depth_duration_stimuli/002509_2014-06-24_13-19-22_094959634447_rgbf000077-resize_0/002509_2014-06-24_13-19-22_094959634447_rgbf000077-resize_0-target.png,125,1.3065,4,1591,121,feet,jsons/VE125_randls_15.json,425063,593104,26,Man
69,331695,DepthScenes,duration_manipulation_targetAtFixation,jsons/VE125_randls_15.json,http://54.235.29.9/FacialAge/BNav_EC2/DepthDuration/v2_depth_duration_MTurk/v2_DepthDuration_HTML.html#21,21,1920,937,1920,1080,8-29-2022,14-29-4,70,depth_duration_stimuli/003338_2014-05-20_11-01-23_094959634447_rgbf000051-resize_6/003338_2014-05-20_11-01-23_094959634447_rgbf000051-resize_6-target.png,125,1.693,4,1270,134,feet,jsons/VE125_randls_15.json,425063,593104,26,Man
70,331695,DepthScenes,duration_manipulation_targetAtFixation,jsons/VE125_randls_15.json,http://54.235.29.9/FacialAge/BNav_EC2/DepthDuration/v2_depth_duration_MTurk/v2_DepthDuration_HTML.html#21,21,1920,937,1920,1080,8-29-2022,14-29-4,71,depth_duration_stimuli/003070_2014-06-15_14-58-27_094959634447_rgbf000150-resize_3/003070_2014-06-15_14-58-27_094959634447_rgbf000150-resize_3-target.png,125,2.9415,6,1554,123,feet,jsons/VE125_randls_15.json,425063,593104,26,Man
71,331695,DepthScenes,duration_manipulation_targetAtFixation,jsons/VE125_randls_15.json,http://54.235.29.9/FacialAge/BNav_EC2/DepthDuration/v2_depth_duration_MTurk/v2_DepthDuration_HTML.html#21,21,1920,937,1920,1080,8-29-2022,14-29-4,72,depth_duration_stimuli/000943_2014-06-09_19-31-07_260595134347_rgbf000128-resize_1/000943_2014-06-09_19-31-07_260595134347_rgbf000128-resize_1-target.png,125,1.9765,4,1652,124,feet,jsons/VE125_randls_15.json,425063,593104,26,Man
72,331695,DepthScenes,duration_manipulation_targetAtFixation,jsons/VE125_randls_15.json,http://54.235.29.9/FacialAge/BNav_EC2/DepthDuration/v2_depth_duration_MTurk/v2_DepthDuration_HTML.html#21,21,1920,937,1920,1080,8-29-2022,14-29-4,73,depth_duration_stimuli/001555_2014-06-20_17-12-10_260595134347_rgbf000065-resize_4/001555_2014-06-20_17-12-10_260595134347_rgbf000065-resize_4-target.png,125,1.633,4,1607,125,feet,jsons/VE125_randls_15.json,425063,593104,26,Man
73,331695,DepthScenes,duration_manipulation_targetAtFixation,jsons/VE125_randls_15.json,http://54.235.29.9/FacialAge/BNav_EC2/DepthDuration/v2_depth_duration_MTurk/v2_DepthDuration_HTML.html#21,21,1920,937,1920,1080,8-29-2022,14-29-4,74,depth_duration_stimuli/000103_2014-05-14_22-01-17_260595134347_rgbf000152-resize_5/000103_2014-05-14_22-01-17_260595134347_rgbf000152-resize_5-target.png,125,1.993,8,1721,110,feet,jsons/VE125_randls_15.json,425063,593104,26,Man
74,331695,DepthScenes,duration_manipulation_targetAtFixation,jsons/VE125_randls_15.json,http://54.235.29.9/FacialAge/BNav_EC2/DepthDuration/v2_depth_duration_MTurk/v2_DepthDuration_HTML.html#21,21,1920,937,1920,1080,8-29-2022,14-29-4,75,depth_duration_stimuli/000009_2014-05-26_14-32-05_260595134347_rgbf000034-resize_3/000009_2014-05-26_14-32-05_260595134347_rgbf000034-resize_3-target.png,125,3.8715,10,1757,124,feet,jsons/VE125_randls_15.json,425063,593104,26,Man
75,331695,DepthScenes,duration_manipulation_targetAtFixation,jsons/VE125_randls_15.json,http://54.235.29.9/FacialAge/BNav_EC2/DepthDuration/v2_depth_duration_MTurk/v2_DepthDuration_HTML.html#21,21,1920,937,1920,1080,8-29-2022,14-29-4,76,depth_duration_stimuli/001828_2014-06-26_21-40-03_260595134347_rgbf000024-resize_0/001828_2014-06-26_21-40-03_260595134347_rgbf000024-resize_0-target.png,125,4.8260000000000005,7,1575,108,feet,jsons/VE125_randls_15.json,425063,593104,26,Man
76,331695,DepthScenes,duration_manipulation_targetAtFixation,jsons/VE125_randls_15.json,http://54.235.29.9/FacialAge/BNav_EC2/DepthDuration/v2_depth_duration_MTurk/v2_DepthDuration_HTML.html#21,21,1920,937,1920,1080,8-29-2022,14-29-4,77,depth_duration_stimuli/000642_2014-06-08_16-59-25_260595134347_rgbf000098-resize_2/000642_2014-06-08_16-59-25_260595134347_rgbf000098-resize_2-target.png,125,2.8815,6,1734,136,feet,jsons/VE125_randls_15.json,425063,593104,26,Man
77,331695,DepthScenes,duration_manipulation_targetAtFixation,jsons/VE125_randls_15.json,http://54.235.29.9/FacialAge/BNav_EC2/DepthDuration/v2_depth_duration_MTurk/v2_DepthDuration_HTML.html#21,21,1920,937,1920,1080,8-29-2022,14-29-4,78,depth_duration_stimuli/002425_2014-06-28_20-27-29_260595134347_rgbf000031-resize_8/002425_2014-06-28_20-27-29_260595134347_rgbf000031-resize_8-target.png,125,3.8960000000000004,8,1628,124,feet,jsons/VE125_randls_15.json,425063,593104,26,Man
78,331695,DepthScenes,duration_manipulation_targetAtFixation,jsons/VE125_randls_15.json,http://54.235.29.9/FacialAge/BNav_EC2/DepthDuration/v2_depth_duration_MTurk/v2_DepthDuration_HTML.html#21,21,1920,937,1920,1080,8-29-2022,14-29-4,79,depth_duration_stimuli/002630_2014-06-24_14-47-50_094959634447_rgbf000055-resize_1/002630_2014-06-24_14-47-50_094959634447_rgbf000055-resize_1-target.png,125,3.0095,9,2202,122,feet,jsons/VE125_randls_15.json,425063,593104,26,Man
79,331695,DepthScenes,duration_manipulation_targetAtFixation,jsons/VE125_randls_15.json,http://54.235.29.9/FacialAge/BNav_EC2/DepthDuration/v2_depth_duration_MTurk/v2_DepthDuration_HTML.html#21,21,1920,937,1920,1080,8-29-2022,14-29-4,80,depth_duration_stimuli/002758_2014-06-22_19-11-20_094959634447_rgbf000128-resize_1/002758_2014-06-22_19-11-20_094959634447_rgbf000128-resize_1-target.png,125,2.555,6,1875,122,feet,jsons/VE125_randls_15.json,425063,593104,26,Man
80,331695,DepthScenes,duration_manipulation_targetAtFixation,jsons/VE125_randls_15.json,http://54.235.29.9/FacialAge/BNav_EC2/DepthDuration/v2_depth_duration_MTurk/v2_DepthDuration_HTML.html#21,21,1920,937,1920,1080,8-29-2022,14-29-4,81,depth_duration_stimuli/001158_2014-06-17_15-32-16_260595134347_rgbf000138-resize_2/001158_2014-06-17_15-32-16_260595134347_rgbf000138-resize_2-target.png,125,4.5315,10,1845,125,feet,jsons/VE125_randls_15.json,425063,593104,26,Man
81,331695,DepthScenes,duration_manipulation_targetAtFixation,jsons/VE125_randls_15.json,http://54.235.29.9/FacialAge/BNav_EC2/DepthDuration/v2_depth_duration_MTurk/v2_DepthDuration_HTML.html#21,21,1920,937,1920,1080,8-29-2022,14-29-4,82,depth_duration_stimuli/000556_2014-06-09_22-42-56_260595134347_rgbf000214-resize_1/000556_2014-06-09_22-42-56_260595134347_rgbf000214-resize_1-target.png,125,4.8415,8,1567,129,feet,jsons/VE125_randls_15.json,425063,593104,26,Man
82,331695,DepthScenes,duration_manipulation_targetAtFixation,jsons/VE125_randls_15.json,http://54.235.29.9/FacialAge/BNav_EC2/DepthDuration/v2_depth_duration_MTurk/v2_DepthDuration_HTML.html#21,21,1920,937,1920,1080,8-29-2022,14-29-4,83,depth_duration_stimuli/001167_2014-06-17_15-38-07_260595134347_rgbf000108-resize_0/001167_2014-06-17_15-38-07_260595134347_rgbf000108-resize_0-target.png,125,1.8505,4,1436,126,feet,jsons/VE125_randls_15.json,425063,593104,26,Man
83,331695,DepthScenes,duration_manipulation_targetAtFixation,jsons/VE125_randls_15.json,http://54.235.29.9/FacialAge/BNav_EC2/DepthDuration/v2_depth_duration_MTurk/v2_DepthDuration_HTML.html#21,21,1920,937,1920,1080,8-29-2022,14-29-4,84,depth_duration_stimuli/003587_2014-05-23_16-48-02_094959634447_rgbf002384-resize_2/003587_2014-05-23_16-48-02_094959634447_rgbf002384-resize_2-target.png,125,1.357,3,2543,123,feet,jsons/VE125_randls_15.json,425063,593104,26,Man
84,331695,DepthScenes,duration_manipulation_targetAtFixation,jsons/VE125_randls_15.json,http://54.235.29.9/FacialAge/BNav_EC2/DepthDuration/v2_depth_duration_MTurk/v2_DepthDuration_HTML.html#21,21,1920,937,1920,1080,8-29-2022,14-29-4,85,depth_duration_stimuli/002725_2014-06-22_11-47-51_094959634447_rgbf000070-resize_1/002725_2014-06-22_11-47-51_094959634447_rgbf000070-resize_1-target.png,125,2.195,7,3353,128,feet,jsons/VE125_randls_15.json,425063,593104,26,Man
85,331695,DepthScenes,duration_manipulation_targetAtFixation,jsons/VE125_randls_15.json,http://54.235.29.9/FacialAge/BNav_EC2/DepthDuration/v2_depth_duration_MTurk/v2_DepthDuration_HTML.html#21,21,1920,937,1920,1080,8-29-2022,14-29-4,86,depth_duration_stimuli/002344_2014-06-28_20-06-29_260595134347_rgbf000030-resize_1/002344_2014-06-28_20-06-29_260595134347_rgbf000030-resize_1-target.png,125,1.5795,4,1748,124,feet,jsons/VE125_randls_15.json,425063,593104,26,Man
86,331695,DepthScenes,duration_manipulation_targetAtFixation,jsons/VE125_randls_15.json,http://54.235.29.9/FacialAge/BNav_EC2/DepthDuration/v2_depth_duration_MTurk/v2_DepthDuration_HTML.html#21,21,1920,937,1920,1080,8-29-2022,14-29-4,87,depth_duration_stimuli/000736_2014-06-08_18-24-15_260595134347_rgbf000206-resize_3/000736_2014-06-08_18-24-15_260595134347_rgbf000206-resize_3-target.png,125,3.515,6,1606,124,feet,jsons/VE125_randls_15.json,425063,593104,26,Man
87,331695,DepthScenes,duration_manipulation_targetAtFixation,jsons/VE125_randls_15.json,http://54.235.29.9/FacialAge/BNav_EC2/DepthDuration/v2_depth_duration_MTurk/v2_DepthDuration_HTML.html#21,21,1920,937,1920,1080,8-29-2022,14-29-4,88,depth_duration_stimuli/000137_2014-05-20_17-04-49_260595134347_rgbf000120-resize_1/000137_2014-05-20_17-04-49_260595134347_rgbf000120-resize_1-target.png,125,3.786,8,1479,124,feet,jsons/VE125_randls_15.json,425063,593104,26,Man
88,331695,DepthScenes,duration_manipulation_targetAtFixation,jsons/VE125_randls_15.json,http://54.235.29.9/FacialAge/BNav_EC2/DepthDuration/v2_depth_duration_MTurk/v2_DepthDuration_HTML.html#21,21,1920,937,1920,1080,8-29-2022,14-29-4,89,depth_duration_stimuli/000436_2014-06-09_22-25-11_260595134347_rgbf000137-resize_1/000436_2014-06-09_22-25-11_260595134347_rgbf000137-resize_1-target.png,125,4.0705,10,1696,130,feet,jsons/VE125_randls_15.json,425063,593104,26,Man
89,331695,DepthScenes,duration_manipulation_targetAtFixation,jsons/VE125_randls_15.json,http://54.235.29.9/FacialAge/BNav_EC2/DepthDuration/v2_depth_duration_MTurk/v2_DepthDuration_HTML.html#21,21,1920,937,1920,1080,8-29-2022,14-29-4,90,depth_duration_stimuli/002444_2014-06-28_20-32-08_260595134347_rgbf000027-resize_0/002444_2014-06-28_20-32-08_260595134347_rgbf000027-resize_0-target.png,125,4.388999999999999,9,1938,113,feet,jsons/VE125_randls_15.json,425063,593104,26,Man
90,331695,DepthScenes,duration_manipulation_targetAtFixation,jsons/VE125_randls_15.json,http://54.235.29.9/FacialAge/BNav_EC2/DepthDuration/v2_depth_duration_MTurk/v2_DepthDuration_HTML.html#21,21,1920,937,1920,1080,8-29-2022,14-29-4,91,depth_duration_stimuli/002600_2014-06-24_14-27-04_094959634447_rgbf000074-resize_2/002600_2014-06-24_14-27-04_094959634447_rgbf000074-resize_2-target.png,125,2.7575,5,1547,125,feet,jsons/VE125_randls_15.json,425063,593104,26,Man
91,331695,DepthScenes,duration_manipulation_targetAtFixation,jsons/VE125_randls_15.json,http://54.235.29.9/FacialAge/BNav_EC2/DepthDuration/v2_depth_duration_MTurk/v2_DepthDuration_HTML.html#21,21,1920,937,1920,1080,8-29-2022,14-29-4,92,depth_duration_stimuli/003228_2014-05-14_13-42-35_094959634447_rgbf000101-resize_1/003228_2014-05-14_13-42-35_094959634447_rgbf000101-resize_1-target.png,125,1.9680000000000002,4,1597,139,feet,jsons/VE125_randls_15.json,425063,593104,26,Man
92,331695,DepthScenes,duration_manipulation_targetAtFixation,jsons/VE125_randls_15.json,http://54.235.29.9/FacialAge/BNav_EC2/DepthDuration/v2_depth_duration_MTurk/v2_DepthDuration_HTML.html#21,21,1920,937,1920,1080,8-29-2022,14-29-4,93,depth_duration_stimuli/000682_2014-06-08_23-14-58_260595134347_rgbf000041-resize_5/000682_2014-06-08_23-14-58_260595134347_rgbf000041-resize_5-target.png,125,2.7239999999999998,5,2730,128,feet,jsons/VE125_randls_15.json,425063,593104,26,Man
93,331695,DepthScenes,duration_manipulation_targetAtFixation,jsons/VE125_randls_15.json,http://54.235.29.9/FacialAge/BNav_EC2/DepthDuration/v2_depth_duration_MTurk/v2_DepthDuration_HTML.html#21,21,1920,937,1920,1080,8-29-2022,14-29-4,94,depth_duration_stimuli/001650_2014-06-20_12-09-00_260595134347_rgbf000087-resize_3/001650_2014-06-20_12-09-00_260595134347_rgbf000087-resize_3-target.png,125,1.9505,3,1603,125,feet,jsons/VE125_randls_15.json,425063,593104,26,Man
94,331695,DepthScenes,duration_manipulation_targetAtFixation,jsons/VE125_randls_15.json,http://54.235.29.9/FacialAge/BNav_EC2/DepthDuration/v2_depth_duration_MTurk/v2_DepthDuration_HTML.html#21,21,1920,937,1920,1080,8-29-2022,14-29-4,95,depth_duration_stimuli/002445_2014-06-28_20-32-16_260595134347_rgbf000029-resize_4/002445_2014-06-28_20-32-16_260595134347_rgbf000029-resize_4-target.png,125,2.5315,5,1488,140,feet,jsons/VE125_randls_15.json,425063,593104,26,Man
95,331695,DepthScenes,duration_manipulation_targetAtFixation,jsons/VE125_randls_15.json,http://54.235.29.9/FacialAge/BNav_EC2/DepthDuration/v2_depth_duration_MTurk/v2_DepthDuration_HTML.html#21,21,1920,937,1920,1080,8-29-2022,14-29-4,96,depth_duration_stimuli/000780_2014-06-08_22-28-29_260595134347_rgbf000126-resize_1/000780_2014-06-08_22-28-29_260595134347_rgbf000126-resize_1-target.png,125,3.3825,7,1567,123,feet,jsons/VE125_randls_15.json,425063,593104,26,Man
96,331695,DepthScenes,duration_manipulation_targetAtFixation,jsons/VE125_randls_15.json,http://54.235.29.9/FacialAge/BNav_EC2/DepthDuration/v2_depth_duration_MTurk/v2_DepthDuration_HTML.html#21,21,1920,937,1920,1080,8-29-2022,14-29-4,97,depth_duration_stimuli/000788_2014-06-08_22-34-36_260595134347_rgbf000131-resize_1/000788_2014-06-08_22-34-36_260595134347_rgbf000131-resize_1-target.png,125,3.359,6,1632,124,feet,jsons/VE125_randls_15.json,425063,593104,26,Man
97,331695,DepthScenes,duration_manipulation_targetAtFixation,jsons/VE125_randls_15.json,http://54.235.29.9/FacialAge/BNav_EC2/DepthDuration/v2_depth_duration_MTurk/v2_DepthDuration_HTML.html#21,21,1920,937,1920,1080,8-29-2022,14-29-4,98,depth_duration_stimuli/001235_2014-06-17_16-37-36_260595134347_rgbf000084-resize_4/001235_2014-06-17_16-37-36_260595134347_rgbf000084-resize_4-target.png,125,3.6605,4,1828,125,feet,jsons/VE125_randls_15.json,425063,593104,26,Man
98,331695,DepthScenes,duration_manipulation_targetAtFixation,jsons/VE125_randls_15.json,http://54.235.29.9/FacialAge/BNav_EC2/DepthDuration/v2_depth_duration_MTurk/v2_DepthDuration_HTML.html#21,21,1920,937,1920,1080,8-29-2022,14-29-4,99,depth_duration_stimuli/001540_2014-06-20_17-01-05_260595134347_rgbf000086-resize_2/001540_2014-06-20_17-01-05_260595134347_rgbf000086-resize-original.jpg,125,1.459,0,2283,124,feet,jsons/VE125_randls_15.json,425063,593104,26,Man
99,331695,DepthScenes,duration_manipulation_targetAtFixation,jsons/VE125_randls_15.json,http://54.235.29.9/FacialAge/BNav_EC2/DepthDuration/v2_depth_duration_MTurk/v2_DepthDuration_HTML.html#21,21,1920,937,1920,1080,8-29-2022,14-29-4,100,depth_duration_stimuli/000692_2014-06-08_13-09-42_260595134347_rgbf000199-resize_2/000692_2014-06-08_13-09-42_260595134347_rgbf000199-resize_2-target.png,125,3.661,7,2609,129,feet,jsons/VE125_randls_15.json,425063,593104,26,Man
100,331695,DepthScenes,duration_manipulation_targetAtFixation,jsons/VE125_randls_15.json,http://54.235.29.9/FacialAge/BNav_EC2/DepthDuration/v2_depth_duration_MTurk/v2_DepthDuration_HTML.html#21,21,1920,937,1920,1080,8-29-2022,14-29-4,101,depth_duration_stimuli/001094_2014-06-15_17-36-00_260595134347_rgbf000205-resize_0/001094_2014-06-15_17-36-00_260595134347_rgbf000205-resize_0-target.png,125,4.2175,8,1901,122,feet,jsons/VE125_randls_15.json,425063,593104,26,Man
101,331695,DepthScenes,duration_manipulation_targetAtFixation,jsons/VE125_randls_15.json,http://54.235.29.9/FacialAge/BNav_EC2/DepthDuration/v2_depth_duration_MTurk/v2_DepthDuration_HTML.html#21,21,1920,937,1920,1080,8-29-2022,14-29-4,102,depth_duration_stimuli/000810_2014-06-08_17-20-01_260595134347_rgbf000105-resize_0/000810_2014-06-08_17-20-01_260595134347_rgbf000105-resize_0-target.png,125,1.4865,6,2155,136,feet,jsons/VE125_randls_15.json,425063,593104,26,Man
102,331695,DepthScenes,duration_manipulation_targetAtFixation,jsons/VE125_randls_15.json,http://54.235.29.9/FacialAge/BNav_EC2/DepthDuration/v2_depth_duration_MTurk/v2_DepthDuration_HTML.html#21,21,1920,937,1920,1080,8-29-2022,14-29-4,103,depth_duration_stimuli/001214_2014-06-17_16-13-55_260595134347_rgbf000111-resize_0/001214_2014-06-17_16-13-55_260595134347_rgbf000111-resize_0-target.png,125,2.6505,0,2092,122,feet,jsons/VE125_randls_15.json,425063,593104,26,Man
103,331695,DepthScenes,duration_manipulation_targetAtFixation,jsons/VE125_randls_15.json,http://54.235.29.9/FacialAge/BNav_EC2/DepthDuration/v2_depth_duration_MTurk/v2_DepthDuration_HTML.html#21,21,1920,937,1920,1080,8-29-2022,14-29-4,104,depth_duration_stimuli/003292_2014-05-14_21-53-49_094959634447_rgbf000100-resize_2/003292_2014-05-14_21-53-49_094959634447_rgbf000100-resize_2-target.png,125,3.4815,5,1677,122,feet,jsons/VE125_randls_15.json,425063,593104,26,Man
104,331695,DepthScenes,duration_manipulation_targetAtFixation,jsons/VE125_randls_15.json,http://54.235.29.9/FacialAge/BNav_EC2/DepthDuration/v2_depth_duration_MTurk/v2_DepthDuration_HTML.html#21,21,1920,937,1920,1080,8-29-2022,14-29-4,105,depth_duration_stimuli/002639_2014-06-24_14-51-37_094959634447_rgbf000074-resize_4/002639_2014-06-24_14-51-37_094959634447_rgbf000074-resize_4-target.png,125,4.0375,7,1887,130,feet,jsons/VE125_randls_15.json,425063,593104,26,Man
105,331695,DepthScenes,duration_manipulation_targetAtFixation,jsons/VE125_randls_15.json,http://54.235.29.9/FacialAge/BNav_EC2/DepthDuration/v2_depth_duration_MTurk/v2_DepthDuration_HTML.html#21,21,1920,937,1920,1080,8-29-2022,14-29-4,106,depth_duration_stimuli/002118_2014-06-25_20-32-08_260595134347_rgbf000078-resize_1/002118_2014-06-25_20-32-08_260595134347_rgbf000078-resize_1-target.png,125,2.6460000000000004,7,1896,123,feet,jsons/VE125_randls_15.json,425063,593104,26,Man
106,331695,DepthScenes,duration_manipulation_targetAtFixation,jsons/VE125_randls_15.json,http://54.235.29.9/FacialAge/BNav_EC2/DepthDuration/v2_depth_duration_MTurk/v2_DepthDuration_HTML.html#21,21,1920,937,1920,1080,8-29-2022,14-29-4,107,depth_duration_stimuli/001516_2014-06-20_16-25-09_260595134347_rgbf000076-resize_2/001516_2014-06-20_16-25-09_260595134347_rgbf000076-resize_2-target.png,125,1.7445,6,2055,118,feet,jsons/VE125_randls_15.json,425063,593104,26,Man
107,331695,DepthScenes,duration_manipulation_targetAtFixation,jsons/VE125_randls_15.json,http://54.235.29.9/FacialAge/BNav_EC2/DepthDuration/v2_depth_duration_MTurk/v2_DepthDuration_HTML.html#21,21,1920,937,1920,1080,8-29-2022,14-29-4,108,depth_duration_stimuli/000469_2014-06-09_19-42-10_260595134347_rgbf000081-resize_1/000469_2014-06-09_19-42-10_260595134347_rgbf000081-resize_1-target.png,125,1.652,5,1575,126,feet,jsons/VE125_randls_15.json,425063,593104,26,Man
108,331695,DepthScenes,duration_manipulation_targetAtFixation,jsons/VE125_randls_15.json,http://54.235.29.9/FacialAge/BNav_EC2/DepthDuration/v2_depth_duration_MTurk/v2_DepthDuration_HTML.html#21,21,1920,937,1920,1080,8-29-2022,14-29-4,109,depth_duration_stimuli/000483_2014-06-09_20-41-45_260595134347_rgbf000116-resize_4/000483_2014-06-09_20-41-45_260595134347_rgbf000116-resize_4-target.png,125,1.337,4,1893,123,feet,jsons/VE125_randls_15.json,425063,593104,26,Man
109,331695,DepthScenes,duration_manipulation_targetAtFixation,jsons/VE125_randls_15.json,http://54.235.29.9/FacialAge/BNav_EC2/DepthDuration/v2_depth_duration_MTurk/v2_DepthDuration_HTML.html#21,21,1920,937,1920,1080,8-29-2022,14-29-4,110,depth_duration_stimuli/001056_2014-06-08_18-46-44_260595134347_rgbf000068-resize_0/001056_2014-06-08_18-46-44_260595134347_rgbf000068-resize_0-target.png,125,2.6625,7,1615,127,feet,jsons/VE125_randls_15.json,425063,593104,26,Man
110,331695,DepthScenes,duration_manipulation_targetAtFixation,jsons/VE125_randls_15.json,http://54.235.29.9/FacialAge/BNav_EC2/DepthDuration/v2_depth_duration_MTurk/v2_DepthDuration_HTML.html#21,21,1920,937,1920,1080,8-29-2022,14-29-4,111,depth_duration_stimuli/002199_2014-06-28_18-33-56_260595134347_rgbf000074-resize_0/002199_2014-06-28_18-33-56_260595134347_rgbf000074-resize_0-target.png,125,1.996,7,2155,131,feet,jsons/VE125_randls_15.json,425063,593104,26,Man
111,331695,DepthScenes,duration_manipulation_targetAtFixation,jsons/VE125_randls_15.json,http://54.235.29.9/FacialAge/BNav_EC2/DepthDuration/v2_depth_duration_MTurk/v2_DepthDuration_HTML.html#21,21,1920,937,1920,1080,8-29-2022,14-29-4,112,depth_duration_stimuli/000470_2014-06-09_19-42-40_260595134347_rgbf000094-resize_1/000470_2014-06-09_19-42-40_260595134347_rgbf000094-resize_1-target.png,125,1.831,5,1400,131,feet,jsons/VE125_randls_15.json,425063,593104,26,Man
112,331695,DepthScenes,duration_manipulation_targetAtFixation,jsons/VE125_randls_15.json,http://54.235.29.9/FacialAge/BNav_EC2/DepthDuration/v2_depth_duration_MTurk/v2_DepthDuration_HTML.html#21,21,1920,937,1920,1080,8-29-2022,14-29-4,113,depth_duration_stimuli/000109_2014-05-14_23-41-52_260595134347_rgbf000035-resize_9/000109_2014-05-14_23-41-52_260595134347_rgbf000035-resize_9-target.png,125,1.3545,4,1677,124,feet,jsons/VE125_randls_15.json,425063,593104,26,Man
113,331695,DepthScenes,duration_manipulation_targetAtFixation,jsons/VE125_randls_15.json,http://54.235.29.9/FacialAge/BNav_EC2/DepthDuration/v2_depth_duration_MTurk/v2_DepthDuration_HTML.html#21,21,1920,937,1920,1080,8-29-2022,14-29-4,114,depth_duration_stimuli/001059_2014-06-08_21-53-27_260595134347_rgbf000061-resize_4/001059_2014-06-08_21-53-27_260595134347_rgbf000061-resize_4-target.png,125,2.4185,6,1588,123,feet,jsons/VE125_randls_15.json,425063,593104,26,Man
114,331695,DepthScenes,duration_manipulation_targetAtFixation,jsons/VE125_randls_15.json,http://54.235.29.9/FacialAge/BNav_EC2/DepthDuration/v2_depth_duration_MTurk/v2_DepthDuration_HTML.html#21,21,1920,937,1920,1080,8-29-2022,14-29-4,115,depth_duration_stimuli/001032_2014-06-08_13-23-17_260595134347_rgbf000021-resize_3/001032_2014-06-08_13-23-17_260595134347_rgbf000021-resize_3-target.png,125,3.2725,4,1460,123,feet,jsons/VE125_randls_15.json,425063,593104,26,Man
115,331695,DepthScenes,duration_manipulation_targetAtFixation,jsons/VE125_randls_15.json,http://54.235.29.9/FacialAge/BNav_EC2/DepthDuration/v2_depth_duration_MTurk/v2_DepthDuration_HTML.html#21,21,1920,937,1920,1080,8-29-2022,14-29-4,116,depth_duration_stimuli/001170_2014-06-17_15-43-44_260595134347_rgbf000096-resize_6/001170_2014-06-17_15-43-44_260595134347_rgbf000096-resize-original.jpg,125,1.1909999999999998,0,1679,134,feet,jsons/VE125_randls_15.json,425063,593104,26,Man
116,331695,DepthScenes,duration_manipulation_targetAtFixation,jsons/VE125_randls_15.json,http://54.235.29.9/FacialAge/BNav_EC2/DepthDuration/v2_depth_duration_MTurk/v2_DepthDuration_HTML.html#21,21,1920,937,1920,1080,8-29-2022,14-29-4,117,depth_duration_stimuli/002549_2014-06-24_13-41-39_094959634447_rgbf000022-resize_3/002549_2014-06-24_13-41-39_094959634447_rgbf000022-resize_3-target.png,125,1.476,44,1777,123,feet,jsons/VE125_randls_15.json,425063,593104,26,Man
117,331695,DepthScenes,duration_manipulation_targetAtFixation,jsons/VE125_randls_15.json,http://54.235.29.9/FacialAge/BNav_EC2/DepthDuration/v2_depth_duration_MTurk/v2_DepthDuration_HTML.html#21,21,1920,937,1920,1080,8-29-2022,14-29-4,118,depth_duration_stimuli/002750_2014-06-22_19-08-03_094959634447_rgbf000094-resize_4/002750_2014-06-22_19-08-03_094959634447_rgbf000094-resize_4-target.png,125,2.354,5,2302,123,feet,jsons/VE125_randls_15.json,425063,593104,26,Man
118,331695,DepthScenes,duration_manipulation_targetAtFixation,jsons/VE125_randls_15.json,http://54.235.29.9/FacialAge/BNav_EC2/DepthDuration/v2_depth_duration_MTurk/v2_DepthDuration_HTML.html#21,21,1920,937,1920,1080,8-29-2022,14-29-4,119,depth_duration_stimuli/001092_2014-06-15_17-34-58_260595134347_rgbf000171-resize_3/001092_2014-06-15_17-34-58_260595134347_rgbf000171-resize_3-target.png,125,2.6935,5,2358,135,feet,jsons/VE125_randls_15.json,425063,593104,26,Man
119,331695,DepthScenes,duration_manipulation_targetAtFixation,jsons/VE125_randls_15.json,http://54.235.29.9/FacialAge/BNav_EC2/DepthDuration/v2_depth_duration_MTurk/v2_DepthDuration_HTML.html#21,21,1920,937,1920,1080,8-29-2022,14-29-4,120,depth_duration_stimuli/002545_2014-06-24_13-38-53_094959634447_rgbf000080-resize_4/002545_2014-06-24_13-38-53_094959634447_rgbf000080-resize_4-target.png,125,1.9205,7,1963,124,feet,jsons/VE125_randls_15.json,425063,593104,26,Man
120,331695,DepthScenes,duration_manipulation_targetAtFixation,jsons/VE125_randls_15.json,http://54.235.29.9/FacialAge/BNav_EC2/DepthDuration/v2_depth_duration_MTurk/v2_DepthDuration_HTML.html#21,21,1920,937,1920,1080,8-29-2022,14-29-4,121,depth_duration_stimuli/001164_2014-06-17_15-35-46_260595134347_rgbf000085-resize_3/001164_2014-06-17_15-35-46_260595134347_rgbf000085-resize_3-target.png,125,2.354,6,1470,124,feet,jsons/VE125_randls_15.json,425063,593104,26,Man
121,331695,DepthScenes,duration_manipulation_targetAtFixation,jsons/VE125_randls_15.json,http://54.235.29.9/FacialAge/BNav_EC2/DepthDuration/v2_depth_duration_MTurk/v2_DepthDuration_HTML.html#21,21,1920,937,1920,1080,8-29-2022,14-29-4,122,depth_duration_stimuli/001136_2014-06-17_15-19-41_260595134347_rgbf000076-resize_3/001136_2014-06-17_15-19-41_260595134347_rgbf000076-resize_3-target.png,125,1.8655,4,2049,123,feet,jsons/VE125_randls_15.json,425063,593104,26,Man
122,331695,DepthScenes,duration_manipulation_targetAtFixation,jsons/VE125_randls_15.json,http://54.235.29.9/FacialAge/BNav_EC2/DepthDuration/v2_depth_duration_MTurk/v2_DepthDuration_HTML.html#21,21,1920,937,1920,1080,8-29-2022,14-29-4,123,depth_duration_stimuli/002043_2014-06-24_20-29-38_260595134347_rgbf000039-resize_4/002043_2014-06-24_20-29-38_260595134347_rgbf000039-resize_4-target.png,125,2.8435,6,1503,122,feet,jsons/VE125_randls_15.json,425063,593104,26,Man
123,331695,DepthScenes,duration_manipulation_targetAtFixation,jsons/VE125_randls_15.json,http://54.235.29.9/FacialAge/BNav_EC2/DepthDuration/v2_depth_duration_MTurk/v2_DepthDuration_HTML.html#21,21,1920,937,1920,1080,8-29-2022,14-29-4,124,depth_duration_stimuli/003048_2014-06-15_13-49-43_094959634447_rgbf000150-resize_1/003048_2014-06-15_13-49-43_094959634447_rgbf000150-resize_1-target.png,125,4.0035,8,1624,125,feet,jsons/VE125_randls_15.json,425063,593104,26,Man
124,331695,DepthScenes,duration_manipulation_targetAtFixation,jsons/VE125_randls_15.json,http://54.235.29.9/FacialAge/BNav_EC2/DepthDuration/v2_depth_duration_MTurk/v2_DepthDuration_HTML.html#21,21,1920,937,1920,1080,8-29-2022,14-29-4,125,depth_duration_stimuli/002039_2014-06-24_20-22-38_260595134347_rgbf000084-resize_1/002039_2014-06-24_20-22-38_260595134347_rgbf000084-resize_1-target.png,125,4.408,10,2027,124,feet,jsons/VE125_randls_15.json,425063,593104,26,Man
125,331695,DepthScenes,duration_manipulation_targetAtFixation,jsons/VE125_randls_15.json,http://54.235.29.9/FacialAge/BNav_EC2/DepthDuration/v2_depth_duration_MTurk/v2_DepthDuration_HTML.html#21,21,1920,937,1920,1080,8-29-2022,14-29-4,126,depth_duration_stimuli/002103_2014-06-25_20-00-40_260595134347_rgbf000049-resize_0/002103_2014-06-25_20-00-40_260595134347_rgbf000049-resize_0-target.png,125,4.105,8,1702,123,feet,jsons/VE125_randls_15.json,425063,593104,26,Man
126,331695,DepthScenes,duration_manipulation_targetAtFixation,jsons/VE125_randls_15.json,http://54.235.29.9/FacialAge/BNav_EC2/DepthDuration/v2_depth_duration_MTurk/v2_DepthDuration_HTML.html#21,21,1920,937,1920,1080,8-29-2022,14-29-4,127,depth_duration_stimuli/002213_2014-06-28_18-37-58_260595134347_rgbf000055-resize_1/002213_2014-06-28_18-37-58_260595134347_rgbf000055-resize_1-target.png,125,3.62,8,1615,130,feet,jsons/VE125_randls_15.json,425063,593104,26,Man
127,331695,DepthScenes,duration_manipulation_targetAtFixation,jsons/VE125_randls_15.json,http://54.235.29.9/FacialAge/BNav_EC2/DepthDuration/v2_depth_duration_MTurk/v2_DepthDuration_HTML.html#21,21,1920,937,1920,1080,8-29-2022,14-29-4,128,depth_duration_stimuli/000691_2014-06-08_13-08-50_260595134347_rgbf000132-resize_3/000691_2014-06-08_13-08-50_260595134347_rgbf000132-resize_3-target.png,125,4.1530000000000005,8,1499,130,feet,jsons/VE125_randls_15.json,425063,593104,26,Man
128,331695,DepthScenes,duration_manipulation_targetAtFixation,jsons/VE125_randls_15.json,http://54.235.29.9/FacialAge/BNav_EC2/DepthDuration/v2_depth_duration_MTurk/v2_DepthDuration_HTML.html#21,21,1920,937,1920,1080,8-29-2022,14-29-4,129,depth_duration_stimuli/000493_2014-06-09_21-01-18_260595134347_rgbf000196-resize_3/000493_2014-06-09_21-01-18_260595134347_rgbf000196-resize_3-target.png,125,3.44,6,1880,140,feet,jsons/VE125_randls_15.json,425063,593104,26,Man
129,331695,DepthScenes,duration_manipulation_targetAtFixation,jsons/VE125_randls_15.json,http://54.235.29.9/FacialAge/BNav_EC2/DepthDuration/v2_depth_duration_MTurk/v2_DepthDuration_HTML.html#21,21,1920,937,1920,1080,8-29-2022,14-29-4,130,depth_duration_stimuli/000191_2014-05-12_17-07-38_260595134347_rgbf000199-resize_0/000191_2014-05-12_17-07-38_260595134347_rgbf000199-resize_0-target.png,125,3.7995,9,1806,124,feet,jsons/VE125_randls_15.json,425063,593104,26,Man
130,331695,DepthScenes,duration_manipulation_targetAtFixation,jsons/VE125_randls_15.json,http://54.235.29.9/FacialAge/BNav_EC2/DepthDuration/v2_depth_duration_MTurk/v2_DepthDuration_HTML.html#21,21,1920,937,1920,1080,8-29-2022,14-29-4,131,depth_duration_stimuli/000447_2014-06-08_16-15-46_260595134347_rgbf000130-resize_1/000447_2014-06-08_16-15-46_260595134347_rgbf000130-resize_1-target.png,125,4.479,12,2778,140,feet,jsons/VE125_randls_15.json,425063,593104,26,Man
131,331695,DepthScenes,duration_manipulation_targetAtFixation,jsons/VE125_randls_15.json,http://54.235.29.9/FacialAge/BNav_EC2/DepthDuration/v2_depth_duration_MTurk/v2_DepthDuration_HTML.html#21,21,1920,937,1920,1080,8-29-2022,14-29-4,132,depth_duration_stimuli/001447_2014-06-19_17-00-32_260595134347_rgbf000082-resize_5/001447_2014-06-19_17-00-32_260595134347_rgbf000082-resize_5-target.png,125,4.13775,6,1773,123,feet,jsons/VE125_randls_15.json,425063,593104,26,Man
132,331695,DepthScenes,duration_manipulation_targetAtFixation,jsons/VE125_randls_15.json,http://54.235.29.9/FacialAge/BNav_EC2/DepthDuration/v2_depth_duration_MTurk/v2_DepthDuration_HTML.html#21,21,1920,937,1920,1080,8-29-2022,14-29-4,133,depth_duration_stimuli/001133_2014-06-17_14-49-16_260595134347_rgbf000100-resize_0/001133_2014-06-17_14-49-16_260595134347_rgbf000100-resize_0-target.png,125,4.2115,21,2195,112,feet,jsons/VE125_randls_15.json,425063,593104,26,Man
133,331695,DepthScenes,duration_manipulation_targetAtFixation,jsons/VE125_randls_15.json,http://54.235.29.9/FacialAge/BNav_EC2/DepthDuration/v2_depth_duration_MTurk/v2_DepthDuration_HTML.html#21,21,1920,937,1920,1080,8-29-2022,14-29-4,134,depth_duration_stimuli/001132_2014-06-17_14-48-54_260595134347_rgbf000100-resize_2/001132_2014-06-17_14-48-54_260595134347_rgbf000100-resize_2-target.png,125,3.753,8,1841,135,feet,jsons/VE125_randls_15.json,425063,593104,26,Man
134,331695,DepthScenes,duration_manipulation_targetAtFixation,jsons/VE125_randls_15.json,http://54.235.29.9/FacialAge/BNav_EC2/DepthDuration/v2_depth_duration_MTurk/v2_DepthDuration_HTML.html#21,21,1920,937,1920,1080,8-29-2022,14-29-4,135,depth_duration_stimuli/002072_2014-06-24_21-48-06_260595134347_rgbf000115-resize_0/002072_2014-06-24_21-48-06_260595134347_rgbf000115-resize-original.jpg,125,4.702,0,1864,123,feet,jsons/VE125_randls_15.json,425063,593104,26,Man
135,331695,DepthScenes,duration_manipulation_targetAtFixation,jsons/VE125_randls_15.json,http://54.235.29.9/FacialAge/BNav_EC2/DepthDuration/v2_depth_duration_MTurk/v2_DepthDuration_HTML.html#21,21,1920,937,1920,1080,8-29-2022,14-29-4,136,depth_duration_stimuli/000758_2014-06-08_22-05-08_260595134347_rgbf000085-resize_0/000758_2014-06-08_22-05-08_260595134347_rgbf000085-resize_0-target.png,125,3.3810000000000002,9,2052,121,feet,jsons/VE125_randls_15.json,425063,593104,26,Man
136,331695,DepthScenes,duration_manipulation_targetAtFixation,jsons/VE125_randls_15.json,http://54.235.29.9/FacialAge/BNav_EC2/DepthDuration/v2_depth_duration_MTurk/v2_DepthDuration_HTML.html#21,21,1920,937,1920,1080,8-29-2022,14-29-4,137,depth_duration_stimuli/000854_2014-06-09_19-43-13_260595134347_rgbf000066-resize_0/000854_2014-06-09_19-43-13_260595134347_rgbf000066-resize_0-target.png,125,3.068,5,1493,130,feet,jsons/VE125_randls_15.json,425063,593104,26,Man
137,331695,DepthScenes,duration_manipulation_targetAtFixation,jsons/VE125_randls_15.json,http://54.235.29.9/FacialAge/BNav_EC2/DepthDuration/v2_depth_duration_MTurk/v2_DepthDuration_HTML.html#21,21,1920,937,1920,1080,8-29-2022,14-29-4,138,depth_duration_stimuli/000878_2014-06-08_22-52-45_260595134347_rgbf000045-resize_2/000878_2014-06-08_22-52-45_260595134347_rgbf000045-resize_2-target.png,125,2.092,5,1481,125,feet,jsons/VE125_randls_15.json,425063,593104,26,Man
138,331695,DepthScenes,duration_manipulation_targetAtFixation,jsons/VE125_randls_15.json,http://54.235.29.9/FacialAge/BNav_EC2/DepthDuration/v2_depth_duration_MTurk/v2_DepthDuration_HTML.html#21,21,1920,937,1920,1080,8-29-2022,14-29-4,139,depth_duration_stimuli/002953_2014-06-08_17-32-18_094959634447_rgbf000059-resize_5/002953_2014-06-08_17-32-18_094959634447_rgbf000059-resize_5-target.png,125,1.551,4,1609,123,feet,jsons/VE125_randls_15.json,425063,593104,26,Man
139,331695,DepthScenes,duration_manipulation_targetAtFixation,jsons/VE125_randls_15.json,http://54.235.29.9/FacialAge/BNav_EC2/DepthDuration/v2_depth_duration_MTurk/v2_DepthDuration_HTML.html#21,21,1920,937,1920,1080,8-29-2022,14-29-4,140,depth_duration_stimuli/001449_2014-06-19_17-01-27_260595134347_rgbf000116-resize_2/001449_2014-06-19_17-01-27_260595134347_rgbf000116-resize_2-target.png,125,3.452,0,2077,124,feet,jsons/VE125_randls_15.json,425063,593104,26,Man
140,331695,DepthScenes,duration_manipulation_targetAtFixation,jsons/VE125_randls_15.json,http://54.235.29.9/FacialAge/BNav_EC2/DepthDuration/v2_depth_duration_MTurk/v2_DepthDuration_HTML.html#21,21,1920,937,1920,1080,8-29-2022,14-29-4,141,depth_duration_stimuli/001450_2014-06-19_17-02-03_260595134347_rgbf000203-resize_4/001450_2014-06-19_17-02-03_260595134347_rgbf000203-resize_4-target.png,125,4.0106666666667,9,1573,134,feet,jsons/VE125_randls_15.json,425063,593104,26,Man
141,331695,DepthScenes,duration_manipulation_targetAtFixation,jsons/VE125_randls_15.json,http://54.235.29.9/FacialAge/BNav_EC2/DepthDuration/v2_depth_duration_MTurk/v2_DepthDuration_HTML.html#21,21,1920,937,1920,1080,8-29-2022,14-29-4,142,depth_duration_stimuli/002570_2014-06-24_13-59-54_094959634447_rgbf000059-resize_0/002570_2014-06-24_13-59-54_094959634447_rgbf000059-resize_0-target.png,125,4.037,9,2721,137,feet,jsons/VE125_randls_15.json,425063,593104,26,Man
142,331695,DepthScenes,duration_manipulation_targetAtFixation,jsons/VE125_randls_15.json,http://54.235.29.9/FacialAge/BNav_EC2/DepthDuration/v2_depth_duration_MTurk/v2_DepthDuration_HTML.html#21,21,1920,937,1920,1080,8-29-2022,14-29-4,143,depth_duration_stimuli/002467_2014-06-28_20-38-07_260595134347_rgbf000026-resize_2/002467_2014-06-28_20-38-07_260595134347_rgbf000026-resize_2-target.png,125,4.742,13,2362,123,feet,jsons/VE125_randls_15.json,425063,593104,26,Man
143,331695,DepthScenes,duration_manipulation_targetAtFixation,jsons/VE125_randls_15.json,http://54.235.29.9/FacialAge/BNav_EC2/DepthDuration/v2_depth_duration_MTurk/v2_DepthDuration_HTML.html#21,21,1920,937,1920,1080,8-29-2022,14-29-4,144,depth_duration_stimuli/000929_2014-06-09_16-33-19_260595134347_rgbf000139-resize_0/000929_2014-06-09_16-33-19_260595134347_rgbf000139-resize_0-target.png,125,2.8680000000000003,7,1755,112,feet,jsons/VE125_randls_15.json,425063,593104,26,Man
144,331695,DepthScenes,duration_manipulation_targetAtFixation,jsons/VE125_randls_15.json,http://54.235.29.9/FacialAge/BNav_EC2/DepthDuration/v2_depth_duration_MTurk/v2_DepthDuration_HTML.html#21,21,1920,937,1920,1080,8-29-2022,14-29-4,145,depth_duration_stimuli/000457_2014-06-08_16-52-43_260595134347_rgbf000199-resize_1/000457_2014-06-08_16-52-43_260595134347_rgbf000199-resize_1-target.png,125,3.6489999999999996,5,2005,124,feet,jsons/VE125_randls_15.json,425063,593104,26,Man
145,331695,DepthScenes,duration_manipulation_targetAtFixation,jsons/VE125_randls_15.json,http://54.235.29.9/FacialAge/BNav_EC2/DepthDuration/v2_depth_duration_MTurk/v2_DepthDuration_HTML.html#21,21,1920,937,1920,1080,8-29-2022,14-29-4,146,depth_duration_stimuli/001498_2014-06-19_17-45-14_260595134347_rgbf000129-resize_4/001498_2014-06-19_17-45-14_260595134347_rgbf000129-resize-original.jpg,125,1.4075,0,2267,125,feet,jsons/VE125_randls_15.json,425063,593104,26,Man
146,331695,DepthScenes,duration_manipulation_targetAtFixation,jsons/VE125_randls_15.json,http://54.235.29.9/FacialAge/BNav_EC2/DepthDuration/v2_depth_duration_MTurk/v2_DepthDuration_HTML.html#21,21,1920,937,1920,1080,8-29-2022,14-29-4,147,depth_duration_stimuli/001029_2014-06-08_13-17-57_260595134347_rgbf000065-resize_1/001029_2014-06-08_13-17-57_260595134347_rgbf000065-resize_1-target.png,125,3.0835,5,1719,122,feet,jsons/VE125_randls_15.json,425063,593104,26,Man
147,331695,DepthScenes,duration_manipulation_targetAtFixation,jsons/VE125_randls_15.json,http://54.235.29.9/FacialAge/BNav_EC2/DepthDuration/v2_depth_duration_MTurk/v2_DepthDuration_HTML.html#21,21,1920,937,1920,1080,8-29-2022,14-29-4,148,depth_duration_stimuli/000677_2014-06-08_23-10-32_260595134347_rgbf000158-resize_6/000677_2014-06-08_23-10-32_260595134347_rgbf000158-resize_6-target.png,125,3.556,4,1830,125,feet,jsons/VE125_randls_15.json,425063,593104,26,Man
148,331695,DepthScenes,duration_manipulation_targetAtFixation,jsons/VE125_randls_15.json,http://54.235.29.9/FacialAge/BNav_EC2/DepthDuration/v2_depth_duration_MTurk/v2_DepthDuration_HTML.html#21,21,1920,937,1920,1080,8-29-2022,14-29-4,149,depth_duration_stimuli/002788_2014-06-22_19-36-03_094959634447_rgbf000088-resize_2/002788_2014-06-22_19-36-03_094959634447_rgbf000088-resize_2-target.png,125,1.6465,6,1468,112,feet,jsons/VE125_randls_15.json,425063,593104,26,Man
149,331695,DepthScenes,duration_manipulation_targetAtFixation,jsons/VE125_randls_15.json,http://54.235.29.9/FacialAge/BNav_EC2/DepthDuration/v2_depth_duration_MTurk/v2_DepthDuration_HTML.html#21,21,1920,937,1920,1080,8-29-2022,14-29-4,150,depth_duration_stimuli/000749_2014-06-08_21-55-06_260595134347_rgbf000070-resize_2/000749_2014-06-08_21-55-06_260595134347_rgbf000070-resize_2-target.png,125,2.331,7,29565,124,feet,jsons/VE125_randls_15.json,425063,593104,26,Man
150,331695,DepthScenes,duration_manipulation_targetAtFixation,jsons/VE125_randls_15.json,http://54.235.29.9/FacialAge/BNav_EC2/DepthDuration/v2_depth_duration_MTurk/v2_DepthDuration_HTML.html#21,21,1920,937,1920,1080,8-29-2022,14-29-4,151,depth_duration_stimuli/000739_2014-06-08_18-45-58_260595134347_rgbf000068-resize_1/000739_2014-06-08_18-45-58_260595134347_rgbf000068-resize_1-target.png,125,3.534,9,2742,122,feet,jsons/VE125_randls_15.json,425063,593104,26,Man
151,331695,DepthScenes,duration_manipulation_targetAtFixation,jsons/VE125_randls_15.json,http://54.235.29.9/FacialAge/BNav_EC2/DepthDuration/v2_depth_duration_MTurk/v2_DepthDuration_HTML.html#21,21,1920,937,1920,1080,8-29-2022,14-29-4,152,depth_duration_stimuli/000734_2014-06-08_17-39-11_260595134347_rgbf000128-resize_2/000734_2014-06-08_17-39-11_260595134347_rgbf000128-resize_2-target.png,125,4.098,6,1565,124,feet,jsons/VE125_randls_15.json,425063,593104,26,Man
152,331695,DepthScenes,duration_manipulation_targetAtFixation,jsons/VE125_randls_15.json,http://54.235.29.9/FacialAge/BNav_EC2/DepthDuration/v2_depth_duration_MTurk/v2_DepthDuration_HTML.html#21,21,1920,937,1920,1080,8-29-2022,14-29-4,153,depth_duration_stimuli/002784_2014-06-22_19-26-30_094959634447_rgbf000083-resize_3/002784_2014-06-22_19-26-30_094959634447_rgbf000083-resize_3-target.png,125,1.8046666666667,6,1471,126,feet,jsons/VE125_randls_15.json,425063,593104,26,Man
153,331695,DepthScenes,duration_manipulation_targetAtFixation,jsons/VE125_randls_15.json,http://54.235.29.9/FacialAge/BNav_EC2/DepthDuration/v2_depth_duration_MTurk/v2_DepthDuration_HTML.html#21,21,1920,937,1920,1080,8-29-2022,14-29-4,154,depth_duration_stimuli/001100_2014-06-15_17-46-26_260595134347_rgbf000225-resize_2/001100_2014-06-15_17-46-26_260595134347_rgbf000225-resize_2-target.png,125,2.24,4,1413,124,feet,jsons/VE125_randls_15.json,425063,593104,26,Man
154,331695,DepthScenes,duration_manipulation_targetAtFixation,jsons/VE125_randls_15.json,http://54.235.29.9/FacialAge/BNav_EC2/DepthDuration/v2_depth_duration_MTurk/v2_DepthDuration_HTML.html#21,21,1920,937,1920,1080,8-29-2022,14-29-4,155,depth_duration_stimuli/001570_2014-06-20_17-21-09_260595134347_rgbf000135-resize_4/001570_2014-06-20_17-21-09_260595134347_rgbf000135-resize_4-target.png,125,4.467,9,1673,124,feet,jsons/VE125_randls_15.json,425063,593104,26,Man
155,331695,DepthScenes,duration_manipulation_targetAtFixation,jsons/VE125_randls_15.json,http://54.235.29.9/FacialAge/BNav_EC2/DepthDuration/v2_depth_duration_MTurk/v2_DepthDuration_HTML.html#21,21,1920,937,1920,1080,8-29-2022,14-29-4,156,depth_duration_stimuli/001392_2014-06-19_16-07-59_260595134347_rgbf000046-resize_1/001392_2014-06-19_16-07-59_260595134347_rgbf000046-resize_1-target.png,125,4.135,8,1702,123,feet,jsons/VE125_randls_15.json,425063,593104,26,Man
156,331695,DepthScenes,duration_manipulation_targetAtFixation,jsons/VE125_randls_15.json,http://54.235.29.9/FacialAge/BNav_EC2/DepthDuration/v2_depth_duration_MTurk/v2_DepthDuration_HTML.html#21,21,1920,937,1920,1080,8-29-2022,14-29-4,157,depth_duration_stimuli/000906_2014-06-08_13-35-43_260595134347_rgbf000155-resize_1/000906_2014-06-08_13-35-43_260595134347_rgbf000155-resize_1-target.png,125,2.8489999999999998,7,1601,123,feet,jsons/VE125_randls_15.json,425063,593104,26,Man
157,331695,DepthScenes,duration_manipulation_targetAtFixation,jsons/VE125_randls_15.json,http://54.235.29.9/FacialAge/BNav_EC2/DepthDuration/v2_depth_duration_MTurk/v2_DepthDuration_HTML.html#21,21,1920,937,1920,1080,8-29-2022,14-29-4,158,depth_duration_stimuli/002805_2014-06-22_19-54-03_094959634447_rgbf000079-resize_1/002805_2014-06-22_19-54-03_094959634447_rgbf000079-resize_1-target.png,125,3.1439999999999997,5,1545,123,feet,jsons/VE125_randls_15.json,425063,593104,26,Man
158,331695,DepthScenes,duration_manipulation_targetAtFixation,jsons/VE125_randls_15.json,http://54.235.29.9/FacialAge/BNav_EC2/DepthDuration/v2_depth_duration_MTurk/v2_DepthDuration_HTML.html#21,21,1920,937,1920,1080,8-29-2022,14-29-4,159,depth_duration_stimuli/001175_2014-06-17_15-45-55_260595134347_rgbf000129-resize_4/001175_2014-06-17_15-45-55_260595134347_rgbf000129-resize_4-target.png,125,4.255,12,3329,137,feet,jsons/VE125_randls_15.json,425063,593104,26,Man
159,331695,DepthScenes,duration_manipulation_targetAtFixation,jsons/VE125_randls_15.json,http://54.235.29.9/FacialAge/BNav_EC2/DepthDuration/v2_depth_duration_MTurk/v2_DepthDuration_HTML.html#21,21,1920,937,1920,1080,8-29-2022,14-29-4,160,depth_duration_stimuli/003490_2014-05-21_15-50-11_094959634447_rgbf000101-resize_3/003490_2014-05-21_15-50-11_094959634447_rgbf000101-resize_3-target.png,125,3.6445,10,2200,122,feet,jsons/VE125_randls_15.json,425063,593104,26,Man
160,331695,DepthScenes,duration_manipulation_targetAtFixation,jsons/VE125_randls_15.json,http://54.235.29.9/FacialAge/BNav_EC2/DepthDuration/v2_depth_duration_MTurk/v2_DepthDuration_HTML.html#21,21,1920,937,1920,1080,8-29-2022,14-29-4,161,depth_duration_stimuli/002057_2014-06-24_21-00-13_260595134347_rgbf000120-resize_1/002057_2014-06-24_21-00-13_260595134347_rgbf000120-resize_1-target.png,125,2.967,8,1592,125,feet,jsons/VE125_randls_15.json,425063,593104,26,Man
161,331695,DepthScenes,duration_manipulation_targetAtFixation,jsons/VE125_randls_15.json,http://54.235.29.9/FacialAge/BNav_EC2/DepthDuration/v2_depth_duration_MTurk/v2_DepthDuration_HTML.html#21,21,1920,937,1920,1080,8-29-2022,14-29-4,162,depth_duration_stimuli/000709_2014-06-08_13-51-55_260595134347_rgbf000068-resize_3/000709_2014-06-08_13-51-55_260595134347_rgbf000068-resize_3-target.png,125,1.8030000000000002,6,1705,136,feet,jsons/VE125_randls_15.json,425063,593104,26,Man
162,331695,DepthScenes,duration_manipulation_targetAtFixation,jsons/VE125_randls_15.json,http://54.235.29.9/FacialAge/BNav_EC2/DepthDuration/v2_depth_duration_MTurk/v2_DepthDuration_HTML.html#21,21,1920,937,1920,1080,8-29-2022,14-29-4,163,depth_duration_stimuli/002663_2014-06-13_15-50-26_094959634447_rgbf000075-resize_1/002663_2014-06-13_15-50-26_094959634447_rgbf000075-resize_1-target.png,125,4.7495,10,2414,131,feet,jsons/VE125_randls_15.json,425063,593104,26,Man
163,331695,DepthScenes,duration_manipulation_targetAtFixation,jsons/VE125_randls_15.json,http://54.235.29.9/FacialAge/BNav_EC2/DepthDuration/v2_depth_duration_MTurk/v2_DepthDuration_HTML.html#21,21,1920,937,1920,1080,8-29-2022,14-29-4,164,depth_duration_stimuli/000409_2014-06-04_19-23-33_260595134347_rgbf000067-resize_0/000409_2014-06-04_19-23-33_260595134347_rgbf000067-resize_0-target.png,125,3.7335,7,2500,125,feet,jsons/VE125_randls_15.json,425063,593104,26,Man
