,subjID,experimentName,versionName,sequenceName,url,selected_row,windowWidth,windowHeight,screenWidth,screenHeight,startDate,startTime,trial,stimulus,duration,actual_depth,depth_estimate,trial_RT,log_sceneDuration,unitSelection,seq_filepath,experimentTime,totalTime,age,gender
0,332849,DepthScenes,duration_manipulation_targetAtFixation,jsons/v1_VE1000_randls_20_rotated.json,http://54.235.29.9/FacialAge/BNav_EC2/DepthDuration/v2_depth_duration_MTurk/v2_DepthDuration_HTML.html#103,103,1364,625,1364,768,8-22-2022,8-33-49,1,depth_duration_stimuli/001584_2014-06-20_11-07-43_260595134347_rgbf000002-resize_1/001584_2014-06-20_11-07-43_260595134347_rgbf000002-resize_1-target.png,1000,3.53,4.0,3142,998,feet,jsons/v1_VE1000_randls_20_rotated.json,703363,793186,48,Woman
1,332849,DepthScenes,duration_manipulation_targetAtFixation,jsons/v1_VE1000_randls_20_rotated.json,http://54.235.29.9/FacialAge/BNav_EC2/DepthDuration/v2_depth_duration_MTurk/v2_DepthDuration_HTML.html#103,103,1364,625,1364,768,8-22-2022,8-33-49,2,depth_duration_stimuli/003621_2014-05-23_18-06-08_094959634447_rgbf000101-resize_1/003621_2014-05-23_18-06-08_094959634447_rgbf000101-resize_1-target.png,1000,3.9835,4.0,9611,999,feet,jsons/v1_VE1000_randls_20_rotated.json,703363,793186,48,Woman
2,332849,DepthScenes,duration_manipulation_targetAtFixation,jsons/v1_VE1000_randls_20_rotated.json,http://54.235.29.9/FacialAge/BNav_EC2/DepthDuration/v2_depth_duration_MTurk/v2_DepthDuration_HTML.html#103,103,1364,625,1364,768,8-22-2022,8-33-49,3,depth_duration_stimuli/001052_2014-06-08_18-24-54_260595134347_rgbf000130-resize_1/001052_2014-06-08_18-24-54_260595134347_rgbf000130-resize_1-target.png,1000,4.1045,5.0,4339,995,feet,jsons/v1_VE1000_randls_20_rotated.json,703363,793186,48,Woman
3,332849,DepthScenes,duration_manipulation_targetAtFixation,jsons/v1_VE1000_randls_20_rotated.json,http://54.235.29.9/FacialAge/BNav_EC2/DepthDuration/v2_depth_duration_MTurk/v2_DepthDuration_HTML.html#103,103,1364,625,1364,768,8-22-2022,8-33-49,4,depth_duration_stimuli/002988_2014-06-15_12-24-20_094959634447_rgbf000150-resize_1/002988_2014-06-15_12-24-20_094959634447_rgbf000150-resize_1-target.png,1000,4.7669999999999995,5.0,6154,999,feet,jsons/v1_VE1000_randls_20_rotated.json,703363,793186,48,Woman
4,332849,DepthScenes,duration_manipulation_targetAtFixation,jsons/v1_VE1000_randls_20_rotated.json,http://54.235.29.9/FacialAge/BNav_EC2/DepthDuration/v2_depth_duration_MTurk/v2_DepthDuration_HTML.html#103,103,1364,625,1364,768,8-22-2022,8-33-49,5,depth_duration_stimuli/002323_2014-06-28_20-01-54_260595134347_rgbf000051-resize_4/002323_2014-06-28_20-01-54_260595134347_rgbf000051-resize_4-target.png,1000,3.7310000000000003,4.0,2434,998,feet,jsons/v1_VE1000_randls_20_rotated.json,703363,793186,48,Woman
5,332849,DepthScenes,duration_manipulation_targetAtFixation,jsons/v1_VE1000_randls_20_rotated.json,http://54.235.29.9/FacialAge/BNav_EC2/DepthDuration/v2_depth_duration_MTurk/v2_DepthDuration_HTML.html#103,103,1364,625,1364,768,8-22-2022,8-33-49,6,depth_duration_stimuli/000917_2014-06-09_22-45-29_260595134347_rgbf000149-resize_3/000917_2014-06-09_22-45-29_260595134347_rgbf000149-resize_3-target.png,1000,4.1865,5.0,2377,999,feet,jsons/v1_VE1000_randls_20_rotated.json,703363,793186,48,Woman
6,332849,DepthScenes,duration_manipulation_targetAtFixation,jsons/v1_VE1000_randls_20_rotated.json,http://54.235.29.9/FacialAge/BNav_EC2/DepthDuration/v2_depth_duration_MTurk/v2_DepthDuration_HTML.html#103,103,1364,625,1364,768,8-22-2022,8-33-49,7,depth_duration_stimuli/002425_2014-06-28_20-27-29_260595134347_rgbf000031-resize_8/002425_2014-06-28_20-27-29_260595134347_rgbf000031-resize_8-target.png,1000,3.8960000000000004,5.0,2169,998,feet,jsons/v1_VE1000_randls_20_rotated.json,703363,793186,48,Woman
7,332849,DepthScenes,duration_manipulation_targetAtFixation,jsons/v1_VE1000_randls_20_rotated.json,http://54.235.29.9/FacialAge/BNav_EC2/DepthDuration/v2_depth_duration_MTurk/v2_DepthDuration_HTML.html#103,103,1364,625,1364,768,8-22-2022,8-33-49,8,depth_duration_stimuli/000642_2014-06-08_16-59-25_260595134347_rgbf000098-resize_2/000642_2014-06-08_16-59-25_260595134347_rgbf000098-resize_2-target.png,1000,2.8815,5.0,2393,998,feet,jsons/v1_VE1000_randls_20_rotated.json,703363,793186,48,Woman
8,332849,DepthScenes,duration_manipulation_targetAtFixation,jsons/v1_VE1000_randls_20_rotated.json,http://54.235.29.9/FacialAge/BNav_EC2/DepthDuration/v2_depth_duration_MTurk/v2_DepthDuration_HTML.html#103,103,1364,625,1364,768,8-22-2022,8-33-49,9,depth_duration_stimuli/003081_2014-06-15_15-19-16_094959634447_rgbf000150-resize_1/003081_2014-06-15_15-19-16_094959634447_rgbf000150-resize_1-target.png,1000,3.9125,2.0,10190,1000,feet,jsons/v1_VE1000_randls_20_rotated.json,703363,793186,48,Woman
9,332849,DepthScenes,duration_manipulation_targetAtFixation,jsons/v1_VE1000_randls_20_rotated.json,http://54.235.29.9/FacialAge/BNav_EC2/DepthDuration/v2_depth_duration_MTurk/v2_DepthDuration_HTML.html#103,103,1364,625,1364,768,8-22-2022,8-33-49,10,depth_duration_stimuli/001417_2014-06-19_16-25-36_260595134347_rgbf000115-resize_5/001417_2014-06-19_16-25-36_260595134347_rgbf000115-resize_5-target.png,1000,4.6255,5.0,17024,999,feet,jsons/v1_VE1000_randls_20_rotated.json,703363,793186,48,Woman
10,332849,DepthScenes,duration_manipulation_targetAtFixation,jsons/v1_VE1000_randls_20_rotated.json,http://54.235.29.9/FacialAge/BNav_EC2/DepthDuration/v2_depth_duration_MTurk/v2_DepthDuration_HTML.html#103,103,1364,625,1364,768,8-22-2022,8-33-49,11,depth_duration_stimuli/001235_2014-06-17_16-37-36_260595134347_rgbf000084-resize_4/001235_2014-06-17_16-37-36_260595134347_rgbf000084-resize_4-target.png,1000,3.6605,5.0,8393,998,feet,jsons/v1_VE1000_randls_20_rotated.json,703363,793186,48,Woman
11,332849,DepthScenes,duration_manipulation_targetAtFixation,jsons/v1_VE1000_randls_20_rotated.json,http://54.235.29.9/FacialAge/BNav_EC2/DepthDuration/v2_depth_duration_MTurk/v2_DepthDuration_HTML.html#103,103,1364,625,1364,768,8-22-2022,8-33-49,12,depth_duration_stimuli/000788_2014-06-08_22-34-36_260595134347_rgbf000131-resize_1/000788_2014-06-08_22-34-36_260595134347_rgbf000131-resize_1-target.png,1000,3.359,45.0,2874,999,feet,jsons/v1_VE1000_randls_20_rotated.json,703363,793186,48,Woman
12,332849,DepthScenes,duration_manipulation_targetAtFixation,jsons/v1_VE1000_randls_20_rotated.json,http://54.235.29.9/FacialAge/BNav_EC2/DepthDuration/v2_depth_duration_MTurk/v2_DepthDuration_HTML.html#103,103,1364,625,1364,768,8-22-2022,8-33-49,13,depth_duration_stimuli/001392_2014-06-19_16-07-59_260595134347_rgbf000046-resize_1/001392_2014-06-19_16-07-59_260595134347_rgbf000046-resize_1-target.png,1000,4.135,52.0,3882,999,feet,jsons/v1_VE1000_randls_20_rotated.json,703363,793186,48,Woman
13,332849,DepthScenes,duration_manipulation_targetAtFixation,jsons/v1_VE1000_randls_20_rotated.json,http://54.235.29.9/FacialAge/BNav_EC2/DepthDuration/v2_depth_duration_MTurk/v2_DepthDuration_HTML.html#103,103,1364,625,1364,768,8-22-2022,8-33-49,14,depth_duration_stimuli/001570_2014-06-20_17-21-09_260595134347_rgbf000135-resize_4/001570_2014-06-20_17-21-09_260595134347_rgbf000135-resize_4-target.png,1000,4.467,5.0,2753,999,feet,jsons/v1_VE1000_randls_20_rotated.json,703363,793186,48,Woman
14,332849,DepthScenes,duration_manipulation_targetAtFixation,jsons/v1_VE1000_randls_20_rotated.json,http://54.235.29.9/FacialAge/BNav_EC2/DepthDuration/v2_depth_duration_MTurk/v2_DepthDuration_HTML.html#103,103,1364,625,1364,768,8-22-2022,8-33-49,15,depth_duration_stimuli/002467_2014-06-28_20-38-07_260595134347_rgbf000026-resize_2/002467_2014-06-28_20-38-07_260595134347_rgbf000026-resize_2-target.png,1000,4.742,5.0,2927,999,feet,jsons/v1_VE1000_randls_20_rotated.json,703363,793186,48,Woman
15,332849,DepthScenes,duration_manipulation_targetAtFixation,jsons/v1_VE1000_randls_20_rotated.json,http://54.235.29.9/FacialAge/BNav_EC2/DepthDuration/v2_depth_duration_MTurk/v2_DepthDuration_HTML.html#103,103,1364,625,1364,768,8-22-2022,8-33-49,16,depth_duration_stimuli/002570_2014-06-24_13-59-54_094959634447_rgbf000059-resize_0/002570_2014-06-24_13-59-54_094959634447_rgbf000059-resize_0-target.png,1000,4.037,5.0,3056,953,feet,jsons/v1_VE1000_randls_20_rotated.json,703363,793186,48,Woman
16,332849,DepthScenes,duration_manipulation_targetAtFixation,jsons/v1_VE1000_randls_20_rotated.json,http://54.235.29.9/FacialAge/BNav_EC2/DepthDuration/v2_depth_duration_MTurk/v2_DepthDuration_HTML.html#103,103,1364,625,1364,768,8-22-2022,8-33-49,17,depth_duration_stimuli/002344_2014-06-28_20-06-29_260595134347_rgbf000030-resize_1/002344_2014-06-28_20-06-29_260595134347_rgbf000030-resize_1-target.png,1000,1.5795,58.0,2810,1000,feet,jsons/v1_VE1000_randls_20_rotated.json,703363,793186,48,Woman
17,332849,DepthScenes,duration_manipulation_targetAtFixation,jsons/v1_VE1000_randls_20_rotated.json,http://54.235.29.9/FacialAge/BNav_EC2/DepthDuration/v2_depth_duration_MTurk/v2_DepthDuration_HTML.html#103,103,1364,625,1364,768,8-22-2022,8-33-49,18,depth_duration_stimuli/002725_2014-06-22_11-47-51_094959634447_rgbf000070-resize_1/002725_2014-06-22_11-47-51_094959634447_rgbf000070-resize_1-target.png,1000,2.195,5.0,3178,1000,feet,jsons/v1_VE1000_randls_20_rotated.json,703363,793186,48,Woman
18,332849,DepthScenes,duration_manipulation_targetAtFixation,jsons/v1_VE1000_randls_20_rotated.json,http://54.235.29.9/FacialAge/BNav_EC2/DepthDuration/v2_depth_duration_MTurk/v2_DepthDuration_HTML.html#103,103,1364,625,1364,768,8-22-2022,8-33-49,19,depth_duration_stimuli/001498_2014-06-19_17-45-14_260595134347_rgbf000129-resize_4/001498_2014-06-19_17-45-14_260595134347_rgbf000129-resize-original.jpg,1000,1.4075,5.0,2882,1000,feet,jsons/v1_VE1000_randls_20_rotated.json,703363,793186,48,Woman
19,332849,DepthScenes,duration_manipulation_targetAtFixation,jsons/v1_VE1000_randls_20_rotated.json,http://54.235.29.9/FacialAge/BNav_EC2/DepthDuration/v2_depth_duration_MTurk/v2_DepthDuration_HTML.html#103,103,1364,625,1364,768,8-22-2022,8-33-49,20,depth_duration_stimuli/000556_2014-06-09_22-42-56_260595134347_rgbf000214-resize_1/000556_2014-06-09_22-42-56_260595134347_rgbf000214-resize_1-target.png,1000,4.8415,5.0,3223,999,feet,jsons/v1_VE1000_randls_20_rotated.json,703363,793186,48,Woman
20,332849,DepthScenes,duration_manipulation_targetAtFixation,jsons/v1_VE1000_randls_20_rotated.json,http://54.235.29.9/FacialAge/BNav_EC2/DepthDuration/v2_depth_duration_MTurk/v2_DepthDuration_HTML.html#103,103,1364,625,1364,768,8-22-2022,8-33-49,21,depth_duration_stimuli/001158_2014-06-17_15-32-16_260595134347_rgbf000138-resize_2/001158_2014-06-17_15-32-16_260595134347_rgbf000138-resize_2-target.png,1000,4.5315,4.0,2947,1000,feet,jsons/v1_VE1000_randls_20_rotated.json,703363,793186,48,Woman
21,332849,DepthScenes,duration_manipulation_targetAtFixation,jsons/v1_VE1000_randls_20_rotated.json,http://54.235.29.9/FacialAge/BNav_EC2/DepthDuration/v2_depth_duration_MTurk/v2_DepthDuration_HTML.html#103,103,1364,625,1364,768,8-22-2022,8-33-49,22,depth_duration_stimuli/003490_2014-05-21_15-50-11_094959634447_rgbf000101-resize_3/003490_2014-05-21_15-50-11_094959634447_rgbf000101-resize_3-target.png,1000,3.6445,5.0,2876,999,feet,jsons/v1_VE1000_randls_20_rotated.json,703363,793186,48,Woman
22,332849,DepthScenes,duration_manipulation_targetAtFixation,jsons/v1_VE1000_randls_20_rotated.json,http://54.235.29.9/FacialAge/BNav_EC2/DepthDuration/v2_depth_duration_MTurk/v2_DepthDuration_HTML.html#103,103,1364,625,1364,768,8-22-2022,8-33-49,23,depth_duration_stimuli/001175_2014-06-17_15-45-55_260595134347_rgbf000129-resize_4/001175_2014-06-17_15-45-55_260595134347_rgbf000129-resize_4-target.png,1000,4.255,5.0,2721,1000,feet,jsons/v1_VE1000_randls_20_rotated.json,703363,793186,48,Woman
23,332849,DepthScenes,duration_manipulation_targetAtFixation,jsons/v1_VE1000_randls_20_rotated.json,http://54.235.29.9/FacialAge/BNav_EC2/DepthDuration/v2_depth_duration_MTurk/v2_DepthDuration_HTML.html#103,103,1364,625,1364,768,8-22-2022,8-33-49,24,depth_duration_stimuli/002678_2014-06-13_16-15-32_094959634447_rgbf000151-resize_6/002678_2014-06-13_16-15-32_094959634447_rgbf000151-resize_6-target.png,1000,2.1830000000000003,5.0,2730,1000,feet,jsons/v1_VE1000_randls_20_rotated.json,703363,793186,48,Woman
24,332849,DepthScenes,duration_manipulation_targetAtFixation,jsons/v1_VE1000_randls_20_rotated.json,http://54.235.29.9/FacialAge/BNav_EC2/DepthDuration/v2_depth_duration_MTurk/v2_DepthDuration_HTML.html#103,103,1364,625,1364,768,8-22-2022,8-33-49,25,depth_duration_stimuli/000368_2014-06-09_15-53-01_260595134347_rgbf000155-resize_2/000368_2014-06-09_15-53-01_260595134347_rgbf000155-resize_2-target.png,1000,2.4859999999999998,5.0,2947,999,feet,jsons/v1_VE1000_randls_20_rotated.json,703363,793186,48,Woman
25,332849,DepthScenes,duration_manipulation_targetAtFixation,jsons/v1_VE1000_randls_20_rotated.json,http://54.235.29.9/FacialAge/BNav_EC2/DepthDuration/v2_depth_duration_MTurk/v2_DepthDuration_HTML.html#103,103,1364,625,1364,768,8-22-2022,8-33-49,26,depth_duration_stimuli/001828_2014-06-26_21-40-03_260595134347_rgbf000024-resize_0/001828_2014-06-26_21-40-03_260595134347_rgbf000024-resize_0-target.png,1000,4.8260000000000005,2.0,4363,999,feet,jsons/v1_VE1000_randls_20_rotated.json,703363,793186,48,Woman
26,332849,DepthScenes,duration_manipulation_targetAtFixation,jsons/v1_VE1000_randls_20_rotated.json,http://54.235.29.9/FacialAge/BNav_EC2/DepthDuration/v2_depth_duration_MTurk/v2_DepthDuration_HTML.html#103,103,1364,625,1364,768,8-22-2022,8-33-49,27,depth_duration_stimuli/000009_2014-05-26_14-32-05_260595134347_rgbf000034-resize_3/000009_2014-05-26_14-32-05_260595134347_rgbf000034-resize_3-target.png,1000,3.8715,8.0,2858,998,feet,jsons/v1_VE1000_randls_20_rotated.json,703363,793186,48,Woman
27,332849,DepthScenes,duration_manipulation_targetAtFixation,jsons/v1_VE1000_randls_20_rotated.json,http://54.235.29.9/FacialAge/BNav_EC2/DepthDuration/v2_depth_duration_MTurk/v2_DepthDuration_HTML.html#103,103,1364,625,1364,768,8-22-2022,8-33-49,28,depth_duration_stimuli/001447_2014-06-19_17-00-32_260595134347_rgbf000082-resize_5/001447_2014-06-19_17-00-32_260595134347_rgbf000082-resize_5-target.png,1000,4.13775,54.0,4130,999,feet,jsons/v1_VE1000_randls_20_rotated.json,703363,793186,48,Woman
28,332849,DepthScenes,duration_manipulation_targetAtFixation,jsons/v1_VE1000_randls_20_rotated.json,http://54.235.29.9/FacialAge/BNav_EC2/DepthDuration/v2_depth_duration_MTurk/v2_DepthDuration_HTML.html#103,103,1364,625,1364,768,8-22-2022,8-33-49,29,depth_duration_stimuli/000447_2014-06-08_16-15-46_260595134347_rgbf000130-resize_1/000447_2014-06-08_16-15-46_260595134347_rgbf000130-resize_1-target.png,1000,4.479,5.0,3036,998,feet,jsons/v1_VE1000_randls_20_rotated.json,703363,793186,48,Woman
29,332849,DepthScenes,duration_manipulation_targetAtFixation,jsons/v1_VE1000_randls_20_rotated.json,http://54.235.29.9/FacialAge/BNav_EC2/DepthDuration/v2_depth_duration_MTurk/v2_DepthDuration_HTML.html#103,103,1364,625,1364,768,8-22-2022,8-33-49,30,depth_duration_stimuli/002072_2014-06-24_21-48-06_260595134347_rgbf000115-resize_0/002072_2014-06-24_21-48-06_260595134347_rgbf000115-resize-original.jpg,1000,4.702,0.0,7637,999,feet,jsons/v1_VE1000_randls_20_rotated.json,703363,793186,48,Woman
30,332849,DepthScenes,duration_manipulation_targetAtFixation,jsons/v1_VE1000_randls_20_rotated.json,http://54.235.29.9/FacialAge/BNav_EC2/DepthDuration/v2_depth_duration_MTurk/v2_DepthDuration_HTML.html#103,103,1364,625,1364,768,8-22-2022,8-33-49,31,depth_duration_stimuli/001571_2014-06-20_17-21-32_260595134347_rgbf000089-resize_1/001571_2014-06-20_17-21-32_260595134347_rgbf000089-resize_1-target.png,1000,1.86,5.0,4000,1002,feet,jsons/v1_VE1000_randls_20_rotated.json,703363,793186,48,Woman
31,332849,DepthScenes,duration_manipulation_targetAtFixation,jsons/v1_VE1000_randls_20_rotated.json,http://54.235.29.9/FacialAge/BNav_EC2/DepthDuration/v2_depth_duration_MTurk/v2_DepthDuration_HTML.html#103,103,1364,625,1364,768,8-22-2022,8-33-49,32,depth_duration_stimuli/002272_2014-06-28_18-53-56_260595134347_rgbf000067-resize_2/002272_2014-06-28_18-53-56_260595134347_rgbf000067-resize_2-target.png,1000,1.138,4.0,3025,999,feet,jsons/v1_VE1000_randls_20_rotated.json,703363,793186,48,Woman
32,332849,DepthScenes,duration_manipulation_targetAtFixation,jsons/v1_VE1000_randls_20_rotated.json,http://54.235.29.9/FacialAge/BNav_EC2/DepthDuration/v2_depth_duration_MTurk/v2_DepthDuration_HTML.html#103,103,1364,625,1364,768,8-22-2022,8-33-49,33,depth_duration_stimuli/003338_2014-05-20_11-01-23_094959634447_rgbf000051-resize_6/003338_2014-05-20_11-01-23_094959634447_rgbf000051-resize_6-target.png,1000,1.693,2.0,2481,999,feet,jsons/v1_VE1000_randls_20_rotated.json,703363,793186,48,Woman
33,332849,DepthScenes,duration_manipulation_targetAtFixation,jsons/v1_VE1000_randls_20_rotated.json,http://54.235.29.9/FacialAge/BNav_EC2/DepthDuration/v2_depth_duration_MTurk/v2_DepthDuration_HTML.html#103,103,1364,625,1364,768,8-22-2022,8-33-49,34,depth_duration_stimuli/002509_2014-06-24_13-19-22_094959634447_rgbf000077-resize_0/002509_2014-06-24_13-19-22_094959634447_rgbf000077-resize_0-target.png,1000,1.3065,2.0,2347,999,feet,jsons/v1_VE1000_randls_20_rotated.json,703363,793186,48,Woman
34,332849,DepthScenes,duration_manipulation_targetAtFixation,jsons/v1_VE1000_randls_20_rotated.json,http://54.235.29.9/FacialAge/BNav_EC2/DepthDuration/v2_depth_duration_MTurk/v2_DepthDuration_HTML.html#103,103,1364,625,1364,768,8-22-2022,8-33-49,35,depth_duration_stimuli/000780_2014-06-08_22-28-29_260595134347_rgbf000126-resize_1/000780_2014-06-08_22-28-29_260595134347_rgbf000126-resize_1-target.png,1000,3.3825,2.0,2218,1000,feet,jsons/v1_VE1000_randls_20_rotated.json,703363,793186,48,Woman
35,332849,DepthScenes,duration_manipulation_targetAtFixation,jsons/v1_VE1000_randls_20_rotated.json,http://54.235.29.9/FacialAge/BNav_EC2/DepthDuration/v2_depth_duration_MTurk/v2_DepthDuration_HTML.html#103,103,1364,625,1364,768,8-22-2022,8-33-49,36,depth_duration_stimuli/002445_2014-06-28_20-32-16_260595134347_rgbf000029-resize_4/002445_2014-06-28_20-32-16_260595134347_rgbf000029-resize_4-target.png,1000,2.5315,2.0,2324,1000,feet,jsons/v1_VE1000_randls_20_rotated.json,703363,793186,48,Woman
36,332849,DepthScenes,duration_manipulation_targetAtFixation,jsons/v1_VE1000_randls_20_rotated.json,http://54.235.29.9/FacialAge/BNav_EC2/DepthDuration/v2_depth_duration_MTurk/v2_DepthDuration_HTML.html#103,103,1364,625,1364,768,8-22-2022,8-33-49,37,depth_duration_stimuli/002340_2014-06-28_20-05-46_260595134347_rgbf000113-resize_0/002340_2014-06-28_20-05-46_260595134347_rgbf000113-resize_0-target.png,1000,2.4735,2.0,2314,998,feet,jsons/v1_VE1000_randls_20_rotated.json,703363,793186,48,Woman
37,332849,DepthScenes,duration_manipulation_targetAtFixation,jsons/v1_VE1000_randls_20_rotated.json,http://54.235.29.9/FacialAge/BNav_EC2/DepthDuration/v2_depth_duration_MTurk/v2_DepthDuration_HTML.html#103,103,1364,625,1364,768,8-22-2022,8-33-49,38,depth_duration_stimuli/001016_2014-06-09_16-16-10_260595134347_rgbf000112-resize_5/001016_2014-06-09_16-16-10_260595134347_rgbf000112-resize_5-target.png,1000,1.6565,2.0,2450,998,feet,jsons/v1_VE1000_randls_20_rotated.json,703363,793186,48,Woman
38,332849,DepthScenes,duration_manipulation_targetAtFixation,jsons/v1_VE1000_randls_20_rotated.json,http://54.235.29.9/FacialAge/BNav_EC2/DepthDuration/v2_depth_duration_MTurk/v2_DepthDuration_HTML.html#103,103,1364,625,1364,768,8-22-2022,8-33-49,39,depth_duration_stimuli/000854_2014-06-09_19-43-13_260595134347_rgbf000066-resize_0/000854_2014-06-09_19-43-13_260595134347_rgbf000066-resize_0-target.png,1000,3.068,2.0,2314,999,feet,jsons/v1_VE1000_randls_20_rotated.json,703363,793186,48,Woman
39,332849,DepthScenes,duration_manipulation_targetAtFixation,jsons/v1_VE1000_randls_20_rotated.json,http://54.235.29.9/FacialAge/BNav_EC2/DepthDuration/v2_depth_duration_MTurk/v2_DepthDuration_HTML.html#103,103,1364,625,1364,768,8-22-2022,8-33-49,40,depth_duration_stimuli/000758_2014-06-08_22-05-08_260595134347_rgbf000085-resize_0/000758_2014-06-08_22-05-08_260595134347_rgbf000085-resize_0-target.png,1000,3.3810000000000002,2.0,9194,1000,feet,jsons/v1_VE1000_randls_20_rotated.json,703363,793186,48,Woman
40,332849,DepthScenes,duration_manipulation_targetAtFixation,jsons/v1_VE1000_randls_20_rotated.json,http://54.235.29.9/FacialAge/BNav_EC2/DepthDuration/v2_depth_duration_MTurk/v2_DepthDuration_HTML.html#103,103,1364,625,1364,768,8-22-2022,8-33-49,41,depth_duration_stimuli/001132_2014-06-17_14-48-54_260595134347_rgbf000100-resize_2/001132_2014-06-17_14-48-54_260595134347_rgbf000100-resize_2-target.png,1000,3.753,4.0,8090,998,feet,jsons/v1_VE1000_randls_20_rotated.json,703363,793186,48,Woman
41,332849,DepthScenes,duration_manipulation_targetAtFixation,jsons/v1_VE1000_randls_20_rotated.json,http://54.235.29.9/FacialAge/BNav_EC2/DepthDuration/v2_depth_duration_MTurk/v2_DepthDuration_HTML.html#103,103,1364,625,1364,768,8-22-2022,8-33-49,42,depth_duration_stimuli/001133_2014-06-17_14-49-16_260595134347_rgbf000100-resize_0/001133_2014-06-17_14-49-16_260595134347_rgbf000100-resize_0-target.png,1000,4.2115,2.0,2449,998,feet,jsons/v1_VE1000_randls_20_rotated.json,703363,793186,48,Woman
42,332849,DepthScenes,duration_manipulation_targetAtFixation,jsons/v1_VE1000_randls_20_rotated.json,http://54.235.29.9/FacialAge/BNav_EC2/DepthDuration/v2_depth_duration_MTurk/v2_DepthDuration_HTML.html#103,103,1364,625,1364,768,8-22-2022,8-33-49,43,depth_duration_stimuli/003423_2014-05-21_10-23-26_094959634447_rgbf002665-resize_2/003423_2014-05-21_10-23-26_094959634447_rgbf002665-resize_2-target.png,1000,3.2575,4.0,2743,998,feet,jsons/v1_VE1000_randls_20_rotated.json,703363,793186,48,Woman
43,332849,DepthScenes,duration_manipulation_targetAtFixation,jsons/v1_VE1000_randls_20_rotated.json,http://54.235.29.9/FacialAge/BNav_EC2/DepthDuration/v2_depth_duration_MTurk/v2_DepthDuration_HTML.html#103,103,1364,625,1364,768,8-22-2022,8-33-49,44,depth_duration_stimuli/002905_2014-06-03_18-04-43_094959634447_rgbf000151-resize_2/002905_2014-06-03_18-04-43_094959634447_rgbf000151-resize_2-target.png,1000,2.0295,5.0,2378,999,feet,jsons/v1_VE1000_randls_20_rotated.json,703363,793186,48,Woman
44,332849,DepthScenes,duration_manipulation_targetAtFixation,jsons/v1_VE1000_randls_20_rotated.json,http://54.235.29.9/FacialAge/BNav_EC2/DepthDuration/v2_depth_duration_MTurk/v2_DepthDuration_HTML.html#103,103,1364,625,1364,768,8-22-2022,8-33-49,45,depth_duration_stimuli/003495_2014-05-21_16-01-51_094959634447_rgbf000100-resize_3/003495_2014-05-21_16-01-51_094959634447_rgbf000100-resize_3-target.png,1000,1.6255,5.0,2360,995,feet,jsons/v1_VE1000_randls_20_rotated.json,703363,793186,48,Woman
45,332849,DepthScenes,duration_manipulation_targetAtFixation,jsons/v1_VE1000_randls_20_rotated.json,http://54.235.29.9/FacialAge/BNav_EC2/DepthDuration/v2_depth_duration_MTurk/v2_DepthDuration_HTML.html#103,103,1364,625,1364,768,8-22-2022,8-33-49,46,depth_duration_stimuli/001244_2014-06-17_16-47-45_260595134347_rgbf000030-resize_4/001244_2014-06-17_16-47-45_260595134347_rgbf000030-resize_4-target.png,1000,2.0425,5.0,2443,1001,feet,jsons/v1_VE1000_randls_20_rotated.json,703363,793186,48,Woman
46,332849,DepthScenes,duration_manipulation_targetAtFixation,jsons/v1_VE1000_randls_20_rotated.json,http://54.235.29.9/FacialAge/BNav_EC2/DepthDuration/v2_depth_duration_MTurk/v2_DepthDuration_HTML.html#103,103,1364,625,1364,768,8-22-2022,8-33-49,47,depth_duration_stimuli/002444_2014-06-28_20-32-08_260595134347_rgbf000027-resize_0/002444_2014-06-28_20-32-08_260595134347_rgbf000027-resize_0-target.png,1000,4.388999999999999,5.0,3627,1000,feet,jsons/v1_VE1000_randls_20_rotated.json,703363,793186,48,Woman
47,332849,DepthScenes,duration_manipulation_targetAtFixation,jsons/v1_VE1000_randls_20_rotated.json,http://54.235.29.9/FacialAge/BNav_EC2/DepthDuration/v2_depth_duration_MTurk/v2_DepthDuration_HTML.html#103,103,1364,625,1364,768,8-22-2022,8-33-49,48,depth_duration_stimuli/000436_2014-06-09_22-25-11_260595134347_rgbf000137-resize_1/000436_2014-06-09_22-25-11_260595134347_rgbf000137-resize_1-target.png,1000,4.0705,5.0,13349,1042,feet,jsons/v1_VE1000_randls_20_rotated.json,703363,793186,48,Woman
48,332849,DepthScenes,duration_manipulation_targetAtFixation,jsons/v1_VE1000_randls_20_rotated.json,http://54.235.29.9/FacialAge/BNav_EC2/DepthDuration/v2_depth_duration_MTurk/v2_DepthDuration_HTML.html#103,103,1364,625,1364,768,8-22-2022,8-33-49,49,depth_duration_stimuli/001170_2014-06-17_15-43-44_260595134347_rgbf000096-resize_6/001170_2014-06-17_15-43-44_260595134347_rgbf000096-resize-original.jpg,1000,1.1909999999999998,5.0,3243,1000,feet,jsons/v1_VE1000_randls_20_rotated.json,703363,793186,48,Woman
49,332849,DepthScenes,duration_manipulation_targetAtFixation,jsons/v1_VE1000_randls_20_rotated.json,http://54.235.29.9/FacialAge/BNav_EC2/DepthDuration/v2_depth_duration_MTurk/v2_DepthDuration_HTML.html#103,103,1364,625,1364,768,8-22-2022,8-33-49,50,depth_duration_stimuli/000457_2014-06-08_16-52-43_260595134347_rgbf000199-resize_1/000457_2014-06-08_16-52-43_260595134347_rgbf000199-resize_1-target.png,1000,3.6489999999999996,5.0,2586,999,feet,jsons/v1_VE1000_randls_20_rotated.json,703363,793186,48,Woman
50,332849,DepthScenes,duration_manipulation_targetAtFixation,jsons/v1_VE1000_randls_20_rotated.json,http://54.235.29.9/FacialAge/BNav_EC2/DepthDuration/v2_depth_duration_MTurk/v2_DepthDuration_HTML.html#103,103,1364,625,1364,768,8-22-2022,8-33-49,51,depth_duration_stimuli/000929_2014-06-09_16-33-19_260595134347_rgbf000139-resize_0/000929_2014-06-09_16-33-19_260595134347_rgbf000139-resize_0-target.png,1000,2.8680000000000003,5.0,2274,998,feet,jsons/v1_VE1000_randls_20_rotated.json,703363,793186,48,Woman
51,332849,DepthScenes,duration_manipulation_targetAtFixation,jsons/v1_VE1000_randls_20_rotated.json,http://54.235.29.9/FacialAge/BNav_EC2/DepthDuration/v2_depth_duration_MTurk/v2_DepthDuration_HTML.html#103,103,1364,625,1364,768,8-22-2022,8-33-49,52,depth_duration_stimuli/002639_2014-06-24_14-51-37_094959634447_rgbf000074-resize_4/002639_2014-06-24_14-51-37_094959634447_rgbf000074-resize_4-target.png,1000,4.0375,5.0,2265,1007,feet,jsons/v1_VE1000_randls_20_rotated.json,703363,793186,48,Woman
52,332849,DepthScenes,duration_manipulation_targetAtFixation,jsons/v1_VE1000_randls_20_rotated.json,http://54.235.29.9/FacialAge/BNav_EC2/DepthDuration/v2_depth_duration_MTurk/v2_DepthDuration_HTML.html#103,103,1364,625,1364,768,8-22-2022,8-33-49,53,depth_duration_stimuli/003292_2014-05-14_21-53-49_094959634447_rgbf000100-resize_2/003292_2014-05-14_21-53-49_094959634447_rgbf000100-resize_2-target.png,1000,3.4815,6.0,8876,1000,feet,jsons/v1_VE1000_randls_20_rotated.json,703363,793186,48,Woman
53,332849,DepthScenes,duration_manipulation_targetAtFixation,jsons/v1_VE1000_randls_20_rotated.json,http://54.235.29.9/FacialAge/BNav_EC2/DepthDuration/v2_depth_duration_MTurk/v2_DepthDuration_HTML.html#103,103,1364,625,1364,768,8-22-2022,8-33-49,54,depth_duration_stimuli/000409_2014-06-04_19-23-33_260595134347_rgbf000067-resize_0/000409_2014-06-04_19-23-33_260595134347_rgbf000067-resize_0-target.png,1000,3.7335,5.0,3930,1002,feet,jsons/v1_VE1000_randls_20_rotated.json,703363,793186,48,Woman
54,332849,DepthScenes,duration_manipulation_targetAtFixation,jsons/v1_VE1000_randls_20_rotated.json,http://54.235.29.9/FacialAge/BNav_EC2/DepthDuration/v2_depth_duration_MTurk/v2_DepthDuration_HTML.html#103,103,1364,625,1364,768,8-22-2022,8-33-49,55,depth_duration_stimuli/002663_2014-06-13_15-50-26_094959634447_rgbf000075-resize_1/002663_2014-06-13_15-50-26_094959634447_rgbf000075-resize_1-target.png,1000,4.7495,8.0,3930,999,feet,jsons/v1_VE1000_randls_20_rotated.json,703363,793186,48,Woman
55,332849,DepthScenes,duration_manipulation_targetAtFixation,jsons/v1_VE1000_randls_20_rotated.json,http://54.235.29.9/FacialAge/BNav_EC2/DepthDuration/v2_depth_duration_MTurk/v2_DepthDuration_HTML.html#103,103,1364,625,1364,768,8-22-2022,8-33-49,56,depth_duration_stimuli/002568_2014-06-24_13-59-21_094959634447_rgbf000062-resize_4/002568_2014-06-24_13-59-21_094959634447_rgbf000062-resize_4-target.png,1000,3.015,9.0,3347,1000,feet,jsons/v1_VE1000_randls_20_rotated.json,703363,793186,48,Woman
56,332849,DepthScenes,duration_manipulation_targetAtFixation,jsons/v1_VE1000_randls_20_rotated.json,http://54.235.29.9/FacialAge/BNav_EC2/DepthDuration/v2_depth_duration_MTurk/v2_DepthDuration_HTML.html#103,103,1364,625,1364,768,8-22-2022,8-33-49,57,depth_duration_stimuli/003492_2014-05-21_15-50-55_094959634447_rgbf000828-resize_1/003492_2014-05-21_15-50-55_094959634447_rgbf000828-resize_1-target.png,1000,4.06875,10.0,6283,1001,feet,jsons/v1_VE1000_randls_20_rotated.json,703363,793186,48,Woman
57,332849,DepthScenes,duration_manipulation_targetAtFixation,jsons/v1_VE1000_randls_20_rotated.json,http://54.235.29.9/FacialAge/BNav_EC2/DepthDuration/v2_depth_duration_MTurk/v2_DepthDuration_HTML.html#103,103,1364,625,1364,768,8-22-2022,8-33-49,58,depth_duration_stimuli/002209_2014-06-28_18-36-10_260595134347_rgbf000051-resize_1/002209_2014-06-28_18-36-10_260595134347_rgbf000051-resize_1-target.png,1000,2.057,10.0,3433,999,feet,jsons/v1_VE1000_randls_20_rotated.json,703363,793186,48,Woman
58,332849,DepthScenes,duration_manipulation_targetAtFixation,jsons/v1_VE1000_randls_20_rotated.json,http://54.235.29.9/FacialAge/BNav_EC2/DepthDuration/v2_depth_duration_MTurk/v2_DepthDuration_HTML.html#103,103,1364,625,1364,768,8-22-2022,8-33-49,59,depth_duration_stimuli/002763_2014-06-22_19-13-10_094959634447_rgbf000075-resize_4/002763_2014-06-22_19-13-10_094959634447_rgbf000075-resize_4-target.png,1000,1.68375,9.0,3892,999,feet,jsons/v1_VE1000_randls_20_rotated.json,703363,793186,48,Woman
59,332849,DepthScenes,duration_manipulation_targetAtFixation,jsons/v1_VE1000_randls_20_rotated.json,http://54.235.29.9/FacialAge/BNav_EC2/DepthDuration/v2_depth_duration_MTurk/v2_DepthDuration_HTML.html#103,103,1364,625,1364,768,8-22-2022,8-33-49,60,depth_duration_stimuli/000665_2014-06-09_20-42-35_260595134347_rgbf000110-resize_1/000665_2014-06-09_20-42-35_260595134347_rgbf000110-resize_1-target.png,1000,3.057,10.0,3481,998,feet,jsons/v1_VE1000_randls_20_rotated.json,703363,793186,48,Woman
60,332849,DepthScenes,duration_manipulation_targetAtFixation,jsons/v1_VE1000_randls_20_rotated.json,http://54.235.29.9/FacialAge/BNav_EC2/DepthDuration/v2_depth_duration_MTurk/v2_DepthDuration_HTML.html#103,103,1364,625,1364,768,8-22-2022,8-33-49,61,depth_duration_stimuli/001150_2014-06-17_15-27-34_260595134347_rgbf000108-resize_2/001150_2014-06-17_15-27-34_260595134347_rgbf000108-resize_2-target.png,1000,4.0325,9.0,3323,999,feet,jsons/v1_VE1000_randls_20_rotated.json,703363,793186,48,Woman
61,332849,DepthScenes,duration_manipulation_targetAtFixation,jsons/v1_VE1000_randls_20_rotated.json,http://54.235.29.9/FacialAge/BNav_EC2/DepthDuration/v2_depth_duration_MTurk/v2_DepthDuration_HTML.html#103,103,1364,625,1364,768,8-22-2022,8-33-49,62,depth_duration_stimuli/002953_2014-06-08_17-32-18_094959634447_rgbf000059-resize_5/002953_2014-06-08_17-32-18_094959634447_rgbf000059-resize_5-target.png,1000,1.551,9.0,5049,1000,feet,jsons/v1_VE1000_randls_20_rotated.json,703363,793186,48,Woman
62,332849,DepthScenes,duration_manipulation_targetAtFixation,jsons/v1_VE1000_randls_20_rotated.json,http://54.235.29.9/FacialAge/BNav_EC2/DepthDuration/v2_depth_duration_MTurk/v2_DepthDuration_HTML.html#103,103,1364,625,1364,768,8-22-2022,8-33-49,63,depth_duration_stimuli/000878_2014-06-08_22-52-45_260595134347_rgbf000045-resize_2/000878_2014-06-08_22-52-45_260595134347_rgbf000045-resize_2-target.png,1000,2.092,7.0,3178,983,feet,jsons/v1_VE1000_randls_20_rotated.json,703363,793186,48,Woman
63,332849,DepthScenes,duration_manipulation_targetAtFixation,jsons/v1_VE1000_randls_20_rotated.json,http://54.235.29.9/FacialAge/BNav_EC2/DepthDuration/v2_depth_duration_MTurk/v2_DepthDuration_HTML.html#103,103,1364,625,1364,768,8-22-2022,8-33-49,64,depth_duration_stimuli/000927_2014-06-09_16-32-30_260595134347_rgbf000123-resize_3/000927_2014-06-09_16-32-30_260595134347_rgbf000123-resize_3-target.png,1000,2.6785,10.0,3707,1000,feet,jsons/v1_VE1000_randls_20_rotated.json,703363,793186,48,Woman
64,332849,DepthScenes,duration_manipulation_targetAtFixation,jsons/v1_VE1000_randls_20_rotated.json,http://54.235.29.9/FacialAge/BNav_EC2/DepthDuration/v2_depth_duration_MTurk/v2_DepthDuration_HTML.html#103,103,1364,625,1364,768,8-22-2022,8-33-49,65,depth_duration_stimuli/001110_2014-06-15_17-25-28_260595134347_rgbf000150-resize_1/001110_2014-06-15_17-25-28_260595134347_rgbf000150-resize_1-target.png,1000,1.7115,0.0,3858,999,feet,jsons/v1_VE1000_randls_20_rotated.json,703363,793186,48,Woman
65,332849,DepthScenes,duration_manipulation_targetAtFixation,jsons/v1_VE1000_randls_20_rotated.json,http://54.235.29.9/FacialAge/BNav_EC2/DepthDuration/v2_depth_duration_MTurk/v2_DepthDuration_HTML.html#103,103,1364,625,1364,768,8-22-2022,8-33-49,66,depth_duration_stimuli/001540_2014-06-20_17-01-05_260595134347_rgbf000086-resize_2/001540_2014-06-20_17-01-05_260595134347_rgbf000086-resize-original.jpg,1000,1.459,0.0,3339,999,feet,jsons/v1_VE1000_randls_20_rotated.json,703363,793186,48,Woman
66,332849,DepthScenes,duration_manipulation_targetAtFixation,jsons/v1_VE1000_randls_20_rotated.json,http://54.235.29.9/FacialAge/BNav_EC2/DepthDuration/v2_depth_duration_MTurk/v2_DepthDuration_HTML.html#103,103,1364,625,1364,768,8-22-2022,8-33-49,67,depth_duration_stimuli/000109_2014-05-14_23-41-52_260595134347_rgbf000035-resize_9/000109_2014-05-14_23-41-52_260595134347_rgbf000035-resize_9-target.png,1000,1.3545,9.0,3170,999,feet,jsons/v1_VE1000_randls_20_rotated.json,703363,793186,48,Woman
67,332849,DepthScenes,duration_manipulation_targetAtFixation,jsons/v1_VE1000_randls_20_rotated.json,http://54.235.29.9/FacialAge/BNav_EC2/DepthDuration/v2_depth_duration_MTurk/v2_DepthDuration_HTML.html#103,103,1364,625,1364,768,8-22-2022,8-33-49,68,depth_duration_stimuli/000470_2014-06-09_19-42-40_260595134347_rgbf000094-resize_1/000470_2014-06-09_19-42-40_260595134347_rgbf000094-resize_1-target.png,1000,1.831,7.0,3329,999,feet,jsons/v1_VE1000_randls_20_rotated.json,703363,793186,48,Woman
68,332849,DepthScenes,duration_manipulation_targetAtFixation,jsons/v1_VE1000_randls_20_rotated.json,http://54.235.29.9/FacialAge/BNav_EC2/DepthDuration/v2_depth_duration_MTurk/v2_DepthDuration_HTML.html#103,103,1364,625,1364,768,8-22-2022,8-33-49,69,depth_duration_stimuli/002805_2014-06-22_19-54-03_094959634447_rgbf000079-resize_1/002805_2014-06-22_19-54-03_094959634447_rgbf000079-resize_1-target.png,1000,3.1439999999999997,9.0,3258,1001,feet,jsons/v1_VE1000_randls_20_rotated.json,703363,793186,48,Woman
69,332849,DepthScenes,duration_manipulation_targetAtFixation,jsons/v1_VE1000_randls_20_rotated.json,http://54.235.29.9/FacialAge/BNav_EC2/DepthDuration/v2_depth_duration_MTurk/v2_DepthDuration_HTML.html#103,103,1364,625,1364,768,8-22-2022,8-33-49,70,depth_duration_stimuli/000906_2014-06-08_13-35-43_260595134347_rgbf000155-resize_1/000906_2014-06-08_13-35-43_260595134347_rgbf000155-resize_1-target.png,1000,2.8489999999999998,10.0,2995,999,feet,jsons/v1_VE1000_randls_20_rotated.json,703363,793186,48,Woman
70,332849,DepthScenes,duration_manipulation_targetAtFixation,jsons/v1_VE1000_randls_20_rotated.json,http://54.235.29.9/FacialAge/BNav_EC2/DepthDuration/v2_depth_duration_MTurk/v2_DepthDuration_HTML.html#103,103,1364,625,1364,768,8-22-2022,8-33-49,71,depth_duration_stimuli/002414_2014-06-28_20-24-58_260595134347_rgbf000067-resize_4/002414_2014-06-28_20-24-58_260595134347_rgbf000067-resize_4-target.png,1000,4.363,10.0,3613,999,feet,jsons/v1_VE1000_randls_20_rotated.json,703363,793186,48,Woman
71,332849,DepthScenes,duration_manipulation_targetAtFixation,jsons/v1_VE1000_randls_20_rotated.json,http://54.235.29.9/FacialAge/BNav_EC2/DepthDuration/v2_depth_duration_MTurk/v2_DepthDuration_HTML.html#103,103,1364,625,1364,768,8-22-2022,8-33-49,72,depth_duration_stimuli/000773_2014-06-08_22-24-54_260595134347_rgbf000093-resize_1/000773_2014-06-08_22-24-54_260595134347_rgbf000093-resize_1-target.png,1000,4.973,5.0,3345,1000,feet,jsons/v1_VE1000_randls_20_rotated.json,703363,793186,48,Woman
72,332849,DepthScenes,duration_manipulation_targetAtFixation,jsons/v1_VE1000_randls_20_rotated.json,http://54.235.29.9/FacialAge/BNav_EC2/DepthDuration/v2_depth_duration_MTurk/v2_DepthDuration_HTML.html#103,103,1364,625,1364,768,8-22-2022,8-33-49,73,depth_duration_stimuli/003083_2014-06-15_15-21-03_094959634447_rgbf000063-resize_1/003083_2014-06-15_15-21-03_094959634447_rgbf000063-resize_1-target.png,1000,4.1405,10.0,3643,999,feet,jsons/v1_VE1000_randls_20_rotated.json,703363,793186,48,Woman
73,332849,DepthScenes,duration_manipulation_targetAtFixation,jsons/v1_VE1000_randls_20_rotated.json,http://54.235.29.9/FacialAge/BNav_EC2/DepthDuration/v2_depth_duration_MTurk/v2_DepthDuration_HTML.html#103,103,1364,625,1364,768,8-22-2022,8-33-49,74,depth_duration_stimuli/000486_2014-06-09_20-47-20_260595134347_rgbf000143-resize_2/000486_2014-06-09_20-47-20_260595134347_rgbf000143-resize_2-target.png,1000,4.8325,10.0,3370,999,feet,jsons/v1_VE1000_randls_20_rotated.json,703363,793186,48,Woman
74,332849,DepthScenes,duration_manipulation_targetAtFixation,jsons/v1_VE1000_randls_20_rotated.json,http://54.235.29.9/FacialAge/BNav_EC2/DepthDuration/v2_depth_duration_MTurk/v2_DepthDuration_HTML.html#103,103,1364,625,1364,768,8-22-2022,8-33-49,75,depth_duration_stimuli/003129_2014-05-12_10-48-10_094959634447_rgbf000100-resize_0/003129_2014-05-12_10-48-10_094959634447_rgbf000100-resize_0-target.png,1000,4.9305,5.0,3427,999,feet,jsons/v1_VE1000_randls_20_rotated.json,703363,793186,48,Woman
75,332849,DepthScenes,duration_manipulation_targetAtFixation,jsons/v1_VE1000_randls_20_rotated.json,http://54.235.29.9/FacialAge/BNav_EC2/DepthDuration/v2_depth_duration_MTurk/v2_DepthDuration_HTML.html#103,103,1364,625,1364,768,8-22-2022,8-33-49,76,depth_duration_stimuli/000414_2014-06-04_19-49-13_260595134347_rgbf000044-resize_0/000414_2014-06-04_19-49-13_260595134347_rgbf000044-resize_0-target.png,1000,4.329,9.0,2955,998,feet,jsons/v1_VE1000_randls_20_rotated.json,703363,793186,48,Woman
76,332849,DepthScenes,duration_manipulation_targetAtFixation,jsons/v1_VE1000_randls_20_rotated.json,http://54.235.29.9/FacialAge/BNav_EC2/DepthDuration/v2_depth_duration_MTurk/v2_DepthDuration_HTML.html#103,103,1364,625,1364,768,8-22-2022,8-33-49,77,depth_duration_stimuli/002136_2014-06-25_21-18-03_260595134347_rgbf000109-resize_3/002136_2014-06-25_21-18-03_260595134347_rgbf000109-resize_3-target.png,1000,1.9569999999999999,7.0,3636,1000,feet,jsons/v1_VE1000_randls_20_rotated.json,703363,793186,48,Woman
77,332849,DepthScenes,duration_manipulation_targetAtFixation,jsons/v1_VE1000_randls_20_rotated.json,http://54.235.29.9/FacialAge/BNav_EC2/DepthDuration/v2_depth_duration_MTurk/v2_DepthDuration_HTML.html#103,103,1364,625,1364,768,8-22-2022,8-33-49,78,depth_duration_stimuli/002964_2014-06-08_17-46-11_094959634447_rgbf000091-resize_4/002964_2014-06-08_17-46-11_094959634447_rgbf000091-resize_4-target.png,1000,1.6909999999999998,10.0,3730,999,feet,jsons/v1_VE1000_randls_20_rotated.json,703363,793186,48,Woman
78,332849,DepthScenes,duration_manipulation_targetAtFixation,jsons/v1_VE1000_randls_20_rotated.json,http://54.235.29.9/FacialAge/BNav_EC2/DepthDuration/v2_depth_duration_MTurk/v2_DepthDuration_HTML.html#103,103,1364,625,1364,768,8-22-2022,8-33-49,79,depth_duration_stimuli/000742_2014-06-08_18-48-09_260595134347_rgbf000164-resize_4/000742_2014-06-08_18-48-09_260595134347_rgbf000164-resize_4-target.png,1000,4.632,9.0,3651,1000,feet,jsons/v1_VE1000_randls_20_rotated.json,703363,793186,48,Woman
79,332849,DepthScenes,duration_manipulation_targetAtFixation,jsons/v1_VE1000_randls_20_rotated.json,http://54.235.29.9/FacialAge/BNav_EC2/DepthDuration/v2_depth_duration_MTurk/v2_DepthDuration_HTML.html#103,103,1364,625,1364,768,8-22-2022,8-33-49,80,depth_duration_stimuli/001066_2014-06-08_22-03-20_260595134347_rgbf000066-resize_4/001066_2014-06-08_22-03-20_260595134347_rgbf000066-resize_4-target.png,1000,4.2330000000000005,10.0,3708,999,feet,jsons/v1_VE1000_randls_20_rotated.json,703363,793186,48,Woman
80,332849,DepthScenes,duration_manipulation_targetAtFixation,jsons/v1_VE1000_randls_20_rotated.json,http://54.235.29.9/FacialAge/BNav_EC2/DepthDuration/v2_depth_duration_MTurk/v2_DepthDuration_HTML.html#103,103,1364,625,1364,768,8-22-2022,8-33-49,81,depth_duration_stimuli/000749_2014-06-08_21-55-06_260595134347_rgbf000070-resize_2/000749_2014-06-08_21-55-06_260595134347_rgbf000070-resize_2-target.png,1000,2.331,10.0,3528,999,feet,jsons/v1_VE1000_randls_20_rotated.json,703363,793186,48,Woman
81,332849,DepthScenes,duration_manipulation_targetAtFixation,jsons/v1_VE1000_randls_20_rotated.json,http://54.235.29.9/FacialAge/BNav_EC2/DepthDuration/v2_depth_duration_MTurk/v2_DepthDuration_HTML.html#103,103,1364,625,1364,768,8-22-2022,8-33-49,82,depth_duration_stimuli/002788_2014-06-22_19-36-03_094959634447_rgbf000088-resize_2/002788_2014-06-22_19-36-03_094959634447_rgbf000088-resize_2-target.png,1000,1.6465,0.0,5017,998,feet,jsons/v1_VE1000_randls_20_rotated.json,703363,793186,48,Woman
82,332849,DepthScenes,duration_manipulation_targetAtFixation,jsons/v1_VE1000_randls_20_rotated.json,http://54.235.29.9/FacialAge/BNav_EC2/DepthDuration/v2_depth_duration_MTurk/v2_DepthDuration_HTML.html#103,103,1364,625,1364,768,8-22-2022,8-33-49,83,depth_duration_stimuli/000677_2014-06-08_23-10-32_260595134347_rgbf000158-resize_6/000677_2014-06-08_23-10-32_260595134347_rgbf000158-resize_6-target.png,1000,3.556,10.0,3556,999,feet,jsons/v1_VE1000_randls_20_rotated.json,703363,793186,48,Woman
83,332849,DepthScenes,duration_manipulation_targetAtFixation,jsons/v1_VE1000_randls_20_rotated.json,http://54.235.29.9/FacialAge/BNav_EC2/DepthDuration/v2_depth_duration_MTurk/v2_DepthDuration_HTML.html#103,103,1364,625,1364,768,8-22-2022,8-33-49,84,depth_duration_stimuli/001029_2014-06-08_13-17-57_260595134347_rgbf000065-resize_1/001029_2014-06-08_13-17-57_260595134347_rgbf000065-resize_1-target.png,1000,3.0835,9.0,3275,999,feet,jsons/v1_VE1000_randls_20_rotated.json,703363,793186,48,Woman
84,332849,DepthScenes,duration_manipulation_targetAtFixation,jsons/v1_VE1000_randls_20_rotated.json,http://54.235.29.9/FacialAge/BNav_EC2/DepthDuration/v2_depth_duration_MTurk/v2_DepthDuration_HTML.html#103,103,1364,625,1364,768,8-22-2022,8-33-49,85,depth_duration_stimuli/001815_2014-06-26_20-52-55_260595134347_rgbf000020-resize_0/001815_2014-06-26_20-52-55_260595134347_rgbf000020-resize_0-target.png,1000,3.3865,8.0,3578,999,feet,jsons/v1_VE1000_randls_20_rotated.json,703363,793186,48,Woman
85,332849,DepthScenes,duration_manipulation_targetAtFixation,jsons/v1_VE1000_randls_20_rotated.json,http://54.235.29.9/FacialAge/BNav_EC2/DepthDuration/v2_depth_duration_MTurk/v2_DepthDuration_HTML.html#103,103,1364,625,1364,768,8-22-2022,8-33-49,86,depth_duration_stimuli/001808_2014-06-26_20-50-58_260595134347_rgbf000029-resize_1/001808_2014-06-26_20-50-58_260595134347_rgbf000029-resize_1-target.png,1000,4.249,8.0,3699,998,feet,jsons/v1_VE1000_randls_20_rotated.json,703363,793186,48,Woman
86,332849,DepthScenes,duration_manipulation_targetAtFixation,jsons/v1_VE1000_randls_20_rotated.json,http://54.235.29.9/FacialAge/BNav_EC2/DepthDuration/v2_depth_duration_MTurk/v2_DepthDuration_HTML.html#103,103,1364,625,1364,768,8-22-2022,8-33-49,87,depth_duration_stimuli/001214_2014-06-17_16-13-55_260595134347_rgbf000111-resize_0/001214_2014-06-17_16-13-55_260595134347_rgbf000111-resize_0-target.png,1000,2.6505,9.0,3234,999,feet,jsons/v1_VE1000_randls_20_rotated.json,703363,793186,48,Woman
87,332849,DepthScenes,duration_manipulation_targetAtFixation,jsons/v1_VE1000_randls_20_rotated.json,http://54.235.29.9/FacialAge/BNav_EC2/DepthDuration/v2_depth_duration_MTurk/v2_DepthDuration_HTML.html#103,103,1364,625,1364,768,8-22-2022,8-33-49,88,depth_duration_stimuli/000810_2014-06-08_17-20-01_260595134347_rgbf000105-resize_0/000810_2014-06-08_17-20-01_260595134347_rgbf000105-resize_0-target.png,1000,1.4865,8.0,3802,1004,feet,jsons/v1_VE1000_randls_20_rotated.json,703363,793186,48,Woman
88,332849,DepthScenes,duration_manipulation_targetAtFixation,jsons/v1_VE1000_randls_20_rotated.json,http://54.235.29.9/FacialAge/BNav_EC2/DepthDuration/v2_depth_duration_MTurk/v2_DepthDuration_HTML.html#103,103,1364,625,1364,768,8-22-2022,8-33-49,89,depth_duration_stimuli/000943_2014-06-09_19-31-07_260595134347_rgbf000128-resize_1/000943_2014-06-09_19-31-07_260595134347_rgbf000128-resize_1-target.png,1000,1.9765,0.0,2978,999,feet,jsons/v1_VE1000_randls_20_rotated.json,703363,793186,48,Woman
89,332849,DepthScenes,duration_manipulation_targetAtFixation,jsons/v1_VE1000_randls_20_rotated.json,http://54.235.29.9/FacialAge/BNav_EC2/DepthDuration/v2_depth_duration_MTurk/v2_DepthDuration_HTML.html#103,103,1364,625,1364,768,8-22-2022,8-33-49,90,depth_duration_stimuli/003070_2014-06-15_14-58-27_094959634447_rgbf000150-resize_3/003070_2014-06-15_14-58-27_094959634447_rgbf000150-resize_3-target.png,1000,2.9415,10.0,3629,1000,feet,jsons/v1_VE1000_randls_20_rotated.json,703363,793186,48,Woman
90,332849,DepthScenes,duration_manipulation_targetAtFixation,jsons/v1_VE1000_randls_20_rotated.json,http://54.235.29.9/FacialAge/BNav_EC2/DepthDuration/v2_depth_duration_MTurk/v2_DepthDuration_HTML.html#103,103,1364,625,1364,768,8-22-2022,8-33-49,91,depth_duration_stimuli/001617_2014-06-20_11-35-32_260595134347_rgbf000066-resize_1/001617_2014-06-20_11-35-32_260595134347_rgbf000066-resize_1-target.png,1000,3.7910000000000004,63.0,4286,998,feet,jsons/v1_VE1000_randls_20_rotated.json,703363,793186,48,Woman
91,332849,DepthScenes,duration_manipulation_targetAtFixation,jsons/v1_VE1000_randls_20_rotated.json,http://54.235.29.9/FacialAge/BNav_EC2/DepthDuration/v2_depth_duration_MTurk/v2_DepthDuration_HTML.html#103,103,1364,625,1364,768,8-22-2022,8-33-49,92,depth_duration_stimuli/001806_2014-06-26_20-50-20_260595134347_rgbf000091-resize_1/001806_2014-06-26_20-50-20_260595134347_rgbf000091-resize_1-target.png,1000,2.7305,10.0,3895,1000,feet,jsons/v1_VE1000_randls_20_rotated.json,703363,793186,48,Woman
92,332849,DepthScenes,duration_manipulation_targetAtFixation,jsons/v1_VE1000_randls_20_rotated.json,http://54.235.29.9/FacialAge/BNav_EC2/DepthDuration/v2_depth_duration_MTurk/v2_DepthDuration_HTML.html#103,103,1364,625,1364,768,8-22-2022,8-33-49,93,depth_duration_stimuli/002995_2014-06-15_12-31-26_094959634447_rgbf000150-resize_1/002995_2014-06-15_12-31-26_094959634447_rgbf000150-resize_1-target.png,1000,3.8360000000000003,5.0,3683,1000,feet,jsons/v1_VE1000_randls_20_rotated.json,703363,793186,48,Woman
93,332849,DepthScenes,duration_manipulation_targetAtFixation,jsons/v1_VE1000_randls_20_rotated.json,http://54.235.29.9/FacialAge/BNav_EC2/DepthDuration/v2_depth_duration_MTurk/v2_DepthDuration_HTML.html#103,103,1364,625,1364,768,8-22-2022,8-33-49,94,depth_duration_stimuli/002748_2014-06-22_19-07-22_094959634447_rgbf000078-resize_1/002748_2014-06-22_19-07-22_094959634447_rgbf000078-resize_1-target.png,1000,4.6705,98.0,3315,1000,feet,jsons/v1_VE1000_randls_20_rotated.json,703363,793186,48,Woman
94,332849,DepthScenes,duration_manipulation_targetAtFixation,jsons/v1_VE1000_randls_20_rotated.json,http://54.235.29.9/FacialAge/BNav_EC2/DepthDuration/v2_depth_duration_MTurk/v2_DepthDuration_HTML.html#103,103,1364,625,1364,768,8-22-2022,8-33-49,95,depth_duration_stimuli/000191_2014-05-12_17-07-38_260595134347_rgbf000199-resize_0/000191_2014-05-12_17-07-38_260595134347_rgbf000199-resize_0-target.png,1000,3.7995,8.0,3818,1000,feet,jsons/v1_VE1000_randls_20_rotated.json,703363,793186,48,Woman
95,332849,DepthScenes,duration_manipulation_targetAtFixation,jsons/v1_VE1000_randls_20_rotated.json,http://54.235.29.9/FacialAge/BNav_EC2/DepthDuration/v2_depth_duration_MTurk/v2_DepthDuration_HTML.html#103,103,1364,625,1364,768,8-22-2022,8-33-49,96,depth_duration_stimuli/000493_2014-06-09_21-01-18_260595134347_rgbf000196-resize_3/000493_2014-06-09_21-01-18_260595134347_rgbf000196-resize_3-target.png,1000,3.44,9.0,2931,999,feet,jsons/v1_VE1000_randls_20_rotated.json,703363,793186,48,Woman
96,332849,DepthScenes,duration_manipulation_targetAtFixation,jsons/v1_VE1000_randls_20_rotated.json,http://54.235.29.9/FacialAge/BNav_EC2/DepthDuration/v2_depth_duration_MTurk/v2_DepthDuration_HTML.html#103,103,1364,625,1364,768,8-22-2022,8-33-49,97,depth_duration_stimuli/001650_2014-06-20_12-09-00_260595134347_rgbf000087-resize_3/001650_2014-06-20_12-09-00_260595134347_rgbf000087-resize_3-target.png,1000,1.9505,10.0,4859,999,feet,jsons/v1_VE1000_randls_20_rotated.json,703363,793186,48,Woman
97,332849,DepthScenes,duration_manipulation_targetAtFixation,jsons/v1_VE1000_randls_20_rotated.json,http://54.235.29.9/FacialAge/BNav_EC2/DepthDuration/v2_depth_duration_MTurk/v2_DepthDuration_HTML.html#103,103,1364,625,1364,768,8-22-2022,8-33-49,98,depth_duration_stimuli/000682_2014-06-08_23-14-58_260595134347_rgbf000041-resize_5/000682_2014-06-08_23-14-58_260595134347_rgbf000041-resize_5-target.png,1000,2.7239999999999998,0.0,2962,1001,feet,jsons/v1_VE1000_randls_20_rotated.json,703363,793186,48,Woman
98,332849,DepthScenes,duration_manipulation_targetAtFixation,jsons/v1_VE1000_randls_20_rotated.json,http://54.235.29.9/FacialAge/BNav_EC2/DepthDuration/v2_depth_duration_MTurk/v2_DepthDuration_HTML.html#103,103,1364,625,1364,768,8-22-2022,8-33-49,99,depth_duration_stimuli/001222_2014-06-17_16-24-06_260595134347_rgbf000073-resize_0/001222_2014-06-17_16-24-06_260595134347_rgbf000073-resize-original.jpg,1000,1.4385,11.0,4025,999,feet,jsons/v1_VE1000_randls_20_rotated.json,703363,793186,48,Woman
99,332849,DepthScenes,duration_manipulation_targetAtFixation,jsons/v1_VE1000_randls_20_rotated.json,http://54.235.29.9/FacialAge/BNav_EC2/DepthDuration/v2_depth_duration_MTurk/v2_DepthDuration_HTML.html#103,103,1364,625,1364,768,8-22-2022,8-33-49,100,depth_duration_stimuli/000709_2014-06-08_13-51-55_260595134347_rgbf000068-resize_3/000709_2014-06-08_13-51-55_260595134347_rgbf000068-resize_3-target.png,1000,1.8030000000000002,0.0,2906,944,feet,jsons/v1_VE1000_randls_20_rotated.json,703363,793186,48,Woman
100,332849,DepthScenes,duration_manipulation_targetAtFixation,jsons/v1_VE1000_randls_20_rotated.json,http://54.235.29.9/FacialAge/BNav_EC2/DepthDuration/v2_depth_duration_MTurk/v2_DepthDuration_HTML.html#103,103,1364,625,1364,768,8-22-2022,8-33-49,101,depth_duration_stimuli/002057_2014-06-24_21-00-13_260595134347_rgbf000120-resize_1/002057_2014-06-24_21-00-13_260595134347_rgbf000120-resize_1-target.png,1000,2.967,0.0,2905,998,feet,jsons/v1_VE1000_randls_20_rotated.json,703363,793186,48,Woman
101,332849,DepthScenes,duration_manipulation_targetAtFixation,jsons/v1_VE1000_randls_20_rotated.json,http://54.235.29.9/FacialAge/BNav_EC2/DepthDuration/v2_depth_duration_MTurk/v2_DepthDuration_HTML.html#103,103,1364,625,1364,768,8-22-2022,8-33-49,102,depth_duration_stimuli/002660_2014-06-13_15-44-18_094959634447_rgbf001878-resize_2/002660_2014-06-13_15-44-18_094959634447_rgbf001878-resize_2-target.png,1000,3.576,0.0,3338,999,feet,jsons/v1_VE1000_randls_20_rotated.json,703363,793186,48,Woman
102,332849,DepthScenes,duration_manipulation_targetAtFixation,jsons/v1_VE1000_randls_20_rotated.json,http://54.235.29.9/FacialAge/BNav_EC2/DepthDuration/v2_depth_duration_MTurk/v2_DepthDuration_HTML.html#103,103,1364,625,1364,768,8-22-2022,8-33-49,103,depth_duration_stimuli/002153_2014-06-25_21-27-18_260595134347_rgbf000038-resize_5/002153_2014-06-25_21-27-18_260595134347_rgbf000038-resize_5-target.png,1000,2.505,10.0,4321,998,feet,jsons/v1_VE1000_randls_20_rotated.json,703363,793186,48,Woman
103,332849,DepthScenes,duration_manipulation_targetAtFixation,jsons/v1_VE1000_randls_20_rotated.json,http://54.235.29.9/FacialAge/BNav_EC2/DepthDuration/v2_depth_duration_MTurk/v2_DepthDuration_HTML.html#103,103,1364,625,1364,768,8-22-2022,8-33-49,104,depth_duration_stimuli/003228_2014-05-14_13-42-35_094959634447_rgbf000101-resize_1/003228_2014-05-14_13-42-35_094959634447_rgbf000101-resize_1-target.png,1000,1.9680000000000002,10.0,4362,998,feet,jsons/v1_VE1000_randls_20_rotated.json,703363,793186,48,Woman
104,332849,DepthScenes,duration_manipulation_targetAtFixation,jsons/v1_VE1000_randls_20_rotated.json,http://54.235.29.9/FacialAge/BNav_EC2/DepthDuration/v2_depth_duration_MTurk/v2_DepthDuration_HTML.html#103,103,1364,625,1364,768,8-22-2022,8-33-49,105,depth_duration_stimuli/002600_2014-06-24_14-27-04_094959634447_rgbf000074-resize_2/002600_2014-06-24_14-27-04_094959634447_rgbf000074-resize_2-target.png,1000,2.7575,8.0,3673,999,feet,jsons/v1_VE1000_randls_20_rotated.json,703363,793186,48,Woman
105,332849,DepthScenes,duration_manipulation_targetAtFixation,jsons/v1_VE1000_randls_20_rotated.json,http://54.235.29.9/FacialAge/BNav_EC2/DepthDuration/v2_depth_duration_MTurk/v2_DepthDuration_HTML.html#103,103,1364,625,1364,768,8-22-2022,8-33-49,106,depth_duration_stimuli/002750_2014-06-22_19-08-03_094959634447_rgbf000094-resize_4/002750_2014-06-22_19-08-03_094959634447_rgbf000094-resize_4-target.png,1000,2.354,9.0,3261,998,feet,jsons/v1_VE1000_randls_20_rotated.json,703363,793186,48,Woman
106,332849,DepthScenes,duration_manipulation_targetAtFixation,jsons/v1_VE1000_randls_20_rotated.json,http://54.235.29.9/FacialAge/BNav_EC2/DepthDuration/v2_depth_duration_MTurk/v2_DepthDuration_HTML.html#103,103,1364,625,1364,768,8-22-2022,8-33-49,107,depth_duration_stimuli/002549_2014-06-24_13-41-39_094959634447_rgbf000022-resize_3/002549_2014-06-24_13-41-39_094959634447_rgbf000022-resize_3-target.png,1000,1.476,10.0,4066,998,feet,jsons/v1_VE1000_randls_20_rotated.json,703363,793186,48,Woman
107,332849,DepthScenes,duration_manipulation_targetAtFixation,jsons/v1_VE1000_randls_20_rotated.json,http://54.235.29.9/FacialAge/BNav_EC2/DepthDuration/v2_depth_duration_MTurk/v2_DepthDuration_HTML.html#103,103,1364,625,1364,768,8-22-2022,8-33-49,108,depth_duration_stimuli/000635_2014-06-08_16-38-42_260595134347_rgbf000106-resize_1/000635_2014-06-08_16-38-42_260595134347_rgbf000106-resize_1-target.png,1000,2.074,8.0,3362,998,feet,jsons/v1_VE1000_randls_20_rotated.json,703363,793186,48,Woman
108,332849,DepthScenes,duration_manipulation_targetAtFixation,jsons/v1_VE1000_randls_20_rotated.json,http://54.235.29.9/FacialAge/BNav_EC2/DepthDuration/v2_depth_duration_MTurk/v2_DepthDuration_HTML.html#103,103,1364,625,1364,768,8-22-2022,8-33-49,109,depth_duration_stimuli/002279_2014-06-28_18-55-32_260595134347_rgbf000040-resize_5/002279_2014-06-28_18-55-32_260595134347_rgbf000040-resize_5-target.png,1000,1.5043333333333,0.0,3258,999,feet,jsons/v1_VE1000_randls_20_rotated.json,703363,793186,48,Woman
109,332849,DepthScenes,duration_manipulation_targetAtFixation,jsons/v1_VE1000_randls_20_rotated.json,http://54.235.29.9/FacialAge/BNav_EC2/DepthDuration/v2_depth_duration_MTurk/v2_DepthDuration_HTML.html#103,103,1364,625,1364,768,8-22-2022,8-33-49,110,depth_duration_stimuli/000866_2014-06-09_20-45-42_260595134347_rgbf000139-resize_1/000866_2014-06-09_20-45-42_260595134347_rgbf000139-resize_1-target.png,1000,3.2155,9.0,3321,999,feet,jsons/v1_VE1000_randls_20_rotated.json,703363,793186,48,Woman
110,332849,DepthScenes,duration_manipulation_targetAtFixation,jsons/v1_VE1000_randls_20_rotated.json,http://54.235.29.9/FacialAge/BNav_EC2/DepthDuration/v2_depth_duration_MTurk/v2_DepthDuration_HTML.html#103,103,1364,625,1364,768,8-22-2022,8-33-49,111,depth_duration_stimuli/002989_2014-06-15_12-25-03_094959634447_rgbf000150-resize_3/002989_2014-06-15_12-25-03_094959634447_rgbf000150-resize_3-target.png,1000,4.1975,6.0,3107,1000,feet,jsons/v1_VE1000_randls_20_rotated.json,703363,793186,48,Woman
111,332849,DepthScenes,duration_manipulation_targetAtFixation,jsons/v1_VE1000_randls_20_rotated.json,http://54.235.29.9/FacialAge/BNav_EC2/DepthDuration/v2_depth_duration_MTurk/v2_DepthDuration_HTML.html#103,103,1364,625,1364,768,8-22-2022,8-33-49,112,depth_duration_stimuli/002103_2014-06-25_20-00-40_260595134347_rgbf000049-resize_0/002103_2014-06-25_20-00-40_260595134347_rgbf000049-resize_0-target.png,1000,4.105,9.0,3338,999,feet,jsons/v1_VE1000_randls_20_rotated.json,703363,793186,48,Woman
112,332849,DepthScenes,duration_manipulation_targetAtFixation,jsons/v1_VE1000_randls_20_rotated.json,http://54.235.29.9/FacialAge/BNav_EC2/DepthDuration/v2_depth_duration_MTurk/v2_DepthDuration_HTML.html#103,103,1364,625,1364,768,8-22-2022,8-33-49,113,depth_duration_stimuli/002039_2014-06-24_20-22-38_260595134347_rgbf000084-resize_1/002039_2014-06-24_20-22-38_260595134347_rgbf000084-resize_1-target.png,1000,4.408,8.0,3427,999,feet,jsons/v1_VE1000_randls_20_rotated.json,703363,793186,48,Woman
113,332849,DepthScenes,duration_manipulation_targetAtFixation,jsons/v1_VE1000_randls_20_rotated.json,http://54.235.29.9/FacialAge/BNav_EC2/DepthDuration/v2_depth_duration_MTurk/v2_DepthDuration_HTML.html#103,103,1364,625,1364,768,8-22-2022,8-33-49,114,depth_duration_stimuli/002875_2014-06-01_15-19-00_094959634447_rgbf000151-resize_1/002875_2014-06-01_15-19-00_094959634447_rgbf000151-resize_1-target.png,1000,1.9675,9.0,2858,998,feet,jsons/v1_VE1000_randls_20_rotated.json,703363,793186,48,Woman
114,332849,DepthScenes,duration_manipulation_targetAtFixation,jsons/v1_VE1000_randls_20_rotated.json,http://54.235.29.9/FacialAge/BNav_EC2/DepthDuration/v2_depth_duration_MTurk/v2_DepthDuration_HTML.html#103,103,1364,625,1364,768,8-22-2022,8-33-49,115,depth_duration_stimuli/001011_2014-06-08_23-18-54_260595134347_rgbf000044-resize_4/001011_2014-06-08_23-18-54_260595134347_rgbf000044-resize_4-target.png,1000,2.4730000000000003,9.0,3258,999,feet,jsons/v1_VE1000_randls_20_rotated.json,703363,793186,48,Woman
115,332849,DepthScenes,duration_manipulation_targetAtFixation,jsons/v1_VE1000_randls_20_rotated.json,http://54.235.29.9/FacialAge/BNav_EC2/DepthDuration/v2_depth_duration_MTurk/v2_DepthDuration_HTML.html#103,103,1364,625,1364,768,8-22-2022,8-33-49,116,depth_duration_stimuli/001450_2014-06-19_17-02-03_260595134347_rgbf000203-resize_4/001450_2014-06-19_17-02-03_260595134347_rgbf000203-resize_4-target.png,1000,4.0106666666667,8.0,3371,998,feet,jsons/v1_VE1000_randls_20_rotated.json,703363,793186,48,Woman
116,332849,DepthScenes,duration_manipulation_targetAtFixation,jsons/v1_VE1000_randls_20_rotated.json,http://54.235.29.9/FacialAge/BNav_EC2/DepthDuration/v2_depth_duration_MTurk/v2_DepthDuration_HTML.html#103,103,1364,625,1364,768,8-22-2022,8-33-49,117,depth_duration_stimuli/001449_2014-06-19_17-01-27_260595134347_rgbf000116-resize_2/001449_2014-06-19_17-01-27_260595134347_rgbf000116-resize_2-target.png,1000,3.452,9.0,2961,999,feet,jsons/v1_VE1000_randls_20_rotated.json,703363,793186,48,Woman
117,332849,DepthScenes,duration_manipulation_targetAtFixation,jsons/v1_VE1000_randls_20_rotated.json,http://54.235.29.9/FacialAge/BNav_EC2/DepthDuration/v2_depth_duration_MTurk/v2_DepthDuration_HTML.html#103,103,1364,625,1364,768,8-22-2022,8-33-49,118,depth_duration_stimuli/000691_2014-06-08_13-08-50_260595134347_rgbf000132-resize_3/000691_2014-06-08_13-08-50_260595134347_rgbf000132-resize_3-target.png,1000,4.1530000000000005,7.0,3791,983,feet,jsons/v1_VE1000_randls_20_rotated.json,703363,793186,48,Woman
118,332849,DepthScenes,duration_manipulation_targetAtFixation,jsons/v1_VE1000_randls_20_rotated.json,http://54.235.29.9/FacialAge/BNav_EC2/DepthDuration/v2_depth_duration_MTurk/v2_DepthDuration_HTML.html#103,103,1364,625,1364,768,8-22-2022,8-33-49,119,depth_duration_stimuli/002213_2014-06-28_18-37-58_260595134347_rgbf000055-resize_1/002213_2014-06-28_18-37-58_260595134347_rgbf000055-resize_1-target.png,1000,3.62,0.0,3215,999,feet,jsons/v1_VE1000_randls_20_rotated.json,703363,793186,48,Woman
119,332849,DepthScenes,duration_manipulation_targetAtFixation,jsons/v1_VE1000_randls_20_rotated.json,http://54.235.29.9/FacialAge/BNav_EC2/DepthDuration/v2_depth_duration_MTurk/v2_DepthDuration_HTML.html#103,103,1364,625,1364,768,8-22-2022,8-33-49,120,depth_duration_stimuli/000787_2014-06-08_22-33-53_260595134347_rgbf000175-resize_1/000787_2014-06-08_22-33-53_260595134347_rgbf000175-resize-original.jpg,1000,4.784,9.0,3250,1000,feet,jsons/v1_VE1000_randls_20_rotated.json,703363,793186,48,Woman
120,332849,DepthScenes,duration_manipulation_targetAtFixation,jsons/v1_VE1000_randls_20_rotated.json,http://54.235.29.9/FacialAge/BNav_EC2/DepthDuration/v2_depth_duration_MTurk/v2_DepthDuration_HTML.html#103,103,1364,625,1364,768,8-22-2022,8-33-49,121,depth_duration_stimuli/000103_2014-05-14_22-01-17_260595134347_rgbf000152-resize_5/000103_2014-05-14_22-01-17_260595134347_rgbf000152-resize_5-target.png,1000,1.993,8.0,7292,999,feet,jsons/v1_VE1000_randls_20_rotated.json,703363,793186,48,Woman
121,332849,DepthScenes,duration_manipulation_targetAtFixation,jsons/v1_VE1000_randls_20_rotated.json,http://54.235.29.9/FacialAge/BNav_EC2/DepthDuration/v2_depth_duration_MTurk/v2_DepthDuration_HTML.html#103,103,1364,625,1364,768,8-22-2022,8-33-49,122,depth_duration_stimuli/001555_2014-06-20_17-12-10_260595134347_rgbf000065-resize_4/001555_2014-06-20_17-12-10_260595134347_rgbf000065-resize_4-target.png,1000,1.633,9.0,3457,999,feet,jsons/v1_VE1000_randls_20_rotated.json,703363,793186,48,Woman
122,332849,DepthScenes,duration_manipulation_targetAtFixation,jsons/v1_VE1000_randls_20_rotated.json,http://54.235.29.9/FacialAge/BNav_EC2/DepthDuration/v2_depth_duration_MTurk/v2_DepthDuration_HTML.html#103,103,1364,625,1364,768,8-22-2022,8-33-49,123,depth_duration_stimuli/002657_2014-06-13_15-29-54_094959634447_rgbf000150-resize_1/002657_2014-06-13_15-29-54_094959634447_rgbf000150-resize_1-target.png,1000,4.919,0.0,3444,1000,feet,jsons/v1_VE1000_randls_20_rotated.json,703363,793186,48,Woman
123,332849,DepthScenes,duration_manipulation_targetAtFixation,jsons/v1_VE1000_randls_20_rotated.json,http://54.235.29.9/FacialAge/BNav_EC2/DepthDuration/v2_depth_duration_MTurk/v2_DepthDuration_HTML.html#103,103,1364,625,1364,768,8-22-2022,8-33-49,124,depth_duration_stimuli/002375_2014-06-28_20-13-44_260595134347_rgbf000032-resize_1/002375_2014-06-28_20-13-44_260595134347_rgbf000032-resize_1-target.png,1000,4.0175,0.0,3163,998,feet,jsons/v1_VE1000_randls_20_rotated.json,703363,793186,48,Woman
124,332849,DepthScenes,duration_manipulation_targetAtFixation,jsons/v1_VE1000_randls_20_rotated.json,http://54.235.29.9/FacialAge/BNav_EC2/DepthDuration/v2_depth_duration_MTurk/v2_DepthDuration_HTML.html#103,103,1364,625,1364,768,8-22-2022,8-33-49,125,depth_duration_stimuli/002637_2014-06-24_14-51-13_094959634447_rgbf000066-resize_4/002637_2014-06-24_14-51-13_094959634447_rgbf000066-resize_4-target.png,1000,1.9955,0.0,3852,999,feet,jsons/v1_VE1000_randls_20_rotated.json,703363,793186,48,Woman
125,332849,DepthScenes,duration_manipulation_targetAtFixation,jsons/v1_VE1000_randls_20_rotated.json,http://54.235.29.9/FacialAge/BNav_EC2/DepthDuration/v2_depth_duration_MTurk/v2_DepthDuration_HTML.html#103,103,1364,625,1364,768,8-22-2022,8-33-49,126,depth_duration_stimuli/003534_2014-05-22_15-06-10_094959634447_rgbf000102-resize_4/003534_2014-05-22_15-06-10_094959634447_rgbf000102-resize_4-target.png,1000,1.426,10.0,3713,1000,feet,jsons/v1_VE1000_randls_20_rotated.json,703363,793186,48,Woman
126,332849,DepthScenes,duration_manipulation_targetAtFixation,jsons/v1_VE1000_randls_20_rotated.json,http://54.235.29.9/FacialAge/BNav_EC2/DepthDuration/v2_depth_duration_MTurk/v2_DepthDuration_HTML.html#103,103,1364,625,1364,768,8-22-2022,8-33-49,127,depth_duration_stimuli/000137_2014-05-20_17-04-49_260595134347_rgbf000120-resize_1/000137_2014-05-20_17-04-49_260595134347_rgbf000120-resize_1-target.png,1000,3.786,8.0,3594,1000,feet,jsons/v1_VE1000_randls_20_rotated.json,703363,793186,48,Woman
127,332849,DepthScenes,duration_manipulation_targetAtFixation,jsons/v1_VE1000_randls_20_rotated.json,http://54.235.29.9/FacialAge/BNav_EC2/DepthDuration/v2_depth_duration_MTurk/v2_DepthDuration_HTML.html#103,103,1364,625,1364,768,8-22-2022,8-33-49,128,depth_duration_stimuli/000736_2014-06-08_18-24-15_260595134347_rgbf000206-resize_3/000736_2014-06-08_18-24-15_260595134347_rgbf000206-resize_3-target.png,1000,3.515,9.0,3321,999,feet,jsons/v1_VE1000_randls_20_rotated.json,703363,793186,48,Woman
128,332849,DepthScenes,duration_manipulation_targetAtFixation,jsons/v1_VE1000_randls_20_rotated.json,http://54.235.29.9/FacialAge/BNav_EC2/DepthDuration/v2_depth_duration_MTurk/v2_DepthDuration_HTML.html#103,103,1364,625,1364,768,8-22-2022,8-33-49,129,depth_duration_stimuli/000734_2014-06-08_17-39-11_260595134347_rgbf000128-resize_2/000734_2014-06-08_17-39-11_260595134347_rgbf000128-resize_2-target.png,1000,4.098,10.0,3510,999,feet,jsons/v1_VE1000_randls_20_rotated.json,703363,793186,48,Woman
129,332849,DepthScenes,duration_manipulation_targetAtFixation,jsons/v1_VE1000_randls_20_rotated.json,http://54.235.29.9/FacialAge/BNav_EC2/DepthDuration/v2_depth_duration_MTurk/v2_DepthDuration_HTML.html#103,103,1364,625,1364,768,8-22-2022,8-33-49,130,depth_duration_stimuli/000739_2014-06-08_18-45-58_260595134347_rgbf000068-resize_1/000739_2014-06-08_18-45-58_260595134347_rgbf000068-resize_1-target.png,1000,3.534,9.0,3432,999,feet,jsons/v1_VE1000_randls_20_rotated.json,703363,793186,48,Woman
130,332849,DepthScenes,duration_manipulation_targetAtFixation,jsons/v1_VE1000_randls_20_rotated.json,http://54.235.29.9/FacialAge/BNav_EC2/DepthDuration/v2_depth_duration_MTurk/v2_DepthDuration_HTML.html#103,103,1364,625,1364,768,8-22-2022,8-33-49,131,depth_duration_stimuli/003010_2014-06-15_12-54-35_094959634447_rgbf000112-resize_0/003010_2014-06-15_12-54-35_094959634447_rgbf000112-resize_0-target.png,1000,3.1185,8.0,3289,997,feet,jsons/v1_VE1000_randls_20_rotated.json,703363,793186,48,Woman
131,332849,DepthScenes,duration_manipulation_targetAtFixation,jsons/v1_VE1000_randls_20_rotated.json,http://54.235.29.9/FacialAge/BNav_EC2/DepthDuration/v2_depth_duration_MTurk/v2_DepthDuration_HTML.html#103,103,1364,625,1364,768,8-22-2022,8-33-49,132,depth_duration_stimuli/001810_2014-06-26_20-51-35_260595134347_rgbf000040-resize_3/001810_2014-06-26_20-51-35_260595134347_rgbf000040-resize_3-target.png,1000,2.2525,10.0,3427,999,feet,jsons/v1_VE1000_randls_20_rotated.json,703363,793186,48,Woman
132,332849,DepthScenes,duration_manipulation_targetAtFixation,jsons/v1_VE1000_randls_20_rotated.json,http://54.235.29.9/FacialAge/BNav_EC2/DepthDuration/v2_depth_duration_MTurk/v2_DepthDuration_HTML.html#103,103,1364,625,1364,768,8-22-2022,8-33-49,133,depth_duration_stimuli/000483_2014-06-09_20-41-45_260595134347_rgbf000116-resize_4/000483_2014-06-09_20-41-45_260595134347_rgbf000116-resize_4-target.png,1000,1.337,9.0,3418,999,feet,jsons/v1_VE1000_randls_20_rotated.json,703363,793186,48,Woman
133,332849,DepthScenes,duration_manipulation_targetAtFixation,jsons/v1_VE1000_randls_20_rotated.json,http://54.235.29.9/FacialAge/BNav_EC2/DepthDuration/v2_depth_duration_MTurk/v2_DepthDuration_HTML.html#103,103,1364,625,1364,768,8-22-2022,8-33-49,134,depth_duration_stimuli/000469_2014-06-09_19-42-10_260595134347_rgbf000081-resize_1/000469_2014-06-09_19-42-10_260595134347_rgbf000081-resize_1-target.png,1000,1.652,8.0,3091,1001,feet,jsons/v1_VE1000_randls_20_rotated.json,703363,793186,48,Woman
134,332849,DepthScenes,duration_manipulation_targetAtFixation,jsons/v1_VE1000_randls_20_rotated.json,http://54.235.29.9/FacialAge/BNav_EC2/DepthDuration/v2_depth_duration_MTurk/v2_DepthDuration_HTML.html#103,103,1364,625,1364,768,8-22-2022,8-33-49,135,depth_duration_stimuli/000375_2014-06-08_11-17-29_260595134347_rgbf000133-resize_2/000375_2014-06-08_11-17-29_260595134347_rgbf000133-resize-original.jpg,1000,4.718,10.0,3113,1002,feet,jsons/v1_VE1000_randls_20_rotated.json,703363,793186,48,Woman
135,332849,DepthScenes,duration_manipulation_targetAtFixation,jsons/v1_VE1000_randls_20_rotated.json,http://54.235.29.9/FacialAge/BNav_EC2/DepthDuration/v2_depth_duration_MTurk/v2_DepthDuration_HTML.html#103,103,1364,625,1364,768,8-22-2022,8-33-49,136,depth_duration_stimuli/003079_2014-06-15_15-18-20_094959634447_rgbf000152-resize_8/003079_2014-06-15_15-18-20_094959634447_rgbf000152-resize_8-target.png,1000,2.8775,0.0,2962,995,feet,jsons/v1_VE1000_randls_20_rotated.json,703363,793186,48,Woman
136,332849,DepthScenes,duration_manipulation_targetAtFixation,jsons/v1_VE1000_randls_20_rotated.json,http://54.235.29.9/FacialAge/BNav_EC2/DepthDuration/v2_depth_duration_MTurk/v2_DepthDuration_HTML.html#103,103,1364,625,1364,768,8-22-2022,8-33-49,137,depth_duration_stimuli/000506_2014-06-08_23-21-00_260595134347_rgbf000070-resize_7/000506_2014-06-08_23-21-00_260595134347_rgbf000070-resize_7-target.png,1000,4.0585,5.0,3818,999,feet,jsons/v1_VE1000_randls_20_rotated.json,703363,793186,48,Woman
137,332849,DepthScenes,duration_manipulation_targetAtFixation,jsons/v1_VE1000_randls_20_rotated.json,http://54.235.29.9/FacialAge/BNav_EC2/DepthDuration/v2_depth_duration_MTurk/v2_DepthDuration_HTML.html#103,103,1364,625,1364,768,8-22-2022,8-33-49,138,depth_duration_stimuli/001094_2014-06-15_17-36-00_260595134347_rgbf000205-resize_0/001094_2014-06-15_17-36-00_260595134347_rgbf000205-resize_0-target.png,1000,4.2175,10.0,3529,1000,feet,jsons/v1_VE1000_randls_20_rotated.json,703363,793186,48,Woman
138,332849,DepthScenes,duration_manipulation_targetAtFixation,jsons/v1_VE1000_randls_20_rotated.json,http://54.235.29.9/FacialAge/BNav_EC2/DepthDuration/v2_depth_duration_MTurk/v2_DepthDuration_HTML.html#103,103,1364,625,1364,768,8-22-2022,8-33-49,139,depth_duration_stimuli/000692_2014-06-08_13-09-42_260595134347_rgbf000199-resize_2/000692_2014-06-08_13-09-42_260595134347_rgbf000199-resize_2-target.png,1000,3.661,10.0,4345,999,feet,jsons/v1_VE1000_randls_20_rotated.json,703363,793186,48,Woman
139,332849,DepthScenes,duration_manipulation_targetAtFixation,jsons/v1_VE1000_randls_20_rotated.json,http://54.235.29.9/FacialAge/BNav_EC2/DepthDuration/v2_depth_duration_MTurk/v2_DepthDuration_HTML.html#103,103,1364,625,1364,768,8-22-2022,8-33-49,140,depth_duration_stimuli/000549_2014-06-08_22-10-24_260595134347_rgbf000247-resize_3/000549_2014-06-08_22-10-24_260595134347_rgbf000247-resize_3-target.png,1000,1.841,5.0,3771,999,feet,jsons/v1_VE1000_randls_20_rotated.json,703363,793186,48,Woman
140,332849,DepthScenes,duration_manipulation_targetAtFixation,jsons/v1_VE1000_randls_20_rotated.json,http://54.235.29.9/FacialAge/BNav_EC2/DepthDuration/v2_depth_duration_MTurk/v2_DepthDuration_HTML.html#103,103,1364,625,1364,768,8-22-2022,8-33-49,141,depth_duration_stimuli/001055_2014-06-08_18-45-35_260595134347_rgbf000111-resize_4/001055_2014-06-08_18-45-35_260595134347_rgbf000111-resize_4-target.png,1000,2.4290000000000003,9.0,3314,1001,feet,jsons/v1_VE1000_randls_20_rotated.json,703363,793186,48,Woman
141,332849,DepthScenes,duration_manipulation_targetAtFixation,jsons/v1_VE1000_randls_20_rotated.json,http://54.235.29.9/FacialAge/BNav_EC2/DepthDuration/v2_depth_duration_MTurk/v2_DepthDuration_HTML.html#103,103,1364,625,1364,768,8-22-2022,8-33-49,142,depth_duration_stimuli/002545_2014-06-24_13-38-53_094959634447_rgbf000080-resize_4/002545_2014-06-24_13-38-53_094959634447_rgbf000080-resize_4-target.png,1000,1.9205,5.0,4050,1001,feet,jsons/v1_VE1000_randls_20_rotated.json,703363,793186,48,Woman
142,332849,DepthScenes,duration_manipulation_targetAtFixation,jsons/v1_VE1000_randls_20_rotated.json,http://54.235.29.9/FacialAge/BNav_EC2/DepthDuration/v2_depth_duration_MTurk/v2_DepthDuration_HTML.html#103,103,1364,625,1364,768,8-22-2022,8-33-49,143,depth_duration_stimuli/001092_2014-06-15_17-34-58_260595134347_rgbf000171-resize_3/001092_2014-06-15_17-34-58_260595134347_rgbf000171-resize_3-target.png,1000,2.6935,8.0,3282,998,feet,jsons/v1_VE1000_randls_20_rotated.json,703363,793186,48,Woman
143,332849,DepthScenes,duration_manipulation_targetAtFixation,jsons/v1_VE1000_randls_20_rotated.json,http://54.235.29.9/FacialAge/BNav_EC2/DepthDuration/v2_depth_duration_MTurk/v2_DepthDuration_HTML.html#103,103,1364,625,1364,768,8-22-2022,8-33-49,144,depth_duration_stimuli/002199_2014-06-28_18-33-56_260595134347_rgbf000074-resize_0/002199_2014-06-28_18-33-56_260595134347_rgbf000074-resize_0-target.png,1000,1.996,7.0,3483,999,feet,jsons/v1_VE1000_randls_20_rotated.json,703363,793186,48,Woman
144,332849,DepthScenes,duration_manipulation_targetAtFixation,jsons/v1_VE1000_randls_20_rotated.json,http://54.235.29.9/FacialAge/BNav_EC2/DepthDuration/v2_depth_duration_MTurk/v2_DepthDuration_HTML.html#103,103,1364,625,1364,768,8-22-2022,8-33-49,145,depth_duration_stimuli/001056_2014-06-08_18-46-44_260595134347_rgbf000068-resize_0/001056_2014-06-08_18-46-44_260595134347_rgbf000068-resize_0-target.png,1000,2.6625,9.0,4578,999,feet,jsons/v1_VE1000_randls_20_rotated.json,703363,793186,48,Woman
145,332849,DepthScenes,duration_manipulation_targetAtFixation,jsons/v1_VE1000_randls_20_rotated.json,http://54.235.29.9/FacialAge/BNav_EC2/DepthDuration/v2_depth_duration_MTurk/v2_DepthDuration_HTML.html#103,103,1364,625,1364,768,8-22-2022,8-33-49,146,depth_duration_stimuli/001032_2014-06-08_13-23-17_260595134347_rgbf000021-resize_3/001032_2014-06-08_13-23-17_260595134347_rgbf000021-resize_3-target.png,1000,3.2725,8.0,3477,1001,feet,jsons/v1_VE1000_randls_20_rotated.json,703363,793186,48,Woman
146,332849,DepthScenes,duration_manipulation_targetAtFixation,jsons/v1_VE1000_randls_20_rotated.json,http://54.235.29.9/FacialAge/BNav_EC2/DepthDuration/v2_depth_duration_MTurk/v2_DepthDuration_HTML.html#103,103,1364,625,1364,768,8-22-2022,8-33-49,147,depth_duration_stimuli/001059_2014-06-08_21-53-27_260595134347_rgbf000061-resize_4/001059_2014-06-08_21-53-27_260595134347_rgbf000061-resize_4-target.png,1000,2.4185,8.0,3531,999,feet,jsons/v1_VE1000_randls_20_rotated.json,703363,793186,48,Woman
147,332849,DepthScenes,duration_manipulation_targetAtFixation,jsons/v1_VE1000_randls_20_rotated.json,http://54.235.29.9/FacialAge/BNav_EC2/DepthDuration/v2_depth_duration_MTurk/v2_DepthDuration_HTML.html#103,103,1364,625,1364,768,8-22-2022,8-33-49,148,depth_duration_stimuli/000502_2014-06-08_23-02-32_260595134347_rgbf000063-resize_4/000502_2014-06-08_23-02-32_260595134347_rgbf000063-resize_4-target.png,1000,2.431,9.0,3352,1000,feet,jsons/v1_VE1000_randls_20_rotated.json,703363,793186,48,Woman
148,332849,DepthScenes,duration_manipulation_targetAtFixation,jsons/v1_VE1000_randls_20_rotated.json,http://54.235.29.9/FacialAge/BNav_EC2/DepthDuration/v2_depth_duration_MTurk/v2_DepthDuration_HTML.html#103,103,1364,625,1364,768,8-22-2022,8-33-49,149,depth_duration_stimuli/001199_2014-06-17_16-03-48_260595134347_rgbf000077-resize_0/001199_2014-06-17_16-03-48_260595134347_rgbf000077-resize_0-target.png,1000,3.4375,10.0,4332,1000,feet,jsons/v1_VE1000_randls_20_rotated.json,703363,793186,48,Woman
149,332849,DepthScenes,duration_manipulation_targetAtFixation,jsons/v1_VE1000_randls_20_rotated.json,http://54.235.29.9/FacialAge/BNav_EC2/DepthDuration/v2_depth_duration_MTurk/v2_DepthDuration_HTML.html#103,103,1364,625,1364,768,8-22-2022,8-33-49,150,depth_duration_stimuli/001516_2014-06-20_16-25-09_260595134347_rgbf000076-resize_2/001516_2014-06-20_16-25-09_260595134347_rgbf000076-resize_2-target.png,1000,1.7445,8.0,3557,1000,feet,jsons/v1_VE1000_randls_20_rotated.json,703363,793186,48,Woman
150,332849,DepthScenes,duration_manipulation_targetAtFixation,jsons/v1_VE1000_randls_20_rotated.json,http://54.235.29.9/FacialAge/BNav_EC2/DepthDuration/v2_depth_duration_MTurk/v2_DepthDuration_HTML.html#103,103,1364,625,1364,768,8-22-2022,8-33-49,151,depth_duration_stimuli/002118_2014-06-25_20-32-08_260595134347_rgbf000078-resize_1/002118_2014-06-25_20-32-08_260595134347_rgbf000078-resize_1-target.png,1000,2.6460000000000004,9.0,3377,998,feet,jsons/v1_VE1000_randls_20_rotated.json,703363,793186,48,Woman
151,332849,DepthScenes,duration_manipulation_targetAtFixation,jsons/v1_VE1000_randls_20_rotated.json,http://54.235.29.9/FacialAge/BNav_EC2/DepthDuration/v2_depth_duration_MTurk/v2_DepthDuration_HTML.html#103,103,1364,625,1364,768,8-22-2022,8-33-49,152,depth_duration_stimuli/000569_2014-06-09_22-51-47_260595134347_rgbf000141-resize_3/000569_2014-06-09_22-51-47_260595134347_rgbf000141-resize-original.jpg,1000,4.512,8.0,3291,1000,feet,jsons/v1_VE1000_randls_20_rotated.json,703363,793186,48,Woman
152,332849,DepthScenes,duration_manipulation_targetAtFixation,jsons/v1_VE1000_randls_20_rotated.json,http://54.235.29.9/FacialAge/BNav_EC2/DepthDuration/v2_depth_duration_MTurk/v2_DepthDuration_HTML.html#103,103,1364,625,1364,768,8-22-2022,8-33-49,153,depth_duration_stimuli/001100_2014-06-15_17-46-26_260595134347_rgbf000225-resize_2/001100_2014-06-15_17-46-26_260595134347_rgbf000225-resize_2-target.png,1000,2.24,9.0,2923,1001,feet,jsons/v1_VE1000_randls_20_rotated.json,703363,793186,48,Woman
153,332849,DepthScenes,duration_manipulation_targetAtFixation,jsons/v1_VE1000_randls_20_rotated.json,http://54.235.29.9/FacialAge/BNav_EC2/DepthDuration/v2_depth_duration_MTurk/v2_DepthDuration_HTML.html#103,103,1364,625,1364,768,8-22-2022,8-33-49,154,depth_duration_stimuli/002784_2014-06-22_19-26-30_094959634447_rgbf000083-resize_3/002784_2014-06-22_19-26-30_094959634447_rgbf000083-resize_3-target.png,1000,1.8046666666667,8.0,3116,999,feet,jsons/v1_VE1000_randls_20_rotated.json,703363,793186,48,Woman
154,332849,DepthScenes,duration_manipulation_targetAtFixation,jsons/v1_VE1000_randls_20_rotated.json,http://54.235.29.9/FacialAge/BNav_EC2/DepthDuration/v2_depth_duration_MTurk/v2_DepthDuration_HTML.html#103,103,1364,625,1364,768,8-22-2022,8-33-49,155,depth_duration_stimuli/003587_2014-05-23_16-48-02_094959634447_rgbf002384-resize_2/003587_2014-05-23_16-48-02_094959634447_rgbf002384-resize_2-target.png,1000,1.357,9.0,3243,999,feet,jsons/v1_VE1000_randls_20_rotated.json,703363,793186,48,Woman
155,332849,DepthScenes,duration_manipulation_targetAtFixation,jsons/v1_VE1000_randls_20_rotated.json,http://54.235.29.9/FacialAge/BNav_EC2/DepthDuration/v2_depth_duration_MTurk/v2_DepthDuration_HTML.html#103,103,1364,625,1364,768,8-22-2022,8-33-49,156,depth_duration_stimuli/001167_2014-06-17_15-38-07_260595134347_rgbf000108-resize_0/001167_2014-06-17_15-38-07_260595134347_rgbf000108-resize_0-target.png,1000,1.8505,0.0,4097,999,feet,jsons/v1_VE1000_randls_20_rotated.json,703363,793186,48,Woman
156,332849,DepthScenes,duration_manipulation_targetAtFixation,jsons/v1_VE1000_randls_20_rotated.json,http://54.235.29.9/FacialAge/BNav_EC2/DepthDuration/v2_depth_duration_MTurk/v2_DepthDuration_HTML.html#103,103,1364,625,1364,768,8-22-2022,8-33-49,157,depth_duration_stimuli/002949_2014-06-26_15-57-42_094959634447_rgbf000079-resize_1/002949_2014-06-26_15-57-42_094959634447_rgbf000079-resize_1-target.png,1000,1.8915,0.0,4131,998,feet,jsons/v1_VE1000_randls_20_rotated.json,703363,793186,48,Woman
157,332849,DepthScenes,duration_manipulation_targetAtFixation,jsons/v1_VE1000_randls_20_rotated.json,http://54.235.29.9/FacialAge/BNav_EC2/DepthDuration/v2_depth_duration_MTurk/v2_DepthDuration_HTML.html#103,103,1364,625,1364,768,8-22-2022,8-33-49,158,depth_duration_stimuli/000522_2014-06-08_13-35-06_260595134347_rgbf000244-resize_1/000522_2014-06-08_13-35-06_260595134347_rgbf000244-resize_1-target.png,1000,2.3715,0.0,3202,999,feet,jsons/v1_VE1000_randls_20_rotated.json,703363,793186,48,Woman
158,332849,DepthScenes,duration_manipulation_targetAtFixation,jsons/v1_VE1000_randls_20_rotated.json,http://54.235.29.9/FacialAge/BNav_EC2/DepthDuration/v2_depth_duration_MTurk/v2_DepthDuration_HTML.html#103,103,1364,625,1364,768,8-22-2022,8-33-49,159,depth_duration_stimuli/002758_2014-06-22_19-11-20_094959634447_rgbf000128-resize_1/002758_2014-06-22_19-11-20_094959634447_rgbf000128-resize_1-target.png,1000,2.555,0.0,3866,999,feet,jsons/v1_VE1000_randls_20_rotated.json,703363,793186,48,Woman
159,332849,DepthScenes,duration_manipulation_targetAtFixation,jsons/v1_VE1000_randls_20_rotated.json,http://54.235.29.9/FacialAge/BNav_EC2/DepthDuration/v2_depth_duration_MTurk/v2_DepthDuration_HTML.html#103,103,1364,625,1364,768,8-22-2022,8-33-49,160,depth_duration_stimuli/002630_2014-06-24_14-47-50_094959634447_rgbf000055-resize_1/002630_2014-06-24_14-47-50_094959634447_rgbf000055-resize_1-target.png,1000,3.0095,10.0,3563,1000,feet,jsons/v1_VE1000_randls_20_rotated.json,703363,793186,48,Woman
160,332849,DepthScenes,duration_manipulation_targetAtFixation,jsons/v1_VE1000_randls_20_rotated.json,http://54.235.29.9/FacialAge/BNav_EC2/DepthDuration/v2_depth_duration_MTurk/v2_DepthDuration_HTML.html#103,103,1364,625,1364,768,8-22-2022,8-33-49,161,depth_duration_stimuli/003048_2014-06-15_13-49-43_094959634447_rgbf000150-resize_1/003048_2014-06-15_13-49-43_094959634447_rgbf000150-resize_1-target.png,1000,4.0035,5.0,3570,999,feet,jsons/v1_VE1000_randls_20_rotated.json,703363,793186,48,Woman
161,332849,DepthScenes,duration_manipulation_targetAtFixation,jsons/v1_VE1000_randls_20_rotated.json,http://54.235.29.9/FacialAge/BNav_EC2/DepthDuration/v2_depth_duration_MTurk/v2_DepthDuration_HTML.html#103,103,1364,625,1364,768,8-22-2022,8-33-49,162,depth_duration_stimuli/002043_2014-06-24_20-29-38_260595134347_rgbf000039-resize_4/002043_2014-06-24_20-29-38_260595134347_rgbf000039-resize_4-target.png,1000,2.8435,9.0,2970,1000,feet,jsons/v1_VE1000_randls_20_rotated.json,703363,793186,48,Woman
162,332849,DepthScenes,duration_manipulation_targetAtFixation,jsons/v1_VE1000_randls_20_rotated.json,http://54.235.29.9/FacialAge/BNav_EC2/DepthDuration/v2_depth_duration_MTurk/v2_DepthDuration_HTML.html#103,103,1364,625,1364,768,8-22-2022,8-33-49,163,depth_duration_stimuli/001136_2014-06-17_15-19-41_260595134347_rgbf000076-resize_3/001136_2014-06-17_15-19-41_260595134347_rgbf000076-resize_3-target.png,1000,1.8655,8.0,3493,999,feet,jsons/v1_VE1000_randls_20_rotated.json,703363,793186,48,Woman
163,332849,DepthScenes,duration_manipulation_targetAtFixation,jsons/v1_VE1000_randls_20_rotated.json,http://54.235.29.9/FacialAge/BNav_EC2/DepthDuration/v2_depth_duration_MTurk/v2_DepthDuration_HTML.html#103,103,1364,625,1364,768,8-22-2022,8-33-49,164,depth_duration_stimuli/001164_2014-06-17_15-35-46_260595134347_rgbf000085-resize_3/001164_2014-06-17_15-35-46_260595134347_rgbf000085-resize_3-target.png,1000,2.354,53.0,4184,999,feet,jsons/v1_VE1000_randls_20_rotated.json,703363,793186,48,Woman
