,subjID,experimentName,versionName,sequenceName,url,selected_row,windowWidth,windowHeight,screenWidth,screenHeight,startDate,startTime,trial,stimulus,duration,actual_depth,depth_estimate,trial_RT,log_sceneDuration,unitSelection,seq_filepath,experimentTime,totalTime,age,gender
0,334008,DepthScenes,duration_manipulation_targetAtFixation,jsons/v1_VE250_randls_0_rotated.json,http://54.235.29.9/FacialAge/BNav_EC2/DepthDuration/v2_depth_duration_MTurk/v2_DepthDuration_HTML.html#150,150,1440,789,1440,900,8-20-2022,11-1-13,1,depth_duration_stimuli/000854_2014-06-09_19-43-13_260595134347_rgbf000066-resize_0/000854_2014-06-09_19-43-13_260595134347_rgbf000066-resize_0-target.png,250,3.068,41.0,3923,251,feet,jsons/v1_VE250_randls_0_rotated.json,582692,701519,38,Man
1,334008,DepthScenes,duration_manipulation_targetAtFixation,jsons/v1_VE250_randls_0_rotated.json,http://54.235.29.9/FacialAge/BNav_EC2/DepthDuration/v2_depth_duration_MTurk/v2_DepthDuration_HTML.html#150,150,1440,789,1440,900,8-20-2022,11-1-13,2,depth_duration_stimuli/000758_2014-06-08_22-05-08_260595134347_rgbf000085-resize_0/000758_2014-06-08_22-05-08_260595134347_rgbf000085-resize_0-target.png,250,3.3810000000000002,69.0,3632,249,feet,jsons/v1_VE250_randls_0_rotated.json,582692,701519,38,Man
2,334008,DepthScenes,duration_manipulation_targetAtFixation,jsons/v1_VE250_randls_0_rotated.json,http://54.235.29.9/FacialAge/BNav_EC2/DepthDuration/v2_depth_duration_MTurk/v2_DepthDuration_HTML.html#150,150,1440,789,1440,900,8-20-2022,11-1-13,3,depth_duration_stimuli/002103_2014-06-25_20-00-40_260595134347_rgbf000049-resize_0/002103_2014-06-25_20-00-40_260595134347_rgbf000049-resize_0-target.png,250,4.105,78.0,3873,248,feet,jsons/v1_VE250_randls_0_rotated.json,582692,701519,38,Man
3,334008,DepthScenes,duration_manipulation_targetAtFixation,jsons/v1_VE250_randls_0_rotated.json,http://54.235.29.9/FacialAge/BNav_EC2/DepthDuration/v2_depth_duration_MTurk/v2_DepthDuration_HTML.html#150,150,1440,789,1440,900,8-20-2022,11-1-13,4,depth_duration_stimuli/002039_2014-06-24_20-22-38_260595134347_rgbf000084-resize_1/002039_2014-06-24_20-22-38_260595134347_rgbf000084-resize_1-target.png,250,4.408,10.0,3698,250,feet,jsons/v1_VE250_randls_0_rotated.json,582692,701519,38,Man
4,334008,DepthScenes,duration_manipulation_targetAtFixation,jsons/v1_VE250_randls_0_rotated.json,http://54.235.29.9/FacialAge/BNav_EC2/DepthDuration/v2_depth_duration_MTurk/v2_DepthDuration_HTML.html#150,150,1440,789,1440,900,8-20-2022,11-1-13,5,depth_duration_stimuli/000742_2014-06-08_18-48-09_260595134347_rgbf000164-resize_4/000742_2014-06-08_18-48-09_260595134347_rgbf000164-resize_4-target.png,250,4.632,56.0,2833,250,feet,jsons/v1_VE250_randls_0_rotated.json,582692,701519,38,Man
5,334008,DepthScenes,duration_manipulation_targetAtFixation,jsons/v1_VE250_randls_0_rotated.json,http://54.235.29.9/FacialAge/BNav_EC2/DepthDuration/v2_depth_duration_MTurk/v2_DepthDuration_HTML.html#150,150,1440,789,1440,900,8-20-2022,11-1-13,6,depth_duration_stimuli/001066_2014-06-08_22-03-20_260595134347_rgbf000066-resize_4/001066_2014-06-08_22-03-20_260595134347_rgbf000066-resize_4-target.png,250,4.2330000000000005,54.0,3104,249,feet,jsons/v1_VE250_randls_0_rotated.json,582692,701519,38,Man
6,334008,DepthScenes,duration_manipulation_targetAtFixation,jsons/v1_VE250_randls_0_rotated.json,http://54.235.29.9/FacialAge/BNav_EC2/DepthDuration/v2_depth_duration_MTurk/v2_DepthDuration_HTML.html#150,150,1440,789,1440,900,8-20-2022,11-1-13,7,depth_duration_stimuli/002568_2014-06-24_13-59-21_094959634447_rgbf000062-resize_4/002568_2014-06-24_13-59-21_094959634447_rgbf000062-resize_4-target.png,250,3.015,31.0,2786,249,feet,jsons/v1_VE250_randls_0_rotated.json,582692,701519,38,Man
7,334008,DepthScenes,duration_manipulation_targetAtFixation,jsons/v1_VE250_randls_0_rotated.json,http://54.235.29.9/FacialAge/BNav_EC2/DepthDuration/v2_depth_duration_MTurk/v2_DepthDuration_HTML.html#150,150,1440,789,1440,900,8-20-2022,11-1-13,8,depth_duration_stimuli/003492_2014-05-21_15-50-55_094959634447_rgbf000828-resize_1/003492_2014-05-21_15-50-55_094959634447_rgbf000828-resize_1-target.png,250,4.06875,74.0,3404,250,feet,jsons/v1_VE250_randls_0_rotated.json,582692,701519,38,Man
8,334008,DepthScenes,duration_manipulation_targetAtFixation,jsons/v1_VE250_randls_0_rotated.json,http://54.235.29.9/FacialAge/BNav_EC2/DepthDuration/v2_depth_duration_MTurk/v2_DepthDuration_HTML.html#150,150,1440,789,1440,900,8-20-2022,11-1-13,9,depth_duration_stimuli/002637_2014-06-24_14-51-13_094959634447_rgbf000066-resize_4/002637_2014-06-24_14-51-13_094959634447_rgbf000066-resize_4-target.png,250,1.9955,58.0,4776,247,feet,jsons/v1_VE250_randls_0_rotated.json,582692,701519,38,Man
9,334008,DepthScenes,duration_manipulation_targetAtFixation,jsons/v1_VE250_randls_0_rotated.json,http://54.235.29.9/FacialAge/BNav_EC2/DepthDuration/v2_depth_duration_MTurk/v2_DepthDuration_HTML.html#150,150,1440,789,1440,900,8-20-2022,11-1-13,10,depth_duration_stimuli/003534_2014-05-22_15-06-10_094959634447_rgbf000102-resize_4/003534_2014-05-22_15-06-10_094959634447_rgbf000102-resize_4-target.png,250,1.426,54.0,2890,240,feet,jsons/v1_VE250_randls_0_rotated.json,582692,701519,38,Man
10,334008,DepthScenes,duration_manipulation_targetAtFixation,jsons/v1_VE250_randls_0_rotated.json,http://54.235.29.9/FacialAge/BNav_EC2/DepthDuration/v2_depth_duration_MTurk/v2_DepthDuration_HTML.html#150,150,1440,789,1440,900,8-20-2022,11-1-13,11,depth_duration_stimuli/000556_2014-06-09_22-42-56_260595134347_rgbf000214-resize_1/000556_2014-06-09_22-42-56_260595134347_rgbf000214-resize_1-target.png,250,4.8415,25.0,2674,248,feet,jsons/v1_VE250_randls_0_rotated.json,582692,701519,38,Man
11,334008,DepthScenes,duration_manipulation_targetAtFixation,jsons/v1_VE250_randls_0_rotated.json,http://54.235.29.9/FacialAge/BNav_EC2/DepthDuration/v2_depth_duration_MTurk/v2_DepthDuration_HTML.html#150,150,1440,789,1440,900,8-20-2022,11-1-13,12,depth_duration_stimuli/001158_2014-06-17_15-32-16_260595134347_rgbf000138-resize_2/001158_2014-06-17_15-32-16_260595134347_rgbf000138-resize_2-target.png,250,4.5315,20.0,2732,250,feet,jsons/v1_VE250_randls_0_rotated.json,582692,701519,38,Man
12,334008,DepthScenes,duration_manipulation_targetAtFixation,jsons/v1_VE250_randls_0_rotated.json,http://54.235.29.9/FacialAge/BNav_EC2/DepthDuration/v2_depth_duration_MTurk/v2_DepthDuration_HTML.html#150,150,1440,789,1440,900,8-20-2022,11-1-13,13,depth_duration_stimuli/002545_2014-06-24_13-38-53_094959634447_rgbf000080-resize_4/002545_2014-06-24_13-38-53_094959634447_rgbf000080-resize_4-target.png,250,1.9205,14.0,2810,249,feet,jsons/v1_VE250_randls_0_rotated.json,582692,701519,38,Man
13,334008,DepthScenes,duration_manipulation_targetAtFixation,jsons/v1_VE250_randls_0_rotated.json,http://54.235.29.9/FacialAge/BNav_EC2/DepthDuration/v2_depth_duration_MTurk/v2_DepthDuration_HTML.html#150,150,1440,789,1440,900,8-20-2022,11-1-13,14,depth_duration_stimuli/001092_2014-06-15_17-34-58_260595134347_rgbf000171-resize_3/001092_2014-06-15_17-34-58_260595134347_rgbf000171-resize_3-target.png,250,2.6935,66.0,2314,249,feet,jsons/v1_VE250_randls_0_rotated.json,582692,701519,38,Man
14,334008,DepthScenes,duration_manipulation_targetAtFixation,jsons/v1_VE250_randls_0_rotated.json,http://54.235.29.9/FacialAge/BNav_EC2/DepthDuration/v2_depth_duration_MTurk/v2_DepthDuration_HTML.html#150,150,1440,789,1440,900,8-20-2022,11-1-13,15,depth_duration_stimuli/000191_2014-05-12_17-07-38_260595134347_rgbf000199-resize_0/000191_2014-05-12_17-07-38_260595134347_rgbf000199-resize_0-target.png,250,3.7995,41.0,2842,249,feet,jsons/v1_VE250_randls_0_rotated.json,582692,701519,38,Man
15,334008,DepthScenes,duration_manipulation_targetAtFixation,jsons/v1_VE250_randls_0_rotated.json,http://54.235.29.9/FacialAge/BNav_EC2/DepthDuration/v2_depth_duration_MTurk/v2_DepthDuration_HTML.html#150,150,1440,789,1440,900,8-20-2022,11-1-13,16,depth_duration_stimuli/000493_2014-06-09_21-01-18_260595134347_rgbf000196-resize_3/000493_2014-06-09_21-01-18_260595134347_rgbf000196-resize_3-target.png,250,3.44,34.0,2891,250,feet,jsons/v1_VE250_randls_0_rotated.json,582692,701519,38,Man
16,334008,DepthScenes,duration_manipulation_targetAtFixation,jsons/v1_VE250_randls_0_rotated.json,http://54.235.29.9/FacialAge/BNav_EC2/DepthDuration/v2_depth_duration_MTurk/v2_DepthDuration_HTML.html#150,150,1440,789,1440,900,8-20-2022,11-1-13,17,depth_duration_stimuli/002444_2014-06-28_20-32-08_260595134347_rgbf000027-resize_0/002444_2014-06-28_20-32-08_260595134347_rgbf000027-resize_0-target.png,250,4.388999999999999,78.0,2746,249,feet,jsons/v1_VE250_randls_0_rotated.json,582692,701519,38,Man
17,334008,DepthScenes,duration_manipulation_targetAtFixation,jsons/v1_VE250_randls_0_rotated.json,http://54.235.29.9/FacialAge/BNav_EC2/DepthDuration/v2_depth_duration_MTurk/v2_DepthDuration_HTML.html#150,150,1440,789,1440,900,8-20-2022,11-1-13,18,depth_duration_stimuli/000436_2014-06-09_22-25-11_260595134347_rgbf000137-resize_1/000436_2014-06-09_22-25-11_260595134347_rgbf000137-resize_1-target.png,250,4.0705,10.0,2595,249,feet,jsons/v1_VE250_randls_0_rotated.json,582692,701519,38,Man
18,334008,DepthScenes,duration_manipulation_targetAtFixation,jsons/v1_VE250_randls_0_rotated.json,http://54.235.29.9/FacialAge/BNav_EC2/DepthDuration/v2_depth_duration_MTurk/v2_DepthDuration_HTML.html#150,150,1440,789,1440,900,8-20-2022,11-1-13,19,depth_duration_stimuli/001498_2014-06-19_17-45-14_260595134347_rgbf000129-resize_4/001498_2014-06-19_17-45-14_260595134347_rgbf000129-resize-original.jpg,250,1.4075,0.0,2330,251,feet,jsons/v1_VE250_randls_0_rotated.json,582692,701519,38,Man
19,334008,DepthScenes,duration_manipulation_targetAtFixation,jsons/v1_VE250_randls_0_rotated.json,http://54.235.29.9/FacialAge/BNav_EC2/DepthDuration/v2_depth_duration_MTurk/v2_DepthDuration_HTML.html#150,150,1440,789,1440,900,8-20-2022,11-1-13,20,depth_duration_stimuli/000109_2014-05-14_23-41-52_260595134347_rgbf000035-resize_9/000109_2014-05-14_23-41-52_260595134347_rgbf000035-resize_9-target.png,250,1.3545,78.0,2714,250,feet,jsons/v1_VE250_randls_0_rotated.json,582692,701519,38,Man
20,334008,DepthScenes,duration_manipulation_targetAtFixation,jsons/v1_VE250_randls_0_rotated.json,http://54.235.29.9/FacialAge/BNav_EC2/DepthDuration/v2_depth_duration_MTurk/v2_DepthDuration_HTML.html#150,150,1440,789,1440,900,8-20-2022,11-1-13,21,depth_duration_stimuli/000470_2014-06-09_19-42-40_260595134347_rgbf000094-resize_1/000470_2014-06-09_19-42-40_260595134347_rgbf000094-resize_1-target.png,250,1.831,80.0,3947,250,feet,jsons/v1_VE250_randls_0_rotated.json,582692,701519,38,Man
21,334008,DepthScenes,duration_manipulation_targetAtFixation,jsons/v1_VE250_randls_0_rotated.json,http://54.235.29.9/FacialAge/BNav_EC2/DepthDuration/v2_depth_duration_MTurk/v2_DepthDuration_HTML.html#150,150,1440,789,1440,900,8-20-2022,11-1-13,22,depth_duration_stimuli/002414_2014-06-28_20-24-58_260595134347_rgbf000067-resize_4/002414_2014-06-28_20-24-58_260595134347_rgbf000067-resize_4-target.png,250,4.363,52.0,2523,250,feet,jsons/v1_VE250_randls_0_rotated.json,582692,701519,38,Man
22,334008,DepthScenes,duration_manipulation_targetAtFixation,jsons/v1_VE250_randls_0_rotated.json,http://54.235.29.9/FacialAge/BNav_EC2/DepthDuration/v2_depth_duration_MTurk/v2_DepthDuration_HTML.html#150,150,1440,789,1440,900,8-20-2022,11-1-13,23,depth_duration_stimuli/000773_2014-06-08_22-24-54_260595134347_rgbf000093-resize_1/000773_2014-06-08_22-24-54_260595134347_rgbf000093-resize_1-target.png,250,4.973,25.0,3075,249,feet,jsons/v1_VE250_randls_0_rotated.json,582692,701519,38,Man
23,334008,DepthScenes,duration_manipulation_targetAtFixation,jsons/v1_VE250_randls_0_rotated.json,http://54.235.29.9/FacialAge/BNav_EC2/DepthDuration/v2_depth_duration_MTurk/v2_DepthDuration_HTML.html#150,150,1440,789,1440,900,8-20-2022,11-1-13,24,depth_duration_stimuli/000927_2014-06-09_16-32-30_260595134347_rgbf000123-resize_3/000927_2014-06-09_16-32-30_260595134347_rgbf000123-resize_3-target.png,250,2.6785,54.0,7506,249,feet,jsons/v1_VE250_randls_0_rotated.json,582692,701519,38,Man
24,334008,DepthScenes,duration_manipulation_targetAtFixation,jsons/v1_VE250_randls_0_rotated.json,http://54.235.29.9/FacialAge/BNav_EC2/DepthDuration/v2_depth_duration_MTurk/v2_DepthDuration_HTML.html#150,150,1440,789,1440,900,8-20-2022,11-1-13,25,depth_duration_stimuli/001110_2014-06-15_17-25-28_260595134347_rgbf000150-resize_1/001110_2014-06-15_17-25-28_260595134347_rgbf000150-resize_1-target.png,250,1.7115,21.0,5826,250,feet,jsons/v1_VE250_randls_0_rotated.json,582692,701519,38,Man
25,334008,DepthScenes,duration_manipulation_targetAtFixation,jsons/v1_VE250_randls_0_rotated.json,http://54.235.29.9/FacialAge/BNav_EC2/DepthDuration/v2_depth_duration_MTurk/v2_DepthDuration_HTML.html#150,150,1440,789,1440,900,8-20-2022,11-1-13,26,depth_duration_stimuli/000665_2014-06-09_20-42-35_260595134347_rgbf000110-resize_1/000665_2014-06-09_20-42-35_260595134347_rgbf000110-resize_1-target.png,250,3.057,68.0,6826,250,feet,jsons/v1_VE250_randls_0_rotated.json,582692,701519,38,Man
26,334008,DepthScenes,duration_manipulation_targetAtFixation,jsons/v1_VE250_randls_0_rotated.json,http://54.235.29.9/FacialAge/BNav_EC2/DepthDuration/v2_depth_duration_MTurk/v2_DepthDuration_HTML.html#150,150,1440,789,1440,900,8-20-2022,11-1-13,27,depth_duration_stimuli/001150_2014-06-17_15-27-34_260595134347_rgbf000108-resize_2/001150_2014-06-17_15-27-34_260595134347_rgbf000108-resize_2-target.png,250,4.0325,20.0,4291,252,feet,jsons/v1_VE250_randls_0_rotated.json,582692,701519,38,Man
27,334008,DepthScenes,duration_manipulation_targetAtFixation,jsons/v1_VE250_randls_0_rotated.json,http://54.235.29.9/FacialAge/BNav_EC2/DepthDuration/v2_depth_duration_MTurk/v2_DepthDuration_HTML.html#150,150,1440,789,1440,900,8-20-2022,11-1-13,28,depth_duration_stimuli/002875_2014-06-01_15-19-00_094959634447_rgbf000151-resize_1/002875_2014-06-01_15-19-00_094959634447_rgbf000151-resize_1-target.png,250,1.9675,50.0,2698,249,feet,jsons/v1_VE250_randls_0_rotated.json,582692,701519,38,Man
28,334008,DepthScenes,duration_manipulation_targetAtFixation,jsons/v1_VE250_randls_0_rotated.json,http://54.235.29.9/FacialAge/BNav_EC2/DepthDuration/v2_depth_duration_MTurk/v2_DepthDuration_HTML.html#150,150,1440,789,1440,900,8-20-2022,11-1-13,29,depth_duration_stimuli/001011_2014-06-08_23-18-54_260595134347_rgbf000044-resize_4/001011_2014-06-08_23-18-54_260595134347_rgbf000044-resize_4-target.png,250,2.4730000000000003,47.0,3738,249,feet,jsons/v1_VE250_randls_0_rotated.json,582692,701519,38,Man
29,334008,DepthScenes,duration_manipulation_targetAtFixation,jsons/v1_VE250_randls_0_rotated.json,http://54.235.29.9/FacialAge/BNav_EC2/DepthDuration/v2_depth_duration_MTurk/v2_DepthDuration_HTML.html#150,150,1440,789,1440,900,8-20-2022,11-1-13,30,depth_duration_stimuli/002072_2014-06-24_21-48-06_260595134347_rgbf000115-resize_0/002072_2014-06-24_21-48-06_260595134347_rgbf000115-resize-original.jpg,250,4.702,25.0,3490,249,feet,jsons/v1_VE250_randls_0_rotated.json,582692,701519,38,Man
30,334008,DepthScenes,duration_manipulation_targetAtFixation,jsons/v1_VE250_randls_0_rotated.json,http://54.235.29.9/FacialAge/BNav_EC2/DepthDuration/v2_depth_duration_MTurk/v2_DepthDuration_HTML.html#150,150,1440,789,1440,900,8-20-2022,11-1-13,31,depth_duration_stimuli/000549_2014-06-08_22-10-24_260595134347_rgbf000247-resize_3/000549_2014-06-08_22-10-24_260595134347_rgbf000247-resize_3-target.png,250,1.841,20.0,6560,250,feet,jsons/v1_VE250_randls_0_rotated.json,582692,701519,38,Man
31,334008,DepthScenes,duration_manipulation_targetAtFixation,jsons/v1_VE250_randls_0_rotated.json,http://54.235.29.9/FacialAge/BNav_EC2/DepthDuration/v2_depth_duration_MTurk/v2_DepthDuration_HTML.html#150,150,1440,789,1440,900,8-20-2022,11-1-13,32,depth_duration_stimuli/001055_2014-06-08_18-45-35_260595134347_rgbf000111-resize_4/001055_2014-06-08_18-45-35_260595134347_rgbf000111-resize_4-target.png,250,2.4290000000000003,0.0,2435,249,feet,jsons/v1_VE250_randls_0_rotated.json,582692,701519,38,Man
32,334008,DepthScenes,duration_manipulation_targetAtFixation,jsons/v1_VE250_randls_0_rotated.json,http://54.235.29.9/FacialAge/BNav_EC2/DepthDuration/v2_depth_duration_MTurk/v2_DepthDuration_HTML.html#150,150,1440,789,1440,900,8-20-2022,11-1-13,33,depth_duration_stimuli/000502_2014-06-08_23-02-32_260595134347_rgbf000063-resize_4/000502_2014-06-08_23-02-32_260595134347_rgbf000063-resize_4-target.png,250,2.431,89.0,3097,248,feet,jsons/v1_VE250_randls_0_rotated.json,582692,701519,38,Man
33,334008,DepthScenes,duration_manipulation_targetAtFixation,jsons/v1_VE250_randls_0_rotated.json,http://54.235.29.9/FacialAge/BNav_EC2/DepthDuration/v2_depth_duration_MTurk/v2_DepthDuration_HTML.html#150,150,1440,789,1440,900,8-20-2022,11-1-13,34,depth_duration_stimuli/001199_2014-06-17_16-03-48_260595134347_rgbf000077-resize_0/001199_2014-06-17_16-03-48_260595134347_rgbf000077-resize_0-target.png,250,3.4375,87.0,3443,249,feet,jsons/v1_VE250_randls_0_rotated.json,582692,701519,38,Man
34,334008,DepthScenes,duration_manipulation_targetAtFixation,jsons/v1_VE250_randls_0_rotated.json,http://54.235.29.9/FacialAge/BNav_EC2/DepthDuration/v2_depth_duration_MTurk/v2_DepthDuration_HTML.html#150,150,1440,789,1440,900,8-20-2022,11-1-13,35,depth_duration_stimuli/003490_2014-05-21_15-50-11_094959634447_rgbf000101-resize_3/003490_2014-05-21_15-50-11_094959634447_rgbf000101-resize_3-target.png,250,3.6445,88.0,2738,250,feet,jsons/v1_VE250_randls_0_rotated.json,582692,701519,38,Man
35,334008,DepthScenes,duration_manipulation_targetAtFixation,jsons/v1_VE250_randls_0_rotated.json,http://54.235.29.9/FacialAge/BNav_EC2/DepthDuration/v2_depth_duration_MTurk/v2_DepthDuration_HTML.html#150,150,1440,789,1440,900,8-20-2022,11-1-13,36,depth_duration_stimuli/001175_2014-06-17_15-45-55_260595134347_rgbf000129-resize_4/001175_2014-06-17_15-45-55_260595134347_rgbf000129-resize_4-target.png,250,4.255,90.0,2762,249,feet,jsons/v1_VE250_randls_0_rotated.json,582692,701519,38,Man
36,334008,DepthScenes,duration_manipulation_targetAtFixation,jsons/v1_VE250_randls_0_rotated.json,http://54.235.29.9/FacialAge/BNav_EC2/DepthDuration/v2_depth_duration_MTurk/v2_DepthDuration_HTML.html#150,150,1440,789,1440,900,8-20-2022,11-1-13,37,depth_duration_stimuli/002949_2014-06-26_15-57-42_094959634447_rgbf000079-resize_1/002949_2014-06-26_15-57-42_094959634447_rgbf000079-resize_1-target.png,250,1.8915,0.0,2442,250,feet,jsons/v1_VE250_randls_0_rotated.json,582692,701519,38,Man
37,334008,DepthScenes,duration_manipulation_targetAtFixation,jsons/v1_VE250_randls_0_rotated.json,http://54.235.29.9/FacialAge/BNav_EC2/DepthDuration/v2_depth_duration_MTurk/v2_DepthDuration_HTML.html#150,150,1440,789,1440,900,8-20-2022,11-1-13,38,depth_duration_stimuli/000522_2014-06-08_13-35-06_260595134347_rgbf000244-resize_1/000522_2014-06-08_13-35-06_260595134347_rgbf000244-resize_1-target.png,250,2.3715,52.0,2539,248,feet,jsons/v1_VE250_randls_0_rotated.json,582692,701519,38,Man
38,334008,DepthScenes,duration_manipulation_targetAtFixation,jsons/v1_VE250_randls_0_rotated.json,http://54.235.29.9/FacialAge/BNav_EC2/DepthDuration/v2_depth_duration_MTurk/v2_DepthDuration_HTML.html#150,150,1440,789,1440,900,8-20-2022,11-1-13,39,depth_duration_stimuli/002340_2014-06-28_20-05-46_260595134347_rgbf000113-resize_0/002340_2014-06-28_20-05-46_260595134347_rgbf000113-resize_0-target.png,250,2.4735,100.0,2800,249,feet,jsons/v1_VE250_randls_0_rotated.json,582692,701519,38,Man
39,334008,DepthScenes,duration_manipulation_targetAtFixation,jsons/v1_VE250_randls_0_rotated.json,http://54.235.29.9/FacialAge/BNav_EC2/DepthDuration/v2_depth_duration_MTurk/v2_DepthDuration_HTML.html#150,150,1440,789,1440,900,8-20-2022,11-1-13,40,depth_duration_stimuli/001016_2014-06-09_16-16-10_260595134347_rgbf000112-resize_5/001016_2014-06-09_16-16-10_260595134347_rgbf000112-resize_5-target.png,250,1.6565,30.0,2395,250,feet,jsons/v1_VE250_randls_0_rotated.json,582692,701519,38,Man
40,334008,DepthScenes,duration_manipulation_targetAtFixation,jsons/v1_VE250_randls_0_rotated.json,http://54.235.29.9/FacialAge/BNav_EC2/DepthDuration/v2_depth_duration_MTurk/v2_DepthDuration_HTML.html#150,150,1440,789,1440,900,8-20-2022,11-1-13,41,depth_duration_stimuli/001100_2014-06-15_17-46-26_260595134347_rgbf000225-resize_2/001100_2014-06-15_17-46-26_260595134347_rgbf000225-resize_2-target.png,250,2.24,54.0,2810,249,feet,jsons/v1_VE250_randls_0_rotated.json,582692,701519,38,Man
41,334008,DepthScenes,duration_manipulation_targetAtFixation,jsons/v1_VE250_randls_0_rotated.json,http://54.235.29.9/FacialAge/BNav_EC2/DepthDuration/v2_depth_duration_MTurk/v2_DepthDuration_HTML.html#150,150,1440,789,1440,900,8-20-2022,11-1-13,42,depth_duration_stimuli/002784_2014-06-22_19-26-30_094959634447_rgbf000083-resize_3/002784_2014-06-22_19-26-30_094959634447_rgbf000083-resize_3-target.png,250,1.8046666666667,30.0,2507,250,feet,jsons/v1_VE250_randls_0_rotated.json,582692,701519,38,Man
42,334008,DepthScenes,duration_manipulation_targetAtFixation,jsons/v1_VE250_randls_0_rotated.json,http://54.235.29.9/FacialAge/BNav_EC2/DepthDuration/v2_depth_duration_MTurk/v2_DepthDuration_HTML.html#150,150,1440,789,1440,900,8-20-2022,11-1-13,43,depth_duration_stimuli/001235_2014-06-17_16-37-36_260595134347_rgbf000084-resize_4/001235_2014-06-17_16-37-36_260595134347_rgbf000084-resize_4-target.png,250,3.6605,45.0,2539,249,feet,jsons/v1_VE250_randls_0_rotated.json,582692,701519,38,Man
43,334008,DepthScenes,duration_manipulation_targetAtFixation,jsons/v1_VE250_randls_0_rotated.json,http://54.235.29.9/FacialAge/BNav_EC2/DepthDuration/v2_depth_duration_MTurk/v2_DepthDuration_HTML.html#150,150,1440,789,1440,900,8-20-2022,11-1-13,44,depth_duration_stimuli/000788_2014-06-08_22-34-36_260595134347_rgbf000131-resize_1/000788_2014-06-08_22-34-36_260595134347_rgbf000131-resize_1-target.png,250,3.359,30.0,2409,249,feet,jsons/v1_VE250_randls_0_rotated.json,582692,701519,38,Man
44,334008,DepthScenes,duration_manipulation_targetAtFixation,jsons/v1_VE250_randls_0_rotated.json,http://54.235.29.9/FacialAge/BNav_EC2/DepthDuration/v2_depth_duration_MTurk/v2_DepthDuration_HTML.html#150,150,1440,789,1440,900,8-20-2022,11-1-13,45,depth_duration_stimuli/002639_2014-06-24_14-51-37_094959634447_rgbf000074-resize_4/002639_2014-06-24_14-51-37_094959634447_rgbf000074-resize_4-target.png,250,4.0375,58.0,2436,249,feet,jsons/v1_VE250_randls_0_rotated.json,582692,701519,38,Man
45,334008,DepthScenes,duration_manipulation_targetAtFixation,jsons/v1_VE250_randls_0_rotated.json,http://54.235.29.9/FacialAge/BNav_EC2/DepthDuration/v2_depth_duration_MTurk/v2_DepthDuration_HTML.html#150,150,1440,789,1440,900,8-20-2022,11-1-13,46,depth_duration_stimuli/003292_2014-05-14_21-53-49_094959634447_rgbf000100-resize_2/003292_2014-05-14_21-53-49_094959634447_rgbf000100-resize_2-target.png,250,3.4815,65.0,2467,250,feet,jsons/v1_VE250_randls_0_rotated.json,582692,701519,38,Man
46,334008,DepthScenes,duration_manipulation_targetAtFixation,jsons/v1_VE250_randls_0_rotated.json,http://54.235.29.9/FacialAge/BNav_EC2/DepthDuration/v2_depth_duration_MTurk/v2_DepthDuration_HTML.html#150,150,1440,789,1440,900,8-20-2022,11-1-13,47,depth_duration_stimuli/003423_2014-05-21_10-23-26_094959634447_rgbf002665-resize_2/003423_2014-05-21_10-23-26_094959634447_rgbf002665-resize_2-target.png,250,3.2575,68.0,3362,250,feet,jsons/v1_VE250_randls_0_rotated.json,582692,701519,38,Man
47,334008,DepthScenes,duration_manipulation_targetAtFixation,jsons/v1_VE250_randls_0_rotated.json,http://54.235.29.9/FacialAge/BNav_EC2/DepthDuration/v2_depth_duration_MTurk/v2_DepthDuration_HTML.html#150,150,1440,789,1440,900,8-20-2022,11-1-13,48,depth_duration_stimuli/002905_2014-06-03_18-04-43_094959634447_rgbf000151-resize_2/002905_2014-06-03_18-04-43_094959634447_rgbf000151-resize_2-target.png,250,2.0295,0.0,2290,250,feet,jsons/v1_VE250_randls_0_rotated.json,582692,701519,38,Man
48,334008,DepthScenes,duration_manipulation_targetAtFixation,jsons/v1_VE250_randls_0_rotated.json,http://54.235.29.9/FacialAge/BNav_EC2/DepthDuration/v2_depth_duration_MTurk/v2_DepthDuration_HTML.html#150,150,1440,789,1440,900,8-20-2022,11-1-13,49,depth_duration_stimuli/001170_2014-06-17_15-43-44_260595134347_rgbf000096-resize_6/001170_2014-06-17_15-43-44_260595134347_rgbf000096-resize-original.jpg,250,1.1909999999999998,0.0,3482,250,feet,jsons/v1_VE250_randls_0_rotated.json,582692,701519,38,Man
49,334008,DepthScenes,duration_manipulation_targetAtFixation,jsons/v1_VE250_randls_0_rotated.json,http://54.235.29.9/FacialAge/BNav_EC2/DepthDuration/v2_depth_duration_MTurk/v2_DepthDuration_HTML.html#150,150,1440,789,1440,900,8-20-2022,11-1-13,50,depth_duration_stimuli/003048_2014-06-15_13-49-43_094959634447_rgbf000150-resize_1/003048_2014-06-15_13-49-43_094959634447_rgbf000150-resize_1-target.png,250,4.0035,87.0,2704,248,feet,jsons/v1_VE250_randls_0_rotated.json,582692,701519,38,Man
50,334008,DepthScenes,duration_manipulation_targetAtFixation,jsons/v1_VE250_randls_0_rotated.json,http://54.235.29.9/FacialAge/BNav_EC2/DepthDuration/v2_depth_duration_MTurk/v2_DepthDuration_HTML.html#150,150,1440,789,1440,900,8-20-2022,11-1-13,51,depth_duration_stimuli/002043_2014-06-24_20-29-38_260595134347_rgbf000039-resize_4/002043_2014-06-24_20-29-38_260595134347_rgbf000039-resize_4-target.png,250,2.8435,93.0,2578,249,feet,jsons/v1_VE250_randls_0_rotated.json,582692,701519,38,Man
51,334008,DepthScenes,duration_manipulation_targetAtFixation,jsons/v1_VE250_randls_0_rotated.json,http://54.235.29.9/FacialAge/BNav_EC2/DepthDuration/v2_depth_duration_MTurk/v2_DepthDuration_HTML.html#150,150,1440,789,1440,900,8-20-2022,11-1-13,52,depth_duration_stimuli/003129_2014-05-12_10-48-10_094959634447_rgbf000100-resize_0/003129_2014-05-12_10-48-10_094959634447_rgbf000100-resize_0-target.png,250,4.9305,85.0,2650,249,feet,jsons/v1_VE250_randls_0_rotated.json,582692,701519,38,Man
52,334008,DepthScenes,duration_manipulation_targetAtFixation,jsons/v1_VE250_randls_0_rotated.json,http://54.235.29.9/FacialAge/BNav_EC2/DepthDuration/v2_depth_duration_MTurk/v2_DepthDuration_HTML.html#150,150,1440,789,1440,900,8-20-2022,11-1-13,53,depth_duration_stimuli/000414_2014-06-04_19-49-13_260595134347_rgbf000044-resize_0/000414_2014-06-04_19-49-13_260595134347_rgbf000044-resize_0-target.png,250,4.329,14.0,2779,249,feet,jsons/v1_VE250_randls_0_rotated.json,582692,701519,38,Man
53,334008,DepthScenes,duration_manipulation_targetAtFixation,jsons/v1_VE250_randls_0_rotated.json,http://54.235.29.9/FacialAge/BNav_EC2/DepthDuration/v2_depth_duration_MTurk/v2_DepthDuration_HTML.html#150,150,1440,789,1440,900,8-20-2022,11-1-13,54,depth_duration_stimuli/003228_2014-05-14_13-42-35_094959634447_rgbf000101-resize_1/003228_2014-05-14_13-42-35_094959634447_rgbf000101-resize_1-target.png,250,1.9680000000000002,70.0,2320,249,feet,jsons/v1_VE250_randls_0_rotated.json,582692,701519,38,Man
54,334008,DepthScenes,duration_manipulation_targetAtFixation,jsons/v1_VE250_randls_0_rotated.json,http://54.235.29.9/FacialAge/BNav_EC2/DepthDuration/v2_depth_duration_MTurk/v2_DepthDuration_HTML.html#150,150,1440,789,1440,900,8-20-2022,11-1-13,55,depth_duration_stimuli/002600_2014-06-24_14-27-04_094959634447_rgbf000074-resize_2/002600_2014-06-24_14-27-04_094959634447_rgbf000074-resize_2-target.png,250,2.7575,35.0,2378,249,feet,jsons/v1_VE250_randls_0_rotated.json,582692,701519,38,Man
55,334008,DepthScenes,duration_manipulation_targetAtFixation,jsons/v1_VE250_randls_0_rotated.json,http://54.235.29.9/FacialAge/BNav_EC2/DepthDuration/v2_depth_duration_MTurk/v2_DepthDuration_HTML.html#150,150,1440,789,1440,900,8-20-2022,11-1-13,56,depth_duration_stimuli/000709_2014-06-08_13-51-55_260595134347_rgbf000068-resize_3/000709_2014-06-08_13-51-55_260595134347_rgbf000068-resize_3-target.png,250,1.8030000000000002,85.0,2465,249,feet,jsons/v1_VE250_randls_0_rotated.json,582692,701519,38,Man
56,334008,DepthScenes,duration_manipulation_targetAtFixation,jsons/v1_VE250_randls_0_rotated.json,http://54.235.29.9/FacialAge/BNav_EC2/DepthDuration/v2_depth_duration_MTurk/v2_DepthDuration_HTML.html#150,150,1440,789,1440,900,8-20-2022,11-1-13,57,depth_duration_stimuli/002057_2014-06-24_21-00-13_260595134347_rgbf000120-resize_1/002057_2014-06-24_21-00-13_260595134347_rgbf000120-resize_1-target.png,250,2.967,80.0,2315,249,feet,jsons/v1_VE250_randls_0_rotated.json,582692,701519,38,Man
57,334008,DepthScenes,duration_manipulation_targetAtFixation,jsons/v1_VE250_randls_0_rotated.json,http://54.235.29.9/FacialAge/BNav_EC2/DepthDuration/v2_depth_duration_MTurk/v2_DepthDuration_HTML.html#150,150,1440,789,1440,900,8-20-2022,11-1-13,58,depth_duration_stimuli/000483_2014-06-09_20-41-45_260595134347_rgbf000116-resize_4/000483_2014-06-09_20-41-45_260595134347_rgbf000116-resize_4-target.png,250,1.337,65.0,3874,249,feet,jsons/v1_VE250_randls_0_rotated.json,582692,701519,38,Man
58,334008,DepthScenes,duration_manipulation_targetAtFixation,jsons/v1_VE250_randls_0_rotated.json,http://54.235.29.9/FacialAge/BNav_EC2/DepthDuration/v2_depth_duration_MTurk/v2_DepthDuration_HTML.html#150,150,1440,789,1440,900,8-20-2022,11-1-13,59,depth_duration_stimuli/000469_2014-06-09_19-42-10_260595134347_rgbf000081-resize_1/000469_2014-06-09_19-42-10_260595134347_rgbf000081-resize_1-target.png,250,1.652,14.0,2530,250,feet,jsons/v1_VE250_randls_0_rotated.json,582692,701519,38,Man
59,334008,DepthScenes,duration_manipulation_targetAtFixation,jsons/v1_VE250_randls_0_rotated.json,http://54.235.29.9/FacialAge/BNav_EC2/DepthDuration/v2_depth_duration_MTurk/v2_DepthDuration_HTML.html#150,150,1440,789,1440,900,8-20-2022,11-1-13,60,depth_duration_stimuli/001516_2014-06-20_16-25-09_260595134347_rgbf000076-resize_2/001516_2014-06-20_16-25-09_260595134347_rgbf000076-resize_2-target.png,250,1.7445,75.0,2370,250,feet,jsons/v1_VE250_randls_0_rotated.json,582692,701519,38,Man
60,334008,DepthScenes,duration_manipulation_targetAtFixation,jsons/v1_VE250_randls_0_rotated.json,http://54.235.29.9/FacialAge/BNav_EC2/DepthDuration/v2_depth_duration_MTurk/v2_DepthDuration_HTML.html#150,150,1440,789,1440,900,8-20-2022,11-1-13,61,depth_duration_stimuli/002118_2014-06-25_20-32-08_260595134347_rgbf000078-resize_1/002118_2014-06-25_20-32-08_260595134347_rgbf000078-resize_1-target.png,250,2.6460000000000004,68.0,2625,250,feet,jsons/v1_VE250_randls_0_rotated.json,582692,701519,38,Man
61,334008,DepthScenes,duration_manipulation_targetAtFixation,jsons/v1_VE250_randls_0_rotated.json,http://54.235.29.9/FacialAge/BNav_EC2/DepthDuration/v2_depth_duration_MTurk/v2_DepthDuration_HTML.html#150,150,1440,789,1440,900,8-20-2022,11-1-13,62,depth_duration_stimuli/000691_2014-06-08_13-08-50_260595134347_rgbf000132-resize_3/000691_2014-06-08_13-08-50_260595134347_rgbf000132-resize_3-target.png,250,4.1530000000000005,70.0,2485,250,feet,jsons/v1_VE250_randls_0_rotated.json,582692,701519,38,Man
62,334008,DepthScenes,duration_manipulation_targetAtFixation,jsons/v1_VE250_randls_0_rotated.json,http://54.235.29.9/FacialAge/BNav_EC2/DepthDuration/v2_depth_duration_MTurk/v2_DepthDuration_HTML.html#150,150,1440,789,1440,900,8-20-2022,11-1-13,63,depth_duration_stimuli/002213_2014-06-28_18-37-58_260595134347_rgbf000055-resize_1/002213_2014-06-28_18-37-58_260595134347_rgbf000055-resize_1-target.png,250,3.62,25.0,3032,250,feet,jsons/v1_VE250_randls_0_rotated.json,582692,701519,38,Man
63,334008,DepthScenes,duration_manipulation_targetAtFixation,jsons/v1_VE250_randls_0_rotated.json,http://54.235.29.9/FacialAge/BNav_EC2/DepthDuration/v2_depth_duration_MTurk/v2_DepthDuration_HTML.html#150,150,1440,789,1440,900,8-20-2022,11-1-13,64,depth_duration_stimuli/003495_2014-05-21_16-01-51_094959634447_rgbf000100-resize_3/003495_2014-05-21_16-01-51_094959634447_rgbf000100-resize_3-target.png,250,1.6255,30.0,2635,249,feet,jsons/v1_VE250_randls_0_rotated.json,582692,701519,38,Man
64,334008,DepthScenes,duration_manipulation_targetAtFixation,jsons/v1_VE250_randls_0_rotated.json,http://54.235.29.9/FacialAge/BNav_EC2/DepthDuration/v2_depth_duration_MTurk/v2_DepthDuration_HTML.html#150,150,1440,789,1440,900,8-20-2022,11-1-13,65,depth_duration_stimuli/001244_2014-06-17_16-47-45_260595134347_rgbf000030-resize_4/001244_2014-06-17_16-47-45_260595134347_rgbf000030-resize_4-target.png,250,2.0425,68.0,2707,249,feet,jsons/v1_VE250_randls_0_rotated.json,582692,701519,38,Man
65,334008,DepthScenes,duration_manipulation_targetAtFixation,jsons/v1_VE250_randls_0_rotated.json,http://54.235.29.9/FacialAge/BNav_EC2/DepthDuration/v2_depth_duration_MTurk/v2_DepthDuration_HTML.html#150,150,1440,789,1440,900,8-20-2022,11-1-13,66,depth_duration_stimuli/001540_2014-06-20_17-01-05_260595134347_rgbf000086-resize_2/001540_2014-06-20_17-01-05_260595134347_rgbf000086-resize-original.jpg,250,1.459,0.0,2250,249,feet,jsons/v1_VE250_randls_0_rotated.json,582692,701519,38,Man
66,334008,DepthScenes,duration_manipulation_targetAtFixation,jsons/v1_VE250_randls_0_rotated.json,http://54.235.29.9/FacialAge/BNav_EC2/DepthDuration/v2_depth_duration_MTurk/v2_DepthDuration_HTML.html#150,150,1440,789,1440,900,8-20-2022,11-1-13,67,depth_duration_stimuli/001032_2014-06-08_13-23-17_260595134347_rgbf000021-resize_3/001032_2014-06-08_13-23-17_260595134347_rgbf000021-resize_3-target.png,250,3.2725,58.0,2498,249,feet,jsons/v1_VE250_randls_0_rotated.json,582692,701519,38,Man
67,334008,DepthScenes,duration_manipulation_targetAtFixation,jsons/v1_VE250_randls_0_rotated.json,http://54.235.29.9/FacialAge/BNav_EC2/DepthDuration/v2_depth_duration_MTurk/v2_DepthDuration_HTML.html#150,150,1440,789,1440,900,8-20-2022,11-1-13,68,depth_duration_stimuli/001059_2014-06-08_21-53-27_260595134347_rgbf000061-resize_4/001059_2014-06-08_21-53-27_260595134347_rgbf000061-resize_4-target.png,250,2.4185,60.0,2418,250,feet,jsons/v1_VE250_randls_0_rotated.json,582692,701519,38,Man
68,334008,DepthScenes,duration_manipulation_targetAtFixation,jsons/v1_VE250_randls_0_rotated.json,http://54.235.29.9/FacialAge/BNav_EC2/DepthDuration/v2_depth_duration_MTurk/v2_DepthDuration_HTML.html#150,150,1440,789,1440,900,8-20-2022,11-1-13,69,depth_duration_stimuli/000635_2014-06-08_16-38-42_260595134347_rgbf000106-resize_1/000635_2014-06-08_16-38-42_260595134347_rgbf000106-resize_1-target.png,250,2.074,78.0,2617,250,feet,jsons/v1_VE250_randls_0_rotated.json,582692,701519,38,Man
69,334008,DepthScenes,duration_manipulation_targetAtFixation,jsons/v1_VE250_randls_0_rotated.json,http://54.235.29.9/FacialAge/BNav_EC2/DepthDuration/v2_depth_duration_MTurk/v2_DepthDuration_HTML.html#150,150,1440,789,1440,900,8-20-2022,11-1-13,70,depth_duration_stimuli/002279_2014-06-28_18-55-32_260595134347_rgbf000040-resize_5/002279_2014-06-28_18-55-32_260595134347_rgbf000040-resize_5-target.png,250,1.5043333333333,89.0,2417,249,feet,jsons/v1_VE250_randls_0_rotated.json,582692,701519,38,Man
70,334008,DepthScenes,duration_manipulation_targetAtFixation,jsons/v1_VE250_randls_0_rotated.json,http://54.235.29.9/FacialAge/BNav_EC2/DepthDuration/v2_depth_duration_MTurk/v2_DepthDuration_HTML.html#150,150,1440,789,1440,900,8-20-2022,11-1-13,71,depth_duration_stimuli/001094_2014-06-15_17-36-00_260595134347_rgbf000205-resize_0/001094_2014-06-15_17-36-00_260595134347_rgbf000205-resize_0-target.png,250,4.2175,88.0,4178,250,feet,jsons/v1_VE250_randls_0_rotated.json,582692,701519,38,Man
71,334008,DepthScenes,duration_manipulation_targetAtFixation,jsons/v1_VE250_randls_0_rotated.json,http://54.235.29.9/FacialAge/BNav_EC2/DepthDuration/v2_depth_duration_MTurk/v2_DepthDuration_HTML.html#150,150,1440,789,1440,900,8-20-2022,11-1-13,72,depth_duration_stimuli/000692_2014-06-08_13-09-42_260595134347_rgbf000199-resize_2/000692_2014-06-08_13-09-42_260595134347_rgbf000199-resize_2-target.png,250,3.661,10.0,2621,249,feet,jsons/v1_VE250_randls_0_rotated.json,582692,701519,38,Man
72,334008,DepthScenes,duration_manipulation_targetAtFixation,jsons/v1_VE250_randls_0_rotated.json,http://54.235.29.9/FacialAge/BNav_EC2/DepthDuration/v2_depth_duration_MTurk/v2_DepthDuration_HTML.html#150,150,1440,789,1440,900,8-20-2022,11-1-13,73,depth_duration_stimuli/003010_2014-06-15_12-54-35_094959634447_rgbf000112-resize_0/003010_2014-06-15_12-54-35_094959634447_rgbf000112-resize_0-target.png,250,3.1185,0.0,2360,249,feet,jsons/v1_VE250_randls_0_rotated.json,582692,701519,38,Man
73,334008,DepthScenes,duration_manipulation_targetAtFixation,jsons/v1_VE250_randls_0_rotated.json,http://54.235.29.9/FacialAge/BNav_EC2/DepthDuration/v2_depth_duration_MTurk/v2_DepthDuration_HTML.html#150,150,1440,789,1440,900,8-20-2022,11-1-13,74,depth_duration_stimuli/001810_2014-06-26_20-51-35_260595134347_rgbf000040-resize_3/001810_2014-06-26_20-51-35_260595134347_rgbf000040-resize_3-target.png,250,2.2525,10.0,2817,249,feet,jsons/v1_VE250_randls_0_rotated.json,582692,701519,38,Man
74,334008,DepthScenes,duration_manipulation_targetAtFixation,jsons/v1_VE250_randls_0_rotated.json,http://54.235.29.9/FacialAge/BNav_EC2/DepthDuration/v2_depth_duration_MTurk/v2_DepthDuration_HTML.html#150,150,1440,789,1440,900,8-20-2022,11-1-13,75,depth_duration_stimuli/002805_2014-06-22_19-54-03_094959634447_rgbf000079-resize_1/002805_2014-06-22_19-54-03_094959634447_rgbf000079-resize_1-target.png,250,3.1439999999999997,5.0,2507,250,feet,jsons/v1_VE250_randls_0_rotated.json,582692,701519,38,Man
75,334008,DepthScenes,duration_manipulation_targetAtFixation,jsons/v1_VE250_randls_0_rotated.json,http://54.235.29.9/FacialAge/BNav_EC2/DepthDuration/v2_depth_duration_MTurk/v2_DepthDuration_HTML.html#150,150,1440,789,1440,900,8-20-2022,11-1-13,76,depth_duration_stimuli/000906_2014-06-08_13-35-43_260595134347_rgbf000155-resize_1/000906_2014-06-08_13-35-43_260595134347_rgbf000155-resize_1-target.png,250,2.8489999999999998,25.0,2986,248,feet,jsons/v1_VE250_randls_0_rotated.json,582692,701519,38,Man
76,334008,DepthScenes,duration_manipulation_targetAtFixation,jsons/v1_VE250_randls_0_rotated.json,http://54.235.29.9/FacialAge/BNav_EC2/DepthDuration/v2_depth_duration_MTurk/v2_DepthDuration_HTML.html#150,150,1440,789,1440,900,8-20-2022,11-1-13,77,depth_duration_stimuli/001584_2014-06-20_11-07-43_260595134347_rgbf000002-resize_1/001584_2014-06-20_11-07-43_260595134347_rgbf000002-resize_1-target.png,250,3.53,27.0,2859,249,feet,jsons/v1_VE250_randls_0_rotated.json,582692,701519,38,Man
77,334008,DepthScenes,duration_manipulation_targetAtFixation,jsons/v1_VE250_randls_0_rotated.json,http://54.235.29.9/FacialAge/BNav_EC2/DepthDuration/v2_depth_duration_MTurk/v2_DepthDuration_HTML.html#150,150,1440,789,1440,900,8-20-2022,11-1-13,78,depth_duration_stimuli/003621_2014-05-23_18-06-08_094959634447_rgbf000101-resize_1/003621_2014-05-23_18-06-08_094959634447_rgbf000101-resize_1-target.png,250,3.9835,28.0,2737,249,feet,jsons/v1_VE250_randls_0_rotated.json,582692,701519,38,Man
78,334008,DepthScenes,duration_manipulation_targetAtFixation,jsons/v1_VE250_randls_0_rotated.json,http://54.235.29.9/FacialAge/BNav_EC2/DepthDuration/v2_depth_duration_MTurk/v2_DepthDuration_HTML.html#150,150,1440,789,1440,900,8-20-2022,11-1-13,79,depth_duration_stimuli/000866_2014-06-09_20-45-42_260595134347_rgbf000139-resize_1/000866_2014-06-09_20-45-42_260595134347_rgbf000139-resize_1-target.png,250,3.2155,38.0,2642,249,feet,jsons/v1_VE250_randls_0_rotated.json,582692,701519,38,Man
79,334008,DepthScenes,duration_manipulation_targetAtFixation,jsons/v1_VE250_randls_0_rotated.json,http://54.235.29.9/FacialAge/BNav_EC2/DepthDuration/v2_depth_duration_MTurk/v2_DepthDuration_HTML.html#150,150,1440,789,1440,900,8-20-2022,11-1-13,80,depth_duration_stimuli/002989_2014-06-15_12-25-03_094959634447_rgbf000150-resize_3/002989_2014-06-15_12-25-03_094959634447_rgbf000150-resize_3-target.png,250,4.1975,98.0,4172,250,feet,jsons/v1_VE250_randls_0_rotated.json,582692,701519,38,Man
80,334008,DepthScenes,duration_manipulation_targetAtFixation,jsons/v1_VE250_randls_0_rotated.json,http://54.235.29.9/FacialAge/BNav_EC2/DepthDuration/v2_depth_duration_MTurk/v2_DepthDuration_HTML.html#150,150,1440,789,1440,900,8-20-2022,11-1-13,81,depth_duration_stimuli/002344_2014-06-28_20-06-29_260595134347_rgbf000030-resize_1/002344_2014-06-28_20-06-29_260595134347_rgbf000030-resize_1-target.png,250,1.5795,54.0,14252,251,feet,jsons/v1_VE250_randls_0_rotated.json,582692,701519,38,Man
81,334008,DepthScenes,duration_manipulation_targetAtFixation,jsons/v1_VE250_randls_0_rotated.json,http://54.235.29.9/FacialAge/BNav_EC2/DepthDuration/v2_depth_duration_MTurk/v2_DepthDuration_HTML.html#150,150,1440,789,1440,900,8-20-2022,11-1-13,82,depth_duration_stimuli/002725_2014-06-22_11-47-51_094959634447_rgbf000070-resize_1/002725_2014-06-22_11-47-51_094959634447_rgbf000070-resize_1-target.png,250,2.195,80.0,5785,249,feet,jsons/v1_VE250_randls_0_rotated.json,582692,701519,38,Man
82,334008,DepthScenes,duration_manipulation_targetAtFixation,jsons/v1_VE250_randls_0_rotated.json,http://54.235.29.9/FacialAge/BNav_EC2/DepthDuration/v2_depth_duration_MTurk/v2_DepthDuration_HTML.html#150,150,1440,789,1440,900,8-20-2022,11-1-13,83,depth_duration_stimuli/001052_2014-06-08_18-24-54_260595134347_rgbf000130-resize_1/001052_2014-06-08_18-24-54_260595134347_rgbf000130-resize_1-target.png,250,4.1045,0.0,2320,249,feet,jsons/v1_VE250_randls_0_rotated.json,582692,701519,38,Man
83,334008,DepthScenes,duration_manipulation_targetAtFixation,jsons/v1_VE250_randls_0_rotated.json,http://54.235.29.9/FacialAge/BNav_EC2/DepthDuration/v2_depth_duration_MTurk/v2_DepthDuration_HTML.html#150,150,1440,789,1440,900,8-20-2022,11-1-13,84,depth_duration_stimuli/002988_2014-06-15_12-24-20_094959634447_rgbf000150-resize_1/002988_2014-06-15_12-24-20_094959634447_rgbf000150-resize_1-target.png,250,4.7669999999999995,77.0,2260,250,feet,jsons/v1_VE250_randls_0_rotated.json,582692,701519,38,Man
84,334008,DepthScenes,duration_manipulation_targetAtFixation,jsons/v1_VE250_randls_0_rotated.json,http://54.235.29.9/FacialAge/BNav_EC2/DepthDuration/v2_depth_duration_MTurk/v2_DepthDuration_HTML.html#150,150,1440,789,1440,900,8-20-2022,11-1-13,85,depth_duration_stimuli/002750_2014-06-22_19-08-03_094959634447_rgbf000094-resize_4/002750_2014-06-22_19-08-03_094959634447_rgbf000094-resize_4-target.png,250,2.354,70.0,3817,249,feet,jsons/v1_VE250_randls_0_rotated.json,582692,701519,38,Man
85,334008,DepthScenes,duration_manipulation_targetAtFixation,jsons/v1_VE250_randls_0_rotated.json,http://54.235.29.9/FacialAge/BNav_EC2/DepthDuration/v2_depth_duration_MTurk/v2_DepthDuration_HTML.html#150,150,1440,789,1440,900,8-20-2022,11-1-13,86,depth_duration_stimuli/002549_2014-06-24_13-41-39_094959634447_rgbf000022-resize_3/002549_2014-06-24_13-41-39_094959634447_rgbf000022-resize_3-target.png,250,1.476,66.0,2793,249,feet,jsons/v1_VE250_randls_0_rotated.json,582692,701519,38,Man
86,334008,DepthScenes,duration_manipulation_targetAtFixation,jsons/v1_VE250_randls_0_rotated.json,http://54.235.29.9/FacialAge/BNav_EC2/DepthDuration/v2_depth_duration_MTurk/v2_DepthDuration_HTML.html#150,150,1440,789,1440,900,8-20-2022,11-1-13,87,depth_duration_stimuli/000780_2014-06-08_22-28-29_260595134347_rgbf000126-resize_1/000780_2014-06-08_22-28-29_260595134347_rgbf000126-resize_1-target.png,250,3.3825,20.0,4003,249,feet,jsons/v1_VE250_randls_0_rotated.json,582692,701519,38,Man
87,334008,DepthScenes,duration_manipulation_targetAtFixation,jsons/v1_VE250_randls_0_rotated.json,http://54.235.29.9/FacialAge/BNav_EC2/DepthDuration/v2_depth_duration_MTurk/v2_DepthDuration_HTML.html#150,150,1440,789,1440,900,8-20-2022,11-1-13,88,depth_duration_stimuli/002445_2014-06-28_20-32-16_260595134347_rgbf000029-resize_4/002445_2014-06-28_20-32-16_260595134347_rgbf000029-resize_4-target.png,250,2.5315,78.0,2810,249,feet,jsons/v1_VE250_randls_0_rotated.json,582692,701519,38,Man
88,334008,DepthScenes,duration_manipulation_targetAtFixation,jsons/v1_VE250_randls_0_rotated.json,http://54.235.29.9/FacialAge/BNav_EC2/DepthDuration/v2_depth_duration_MTurk/v2_DepthDuration_HTML.html#150,150,1440,789,1440,900,8-20-2022,11-1-13,89,depth_duration_stimuli/001447_2014-06-19_17-00-32_260595134347_rgbf000082-resize_5/001447_2014-06-19_17-00-32_260595134347_rgbf000082-resize_5-target.png,250,4.13775,69.0,2531,249,feet,jsons/v1_VE250_randls_0_rotated.json,582692,701519,38,Man
89,334008,DepthScenes,duration_manipulation_targetAtFixation,jsons/v1_VE250_randls_0_rotated.json,http://54.235.29.9/FacialAge/BNav_EC2/DepthDuration/v2_depth_duration_MTurk/v2_DepthDuration_HTML.html#150,150,1440,789,1440,900,8-20-2022,11-1-13,90,depth_duration_stimuli/000447_2014-06-08_16-15-46_260595134347_rgbf000130-resize_1/000447_2014-06-08_16-15-46_260595134347_rgbf000130-resize_1-target.png,250,4.479,58.0,2522,249,feet,jsons/v1_VE250_randls_0_rotated.json,582692,701519,38,Man
90,334008,DepthScenes,duration_manipulation_targetAtFixation,jsons/v1_VE250_randls_0_rotated.json,http://54.235.29.9/FacialAge/BNav_EC2/DepthDuration/v2_depth_duration_MTurk/v2_DepthDuration_HTML.html#150,150,1440,789,1440,900,8-20-2022,11-1-13,91,depth_duration_stimuli/000457_2014-06-08_16-52-43_260595134347_rgbf000199-resize_1/000457_2014-06-08_16-52-43_260595134347_rgbf000199-resize_1-target.png,250,3.6489999999999996,66.0,2338,250,feet,jsons/v1_VE250_randls_0_rotated.json,582692,701519,38,Man
91,334008,DepthScenes,duration_manipulation_targetAtFixation,jsons/v1_VE250_randls_0_rotated.json,http://54.235.29.9/FacialAge/BNav_EC2/DepthDuration/v2_depth_duration_MTurk/v2_DepthDuration_HTML.html#150,150,1440,789,1440,900,8-20-2022,11-1-13,92,depth_duration_stimuli/000929_2014-06-09_16-33-19_260595134347_rgbf000139-resize_0/000929_2014-06-09_16-33-19_260595134347_rgbf000139-resize_0-target.png,250,2.8680000000000003,70.0,3674,249,feet,jsons/v1_VE250_randls_0_rotated.json,582692,701519,38,Man
92,334008,DepthScenes,duration_manipulation_targetAtFixation,jsons/v1_VE250_randls_0_rotated.json,http://54.235.29.9/FacialAge/BNav_EC2/DepthDuration/v2_depth_duration_MTurk/v2_DepthDuration_HTML.html#150,150,1440,789,1440,900,8-20-2022,11-1-13,93,depth_duration_stimuli/002660_2014-06-13_15-44-18_094959634447_rgbf001878-resize_2/002660_2014-06-13_15-44-18_094959634447_rgbf001878-resize_2-target.png,250,3.576,45.0,3435,250,feet,jsons/v1_VE250_randls_0_rotated.json,582692,701519,38,Man
93,334008,DepthScenes,duration_manipulation_targetAtFixation,jsons/v1_VE250_randls_0_rotated.json,http://54.235.29.9/FacialAge/BNav_EC2/DepthDuration/v2_depth_duration_MTurk/v2_DepthDuration_HTML.html#150,150,1440,789,1440,900,8-20-2022,11-1-13,94,depth_duration_stimuli/002153_2014-06-25_21-27-18_260595134347_rgbf000038-resize_5/002153_2014-06-25_21-27-18_260595134347_rgbf000038-resize_5-target.png,250,2.505,41.0,5027,252,feet,jsons/v1_VE250_randls_0_rotated.json,582692,701519,38,Man
94,334008,DepthScenes,duration_manipulation_targetAtFixation,jsons/v1_VE250_randls_0_rotated.json,http://54.235.29.9/FacialAge/BNav_EC2/DepthDuration/v2_depth_duration_MTurk/v2_DepthDuration_HTML.html#150,150,1440,789,1440,900,8-20-2022,11-1-13,95,depth_duration_stimuli/001392_2014-06-19_16-07-59_260595134347_rgbf000046-resize_1/001392_2014-06-19_16-07-59_260595134347_rgbf000046-resize_1-target.png,250,4.135,40.0,2475,249,feet,jsons/v1_VE250_randls_0_rotated.json,582692,701519,38,Man
95,334008,DepthScenes,duration_manipulation_targetAtFixation,jsons/v1_VE250_randls_0_rotated.json,http://54.235.29.9/FacialAge/BNav_EC2/DepthDuration/v2_depth_duration_MTurk/v2_DepthDuration_HTML.html#150,150,1440,789,1440,900,8-20-2022,11-1-13,96,depth_duration_stimuli/001570_2014-06-20_17-21-09_260595134347_rgbf000135-resize_4/001570_2014-06-20_17-21-09_260595134347_rgbf000135-resize_4-target.png,250,4.467,47.0,2802,250,feet,jsons/v1_VE250_randls_0_rotated.json,582692,701519,38,Man
96,334008,DepthScenes,duration_manipulation_targetAtFixation,jsons/v1_VE250_randls_0_rotated.json,http://54.235.29.9/FacialAge/BNav_EC2/DepthDuration/v2_depth_duration_MTurk/v2_DepthDuration_HTML.html#150,150,1440,789,1440,900,8-20-2022,11-1-13,97,depth_duration_stimuli/002425_2014-06-28_20-27-29_260595134347_rgbf000031-resize_8/002425_2014-06-28_20-27-29_260595134347_rgbf000031-resize_8-target.png,250,3.8960000000000004,50.0,3035,250,feet,jsons/v1_VE250_randls_0_rotated.json,582692,701519,38,Man
97,334008,DepthScenes,duration_manipulation_targetAtFixation,jsons/v1_VE250_randls_0_rotated.json,http://54.235.29.9/FacialAge/BNav_EC2/DepthDuration/v2_depth_duration_MTurk/v2_DepthDuration_HTML.html#150,150,1440,789,1440,900,8-20-2022,11-1-13,98,depth_duration_stimuli/000642_2014-06-08_16-59-25_260595134347_rgbf000098-resize_2/000642_2014-06-08_16-59-25_260595134347_rgbf000098-resize_2-target.png,250,2.8815,68.0,2419,249,feet,jsons/v1_VE250_randls_0_rotated.json,582692,701519,38,Man
98,334008,DepthScenes,duration_manipulation_targetAtFixation,jsons/v1_VE250_randls_0_rotated.json,http://54.235.29.9/FacialAge/BNav_EC2/DepthDuration/v2_depth_duration_MTurk/v2_DepthDuration_HTML.html#150,150,1440,789,1440,900,8-20-2022,11-1-13,99,depth_duration_stimuli/001222_2014-06-17_16-24-06_260595134347_rgbf000073-resize_0/001222_2014-06-17_16-24-06_260595134347_rgbf000073-resize-original.jpg,250,1.4385,0.0,1970,249,feet,jsons/v1_VE250_randls_0_rotated.json,582692,701519,38,Man
99,334008,DepthScenes,duration_manipulation_targetAtFixation,jsons/v1_VE250_randls_0_rotated.json,http://54.235.29.9/FacialAge/BNav_EC2/DepthDuration/v2_depth_duration_MTurk/v2_DepthDuration_HTML.html#150,150,1440,789,1440,900,8-20-2022,11-1-13,100,depth_duration_stimuli/000103_2014-05-14_22-01-17_260595134347_rgbf000152-resize_5/000103_2014-05-14_22-01-17_260595134347_rgbf000152-resize_5-target.png,250,1.993,54.0,2322,249,feet,jsons/v1_VE250_randls_0_rotated.json,582692,701519,38,Man
100,334008,DepthScenes,duration_manipulation_targetAtFixation,jsons/v1_VE250_randls_0_rotated.json,http://54.235.29.9/FacialAge/BNav_EC2/DepthDuration/v2_depth_duration_MTurk/v2_DepthDuration_HTML.html#150,150,1440,789,1440,900,8-20-2022,11-1-13,101,depth_duration_stimuli/001555_2014-06-20_17-12-10_260595134347_rgbf000065-resize_4/001555_2014-06-20_17-12-10_260595134347_rgbf000065-resize_4-target.png,250,1.633,57.0,2147,250,feet,jsons/v1_VE250_randls_0_rotated.json,582692,701519,38,Man
101,334008,DepthScenes,duration_manipulation_targetAtFixation,jsons/v1_VE250_randls_0_rotated.json,http://54.235.29.9/FacialAge/BNav_EC2/DepthDuration/v2_depth_duration_MTurk/v2_DepthDuration_HTML.html#150,150,1440,789,1440,900,8-20-2022,11-1-13,102,depth_duration_stimuli/000734_2014-06-08_17-39-11_260595134347_rgbf000128-resize_2/000734_2014-06-08_17-39-11_260595134347_rgbf000128-resize_2-target.png,250,4.098,63.0,2577,249,feet,jsons/v1_VE250_randls_0_rotated.json,582692,701519,38,Man
102,334008,DepthScenes,duration_manipulation_targetAtFixation,jsons/v1_VE250_randls_0_rotated.json,http://54.235.29.9/FacialAge/BNav_EC2/DepthDuration/v2_depth_duration_MTurk/v2_DepthDuration_HTML.html#150,150,1440,789,1440,900,8-20-2022,11-1-13,103,depth_duration_stimuli/000739_2014-06-08_18-45-58_260595134347_rgbf000068-resize_1/000739_2014-06-08_18-45-58_260595134347_rgbf000068-resize_1-target.png,250,3.534,57.0,2243,250,feet,jsons/v1_VE250_randls_0_rotated.json,582692,701519,38,Man
103,334008,DepthScenes,duration_manipulation_targetAtFixation,jsons/v1_VE250_randls_0_rotated.json,http://54.235.29.9/FacialAge/BNav_EC2/DepthDuration/v2_depth_duration_MTurk/v2_DepthDuration_HTML.html#150,150,1440,789,1440,900,8-20-2022,11-1-13,104,depth_duration_stimuli/003079_2014-06-15_15-18-20_094959634447_rgbf000152-resize_8/003079_2014-06-15_15-18-20_094959634447_rgbf000152-resize_8-target.png,250,2.8775,66.0,2700,249,feet,jsons/v1_VE250_randls_0_rotated.json,582692,701519,38,Man
104,334008,DepthScenes,duration_manipulation_targetAtFixation,jsons/v1_VE250_randls_0_rotated.json,http://54.235.29.9/FacialAge/BNav_EC2/DepthDuration/v2_depth_duration_MTurk/v2_DepthDuration_HTML.html#150,150,1440,789,1440,900,8-20-2022,11-1-13,105,depth_duration_stimuli/000506_2014-06-08_23-21-00_260595134347_rgbf000070-resize_7/000506_2014-06-08_23-21-00_260595134347_rgbf000070-resize_7-target.png,250,4.0585,47.0,2305,249,feet,jsons/v1_VE250_randls_0_rotated.json,582692,701519,38,Man
105,334008,DepthScenes,duration_manipulation_targetAtFixation,jsons/v1_VE250_randls_0_rotated.json,http://54.235.29.9/FacialAge/BNav_EC2/DepthDuration/v2_depth_duration_MTurk/v2_DepthDuration_HTML.html#150,150,1440,789,1440,900,8-20-2022,11-1-13,106,depth_duration_stimuli/001136_2014-06-17_15-19-41_260595134347_rgbf000076-resize_3/001136_2014-06-17_15-19-41_260595134347_rgbf000076-resize_3-target.png,250,1.8655,20.0,2250,250,feet,jsons/v1_VE250_randls_0_rotated.json,582692,701519,38,Man
106,334008,DepthScenes,duration_manipulation_targetAtFixation,jsons/v1_VE250_randls_0_rotated.json,http://54.235.29.9/FacialAge/BNav_EC2/DepthDuration/v2_depth_duration_MTurk/v2_DepthDuration_HTML.html#150,150,1440,789,1440,900,8-20-2022,11-1-13,107,depth_duration_stimuli/001164_2014-06-17_15-35-46_260595134347_rgbf000085-resize_3/001164_2014-06-17_15-35-46_260595134347_rgbf000085-resize_3-target.png,250,2.354,78.0,2618,264,feet,jsons/v1_VE250_randls_0_rotated.json,582692,701519,38,Man
107,334008,DepthScenes,duration_manipulation_targetAtFixation,jsons/v1_VE250_randls_0_rotated.json,http://54.235.29.9/FacialAge/BNav_EC2/DepthDuration/v2_depth_duration_MTurk/v2_DepthDuration_HTML.html#150,150,1440,789,1440,900,8-20-2022,11-1-13,108,depth_duration_stimuli/001815_2014-06-26_20-52-55_260595134347_rgbf000020-resize_0/001815_2014-06-26_20-52-55_260595134347_rgbf000020-resize_0-target.png,250,3.3865,41.0,3001,249,feet,jsons/v1_VE250_randls_0_rotated.json,582692,701519,38,Man
108,334008,DepthScenes,duration_manipulation_targetAtFixation,jsons/v1_VE250_randls_0_rotated.json,http://54.235.29.9/FacialAge/BNav_EC2/DepthDuration/v2_depth_duration_MTurk/v2_DepthDuration_HTML.html#150,150,1440,789,1440,900,8-20-2022,11-1-13,109,depth_duration_stimuli/001808_2014-06-26_20-50-58_260595134347_rgbf000029-resize_1/001808_2014-06-26_20-50-58_260595134347_rgbf000029-resize_1-target.png,250,4.249,36.0,2336,249,feet,jsons/v1_VE250_randls_0_rotated.json,582692,701519,38,Man
109,334008,DepthScenes,duration_manipulation_targetAtFixation,jsons/v1_VE250_randls_0_rotated.json,http://54.235.29.9/FacialAge/BNav_EC2/DepthDuration/v2_depth_duration_MTurk/v2_DepthDuration_HTML.html#150,150,1440,789,1440,900,8-20-2022,11-1-13,110,depth_duration_stimuli/002995_2014-06-15_12-31-26_094959634447_rgbf000150-resize_1/002995_2014-06-15_12-31-26_094959634447_rgbf000150-resize_1-target.png,250,3.8360000000000003,10.0,2490,250,feet,jsons/v1_VE250_randls_0_rotated.json,582692,701519,38,Man
110,334008,DepthScenes,duration_manipulation_targetAtFixation,jsons/v1_VE250_randls_0_rotated.json,http://54.235.29.9/FacialAge/BNav_EC2/DepthDuration/v2_depth_duration_MTurk/v2_DepthDuration_HTML.html#150,150,1440,789,1440,900,8-20-2022,11-1-13,111,depth_duration_stimuli/002748_2014-06-22_19-07-22_094959634447_rgbf000078-resize_1/002748_2014-06-22_19-07-22_094959634447_rgbf000078-resize_1-target.png,250,4.6705,28.0,2802,249,feet,jsons/v1_VE250_randls_0_rotated.json,582692,701519,38,Man
111,334008,DepthScenes,duration_manipulation_targetAtFixation,jsons/v1_VE250_randls_0_rotated.json,http://54.235.29.9/FacialAge/BNav_EC2/DepthDuration/v2_depth_duration_MTurk/v2_DepthDuration_HTML.html#150,150,1440,789,1440,900,8-20-2022,11-1-13,112,depth_duration_stimuli/002758_2014-06-22_19-11-20_094959634447_rgbf000128-resize_1/002758_2014-06-22_19-11-20_094959634447_rgbf000128-resize_1-target.png,250,2.555,17.0,2458,249,feet,jsons/v1_VE250_randls_0_rotated.json,582692,701519,38,Man
112,334008,DepthScenes,duration_manipulation_targetAtFixation,jsons/v1_VE250_randls_0_rotated.json,http://54.235.29.9/FacialAge/BNav_EC2/DepthDuration/v2_depth_duration_MTurk/v2_DepthDuration_HTML.html#150,150,1440,789,1440,900,8-20-2022,11-1-13,113,depth_duration_stimuli/002630_2014-06-24_14-47-50_094959634447_rgbf000055-resize_1/002630_2014-06-24_14-47-50_094959634447_rgbf000055-resize_1-target.png,250,3.0095,17.0,2930,250,feet,jsons/v1_VE250_randls_0_rotated.json,582692,701519,38,Man
113,334008,DepthScenes,duration_manipulation_targetAtFixation,jsons/v1_VE250_randls_0_rotated.json,http://54.235.29.9/FacialAge/BNav_EC2/DepthDuration/v2_depth_duration_MTurk/v2_DepthDuration_HTML.html#150,150,1440,789,1440,900,8-20-2022,11-1-13,114,depth_duration_stimuli/002678_2014-06-13_16-15-32_094959634447_rgbf000151-resize_6/002678_2014-06-13_16-15-32_094959634447_rgbf000151-resize_6-target.png,250,2.1830000000000003,100.0,5116,249,feet,jsons/v1_VE250_randls_0_rotated.json,582692,701519,38,Man
114,334008,DepthScenes,duration_manipulation_targetAtFixation,jsons/v1_VE250_randls_0_rotated.json,http://54.235.29.9/FacialAge/BNav_EC2/DepthDuration/v2_depth_duration_MTurk/v2_DepthDuration_HTML.html#150,150,1440,789,1440,900,8-20-2022,11-1-13,115,depth_duration_stimuli/000368_2014-06-09_15-53-01_260595134347_rgbf000155-resize_2/000368_2014-06-09_15-53-01_260595134347_rgbf000155-resize_2-target.png,250,2.4859999999999998,0.0,2146,250,feet,jsons/v1_VE250_randls_0_rotated.json,582692,701519,38,Man
115,334008,DepthScenes,duration_manipulation_targetAtFixation,jsons/v1_VE250_randls_0_rotated.json,http://54.235.29.9/FacialAge/BNav_EC2/DepthDuration/v2_depth_duration_MTurk/v2_DepthDuration_HTML.html#150,150,1440,789,1440,900,8-20-2022,11-1-13,116,depth_duration_stimuli/001828_2014-06-26_21-40-03_260595134347_rgbf000024-resize_0/001828_2014-06-26_21-40-03_260595134347_rgbf000024-resize_0-target.png,250,4.8260000000000005,456.0,2580,249,feet,jsons/v1_VE250_randls_0_rotated.json,582692,701519,38,Man
116,334008,DepthScenes,duration_manipulation_targetAtFixation,jsons/v1_VE250_randls_0_rotated.json,http://54.235.29.9/FacialAge/BNav_EC2/DepthDuration/v2_depth_duration_MTurk/v2_DepthDuration_HTML.html#150,150,1440,789,1440,900,8-20-2022,11-1-13,117,depth_duration_stimuli/000009_2014-05-26_14-32-05_260595134347_rgbf000034-resize_3/000009_2014-05-26_14-32-05_260595134347_rgbf000034-resize_3-target.png,250,3.8715,69.0,2361,250,feet,jsons/v1_VE250_randls_0_rotated.json,582692,701519,38,Man
117,334008,DepthScenes,duration_manipulation_targetAtFixation,jsons/v1_VE250_randls_0_rotated.json,http://54.235.29.9/FacialAge/BNav_EC2/DepthDuration/v2_depth_duration_MTurk/v2_DepthDuration_HTML.html#150,150,1440,789,1440,900,8-20-2022,11-1-13,118,depth_duration_stimuli/002657_2014-06-13_15-29-54_094959634447_rgbf000150-resize_1/002657_2014-06-13_15-29-54_094959634447_rgbf000150-resize_1-target.png,250,4.919,70.0,2770,250,feet,jsons/v1_VE250_randls_0_rotated.json,582692,701519,38,Man
118,334008,DepthScenes,duration_manipulation_targetAtFixation,jsons/v1_VE250_randls_0_rotated.json,http://54.235.29.9/FacialAge/BNav_EC2/DepthDuration/v2_depth_duration_MTurk/v2_DepthDuration_HTML.html#150,150,1440,789,1440,900,8-20-2022,11-1-13,119,depth_duration_stimuli/002375_2014-06-28_20-13-44_260595134347_rgbf000032-resize_1/002375_2014-06-28_20-13-44_260595134347_rgbf000032-resize_1-target.png,250,4.0175,79.0,2860,251,feet,jsons/v1_VE250_randls_0_rotated.json,582692,701519,38,Man
119,334008,DepthScenes,duration_manipulation_targetAtFixation,jsons/v1_VE250_randls_0_rotated.json,http://54.235.29.9/FacialAge/BNav_EC2/DepthDuration/v2_depth_duration_MTurk/v2_DepthDuration_HTML.html#150,150,1440,789,1440,900,8-20-2022,11-1-13,120,depth_duration_stimuli/000787_2014-06-08_22-33-53_260595134347_rgbf000175-resize_1/000787_2014-06-08_22-33-53_260595134347_rgbf000175-resize-original.jpg,250,4.784,0.0,2258,249,feet,jsons/v1_VE250_randls_0_rotated.json,582692,701519,38,Man
120,334008,DepthScenes,duration_manipulation_targetAtFixation,jsons/v1_VE250_randls_0_rotated.json,http://54.235.29.9/FacialAge/BNav_EC2/DepthDuration/v2_depth_duration_MTurk/v2_DepthDuration_HTML.html#150,150,1440,789,1440,900,8-20-2022,11-1-13,121,depth_duration_stimuli/003587_2014-05-23_16-48-02_094959634447_rgbf002384-resize_2/003587_2014-05-23_16-48-02_094959634447_rgbf002384-resize_2-target.png,250,1.357,45.0,3338,248,feet,jsons/v1_VE250_randls_0_rotated.json,582692,701519,38,Man
121,334008,DepthScenes,duration_manipulation_targetAtFixation,jsons/v1_VE250_randls_0_rotated.json,http://54.235.29.9/FacialAge/BNav_EC2/DepthDuration/v2_depth_duration_MTurk/v2_DepthDuration_HTML.html#150,150,1440,789,1440,900,8-20-2022,11-1-13,122,depth_duration_stimuli/001167_2014-06-17_15-38-07_260595134347_rgbf000108-resize_0/001167_2014-06-17_15-38-07_260595134347_rgbf000108-resize_0-target.png,250,1.8505,17.0,2408,250,feet,jsons/v1_VE250_randls_0_rotated.json,582692,701519,38,Man
122,334008,DepthScenes,duration_manipulation_targetAtFixation,jsons/v1_VE250_randls_0_rotated.json,http://54.235.29.9/FacialAge/BNav_EC2/DepthDuration/v2_depth_duration_MTurk/v2_DepthDuration_HTML.html#150,150,1440,789,1440,900,8-20-2022,11-1-13,123,depth_duration_stimuli/003081_2014-06-15_15-19-16_094959634447_rgbf000150-resize_1/003081_2014-06-15_15-19-16_094959634447_rgbf000150-resize_1-target.png,250,3.9125,20.0,2258,249,feet,jsons/v1_VE250_randls_0_rotated.json,582692,701519,38,Man
123,334008,DepthScenes,duration_manipulation_targetAtFixation,jsons/v1_VE250_randls_0_rotated.json,http://54.235.29.9/FacialAge/BNav_EC2/DepthDuration/v2_depth_duration_MTurk/v2_DepthDuration_HTML.html#150,150,1440,789,1440,900,8-20-2022,11-1-13,124,depth_duration_stimuli/001417_2014-06-19_16-25-36_260595134347_rgbf000115-resize_5/001417_2014-06-19_16-25-36_260595134347_rgbf000115-resize_5-target.png,250,4.6255,78.0,2810,249,feet,jsons/v1_VE250_randls_0_rotated.json,582692,701519,38,Man
124,334008,DepthScenes,duration_manipulation_targetAtFixation,jsons/v1_VE250_randls_0_rotated.json,http://54.235.29.9/FacialAge/BNav_EC2/DepthDuration/v2_depth_duration_MTurk/v2_DepthDuration_HTML.html#150,150,1440,789,1440,900,8-20-2022,11-1-13,125,depth_duration_stimuli/002953_2014-06-08_17-32-18_094959634447_rgbf000059-resize_5/002953_2014-06-08_17-32-18_094959634447_rgbf000059-resize_5-target.png,250,1.551,79.0,2491,250,feet,jsons/v1_VE250_randls_0_rotated.json,582692,701519,38,Man
125,334008,DepthScenes,duration_manipulation_targetAtFixation,jsons/v1_VE250_randls_0_rotated.json,http://54.235.29.9/FacialAge/BNav_EC2/DepthDuration/v2_depth_duration_MTurk/v2_DepthDuration_HTML.html#150,150,1440,789,1440,900,8-20-2022,11-1-13,126,depth_duration_stimuli/000878_2014-06-08_22-52-45_260595134347_rgbf000045-resize_2/000878_2014-06-08_22-52-45_260595134347_rgbf000045-resize_2-target.png,250,2.092,82.0,4243,248,feet,jsons/v1_VE250_randls_0_rotated.json,582692,701519,38,Man
126,334008,DepthScenes,duration_manipulation_targetAtFixation,jsons/v1_VE250_randls_0_rotated.json,http://54.235.29.9/FacialAge/BNav_EC2/DepthDuration/v2_depth_duration_MTurk/v2_DepthDuration_HTML.html#150,150,1440,789,1440,900,8-20-2022,11-1-13,127,depth_duration_stimuli/001650_2014-06-20_12-09-00_260595134347_rgbf000087-resize_3/001650_2014-06-20_12-09-00_260595134347_rgbf000087-resize_3-target.png,250,1.9505,80.0,2289,249,feet,jsons/v1_VE250_randls_0_rotated.json,582692,701519,38,Man
127,334008,DepthScenes,duration_manipulation_targetAtFixation,jsons/v1_VE250_randls_0_rotated.json,http://54.235.29.9/FacialAge/BNav_EC2/DepthDuration/v2_depth_duration_MTurk/v2_DepthDuration_HTML.html#150,150,1440,789,1440,900,8-20-2022,11-1-13,128,depth_duration_stimuli/000682_2014-06-08_23-14-58_260595134347_rgbf000041-resize_5/000682_2014-06-08_23-14-58_260595134347_rgbf000041-resize_5-target.png,250,2.7239999999999998,21.0,2642,249,feet,jsons/v1_VE250_randls_0_rotated.json,582692,701519,38,Man
128,334008,DepthScenes,duration_manipulation_targetAtFixation,jsons/v1_VE250_randls_0_rotated.json,http://54.235.29.9/FacialAge/BNav_EC2/DepthDuration/v2_depth_duration_MTurk/v2_DepthDuration_HTML.html#150,150,1440,789,1440,900,8-20-2022,11-1-13,129,depth_duration_stimuli/002199_2014-06-28_18-33-56_260595134347_rgbf000074-resize_0/002199_2014-06-28_18-33-56_260595134347_rgbf000074-resize_0-target.png,250,1.996,20.0,2451,250,feet,jsons/v1_VE250_randls_0_rotated.json,582692,701519,38,Man
129,334008,DepthScenes,duration_manipulation_targetAtFixation,jsons/v1_VE250_randls_0_rotated.json,http://54.235.29.9/FacialAge/BNav_EC2/DepthDuration/v2_depth_duration_MTurk/v2_DepthDuration_HTML.html#150,150,1440,789,1440,900,8-20-2022,11-1-13,130,depth_duration_stimuli/001056_2014-06-08_18-46-44_260595134347_rgbf000068-resize_0/001056_2014-06-08_18-46-44_260595134347_rgbf000068-resize_0-target.png,250,2.6625,50.0,2866,249,feet,jsons/v1_VE250_randls_0_rotated.json,582692,701519,38,Man
130,334008,DepthScenes,duration_manipulation_targetAtFixation,jsons/v1_VE250_randls_0_rotated.json,http://54.235.29.9/FacialAge/BNav_EC2/DepthDuration/v2_depth_duration_MTurk/v2_DepthDuration_HTML.html#150,150,1440,789,1440,900,8-20-2022,11-1-13,131,depth_duration_stimuli/001571_2014-06-20_17-21-32_260595134347_rgbf000089-resize_1/001571_2014-06-20_17-21-32_260595134347_rgbf000089-resize_1-target.png,250,1.86,47.0,3205,249,feet,jsons/v1_VE250_randls_0_rotated.json,582692,701519,38,Man
131,334008,DepthScenes,duration_manipulation_targetAtFixation,jsons/v1_VE250_randls_0_rotated.json,http://54.235.29.9/FacialAge/BNav_EC2/DepthDuration/v2_depth_duration_MTurk/v2_DepthDuration_HTML.html#150,150,1440,789,1440,900,8-20-2022,11-1-13,132,depth_duration_stimuli/002272_2014-06-28_18-53-56_260595134347_rgbf000067-resize_2/002272_2014-06-28_18-53-56_260595134347_rgbf000067-resize_2-target.png,250,1.138,58.0,2827,250,feet,jsons/v1_VE250_randls_0_rotated.json,582692,701519,38,Man
132,334008,DepthScenes,duration_manipulation_targetAtFixation,jsons/v1_VE250_randls_0_rotated.json,http://54.235.29.9/FacialAge/BNav_EC2/DepthDuration/v2_depth_duration_MTurk/v2_DepthDuration_HTML.html#150,150,1440,789,1440,900,8-20-2022,11-1-13,133,depth_duration_stimuli/001617_2014-06-20_11-35-32_260595134347_rgbf000066-resize_1/001617_2014-06-20_11-35-32_260595134347_rgbf000066-resize_1-target.png,250,3.7910000000000004,80.0,4514,251,feet,jsons/v1_VE250_randls_0_rotated.json,582692,701519,38,Man
133,334008,DepthScenes,duration_manipulation_targetAtFixation,jsons/v1_VE250_randls_0_rotated.json,http://54.235.29.9/FacialAge/BNav_EC2/DepthDuration/v2_depth_duration_MTurk/v2_DepthDuration_HTML.html#150,150,1440,789,1440,900,8-20-2022,11-1-13,134,depth_duration_stimuli/001806_2014-06-26_20-50-20_260595134347_rgbf000091-resize_1/001806_2014-06-26_20-50-20_260595134347_rgbf000091-resize_1-target.png,250,2.7305,58.0,2570,249,feet,jsons/v1_VE250_randls_0_rotated.json,582692,701519,38,Man
134,334008,DepthScenes,duration_manipulation_targetAtFixation,jsons/v1_VE250_randls_0_rotated.json,http://54.235.29.9/FacialAge/BNav_EC2/DepthDuration/v2_depth_duration_MTurk/v2_DepthDuration_HTML.html#150,150,1440,789,1440,900,8-20-2022,11-1-13,135,depth_duration_stimuli/000375_2014-06-08_11-17-29_260595134347_rgbf000133-resize_2/000375_2014-06-08_11-17-29_260595134347_rgbf000133-resize-original.jpg,250,4.718,0.0,2170,249,feet,jsons/v1_VE250_randls_0_rotated.json,582692,701519,38,Man
135,334008,DepthScenes,duration_manipulation_targetAtFixation,jsons/v1_VE250_randls_0_rotated.json,http://54.235.29.9/FacialAge/BNav_EC2/DepthDuration/v2_depth_duration_MTurk/v2_DepthDuration_HTML.html#150,150,1440,789,1440,900,8-20-2022,11-1-13,136,depth_duration_stimuli/000409_2014-06-04_19-23-33_260595134347_rgbf000067-resize_0/000409_2014-06-04_19-23-33_260595134347_rgbf000067-resize_0-target.png,250,3.7335,66.0,2267,241,feet,jsons/v1_VE250_randls_0_rotated.json,582692,701519,38,Man
136,334008,DepthScenes,duration_manipulation_targetAtFixation,jsons/v1_VE250_randls_0_rotated.json,http://54.235.29.9/FacialAge/BNav_EC2/DepthDuration/v2_depth_duration_MTurk/v2_DepthDuration_HTML.html#150,150,1440,789,1440,900,8-20-2022,11-1-13,137,depth_duration_stimuli/002663_2014-06-13_15-50-26_094959634447_rgbf000075-resize_1/002663_2014-06-13_15-50-26_094959634447_rgbf000075-resize_1-target.png,250,4.7495,68.0,2265,250,feet,jsons/v1_VE250_randls_0_rotated.json,582692,701519,38,Man
137,334008,DepthScenes,duration_manipulation_targetAtFixation,jsons/v1_VE250_randls_0_rotated.json,http://54.235.29.9/FacialAge/BNav_EC2/DepthDuration/v2_depth_duration_MTurk/v2_DepthDuration_HTML.html#150,150,1440,789,1440,900,8-20-2022,11-1-13,138,depth_duration_stimuli/000677_2014-06-08_23-10-32_260595134347_rgbf000158-resize_6/000677_2014-06-08_23-10-32_260595134347_rgbf000158-resize_6-target.png,250,3.556,70.0,2435,251,feet,jsons/v1_VE250_randls_0_rotated.json,582692,701519,38,Man
138,334008,DepthScenes,duration_manipulation_targetAtFixation,jsons/v1_VE250_randls_0_rotated.json,http://54.235.29.9/FacialAge/BNav_EC2/DepthDuration/v2_depth_duration_MTurk/v2_DepthDuration_HTML.html#150,150,1440,789,1440,900,8-20-2022,11-1-13,139,depth_duration_stimuli/001029_2014-06-08_13-17-57_260595134347_rgbf000065-resize_1/001029_2014-06-08_13-17-57_260595134347_rgbf000065-resize_1-target.png,250,3.0835,47.0,2451,249,feet,jsons/v1_VE250_randls_0_rotated.json,582692,701519,38,Man
139,334008,DepthScenes,duration_manipulation_targetAtFixation,jsons/v1_VE250_randls_0_rotated.json,http://54.235.29.9/FacialAge/BNav_EC2/DepthDuration/v2_depth_duration_MTurk/v2_DepthDuration_HTML.html#150,150,1440,789,1440,900,8-20-2022,11-1-13,140,depth_duration_stimuli/002209_2014-06-28_18-36-10_260595134347_rgbf000051-resize_1/002209_2014-06-28_18-36-10_260595134347_rgbf000051-resize_1-target.png,250,2.057,20.0,2736,250,feet,jsons/v1_VE250_randls_0_rotated.json,582692,701519,38,Man
140,334008,DepthScenes,duration_manipulation_targetAtFixation,jsons/v1_VE250_randls_0_rotated.json,http://54.235.29.9/FacialAge/BNav_EC2/DepthDuration/v2_depth_duration_MTurk/v2_DepthDuration_HTML.html#150,150,1440,789,1440,900,8-20-2022,11-1-13,141,depth_duration_stimuli/002763_2014-06-22_19-13-10_094959634447_rgbf000075-resize_4/002763_2014-06-22_19-13-10_094959634447_rgbf000075-resize_4-target.png,250,1.68375,27.0,2287,250,feet,jsons/v1_VE250_randls_0_rotated.json,582692,701519,38,Man
141,334008,DepthScenes,duration_manipulation_targetAtFixation,jsons/v1_VE250_randls_0_rotated.json,http://54.235.29.9/FacialAge/BNav_EC2/DepthDuration/v2_depth_duration_MTurk/v2_DepthDuration_HTML.html#150,150,1440,789,1440,900,8-20-2022,11-1-13,142,depth_duration_stimuli/000749_2014-06-08_21-55-06_260595134347_rgbf000070-resize_2/000749_2014-06-08_21-55-06_260595134347_rgbf000070-resize_2-target.png,250,2.331,30.0,2005,250,feet,jsons/v1_VE250_randls_0_rotated.json,582692,701519,38,Man
142,334008,DepthScenes,duration_manipulation_targetAtFixation,jsons/v1_VE250_randls_0_rotated.json,http://54.235.29.9/FacialAge/BNav_EC2/DepthDuration/v2_depth_duration_MTurk/v2_DepthDuration_HTML.html#150,150,1440,789,1440,900,8-20-2022,11-1-13,143,depth_duration_stimuli/002788_2014-06-22_19-36-03_094959634447_rgbf000088-resize_2/002788_2014-06-22_19-36-03_094959634447_rgbf000088-resize_2-target.png,250,1.6465,33.0,2227,251,feet,jsons/v1_VE250_randls_0_rotated.json,582692,701519,38,Man
143,334008,DepthScenes,duration_manipulation_targetAtFixation,jsons/v1_VE250_randls_0_rotated.json,http://54.235.29.9/FacialAge/BNav_EC2/DepthDuration/v2_depth_duration_MTurk/v2_DepthDuration_HTML.html#150,150,1440,789,1440,900,8-20-2022,11-1-13,144,depth_duration_stimuli/003083_2014-06-15_15-21-03_094959634447_rgbf000063-resize_1/003083_2014-06-15_15-21-03_094959634447_rgbf000063-resize_1-target.png,250,4.1405,40.0,2210,249,feet,jsons/v1_VE250_randls_0_rotated.json,582692,701519,38,Man
144,334008,DepthScenes,duration_manipulation_targetAtFixation,jsons/v1_VE250_randls_0_rotated.json,http://54.235.29.9/FacialAge/BNav_EC2/DepthDuration/v2_depth_duration_MTurk/v2_DepthDuration_HTML.html#150,150,1440,789,1440,900,8-20-2022,11-1-13,145,depth_duration_stimuli/000486_2014-06-09_20-47-20_260595134347_rgbf000143-resize_2/000486_2014-06-09_20-47-20_260595134347_rgbf000143-resize_2-target.png,250,4.8325,48.0,2323,250,feet,jsons/v1_VE250_randls_0_rotated.json,582692,701519,38,Man
145,334008,DepthScenes,duration_manipulation_targetAtFixation,jsons/v1_VE250_randls_0_rotated.json,http://54.235.29.9/FacialAge/BNav_EC2/DepthDuration/v2_depth_duration_MTurk/v2_DepthDuration_HTML.html#150,150,1440,789,1440,900,8-20-2022,11-1-13,146,depth_duration_stimuli/001214_2014-06-17_16-13-55_260595134347_rgbf000111-resize_0/001214_2014-06-17_16-13-55_260595134347_rgbf000111-resize_0-target.png,250,2.6505,40.0,2378,251,feet,jsons/v1_VE250_randls_0_rotated.json,582692,701519,38,Man
146,334008,DepthScenes,duration_manipulation_targetAtFixation,jsons/v1_VE250_randls_0_rotated.json,http://54.235.29.9/FacialAge/BNav_EC2/DepthDuration/v2_depth_duration_MTurk/v2_DepthDuration_HTML.html#150,150,1440,789,1440,900,8-20-2022,11-1-13,147,depth_duration_stimuli/000810_2014-06-08_17-20-01_260595134347_rgbf000105-resize_0/000810_2014-06-08_17-20-01_260595134347_rgbf000105-resize_0-target.png,250,1.4865,50.0,2810,249,feet,jsons/v1_VE250_randls_0_rotated.json,582692,701519,38,Man
147,334008,DepthScenes,duration_manipulation_targetAtFixation,jsons/v1_VE250_randls_0_rotated.json,http://54.235.29.9/FacialAge/BNav_EC2/DepthDuration/v2_depth_duration_MTurk/v2_DepthDuration_HTML.html#150,150,1440,789,1440,900,8-20-2022,11-1-13,148,depth_duration_stimuli/003338_2014-05-20_11-01-23_094959634447_rgbf000051-resize_6/003338_2014-05-20_11-01-23_094959634447_rgbf000051-resize_6-target.png,250,1.693,60.0,2762,250,feet,jsons/v1_VE250_randls_0_rotated.json,582692,701519,38,Man
148,334008,DepthScenes,duration_manipulation_targetAtFixation,jsons/v1_VE250_randls_0_rotated.json,http://54.235.29.9/FacialAge/BNav_EC2/DepthDuration/v2_depth_duration_MTurk/v2_DepthDuration_HTML.html#150,150,1440,789,1440,900,8-20-2022,11-1-13,149,depth_duration_stimuli/002509_2014-06-24_13-19-22_094959634447_rgbf000077-resize_0/002509_2014-06-24_13-19-22_094959634447_rgbf000077-resize_0-target.png,250,1.3065,66.0,2321,248,feet,jsons/v1_VE250_randls_0_rotated.json,582692,701519,38,Man
149,334008,DepthScenes,duration_manipulation_targetAtFixation,jsons/v1_VE250_randls_0_rotated.json,http://54.235.29.9/FacialAge/BNav_EC2/DepthDuration/v2_depth_duration_MTurk/v2_DepthDuration_HTML.html#150,150,1440,789,1440,900,8-20-2022,11-1-13,150,depth_duration_stimuli/000137_2014-05-20_17-04-49_260595134347_rgbf000120-resize_1/000137_2014-05-20_17-04-49_260595134347_rgbf000120-resize_1-target.png,250,3.786,27.0,2451,248,feet,jsons/v1_VE250_randls_0_rotated.json,582692,701519,38,Man
150,334008,DepthScenes,duration_manipulation_targetAtFixation,jsons/v1_VE250_randls_0_rotated.json,http://54.235.29.9/FacialAge/BNav_EC2/DepthDuration/v2_depth_duration_MTurk/v2_DepthDuration_HTML.html#150,150,1440,789,1440,900,8-20-2022,11-1-13,151,depth_duration_stimuli/000736_2014-06-08_18-24-15_260595134347_rgbf000206-resize_3/000736_2014-06-08_18-24-15_260595134347_rgbf000206-resize_3-target.png,250,3.515,39.0,2235,249,feet,jsons/v1_VE250_randls_0_rotated.json,582692,701519,38,Man
151,334008,DepthScenes,duration_manipulation_targetAtFixation,jsons/v1_VE250_randls_0_rotated.json,http://54.235.29.9/FacialAge/BNav_EC2/DepthDuration/v2_depth_duration_MTurk/v2_DepthDuration_HTML.html#150,150,1440,789,1440,900,8-20-2022,11-1-13,152,depth_duration_stimuli/000569_2014-06-09_22-51-47_260595134347_rgbf000141-resize_3/000569_2014-06-09_22-51-47_260595134347_rgbf000141-resize-original.jpg,250,4.512,0.0,2251,249,feet,jsons/v1_VE250_randls_0_rotated.json,582692,701519,38,Man
152,334008,DepthScenes,duration_manipulation_targetAtFixation,jsons/v1_VE250_randls_0_rotated.json,http://54.235.29.9/FacialAge/BNav_EC2/DepthDuration/v2_depth_duration_MTurk/v2_DepthDuration_HTML.html#150,150,1440,789,1440,900,8-20-2022,11-1-13,153,depth_duration_stimuli/001450_2014-06-19_17-02-03_260595134347_rgbf000203-resize_4/001450_2014-06-19_17-02-03_260595134347_rgbf000203-resize_4-target.png,250,4.0106666666667,50.0,6417,249,feet,jsons/v1_VE250_randls_0_rotated.json,582692,701519,38,Man
153,334008,DepthScenes,duration_manipulation_targetAtFixation,jsons/v1_VE250_randls_0_rotated.json,http://54.235.29.9/FacialAge/BNav_EC2/DepthDuration/v2_depth_duration_MTurk/v2_DepthDuration_HTML.html#150,150,1440,789,1440,900,8-20-2022,11-1-13,154,depth_duration_stimuli/001449_2014-06-19_17-01-27_260595134347_rgbf000116-resize_2/001449_2014-06-19_17-01-27_260595134347_rgbf000116-resize_2-target.png,250,3.452,58.0,2556,250,feet,jsons/v1_VE250_randls_0_rotated.json,582692,701519,38,Man
154,334008,DepthScenes,duration_manipulation_targetAtFixation,jsons/v1_VE250_randls_0_rotated.json,http://54.235.29.9/FacialAge/BNav_EC2/DepthDuration/v2_depth_duration_MTurk/v2_DepthDuration_HTML.html#150,150,1440,789,1440,900,8-20-2022,11-1-13,155,depth_duration_stimuli/002467_2014-06-28_20-38-07_260595134347_rgbf000026-resize_2/002467_2014-06-28_20-38-07_260595134347_rgbf000026-resize_2-target.png,250,4.742,60.0,2281,250,feet,jsons/v1_VE250_randls_0_rotated.json,582692,701519,38,Man
155,334008,DepthScenes,duration_manipulation_targetAtFixation,jsons/v1_VE250_randls_0_rotated.json,http://54.235.29.9/FacialAge/BNav_EC2/DepthDuration/v2_depth_duration_MTurk/v2_DepthDuration_HTML.html#150,150,1440,789,1440,900,8-20-2022,11-1-13,156,depth_duration_stimuli/002570_2014-06-24_13-59-54_094959634447_rgbf000059-resize_0/002570_2014-06-24_13-59-54_094959634447_rgbf000059-resize_0-target.png,250,4.037,10.0,2707,250,feet,jsons/v1_VE250_randls_0_rotated.json,582692,701519,38,Man
156,334008,DepthScenes,duration_manipulation_targetAtFixation,jsons/v1_VE250_randls_0_rotated.json,http://54.235.29.9/FacialAge/BNav_EC2/DepthDuration/v2_depth_duration_MTurk/v2_DepthDuration_HTML.html#150,150,1440,789,1440,900,8-20-2022,11-1-13,157,depth_duration_stimuli/002323_2014-06-28_20-01-54_260595134347_rgbf000051-resize_4/002323_2014-06-28_20-01-54_260595134347_rgbf000051-resize_4-target.png,250,3.7310000000000003,47.0,3386,250,feet,jsons/v1_VE250_randls_0_rotated.json,582692,701519,38,Man
157,334008,DepthScenes,duration_manipulation_targetAtFixation,jsons/v1_VE250_randls_0_rotated.json,http://54.235.29.9/FacialAge/BNav_EC2/DepthDuration/v2_depth_duration_MTurk/v2_DepthDuration_HTML.html#150,150,1440,789,1440,900,8-20-2022,11-1-13,158,depth_duration_stimuli/000917_2014-06-09_22-45-29_260595134347_rgbf000149-resize_3/000917_2014-06-09_22-45-29_260595134347_rgbf000149-resize_3-target.png,250,4.1865,17.0,3426,251,feet,jsons/v1_VE250_randls_0_rotated.json,582692,701519,38,Man
158,334008,DepthScenes,duration_manipulation_targetAtFixation,jsons/v1_VE250_randls_0_rotated.json,http://54.235.29.9/FacialAge/BNav_EC2/DepthDuration/v2_depth_duration_MTurk/v2_DepthDuration_HTML.html#150,150,1440,789,1440,900,8-20-2022,11-1-13,159,depth_duration_stimuli/002136_2014-06-25_21-18-03_260595134347_rgbf000109-resize_3/002136_2014-06-25_21-18-03_260595134347_rgbf000109-resize_3-target.png,250,1.9569999999999999,40.0,2747,250,feet,jsons/v1_VE250_randls_0_rotated.json,582692,701519,38,Man
159,334008,DepthScenes,duration_manipulation_targetAtFixation,jsons/v1_VE250_randls_0_rotated.json,http://54.235.29.9/FacialAge/BNav_EC2/DepthDuration/v2_depth_duration_MTurk/v2_DepthDuration_HTML.html#150,150,1440,789,1440,900,8-20-2022,11-1-13,160,depth_duration_stimuli/002964_2014-06-08_17-46-11_094959634447_rgbf000091-resize_4/002964_2014-06-08_17-46-11_094959634447_rgbf000091-resize_4-target.png,250,1.6909999999999998,478.0,5746,249,feet,jsons/v1_VE250_randls_0_rotated.json,582692,701519,38,Man
160,334008,DepthScenes,duration_manipulation_targetAtFixation,jsons/v1_VE250_randls_0_rotated.json,http://54.235.29.9/FacialAge/BNav_EC2/DepthDuration/v2_depth_duration_MTurk/v2_DepthDuration_HTML.html#150,150,1440,789,1440,900,8-20-2022,11-1-13,161,depth_duration_stimuli/000943_2014-06-09_19-31-07_260595134347_rgbf000128-resize_1/000943_2014-06-09_19-31-07_260595134347_rgbf000128-resize_1-target.png,250,1.9765,87.0,2579,251,feet,jsons/v1_VE250_randls_0_rotated.json,582692,701519,38,Man
161,334008,DepthScenes,duration_manipulation_targetAtFixation,jsons/v1_VE250_randls_0_rotated.json,http://54.235.29.9/FacialAge/BNav_EC2/DepthDuration/v2_depth_duration_MTurk/v2_DepthDuration_HTML.html#150,150,1440,789,1440,900,8-20-2022,11-1-13,162,depth_duration_stimuli/003070_2014-06-15_14-58-27_094959634447_rgbf000150-resize_3/003070_2014-06-15_14-58-27_094959634447_rgbf000150-resize_3-target.png,250,2.9415,90.0,2395,251,feet,jsons/v1_VE250_randls_0_rotated.json,582692,701519,38,Man
162,334008,DepthScenes,duration_manipulation_targetAtFixation,jsons/v1_VE250_randls_0_rotated.json,http://54.235.29.9/FacialAge/BNav_EC2/DepthDuration/v2_depth_duration_MTurk/v2_DepthDuration_HTML.html#150,150,1440,789,1440,900,8-20-2022,11-1-13,163,depth_duration_stimuli/001132_2014-06-17_14-48-54_260595134347_rgbf000100-resize_2/001132_2014-06-17_14-48-54_260595134347_rgbf000100-resize_2-target.png,250,3.753,47.0,2578,250,feet,jsons/v1_VE250_randls_0_rotated.json,582692,701519,38,Man
163,334008,DepthScenes,duration_manipulation_targetAtFixation,jsons/v1_VE250_randls_0_rotated.json,http://54.235.29.9/FacialAge/BNav_EC2/DepthDuration/v2_depth_duration_MTurk/v2_DepthDuration_HTML.html#150,150,1440,789,1440,900,8-20-2022,11-1-13,164,depth_duration_stimuli/001133_2014-06-17_14-49-16_260595134347_rgbf000100-resize_0/001133_2014-06-17_14-49-16_260595134347_rgbf000100-resize_0-target.png,250,4.2115,47.0,9002,251,feet,jsons/v1_VE250_randls_0_rotated.json,582692,701519,38,Man
