,subjID,experimentName,versionName,sequenceName,url,selected_row,windowWidth,windowHeight,screenWidth,screenHeight,startDate,startTime,trial,stimulus,duration,actual_depth,depth_estimate,trial_RT,log_sceneDuration,unitSelection,seq_filepath,experimentTime,totalTime,age,gender
0,335291,DepthScenes,duration_manipulation_targetAtFixation,jsons/VE125_randls_27_rotated.json,http://54.235.29.9/FacialAge/BNav_EC2/DepthDuration/v2_depth_duration_MTurk/v2_DepthDuration_HTML.html#316,316,2133,1076,1920,1080,8-30-2022,10-6-2,1,depth_duration_stimuli/003079_2014-06-15_15-18-20_094959634447_rgbf000152-resize_8/003079_2014-06-15_15-18-20_094959634447_rgbf000152-resize_8-target.png,125,2.8775,5,4599,126,feet,jsons/VE125_randls_27_rotated.json,672064,778153,40,Non-binary
1,335291,DepthScenes,duration_manipulation_targetAtFixation,jsons/VE125_randls_27_rotated.json,http://54.235.29.9/FacialAge/BNav_EC2/DepthDuration/v2_depth_duration_MTurk/v2_DepthDuration_HTML.html#316,316,2133,1076,1920,1080,8-30-2022,10-6-2,2,depth_duration_stimuli/000506_2014-06-08_23-21-00_260595134347_rgbf000070-resize_7/000506_2014-06-08_23-21-00_260595134347_rgbf000070-resize_7-target.png,125,4.0585,5,2872,124,feet,jsons/VE125_randls_27_rotated.json,672064,778153,40,Non-binary
2,335291,DepthScenes,duration_manipulation_targetAtFixation,jsons/VE125_randls_27_rotated.json,http://54.235.29.9/FacialAge/BNav_EC2/DepthDuration/v2_depth_duration_MTurk/v2_DepthDuration_HTML.html#316,316,2133,1076,1920,1080,8-30-2022,10-6-2,3,depth_duration_stimuli/003081_2014-06-15_15-19-16_094959634447_rgbf000150-resize_1/003081_2014-06-15_15-19-16_094959634447_rgbf000150-resize_1-target.png,125,3.9125,8,4660,123,feet,jsons/VE125_randls_27_rotated.json,672064,778153,40,Non-binary
3,335291,DepthScenes,duration_manipulation_targetAtFixation,jsons/VE125_randls_27_rotated.json,http://54.235.29.9/FacialAge/BNav_EC2/DepthDuration/v2_depth_duration_MTurk/v2_DepthDuration_HTML.html#316,316,2133,1076,1920,1080,8-30-2022,10-6-2,4,depth_duration_stimuli/001417_2014-06-19_16-25-36_260595134347_rgbf000115-resize_5/001417_2014-06-19_16-25-36_260595134347_rgbf000115-resize_5-target.png,125,4.6255,4,2846,123,feet,jsons/VE125_randls_27_rotated.json,672064,778153,40,Non-binary
4,335291,DepthScenes,duration_manipulation_targetAtFixation,jsons/VE125_randls_27_rotated.json,http://54.235.29.9/FacialAge/BNav_EC2/DepthDuration/v2_depth_duration_MTurk/v2_DepthDuration_HTML.html#316,316,2133,1076,1920,1080,8-30-2022,10-6-2,5,depth_duration_stimuli/001094_2014-06-15_17-36-00_260595134347_rgbf000205-resize_0/001094_2014-06-15_17-36-00_260595134347_rgbf000205-resize_0-target.png,125,4.2175,9,3476,112,feet,jsons/VE125_randls_27_rotated.json,672064,778153,40,Non-binary
5,335291,DepthScenes,duration_manipulation_targetAtFixation,jsons/VE125_randls_27_rotated.json,http://54.235.29.9/FacialAge/BNav_EC2/DepthDuration/v2_depth_duration_MTurk/v2_DepthDuration_HTML.html#316,316,2133,1076,1920,1080,8-30-2022,10-6-2,6,depth_duration_stimuli/000692_2014-06-08_13-09-42_260595134347_rgbf000199-resize_2/000692_2014-06-08_13-09-42_260595134347_rgbf000199-resize_2-target.png,125,3.661,8,3751,124,feet,jsons/VE125_randls_27_rotated.json,672064,778153,40,Non-binary
6,335291,DepthScenes,duration_manipulation_targetAtFixation,jsons/VE125_randls_27_rotated.json,http://54.235.29.9/FacialAge/BNav_EC2/DepthDuration/v2_depth_duration_MTurk/v2_DepthDuration_HTML.html#316,316,2133,1076,1920,1080,8-30-2022,10-6-2,7,depth_duration_stimuli/002209_2014-06-28_18-36-10_260595134347_rgbf000051-resize_1/002209_2014-06-28_18-36-10_260595134347_rgbf000051-resize_1-target.png,125,2.057,7,4225,125,feet,jsons/VE125_randls_27_rotated.json,672064,778153,40,Non-binary
7,335291,DepthScenes,duration_manipulation_targetAtFixation,jsons/VE125_randls_27_rotated.json,http://54.235.29.9/FacialAge/BNav_EC2/DepthDuration/v2_depth_duration_MTurk/v2_DepthDuration_HTML.html#316,316,2133,1076,1920,1080,8-30-2022,10-6-2,8,depth_duration_stimuli/002763_2014-06-22_19-13-10_094959634447_rgbf000075-resize_4/002763_2014-06-22_19-13-10_094959634447_rgbf000075-resize_4-target.png,125,1.68375,5,2807,124,feet,jsons/VE125_randls_27_rotated.json,672064,778153,40,Non-binary
8,335291,DepthScenes,duration_manipulation_targetAtFixation,jsons/VE125_randls_27_rotated.json,http://54.235.29.9/FacialAge/BNav_EC2/DepthDuration/v2_depth_duration_MTurk/v2_DepthDuration_HTML.html#316,316,2133,1076,1920,1080,8-30-2022,10-6-2,9,depth_duration_stimuli/000866_2014-06-09_20-45-42_260595134347_rgbf000139-resize_1/000866_2014-06-09_20-45-42_260595134347_rgbf000139-resize_1-target.png,125,3.2155,12,3605,124,feet,jsons/VE125_randls_27_rotated.json,672064,778153,40,Non-binary
9,335291,DepthScenes,duration_manipulation_targetAtFixation,jsons/VE125_randls_27_rotated.json,http://54.235.29.9/FacialAge/BNav_EC2/DepthDuration/v2_depth_duration_MTurk/v2_DepthDuration_HTML.html#316,316,2133,1076,1920,1080,8-30-2022,10-6-2,10,depth_duration_stimuli/002989_2014-06-15_12-25-03_094959634447_rgbf000150-resize_3/002989_2014-06-15_12-25-03_094959634447_rgbf000150-resize_3-target.png,125,4.1975,9,2568,123,feet,jsons/VE125_randls_27_rotated.json,672064,778153,40,Non-binary
10,335291,DepthScenes,duration_manipulation_targetAtFixation,jsons/VE125_randls_27_rotated.json,http://54.235.29.9/FacialAge/BNav_EC2/DepthDuration/v2_depth_duration_MTurk/v2_DepthDuration_HTML.html#316,316,2133,1076,1920,1080,8-30-2022,10-6-2,11,depth_duration_stimuli/002660_2014-06-13_15-44-18_094959634447_rgbf001878-resize_2/002660_2014-06-13_15-44-18_094959634447_rgbf001878-resize_2-target.png,125,3.576,8,2927,122,feet,jsons/VE125_randls_27_rotated.json,672064,778153,40,Non-binary
11,335291,DepthScenes,duration_manipulation_targetAtFixation,jsons/VE125_randls_27_rotated.json,http://54.235.29.9/FacialAge/BNav_EC2/DepthDuration/v2_depth_duration_MTurk/v2_DepthDuration_HTML.html#316,316,2133,1076,1920,1080,8-30-2022,10-6-2,12,depth_duration_stimuli/002153_2014-06-25_21-27-18_260595134347_rgbf000038-resize_5/002153_2014-06-25_21-27-18_260595134347_rgbf000038-resize_5-target.png,125,2.505,4,2885,123,feet,jsons/VE125_randls_27_rotated.json,672064,778153,40,Non-binary
12,335291,DepthScenes,duration_manipulation_targetAtFixation,jsons/VE125_randls_27_rotated.json,http://54.235.29.9/FacialAge/BNav_EC2/DepthDuration/v2_depth_duration_MTurk/v2_DepthDuration_HTML.html#316,316,2133,1076,1920,1080,8-30-2022,10-6-2,13,depth_duration_stimuli/002425_2014-06-28_20-27-29_260595134347_rgbf000031-resize_8/002425_2014-06-28_20-27-29_260595134347_rgbf000031-resize_8-target.png,125,3.8960000000000004,11,4912,125,feet,jsons/VE125_randls_27_rotated.json,672064,778153,40,Non-binary
13,335291,DepthScenes,duration_manipulation_targetAtFixation,jsons/VE125_randls_27_rotated.json,http://54.235.29.9/FacialAge/BNav_EC2/DepthDuration/v2_depth_duration_MTurk/v2_DepthDuration_HTML.html#316,316,2133,1076,1920,1080,8-30-2022,10-6-2,14,depth_duration_stimuli/000642_2014-06-08_16-59-25_260595134347_rgbf000098-resize_2/000642_2014-06-08_16-59-25_260595134347_rgbf000098-resize_2-target.png,125,2.8815,7,3188,122,feet,jsons/VE125_randls_27_rotated.json,672064,778153,40,Non-binary
14,335291,DepthScenes,duration_manipulation_targetAtFixation,jsons/VE125_randls_27_rotated.json,http://54.235.29.9/FacialAge/BNav_EC2/DepthDuration/v2_depth_duration_MTurk/v2_DepthDuration_HTML.html#316,316,2133,1076,1920,1080,8-30-2022,10-6-2,15,depth_duration_stimuli/002875_2014-06-01_15-19-00_094959634447_rgbf000151-resize_1/002875_2014-06-01_15-19-00_094959634447_rgbf000151-resize_1-target.png,125,1.9675,6,3823,123,feet,jsons/VE125_randls_27_rotated.json,672064,778153,40,Non-binary
15,335291,DepthScenes,duration_manipulation_targetAtFixation,jsons/VE125_randls_27_rotated.json,http://54.235.29.9/FacialAge/BNav_EC2/DepthDuration/v2_depth_duration_MTurk/v2_DepthDuration_HTML.html#316,316,2133,1076,1920,1080,8-30-2022,10-6-2,16,depth_duration_stimuli/001011_2014-06-08_23-18-54_260595134347_rgbf000044-resize_4/001011_2014-06-08_23-18-54_260595134347_rgbf000044-resize_4-target.png,125,2.4730000000000003,8,2545,113,feet,jsons/VE125_randls_27_rotated.json,672064,778153,40,Non-binary
16,335291,DepthScenes,duration_manipulation_targetAtFixation,jsons/VE125_randls_27_rotated.json,http://54.235.29.9/FacialAge/BNav_EC2/DepthDuration/v2_depth_duration_MTurk/v2_DepthDuration_HTML.html#316,316,2133,1076,1920,1080,8-30-2022,10-6-2,17,depth_duration_stimuli/002568_2014-06-24_13-59-21_094959634447_rgbf000062-resize_4/002568_2014-06-24_13-59-21_094959634447_rgbf000062-resize_4-target.png,125,3.015,9,3520,125,feet,jsons/VE125_randls_27_rotated.json,672064,778153,40,Non-binary
17,335291,DepthScenes,duration_manipulation_targetAtFixation,jsons/VE125_randls_27_rotated.json,http://54.235.29.9/FacialAge/BNav_EC2/DepthDuration/v2_depth_duration_MTurk/v2_DepthDuration_HTML.html#316,316,2133,1076,1920,1080,8-30-2022,10-6-2,18,depth_duration_stimuli/003492_2014-05-21_15-50-55_094959634447_rgbf000828-resize_1/003492_2014-05-21_15-50-55_094959634447_rgbf000828-resize_1-target.png,125,4.06875,9,2504,138,feet,jsons/VE125_randls_27_rotated.json,672064,778153,40,Non-binary
18,335291,DepthScenes,duration_manipulation_targetAtFixation,jsons/VE125_randls_27_rotated.json,http://54.235.29.9/FacialAge/BNav_EC2/DepthDuration/v2_depth_duration_MTurk/v2_DepthDuration_HTML.html#316,316,2133,1076,1920,1080,8-30-2022,10-6-2,19,depth_duration_stimuli/001498_2014-06-19_17-45-14_260595134347_rgbf000129-resize_4/001498_2014-06-19_17-45-14_260595134347_rgbf000129-resize-original.jpg,125,1.4075,0,2683,125,feet,jsons/VE125_randls_27_rotated.json,672064,778153,40,Non-binary
19,335291,DepthScenes,duration_manipulation_targetAtFixation,jsons/VE125_randls_27_rotated.json,http://54.235.29.9/FacialAge/BNav_EC2/DepthDuration/v2_depth_duration_MTurk/v2_DepthDuration_HTML.html#316,316,2133,1076,1920,1080,8-30-2022,10-6-2,20,depth_duration_stimuli/002467_2014-06-28_20-38-07_260595134347_rgbf000026-resize_2/002467_2014-06-28_20-38-07_260595134347_rgbf000026-resize_2-target.png,125,4.742,12,7434,125,feet,jsons/VE125_randls_27_rotated.json,672064,778153,40,Non-binary
20,335291,DepthScenes,duration_manipulation_targetAtFixation,jsons/VE125_randls_27_rotated.json,http://54.235.29.9/FacialAge/BNav_EC2/DepthDuration/v2_depth_duration_MTurk/v2_DepthDuration_HTML.html#316,316,2133,1076,1920,1080,8-30-2022,10-6-2,21,depth_duration_stimuli/002570_2014-06-24_13-59-54_094959634447_rgbf000059-resize_0/002570_2014-06-24_13-59-54_094959634447_rgbf000059-resize_0-target.png,125,4.037,9,3026,124,feet,jsons/VE125_randls_27_rotated.json,672064,778153,40,Non-binary
21,335291,DepthScenes,duration_manipulation_targetAtFixation,jsons/VE125_randls_27_rotated.json,http://54.235.29.9/FacialAge/BNav_EC2/DepthDuration/v2_depth_duration_MTurk/v2_DepthDuration_HTML.html#316,316,2133,1076,1920,1080,8-30-2022,10-6-2,22,depth_duration_stimuli/000734_2014-06-08_17-39-11_260595134347_rgbf000128-resize_2/000734_2014-06-08_17-39-11_260595134347_rgbf000128-resize_2-target.png,125,4.098,8,3406,130,feet,jsons/VE125_randls_27_rotated.json,672064,778153,40,Non-binary
22,335291,DepthScenes,duration_manipulation_targetAtFixation,jsons/VE125_randls_27_rotated.json,http://54.235.29.9/FacialAge/BNav_EC2/DepthDuration/v2_depth_duration_MTurk/v2_DepthDuration_HTML.html#316,316,2133,1076,1920,1080,8-30-2022,10-6-2,23,depth_duration_stimuli/000739_2014-06-08_18-45-58_260595134347_rgbf000068-resize_1/000739_2014-06-08_18-45-58_260595134347_rgbf000068-resize_1-target.png,125,3.534,8,2784,123,feet,jsons/VE125_randls_27_rotated.json,672064,778153,40,Non-binary
23,335291,DepthScenes,duration_manipulation_targetAtFixation,jsons/VE125_randls_27_rotated.json,http://54.235.29.9/FacialAge/BNav_EC2/DepthDuration/v2_depth_duration_MTurk/v2_DepthDuration_HTML.html#316,316,2133,1076,1920,1080,8-30-2022,10-6-2,24,depth_duration_stimuli/002199_2014-06-28_18-33-56_260595134347_rgbf000074-resize_0/002199_2014-06-28_18-33-56_260595134347_rgbf000074-resize_0-target.png,125,1.996,3,4178,123,feet,jsons/VE125_randls_27_rotated.json,672064,778153,40,Non-binary
24,335291,DepthScenes,duration_manipulation_targetAtFixation,jsons/VE125_randls_27_rotated.json,http://54.235.29.9/FacialAge/BNav_EC2/DepthDuration/v2_depth_duration_MTurk/v2_DepthDuration_HTML.html#316,316,2133,1076,1920,1080,8-30-2022,10-6-2,25,depth_duration_stimuli/001056_2014-06-08_18-46-44_260595134347_rgbf000068-resize_0/001056_2014-06-08_18-46-44_260595134347_rgbf000068-resize_0-target.png,125,2.6625,8,6017,135,feet,jsons/VE125_randls_27_rotated.json,672064,778153,40,Non-binary
25,335291,DepthScenes,duration_manipulation_targetAtFixation,jsons/VE125_randls_27_rotated.json,http://54.235.29.9/FacialAge/BNav_EC2/DepthDuration/v2_depth_duration_MTurk/v2_DepthDuration_HTML.html#316,316,2133,1076,1920,1080,8-30-2022,10-6-2,26,depth_duration_stimuli/000943_2014-06-09_19-31-07_260595134347_rgbf000128-resize_1/000943_2014-06-09_19-31-07_260595134347_rgbf000128-resize_1-target.png,125,1.9765,4,2750,124,feet,jsons/VE125_randls_27_rotated.json,672064,778153,40,Non-binary
26,335291,DepthScenes,duration_manipulation_targetAtFixation,jsons/VE125_randls_27_rotated.json,http://54.235.29.9/FacialAge/BNav_EC2/DepthDuration/v2_depth_duration_MTurk/v2_DepthDuration_HTML.html#316,316,2133,1076,1920,1080,8-30-2022,10-6-2,27,depth_duration_stimuli/003070_2014-06-15_14-58-27_094959634447_rgbf000150-resize_3/003070_2014-06-15_14-58-27_094959634447_rgbf000150-resize_3-target.png,125,2.9415,7,3824,124,feet,jsons/VE125_randls_27_rotated.json,672064,778153,40,Non-binary
27,335291,DepthScenes,duration_manipulation_targetAtFixation,jsons/VE125_randls_27_rotated.json,http://54.235.29.9/FacialAge/BNav_EC2/DepthDuration/v2_depth_duration_MTurk/v2_DepthDuration_HTML.html#316,316,2133,1076,1920,1080,8-30-2022,10-6-2,28,depth_duration_stimuli/002750_2014-06-22_19-08-03_094959634447_rgbf000094-resize_4/002750_2014-06-22_19-08-03_094959634447_rgbf000094-resize_4-target.png,125,2.354,7,2675,124,feet,jsons/VE125_randls_27_rotated.json,672064,778153,40,Non-binary
28,335291,DepthScenes,duration_manipulation_targetAtFixation,jsons/VE125_randls_27_rotated.json,http://54.235.29.9/FacialAge/BNav_EC2/DepthDuration/v2_depth_duration_MTurk/v2_DepthDuration_HTML.html#316,316,2133,1076,1920,1080,8-30-2022,10-6-2,29,depth_duration_stimuli/002549_2014-06-24_13-41-39_094959634447_rgbf000022-resize_3/002549_2014-06-24_13-41-39_094959634447_rgbf000022-resize_3-target.png,125,1.476,3,2811,124,feet,jsons/VE125_randls_27_rotated.json,672064,778153,40,Non-binary
29,335291,DepthScenes,duration_manipulation_targetAtFixation,jsons/VE125_randls_27_rotated.json,http://54.235.29.9/FacialAge/BNav_EC2/DepthDuration/v2_depth_duration_MTurk/v2_DepthDuration_HTML.html#316,316,2133,1076,1920,1080,8-30-2022,10-6-2,30,depth_duration_stimuli/002072_2014-06-24_21-48-06_260595134347_rgbf000115-resize_0/002072_2014-06-24_21-48-06_260595134347_rgbf000115-resize-original.jpg,125,4.702,0,2682,125,feet,jsons/VE125_randls_27_rotated.json,672064,778153,40,Non-binary
30,335291,DepthScenes,duration_manipulation_targetAtFixation,jsons/VE125_randls_27_rotated.json,http://54.235.29.9/FacialAge/BNav_EC2/DepthDuration/v2_depth_duration_MTurk/v2_DepthDuration_HTML.html#316,316,2133,1076,1920,1080,8-30-2022,10-6-2,31,depth_duration_stimuli/003083_2014-06-15_15-21-03_094959634447_rgbf000063-resize_1/003083_2014-06-15_15-21-03_094959634447_rgbf000063-resize_1-target.png,125,4.1405,7,3502,126,feet,jsons/VE125_randls_27_rotated.json,672064,778153,40,Non-binary
31,335291,DepthScenes,duration_manipulation_targetAtFixation,jsons/VE125_randls_27_rotated.json,http://54.235.29.9/FacialAge/BNav_EC2/DepthDuration/v2_depth_duration_MTurk/v2_DepthDuration_HTML.html#316,316,2133,1076,1920,1080,8-30-2022,10-6-2,32,depth_duration_stimuli/000486_2014-06-09_20-47-20_260595134347_rgbf000143-resize_2/000486_2014-06-09_20-47-20_260595134347_rgbf000143-resize_2-target.png,125,4.8325,9,2974,125,feet,jsons/VE125_randls_27_rotated.json,672064,778153,40,Non-binary
32,335291,DepthScenes,duration_manipulation_targetAtFixation,jsons/VE125_randls_27_rotated.json,http://54.235.29.9/FacialAge/BNav_EC2/DepthDuration/v2_depth_duration_MTurk/v2_DepthDuration_HTML.html#316,316,2133,1076,1920,1080,8-30-2022,10-6-2,33,depth_duration_stimuli/002444_2014-06-28_20-32-08_260595134347_rgbf000027-resize_0/002444_2014-06-28_20-32-08_260595134347_rgbf000027-resize_0-target.png,125,4.388999999999999,9,2540,126,feet,jsons/VE125_randls_27_rotated.json,672064,778153,40,Non-binary
33,335291,DepthScenes,duration_manipulation_targetAtFixation,jsons/VE125_randls_27_rotated.json,http://54.235.29.9/FacialAge/BNav_EC2/DepthDuration/v2_depth_duration_MTurk/v2_DepthDuration_HTML.html#316,316,2133,1076,1920,1080,8-30-2022,10-6-2,34,depth_duration_stimuli/000436_2014-06-09_22-25-11_260595134347_rgbf000137-resize_1/000436_2014-06-09_22-25-11_260595134347_rgbf000137-resize_1-target.png,125,4.0705,8,2452,126,feet,jsons/VE125_randls_27_rotated.json,672064,778153,40,Non-binary
34,335291,DepthScenes,duration_manipulation_targetAtFixation,jsons/VE125_randls_27_rotated.json,http://54.235.29.9/FacialAge/BNav_EC2/DepthDuration/v2_depth_duration_MTurk/v2_DepthDuration_HTML.html#316,316,2133,1076,1920,1080,8-30-2022,10-6-2,35,depth_duration_stimuli/000502_2014-06-08_23-02-32_260595134347_rgbf000063-resize_4/000502_2014-06-08_23-02-32_260595134347_rgbf000063-resize_4-target.png,125,2.431,4,3000,125,feet,jsons/VE125_randls_27_rotated.json,672064,778153,40,Non-binary
35,335291,DepthScenes,duration_manipulation_targetAtFixation,jsons/VE125_randls_27_rotated.json,http://54.235.29.9/FacialAge/BNav_EC2/DepthDuration/v2_depth_duration_MTurk/v2_DepthDuration_HTML.html#316,316,2133,1076,1920,1080,8-30-2022,10-6-2,36,depth_duration_stimuli/001199_2014-06-17_16-03-48_260595134347_rgbf000077-resize_0/001199_2014-06-17_16-03-48_260595134347_rgbf000077-resize_0-target.png,125,3.4375,0,3331,123,feet,jsons/VE125_randls_27_rotated.json,672064,778153,40,Non-binary
36,335291,DepthScenes,duration_manipulation_targetAtFixation,jsons/VE125_randls_27_rotated.json,http://54.235.29.9/FacialAge/BNav_EC2/DepthDuration/v2_depth_duration_MTurk/v2_DepthDuration_HTML.html#316,316,2133,1076,1920,1080,8-30-2022,10-6-2,37,depth_duration_stimuli/001136_2014-06-17_15-19-41_260595134347_rgbf000076-resize_3/001136_2014-06-17_15-19-41_260595134347_rgbf000076-resize_3-target.png,125,1.8655,6,2875,125,feet,jsons/VE125_randls_27_rotated.json,672064,778153,40,Non-binary
37,335291,DepthScenes,duration_manipulation_targetAtFixation,jsons/VE125_randls_27_rotated.json,http://54.235.29.9/FacialAge/BNav_EC2/DepthDuration/v2_depth_duration_MTurk/v2_DepthDuration_HTML.html#316,316,2133,1076,1920,1080,8-30-2022,10-6-2,38,depth_duration_stimuli/001164_2014-06-17_15-35-46_260595134347_rgbf000085-resize_3/001164_2014-06-17_15-35-46_260595134347_rgbf000085-resize_3-target.png,125,2.354,5,2002,125,feet,jsons/VE125_randls_27_rotated.json,672064,778153,40,Non-binary
38,335291,DepthScenes,duration_manipulation_targetAtFixation,jsons/VE125_randls_27_rotated.json,http://54.235.29.9/FacialAge/BNav_EC2/DepthDuration/v2_depth_duration_MTurk/v2_DepthDuration_HTML.html#316,316,2133,1076,1920,1080,8-30-2022,10-6-2,39,depth_duration_stimuli/003129_2014-05-12_10-48-10_094959634447_rgbf000100-resize_0/003129_2014-05-12_10-48-10_094959634447_rgbf000100-resize_0-target.png,125,4.9305,7,3850,125,feet,jsons/VE125_randls_27_rotated.json,672064,778153,40,Non-binary
39,335291,DepthScenes,duration_manipulation_targetAtFixation,jsons/VE125_randls_27_rotated.json,http://54.235.29.9/FacialAge/BNav_EC2/DepthDuration/v2_depth_duration_MTurk/v2_DepthDuration_HTML.html#316,316,2133,1076,1920,1080,8-30-2022,10-6-2,40,depth_duration_stimuli/000414_2014-06-04_19-49-13_260595134347_rgbf000044-resize_0/000414_2014-06-04_19-49-13_260595134347_rgbf000044-resize_0-target.png,125,4.329,8,2651,123,feet,jsons/VE125_randls_27_rotated.json,672064,778153,40,Non-binary
40,335291,DepthScenes,duration_manipulation_targetAtFixation,jsons/VE125_randls_27_rotated.json,http://54.235.29.9/FacialAge/BNav_EC2/DepthDuration/v2_depth_duration_MTurk/v2_DepthDuration_HTML.html#316,316,2133,1076,1920,1080,8-30-2022,10-6-2,41,depth_duration_stimuli/000191_2014-05-12_17-07-38_260595134347_rgbf000199-resize_0/000191_2014-05-12_17-07-38_260595134347_rgbf000199-resize_0-target.png,125,3.7995,7,3255,122,feet,jsons/VE125_randls_27_rotated.json,672064,778153,40,Non-binary
41,335291,DepthScenes,duration_manipulation_targetAtFixation,jsons/VE125_randls_27_rotated.json,http://54.235.29.9/FacialAge/BNav_EC2/DepthDuration/v2_depth_duration_MTurk/v2_DepthDuration_HTML.html#316,316,2133,1076,1920,1080,8-30-2022,10-6-2,42,depth_duration_stimuli/000493_2014-06-09_21-01-18_260595134347_rgbf000196-resize_3/000493_2014-06-09_21-01-18_260595134347_rgbf000196-resize_3-target.png,125,3.44,8,2717,126,feet,jsons/VE125_randls_27_rotated.json,672064,778153,40,Non-binary
42,335291,DepthScenes,duration_manipulation_targetAtFixation,jsons/VE125_randls_27_rotated.json,http://54.235.29.9/FacialAge/BNav_EC2/DepthDuration/v2_depth_duration_MTurk/v2_DepthDuration_HTML.html#316,316,2133,1076,1920,1080,8-30-2022,10-6-2,43,depth_duration_stimuli/001828_2014-06-26_21-40-03_260595134347_rgbf000024-resize_0/001828_2014-06-26_21-40-03_260595134347_rgbf000024-resize_0-target.png,125,4.8260000000000005,9,3246,124,feet,jsons/VE125_randls_27_rotated.json,672064,778153,40,Non-binary
43,335291,DepthScenes,duration_manipulation_targetAtFixation,jsons/VE125_randls_27_rotated.json,http://54.235.29.9/FacialAge/BNav_EC2/DepthDuration/v2_depth_duration_MTurk/v2_DepthDuration_HTML.html#316,316,2133,1076,1920,1080,8-30-2022,10-6-2,44,depth_duration_stimuli/000009_2014-05-26_14-32-05_260595134347_rgbf000034-resize_3/000009_2014-05-26_14-32-05_260595134347_rgbf000034-resize_3-target.png,125,3.8715,8,3372,123,feet,jsons/VE125_randls_27_rotated.json,672064,778153,40,Non-binary
44,335291,DepthScenes,duration_manipulation_targetAtFixation,jsons/VE125_randls_27_rotated.json,http://54.235.29.9/FacialAge/BNav_EC2/DepthDuration/v2_depth_duration_MTurk/v2_DepthDuration_HTML.html#316,316,2133,1076,1920,1080,8-30-2022,10-6-2,45,depth_duration_stimuli/002995_2014-06-15_12-31-26_094959634447_rgbf000150-resize_1/002995_2014-06-15_12-31-26_094959634447_rgbf000150-resize_1-target.png,125,3.8360000000000003,0,3061,124,feet,jsons/VE125_randls_27_rotated.json,672064,778153,40,Non-binary
45,335291,DepthScenes,duration_manipulation_targetAtFixation,jsons/VE125_randls_27_rotated.json,http://54.235.29.9/FacialAge/BNav_EC2/DepthDuration/v2_depth_duration_MTurk/v2_DepthDuration_HTML.html#316,316,2133,1076,1920,1080,8-30-2022,10-6-2,46,depth_duration_stimuli/002748_2014-06-22_19-07-22_094959634447_rgbf000078-resize_1/002748_2014-06-22_19-07-22_094959634447_rgbf000078-resize_1-target.png,125,4.6705,11,3149,124,feet,jsons/VE125_randls_27_rotated.json,672064,778153,40,Non-binary
46,335291,DepthScenes,duration_manipulation_targetAtFixation,jsons/VE125_randls_27_rotated.json,http://54.235.29.9/FacialAge/BNav_EC2/DepthDuration/v2_depth_duration_MTurk/v2_DepthDuration_HTML.html#316,316,2133,1076,1920,1080,8-30-2022,10-6-2,47,depth_duration_stimuli/000780_2014-06-08_22-28-29_260595134347_rgbf000126-resize_1/000780_2014-06-08_22-28-29_260595134347_rgbf000126-resize_1-target.png,125,3.3825,8,3444,125,feet,jsons/VE125_randls_27_rotated.json,672064,778153,40,Non-binary
47,335291,DepthScenes,duration_manipulation_targetAtFixation,jsons/VE125_randls_27_rotated.json,http://54.235.29.9/FacialAge/BNav_EC2/DepthDuration/v2_depth_duration_MTurk/v2_DepthDuration_HTML.html#316,316,2133,1076,1920,1080,8-30-2022,10-6-2,48,depth_duration_stimuli/002445_2014-06-28_20-32-16_260595134347_rgbf000029-resize_4/002445_2014-06-28_20-32-16_260595134347_rgbf000029-resize_4-target.png,125,2.5315,3,2687,126,feet,jsons/VE125_randls_27_rotated.json,672064,778153,40,Non-binary
48,335291,DepthScenes,duration_manipulation_targetAtFixation,jsons/VE125_randls_27_rotated.json,http://54.235.29.9/FacialAge/BNav_EC2/DepthDuration/v2_depth_duration_MTurk/v2_DepthDuration_HTML.html#316,316,2133,1076,1920,1080,8-30-2022,10-6-2,49,depth_duration_stimuli/001170_2014-06-17_15-43-44_260595134347_rgbf000096-resize_6/001170_2014-06-17_15-43-44_260595134347_rgbf000096-resize-original.jpg,125,1.1909999999999998,0,2424,124,feet,jsons/VE125_randls_27_rotated.json,672064,778153,40,Non-binary
49,335291,DepthScenes,duration_manipulation_targetAtFixation,jsons/VE125_randls_27_rotated.json,http://54.235.29.9/FacialAge/BNav_EC2/DepthDuration/v2_depth_duration_MTurk/v2_DepthDuration_HTML.html#316,316,2133,1076,1920,1080,8-30-2022,10-6-2,50,depth_duration_stimuli/003423_2014-05-21_10-23-26_094959634447_rgbf002665-resize_2/003423_2014-05-21_10-23-26_094959634447_rgbf002665-resize_2-target.png,125,3.2575,4,3885,125,feet,jsons/VE125_randls_27_rotated.json,672064,778153,40,Non-binary
50,335291,DepthScenes,duration_manipulation_targetAtFixation,jsons/VE125_randls_27_rotated.json,http://54.235.29.9/FacialAge/BNav_EC2/DepthDuration/v2_depth_duration_MTurk/v2_DepthDuration_HTML.html#316,316,2133,1076,1920,1080,8-30-2022,10-6-2,51,depth_duration_stimuli/002905_2014-06-03_18-04-43_094959634447_rgbf000151-resize_2/002905_2014-06-03_18-04-43_094959634447_rgbf000151-resize_2-target.png,125,2.0295,4,1729,126,feet,jsons/VE125_randls_27_rotated.json,672064,778153,40,Non-binary
51,335291,DepthScenes,duration_manipulation_targetAtFixation,jsons/VE125_randls_27_rotated.json,http://54.235.29.9/FacialAge/BNav_EC2/DepthDuration/v2_depth_duration_MTurk/v2_DepthDuration_HTML.html#316,316,2133,1076,1920,1080,8-30-2022,10-6-2,52,depth_duration_stimuli/000137_2014-05-20_17-04-49_260595134347_rgbf000120-resize_1/000137_2014-05-20_17-04-49_260595134347_rgbf000120-resize_1-target.png,125,3.786,8,2259,125,feet,jsons/VE125_randls_27_rotated.json,672064,778153,40,Non-binary
52,335291,DepthScenes,duration_manipulation_targetAtFixation,jsons/VE125_randls_27_rotated.json,http://54.235.29.9/FacialAge/BNav_EC2/DepthDuration/v2_depth_duration_MTurk/v2_DepthDuration_HTML.html#316,316,2133,1076,1920,1080,8-30-2022,10-6-2,53,depth_duration_stimuli/000736_2014-06-08_18-24-15_260595134347_rgbf000206-resize_3/000736_2014-06-08_18-24-15_260595134347_rgbf000206-resize_3-target.png,125,3.515,5,2716,125,feet,jsons/VE125_randls_27_rotated.json,672064,778153,40,Non-binary
53,335291,DepthScenes,duration_manipulation_targetAtFixation,jsons/VE125_randls_27_rotated.json,http://54.235.29.9/FacialAge/BNav_EC2/DepthDuration/v2_depth_duration_MTurk/v2_DepthDuration_HTML.html#316,316,2133,1076,1920,1080,8-30-2022,10-6-2,54,depth_duration_stimuli/002758_2014-06-22_19-11-20_094959634447_rgbf000128-resize_1/002758_2014-06-22_19-11-20_094959634447_rgbf000128-resize_1-target.png,125,2.555,5,2307,124,feet,jsons/VE125_randls_27_rotated.json,672064,778153,40,Non-binary
54,335291,DepthScenes,duration_manipulation_targetAtFixation,jsons/VE125_randls_27_rotated.json,http://54.235.29.9/FacialAge/BNav_EC2/DepthDuration/v2_depth_duration_MTurk/v2_DepthDuration_HTML.html#316,316,2133,1076,1920,1080,8-30-2022,10-6-2,55,depth_duration_stimuli/002630_2014-06-24_14-47-50_094959634447_rgbf000055-resize_1/002630_2014-06-24_14-47-50_094959634447_rgbf000055-resize_1-target.png,125,3.0095,9,3137,117,feet,jsons/VE125_randls_27_rotated.json,672064,778153,40,Non-binary
55,335291,DepthScenes,duration_manipulation_targetAtFixation,jsons/VE125_randls_27_rotated.json,http://54.235.29.9/FacialAge/BNav_EC2/DepthDuration/v2_depth_duration_MTurk/v2_DepthDuration_HTML.html#316,316,2133,1076,1920,1080,8-30-2022,10-6-2,56,depth_duration_stimuli/000742_2014-06-08_18-48-09_260595134347_rgbf000164-resize_4/000742_2014-06-08_18-48-09_260595134347_rgbf000164-resize_4-target.png,125,4.632,8,2618,124,feet,jsons/VE125_randls_27_rotated.json,672064,778153,40,Non-binary
56,335291,DepthScenes,duration_manipulation_targetAtFixation,jsons/VE125_randls_27_rotated.json,http://54.235.29.9/FacialAge/BNav_EC2/DepthDuration/v2_depth_duration_MTurk/v2_DepthDuration_HTML.html#316,316,2133,1076,1920,1080,8-30-2022,10-6-2,57,depth_duration_stimuli/001066_2014-06-08_22-03-20_260595134347_rgbf000066-resize_4/001066_2014-06-08_22-03-20_260595134347_rgbf000066-resize_4-target.png,125,4.2330000000000005,8,2576,116,feet,jsons/VE125_randls_27_rotated.json,672064,778153,40,Non-binary
57,335291,DepthScenes,duration_manipulation_targetAtFixation,jsons/VE125_randls_27_rotated.json,http://54.235.29.9/FacialAge/BNav_EC2/DepthDuration/v2_depth_duration_MTurk/v2_DepthDuration_HTML.html#316,316,2133,1076,1920,1080,8-30-2022,10-6-2,58,depth_duration_stimuli/002678_2014-06-13_16-15-32_094959634447_rgbf000151-resize_6/002678_2014-06-13_16-15-32_094959634447_rgbf000151-resize_6-target.png,125,2.1830000000000003,9,3343,124,feet,jsons/VE125_randls_27_rotated.json,672064,778153,40,Non-binary
58,335291,DepthScenes,duration_manipulation_targetAtFixation,jsons/VE125_randls_27_rotated.json,http://54.235.29.9/FacialAge/BNav_EC2/DepthDuration/v2_depth_duration_MTurk/v2_DepthDuration_HTML.html#316,316,2133,1076,1920,1080,8-30-2022,10-6-2,59,depth_duration_stimuli/000368_2014-06-09_15-53-01_260595134347_rgbf000155-resize_2/000368_2014-06-09_15-53-01_260595134347_rgbf000155-resize_2-target.png,125,2.4859999999999998,6,2874,128,feet,jsons/VE125_randls_27_rotated.json,672064,778153,40,Non-binary
59,335291,DepthScenes,duration_manipulation_targetAtFixation,jsons/VE125_randls_27_rotated.json,http://54.235.29.9/FacialAge/BNav_EC2/DepthDuration/v2_depth_duration_MTurk/v2_DepthDuration_HTML.html#316,316,2133,1076,1920,1080,8-30-2022,10-6-2,60,depth_duration_stimuli/003495_2014-05-21_16-01-51_094959634447_rgbf000100-resize_3/003495_2014-05-21_16-01-51_094959634447_rgbf000100-resize_3-target.png,125,1.6255,2,3231,124,feet,jsons/VE125_randls_27_rotated.json,672064,778153,40,Non-binary
60,335291,DepthScenes,duration_manipulation_targetAtFixation,jsons/VE125_randls_27_rotated.json,http://54.235.29.9/FacialAge/BNav_EC2/DepthDuration/v2_depth_duration_MTurk/v2_DepthDuration_HTML.html#316,316,2133,1076,1920,1080,8-30-2022,10-6-2,61,depth_duration_stimuli/001244_2014-06-17_16-47-45_260595134347_rgbf000030-resize_4/001244_2014-06-17_16-47-45_260595134347_rgbf000030-resize_4-target.png,125,2.0425,7,4927,123,feet,jsons/VE125_randls_27_rotated.json,672064,778153,40,Non-binary
61,335291,DepthScenes,duration_manipulation_targetAtFixation,jsons/VE125_randls_27_rotated.json,http://54.235.29.9/FacialAge/BNav_EC2/DepthDuration/v2_depth_duration_MTurk/v2_DepthDuration_HTML.html#316,316,2133,1076,1920,1080,8-30-2022,10-6-2,62,depth_duration_stimuli/000854_2014-06-09_19-43-13_260595134347_rgbf000066-resize_0/000854_2014-06-09_19-43-13_260595134347_rgbf000066-resize_0-target.png,125,3.068,5,3268,136,feet,jsons/VE125_randls_27_rotated.json,672064,778153,40,Non-binary
62,335291,DepthScenes,duration_manipulation_targetAtFixation,jsons/VE125_randls_27_rotated.json,http://54.235.29.9/FacialAge/BNav_EC2/DepthDuration/v2_depth_duration_MTurk/v2_DepthDuration_HTML.html#316,316,2133,1076,1920,1080,8-30-2022,10-6-2,63,depth_duration_stimuli/000758_2014-06-08_22-05-08_260595134347_rgbf000085-resize_0/000758_2014-06-08_22-05-08_260595134347_rgbf000085-resize_0-target.png,125,3.3810000000000002,5,5625,113,feet,jsons/VE125_randls_27_rotated.json,672064,778153,40,Non-binary
63,335291,DepthScenes,duration_manipulation_targetAtFixation,jsons/VE125_randls_27_rotated.json,http://54.235.29.9/FacialAge/BNav_EC2/DepthDuration/v2_depth_duration_MTurk/v2_DepthDuration_HTML.html#316,316,2133,1076,1920,1080,8-30-2022,10-6-2,64,depth_duration_stimuli/001584_2014-06-20_11-07-43_260595134347_rgbf000002-resize_1/001584_2014-06-20_11-07-43_260595134347_rgbf000002-resize_1-target.png,125,3.53,8,5118,123,feet,jsons/VE125_randls_27_rotated.json,672064,778153,40,Non-binary
64,335291,DepthScenes,duration_manipulation_targetAtFixation,jsons/VE125_randls_27_rotated.json,http://54.235.29.9/FacialAge/BNav_EC2/DepthDuration/v2_depth_duration_MTurk/v2_DepthDuration_HTML.html#316,316,2133,1076,1920,1080,8-30-2022,10-6-2,65,depth_duration_stimuli/003621_2014-05-23_18-06-08_094959634447_rgbf000101-resize_1/003621_2014-05-23_18-06-08_094959634447_rgbf000101-resize_1-target.png,125,3.9835,11,3334,126,feet,jsons/VE125_randls_27_rotated.json,672064,778153,40,Non-binary
65,335291,DepthScenes,duration_manipulation_targetAtFixation,jsons/VE125_randls_27_rotated.json,http://54.235.29.9/FacialAge/BNav_EC2/DepthDuration/v2_depth_duration_MTurk/v2_DepthDuration_HTML.html#316,316,2133,1076,1920,1080,8-30-2022,10-6-2,66,depth_duration_stimuli/001540_2014-06-20_17-01-05_260595134347_rgbf000086-resize_2/001540_2014-06-20_17-01-05_260595134347_rgbf000086-resize-original.jpg,125,1.459,0,3083,126,feet,jsons/VE125_randls_27_rotated.json,672064,778153,40,Non-binary
66,335291,DepthScenes,duration_manipulation_targetAtFixation,jsons/VE125_randls_27_rotated.json,http://54.235.29.9/FacialAge/BNav_EC2/DepthDuration/v2_depth_duration_MTurk/v2_DepthDuration_HTML.html#316,316,2133,1076,1920,1080,8-30-2022,10-6-2,67,depth_duration_stimuli/001617_2014-06-20_11-35-32_260595134347_rgbf000066-resize_1/001617_2014-06-20_11-35-32_260595134347_rgbf000066-resize_1-target.png,125,3.7910000000000004,11,2876,125,feet,jsons/VE125_randls_27_rotated.json,672064,778153,40,Non-binary
67,335291,DepthScenes,duration_manipulation_targetAtFixation,jsons/VE125_randls_27_rotated.json,http://54.235.29.9/FacialAge/BNav_EC2/DepthDuration/v2_depth_duration_MTurk/v2_DepthDuration_HTML.html#316,316,2133,1076,1920,1080,8-30-2022,10-6-2,68,depth_duration_stimuli/001806_2014-06-26_20-50-20_260595134347_rgbf000091-resize_1/001806_2014-06-26_20-50-20_260595134347_rgbf000091-resize_1-target.png,125,2.7305,4,2681,121,feet,jsons/VE125_randls_27_rotated.json,672064,778153,40,Non-binary
68,335291,DepthScenes,duration_manipulation_targetAtFixation,jsons/VE125_randls_27_rotated.json,http://54.235.29.9/FacialAge/BNav_EC2/DepthDuration/v2_depth_duration_MTurk/v2_DepthDuration_HTML.html#316,316,2133,1076,1920,1080,8-30-2022,10-6-2,69,depth_duration_stimuli/000556_2014-06-09_22-42-56_260595134347_rgbf000214-resize_1/000556_2014-06-09_22-42-56_260595134347_rgbf000214-resize_1-target.png,125,4.8415,8,3210,123,feet,jsons/VE125_randls_27_rotated.json,672064,778153,40,Non-binary
69,335291,DepthScenes,duration_manipulation_targetAtFixation,jsons/VE125_randls_27_rotated.json,http://54.235.29.9/FacialAge/BNav_EC2/DepthDuration/v2_depth_duration_MTurk/v2_DepthDuration_HTML.html#316,316,2133,1076,1920,1080,8-30-2022,10-6-2,70,depth_duration_stimuli/001158_2014-06-17_15-32-16_260595134347_rgbf000138-resize_2/001158_2014-06-17_15-32-16_260595134347_rgbf000138-resize_2-target.png,125,4.5315,8,3073,125,feet,jsons/VE125_randls_27_rotated.json,672064,778153,40,Non-binary
70,335291,DepthScenes,duration_manipulation_targetAtFixation,jsons/VE125_randls_27_rotated.json,http://54.235.29.9/FacialAge/BNav_EC2/DepthDuration/v2_depth_duration_MTurk/v2_DepthDuration_HTML.html#316,316,2133,1076,1920,1080,8-30-2022,10-6-2,71,depth_duration_stimuli/000635_2014-06-08_16-38-42_260595134347_rgbf000106-resize_1/000635_2014-06-08_16-38-42_260595134347_rgbf000106-resize_1-target.png,125,2.074,7,5167,125,feet,jsons/VE125_randls_27_rotated.json,672064,778153,40,Non-binary
71,335291,DepthScenes,duration_manipulation_targetAtFixation,jsons/VE125_randls_27_rotated.json,http://54.235.29.9/FacialAge/BNav_EC2/DepthDuration/v2_depth_duration_MTurk/v2_DepthDuration_HTML.html#316,316,2133,1076,1920,1080,8-30-2022,10-6-2,72,depth_duration_stimuli/002279_2014-06-28_18-55-32_260595134347_rgbf000040-resize_5/002279_2014-06-28_18-55-32_260595134347_rgbf000040-resize_5-target.png,125,1.5043333333333,5,2603,125,feet,jsons/VE125_randls_27_rotated.json,672064,778153,40,Non-binary
72,335291,DepthScenes,duration_manipulation_targetAtFixation,jsons/VE125_randls_27_rotated.json,http://54.235.29.9/FacialAge/BNav_EC2/DepthDuration/v2_depth_duration_MTurk/v2_DepthDuration_HTML.html#316,316,2133,1076,1920,1080,8-30-2022,10-6-2,73,depth_duration_stimuli/002637_2014-06-24_14-51-13_094959634447_rgbf000066-resize_4/002637_2014-06-24_14-51-13_094959634447_rgbf000066-resize_4-target.png,125,1.9955,6,2557,126,feet,jsons/VE125_randls_27_rotated.json,672064,778153,40,Non-binary
73,335291,DepthScenes,duration_manipulation_targetAtFixation,jsons/VE125_randls_27_rotated.json,http://54.235.29.9/FacialAge/BNav_EC2/DepthDuration/v2_depth_duration_MTurk/v2_DepthDuration_HTML.html#316,316,2133,1076,1920,1080,8-30-2022,10-6-2,74,depth_duration_stimuli/003534_2014-05-22_15-06-10_094959634447_rgbf000102-resize_4/003534_2014-05-22_15-06-10_094959634447_rgbf000102-resize_4-target.png,125,1.426,2,3146,125,feet,jsons/VE125_randls_27_rotated.json,672064,778153,40,Non-binary
74,335291,DepthScenes,duration_manipulation_targetAtFixation,jsons/VE125_randls_27_rotated.json,http://54.235.29.9/FacialAge/BNav_EC2/DepthDuration/v2_depth_duration_MTurk/v2_DepthDuration_HTML.html#316,316,2133,1076,1920,1080,8-30-2022,10-6-2,75,depth_duration_stimuli/000409_2014-06-04_19-23-33_260595134347_rgbf000067-resize_0/000409_2014-06-04_19-23-33_260595134347_rgbf000067-resize_0-target.png,125,3.7335,6,5113,126,feet,jsons/VE125_randls_27_rotated.json,672064,778153,40,Non-binary
75,335291,DepthScenes,duration_manipulation_targetAtFixation,jsons/VE125_randls_27_rotated.json,http://54.235.29.9/FacialAge/BNav_EC2/DepthDuration/v2_depth_duration_MTurk/v2_DepthDuration_HTML.html#316,316,2133,1076,1920,1080,8-30-2022,10-6-2,76,depth_duration_stimuli/002663_2014-06-13_15-50-26_094959634447_rgbf000075-resize_1/002663_2014-06-13_15-50-26_094959634447_rgbf000075-resize_1-target.png,125,4.7495,9,3150,134,feet,jsons/VE125_randls_27_rotated.json,672064,778153,40,Non-binary
76,335291,DepthScenes,duration_manipulation_targetAtFixation,jsons/VE125_randls_27_rotated.json,http://54.235.29.9/FacialAge/BNav_EC2/DepthDuration/v2_depth_duration_MTurk/v2_DepthDuration_HTML.html#316,316,2133,1076,1920,1080,8-30-2022,10-6-2,77,depth_duration_stimuli/003010_2014-06-15_12-54-35_094959634447_rgbf000112-resize_0/003010_2014-06-15_12-54-35_094959634447_rgbf000112-resize_0-target.png,125,3.1185,10,2969,126,feet,jsons/VE125_randls_27_rotated.json,672064,778153,40,Non-binary
77,335291,DepthScenes,duration_manipulation_targetAtFixation,jsons/VE125_randls_27_rotated.json,http://54.235.29.9/FacialAge/BNav_EC2/DepthDuration/v2_depth_duration_MTurk/v2_DepthDuration_HTML.html#316,316,2133,1076,1920,1080,8-30-2022,10-6-2,78,depth_duration_stimuli/001810_2014-06-26_20-51-35_260595134347_rgbf000040-resize_3/001810_2014-06-26_20-51-35_260595134347_rgbf000040-resize_3-target.png,125,2.2525,5,2581,139,feet,jsons/VE125_randls_27_rotated.json,672064,778153,40,Non-binary
78,335291,DepthScenes,duration_manipulation_targetAtFixation,jsons/VE125_randls_27_rotated.json,http://54.235.29.9/FacialAge/BNav_EC2/DepthDuration/v2_depth_duration_MTurk/v2_DepthDuration_HTML.html#316,316,2133,1076,1920,1080,8-30-2022,10-6-2,79,depth_duration_stimuli/001214_2014-06-17_16-13-55_260595134347_rgbf000111-resize_0/001214_2014-06-17_16-13-55_260595134347_rgbf000111-resize_0-target.png,125,2.6505,7,3189,114,feet,jsons/VE125_randls_27_rotated.json,672064,778153,40,Non-binary
79,335291,DepthScenes,duration_manipulation_targetAtFixation,jsons/VE125_randls_27_rotated.json,http://54.235.29.9/FacialAge/BNav_EC2/DepthDuration/v2_depth_duration_MTurk/v2_DepthDuration_HTML.html#316,316,2133,1076,1920,1080,8-30-2022,10-6-2,80,depth_duration_stimuli/000810_2014-06-08_17-20-01_260595134347_rgbf000105-resize_0/000810_2014-06-08_17-20-01_260595134347_rgbf000105-resize_0-target.png,125,1.4865,8,3428,127,feet,jsons/VE125_randls_27_rotated.json,672064,778153,40,Non-binary
80,335291,DepthScenes,duration_manipulation_targetAtFixation,jsons/VE125_randls_27_rotated.json,http://54.235.29.9/FacialAge/BNav_EC2/DepthDuration/v2_depth_duration_MTurk/v2_DepthDuration_HTML.html#316,316,2133,1076,1920,1080,8-30-2022,10-6-2,81,depth_duration_stimuli/000103_2014-05-14_22-01-17_260595134347_rgbf000152-resize_5/000103_2014-05-14_22-01-17_260595134347_rgbf000152-resize_5-target.png,125,1.993,6,3910,126,feet,jsons/VE125_randls_27_rotated.json,672064,778153,40,Non-binary
81,335291,DepthScenes,duration_manipulation_targetAtFixation,jsons/VE125_randls_27_rotated.json,http://54.235.29.9/FacialAge/BNav_EC2/DepthDuration/v2_depth_duration_MTurk/v2_DepthDuration_HTML.html#316,316,2133,1076,1920,1080,8-30-2022,10-6-2,82,depth_duration_stimuli/001555_2014-06-20_17-12-10_260595134347_rgbf000065-resize_4/001555_2014-06-20_17-12-10_260595134347_rgbf000065-resize_4-target.png,125,1.633,3,3613,135,feet,jsons/VE125_randls_27_rotated.json,672064,778153,40,Non-binary
82,335291,DepthScenes,duration_manipulation_targetAtFixation,jsons/VE125_randls_27_rotated.json,http://54.235.29.9/FacialAge/BNav_EC2/DepthDuration/v2_depth_duration_MTurk/v2_DepthDuration_HTML.html#316,316,2133,1076,1920,1080,8-30-2022,10-6-2,83,depth_duration_stimuli/001132_2014-06-17_14-48-54_260595134347_rgbf000100-resize_2/001132_2014-06-17_14-48-54_260595134347_rgbf000100-resize_2-target.png,125,3.753,5,12811,135,feet,jsons/VE125_randls_27_rotated.json,672064,778153,40,Non-binary
83,335291,DepthScenes,duration_manipulation_targetAtFixation,jsons/VE125_randls_27_rotated.json,http://54.235.29.9/FacialAge/BNav_EC2/DepthDuration/v2_depth_duration_MTurk/v2_DepthDuration_HTML.html#316,316,2133,1076,1920,1080,8-30-2022,10-6-2,84,depth_duration_stimuli/001133_2014-06-17_14-49-16_260595134347_rgbf000100-resize_0/001133_2014-06-17_14-49-16_260595134347_rgbf000100-resize_0-target.png,125,4.2115,6,3113,124,feet,jsons/VE125_randls_27_rotated.json,672064,778153,40,Non-binary
84,335291,DepthScenes,duration_manipulation_targetAtFixation,jsons/VE125_randls_27_rotated.json,http://54.235.29.9/FacialAge/BNav_EC2/DepthDuration/v2_depth_duration_MTurk/v2_DepthDuration_HTML.html#316,316,2133,1076,1920,1080,8-30-2022,10-6-2,85,depth_duration_stimuli/002323_2014-06-28_20-01-54_260595134347_rgbf000051-resize_4/002323_2014-06-28_20-01-54_260595134347_rgbf000051-resize_4-target.png,125,3.7310000000000003,7,6069,125,feet,jsons/VE125_randls_27_rotated.json,672064,778153,40,Non-binary
85,335291,DepthScenes,duration_manipulation_targetAtFixation,jsons/VE125_randls_27_rotated.json,http://54.235.29.9/FacialAge/BNav_EC2/DepthDuration/v2_depth_duration_MTurk/v2_DepthDuration_HTML.html#316,316,2133,1076,1920,1080,8-30-2022,10-6-2,86,depth_duration_stimuli/000917_2014-06-09_22-45-29_260595134347_rgbf000149-resize_3/000917_2014-06-09_22-45-29_260595134347_rgbf000149-resize_3-target.png,125,4.1865,0,11118,133,feet,jsons/VE125_randls_27_rotated.json,672064,778153,40,Non-binary
86,335291,DepthScenes,duration_manipulation_targetAtFixation,jsons/VE125_randls_27_rotated.json,http://54.235.29.9/FacialAge/BNav_EC2/DepthDuration/v2_depth_duration_MTurk/v2_DepthDuration_HTML.html#316,316,2133,1076,1920,1080,8-30-2022,10-6-2,87,depth_duration_stimuli/002545_2014-06-24_13-38-53_094959634447_rgbf000080-resize_4/002545_2014-06-24_13-38-53_094959634447_rgbf000080-resize_4-target.png,125,1.9205,6,5685,125,feet,jsons/VE125_randls_27_rotated.json,672064,778153,40,Non-binary
87,335291,DepthScenes,duration_manipulation_targetAtFixation,jsons/VE125_randls_27_rotated.json,http://54.235.29.9/FacialAge/BNav_EC2/DepthDuration/v2_depth_duration_MTurk/v2_DepthDuration_HTML.html#316,316,2133,1076,1920,1080,8-30-2022,10-6-2,88,depth_duration_stimuli/001092_2014-06-15_17-34-58_260595134347_rgbf000171-resize_3/001092_2014-06-15_17-34-58_260595134347_rgbf000171-resize_3-target.png,125,2.6935,4,2789,123,feet,jsons/VE125_randls_27_rotated.json,672064,778153,40,Non-binary
88,335291,DepthScenes,duration_manipulation_targetAtFixation,jsons/VE125_randls_27_rotated.json,http://54.235.29.9/FacialAge/BNav_EC2/DepthDuration/v2_depth_duration_MTurk/v2_DepthDuration_HTML.html#316,316,2133,1076,1920,1080,8-30-2022,10-6-2,89,depth_duration_stimuli/002344_2014-06-28_20-06-29_260595134347_rgbf000030-resize_1/002344_2014-06-28_20-06-29_260595134347_rgbf000030-resize_1-target.png,125,1.5795,2,2988,137,feet,jsons/VE125_randls_27_rotated.json,672064,778153,40,Non-binary
89,335291,DepthScenes,duration_manipulation_targetAtFixation,jsons/VE125_randls_27_rotated.json,http://54.235.29.9/FacialAge/BNav_EC2/DepthDuration/v2_depth_duration_MTurk/v2_DepthDuration_HTML.html#316,316,2133,1076,1920,1080,8-30-2022,10-6-2,90,depth_duration_stimuli/002725_2014-06-22_11-47-51_094959634447_rgbf000070-resize_1/002725_2014-06-22_11-47-51_094959634447_rgbf000070-resize_1-target.png,125,2.195,7,22796,125,feet,jsons/VE125_randls_27_rotated.json,672064,778153,40,Non-binary
90,335291,DepthScenes,duration_manipulation_targetAtFixation,jsons/VE125_randls_27_rotated.json,http://54.235.29.9/FacialAge/BNav_EC2/DepthDuration/v2_depth_duration_MTurk/v2_DepthDuration_HTML.html#316,316,2133,1076,1920,1080,8-30-2022,10-6-2,91,depth_duration_stimuli/001450_2014-06-19_17-02-03_260595134347_rgbf000203-resize_4/001450_2014-06-19_17-02-03_260595134347_rgbf000203-resize_4-target.png,125,4.0106666666667,9,2835,132,feet,jsons/VE125_randls_27_rotated.json,672064,778153,40,Non-binary
91,335291,DepthScenes,duration_manipulation_targetAtFixation,jsons/VE125_randls_27_rotated.json,http://54.235.29.9/FacialAge/BNav_EC2/DepthDuration/v2_depth_duration_MTurk/v2_DepthDuration_HTML.html#316,316,2133,1076,1920,1080,8-30-2022,10-6-2,92,depth_duration_stimuli/001449_2014-06-19_17-01-27_260595134347_rgbf000116-resize_2/001449_2014-06-19_17-01-27_260595134347_rgbf000116-resize_2-target.png,125,3.452,0,2764,136,feet,jsons/VE125_randls_27_rotated.json,672064,778153,40,Non-binary
92,335291,DepthScenes,duration_manipulation_targetAtFixation,jsons/VE125_randls_27_rotated.json,http://54.235.29.9/FacialAge/BNav_EC2/DepthDuration/v2_depth_duration_MTurk/v2_DepthDuration_HTML.html#316,316,2133,1076,1920,1080,8-30-2022,10-6-2,93,depth_duration_stimuli/000457_2014-06-08_16-52-43_260595134347_rgbf000199-resize_1/000457_2014-06-08_16-52-43_260595134347_rgbf000199-resize_1-target.png,125,3.6489999999999996,8,3059,125,feet,jsons/VE125_randls_27_rotated.json,672064,778153,40,Non-binary
93,335291,DepthScenes,duration_manipulation_targetAtFixation,jsons/VE125_randls_27_rotated.json,http://54.235.29.9/FacialAge/BNav_EC2/DepthDuration/v2_depth_duration_MTurk/v2_DepthDuration_HTML.html#316,316,2133,1076,1920,1080,8-30-2022,10-6-2,94,depth_duration_stimuli/000929_2014-06-09_16-33-19_260595134347_rgbf000139-resize_0/000929_2014-06-09_16-33-19_260595134347_rgbf000139-resize_0-target.png,125,2.8680000000000003,6,2754,125,feet,jsons/VE125_randls_27_rotated.json,672064,778153,40,Non-binary
94,335291,DepthScenes,duration_manipulation_targetAtFixation,jsons/VE125_randls_27_rotated.json,http://54.235.29.9/FacialAge/BNav_EC2/DepthDuration/v2_depth_duration_MTurk/v2_DepthDuration_HTML.html#316,316,2133,1076,1920,1080,8-30-2022,10-6-2,95,depth_duration_stimuli/001235_2014-06-17_16-37-36_260595134347_rgbf000084-resize_4/001235_2014-06-17_16-37-36_260595134347_rgbf000084-resize_4-target.png,125,3.6605,6,2560,124,feet,jsons/VE125_randls_27_rotated.json,672064,778153,40,Non-binary
95,335291,DepthScenes,duration_manipulation_targetAtFixation,jsons/VE125_randls_27_rotated.json,http://54.235.29.9/FacialAge/BNav_EC2/DepthDuration/v2_depth_duration_MTurk/v2_DepthDuration_HTML.html#316,316,2133,1076,1920,1080,8-30-2022,10-6-2,96,depth_duration_stimuli/000788_2014-06-08_22-34-36_260595134347_rgbf000131-resize_1/000788_2014-06-08_22-34-36_260595134347_rgbf000131-resize_1-target.png,125,3.359,7,4357,110,feet,jsons/VE125_randls_27_rotated.json,672064,778153,40,Non-binary
96,335291,DepthScenes,duration_manipulation_targetAtFixation,jsons/VE125_randls_27_rotated.json,http://54.235.29.9/FacialAge/BNav_EC2/DepthDuration/v2_depth_duration_MTurk/v2_DepthDuration_HTML.html#316,316,2133,1076,1920,1080,8-30-2022,10-6-2,97,depth_duration_stimuli/000927_2014-06-09_16-32-30_260595134347_rgbf000123-resize_3/000927_2014-06-09_16-32-30_260595134347_rgbf000123-resize_3-target.png,125,2.6785,8,2441,138,feet,jsons/VE125_randls_27_rotated.json,672064,778153,40,Non-binary
97,335291,DepthScenes,duration_manipulation_targetAtFixation,jsons/VE125_randls_27_rotated.json,http://54.235.29.9/FacialAge/BNav_EC2/DepthDuration/v2_depth_duration_MTurk/v2_DepthDuration_HTML.html#316,316,2133,1076,1920,1080,8-30-2022,10-6-2,98,depth_duration_stimuli/001110_2014-06-15_17-25-28_260595134347_rgbf000150-resize_1/001110_2014-06-15_17-25-28_260595134347_rgbf000150-resize_1-target.png,125,1.7115,4,2998,125,feet,jsons/VE125_randls_27_rotated.json,672064,778153,40,Non-binary
98,335291,DepthScenes,duration_manipulation_targetAtFixation,jsons/VE125_randls_27_rotated.json,http://54.235.29.9/FacialAge/BNav_EC2/DepthDuration/v2_depth_duration_MTurk/v2_DepthDuration_HTML.html#316,316,2133,1076,1920,1080,8-30-2022,10-6-2,99,depth_duration_stimuli/001222_2014-06-17_16-24-06_260595134347_rgbf000073-resize_0/001222_2014-06-17_16-24-06_260595134347_rgbf000073-resize-original.jpg,125,1.4385,0,3006,125,feet,jsons/VE125_randls_27_rotated.json,672064,778153,40,Non-binary
99,335291,DepthScenes,duration_manipulation_targetAtFixation,jsons/VE125_randls_27_rotated.json,http://54.235.29.9/FacialAge/BNav_EC2/DepthDuration/v2_depth_duration_MTurk/v2_DepthDuration_HTML.html#316,316,2133,1076,1920,1080,8-30-2022,10-6-2,100,depth_duration_stimuli/003587_2014-05-23_16-48-02_094959634447_rgbf002384-resize_2/003587_2014-05-23_16-48-02_094959634447_rgbf002384-resize_2-target.png,125,1.357,5,3426,125,feet,jsons/VE125_randls_27_rotated.json,672064,778153,40,Non-binary
100,335291,DepthScenes,duration_manipulation_targetAtFixation,jsons/VE125_randls_27_rotated.json,http://54.235.29.9/FacialAge/BNav_EC2/DepthDuration/v2_depth_duration_MTurk/v2_DepthDuration_HTML.html#316,316,2133,1076,1920,1080,8-30-2022,10-6-2,101,depth_duration_stimuli/001167_2014-06-17_15-38-07_260595134347_rgbf000108-resize_0/001167_2014-06-17_15-38-07_260595134347_rgbf000108-resize_0-target.png,125,1.8505,4,2761,124,feet,jsons/VE125_randls_27_rotated.json,672064,778153,40,Non-binary
101,335291,DepthScenes,duration_manipulation_targetAtFixation,jsons/VE125_randls_27_rotated.json,http://54.235.29.9/FacialAge/BNav_EC2/DepthDuration/v2_depth_duration_MTurk/v2_DepthDuration_HTML.html#316,316,2133,1076,1920,1080,8-30-2022,10-6-2,102,depth_duration_stimuli/001571_2014-06-20_17-21-32_260595134347_rgbf000089-resize_1/001571_2014-06-20_17-21-32_260595134347_rgbf000089-resize_1-target.png,125,1.86,3,2402,125,feet,jsons/VE125_randls_27_rotated.json,672064,778153,40,Non-binary
102,335291,DepthScenes,duration_manipulation_targetAtFixation,jsons/VE125_randls_27_rotated.json,http://54.235.29.9/FacialAge/BNav_EC2/DepthDuration/v2_depth_duration_MTurk/v2_DepthDuration_HTML.html#316,316,2133,1076,1920,1080,8-30-2022,10-6-2,103,depth_duration_stimuli/002272_2014-06-28_18-53-56_260595134347_rgbf000067-resize_2/002272_2014-06-28_18-53-56_260595134347_rgbf000067-resize_2-target.png,125,1.138,3,2300,116,feet,jsons/VE125_randls_27_rotated.json,672064,778153,40,Non-binary
103,335291,DepthScenes,duration_manipulation_targetAtFixation,jsons/VE125_randls_27_rotated.json,http://54.235.29.9/FacialAge/BNav_EC2/DepthDuration/v2_depth_duration_MTurk/v2_DepthDuration_HTML.html#316,316,2133,1076,1920,1080,8-30-2022,10-6-2,104,depth_duration_stimuli/000665_2014-06-09_20-42-35_260595134347_rgbf000110-resize_1/000665_2014-06-09_20-42-35_260595134347_rgbf000110-resize_1-target.png,125,3.057,5,4192,109,feet,jsons/VE125_randls_27_rotated.json,672064,778153,40,Non-binary
104,335291,DepthScenes,duration_manipulation_targetAtFixation,jsons/VE125_randls_27_rotated.json,http://54.235.29.9/FacialAge/BNav_EC2/DepthDuration/v2_depth_duration_MTurk/v2_DepthDuration_HTML.html#316,316,2133,1076,1920,1080,8-30-2022,10-6-2,105,depth_duration_stimuli/001150_2014-06-17_15-27-34_260595134347_rgbf000108-resize_2/001150_2014-06-17_15-27-34_260595134347_rgbf000108-resize_2-target.png,125,4.0325,8,5855,124,feet,jsons/VE125_randls_27_rotated.json,672064,778153,40,Non-binary
105,335291,DepthScenes,duration_manipulation_targetAtFixation,jsons/VE125_randls_27_rotated.json,http://54.235.29.9/FacialAge/BNav_EC2/DepthDuration/v2_depth_duration_MTurk/v2_DepthDuration_HTML.html#316,316,2133,1076,1920,1080,8-30-2022,10-6-2,106,depth_duration_stimuli/000109_2014-05-14_23-41-52_260595134347_rgbf000035-resize_9/000109_2014-05-14_23-41-52_260595134347_rgbf000035-resize_9-target.png,125,1.3545,6,4006,122,feet,jsons/VE125_randls_27_rotated.json,672064,778153,40,Non-binary
106,335291,DepthScenes,duration_manipulation_targetAtFixation,jsons/VE125_randls_27_rotated.json,http://54.235.29.9/FacialAge/BNav_EC2/DepthDuration/v2_depth_duration_MTurk/v2_DepthDuration_HTML.html#316,316,2133,1076,1920,1080,8-30-2022,10-6-2,107,depth_duration_stimuli/000470_2014-06-09_19-42-40_260595134347_rgbf000094-resize_1/000470_2014-06-09_19-42-40_260595134347_rgbf000094-resize_1-target.png,125,1.831,4,2823,125,feet,jsons/VE125_randls_27_rotated.json,672064,778153,40,Non-binary
107,335291,DepthScenes,duration_manipulation_targetAtFixation,jsons/VE125_randls_27_rotated.json,http://54.235.29.9/FacialAge/BNav_EC2/DepthDuration/v2_depth_duration_MTurk/v2_DepthDuration_HTML.html#316,316,2133,1076,1920,1080,8-30-2022,10-6-2,108,depth_duration_stimuli/002953_2014-06-08_17-32-18_094959634447_rgbf000059-resize_5/002953_2014-06-08_17-32-18_094959634447_rgbf000059-resize_5-target.png,125,1.551,0,4074,124,feet,jsons/VE125_randls_27_rotated.json,672064,778153,40,Non-binary
108,335291,DepthScenes,duration_manipulation_targetAtFixation,jsons/VE125_randls_27_rotated.json,http://54.235.29.9/FacialAge/BNav_EC2/DepthDuration/v2_depth_duration_MTurk/v2_DepthDuration_HTML.html#316,316,2133,1076,1920,1080,8-30-2022,10-6-2,109,depth_duration_stimuli/000878_2014-06-08_22-52-45_260595134347_rgbf000045-resize_2/000878_2014-06-08_22-52-45_260595134347_rgbf000045-resize_2-target.png,125,2.092,0,2640,125,feet,jsons/VE125_randls_27_rotated.json,672064,778153,40,Non-binary
109,335291,DepthScenes,duration_manipulation_targetAtFixation,jsons/VE125_randls_27_rotated.json,http://54.235.29.9/FacialAge/BNav_EC2/DepthDuration/v2_depth_duration_MTurk/v2_DepthDuration_HTML.html#316,316,2133,1076,1920,1080,8-30-2022,10-6-2,110,depth_duration_stimuli/000677_2014-06-08_23-10-32_260595134347_rgbf000158-resize_6/000677_2014-06-08_23-10-32_260595134347_rgbf000158-resize_6-target.png,125,3.556,7,3015,125,feet,jsons/VE125_randls_27_rotated.json,672064,778153,40,Non-binary
110,335291,DepthScenes,duration_manipulation_targetAtFixation,jsons/VE125_randls_27_rotated.json,http://54.235.29.9/FacialAge/BNav_EC2/DepthDuration/v2_depth_duration_MTurk/v2_DepthDuration_HTML.html#316,316,2133,1076,1920,1080,8-30-2022,10-6-2,111,depth_duration_stimuli/001029_2014-06-08_13-17-57_260595134347_rgbf000065-resize_1/001029_2014-06-08_13-17-57_260595134347_rgbf000065-resize_1-target.png,125,3.0835,5,2834,125,feet,jsons/VE125_randls_27_rotated.json,672064,778153,40,Non-binary
111,335291,DepthScenes,duration_manipulation_targetAtFixation,jsons/VE125_randls_27_rotated.json,http://54.235.29.9/FacialAge/BNav_EC2/DepthDuration/v2_depth_duration_MTurk/v2_DepthDuration_HTML.html#316,316,2133,1076,1920,1080,8-30-2022,10-6-2,112,depth_duration_stimuli/001100_2014-06-15_17-46-26_260595134347_rgbf000225-resize_2/001100_2014-06-15_17-46-26_260595134347_rgbf000225-resize_2-target.png,125,2.24,3,2538,123,feet,jsons/VE125_randls_27_rotated.json,672064,778153,40,Non-binary
112,335291,DepthScenes,duration_manipulation_targetAtFixation,jsons/VE125_randls_27_rotated.json,http://54.235.29.9/FacialAge/BNav_EC2/DepthDuration/v2_depth_duration_MTurk/v2_DepthDuration_HTML.html#316,316,2133,1076,1920,1080,8-30-2022,10-6-2,113,depth_duration_stimuli/002784_2014-06-22_19-26-30_094959634447_rgbf000083-resize_3/002784_2014-06-22_19-26-30_094959634447_rgbf000083-resize_3-target.png,125,1.8046666666667,6,3237,125,feet,jsons/VE125_randls_27_rotated.json,672064,778153,40,Non-binary
113,335291,DepthScenes,duration_manipulation_targetAtFixation,jsons/VE125_randls_27_rotated.json,http://54.235.29.9/FacialAge/BNav_EC2/DepthDuration/v2_depth_duration_MTurk/v2_DepthDuration_HTML.html#316,316,2133,1076,1920,1080,8-30-2022,10-6-2,114,depth_duration_stimuli/003228_2014-05-14_13-42-35_094959634447_rgbf000101-resize_1/003228_2014-05-14_13-42-35_094959634447_rgbf000101-resize_1-target.png,125,1.9680000000000002,4,2573,125,feet,jsons/VE125_randls_27_rotated.json,672064,778153,40,Non-binary
114,335291,DepthScenes,duration_manipulation_targetAtFixation,jsons/VE125_randls_27_rotated.json,http://54.235.29.9/FacialAge/BNav_EC2/DepthDuration/v2_depth_duration_MTurk/v2_DepthDuration_HTML.html#316,316,2133,1076,1920,1080,8-30-2022,10-6-2,115,depth_duration_stimuli/002600_2014-06-24_14-27-04_094959634447_rgbf000074-resize_2/002600_2014-06-24_14-27-04_094959634447_rgbf000074-resize_2-target.png,125,2.7575,5,3810,125,feet,jsons/VE125_randls_27_rotated.json,672064,778153,40,Non-binary
115,335291,DepthScenes,duration_manipulation_targetAtFixation,jsons/VE125_randls_27_rotated.json,http://54.235.29.9/FacialAge/BNav_EC2/DepthDuration/v2_depth_duration_MTurk/v2_DepthDuration_HTML.html#316,316,2133,1076,1920,1080,8-30-2022,10-6-2,116,depth_duration_stimuli/003048_2014-06-15_13-49-43_094959634447_rgbf000150-resize_1/003048_2014-06-15_13-49-43_094959634447_rgbf000150-resize_1-target.png,125,4.0035,8,2748,131,feet,jsons/VE125_randls_27_rotated.json,672064,778153,40,Non-binary
116,335291,DepthScenes,duration_manipulation_targetAtFixation,jsons/VE125_randls_27_rotated.json,http://54.235.29.9/FacialAge/BNav_EC2/DepthDuration/v2_depth_duration_MTurk/v2_DepthDuration_HTML.html#316,316,2133,1076,1920,1080,8-30-2022,10-6-2,117,depth_duration_stimuli/002043_2014-06-24_20-29-38_260595134347_rgbf000039-resize_4/002043_2014-06-24_20-29-38_260595134347_rgbf000039-resize_4-target.png,125,2.8435,6,3165,124,feet,jsons/VE125_randls_27_rotated.json,672064,778153,40,Non-binary
117,335291,DepthScenes,duration_manipulation_targetAtFixation,jsons/VE125_randls_27_rotated.json,http://54.235.29.9/FacialAge/BNav_EC2/DepthDuration/v2_depth_duration_MTurk/v2_DepthDuration_HTML.html#316,316,2133,1076,1920,1080,8-30-2022,10-6-2,118,depth_duration_stimuli/002103_2014-06-25_20-00-40_260595134347_rgbf000049-resize_0/002103_2014-06-25_20-00-40_260595134347_rgbf000049-resize_0-target.png,125,4.105,10,6778,126,feet,jsons/VE125_randls_27_rotated.json,672064,778153,40,Non-binary
118,335291,DepthScenes,duration_manipulation_targetAtFixation,jsons/VE125_randls_27_rotated.json,http://54.235.29.9/FacialAge/BNav_EC2/DepthDuration/v2_depth_duration_MTurk/v2_DepthDuration_HTML.html#316,316,2133,1076,1920,1080,8-30-2022,10-6-2,119,depth_duration_stimuli/002039_2014-06-24_20-22-38_260595134347_rgbf000084-resize_1/002039_2014-06-24_20-22-38_260595134347_rgbf000084-resize_1-target.png,125,4.408,9,3721,125,feet,jsons/VE125_randls_27_rotated.json,672064,778153,40,Non-binary
119,335291,DepthScenes,duration_manipulation_targetAtFixation,jsons/VE125_randls_27_rotated.json,http://54.235.29.9/FacialAge/BNav_EC2/DepthDuration/v2_depth_duration_MTurk/v2_DepthDuration_HTML.html#316,316,2133,1076,1920,1080,8-30-2022,10-6-2,120,depth_duration_stimuli/000787_2014-06-08_22-33-53_260595134347_rgbf000175-resize_1/000787_2014-06-08_22-33-53_260595134347_rgbf000175-resize-original.jpg,125,4.784,0,2918,124,feet,jsons/VE125_randls_27_rotated.json,672064,778153,40,Non-binary
120,335291,DepthScenes,duration_manipulation_targetAtFixation,jsons/VE125_randls_27_rotated.json,http://54.235.29.9/FacialAge/BNav_EC2/DepthDuration/v2_depth_duration_MTurk/v2_DepthDuration_HTML.html#316,316,2133,1076,1920,1080,8-30-2022,10-6-2,121,depth_duration_stimuli/000709_2014-06-08_13-51-55_260595134347_rgbf000068-resize_3/000709_2014-06-08_13-51-55_260595134347_rgbf000068-resize_3-target.png,125,1.8030000000000002,5,3139,126,feet,jsons/VE125_randls_27_rotated.json,672064,778153,40,Non-binary
121,335291,DepthScenes,duration_manipulation_targetAtFixation,jsons/VE125_randls_27_rotated.json,http://54.235.29.9/FacialAge/BNav_EC2/DepthDuration/v2_depth_duration_MTurk/v2_DepthDuration_HTML.html#316,316,2133,1076,1920,1080,8-30-2022,10-6-2,122,depth_duration_stimuli/002057_2014-06-24_21-00-13_260595134347_rgbf000120-resize_1/002057_2014-06-24_21-00-13_260595134347_rgbf000120-resize_1-target.png,125,2.967,7,2831,126,feet,jsons/VE125_randls_27_rotated.json,672064,778153,40,Non-binary
122,335291,DepthScenes,duration_manipulation_targetAtFixation,jsons/VE125_randls_27_rotated.json,http://54.235.29.9/FacialAge/BNav_EC2/DepthDuration/v2_depth_duration_MTurk/v2_DepthDuration_HTML.html#316,316,2133,1076,1920,1080,8-30-2022,10-6-2,123,depth_duration_stimuli/002949_2014-06-26_15-57-42_094959634447_rgbf000079-resize_1/002949_2014-06-26_15-57-42_094959634447_rgbf000079-resize_1-target.png,125,1.8915,4,21253,125,feet,jsons/VE125_randls_27_rotated.json,672064,778153,40,Non-binary
123,335291,DepthScenes,duration_manipulation_targetAtFixation,jsons/VE125_randls_27_rotated.json,http://54.235.29.9/FacialAge/BNav_EC2/DepthDuration/v2_depth_duration_MTurk/v2_DepthDuration_HTML.html#316,316,2133,1076,1920,1080,8-30-2022,10-6-2,124,depth_duration_stimuli/000522_2014-06-08_13-35-06_260595134347_rgbf000244-resize_1/000522_2014-06-08_13-35-06_260595134347_rgbf000244-resize_1-target.png,125,2.3715,3,3424,124,feet,jsons/VE125_randls_27_rotated.json,672064,778153,40,Non-binary
124,335291,DepthScenes,duration_manipulation_targetAtFixation,jsons/VE125_randls_27_rotated.json,http://54.235.29.9/FacialAge/BNav_EC2/DepthDuration/v2_depth_duration_MTurk/v2_DepthDuration_HTML.html#316,316,2133,1076,1920,1080,8-30-2022,10-6-2,125,depth_duration_stimuli/001516_2014-06-20_16-25-09_260595134347_rgbf000076-resize_2/001516_2014-06-20_16-25-09_260595134347_rgbf000076-resize_2-target.png,125,1.7445,7,2664,125,feet,jsons/VE125_randls_27_rotated.json,672064,778153,40,Non-binary
125,335291,DepthScenes,duration_manipulation_targetAtFixation,jsons/VE125_randls_27_rotated.json,http://54.235.29.9/FacialAge/BNav_EC2/DepthDuration/v2_depth_duration_MTurk/v2_DepthDuration_HTML.html#316,316,2133,1076,1920,1080,8-30-2022,10-6-2,126,depth_duration_stimuli/002118_2014-06-25_20-32-08_260595134347_rgbf000078-resize_1/002118_2014-06-25_20-32-08_260595134347_rgbf000078-resize_1-target.png,125,2.6460000000000004,6,2830,125,feet,jsons/VE125_randls_27_rotated.json,672064,778153,40,Non-binary
126,335291,DepthScenes,duration_manipulation_targetAtFixation,jsons/VE125_randls_27_rotated.json,http://54.235.29.9/FacialAge/BNav_EC2/DepthDuration/v2_depth_duration_MTurk/v2_DepthDuration_HTML.html#316,316,2133,1076,1920,1080,8-30-2022,10-6-2,127,depth_duration_stimuli/002657_2014-06-13_15-29-54_094959634447_rgbf000150-resize_1/002657_2014-06-13_15-29-54_094959634447_rgbf000150-resize_1-target.png,125,4.919,7,2759,125,feet,jsons/VE125_randls_27_rotated.json,672064,778153,40,Non-binary
127,335291,DepthScenes,duration_manipulation_targetAtFixation,jsons/VE125_randls_27_rotated.json,http://54.235.29.9/FacialAge/BNav_EC2/DepthDuration/v2_depth_duration_MTurk/v2_DepthDuration_HTML.html#316,316,2133,1076,1920,1080,8-30-2022,10-6-2,128,depth_duration_stimuli/002375_2014-06-28_20-13-44_260595134347_rgbf000032-resize_1/002375_2014-06-28_20-13-44_260595134347_rgbf000032-resize_1-target.png,125,4.0175,4,2627,125,feet,jsons/VE125_randls_27_rotated.json,672064,778153,40,Non-binary
128,335291,DepthScenes,duration_manipulation_targetAtFixation,jsons/VE125_randls_27_rotated.json,http://54.235.29.9/FacialAge/BNav_EC2/DepthDuration/v2_depth_duration_MTurk/v2_DepthDuration_HTML.html#316,316,2133,1076,1920,1080,8-30-2022,10-6-2,129,depth_duration_stimuli/002414_2014-06-28_20-24-58_260595134347_rgbf000067-resize_4/002414_2014-06-28_20-24-58_260595134347_rgbf000067-resize_4-target.png,125,4.363,8,2958,129,feet,jsons/VE125_randls_27_rotated.json,672064,778153,40,Non-binary
129,335291,DepthScenes,duration_manipulation_targetAtFixation,jsons/VE125_randls_27_rotated.json,http://54.235.29.9/FacialAge/BNav_EC2/DepthDuration/v2_depth_duration_MTurk/v2_DepthDuration_HTML.html#316,316,2133,1076,1920,1080,8-30-2022,10-6-2,130,depth_duration_stimuli/000773_2014-06-08_22-24-54_260595134347_rgbf000093-resize_1/000773_2014-06-08_22-24-54_260595134347_rgbf000093-resize_1-target.png,125,4.973,7,3128,125,feet,jsons/VE125_randls_27_rotated.json,672064,778153,40,Non-binary
130,335291,DepthScenes,duration_manipulation_targetAtFixation,jsons/VE125_randls_27_rotated.json,http://54.235.29.9/FacialAge/BNav_EC2/DepthDuration/v2_depth_duration_MTurk/v2_DepthDuration_HTML.html#316,316,2133,1076,1920,1080,8-30-2022,10-6-2,131,depth_duration_stimuli/001650_2014-06-20_12-09-00_260595134347_rgbf000087-resize_3/001650_2014-06-20_12-09-00_260595134347_rgbf000087-resize_3-target.png,125,1.9505,3,5137,124,feet,jsons/VE125_randls_27_rotated.json,672064,778153,40,Non-binary
131,335291,DepthScenes,duration_manipulation_targetAtFixation,jsons/VE125_randls_27_rotated.json,http://54.235.29.9/FacialAge/BNav_EC2/DepthDuration/v2_depth_duration_MTurk/v2_DepthDuration_HTML.html#316,316,2133,1076,1920,1080,8-30-2022,10-6-2,132,depth_duration_stimuli/000682_2014-06-08_23-14-58_260595134347_rgbf000041-resize_5/000682_2014-06-08_23-14-58_260595134347_rgbf000041-resize_5-target.png,125,2.7239999999999998,6,3024,127,feet,jsons/VE125_randls_27_rotated.json,672064,778153,40,Non-binary
132,335291,DepthScenes,duration_manipulation_targetAtFixation,jsons/VE125_randls_27_rotated.json,http://54.235.29.9/FacialAge/BNav_EC2/DepthDuration/v2_depth_duration_MTurk/v2_DepthDuration_HTML.html#316,316,2133,1076,1920,1080,8-30-2022,10-6-2,133,depth_duration_stimuli/000691_2014-06-08_13-08-50_260595134347_rgbf000132-resize_3/000691_2014-06-08_13-08-50_260595134347_rgbf000132-resize_3-target.png,125,4.1530000000000005,7,2531,125,feet,jsons/VE125_randls_27_rotated.json,672064,778153,40,Non-binary
133,335291,DepthScenes,duration_manipulation_targetAtFixation,jsons/VE125_randls_27_rotated.json,http://54.235.29.9/FacialAge/BNav_EC2/DepthDuration/v2_depth_duration_MTurk/v2_DepthDuration_HTML.html#316,316,2133,1076,1920,1080,8-30-2022,10-6-2,134,depth_duration_stimuli/002213_2014-06-28_18-37-58_260595134347_rgbf000055-resize_1/002213_2014-06-28_18-37-58_260595134347_rgbf000055-resize_1-target.png,125,3.62,8,2564,123,feet,jsons/VE125_randls_27_rotated.json,672064,778153,40,Non-binary
134,335291,DepthScenes,duration_manipulation_targetAtFixation,jsons/VE125_randls_27_rotated.json,http://54.235.29.9/FacialAge/BNav_EC2/DepthDuration/v2_depth_duration_MTurk/v2_DepthDuration_HTML.html#316,316,2133,1076,1920,1080,8-30-2022,10-6-2,135,depth_duration_stimuli/000375_2014-06-08_11-17-29_260595134347_rgbf000133-resize_2/000375_2014-06-08_11-17-29_260595134347_rgbf000133-resize-original.jpg,125,4.718,0,2605,125,feet,jsons/VE125_randls_27_rotated.json,672064,778153,40,Non-binary
135,335291,DepthScenes,duration_manipulation_targetAtFixation,jsons/VE125_randls_27_rotated.json,http://54.235.29.9/FacialAge/BNav_EC2/DepthDuration/v2_depth_duration_MTurk/v2_DepthDuration_HTML.html#316,316,2133,1076,1920,1080,8-30-2022,10-6-2,136,depth_duration_stimuli/002805_2014-06-22_19-54-03_094959634447_rgbf000079-resize_1/002805_2014-06-22_19-54-03_094959634447_rgbf000079-resize_1-target.png,125,3.1439999999999997,6,2710,126,feet,jsons/VE125_randls_27_rotated.json,672064,778153,40,Non-binary
136,335291,DepthScenes,duration_manipulation_targetAtFixation,jsons/VE125_randls_27_rotated.json,http://54.235.29.9/FacialAge/BNav_EC2/DepthDuration/v2_depth_duration_MTurk/v2_DepthDuration_HTML.html#316,316,2133,1076,1920,1080,8-30-2022,10-6-2,137,depth_duration_stimuli/000906_2014-06-08_13-35-43_260595134347_rgbf000155-resize_1/000906_2014-06-08_13-35-43_260595134347_rgbf000155-resize_1-target.png,125,2.8489999999999998,8,9440,129,feet,jsons/VE125_randls_27_rotated.json,672064,778153,40,Non-binary
137,335291,DepthScenes,duration_manipulation_targetAtFixation,jsons/VE125_randls_27_rotated.json,http://54.235.29.9/FacialAge/BNav_EC2/DepthDuration/v2_depth_duration_MTurk/v2_DepthDuration_HTML.html#316,316,2133,1076,1920,1080,8-30-2022,10-6-2,138,depth_duration_stimuli/001032_2014-06-08_13-23-17_260595134347_rgbf000021-resize_3/001032_2014-06-08_13-23-17_260595134347_rgbf000021-resize_3-target.png,125,3.2725,6,3099,125,feet,jsons/VE125_randls_27_rotated.json,672064,778153,40,Non-binary
138,335291,DepthScenes,duration_manipulation_targetAtFixation,jsons/VE125_randls_27_rotated.json,http://54.235.29.9/FacialAge/BNav_EC2/DepthDuration/v2_depth_duration_MTurk/v2_DepthDuration_HTML.html#316,316,2133,1076,1920,1080,8-30-2022,10-6-2,139,depth_duration_stimuli/001059_2014-06-08_21-53-27_260595134347_rgbf000061-resize_4/001059_2014-06-08_21-53-27_260595134347_rgbf000061-resize_4-target.png,125,2.4185,7,1757,124,feet,jsons/VE125_randls_27_rotated.json,672064,778153,40,Non-binary
139,335291,DepthScenes,duration_manipulation_targetAtFixation,jsons/VE125_randls_27_rotated.json,http://54.235.29.9/FacialAge/BNav_EC2/DepthDuration/v2_depth_duration_MTurk/v2_DepthDuration_HTML.html#316,316,2133,1076,1920,1080,8-30-2022,10-6-2,140,depth_duration_stimuli/001815_2014-06-26_20-52-55_260595134347_rgbf000020-resize_0/001815_2014-06-26_20-52-55_260595134347_rgbf000020-resize_0-target.png,125,3.3865,9,2471,124,feet,jsons/VE125_randls_27_rotated.json,672064,778153,40,Non-binary
140,335291,DepthScenes,duration_manipulation_targetAtFixation,jsons/VE125_randls_27_rotated.json,http://54.235.29.9/FacialAge/BNav_EC2/DepthDuration/v2_depth_duration_MTurk/v2_DepthDuration_HTML.html#316,316,2133,1076,1920,1080,8-30-2022,10-6-2,141,depth_duration_stimuli/001808_2014-06-26_20-50-58_260595134347_rgbf000029-resize_1/001808_2014-06-26_20-50-58_260595134347_rgbf000029-resize_1-target.png,125,4.249,8,2596,124,feet,jsons/VE125_randls_27_rotated.json,672064,778153,40,Non-binary
141,335291,DepthScenes,duration_manipulation_targetAtFixation,jsons/VE125_randls_27_rotated.json,http://54.235.29.9/FacialAge/BNav_EC2/DepthDuration/v2_depth_duration_MTurk/v2_DepthDuration_HTML.html#316,316,2133,1076,1920,1080,8-30-2022,10-6-2,142,depth_duration_stimuli/002136_2014-06-25_21-18-03_260595134347_rgbf000109-resize_3/002136_2014-06-25_21-18-03_260595134347_rgbf000109-resize_3-target.png,125,1.9569999999999999,3,2701,124,feet,jsons/VE125_randls_27_rotated.json,672064,778153,40,Non-binary
142,335291,DepthScenes,duration_manipulation_targetAtFixation,jsons/VE125_randls_27_rotated.json,http://54.235.29.9/FacialAge/BNav_EC2/DepthDuration/v2_depth_duration_MTurk/v2_DepthDuration_HTML.html#316,316,2133,1076,1920,1080,8-30-2022,10-6-2,143,depth_duration_stimuli/002964_2014-06-08_17-46-11_094959634447_rgbf000091-resize_4/002964_2014-06-08_17-46-11_094959634447_rgbf000091-resize_4-target.png,125,1.6909999999999998,3,2066,125,feet,jsons/VE125_randls_27_rotated.json,672064,778153,40,Non-binary
143,335291,DepthScenes,duration_manipulation_targetAtFixation,jsons/VE125_randls_27_rotated.json,http://54.235.29.9/FacialAge/BNav_EC2/DepthDuration/v2_depth_duration_MTurk/v2_DepthDuration_HTML.html#316,316,2133,1076,1920,1080,8-30-2022,10-6-2,144,depth_duration_stimuli/002639_2014-06-24_14-51-37_094959634447_rgbf000074-resize_4/002639_2014-06-24_14-51-37_094959634447_rgbf000074-resize_4-target.png,125,4.0375,6,3087,125,feet,jsons/VE125_randls_27_rotated.json,672064,778153,40,Non-binary
144,335291,DepthScenes,duration_manipulation_targetAtFixation,jsons/VE125_randls_27_rotated.json,http://54.235.29.9/FacialAge/BNav_EC2/DepthDuration/v2_depth_duration_MTurk/v2_DepthDuration_HTML.html#316,316,2133,1076,1920,1080,8-30-2022,10-6-2,145,depth_duration_stimuli/003292_2014-05-14_21-53-49_094959634447_rgbf000100-resize_2/003292_2014-05-14_21-53-49_094959634447_rgbf000100-resize_2-target.png,125,3.4815,5,2725,125,feet,jsons/VE125_randls_27_rotated.json,672064,778153,40,Non-binary
145,335291,DepthScenes,duration_manipulation_targetAtFixation,jsons/VE125_randls_27_rotated.json,http://54.235.29.9/FacialAge/BNav_EC2/DepthDuration/v2_depth_duration_MTurk/v2_DepthDuration_HTML.html#316,316,2133,1076,1920,1080,8-30-2022,10-6-2,146,depth_duration_stimuli/003338_2014-05-20_11-01-23_094959634447_rgbf000051-resize_6/003338_2014-05-20_11-01-23_094959634447_rgbf000051-resize_6-target.png,125,1.693,4,2369,127,feet,jsons/VE125_randls_27_rotated.json,672064,778153,40,Non-binary
146,335291,DepthScenes,duration_manipulation_targetAtFixation,jsons/VE125_randls_27_rotated.json,http://54.235.29.9/FacialAge/BNav_EC2/DepthDuration/v2_depth_duration_MTurk/v2_DepthDuration_HTML.html#316,316,2133,1076,1920,1080,8-30-2022,10-6-2,147,depth_duration_stimuli/002509_2014-06-24_13-19-22_094959634447_rgbf000077-resize_0/002509_2014-06-24_13-19-22_094959634447_rgbf000077-resize_0-target.png,125,1.3065,4,2616,125,feet,jsons/VE125_randls_27_rotated.json,672064,778153,40,Non-binary
147,335291,DepthScenes,duration_manipulation_targetAtFixation,jsons/VE125_randls_27_rotated.json,http://54.235.29.9/FacialAge/BNav_EC2/DepthDuration/v2_depth_duration_MTurk/v2_DepthDuration_HTML.html#316,316,2133,1076,1920,1080,8-30-2022,10-6-2,148,depth_duration_stimuli/000549_2014-06-08_22-10-24_260595134347_rgbf000247-resize_3/000549_2014-06-08_22-10-24_260595134347_rgbf000247-resize_3-target.png,125,1.841,3,2573,124,feet,jsons/VE125_randls_27_rotated.json,672064,778153,40,Non-binary
148,335291,DepthScenes,duration_manipulation_targetAtFixation,jsons/VE125_randls_27_rotated.json,http://54.235.29.9/FacialAge/BNav_EC2/DepthDuration/v2_depth_duration_MTurk/v2_DepthDuration_HTML.html#316,316,2133,1076,1920,1080,8-30-2022,10-6-2,149,depth_duration_stimuli/001055_2014-06-08_18-45-35_260595134347_rgbf000111-resize_4/001055_2014-06-08_18-45-35_260595134347_rgbf000111-resize_4-target.png,125,2.4290000000000003,9,3893,129,feet,jsons/VE125_randls_27_rotated.json,672064,778153,40,Non-binary
149,335291,DepthScenes,duration_manipulation_targetAtFixation,jsons/VE125_randls_27_rotated.json,http://54.235.29.9/FacialAge/BNav_EC2/DepthDuration/v2_depth_duration_MTurk/v2_DepthDuration_HTML.html#316,316,2133,1076,1920,1080,8-30-2022,10-6-2,150,depth_duration_stimuli/001052_2014-06-08_18-24-54_260595134347_rgbf000130-resize_1/001052_2014-06-08_18-24-54_260595134347_rgbf000130-resize_1-target.png,125,4.1045,9,3595,124,feet,jsons/VE125_randls_27_rotated.json,672064,778153,40,Non-binary
150,335291,DepthScenes,duration_manipulation_targetAtFixation,jsons/VE125_randls_27_rotated.json,http://54.235.29.9/FacialAge/BNav_EC2/DepthDuration/v2_depth_duration_MTurk/v2_DepthDuration_HTML.html#316,316,2133,1076,1920,1080,8-30-2022,10-6-2,151,depth_duration_stimuli/002988_2014-06-15_12-24-20_094959634447_rgbf000150-resize_1/002988_2014-06-15_12-24-20_094959634447_rgbf000150-resize_1-target.png,125,4.7669999999999995,9,2568,124,feet,jsons/VE125_randls_27_rotated.json,672064,778153,40,Non-binary
151,335291,DepthScenes,duration_manipulation_targetAtFixation,jsons/VE125_randls_27_rotated.json,http://54.235.29.9/FacialAge/BNav_EC2/DepthDuration/v2_depth_duration_MTurk/v2_DepthDuration_HTML.html#316,316,2133,1076,1920,1080,8-30-2022,10-6-2,152,depth_duration_stimuli/000569_2014-06-09_22-51-47_260595134347_rgbf000141-resize_3/000569_2014-06-09_22-51-47_260595134347_rgbf000141-resize-original.jpg,125,4.512,0,2526,125,feet,jsons/VE125_randls_27_rotated.json,672064,778153,40,Non-binary
152,335291,DepthScenes,duration_manipulation_targetAtFixation,jsons/VE125_randls_27_rotated.json,http://54.235.29.9/FacialAge/BNav_EC2/DepthDuration/v2_depth_duration_MTurk/v2_DepthDuration_HTML.html#316,316,2133,1076,1920,1080,8-30-2022,10-6-2,153,depth_duration_stimuli/001392_2014-06-19_16-07-59_260595134347_rgbf000046-resize_1/001392_2014-06-19_16-07-59_260595134347_rgbf000046-resize_1-target.png,125,4.135,8,2492,125,feet,jsons/VE125_randls_27_rotated.json,672064,778153,40,Non-binary
153,335291,DepthScenes,duration_manipulation_targetAtFixation,jsons/VE125_randls_27_rotated.json,http://54.235.29.9/FacialAge/BNav_EC2/DepthDuration/v2_depth_duration_MTurk/v2_DepthDuration_HTML.html#316,316,2133,1076,1920,1080,8-30-2022,10-6-2,154,depth_duration_stimuli/001570_2014-06-20_17-21-09_260595134347_rgbf000135-resize_4/001570_2014-06-20_17-21-09_260595134347_rgbf000135-resize_4-target.png,125,4.467,9,2865,125,feet,jsons/VE125_randls_27_rotated.json,672064,778153,40,Non-binary
154,335291,DepthScenes,duration_manipulation_targetAtFixation,jsons/VE125_randls_27_rotated.json,http://54.235.29.9/FacialAge/BNav_EC2/DepthDuration/v2_depth_duration_MTurk/v2_DepthDuration_HTML.html#316,316,2133,1076,1920,1080,8-30-2022,10-6-2,155,depth_duration_stimuli/001447_2014-06-19_17-00-32_260595134347_rgbf000082-resize_5/001447_2014-06-19_17-00-32_260595134347_rgbf000082-resize_5-target.png,125,4.13775,7,3138,125,feet,jsons/VE125_randls_27_rotated.json,672064,778153,40,Non-binary
155,335291,DepthScenes,duration_manipulation_targetAtFixation,jsons/VE125_randls_27_rotated.json,http://54.235.29.9/FacialAge/BNav_EC2/DepthDuration/v2_depth_duration_MTurk/v2_DepthDuration_HTML.html#316,316,2133,1076,1920,1080,8-30-2022,10-6-2,156,depth_duration_stimuli/000447_2014-06-08_16-15-46_260595134347_rgbf000130-resize_1/000447_2014-06-08_16-15-46_260595134347_rgbf000130-resize_1-target.png,125,4.479,9,2668,124,feet,jsons/VE125_randls_27_rotated.json,672064,778153,40,Non-binary
156,335291,DepthScenes,duration_manipulation_targetAtFixation,jsons/VE125_randls_27_rotated.json,http://54.235.29.9/FacialAge/BNav_EC2/DepthDuration/v2_depth_duration_MTurk/v2_DepthDuration_HTML.html#316,316,2133,1076,1920,1080,8-30-2022,10-6-2,157,depth_duration_stimuli/002340_2014-06-28_20-05-46_260595134347_rgbf000113-resize_0/002340_2014-06-28_20-05-46_260595134347_rgbf000113-resize_0-target.png,125,2.4735,7,3423,125,feet,jsons/VE125_randls_27_rotated.json,672064,778153,40,Non-binary
157,335291,DepthScenes,duration_manipulation_targetAtFixation,jsons/VE125_randls_27_rotated.json,http://54.235.29.9/FacialAge/BNav_EC2/DepthDuration/v2_depth_duration_MTurk/v2_DepthDuration_HTML.html#316,316,2133,1076,1920,1080,8-30-2022,10-6-2,158,depth_duration_stimuli/001016_2014-06-09_16-16-10_260595134347_rgbf000112-resize_5/001016_2014-06-09_16-16-10_260595134347_rgbf000112-resize_5-target.png,125,1.6565,5,3167,124,feet,jsons/VE125_randls_27_rotated.json,672064,778153,40,Non-binary
158,335291,DepthScenes,duration_manipulation_targetAtFixation,jsons/VE125_randls_27_rotated.json,http://54.235.29.9/FacialAge/BNav_EC2/DepthDuration/v2_depth_duration_MTurk/v2_DepthDuration_HTML.html#316,316,2133,1076,1920,1080,8-30-2022,10-6-2,159,depth_duration_stimuli/003490_2014-05-21_15-50-11_094959634447_rgbf000101-resize_3/003490_2014-05-21_15-50-11_094959634447_rgbf000101-resize_3-target.png,125,3.6445,5,2173,125,feet,jsons/VE125_randls_27_rotated.json,672064,778153,40,Non-binary
159,335291,DepthScenes,duration_manipulation_targetAtFixation,jsons/VE125_randls_27_rotated.json,http://54.235.29.9/FacialAge/BNav_EC2/DepthDuration/v2_depth_duration_MTurk/v2_DepthDuration_HTML.html#316,316,2133,1076,1920,1080,8-30-2022,10-6-2,160,depth_duration_stimuli/001175_2014-06-17_15-45-55_260595134347_rgbf000129-resize_4/001175_2014-06-17_15-45-55_260595134347_rgbf000129-resize_4-target.png,125,4.255,9,6622,123,feet,jsons/VE125_randls_27_rotated.json,672064,778153,40,Non-binary
160,335291,DepthScenes,duration_manipulation_targetAtFixation,jsons/VE125_randls_27_rotated.json,http://54.235.29.9/FacialAge/BNav_EC2/DepthDuration/v2_depth_duration_MTurk/v2_DepthDuration_HTML.html#316,316,2133,1076,1920,1080,8-30-2022,10-6-2,161,depth_duration_stimuli/000749_2014-06-08_21-55-06_260595134347_rgbf000070-resize_2/000749_2014-06-08_21-55-06_260595134347_rgbf000070-resize_2-target.png,125,2.331,5,2994,125,feet,jsons/VE125_randls_27_rotated.json,672064,778153,40,Non-binary
161,335291,DepthScenes,duration_manipulation_targetAtFixation,jsons/VE125_randls_27_rotated.json,http://54.235.29.9/FacialAge/BNav_EC2/DepthDuration/v2_depth_duration_MTurk/v2_DepthDuration_HTML.html#316,316,2133,1076,1920,1080,8-30-2022,10-6-2,162,depth_duration_stimuli/002788_2014-06-22_19-36-03_094959634447_rgbf000088-resize_2/002788_2014-06-22_19-36-03_094959634447_rgbf000088-resize_2-target.png,125,1.6465,5,2140,124,feet,jsons/VE125_randls_27_rotated.json,672064,778153,40,Non-binary
162,335291,DepthScenes,duration_manipulation_targetAtFixation,jsons/VE125_randls_27_rotated.json,http://54.235.29.9/FacialAge/BNav_EC2/DepthDuration/v2_depth_duration_MTurk/v2_DepthDuration_HTML.html#316,316,2133,1076,1920,1080,8-30-2022,10-6-2,163,depth_duration_stimuli/000483_2014-06-09_20-41-45_260595134347_rgbf000116-resize_4/000483_2014-06-09_20-41-45_260595134347_rgbf000116-resize_4-target.png,125,1.337,3,2106,123,feet,jsons/VE125_randls_27_rotated.json,672064,778153,40,Non-binary
163,335291,DepthScenes,duration_manipulation_targetAtFixation,jsons/VE125_randls_27_rotated.json,http://54.235.29.9/FacialAge/BNav_EC2/DepthDuration/v2_depth_duration_MTurk/v2_DepthDuration_HTML.html#316,316,2133,1076,1920,1080,8-30-2022,10-6-2,164,depth_duration_stimuli/000469_2014-06-09_19-42-10_260595134347_rgbf000081-resize_1/000469_2014-06-09_19-42-10_260595134347_rgbf000081-resize_1-target.png,125,1.652,3,1798,125,feet,jsons/VE125_randls_27_rotated.json,672064,778153,40,Non-binary
