,subjID,experimentName,versionName,sequenceName,url,selected_row,windowWidth,windowHeight,screenWidth,screenHeight,startDate,startTime,trial,stimulus,duration,actual_depth,depth_estimate,trial_RT,log_sceneDuration,unitSelection,seq_filepath,experimentTime,totalTime,age,gender
0,336867,DepthScenes,duration_manipulation_targetAtFixation,jsons/v1_VE1000_randls_24_rotated.json,http://54.235.29.9/FacialAge/BNav_EC2/DepthDuration/v2_depth_duration_MTurk/v2_DepthDuration_HTML.html#219,219,1117,604,1364,768,8-29-2022,14-25-51,1,depth_duration_stimuli/000457_2014-06-08_16-52-43_260595134347_rgbf000199-resize_1/000457_2014-06-08_16-52-43_260595134347_rgbf000199-resize_1-target.png,1000,3.6489999999999996,1.0,8584,999,meters,jsons/v1_VE1000_randls_24_rotated.json,1727594,2502946,32,Man
1,336867,DepthScenes,duration_manipulation_targetAtFixation,jsons/v1_VE1000_randls_24_rotated.json,http://54.235.29.9/FacialAge/BNav_EC2/DepthDuration/v2_depth_duration_MTurk/v2_DepthDuration_HTML.html#219,219,1117,604,1364,768,8-29-2022,14-25-51,2,depth_duration_stimuli/000929_2014-06-09_16-33-19_260595134347_rgbf000139-resize_0/000929_2014-06-09_16-33-19_260595134347_rgbf000139-resize_0-target.png,1000,2.8680000000000003,0.5,8319,1001,meters,jsons/v1_VE1000_randls_24_rotated.json,1727594,2502946,32,Man
2,336867,DepthScenes,duration_manipulation_targetAtFixation,jsons/v1_VE1000_randls_24_rotated.json,http://54.235.29.9/FacialAge/BNav_EC2/DepthDuration/v2_depth_duration_MTurk/v2_DepthDuration_HTML.html#219,219,1117,604,1364,768,8-29-2022,14-25-51,3,depth_duration_stimuli/003587_2014-05-23_16-48-02_094959634447_rgbf002384-resize_2/003587_2014-05-23_16-48-02_094959634447_rgbf002384-resize_2-target.png,1000,1.357,0.5,9037,999,meters,jsons/v1_VE1000_randls_24_rotated.json,1727594,2502946,32,Man
3,336867,DepthScenes,duration_manipulation_targetAtFixation,jsons/v1_VE1000_randls_24_rotated.json,http://54.235.29.9/FacialAge/BNav_EC2/DepthDuration/v2_depth_duration_MTurk/v2_DepthDuration_HTML.html#219,219,1117,604,1364,768,8-29-2022,14-25-51,4,depth_duration_stimuli/001167_2014-06-17_15-38-07_260595134347_rgbf000108-resize_0/001167_2014-06-17_15-38-07_260595134347_rgbf000108-resize_0-target.png,1000,1.8505,0.5,5738,999,meters,jsons/v1_VE1000_randls_24_rotated.json,1727594,2502946,32,Man
4,336867,DepthScenes,duration_manipulation_targetAtFixation,jsons/v1_VE1000_randls_24_rotated.json,http://54.235.29.9/FacialAge/BNav_EC2/DepthDuration/v2_depth_duration_MTurk/v2_DepthDuration_HTML.html#219,219,1117,604,1364,768,8-29-2022,14-25-51,5,depth_duration_stimuli/000137_2014-05-20_17-04-49_260595134347_rgbf000120-resize_1/000137_2014-05-20_17-04-49_260595134347_rgbf000120-resize_1-target.png,1000,3.786,1.0,6819,999,meters,jsons/v1_VE1000_randls_24_rotated.json,1727594,2502946,32,Man
5,336867,DepthScenes,duration_manipulation_targetAtFixation,jsons/v1_VE1000_randls_24_rotated.json,http://54.235.29.9/FacialAge/BNav_EC2/DepthDuration/v2_depth_duration_MTurk/v2_DepthDuration_HTML.html#219,219,1117,604,1364,768,8-29-2022,14-25-51,6,depth_duration_stimuli/000736_2014-06-08_18-24-15_260595134347_rgbf000206-resize_3/000736_2014-06-08_18-24-15_260595134347_rgbf000206-resize_3-target.png,1000,3.515,0.5,7339,999,meters,jsons/v1_VE1000_randls_24_rotated.json,1727594,2502946,32,Man
6,336867,DepthScenes,duration_manipulation_targetAtFixation,jsons/v1_VE1000_randls_24_rotated.json,http://54.235.29.9/FacialAge/BNav_EC2/DepthDuration/v2_depth_duration_MTurk/v2_DepthDuration_HTML.html#219,219,1117,604,1364,768,8-29-2022,14-25-51,7,depth_duration_stimuli/000927_2014-06-09_16-32-30_260595134347_rgbf000123-resize_3/000927_2014-06-09_16-32-30_260595134347_rgbf000123-resize_3-target.png,1000,2.6785,0.5,8857,1001,meters,jsons/v1_VE1000_randls_24_rotated.json,1727594,2502946,32,Man
7,336867,DepthScenes,duration_manipulation_targetAtFixation,jsons/v1_VE1000_randls_24_rotated.json,http://54.235.29.9/FacialAge/BNav_EC2/DepthDuration/v2_depth_duration_MTurk/v2_DepthDuration_HTML.html#219,219,1117,604,1364,768,8-29-2022,14-25-51,8,depth_duration_stimuli/001110_2014-06-15_17-25-28_260595134347_rgbf000150-resize_1/001110_2014-06-15_17-25-28_260595134347_rgbf000150-resize_1-target.png,1000,1.7115,0.5,8807,1000,meters,jsons/v1_VE1000_randls_24_rotated.json,1727594,2502946,32,Man
8,336867,DepthScenes,duration_manipulation_targetAtFixation,jsons/v1_VE1000_randls_24_rotated.json,http://54.235.29.9/FacialAge/BNav_EC2/DepthDuration/v2_depth_duration_MTurk/v2_DepthDuration_HTML.html#219,219,1117,604,1364,768,8-29-2022,14-25-51,9,depth_duration_stimuli/002657_2014-06-13_15-29-54_094959634447_rgbf000150-resize_1/002657_2014-06-13_15-29-54_094959634447_rgbf000150-resize_1-target.png,1000,4.919,0.5,7779,1002,meters,jsons/v1_VE1000_randls_24_rotated.json,1727594,2502946,32,Man
9,336867,DepthScenes,duration_manipulation_targetAtFixation,jsons/v1_VE1000_randls_24_rotated.json,http://54.235.29.9/FacialAge/BNav_EC2/DepthDuration/v2_depth_duration_MTurk/v2_DepthDuration_HTML.html#219,219,1117,604,1364,768,8-29-2022,14-25-51,10,depth_duration_stimuli/002375_2014-06-28_20-13-44_260595134347_rgbf000032-resize_1/002375_2014-06-28_20-13-44_260595134347_rgbf000032-resize_1-target.png,1000,4.0175,0.5,9513,998,meters,jsons/v1_VE1000_randls_24_rotated.json,1727594,2502946,32,Man
10,336867,DepthScenes,duration_manipulation_targetAtFixation,jsons/v1_VE1000_randls_24_rotated.json,http://54.235.29.9/FacialAge/BNav_EC2/DepthDuration/v2_depth_duration_MTurk/v2_DepthDuration_HTML.html#219,219,1117,604,1364,768,8-29-2022,14-25-51,11,depth_duration_stimuli/000409_2014-06-04_19-23-33_260595134347_rgbf000067-resize_0/000409_2014-06-04_19-23-33_260595134347_rgbf000067-resize_0-target.png,1000,3.7335,0.5,23638,1001,meters,jsons/v1_VE1000_randls_24_rotated.json,1727594,2502946,32,Man
11,336867,DepthScenes,duration_manipulation_targetAtFixation,jsons/v1_VE1000_randls_24_rotated.json,http://54.235.29.9/FacialAge/BNav_EC2/DepthDuration/v2_depth_duration_MTurk/v2_DepthDuration_HTML.html#219,219,1117,604,1364,768,8-29-2022,14-25-51,12,depth_duration_stimuli/002663_2014-06-13_15-50-26_094959634447_rgbf000075-resize_1/002663_2014-06-13_15-50-26_094959634447_rgbf000075-resize_1-target.png,1000,4.7495,0.5,10937,999,meters,jsons/v1_VE1000_randls_24_rotated.json,1727594,2502946,32,Man
12,336867,DepthScenes,duration_manipulation_targetAtFixation,jsons/v1_VE1000_randls_24_rotated.json,http://54.235.29.9/FacialAge/BNav_EC2/DepthDuration/v2_depth_duration_MTurk/v2_DepthDuration_HTML.html#219,219,1117,604,1364,768,8-29-2022,14-25-51,13,depth_duration_stimuli/000780_2014-06-08_22-28-29_260595134347_rgbf000126-resize_1/000780_2014-06-08_22-28-29_260595134347_rgbf000126-resize_1-target.png,1000,3.3825,1.0,6378,998,meters,jsons/v1_VE1000_randls_24_rotated.json,1727594,2502946,32,Man
13,336867,DepthScenes,duration_manipulation_targetAtFixation,jsons/v1_VE1000_randls_24_rotated.json,http://54.235.29.9/FacialAge/BNav_EC2/DepthDuration/v2_depth_duration_MTurk/v2_DepthDuration_HTML.html#219,219,1117,604,1364,768,8-29-2022,14-25-51,14,depth_duration_stimuli/002445_2014-06-28_20-32-16_260595134347_rgbf000029-resize_4/002445_2014-06-28_20-32-16_260595134347_rgbf000029-resize_4-target.png,1000,2.5315,0.5,7775,1001,meters,jsons/v1_VE1000_randls_24_rotated.json,1727594,2502946,32,Man
14,336867,DepthScenes,duration_manipulation_targetAtFixation,jsons/v1_VE1000_randls_24_rotated.json,http://54.235.29.9/FacialAge/BNav_EC2/DepthDuration/v2_depth_duration_MTurk/v2_DepthDuration_HTML.html#219,219,1117,604,1364,768,8-29-2022,14-25-51,15,depth_duration_stimuli/001100_2014-06-15_17-46-26_260595134347_rgbf000225-resize_2/001100_2014-06-15_17-46-26_260595134347_rgbf000225-resize_2-target.png,1000,2.24,0.5,8398,1000,meters,jsons/v1_VE1000_randls_24_rotated.json,1727594,2502946,32,Man
15,336867,DepthScenes,duration_manipulation_targetAtFixation,jsons/v1_VE1000_randls_24_rotated.json,http://54.235.29.9/FacialAge/BNav_EC2/DepthDuration/v2_depth_duration_MTurk/v2_DepthDuration_HTML.html#219,219,1117,604,1364,768,8-29-2022,14-25-51,16,depth_duration_stimuli/002784_2014-06-22_19-26-30_094959634447_rgbf000083-resize_3/002784_2014-06-22_19-26-30_094959634447_rgbf000083-resize_3-target.png,1000,1.8046666666667,0.5,5569,999,meters,jsons/v1_VE1000_randls_24_rotated.json,1727594,2502946,32,Man
16,336867,DepthScenes,duration_manipulation_targetAtFixation,jsons/v1_VE1000_randls_24_rotated.json,http://54.235.29.9/FacialAge/BNav_EC2/DepthDuration/v2_depth_duration_MTurk/v2_DepthDuration_HTML.html#219,219,1117,604,1364,768,8-29-2022,14-25-51,17,depth_duration_stimuli/000556_2014-06-09_22-42-56_260595134347_rgbf000214-resize_1/000556_2014-06-09_22-42-56_260595134347_rgbf000214-resize_1-target.png,1000,4.8415,0.5,6048,1002,meters,jsons/v1_VE1000_randls_24_rotated.json,1727594,2502946,32,Man
17,336867,DepthScenes,duration_manipulation_targetAtFixation,jsons/v1_VE1000_randls_24_rotated.json,http://54.235.29.9/FacialAge/BNav_EC2/DepthDuration/v2_depth_duration_MTurk/v2_DepthDuration_HTML.html#219,219,1056,604,1364,768,8-29-2022,14-25-51,18,depth_duration_stimuli/001158_2014-06-17_15-32-16_260595134347_rgbf000138-resize_2/001158_2014-06-17_15-32-16_260595134347_rgbf000138-resize_2-target.png,1000,4.5315,5.0,73060,1002,meters,jsons/v1_VE1000_randls_24_rotated.json,1727594,2502946,32,Man
18,336867,DepthScenes,duration_manipulation_targetAtFixation,jsons/v1_VE1000_randls_24_rotated.json,http://54.235.29.9/FacialAge/BNav_EC2/DepthDuration/v2_depth_duration_MTurk/v2_DepthDuration_HTML.html#219,219,1056,604,1364,768,8-29-2022,14-25-51,19,depth_duration_stimuli/001498_2014-06-19_17-45-14_260595134347_rgbf000129-resize_4/001498_2014-06-19_17-45-14_260595134347_rgbf000129-resize-original.jpg,1000,1.4075,0.5,6358,1000,meters,jsons/v1_VE1000_randls_24_rotated.json,1727594,2502946,32,Man
19,336867,DepthScenes,duration_manipulation_targetAtFixation,jsons/v1_VE1000_randls_24_rotated.json,http://54.235.29.9/FacialAge/BNav_EC2/DepthDuration/v2_depth_duration_MTurk/v2_DepthDuration_HTML.html#219,219,1056,604,1364,768,8-29-2022,14-25-51,20,depth_duration_stimuli/000709_2014-06-08_13-51-55_260595134347_rgbf000068-resize_3/000709_2014-06-08_13-51-55_260595134347_rgbf000068-resize_3-target.png,1000,1.8030000000000002,5.0,88568,1001,meters,jsons/v1_VE1000_randls_24_rotated.json,1727594,2502946,32,Man
20,336867,DepthScenes,duration_manipulation_targetAtFixation,jsons/v1_VE1000_randls_24_rotated.json,http://54.235.29.9/FacialAge/BNav_EC2/DepthDuration/v2_depth_duration_MTurk/v2_DepthDuration_HTML.html#219,219,1056,604,1364,768,8-29-2022,14-25-51,21,depth_duration_stimuli/002057_2014-06-24_21-00-13_260595134347_rgbf000120-resize_1/002057_2014-06-24_21-00-13_260595134347_rgbf000120-resize_1-target.png,1000,2.967,1.0,6551,1000,meters,jsons/v1_VE1000_randls_24_rotated.json,1727594,2502946,32,Man
21,336867,DepthScenes,duration_manipulation_targetAtFixation,jsons/v1_VE1000_randls_24_rotated.json,http://54.235.29.9/FacialAge/BNav_EC2/DepthDuration/v2_depth_duration_MTurk/v2_DepthDuration_HTML.html#219,219,1056,604,1364,768,8-29-2022,14-25-51,22,depth_duration_stimuli/002444_2014-06-28_20-32-08_260595134347_rgbf000027-resize_0/002444_2014-06-28_20-32-08_260595134347_rgbf000027-resize_0-target.png,1000,4.388999999999999,3.0,8855,999,meters,jsons/v1_VE1000_randls_24_rotated.json,1727594,2502946,32,Man
22,336867,DepthScenes,duration_manipulation_targetAtFixation,jsons/v1_VE1000_randls_24_rotated.json,http://54.235.29.9/FacialAge/BNav_EC2/DepthDuration/v2_depth_duration_MTurk/v2_DepthDuration_HTML.html#219,219,1056,604,1364,768,8-29-2022,14-25-51,23,depth_duration_stimuli/000436_2014-06-09_22-25-11_260595134347_rgbf000137-resize_1/000436_2014-06-09_22-25-11_260595134347_rgbf000137-resize_1-target.png,1000,4.0705,1.0,6529,1001,meters,jsons/v1_VE1000_randls_24_rotated.json,1727594,2502946,32,Man
23,336867,DepthScenes,duration_manipulation_targetAtFixation,jsons/v1_VE1000_randls_24_rotated.json,http://54.235.29.9/FacialAge/BNav_EC2/DepthDuration/v2_depth_duration_MTurk/v2_DepthDuration_HTML.html#219,219,1056,604,1364,768,8-29-2022,14-25-51,24,depth_duration_stimuli/000854_2014-06-09_19-43-13_260595134347_rgbf000066-resize_0/000854_2014-06-09_19-43-13_260595134347_rgbf000066-resize_0-target.png,1000,3.068,0.5,6488,999,meters,jsons/v1_VE1000_randls_24_rotated.json,1727594,2502946,32,Man
24,336867,DepthScenes,duration_manipulation_targetAtFixation,jsons/v1_VE1000_randls_24_rotated.json,http://54.235.29.9/FacialAge/BNav_EC2/DepthDuration/v2_depth_duration_MTurk/v2_DepthDuration_HTML.html#219,219,1056,604,1364,768,8-29-2022,14-25-51,25,depth_duration_stimuli/000758_2014-06-08_22-05-08_260595134347_rgbf000085-resize_0/000758_2014-06-08_22-05-08_260595134347_rgbf000085-resize_0-target.png,1000,3.3810000000000002,2.0,6829,999,meters,jsons/v1_VE1000_randls_24_rotated.json,1727594,2502946,32,Man
25,336867,DepthScenes,duration_manipulation_targetAtFixation,jsons/v1_VE1000_randls_24_rotated.json,http://54.235.29.9/FacialAge/BNav_EC2/DepthDuration/v2_depth_duration_MTurk/v2_DepthDuration_HTML.html#219,219,1056,604,1364,768,8-29-2022,14-25-51,26,depth_duration_stimuli/001032_2014-06-08_13-23-17_260595134347_rgbf000021-resize_3/001032_2014-06-08_13-23-17_260595134347_rgbf000021-resize_3-target.png,1000,3.2725,2.0,6708,1000,meters,jsons/v1_VE1000_randls_24_rotated.json,1727594,2502946,32,Man
26,336867,DepthScenes,duration_manipulation_targetAtFixation,jsons/v1_VE1000_randls_24_rotated.json,http://54.235.29.9/FacialAge/BNav_EC2/DepthDuration/v2_depth_duration_MTurk/v2_DepthDuration_HTML.html#219,219,1056,604,1364,768,8-29-2022,14-25-51,27,depth_duration_stimuli/001059_2014-06-08_21-53-27_260595134347_rgbf000061-resize_4/001059_2014-06-08_21-53-27_260595134347_rgbf000061-resize_4-target.png,1000,2.4185,1.0,7019,1002,meters,jsons/v1_VE1000_randls_24_rotated.json,1727594,2502946,32,Man
27,336867,DepthScenes,duration_manipulation_targetAtFixation,jsons/v1_VE1000_randls_24_rotated.json,http://54.235.29.9/FacialAge/BNav_EC2/DepthDuration/v2_depth_duration_MTurk/v2_DepthDuration_HTML.html#219,219,1056,604,1364,768,8-29-2022,14-25-51,28,depth_duration_stimuli/003490_2014-05-21_15-50-11_094959634447_rgbf000101-resize_3/003490_2014-05-21_15-50-11_094959634447_rgbf000101-resize_3-target.png,1000,3.6445,3.0,7927,999,meters,jsons/v1_VE1000_randls_24_rotated.json,1727594,2502946,32,Man
28,336867,DepthScenes,duration_manipulation_targetAtFixation,jsons/v1_VE1000_randls_24_rotated.json,http://54.235.29.9/FacialAge/BNav_EC2/DepthDuration/v2_depth_duration_MTurk/v2_DepthDuration_HTML.html#219,219,1056,604,1364,768,8-29-2022,14-25-51,29,depth_duration_stimuli/001175_2014-06-17_15-45-55_260595134347_rgbf000129-resize_4/001175_2014-06-17_15-45-55_260595134347_rgbf000129-resize_4-target.png,1000,4.255,4.0,7930,1001,meters,jsons/v1_VE1000_randls_24_rotated.json,1727594,2502946,32,Man
29,336867,DepthScenes,duration_manipulation_targetAtFixation,jsons/v1_VE1000_randls_24_rotated.json,http://54.235.29.9/FacialAge/BNav_EC2/DepthDuration/v2_depth_duration_MTurk/v2_DepthDuration_HTML.html#219,219,1056,604,1364,768,8-29-2022,14-25-51,30,depth_duration_stimuli/002072_2014-06-24_21-48-06_260595134347_rgbf000115-resize_0/002072_2014-06-24_21-48-06_260595134347_rgbf000115-resize-original.jpg,1000,4.702,2.0,6711,1001,meters,jsons/v1_VE1000_randls_24_rotated.json,1727594,2502946,32,Man
30,336867,DepthScenes,duration_manipulation_targetAtFixation,jsons/v1_VE1000_randls_24_rotated.json,http://54.235.29.9/FacialAge/BNav_EC2/DepthDuration/v2_depth_duration_MTurk/v2_DepthDuration_HTML.html#219,219,1056,604,1364,768,8-29-2022,14-25-51,31,depth_duration_stimuli/000103_2014-05-14_22-01-17_260595134347_rgbf000152-resize_5/000103_2014-05-14_22-01-17_260595134347_rgbf000152-resize_5-target.png,1000,1.993,6.0,6655,1001,meters,jsons/v1_VE1000_randls_24_rotated.json,1727594,2502946,32,Man
31,336867,DepthScenes,duration_manipulation_targetAtFixation,jsons/v1_VE1000_randls_24_rotated.json,http://54.235.29.9/FacialAge/BNav_EC2/DepthDuration/v2_depth_duration_MTurk/v2_DepthDuration_HTML.html#219,219,1056,604,1364,768,8-29-2022,14-25-51,32,depth_duration_stimuli/001555_2014-06-20_17-12-10_260595134347_rgbf000065-resize_4/001555_2014-06-20_17-12-10_260595134347_rgbf000065-resize_4-target.png,1000,1.633,0.5,6742,1000,meters,jsons/v1_VE1000_randls_24_rotated.json,1727594,2502946,32,Man
32,336867,DepthScenes,duration_manipulation_targetAtFixation,jsons/v1_VE1000_randls_24_rotated.json,http://54.235.29.9/FacialAge/BNav_EC2/DepthDuration/v2_depth_duration_MTurk/v2_DepthDuration_HTML.html#219,219,1056,604,1364,768,8-29-2022,14-25-51,33,depth_duration_stimuli/002875_2014-06-01_15-19-00_094959634447_rgbf000151-resize_1/002875_2014-06-01_15-19-00_094959634447_rgbf000151-resize_1-target.png,1000,1.9675,1.0,9420,1001,meters,jsons/v1_VE1000_randls_24_rotated.json,1727594,2502946,32,Man
33,336867,DepthScenes,duration_manipulation_targetAtFixation,jsons/v1_VE1000_randls_24_rotated.json,http://54.235.29.9/FacialAge/BNav_EC2/DepthDuration/v2_depth_duration_MTurk/v2_DepthDuration_HTML.html#219,219,1056,604,1364,768,8-29-2022,14-25-51,34,depth_duration_stimuli/001011_2014-06-08_23-18-54_260595134347_rgbf000044-resize_4/001011_2014-06-08_23-18-54_260595134347_rgbf000044-resize_4-target.png,1000,2.4730000000000003,5.0,7823,1000,meters,jsons/v1_VE1000_randls_24_rotated.json,1727594,2502946,32,Man
34,336867,DepthScenes,duration_manipulation_targetAtFixation,jsons/v1_VE1000_randls_24_rotated.json,http://54.235.29.9/FacialAge/BNav_EC2/DepthDuration/v2_depth_duration_MTurk/v2_DepthDuration_HTML.html#219,219,1056,604,1364,768,8-29-2022,14-25-51,35,depth_duration_stimuli/003129_2014-05-12_10-48-10_094959634447_rgbf000100-resize_0/003129_2014-05-12_10-48-10_094959634447_rgbf000100-resize_0-target.png,1000,4.9305,5.0,8493,999,meters,jsons/v1_VE1000_randls_24_rotated.json,1727594,2502946,32,Man
35,336867,DepthScenes,duration_manipulation_targetAtFixation,jsons/v1_VE1000_randls_24_rotated.json,http://54.235.29.9/FacialAge/BNav_EC2/DepthDuration/v2_depth_duration_MTurk/v2_DepthDuration_HTML.html#219,219,1056,604,1364,768,8-29-2022,14-25-51,36,depth_duration_stimuli/000414_2014-06-04_19-49-13_260595134347_rgbf000044-resize_0/000414_2014-06-04_19-49-13_260595134347_rgbf000044-resize_0-target.png,1000,4.329,10.0,6629,1000,meters,jsons/v1_VE1000_randls_24_rotated.json,1727594,2502946,32,Man
36,336867,DepthScenes,duration_manipulation_targetAtFixation,jsons/v1_VE1000_randls_24_rotated.json,http://54.235.29.9/FacialAge/BNav_EC2/DepthDuration/v2_depth_duration_MTurk/v2_DepthDuration_HTML.html#219,219,1056,604,1364,768,8-29-2022,14-25-51,37,depth_duration_stimuli/000665_2014-06-09_20-42-35_260595134347_rgbf000110-resize_1/000665_2014-06-09_20-42-35_260595134347_rgbf000110-resize_1-target.png,1000,3.057,4.0,8557,1000,meters,jsons/v1_VE1000_randls_24_rotated.json,1727594,2502946,32,Man
37,336867,DepthScenes,duration_manipulation_targetAtFixation,jsons/v1_VE1000_randls_24_rotated.json,http://54.235.29.9/FacialAge/BNav_EC2/DepthDuration/v2_depth_duration_MTurk/v2_DepthDuration_HTML.html#219,219,1056,604,1364,768,8-29-2022,14-25-51,38,depth_duration_stimuli/001150_2014-06-17_15-27-34_260595134347_rgbf000108-resize_2/001150_2014-06-17_15-27-34_260595134347_rgbf000108-resize_2-target.png,1000,4.0325,1.0,6868,1000,meters,jsons/v1_VE1000_randls_24_rotated.json,1727594,2502946,32,Man
38,336867,DepthScenes,duration_manipulation_targetAtFixation,jsons/v1_VE1000_randls_24_rotated.json,http://54.235.29.9/FacialAge/BNav_EC2/DepthDuration/v2_depth_duration_MTurk/v2_DepthDuration_HTML.html#219,219,1056,604,1364,768,8-29-2022,14-25-51,39,depth_duration_stimuli/002639_2014-06-24_14-51-37_094959634447_rgbf000074-resize_4/002639_2014-06-24_14-51-37_094959634447_rgbf000074-resize_4-target.png,1000,4.0375,5.0,7667,1001,meters,jsons/v1_VE1000_randls_24_rotated.json,1727594,2502946,32,Man
39,336867,DepthScenes,duration_manipulation_targetAtFixation,jsons/v1_VE1000_randls_24_rotated.json,http://54.235.29.9/FacialAge/BNav_EC2/DepthDuration/v2_depth_duration_MTurk/v2_DepthDuration_HTML.html#219,219,1056,604,1364,768,8-29-2022,14-25-51,40,depth_duration_stimuli/003292_2014-05-14_21-53-49_094959634447_rgbf000100-resize_2/003292_2014-05-14_21-53-49_094959634447_rgbf000100-resize_2-target.png,1000,3.4815,3.0,6131,1000,meters,jsons/v1_VE1000_randls_24_rotated.json,1727594,2502946,32,Man
40,336867,DepthScenes,duration_manipulation_targetAtFixation,jsons/v1_VE1000_randls_24_rotated.json,http://54.235.29.9/FacialAge/BNav_EC2/DepthDuration/v2_depth_duration_MTurk/v2_DepthDuration_HTML.html#219,219,1056,604,1364,768,8-29-2022,14-25-51,41,depth_duration_stimuli/000749_2014-06-08_21-55-06_260595134347_rgbf000070-resize_2/000749_2014-06-08_21-55-06_260595134347_rgbf000070-resize_2-target.png,1000,2.331,3.0,6380,1001,meters,jsons/v1_VE1000_randls_24_rotated.json,1727594,2502946,32,Man
41,336867,DepthScenes,duration_manipulation_targetAtFixation,jsons/v1_VE1000_randls_24_rotated.json,http://54.235.29.9/FacialAge/BNav_EC2/DepthDuration/v2_depth_duration_MTurk/v2_DepthDuration_HTML.html#219,219,1056,604,1364,768,8-29-2022,14-25-51,42,depth_duration_stimuli/002788_2014-06-22_19-36-03_094959634447_rgbf000088-resize_2/002788_2014-06-22_19-36-03_094959634447_rgbf000088-resize_2-target.png,1000,1.6465,2.0,7989,1001,meters,jsons/v1_VE1000_randls_24_rotated.json,1727594,2502946,32,Man
42,336867,DepthScenes,duration_manipulation_targetAtFixation,jsons/v1_VE1000_randls_24_rotated.json,http://54.235.29.9/FacialAge/BNav_EC2/DepthDuration/v2_depth_duration_MTurk/v2_DepthDuration_HTML.html#219,219,1056,604,1364,768,8-29-2022,14-25-51,43,depth_duration_stimuli/000109_2014-05-14_23-41-52_260595134347_rgbf000035-resize_9/000109_2014-05-14_23-41-52_260595134347_rgbf000035-resize_9-target.png,1000,1.3545,0.5,8379,999,meters,jsons/v1_VE1000_randls_24_rotated.json,1727594,2502946,32,Man
43,336867,DepthScenes,duration_manipulation_targetAtFixation,jsons/v1_VE1000_randls_24_rotated.json,http://54.235.29.9/FacialAge/BNav_EC2/DepthDuration/v2_depth_duration_MTurk/v2_DepthDuration_HTML.html#219,219,1056,604,1364,768,8-29-2022,14-25-51,44,depth_duration_stimuli/000470_2014-06-09_19-42-40_260595134347_rgbf000094-resize_1/000470_2014-06-09_19-42-40_260595134347_rgbf000094-resize_1-target.png,1000,1.831,0.5,5318,1000,meters,jsons/v1_VE1000_randls_24_rotated.json,1727594,2502946,32,Man
44,336867,DepthScenes,duration_manipulation_targetAtFixation,jsons/v1_VE1000_randls_24_rotated.json,http://54.235.29.9/FacialAge/BNav_EC2/DepthDuration/v2_depth_duration_MTurk/v2_DepthDuration_HTML.html#219,219,1056,604,1364,768,8-29-2022,14-25-51,45,depth_duration_stimuli/000691_2014-06-08_13-08-50_260595134347_rgbf000132-resize_3/000691_2014-06-08_13-08-50_260595134347_rgbf000132-resize_3-target.png,1000,4.1530000000000005,6.0,8987,1000,meters,jsons/v1_VE1000_randls_24_rotated.json,1727594,2502946,32,Man
45,336867,DepthScenes,duration_manipulation_targetAtFixation,jsons/v1_VE1000_randls_24_rotated.json,http://54.235.29.9/FacialAge/BNav_EC2/DepthDuration/v2_depth_duration_MTurk/v2_DepthDuration_HTML.html#219,219,1056,604,1364,768,8-29-2022,14-25-51,46,depth_duration_stimuli/002213_2014-06-28_18-37-58_260595134347_rgbf000055-resize_1/002213_2014-06-28_18-37-58_260595134347_rgbf000055-resize_1-target.png,1000,3.62,5.0,9101,1001,meters,jsons/v1_VE1000_randls_24_rotated.json,1727594,2502946,32,Man
46,336867,DepthScenes,duration_manipulation_targetAtFixation,jsons/v1_VE1000_randls_24_rotated.json,http://54.235.29.9/FacialAge/BNav_EC2/DepthDuration/v2_depth_duration_MTurk/v2_DepthDuration_HTML.html#219,219,1056,604,1364,768,8-29-2022,14-25-51,47,depth_duration_stimuli/002340_2014-06-28_20-05-46_260595134347_rgbf000113-resize_0/002340_2014-06-28_20-05-46_260595134347_rgbf000113-resize_0-target.png,1000,2.4735,5.0,7822,1001,meters,jsons/v1_VE1000_randls_24_rotated.json,1727594,2502946,32,Man
47,336867,DepthScenes,duration_manipulation_targetAtFixation,jsons/v1_VE1000_randls_24_rotated.json,http://54.235.29.9/FacialAge/BNav_EC2/DepthDuration/v2_depth_duration_MTurk/v2_DepthDuration_HTML.html#219,219,1056,604,1364,768,8-29-2022,14-25-51,48,depth_duration_stimuli/001016_2014-06-09_16-16-10_260595134347_rgbf000112-resize_5/001016_2014-06-09_16-16-10_260595134347_rgbf000112-resize_5-target.png,1000,1.6565,1.0,5298,1000,meters,jsons/v1_VE1000_randls_24_rotated.json,1727594,2502946,32,Man
48,336867,DepthScenes,duration_manipulation_targetAtFixation,jsons/v1_VE1000_randls_24_rotated.json,http://54.235.29.9/FacialAge/BNav_EC2/DepthDuration/v2_depth_duration_MTurk/v2_DepthDuration_HTML.html#219,219,1056,604,1364,768,8-29-2022,14-25-51,49,depth_duration_stimuli/001170_2014-06-17_15-43-44_260595134347_rgbf000096-resize_6/001170_2014-06-17_15-43-44_260595134347_rgbf000096-resize-original.jpg,1000,1.1909999999999998,0.5,14773,1000,meters,jsons/v1_VE1000_randls_24_rotated.json,1727594,2502946,32,Man
49,336867,DepthScenes,duration_manipulation_targetAtFixation,jsons/v1_VE1000_randls_24_rotated.json,http://54.235.29.9/FacialAge/BNav_EC2/DepthDuration/v2_depth_duration_MTurk/v2_DepthDuration_HTML.html#219,219,1056,604,1364,768,8-29-2022,14-25-51,50,depth_duration_stimuli/001815_2014-06-26_20-52-55_260595134347_rgbf000020-resize_0/001815_2014-06-26_20-52-55_260595134347_rgbf000020-resize_0-target.png,1000,3.3865,5.0,8872,1000,meters,jsons/v1_VE1000_randls_24_rotated.json,1727594,2502946,32,Man
50,336867,DepthScenes,duration_manipulation_targetAtFixation,jsons/v1_VE1000_randls_24_rotated.json,http://54.235.29.9/FacialAge/BNav_EC2/DepthDuration/v2_depth_duration_MTurk/v2_DepthDuration_HTML.html#219,219,1056,604,1364,768,8-29-2022,14-25-51,51,depth_duration_stimuli/001808_2014-06-26_20-50-58_260595134347_rgbf000029-resize_1/001808_2014-06-26_20-50-58_260595134347_rgbf000029-resize_1-target.png,1000,4.249,5.0,5545,999,meters,jsons/v1_VE1000_randls_24_rotated.json,1727594,2502946,32,Man
51,336867,DepthScenes,duration_manipulation_targetAtFixation,jsons/v1_VE1000_randls_24_rotated.json,http://54.235.29.9/FacialAge/BNav_EC2/DepthDuration/v2_depth_duration_MTurk/v2_DepthDuration_HTML.html#219,219,1056,604,1364,768,8-29-2022,14-25-51,52,depth_duration_stimuli/003338_2014-05-20_11-01-23_094959634447_rgbf000051-resize_6/003338_2014-05-20_11-01-23_094959634447_rgbf000051-resize_6-target.png,1000,1.693,2.0,7057,1001,meters,jsons/v1_VE1000_randls_24_rotated.json,1727594,2502946,32,Man
52,336867,DepthScenes,duration_manipulation_targetAtFixation,jsons/v1_VE1000_randls_24_rotated.json,http://54.235.29.9/FacialAge/BNav_EC2/DepthDuration/v2_depth_duration_MTurk/v2_DepthDuration_HTML.html#219,219,1056,604,1364,768,8-29-2022,14-25-51,53,depth_duration_stimuli/002509_2014-06-24_13-19-22_094959634447_rgbf000077-resize_0/002509_2014-06-24_13-19-22_094959634447_rgbf000077-resize_0-target.png,1000,1.3065,0.5,7605,999,meters,jsons/v1_VE1000_randls_24_rotated.json,1727594,2502946,32,Man
53,336867,DepthScenes,duration_manipulation_targetAtFixation,jsons/v1_VE1000_randls_24_rotated.json,http://54.235.29.9/FacialAge/BNav_EC2/DepthDuration/v2_depth_duration_MTurk/v2_DepthDuration_HTML.html#219,219,1056,604,1364,768,8-29-2022,14-25-51,54,depth_duration_stimuli/001828_2014-06-26_21-40-03_260595134347_rgbf000024-resize_0/001828_2014-06-26_21-40-03_260595134347_rgbf000024-resize_0-target.png,1000,4.8260000000000005,5.0,11609,1000,meters,jsons/v1_VE1000_randls_24_rotated.json,1727594,2502946,32,Man
54,336867,DepthScenes,duration_manipulation_targetAtFixation,jsons/v1_VE1000_randls_24_rotated.json,http://54.235.29.9/FacialAge/BNav_EC2/DepthDuration/v2_depth_duration_MTurk/v2_DepthDuration_HTML.html#219,219,1056,604,1364,768,8-29-2022,14-25-51,55,depth_duration_stimuli/000009_2014-05-26_14-32-05_260595134347_rgbf000034-resize_3/000009_2014-05-26_14-32-05_260595134347_rgbf000034-resize_3-target.png,1000,3.8715,7.0,7748,1001,meters,jsons/v1_VE1000_randls_24_rotated.json,1727594,2502946,32,Man
55,336867,DepthScenes,duration_manipulation_targetAtFixation,jsons/v1_VE1000_randls_24_rotated.json,http://54.235.29.9/FacialAge/BNav_EC2/DepthDuration/v2_depth_duration_MTurk/v2_DepthDuration_HTML.html#219,219,1056,604,1364,768,8-29-2022,14-25-51,56,depth_duration_stimuli/002545_2014-06-24_13-38-53_094959634447_rgbf000080-resize_4/002545_2014-06-24_13-38-53_094959634447_rgbf000080-resize_4-target.png,1000,1.9205,2.0,6869,1000,meters,jsons/v1_VE1000_randls_24_rotated.json,1727594,2502946,32,Man
56,336867,DepthScenes,duration_manipulation_targetAtFixation,jsons/v1_VE1000_randls_24_rotated.json,http://54.235.29.9/FacialAge/BNav_EC2/DepthDuration/v2_depth_duration_MTurk/v2_DepthDuration_HTML.html#219,219,1056,604,1364,768,8-29-2022,14-25-51,57,depth_duration_stimuli/001092_2014-06-15_17-34-58_260595134347_rgbf000171-resize_3/001092_2014-06-15_17-34-58_260595134347_rgbf000171-resize_3-target.png,1000,2.6935,1.0,5809,1002,meters,jsons/v1_VE1000_randls_24_rotated.json,1727594,2502946,32,Man
57,336867,DepthScenes,duration_manipulation_targetAtFixation,jsons/v1_VE1000_randls_24_rotated.json,http://54.235.29.9/FacialAge/BNav_EC2/DepthDuration/v2_depth_duration_MTurk/v2_DepthDuration_HTML.html#219,219,1056,604,1364,768,8-29-2022,14-25-51,58,depth_duration_stimuli/000191_2014-05-12_17-07-38_260595134347_rgbf000199-resize_0/000191_2014-05-12_17-07-38_260595134347_rgbf000199-resize_0-target.png,1000,3.7995,5.0,6824,1001,meters,jsons/v1_VE1000_randls_24_rotated.json,1727594,2502946,32,Man
58,336867,DepthScenes,duration_manipulation_targetAtFixation,jsons/v1_VE1000_randls_24_rotated.json,http://54.235.29.9/FacialAge/BNav_EC2/DepthDuration/v2_depth_duration_MTurk/v2_DepthDuration_HTML.html#219,219,1056,604,1364,768,8-29-2022,14-25-51,59,depth_duration_stimuli/000493_2014-06-09_21-01-18_260595134347_rgbf000196-resize_3/000493_2014-06-09_21-01-18_260595134347_rgbf000196-resize_3-target.png,1000,3.44,3.0,7095,1001,meters,jsons/v1_VE1000_randls_24_rotated.json,1727594,2502946,32,Man
59,336867,DepthScenes,duration_manipulation_targetAtFixation,jsons/v1_VE1000_randls_24_rotated.json,http://54.235.29.9/FacialAge/BNav_EC2/DepthDuration/v2_depth_duration_MTurk/v2_DepthDuration_HTML.html#219,219,1056,604,1364,768,8-29-2022,14-25-51,60,depth_duration_stimuli/002637_2014-06-24_14-51-13_094959634447_rgbf000066-resize_4/002637_2014-06-24_14-51-13_094959634447_rgbf000066-resize_4-target.png,1000,1.9955,1.0,6549,1000,meters,jsons/v1_VE1000_randls_24_rotated.json,1727594,2502946,32,Man
60,336867,DepthScenes,duration_manipulation_targetAtFixation,jsons/v1_VE1000_randls_24_rotated.json,http://54.235.29.9/FacialAge/BNav_EC2/DepthDuration/v2_depth_duration_MTurk/v2_DepthDuration_HTML.html#219,219,1056,604,1364,768,8-29-2022,14-25-51,61,depth_duration_stimuli/003534_2014-05-22_15-06-10_094959634447_rgbf000102-resize_4/003534_2014-05-22_15-06-10_094959634447_rgbf000102-resize_4-target.png,1000,1.426,1.0,6089,1001,meters,jsons/v1_VE1000_randls_24_rotated.json,1727594,2502946,32,Man
61,336867,DepthScenes,duration_manipulation_targetAtFixation,jsons/v1_VE1000_randls_24_rotated.json,http://54.235.29.9/FacialAge/BNav_EC2/DepthDuration/v2_depth_duration_MTurk/v2_DepthDuration_HTML.html#219,219,1056,604,1364,768,8-29-2022,14-25-51,62,depth_duration_stimuli/000742_2014-06-08_18-48-09_260595134347_rgbf000164-resize_4/000742_2014-06-08_18-48-09_260595134347_rgbf000164-resize_4-target.png,1000,4.632,5.0,7129,1000,meters,jsons/v1_VE1000_randls_24_rotated.json,1727594,2502946,32,Man
62,336867,DepthScenes,duration_manipulation_targetAtFixation,jsons/v1_VE1000_randls_24_rotated.json,http://54.235.29.9/FacialAge/BNav_EC2/DepthDuration/v2_depth_duration_MTurk/v2_DepthDuration_HTML.html#219,219,1056,604,1364,768,8-29-2022,14-25-51,63,depth_duration_stimuli/001066_2014-06-08_22-03-20_260595134347_rgbf000066-resize_4/001066_2014-06-08_22-03-20_260595134347_rgbf000066-resize_4-target.png,1000,4.2330000000000005,8.0,10560,1000,meters,jsons/v1_VE1000_randls_24_rotated.json,1727594,2502946,32,Man
63,336867,DepthScenes,duration_manipulation_targetAtFixation,jsons/v1_VE1000_randls_24_rotated.json,http://54.235.29.9/FacialAge/BNav_EC2/DepthDuration/v2_depth_duration_MTurk/v2_DepthDuration_HTML.html#219,219,1056,604,1364,768,8-29-2022,14-25-51,64,depth_duration_stimuli/003083_2014-06-15_15-21-03_094959634447_rgbf000063-resize_1/003083_2014-06-15_15-21-03_094959634447_rgbf000063-resize_1-target.png,1000,4.1405,6.0,8128,1000,meters,jsons/v1_VE1000_randls_24_rotated.json,1727594,2502946,32,Man
64,336867,DepthScenes,duration_manipulation_targetAtFixation,jsons/v1_VE1000_randls_24_rotated.json,http://54.235.29.9/FacialAge/BNav_EC2/DepthDuration/v2_depth_duration_MTurk/v2_DepthDuration_HTML.html#219,219,1056,604,1364,768,8-29-2022,14-25-51,65,depth_duration_stimuli/000486_2014-06-09_20-47-20_260595134347_rgbf000143-resize_2/000486_2014-06-09_20-47-20_260595134347_rgbf000143-resize_2-target.png,1000,4.8325,2.0,6809,1001,meters,jsons/v1_VE1000_randls_24_rotated.json,1727594,2502946,32,Man
65,336867,DepthScenes,duration_manipulation_targetAtFixation,jsons/v1_VE1000_randls_24_rotated.json,http://54.235.29.9/FacialAge/BNav_EC2/DepthDuration/v2_depth_duration_MTurk/v2_DepthDuration_HTML.html#219,219,1056,604,1364,768,8-29-2022,14-25-51,66,depth_duration_stimuli/001540_2014-06-20_17-01-05_260595134347_rgbf000086-resize_2/001540_2014-06-20_17-01-05_260595134347_rgbf000086-resize-original.jpg,1000,1.459,1.0,8981,1000,meters,jsons/v1_VE1000_randls_24_rotated.json,1727594,2502946,32,Man
66,336867,DepthScenes,duration_manipulation_targetAtFixation,jsons/v1_VE1000_randls_24_rotated.json,http://54.235.29.9/FacialAge/BNav_EC2/DepthDuration/v2_depth_duration_MTurk/v2_DepthDuration_HTML.html#219,219,1056,604,1364,768,8-29-2022,14-25-51,67,depth_duration_stimuli/002425_2014-06-28_20-27-29_260595134347_rgbf000031-resize_8/002425_2014-06-28_20-27-29_260595134347_rgbf000031-resize_8-target.png,1000,3.8960000000000004,5.0,7669,1000,meters,jsons/v1_VE1000_randls_24_rotated.json,1727594,2502946,32,Man
67,336867,DepthScenes,duration_manipulation_targetAtFixation,jsons/v1_VE1000_randls_24_rotated.json,http://54.235.29.9/FacialAge/BNav_EC2/DepthDuration/v2_depth_duration_MTurk/v2_DepthDuration_HTML.html#219,219,1056,604,1364,768,8-29-2022,14-25-51,68,depth_duration_stimuli/000642_2014-06-08_16-59-25_260595134347_rgbf000098-resize_2/000642_2014-06-08_16-59-25_260595134347_rgbf000098-resize_2-target.png,1000,2.8815,2.0,6549,999,meters,jsons/v1_VE1000_randls_24_rotated.json,1727594,2502946,32,Man
68,336867,DepthScenes,duration_manipulation_targetAtFixation,jsons/v1_VE1000_randls_24_rotated.json,http://54.235.29.9/FacialAge/BNav_EC2/DepthDuration/v2_depth_duration_MTurk/v2_DepthDuration_HTML.html#219,219,1056,604,1364,768,8-29-2022,14-25-51,69,depth_duration_stimuli/001447_2014-06-19_17-00-32_260595134347_rgbf000082-resize_5/001447_2014-06-19_17-00-32_260595134347_rgbf000082-resize_5-target.png,1000,4.13775,5.0,6839,1000,meters,jsons/v1_VE1000_randls_24_rotated.json,1727594,2502946,32,Man
69,336867,DepthScenes,duration_manipulation_targetAtFixation,jsons/v1_VE1000_randls_24_rotated.json,http://54.235.29.9/FacialAge/BNav_EC2/DepthDuration/v2_depth_duration_MTurk/v2_DepthDuration_HTML.html#219,219,1056,604,1364,768,8-29-2022,14-25-51,70,depth_duration_stimuli/000447_2014-06-08_16-15-46_260595134347_rgbf000130-resize_1/000447_2014-06-08_16-15-46_260595134347_rgbf000130-resize_1-target.png,1000,4.479,2.0,6159,1000,meters,jsons/v1_VE1000_randls_24_rotated.json,1727594,2502946,32,Man
70,336867,DepthScenes,duration_manipulation_targetAtFixation,jsons/v1_VE1000_randls_24_rotated.json,http://54.235.29.9/FacialAge/BNav_EC2/DepthDuration/v2_depth_duration_MTurk/v2_DepthDuration_HTML.html#219,219,1056,604,1364,768,8-29-2022,14-25-51,71,depth_duration_stimuli/003010_2014-06-15_12-54-35_094959634447_rgbf000112-resize_0/003010_2014-06-15_12-54-35_094959634447_rgbf000112-resize_0-target.png,1000,3.1185,2.0,6359,1001,meters,jsons/v1_VE1000_randls_24_rotated.json,1727594,2502946,32,Man
71,336867,DepthScenes,duration_manipulation_targetAtFixation,jsons/v1_VE1000_randls_24_rotated.json,http://54.235.29.9/FacialAge/BNav_EC2/DepthDuration/v2_depth_duration_MTurk/v2_DepthDuration_HTML.html#219,219,1056,604,1364,768,8-29-2022,14-25-51,72,depth_duration_stimuli/001810_2014-06-26_20-51-35_260595134347_rgbf000040-resize_3/001810_2014-06-26_20-51-35_260595134347_rgbf000040-resize_3-target.png,1000,2.2525,1.0,5268,1000,meters,jsons/v1_VE1000_randls_24_rotated.json,1727594,2502946,32,Man
72,336867,DepthScenes,duration_manipulation_targetAtFixation,jsons/v1_VE1000_randls_24_rotated.json,http://54.235.29.9/FacialAge/BNav_EC2/DepthDuration/v2_depth_duration_MTurk/v2_DepthDuration_HTML.html#219,219,1056,604,1364,768,8-29-2022,14-25-51,73,depth_duration_stimuli/000734_2014-06-08_17-39-11_260595134347_rgbf000128-resize_2/000734_2014-06-08_17-39-11_260595134347_rgbf000128-resize_2-target.png,1000,4.098,2.0,6069,1002,meters,jsons/v1_VE1000_randls_24_rotated.json,1727594,2502946,32,Man
73,336867,DepthScenes,duration_manipulation_targetAtFixation,jsons/v1_VE1000_randls_24_rotated.json,http://54.235.29.9/FacialAge/BNav_EC2/DepthDuration/v2_depth_duration_MTurk/v2_DepthDuration_HTML.html#219,219,1056,604,1364,768,8-29-2022,14-25-51,74,depth_duration_stimuli/000739_2014-06-08_18-45-58_260595134347_rgbf000068-resize_1/000739_2014-06-08_18-45-58_260595134347_rgbf000068-resize_1-target.png,1000,3.534,6.0,6824,1000,meters,jsons/v1_VE1000_randls_24_rotated.json,1727594,2502946,32,Man
74,336867,DepthScenes,duration_manipulation_targetAtFixation,jsons/v1_VE1000_randls_24_rotated.json,http://54.235.29.9/FacialAge/BNav_EC2/DepthDuration/v2_depth_duration_MTurk/v2_DepthDuration_HTML.html#219,219,1056,604,1364,768,8-29-2022,14-25-51,75,depth_duration_stimuli/002949_2014-06-26_15-57-42_094959634447_rgbf000079-resize_1/002949_2014-06-26_15-57-42_094959634447_rgbf000079-resize_1-target.png,1000,1.8915,2.0,7394,1000,meters,jsons/v1_VE1000_randls_24_rotated.json,1727594,2502946,32,Man
75,336867,DepthScenes,duration_manipulation_targetAtFixation,jsons/v1_VE1000_randls_24_rotated.json,http://54.235.29.9/FacialAge/BNav_EC2/DepthDuration/v2_depth_duration_MTurk/v2_DepthDuration_HTML.html#219,219,1056,604,1364,768,8-29-2022,14-25-51,76,depth_duration_stimuli/000522_2014-06-08_13-35-06_260595134347_rgbf000244-resize_1/000522_2014-06-08_13-35-06_260595134347_rgbf000244-resize_1-target.png,1000,2.3715,1.0,6309,1000,meters,jsons/v1_VE1000_randls_24_rotated.json,1727594,2502946,32,Man
76,336867,DepthScenes,duration_manipulation_targetAtFixation,jsons/v1_VE1000_randls_24_rotated.json,http://54.235.29.9/FacialAge/BNav_EC2/DepthDuration/v2_depth_duration_MTurk/v2_DepthDuration_HTML.html#219,219,1056,604,1364,768,8-29-2022,14-25-51,77,depth_duration_stimuli/001392_2014-06-19_16-07-59_260595134347_rgbf000046-resize_1/001392_2014-06-19_16-07-59_260595134347_rgbf000046-resize_1-target.png,1000,4.135,5.0,15297,999,meters,jsons/v1_VE1000_randls_24_rotated.json,1727594,2502946,32,Man
77,336867,DepthScenes,duration_manipulation_targetAtFixation,jsons/v1_VE1000_randls_24_rotated.json,http://54.235.29.9/FacialAge/BNav_EC2/DepthDuration/v2_depth_duration_MTurk/v2_DepthDuration_HTML.html#219,219,1056,604,1364,768,8-29-2022,14-25-51,78,depth_duration_stimuli/001570_2014-06-20_17-21-09_260595134347_rgbf000135-resize_4/001570_2014-06-20_17-21-09_260595134347_rgbf000135-resize_4-target.png,1000,4.467,5.0,8369,1000,meters,jsons/v1_VE1000_randls_24_rotated.json,1727594,2502946,32,Man
78,336867,DepthScenes,duration_manipulation_targetAtFixation,jsons/v1_VE1000_randls_24_rotated.json,http://54.235.29.9/FacialAge/BNav_EC2/DepthDuration/v2_depth_duration_MTurk/v2_DepthDuration_HTML.html#219,219,1056,604,1364,768,8-29-2022,14-25-51,79,depth_duration_stimuli/001516_2014-06-20_16-25-09_260595134347_rgbf000076-resize_2/001516_2014-06-20_16-25-09_260595134347_rgbf000076-resize_2-target.png,1000,1.7445,4.0,6588,1000,meters,jsons/v1_VE1000_randls_24_rotated.json,1727594,2502946,32,Man
79,336867,DepthScenes,duration_manipulation_targetAtFixation,jsons/v1_VE1000_randls_24_rotated.json,http://54.235.29.9/FacialAge/BNav_EC2/DepthDuration/v2_depth_duration_MTurk/v2_DepthDuration_HTML.html#219,219,1056,604,1364,768,8-29-2022,14-25-51,80,depth_duration_stimuli/002118_2014-06-25_20-32-08_260595134347_rgbf000078-resize_1/002118_2014-06-25_20-32-08_260595134347_rgbf000078-resize_1-target.png,1000,2.6460000000000004,4.0,9778,999,meters,jsons/v1_VE1000_randls_24_rotated.json,1727594,2502946,32,Man
80,336867,DepthScenes,duration_manipulation_targetAtFixation,jsons/v1_VE1000_randls_24_rotated.json,http://54.235.29.9/FacialAge/BNav_EC2/DepthDuration/v2_depth_duration_MTurk/v2_DepthDuration_HTML.html#219,219,1056,604,1364,768,8-29-2022,14-25-51,81,depth_duration_stimuli/003423_2014-05-21_10-23-26_094959634447_rgbf002665-resize_2/003423_2014-05-21_10-23-26_094959634447_rgbf002665-resize_2-target.png,1000,3.2575,8.0,8699,1001,meters,jsons/v1_VE1000_randls_24_rotated.json,1727594,2502946,32,Man
81,336867,DepthScenes,duration_manipulation_targetAtFixation,jsons/v1_VE1000_randls_24_rotated.json,http://54.235.29.9/FacialAge/BNav_EC2/DepthDuration/v2_depth_duration_MTurk/v2_DepthDuration_HTML.html#219,219,1056,604,1364,768,8-29-2022,14-25-51,82,depth_duration_stimuli/002905_2014-06-03_18-04-43_094959634447_rgbf000151-resize_2/002905_2014-06-03_18-04-43_094959634447_rgbf000151-resize_2-target.png,1000,2.0295,2.0,5379,1001,meters,jsons/v1_VE1000_randls_24_rotated.json,1727594,2502946,32,Man
82,336867,DepthScenes,duration_manipulation_targetAtFixation,jsons/v1_VE1000_randls_24_rotated.json,http://54.235.29.9/FacialAge/BNav_EC2/DepthDuration/v2_depth_duration_MTurk/v2_DepthDuration_HTML.html#219,219,1056,604,1364,768,8-29-2022,14-25-51,83,depth_duration_stimuli/002678_2014-06-13_16-15-32_094959634447_rgbf000151-resize_6/002678_2014-06-13_16-15-32_094959634447_rgbf000151-resize_6-target.png,1000,2.1830000000000003,5.0,8540,1001,meters,jsons/v1_VE1000_randls_24_rotated.json,1727594,2502946,32,Man
83,336867,DepthScenes,duration_manipulation_targetAtFixation,jsons/v1_VE1000_randls_24_rotated.json,http://54.235.29.9/FacialAge/BNav_EC2/DepthDuration/v2_depth_duration_MTurk/v2_DepthDuration_HTML.html#219,219,1056,604,1364,768,8-29-2022,14-25-51,84,depth_duration_stimuli/000368_2014-06-09_15-53-01_260595134347_rgbf000155-resize_2/000368_2014-06-09_15-53-01_260595134347_rgbf000155-resize_2-target.png,1000,2.4859999999999998,2.0,6418,1001,meters,jsons/v1_VE1000_randls_24_rotated.json,1727594,2502946,32,Man
84,336867,DepthScenes,duration_manipulation_targetAtFixation,jsons/v1_VE1000_randls_24_rotated.json,http://54.235.29.9/FacialAge/BNav_EC2/DepthDuration/v2_depth_duration_MTurk/v2_DepthDuration_HTML.html#219,219,1056,604,1364,768,8-29-2022,14-25-51,85,depth_duration_stimuli/003048_2014-06-15_13-49-43_094959634447_rgbf000150-resize_1/003048_2014-06-15_13-49-43_094959634447_rgbf000150-resize_1-target.png,1000,4.0035,8.0,8729,1000,meters,jsons/v1_VE1000_randls_24_rotated.json,1727594,2502946,32,Man
85,336867,DepthScenes,duration_manipulation_targetAtFixation,jsons/v1_VE1000_randls_24_rotated.json,http://54.235.29.9/FacialAge/BNav_EC2/DepthDuration/v2_depth_duration_MTurk/v2_DepthDuration_HTML.html#219,219,1056,604,1364,768,8-29-2022,14-25-51,86,depth_duration_stimuli/002043_2014-06-24_20-29-38_260595134347_rgbf000039-resize_4/002043_2014-06-24_20-29-38_260595134347_rgbf000039-resize_4-target.png,1000,2.8435,4.0,5738,1001,meters,jsons/v1_VE1000_randls_24_rotated.json,1727594,2502946,32,Man
86,336867,DepthScenes,duration_manipulation_targetAtFixation,jsons/v1_VE1000_randls_24_rotated.json,http://54.235.29.9/FacialAge/BNav_EC2/DepthDuration/v2_depth_duration_MTurk/v2_DepthDuration_HTML.html#219,219,1056,604,1364,768,8-29-2022,14-25-51,87,depth_duration_stimuli/002568_2014-06-24_13-59-21_094959634447_rgbf000062-resize_4/002568_2014-06-24_13-59-21_094959634447_rgbf000062-resize_4-target.png,1000,3.015,5.0,6875,999,meters,jsons/v1_VE1000_randls_24_rotated.json,1727594,2502946,32,Man
87,336867,DepthScenes,duration_manipulation_targetAtFixation,jsons/v1_VE1000_randls_24_rotated.json,http://54.235.29.9/FacialAge/BNav_EC2/DepthDuration/v2_depth_duration_MTurk/v2_DepthDuration_HTML.html#219,219,1056,604,1364,768,8-29-2022,14-25-51,88,depth_duration_stimuli/003492_2014-05-21_15-50-55_094959634447_rgbf000828-resize_1/003492_2014-05-21_15-50-55_094959634447_rgbf000828-resize_1-target.png,1000,4.06875,10.0,11967,1000,meters,jsons/v1_VE1000_randls_24_rotated.json,1727594,2502946,32,Man
88,336867,DepthScenes,duration_manipulation_targetAtFixation,jsons/v1_VE1000_randls_24_rotated.json,http://54.235.29.9/FacialAge/BNav_EC2/DepthDuration/v2_depth_duration_MTurk/v2_DepthDuration_HTML.html#219,219,1056,604,1364,768,8-29-2022,14-25-51,89,depth_duration_stimuli/001584_2014-06-20_11-07-43_260595134347_rgbf000002-resize_1/001584_2014-06-20_11-07-43_260595134347_rgbf000002-resize_1-target.png,1000,3.53,5.0,6742,998,meters,jsons/v1_VE1000_randls_24_rotated.json,1727594,2502946,32,Man
89,336867,DepthScenes,duration_manipulation_targetAtFixation,jsons/v1_VE1000_randls_24_rotated.json,http://54.235.29.9/FacialAge/BNav_EC2/DepthDuration/v2_depth_duration_MTurk/v2_DepthDuration_HTML.html#219,219,1056,604,1364,768,8-29-2022,14-25-51,90,depth_duration_stimuli/003621_2014-05-23_18-06-08_094959634447_rgbf000101-resize_1/003621_2014-05-23_18-06-08_094959634447_rgbf000101-resize_1-target.png,1000,3.9835,10.0,5729,1000,meters,jsons/v1_VE1000_randls_24_rotated.json,1727594,2502946,32,Man
90,336867,DepthScenes,duration_manipulation_targetAtFixation,jsons/v1_VE1000_randls_24_rotated.json,http://54.235.29.9/FacialAge/BNav_EC2/DepthDuration/v2_depth_duration_MTurk/v2_DepthDuration_HTML.html#219,219,1056,604,1364,768,8-29-2022,14-25-51,91,depth_duration_stimuli/003081_2014-06-15_15-19-16_094959634447_rgbf000150-resize_1/003081_2014-06-15_15-19-16_094959634447_rgbf000150-resize_1-target.png,1000,3.9125,5.0,13584,999,meters,jsons/v1_VE1000_randls_24_rotated.json,1727594,2502946,32,Man
91,336867,DepthScenes,duration_manipulation_targetAtFixation,jsons/v1_VE1000_randls_24_rotated.json,http://54.235.29.9/FacialAge/BNav_EC2/DepthDuration/v2_depth_duration_MTurk/v2_DepthDuration_HTML.html#219,219,1056,604,1364,768,8-29-2022,14-25-51,92,depth_duration_stimuli/001417_2014-06-19_16-25-36_260595134347_rgbf000115-resize_5/001417_2014-06-19_16-25-36_260595134347_rgbf000115-resize_5-target.png,1000,4.6255,5.0,8782,1000,meters,jsons/v1_VE1000_randls_24_rotated.json,1727594,2502946,32,Man
92,336867,DepthScenes,duration_manipulation_targetAtFixation,jsons/v1_VE1000_randls_24_rotated.json,http://54.235.29.9/FacialAge/BNav_EC2/DepthDuration/v2_depth_duration_MTurk/v2_DepthDuration_HTML.html#219,219,1056,604,1364,768,8-29-2022,14-25-51,93,depth_duration_stimuli/003228_2014-05-14_13-42-35_094959634447_rgbf000101-resize_1/003228_2014-05-14_13-42-35_094959634447_rgbf000101-resize_1-target.png,1000,1.9680000000000002,0.5,6178,1000,meters,jsons/v1_VE1000_randls_24_rotated.json,1727594,2502946,32,Man
93,336867,DepthScenes,duration_manipulation_targetAtFixation,jsons/v1_VE1000_randls_24_rotated.json,http://54.235.29.9/FacialAge/BNav_EC2/DepthDuration/v2_depth_duration_MTurk/v2_DepthDuration_HTML.html#219,219,1056,604,1364,768,8-29-2022,14-25-51,94,depth_duration_stimuli/002600_2014-06-24_14-27-04_094959634447_rgbf000074-resize_2/002600_2014-06-24_14-27-04_094959634447_rgbf000074-resize_2-target.png,1000,2.7575,3.0,6008,1000,meters,jsons/v1_VE1000_randls_24_rotated.json,1727594,2502946,32,Man
94,336867,DepthScenes,duration_manipulation_targetAtFixation,jsons/v1_VE1000_randls_24_rotated.json,http://54.235.29.9/FacialAge/BNav_EC2/DepthDuration/v2_depth_duration_MTurk/v2_DepthDuration_HTML.html#219,219,1056,604,1364,768,8-29-2022,14-25-51,95,depth_duration_stimuli/003079_2014-06-15_15-18-20_094959634447_rgbf000152-resize_8/003079_2014-06-15_15-18-20_094959634447_rgbf000152-resize_8-target.png,1000,2.8775,8.0,7639,1000,meters,jsons/v1_VE1000_randls_24_rotated.json,1727594,2502946,32,Man
95,336867,DepthScenes,duration_manipulation_targetAtFixation,jsons/v1_VE1000_randls_24_rotated.json,http://54.235.29.9/FacialAge/BNav_EC2/DepthDuration/v2_depth_duration_MTurk/v2_DepthDuration_HTML.html#219,219,1056,604,1364,768,8-29-2022,14-25-51,96,depth_duration_stimuli/000506_2014-06-08_23-21-00_260595134347_rgbf000070-resize_7/000506_2014-06-08_23-21-00_260595134347_rgbf000070-resize_7-target.png,1000,4.0585,8.0,7258,1001,meters,jsons/v1_VE1000_randls_24_rotated.json,1727594,2502946,32,Man
96,336867,DepthScenes,duration_manipulation_targetAtFixation,jsons/v1_VE1000_randls_24_rotated.json,http://54.235.29.9/FacialAge/BNav_EC2/DepthDuration/v2_depth_duration_MTurk/v2_DepthDuration_HTML.html#219,219,1056,604,1364,768,8-29-2022,14-25-51,97,depth_duration_stimuli/000677_2014-06-08_23-10-32_260595134347_rgbf000158-resize_6/000677_2014-06-08_23-10-32_260595134347_rgbf000158-resize_6-target.png,1000,3.556,4.0,5658,999,meters,jsons/v1_VE1000_randls_24_rotated.json,1727594,2502946,32,Man
97,336867,DepthScenes,duration_manipulation_targetAtFixation,jsons/v1_VE1000_randls_24_rotated.json,http://54.235.29.9/FacialAge/BNav_EC2/DepthDuration/v2_depth_duration_MTurk/v2_DepthDuration_HTML.html#219,219,1056,604,1364,768,8-29-2022,14-25-51,98,depth_duration_stimuli/001029_2014-06-08_13-17-57_260595134347_rgbf000065-resize_1/001029_2014-06-08_13-17-57_260595134347_rgbf000065-resize_1-target.png,1000,3.0835,6.0,6617,1000,meters,jsons/v1_VE1000_randls_24_rotated.json,1727594,2502946,32,Man
98,336867,DepthScenes,duration_manipulation_targetAtFixation,jsons/v1_VE1000_randls_24_rotated.json,http://54.235.29.9/FacialAge/BNav_EC2/DepthDuration/v2_depth_duration_MTurk/v2_DepthDuration_HTML.html#219,219,1056,604,1364,768,8-29-2022,14-25-51,99,depth_duration_stimuli/001222_2014-06-17_16-24-06_260595134347_rgbf000073-resize_0/001222_2014-06-17_16-24-06_260595134347_rgbf000073-resize-original.jpg,1000,1.4385,1.0,6376,1000,meters,jsons/v1_VE1000_randls_24_rotated.json,1727594,2502946,32,Man
99,336867,DepthScenes,duration_manipulation_targetAtFixation,jsons/v1_VE1000_randls_24_rotated.json,http://54.235.29.9/FacialAge/BNav_EC2/DepthDuration/v2_depth_duration_MTurk/v2_DepthDuration_HTML.html#219,219,1056,604,1364,768,8-29-2022,14-25-51,100,depth_duration_stimuli/002199_2014-06-28_18-33-56_260595134347_rgbf000074-resize_0/002199_2014-06-28_18-33-56_260595134347_rgbf000074-resize_0-target.png,1000,1.996,1.0,8484,1000,meters,jsons/v1_VE1000_randls_24_rotated.json,1727594,2502946,32,Man
100,336867,DepthScenes,duration_manipulation_targetAtFixation,jsons/v1_VE1000_randls_24_rotated.json,http://54.235.29.9/FacialAge/BNav_EC2/DepthDuration/v2_depth_duration_MTurk/v2_DepthDuration_HTML.html#219,219,1056,604,1364,768,8-29-2022,14-25-51,101,depth_duration_stimuli/001056_2014-06-08_18-46-44_260595134347_rgbf000068-resize_0/001056_2014-06-08_18-46-44_260595134347_rgbf000068-resize_0-target.png,1000,2.6625,2.0,5738,1000,meters,jsons/v1_VE1000_randls_24_rotated.json,1727594,2502946,32,Man
101,336867,DepthScenes,duration_manipulation_targetAtFixation,jsons/v1_VE1000_randls_24_rotated.json,http://54.235.29.9/FacialAge/BNav_EC2/DepthDuration/v2_depth_duration_MTurk/v2_DepthDuration_HTML.html#219,219,1056,604,1364,768,8-29-2022,14-25-51,102,depth_duration_stimuli/002414_2014-06-28_20-24-58_260595134347_rgbf000067-resize_4/002414_2014-06-28_20-24-58_260595134347_rgbf000067-resize_4-target.png,1000,4.363,8.0,6738,999,meters,jsons/v1_VE1000_randls_24_rotated.json,1727594,2502946,32,Man
102,336867,DepthScenes,duration_manipulation_targetAtFixation,jsons/v1_VE1000_randls_24_rotated.json,http://54.235.29.9/FacialAge/BNav_EC2/DepthDuration/v2_depth_duration_MTurk/v2_DepthDuration_HTML.html#219,219,1056,604,1364,768,8-29-2022,14-25-51,103,depth_duration_stimuli/000773_2014-06-08_22-24-54_260595134347_rgbf000093-resize_1/000773_2014-06-08_22-24-54_260595134347_rgbf000093-resize_1-target.png,1000,4.973,10.0,5349,1000,meters,jsons/v1_VE1000_randls_24_rotated.json,1727594,2502946,32,Man
103,336867,DepthScenes,duration_manipulation_targetAtFixation,jsons/v1_VE1000_randls_24_rotated.json,http://54.235.29.9/FacialAge/BNav_EC2/DepthDuration/v2_depth_duration_MTurk/v2_DepthDuration_HTML.html#219,219,1056,604,1364,768,8-29-2022,14-25-51,104,depth_duration_stimuli/001571_2014-06-20_17-21-32_260595134347_rgbf000089-resize_1/001571_2014-06-20_17-21-32_260595134347_rgbf000089-resize_1-target.png,1000,1.86,3.0,7939,999,meters,jsons/v1_VE1000_randls_24_rotated.json,1727594,2502946,32,Man
104,336867,DepthScenes,duration_manipulation_targetAtFixation,jsons/v1_VE1000_randls_24_rotated.json,http://54.235.29.9/FacialAge/BNav_EC2/DepthDuration/v2_depth_duration_MTurk/v2_DepthDuration_HTML.html#219,219,1056,604,1364,768,8-29-2022,14-25-51,105,depth_duration_stimuli/002272_2014-06-28_18-53-56_260595134347_rgbf000067-resize_2/002272_2014-06-28_18-53-56_260595134347_rgbf000067-resize_2-target.png,1000,1.138,0.5,6216,999,meters,jsons/v1_VE1000_randls_24_rotated.json,1727594,2502946,32,Man
105,336867,DepthScenes,duration_manipulation_targetAtFixation,jsons/v1_VE1000_randls_24_rotated.json,http://54.235.29.9/FacialAge/BNav_EC2/DepthDuration/v2_depth_duration_MTurk/v2_DepthDuration_HTML.html#219,219,1056,604,1364,768,8-29-2022,14-25-51,106,depth_duration_stimuli/001450_2014-06-19_17-02-03_260595134347_rgbf000203-resize_4/001450_2014-06-19_17-02-03_260595134347_rgbf000203-resize_4-target.png,1000,4.0106666666667,5.0,6633,1000,meters,jsons/v1_VE1000_randls_24_rotated.json,1727594,2502946,32,Man
106,336867,DepthScenes,duration_manipulation_targetAtFixation,jsons/v1_VE1000_randls_24_rotated.json,http://54.235.29.9/FacialAge/BNav_EC2/DepthDuration/v2_depth_duration_MTurk/v2_DepthDuration_HTML.html#219,219,1056,604,1364,768,8-29-2022,14-25-51,107,depth_duration_stimuli/001449_2014-06-19_17-01-27_260595134347_rgbf000116-resize_2/001449_2014-06-19_17-01-27_260595134347_rgbf000116-resize_2-target.png,1000,3.452,6.0,6768,1001,meters,jsons/v1_VE1000_randls_24_rotated.json,1727594,2502946,32,Man
107,336867,DepthScenes,duration_manipulation_targetAtFixation,jsons/v1_VE1000_randls_24_rotated.json,http://54.235.29.9/FacialAge/BNav_EC2/DepthDuration/v2_depth_duration_MTurk/v2_DepthDuration_HTML.html#219,219,1056,604,1364,768,8-29-2022,14-25-51,108,depth_duration_stimuli/001136_2014-06-17_15-19-41_260595134347_rgbf000076-resize_3/001136_2014-06-17_15-19-41_260595134347_rgbf000076-resize_3-target.png,1000,1.8655,3.0,7538,1001,meters,jsons/v1_VE1000_randls_24_rotated.json,1727594,2502946,32,Man
108,336867,DepthScenes,duration_manipulation_targetAtFixation,jsons/v1_VE1000_randls_24_rotated.json,http://54.235.29.9/FacialAge/BNav_EC2/DepthDuration/v2_depth_duration_MTurk/v2_DepthDuration_HTML.html#219,219,1056,604,1364,768,8-29-2022,14-25-51,109,depth_duration_stimuli/001164_2014-06-17_15-35-46_260595134347_rgbf000085-resize_3/001164_2014-06-17_15-35-46_260595134347_rgbf000085-resize_3-target.png,1000,2.354,3.0,16540,1001,meters,jsons/v1_VE1000_randls_24_rotated.json,1727594,2502946,32,Man
109,336867,DepthScenes,duration_manipulation_targetAtFixation,jsons/v1_VE1000_randls_24_rotated.json,http://54.235.29.9/FacialAge/BNav_EC2/DepthDuration/v2_depth_duration_MTurk/v2_DepthDuration_HTML.html#219,219,1056,604,1364,768,8-29-2022,14-25-51,110,depth_duration_stimuli/002103_2014-06-25_20-00-40_260595134347_rgbf000049-resize_0/002103_2014-06-25_20-00-40_260595134347_rgbf000049-resize_0-target.png,1000,4.105,2.0,6660,1000,meters,jsons/v1_VE1000_randls_24_rotated.json,1727594,2502946,32,Man
110,336867,DepthScenes,duration_manipulation_targetAtFixation,jsons/v1_VE1000_randls_24_rotated.json,http://54.235.29.9/FacialAge/BNav_EC2/DepthDuration/v2_depth_duration_MTurk/v2_DepthDuration_HTML.html#219,219,1056,604,1364,768,8-29-2022,14-25-51,111,depth_duration_stimuli/002039_2014-06-24_20-22-38_260595134347_rgbf000084-resize_1/002039_2014-06-24_20-22-38_260595134347_rgbf000084-resize_1-target.png,1000,4.408,2.0,10030,1000,meters,jsons/v1_VE1000_randls_24_rotated.json,1727594,2502946,32,Man
111,336867,DepthScenes,duration_manipulation_targetAtFixation,jsons/v1_VE1000_randls_24_rotated.json,http://54.235.29.9/FacialAge/BNav_EC2/DepthDuration/v2_depth_duration_MTurk/v2_DepthDuration_HTML.html#219,219,1056,604,1364,768,8-29-2022,14-25-51,112,depth_duration_stimuli/001052_2014-06-08_18-24-54_260595134347_rgbf000130-resize_1/001052_2014-06-08_18-24-54_260595134347_rgbf000130-resize_1-target.png,1000,4.1045,5.0,7258,1000,meters,jsons/v1_VE1000_randls_24_rotated.json,1727594,2502946,32,Man
112,336867,DepthScenes,duration_manipulation_targetAtFixation,jsons/v1_VE1000_randls_24_rotated.json,http://54.235.29.9/FacialAge/BNav_EC2/DepthDuration/v2_depth_duration_MTurk/v2_DepthDuration_HTML.html#219,219,1056,604,1364,768,8-29-2022,14-25-51,113,depth_duration_stimuli/002988_2014-06-15_12-24-20_094959634447_rgbf000150-resize_1/002988_2014-06-15_12-24-20_094959634447_rgbf000150-resize_1-target.png,1000,4.7669999999999995,2.0,10057,1001,meters,jsons/v1_VE1000_randls_24_rotated.json,1727594,2502946,32,Man
113,336867,DepthScenes,duration_manipulation_targetAtFixation,jsons/v1_VE1000_randls_24_rotated.json,http://54.235.29.9/FacialAge/BNav_EC2/DepthDuration/v2_depth_duration_MTurk/v2_DepthDuration_HTML.html#219,219,1056,604,1364,768,8-29-2022,14-25-51,114,depth_duration_stimuli/001650_2014-06-20_12-09-00_260595134347_rgbf000087-resize_3/001650_2014-06-20_12-09-00_260595134347_rgbf000087-resize_3-target.png,1000,1.9505,0.5,6577,999,meters,jsons/v1_VE1000_randls_24_rotated.json,1727594,2502946,32,Man
114,336867,DepthScenes,duration_manipulation_targetAtFixation,jsons/v1_VE1000_randls_24_rotated.json,http://54.235.29.9/FacialAge/BNav_EC2/DepthDuration/v2_depth_duration_MTurk/v2_DepthDuration_HTML.html#219,219,1056,604,1364,768,8-29-2022,14-25-51,115,depth_duration_stimuli/000682_2014-06-08_23-14-58_260595134347_rgbf000041-resize_5/000682_2014-06-08_23-14-58_260595134347_rgbf000041-resize_5-target.png,1000,2.7239999999999998,1.0,9608,999,meters,jsons/v1_VE1000_randls_24_rotated.json,1727594,2502946,32,Man
115,336867,DepthScenes,duration_manipulation_targetAtFixation,jsons/v1_VE1000_randls_24_rotated.json,http://54.235.29.9/FacialAge/BNav_EC2/DepthDuration/v2_depth_duration_MTurk/v2_DepthDuration_HTML.html#219,219,1056,604,1364,768,8-29-2022,14-25-51,116,depth_duration_stimuli/000549_2014-06-08_22-10-24_260595134347_rgbf000247-resize_3/000549_2014-06-08_22-10-24_260595134347_rgbf000247-resize_3-target.png,1000,1.841,0.5,9258,1000,meters,jsons/v1_VE1000_randls_24_rotated.json,1727594,2502946,32,Man
116,336867,DepthScenes,duration_manipulation_targetAtFixation,jsons/v1_VE1000_randls_24_rotated.json,http://54.235.29.9/FacialAge/BNav_EC2/DepthDuration/v2_depth_duration_MTurk/v2_DepthDuration_HTML.html#219,219,1056,604,1364,768,8-29-2022,14-25-51,117,depth_duration_stimuli/001055_2014-06-08_18-45-35_260595134347_rgbf000111-resize_4/001055_2014-06-08_18-45-35_260595134347_rgbf000111-resize_4-target.png,1000,2.4290000000000003,0.5,6709,1000,meters,jsons/v1_VE1000_randls_24_rotated.json,1727594,2502946,32,Man
117,336867,DepthScenes,duration_manipulation_targetAtFixation,jsons/v1_VE1000_randls_24_rotated.json,http://54.235.29.9/FacialAge/BNav_EC2/DepthDuration/v2_depth_duration_MTurk/v2_DepthDuration_HTML.html#219,219,1056,604,1364,768,8-29-2022,14-25-51,118,depth_duration_stimuli/002805_2014-06-22_19-54-03_094959634447_rgbf000079-resize_1/002805_2014-06-22_19-54-03_094959634447_rgbf000079-resize_1-target.png,1000,3.1439999999999997,5.0,6281,1000,meters,jsons/v1_VE1000_randls_24_rotated.json,1727594,2502946,32,Man
118,336867,DepthScenes,duration_manipulation_targetAtFixation,jsons/v1_VE1000_randls_24_rotated.json,http://54.235.29.9/FacialAge/BNav_EC2/DepthDuration/v2_depth_duration_MTurk/v2_DepthDuration_HTML.html#219,219,1056,604,1364,768,8-29-2022,14-25-51,119,depth_duration_stimuli/000906_2014-06-08_13-35-43_260595134347_rgbf000155-resize_1/000906_2014-06-08_13-35-43_260595134347_rgbf000155-resize_1-target.png,1000,2.8489999999999998,6.0,7920,999,meters,jsons/v1_VE1000_randls_24_rotated.json,1727594,2502946,32,Man
119,336867,DepthScenes,duration_manipulation_targetAtFixation,jsons/v1_VE1000_randls_24_rotated.json,http://54.235.29.9/FacialAge/BNav_EC2/DepthDuration/v2_depth_duration_MTurk/v2_DepthDuration_HTML.html#219,219,1056,604,1364,768,8-29-2022,14-25-51,120,depth_duration_stimuli/000787_2014-06-08_22-33-53_260595134347_rgbf000175-resize_1/000787_2014-06-08_22-33-53_260595134347_rgbf000175-resize-original.jpg,1000,4.784,0.0,6016,1000,meters,jsons/v1_VE1000_randls_24_rotated.json,1727594,2502946,32,Man
120,336867,DepthScenes,duration_manipulation_targetAtFixation,jsons/v1_VE1000_randls_24_rotated.json,http://54.235.29.9/FacialAge/BNav_EC2/DepthDuration/v2_depth_duration_MTurk/v2_DepthDuration_HTML.html#219,219,1056,604,1364,768,8-29-2022,14-25-51,121,depth_duration_stimuli/001132_2014-06-17_14-48-54_260595134347_rgbf000100-resize_2/001132_2014-06-17_14-48-54_260595134347_rgbf000100-resize_2-target.png,1000,3.753,5.0,10050,1000,meters,jsons/v1_VE1000_randls_24_rotated.json,1727594,2502946,32,Man
121,336867,DepthScenes,duration_manipulation_targetAtFixation,jsons/v1_VE1000_randls_24_rotated.json,http://54.235.29.9/FacialAge/BNav_EC2/DepthDuration/v2_depth_duration_MTurk/v2_DepthDuration_HTML.html#219,219,1056,604,1364,768,8-29-2022,14-25-51,122,depth_duration_stimuli/001133_2014-06-17_14-49-16_260595134347_rgbf000100-resize_0/001133_2014-06-17_14-49-16_260595134347_rgbf000100-resize_0-target.png,1000,4.2115,5.0,6269,1001,meters,jsons/v1_VE1000_randls_24_rotated.json,1727594,2502946,32,Man
122,336867,DepthScenes,duration_manipulation_targetAtFixation,jsons/v1_VE1000_randls_24_rotated.json,http://54.235.29.9/FacialAge/BNav_EC2/DepthDuration/v2_depth_duration_MTurk/v2_DepthDuration_HTML.html#219,219,1056,604,1364,768,8-29-2022,14-25-51,123,depth_duration_stimuli/000502_2014-06-08_23-02-32_260595134347_rgbf000063-resize_4/000502_2014-06-08_23-02-32_260595134347_rgbf000063-resize_4-target.png,1000,2.431,2.0,10338,1000,meters,jsons/v1_VE1000_randls_24_rotated.json,1727594,2502946,32,Man
123,336867,DepthScenes,duration_manipulation_targetAtFixation,jsons/v1_VE1000_randls_24_rotated.json,http://54.235.29.9/FacialAge/BNav_EC2/DepthDuration/v2_depth_duration_MTurk/v2_DepthDuration_HTML.html#219,219,1056,604,1364,768,8-29-2022,14-25-51,124,depth_duration_stimuli/001199_2014-06-17_16-03-48_260595134347_rgbf000077-resize_0/001199_2014-06-17_16-03-48_260595134347_rgbf000077-resize_0-target.png,1000,3.4375,5.0,7695,1000,meters,jsons/v1_VE1000_randls_24_rotated.json,1727594,2502946,32,Man
124,336867,DepthScenes,duration_manipulation_targetAtFixation,jsons/v1_VE1000_randls_24_rotated.json,http://54.235.29.9/FacialAge/BNav_EC2/DepthDuration/v2_depth_duration_MTurk/v2_DepthDuration_HTML.html#219,219,1056,604,1364,768,8-29-2022,14-25-51,125,depth_duration_stimuli/003495_2014-05-21_16-01-51_094959634447_rgbf000100-resize_3/003495_2014-05-21_16-01-51_094959634447_rgbf000100-resize_3-target.png,1000,1.6255,2.0,6581,1000,meters,jsons/v1_VE1000_randls_24_rotated.json,1727594,2502946,32,Man
125,336867,DepthScenes,duration_manipulation_targetAtFixation,jsons/v1_VE1000_randls_24_rotated.json,http://54.235.29.9/FacialAge/BNav_EC2/DepthDuration/v2_depth_duration_MTurk/v2_DepthDuration_HTML.html#219,219,1056,604,1364,768,8-29-2022,14-25-51,126,depth_duration_stimuli/001244_2014-06-17_16-47-45_260595134347_rgbf000030-resize_4/001244_2014-06-17_16-47-45_260595134347_rgbf000030-resize_4-target.png,1000,2.0425,2.0,6729,1000,meters,jsons/v1_VE1000_randls_24_rotated.json,1727594,2502946,32,Man
126,336867,DepthScenes,duration_manipulation_targetAtFixation,jsons/v1_VE1000_randls_24_rotated.json,http://54.235.29.9/FacialAge/BNav_EC2/DepthDuration/v2_depth_duration_MTurk/v2_DepthDuration_HTML.html#219,219,1056,604,1364,768,8-29-2022,14-25-51,127,depth_duration_stimuli/000635_2014-06-08_16-38-42_260595134347_rgbf000106-resize_1/000635_2014-06-08_16-38-42_260595134347_rgbf000106-resize_1-target.png,1000,2.074,2.0,7459,1001,meters,jsons/v1_VE1000_randls_24_rotated.json,1727594,2502946,32,Man
127,336867,DepthScenes,duration_manipulation_targetAtFixation,jsons/v1_VE1000_randls_24_rotated.json,http://54.235.29.9/FacialAge/BNav_EC2/DepthDuration/v2_depth_duration_MTurk/v2_DepthDuration_HTML.html#219,219,1056,604,1364,768,8-29-2022,14-25-51,128,depth_duration_stimuli/002279_2014-06-28_18-55-32_260595134347_rgbf000040-resize_5/002279_2014-06-28_18-55-32_260595134347_rgbf000040-resize_5-target.png,1000,1.5043333333333,0.5,5545,1000,meters,jsons/v1_VE1000_randls_24_rotated.json,1727594,2502946,32,Man
128,336867,DepthScenes,duration_manipulation_targetAtFixation,jsons/v1_VE1000_randls_24_rotated.json,http://54.235.29.9/FacialAge/BNav_EC2/DepthDuration/v2_depth_duration_MTurk/v2_DepthDuration_HTML.html#219,219,1056,604,1364,768,8-29-2022,14-25-51,129,depth_duration_stimuli/001094_2014-06-15_17-36-00_260595134347_rgbf000205-resize_0/001094_2014-06-15_17-36-00_260595134347_rgbf000205-resize_0-target.png,1000,4.2175,5.0,11372,1001,meters,jsons/v1_VE1000_randls_24_rotated.json,1727594,2502946,32,Man
129,336867,DepthScenes,duration_manipulation_targetAtFixation,jsons/v1_VE1000_randls_24_rotated.json,http://54.235.29.9/FacialAge/BNav_EC2/DepthDuration/v2_depth_duration_MTurk/v2_DepthDuration_HTML.html#219,219,1056,604,1364,768,8-29-2022,14-25-51,130,depth_duration_stimuli/000692_2014-06-08_13-09-42_260595134347_rgbf000199-resize_2/000692_2014-06-08_13-09-42_260595134347_rgbf000199-resize_2-target.png,1000,3.661,8.0,7229,1000,meters,jsons/v1_VE1000_randls_24_rotated.json,1727594,2502946,32,Man
130,336867,DepthScenes,duration_manipulation_targetAtFixation,jsons/v1_VE1000_randls_24_rotated.json,http://54.235.29.9/FacialAge/BNav_EC2/DepthDuration/v2_depth_duration_MTurk/v2_DepthDuration_HTML.html#219,219,1056,604,1364,768,8-29-2022,14-25-51,131,depth_duration_stimuli/002758_2014-06-22_19-11-20_094959634447_rgbf000128-resize_1/002758_2014-06-22_19-11-20_094959634447_rgbf000128-resize_1-target.png,1000,2.555,2.0,6019,1000,meters,jsons/v1_VE1000_randls_24_rotated.json,1727594,2502946,32,Man
131,336867,DepthScenes,duration_manipulation_targetAtFixation,jsons/v1_VE1000_randls_24_rotated.json,http://54.235.29.9/FacialAge/BNav_EC2/DepthDuration/v2_depth_duration_MTurk/v2_DepthDuration_HTML.html#219,219,1056,604,1364,768,8-29-2022,14-25-51,132,depth_duration_stimuli/002630_2014-06-24_14-47-50_094959634447_rgbf000055-resize_1/002630_2014-06-24_14-47-50_094959634447_rgbf000055-resize_1-target.png,1000,3.0095,6.0,10863,1000,meters,jsons/v1_VE1000_randls_24_rotated.json,1727594,2502946,32,Man
132,336867,DepthScenes,duration_manipulation_targetAtFixation,jsons/v1_VE1000_randls_24_rotated.json,http://54.235.29.9/FacialAge/BNav_EC2/DepthDuration/v2_depth_duration_MTurk/v2_DepthDuration_HTML.html#219,219,1056,604,1364,768,8-29-2022,14-25-51,133,depth_duration_stimuli/002750_2014-06-22_19-08-03_094959634447_rgbf000094-resize_4/002750_2014-06-22_19-08-03_094959634447_rgbf000094-resize_4-target.png,1000,2.354,5.0,6597,1000,meters,jsons/v1_VE1000_randls_24_rotated.json,1727594,2502946,32,Man
133,336867,DepthScenes,duration_manipulation_targetAtFixation,jsons/v1_VE1000_randls_24_rotated.json,http://54.235.29.9/FacialAge/BNav_EC2/DepthDuration/v2_depth_duration_MTurk/v2_DepthDuration_HTML.html#219,219,1056,604,1364,768,8-29-2022,14-25-51,134,depth_duration_stimuli/002549_2014-06-24_13-41-39_094959634447_rgbf000022-resize_3/002549_2014-06-24_13-41-39_094959634447_rgbf000022-resize_3-target.png,1000,1.476,1.0,11199,1001,meters,jsons/v1_VE1000_randls_24_rotated.json,1727594,2502946,32,Man
134,336867,DepthScenes,duration_manipulation_targetAtFixation,jsons/v1_VE1000_randls_24_rotated.json,http://54.235.29.9/FacialAge/BNav_EC2/DepthDuration/v2_depth_duration_MTurk/v2_DepthDuration_HTML.html#219,219,1056,604,1364,768,8-29-2022,14-25-51,135,depth_duration_stimuli/000375_2014-06-08_11-17-29_260595134347_rgbf000133-resize_2/000375_2014-06-08_11-17-29_260595134347_rgbf000133-resize-original.jpg,1000,4.718,0.0,6360,1001,meters,jsons/v1_VE1000_randls_24_rotated.json,1727594,2502946,32,Man
135,336867,DepthScenes,duration_manipulation_targetAtFixation,jsons/v1_VE1000_randls_24_rotated.json,http://54.235.29.9/FacialAge/BNav_EC2/DepthDuration/v2_depth_duration_MTurk/v2_DepthDuration_HTML.html#219,219,1056,604,1364,768,8-29-2022,14-25-51,136,depth_duration_stimuli/002136_2014-06-25_21-18-03_260595134347_rgbf000109-resize_3/002136_2014-06-25_21-18-03_260595134347_rgbf000109-resize_3-target.png,1000,1.9569999999999999,2.0,6538,1000,meters,jsons/v1_VE1000_randls_24_rotated.json,1727594,2502946,32,Man
136,336867,DepthScenes,duration_manipulation_targetAtFixation,jsons/v1_VE1000_randls_24_rotated.json,http://54.235.29.9/FacialAge/BNav_EC2/DepthDuration/v2_depth_duration_MTurk/v2_DepthDuration_HTML.html#219,219,1056,604,1364,768,8-29-2022,14-25-51,137,depth_duration_stimuli/002964_2014-06-08_17-46-11_094959634447_rgbf000091-resize_4/002964_2014-06-08_17-46-11_094959634447_rgbf000091-resize_4-target.png,1000,1.6909999999999998,1.0,5988,1001,meters,jsons/v1_VE1000_randls_24_rotated.json,1727594,2502946,32,Man
137,336867,DepthScenes,duration_manipulation_targetAtFixation,jsons/v1_VE1000_randls_24_rotated.json,http://54.235.29.9/FacialAge/BNav_EC2/DepthDuration/v2_depth_duration_MTurk/v2_DepthDuration_HTML.html#219,219,1056,604,1364,768,8-29-2022,14-25-51,138,depth_duration_stimuli/002953_2014-06-08_17-32-18_094959634447_rgbf000059-resize_5/002953_2014-06-08_17-32-18_094959634447_rgbf000059-resize_5-target.png,1000,1.551,1.0,5937,999,meters,jsons/v1_VE1000_randls_24_rotated.json,1727594,2502946,32,Man
138,336867,DepthScenes,duration_manipulation_targetAtFixation,jsons/v1_VE1000_randls_24_rotated.json,http://54.235.29.9/FacialAge/BNav_EC2/DepthDuration/v2_depth_duration_MTurk/v2_DepthDuration_HTML.html#219,219,1056,604,1364,768,8-29-2022,14-25-51,139,depth_duration_stimuli/000878_2014-06-08_22-52-45_260595134347_rgbf000045-resize_2/000878_2014-06-08_22-52-45_260595134347_rgbf000045-resize_2-target.png,1000,2.092,2.0,6779,1001,meters,jsons/v1_VE1000_randls_24_rotated.json,1727594,2502946,32,Man
139,336867,DepthScenes,duration_manipulation_targetAtFixation,jsons/v1_VE1000_randls_24_rotated.json,http://54.235.29.9/FacialAge/BNav_EC2/DepthDuration/v2_depth_duration_MTurk/v2_DepthDuration_HTML.html#219,219,1056,604,1364,768,8-29-2022,14-25-51,140,depth_duration_stimuli/002467_2014-06-28_20-38-07_260595134347_rgbf000026-resize_2/002467_2014-06-28_20-38-07_260595134347_rgbf000026-resize_2-target.png,1000,4.742,6.0,6913,1000,meters,jsons/v1_VE1000_randls_24_rotated.json,1727594,2502946,32,Man
140,336867,DepthScenes,duration_manipulation_targetAtFixation,jsons/v1_VE1000_randls_24_rotated.json,http://54.235.29.9/FacialAge/BNav_EC2/DepthDuration/v2_depth_duration_MTurk/v2_DepthDuration_HTML.html#219,219,1056,604,1364,768,8-29-2022,14-25-51,141,depth_duration_stimuli/002570_2014-06-24_13-59-54_094959634447_rgbf000059-resize_0/002570_2014-06-24_13-59-54_094959634447_rgbf000059-resize_0-target.png,1000,4.037,3.0,5647,1000,meters,jsons/v1_VE1000_randls_24_rotated.json,1727594,2502946,32,Man
141,336867,DepthScenes,duration_manipulation_targetAtFixation,jsons/v1_VE1000_randls_24_rotated.json,http://54.235.29.9/FacialAge/BNav_EC2/DepthDuration/v2_depth_duration_MTurk/v2_DepthDuration_HTML.html#219,219,1056,604,1364,768,8-29-2022,14-25-51,142,depth_duration_stimuli/002344_2014-06-28_20-06-29_260595134347_rgbf000030-resize_1/002344_2014-06-28_20-06-29_260595134347_rgbf000030-resize_1-target.png,1000,1.5795,0.5,6109,1000,meters,jsons/v1_VE1000_randls_24_rotated.json,1727594,2502946,32,Man
142,336867,DepthScenes,duration_manipulation_targetAtFixation,jsons/v1_VE1000_randls_24_rotated.json,http://54.235.29.9/FacialAge/BNav_EC2/DepthDuration/v2_depth_duration_MTurk/v2_DepthDuration_HTML.html#219,219,1056,604,1364,768,8-29-2022,14-25-51,143,depth_duration_stimuli/002725_2014-06-22_11-47-51_094959634447_rgbf000070-resize_1/002725_2014-06-22_11-47-51_094959634447_rgbf000070-resize_1-target.png,1000,2.195,1.0,25538,999,meters,jsons/v1_VE1000_randls_24_rotated.json,1727594,2502946,32,Man
143,336867,DepthScenes,duration_manipulation_targetAtFixation,jsons/v1_VE1000_randls_24_rotated.json,http://54.235.29.9/FacialAge/BNav_EC2/DepthDuration/v2_depth_duration_MTurk/v2_DepthDuration_HTML.html#219,219,1056,604,1364,768,8-29-2022,14-25-51,144,depth_duration_stimuli/001617_2014-06-20_11-35-32_260595134347_rgbf000066-resize_1/001617_2014-06-20_11-35-32_260595134347_rgbf000066-resize_1-target.png,1000,3.7910000000000004,2.0,210701,1001,meters,jsons/v1_VE1000_randls_24_rotated.json,1727594,2502946,32,Man
144,336867,DepthScenes,duration_manipulation_targetAtFixation,jsons/v1_VE1000_randls_24_rotated.json,http://54.235.29.9/FacialAge/BNav_EC2/DepthDuration/v2_depth_duration_MTurk/v2_DepthDuration_HTML.html#219,219,1056,604,1364,768,8-29-2022,14-25-51,145,depth_duration_stimuli/001806_2014-06-26_20-50-20_260595134347_rgbf000091-resize_1/001806_2014-06-26_20-50-20_260595134347_rgbf000091-resize_1-target.png,1000,2.7305,0.5,6039,1000,meters,jsons/v1_VE1000_randls_24_rotated.json,1727594,2502946,32,Man
145,336867,DepthScenes,duration_manipulation_targetAtFixation,jsons/v1_VE1000_randls_24_rotated.json,http://54.235.29.9/FacialAge/BNav_EC2/DepthDuration/v2_depth_duration_MTurk/v2_DepthDuration_HTML.html#219,219,1056,604,1364,768,8-29-2022,14-25-51,146,depth_duration_stimuli/002323_2014-06-28_20-01-54_260595134347_rgbf000051-resize_4/002323_2014-06-28_20-01-54_260595134347_rgbf000051-resize_4-target.png,1000,3.7310000000000003,2.0,8714,1000,meters,jsons/v1_VE1000_randls_24_rotated.json,1727594,2502946,32,Man
146,336867,DepthScenes,duration_manipulation_targetAtFixation,jsons/v1_VE1000_randls_24_rotated.json,http://54.235.29.9/FacialAge/BNav_EC2/DepthDuration/v2_depth_duration_MTurk/v2_DepthDuration_HTML.html#219,219,1056,604,1364,768,8-29-2022,14-25-51,147,depth_duration_stimuli/000917_2014-06-09_22-45-29_260595134347_rgbf000149-resize_3/000917_2014-06-09_22-45-29_260595134347_rgbf000149-resize_3-target.png,1000,4.1865,2.0,6007,999,meters,jsons/v1_VE1000_randls_24_rotated.json,1727594,2502946,32,Man
147,336867,DepthScenes,duration_manipulation_targetAtFixation,jsons/v1_VE1000_randls_24_rotated.json,http://54.235.29.9/FacialAge/BNav_EC2/DepthDuration/v2_depth_duration_MTurk/v2_DepthDuration_HTML.html#219,219,1056,604,1364,768,8-29-2022,14-25-51,148,depth_duration_stimuli/001214_2014-06-17_16-13-55_260595134347_rgbf000111-resize_0/001214_2014-06-17_16-13-55_260595134347_rgbf000111-resize_0-target.png,1000,2.6505,0.5,23134,1000,meters,jsons/v1_VE1000_randls_24_rotated.json,1727594,2502946,32,Man
148,336867,DepthScenes,duration_manipulation_targetAtFixation,jsons/v1_VE1000_randls_24_rotated.json,http://54.235.29.9/FacialAge/BNav_EC2/DepthDuration/v2_depth_duration_MTurk/v2_DepthDuration_HTML.html#219,219,1056,604,1364,768,8-29-2022,14-25-51,149,depth_duration_stimuli/000810_2014-06-08_17-20-01_260595134347_rgbf000105-resize_0/000810_2014-06-08_17-20-01_260595134347_rgbf000105-resize_0-target.png,1000,1.4865,1.0,5577,998,meters,jsons/v1_VE1000_randls_24_rotated.json,1727594,2502946,32,Man
149,336867,DepthScenes,duration_manipulation_targetAtFixation,jsons/v1_VE1000_randls_24_rotated.json,http://54.235.29.9/FacialAge/BNav_EC2/DepthDuration/v2_depth_duration_MTurk/v2_DepthDuration_HTML.html#219,219,1056,604,1364,768,8-29-2022,14-25-51,150,depth_duration_stimuli/000483_2014-06-09_20-41-45_260595134347_rgbf000116-resize_4/000483_2014-06-09_20-41-45_260595134347_rgbf000116-resize_4-target.png,1000,1.337,0.5,5959,1000,meters,jsons/v1_VE1000_randls_24_rotated.json,1727594,2502946,32,Man
150,336867,DepthScenes,duration_manipulation_targetAtFixation,jsons/v1_VE1000_randls_24_rotated.json,http://54.235.29.9/FacialAge/BNav_EC2/DepthDuration/v2_depth_duration_MTurk/v2_DepthDuration_HTML.html#219,219,1056,604,1364,768,8-29-2022,14-25-51,151,depth_duration_stimuli/000469_2014-06-09_19-42-10_260595134347_rgbf000081-resize_1/000469_2014-06-09_19-42-10_260595134347_rgbf000081-resize_1-target.png,1000,1.652,0.5,6650,1000,meters,jsons/v1_VE1000_randls_24_rotated.json,1727594,2502946,32,Man
151,336867,DepthScenes,duration_manipulation_targetAtFixation,jsons/v1_VE1000_randls_24_rotated.json,http://54.235.29.9/FacialAge/BNav_EC2/DepthDuration/v2_depth_duration_MTurk/v2_DepthDuration_HTML.html#219,219,1056,604,1364,768,8-29-2022,14-25-51,152,depth_duration_stimuli/000569_2014-06-09_22-51-47_260595134347_rgbf000141-resize_3/000569_2014-06-09_22-51-47_260595134347_rgbf000141-resize-original.jpg,1000,4.512,0.0,7418,1001,meters,jsons/v1_VE1000_randls_24_rotated.json,1727594,2502946,32,Man
152,336867,DepthScenes,duration_manipulation_targetAtFixation,jsons/v1_VE1000_randls_24_rotated.json,http://54.235.29.9/FacialAge/BNav_EC2/DepthDuration/v2_depth_duration_MTurk/v2_DepthDuration_HTML.html#219,219,1056,604,1364,768,8-29-2022,14-25-51,153,depth_duration_stimuli/000943_2014-06-09_19-31-07_260595134347_rgbf000128-resize_1/000943_2014-06-09_19-31-07_260595134347_rgbf000128-resize_1-target.png,1000,1.9765,1.0,6250,1000,meters,jsons/v1_VE1000_randls_24_rotated.json,1727594,2502946,32,Man
153,336867,DepthScenes,duration_manipulation_targetAtFixation,jsons/v1_VE1000_randls_24_rotated.json,http://54.235.29.9/FacialAge/BNav_EC2/DepthDuration/v2_depth_duration_MTurk/v2_DepthDuration_HTML.html#219,219,1056,604,1364,768,8-29-2022,14-25-51,154,depth_duration_stimuli/003070_2014-06-15_14-58-27_094959634447_rgbf000150-resize_3/003070_2014-06-15_14-58-27_094959634447_rgbf000150-resize_3-target.png,1000,2.9415,3.0,6748,1000,meters,jsons/v1_VE1000_randls_24_rotated.json,1727594,2502946,32,Man
154,336867,DepthScenes,duration_manipulation_targetAtFixation,jsons/v1_VE1000_randls_24_rotated.json,http://54.235.29.9/FacialAge/BNav_EC2/DepthDuration/v2_depth_duration_MTurk/v2_DepthDuration_HTML.html#219,219,1056,604,1364,768,8-29-2022,14-25-51,155,depth_duration_stimuli/001235_2014-06-17_16-37-36_260595134347_rgbf000084-resize_4/001235_2014-06-17_16-37-36_260595134347_rgbf000084-resize_4-target.png,1000,3.6605,1.0,8339,1002,meters,jsons/v1_VE1000_randls_24_rotated.json,1727594,2502946,32,Man
155,336867,DepthScenes,duration_manipulation_targetAtFixation,jsons/v1_VE1000_randls_24_rotated.json,http://54.235.29.9/FacialAge/BNav_EC2/DepthDuration/v2_depth_duration_MTurk/v2_DepthDuration_HTML.html#219,219,1056,604,1364,768,8-29-2022,14-25-51,156,depth_duration_stimuli/000788_2014-06-08_22-34-36_260595134347_rgbf000131-resize_1/000788_2014-06-08_22-34-36_260595134347_rgbf000131-resize_1-target.png,1000,3.359,2.0,5288,1000,meters,jsons/v1_VE1000_randls_24_rotated.json,1727594,2502946,32,Man
156,336867,DepthScenes,duration_manipulation_targetAtFixation,jsons/v1_VE1000_randls_24_rotated.json,http://54.235.29.9/FacialAge/BNav_EC2/DepthDuration/v2_depth_duration_MTurk/v2_DepthDuration_HTML.html#219,219,1056,604,1364,768,8-29-2022,14-25-51,157,depth_duration_stimuli/000866_2014-06-09_20-45-42_260595134347_rgbf000139-resize_1/000866_2014-06-09_20-45-42_260595134347_rgbf000139-resize_1-target.png,1000,3.2155,3.0,6589,1000,meters,jsons/v1_VE1000_randls_24_rotated.json,1727594,2502946,32,Man
157,336867,DepthScenes,duration_manipulation_targetAtFixation,jsons/v1_VE1000_randls_24_rotated.json,http://54.235.29.9/FacialAge/BNav_EC2/DepthDuration/v2_depth_duration_MTurk/v2_DepthDuration_HTML.html#219,219,1056,604,1364,768,8-29-2022,14-25-51,158,depth_duration_stimuli/002989_2014-06-15_12-25-03_094959634447_rgbf000150-resize_3/002989_2014-06-15_12-25-03_094959634447_rgbf000150-resize_3-target.png,1000,4.1975,3.0,7471,1002,meters,jsons/v1_VE1000_randls_24_rotated.json,1727594,2502946,32,Man
158,336867,DepthScenes,duration_manipulation_targetAtFixation,jsons/v1_VE1000_randls_24_rotated.json,http://54.235.29.9/FacialAge/BNav_EC2/DepthDuration/v2_depth_duration_MTurk/v2_DepthDuration_HTML.html#219,219,1056,604,1364,768,8-29-2022,14-25-51,159,depth_duration_stimuli/002995_2014-06-15_12-31-26_094959634447_rgbf000150-resize_1/002995_2014-06-15_12-31-26_094959634447_rgbf000150-resize_1-target.png,1000,3.8360000000000003,2.0,21015,1000,meters,jsons/v1_VE1000_randls_24_rotated.json,1727594,2502946,32,Man
159,336867,DepthScenes,duration_manipulation_targetAtFixation,jsons/v1_VE1000_randls_24_rotated.json,http://54.235.29.9/FacialAge/BNav_EC2/DepthDuration/v2_depth_duration_MTurk/v2_DepthDuration_HTML.html#219,219,1056,604,1364,768,8-29-2022,14-25-51,160,depth_duration_stimuli/002748_2014-06-22_19-07-22_094959634447_rgbf000078-resize_1/002748_2014-06-22_19-07-22_094959634447_rgbf000078-resize_1-target.png,1000,4.6705,10.0,8201,999,meters,jsons/v1_VE1000_randls_24_rotated.json,1727594,2502946,32,Man
160,336867,DepthScenes,duration_manipulation_targetAtFixation,jsons/v1_VE1000_randls_24_rotated.json,http://54.235.29.9/FacialAge/BNav_EC2/DepthDuration/v2_depth_duration_MTurk/v2_DepthDuration_HTML.html#219,219,1056,604,1364,768,8-29-2022,14-25-51,161,depth_duration_stimuli/002209_2014-06-28_18-36-10_260595134347_rgbf000051-resize_1/002209_2014-06-28_18-36-10_260595134347_rgbf000051-resize_1-target.png,1000,2.057,1.0,6260,1000,meters,jsons/v1_VE1000_randls_24_rotated.json,1727594,2502946,32,Man
161,336867,DepthScenes,duration_manipulation_targetAtFixation,jsons/v1_VE1000_randls_24_rotated.json,http://54.235.29.9/FacialAge/BNav_EC2/DepthDuration/v2_depth_duration_MTurk/v2_DepthDuration_HTML.html#219,219,1056,604,1364,768,8-29-2022,14-25-51,162,depth_duration_stimuli/002763_2014-06-22_19-13-10_094959634447_rgbf000075-resize_4/002763_2014-06-22_19-13-10_094959634447_rgbf000075-resize_4-target.png,1000,1.68375,1.0,7476,1000,meters,jsons/v1_VE1000_randls_24_rotated.json,1727594,2502946,32,Man
162,336867,DepthScenes,duration_manipulation_targetAtFixation,jsons/v1_VE1000_randls_24_rotated.json,http://54.235.29.9/FacialAge/BNav_EC2/DepthDuration/v2_depth_duration_MTurk/v2_DepthDuration_HTML.html#219,219,1056,604,1364,768,8-29-2022,14-25-51,163,depth_duration_stimuli/002660_2014-06-13_15-44-18_094959634447_rgbf001878-resize_2/002660_2014-06-13_15-44-18_094959634447_rgbf001878-resize_2-target.png,1000,3.576,6.0,5906,1001,meters,jsons/v1_VE1000_randls_24_rotated.json,1727594,2502946,32,Man
163,336867,DepthScenes,duration_manipulation_targetAtFixation,jsons/v1_VE1000_randls_24_rotated.json,http://54.235.29.9/FacialAge/BNav_EC2/DepthDuration/v2_depth_duration_MTurk/v2_DepthDuration_HTML.html#219,219,1056,604,1364,768,8-29-2022,14-25-51,164,depth_duration_stimuli/002153_2014-06-25_21-27-18_260595134347_rgbf000038-resize_5/002153_2014-06-25_21-27-18_260595134347_rgbf000038-resize_5-target.png,1000,2.505,3.0,5804,1001,meters,jsons/v1_VE1000_randls_24_rotated.json,1727594,2502946,32,Man
