,subjID,experimentName,versionName,sequenceName,url,selected_row,windowWidth,windowHeight,screenWidth,screenHeight,startDate,startTime,trial,stimulus,duration,actual_depth,depth_estimate,trial_RT,log_sceneDuration,unitSelection,seq_filepath,experimentTime,totalTime,age,gender
0,337468,DepthScenes,duration_manipulation_targetAtFixation,jsons/v1_VE250_randls_58_rotated.json,http://54.235.29.9/FacialAge/BNav_EC2/DepthDuration/v2_depth_duration_MTurk/v2_DepthDuration_HTML.html#78,78,1280,625,1280,768,8-20-2022,9-58-15,1,depth_duration_stimuli/000742_2014-06-08_18-48-09_260595134347_rgbf000164-resize_4/000742_2014-06-08_18-48-09_260595134347_rgbf000164-resize_4-target.png,250,4.632,5,3995,315,feet,jsons/v1_VE250_randls_58_rotated.json,620094,1244853,25,Woman
1,337468,DepthScenes,duration_manipulation_targetAtFixation,jsons/v1_VE250_randls_58_rotated.json,http://54.235.29.9/FacialAge/BNav_EC2/DepthDuration/v2_depth_duration_MTurk/v2_DepthDuration_HTML.html#78,78,1280,625,1280,768,8-20-2022,9-58-15,2,depth_duration_stimuli/001066_2014-06-08_22-03-20_260595134347_rgbf000066-resize_4/001066_2014-06-08_22-03-20_260595134347_rgbf000066-resize_4-target.png,250,4.2330000000000005,12,4941,250,feet,jsons/v1_VE250_randls_58_rotated.json,620094,1244853,25,Woman
2,337468,DepthScenes,duration_manipulation_targetAtFixation,jsons/v1_VE250_randls_58_rotated.json,http://54.235.29.9/FacialAge/BNav_EC2/DepthDuration/v2_depth_duration_MTurk/v2_DepthDuration_HTML.html#78,78,1280,625,1280,768,8-20-2022,9-58-15,3,depth_duration_stimuli/001392_2014-06-19_16-07-59_260595134347_rgbf000046-resize_1/001392_2014-06-19_16-07-59_260595134347_rgbf000046-resize_1-target.png,250,4.135,7,4493,249,feet,jsons/v1_VE250_randls_58_rotated.json,620094,1244853,25,Woman
3,337468,DepthScenes,duration_manipulation_targetAtFixation,jsons/v1_VE250_randls_58_rotated.json,http://54.235.29.9/FacialAge/BNav_EC2/DepthDuration/v2_depth_duration_MTurk/v2_DepthDuration_HTML.html#78,78,1280,625,1280,768,8-20-2022,9-58-15,4,depth_duration_stimuli/001570_2014-06-20_17-21-09_260595134347_rgbf000135-resize_4/001570_2014-06-20_17-21-09_260595134347_rgbf000135-resize_4-target.png,250,4.467,6,3288,249,feet,jsons/v1_VE250_randls_58_rotated.json,620094,1244853,25,Woman
4,337468,DepthScenes,duration_manipulation_targetAtFixation,jsons/v1_VE250_randls_58_rotated.json,http://54.235.29.9/FacialAge/BNav_EC2/DepthDuration/v2_depth_duration_MTurk/v2_DepthDuration_HTML.html#78,78,1280,625,1280,768,8-20-2022,9-58-15,5,depth_duration_stimuli/001815_2014-06-26_20-52-55_260595134347_rgbf000020-resize_0/001815_2014-06-26_20-52-55_260595134347_rgbf000020-resize_0-target.png,250,3.3865,5,3414,236,feet,jsons/v1_VE250_randls_58_rotated.json,620094,1244853,25,Woman
5,337468,DepthScenes,duration_manipulation_targetAtFixation,jsons/v1_VE250_randls_58_rotated.json,http://54.235.29.9/FacialAge/BNav_EC2/DepthDuration/v2_depth_duration_MTurk/v2_DepthDuration_HTML.html#78,78,1280,625,1280,768,8-20-2022,9-58-15,6,depth_duration_stimuli/001808_2014-06-26_20-50-58_260595134347_rgbf000029-resize_1/001808_2014-06-26_20-50-58_260595134347_rgbf000029-resize_1-target.png,250,4.249,8,3244,284,feet,jsons/v1_VE250_randls_58_rotated.json,620094,1244853,25,Woman
6,337468,DepthScenes,duration_manipulation_targetAtFixation,jsons/v1_VE250_randls_58_rotated.json,http://54.235.29.9/FacialAge/BNav_EC2/DepthDuration/v2_depth_duration_MTurk/v2_DepthDuration_HTML.html#78,78,1280,625,1280,768,8-20-2022,9-58-15,7,depth_duration_stimuli/002660_2014-06-13_15-44-18_094959634447_rgbf001878-resize_2/002660_2014-06-13_15-44-18_094959634447_rgbf001878-resize_2-target.png,250,3.576,4,3141,260,feet,jsons/v1_VE250_randls_58_rotated.json,620094,1244853,25,Woman
7,337468,DepthScenes,duration_manipulation_targetAtFixation,jsons/v1_VE250_randls_58_rotated.json,http://54.235.29.9/FacialAge/BNav_EC2/DepthDuration/v2_depth_duration_MTurk/v2_DepthDuration_HTML.html#78,78,1280,625,1280,768,8-20-2022,9-58-15,8,depth_duration_stimuli/002153_2014-06-25_21-27-18_260595134347_rgbf000038-resize_5/002153_2014-06-25_21-27-18_260595134347_rgbf000038-resize_5-target.png,250,2.505,3,3187,239,feet,jsons/v1_VE250_randls_58_rotated.json,620094,1244853,25,Woman
8,337468,DepthScenes,duration_manipulation_targetAtFixation,jsons/v1_VE250_randls_58_rotated.json,http://54.235.29.9/FacialAge/BNav_EC2/DepthDuration/v2_depth_duration_MTurk/v2_DepthDuration_HTML.html#78,78,1280,625,1280,768,8-20-2022,9-58-15,9,depth_duration_stimuli/000749_2014-06-08_21-55-06_260595134347_rgbf000070-resize_2/000749_2014-06-08_21-55-06_260595134347_rgbf000070-resize_2-target.png,250,2.331,4,3162,258,feet,jsons/v1_VE250_randls_58_rotated.json,620094,1244853,25,Woman
9,337468,DepthScenes,duration_manipulation_targetAtFixation,jsons/v1_VE250_randls_58_rotated.json,http://54.235.29.9/FacialAge/BNav_EC2/DepthDuration/v2_depth_duration_MTurk/v2_DepthDuration_HTML.html#78,78,1280,625,1280,768,8-20-2022,9-58-15,10,depth_duration_stimuli/002788_2014-06-22_19-36-03_094959634447_rgbf000088-resize_2/002788_2014-06-22_19-36-03_094959634447_rgbf000088-resize_2-target.png,250,1.6465,3,2747,250,feet,jsons/v1_VE250_randls_58_rotated.json,620094,1244853,25,Woman
10,337468,DepthScenes,duration_manipulation_targetAtFixation,jsons/v1_VE250_randls_58_rotated.json,http://54.235.29.9/FacialAge/BNav_EC2/DepthDuration/v2_depth_duration_MTurk/v2_DepthDuration_HTML.html#78,78,1280,625,1280,768,8-20-2022,9-58-15,11,depth_duration_stimuli/002323_2014-06-28_20-01-54_260595134347_rgbf000051-resize_4/002323_2014-06-28_20-01-54_260595134347_rgbf000051-resize_4-target.png,250,3.7310000000000003,5,3558,239,feet,jsons/v1_VE250_randls_58_rotated.json,620094,1244853,25,Woman
11,337468,DepthScenes,duration_manipulation_targetAtFixation,jsons/v1_VE250_randls_58_rotated.json,http://54.235.29.9/FacialAge/BNav_EC2/DepthDuration/v2_depth_duration_MTurk/v2_DepthDuration_HTML.html#78,78,1280,625,1280,768,8-20-2022,9-58-15,12,depth_duration_stimuli/000917_2014-06-09_22-45-29_260595134347_rgbf000149-resize_3/000917_2014-06-09_22-45-29_260595134347_rgbf000149-resize_3-target.png,250,4.1865,4,3592,250,feet,jsons/v1_VE250_randls_58_rotated.json,620094,1244853,25,Woman
12,337468,DepthScenes,duration_manipulation_targetAtFixation,jsons/v1_VE250_randls_58_rotated.json,http://54.235.29.9/FacialAge/BNav_EC2/DepthDuration/v2_depth_duration_MTurk/v2_DepthDuration_HTML.html#78,78,1280,625,1280,768,8-20-2022,9-58-15,13,depth_duration_stimuli/002136_2014-06-25_21-18-03_260595134347_rgbf000109-resize_3/002136_2014-06-25_21-18-03_260595134347_rgbf000109-resize_3-target.png,250,1.9569999999999999,3,3612,242,feet,jsons/v1_VE250_randls_58_rotated.json,620094,1244853,25,Woman
13,337468,DepthScenes,duration_manipulation_targetAtFixation,jsons/v1_VE250_randls_58_rotated.json,http://54.235.29.9/FacialAge/BNav_EC2/DepthDuration/v2_depth_duration_MTurk/v2_DepthDuration_HTML.html#78,78,1280,625,1280,768,8-20-2022,9-58-15,14,depth_duration_stimuli/002964_2014-06-08_17-46-11_094959634447_rgbf000091-resize_4/002964_2014-06-08_17-46-11_094959634447_rgbf000091-resize_4-target.png,250,1.6909999999999998,2,3410,243,feet,jsons/v1_VE250_randls_58_rotated.json,620094,1244853,25,Woman
14,337468,DepthScenes,duration_manipulation_targetAtFixation,jsons/v1_VE250_randls_58_rotated.json,http://54.235.29.9/FacialAge/BNav_EC2/DepthDuration/v2_depth_duration_MTurk/v2_DepthDuration_HTML.html#78,78,1280,625,1280,768,8-20-2022,9-58-15,15,depth_duration_stimuli/000635_2014-06-08_16-38-42_260595134347_rgbf000106-resize_1/000635_2014-06-08_16-38-42_260595134347_rgbf000106-resize_1-target.png,250,2.074,3,2953,234,feet,jsons/v1_VE250_randls_58_rotated.json,620094,1244853,25,Woman
15,337468,DepthScenes,duration_manipulation_targetAtFixation,jsons/v1_VE250_randls_58_rotated.json,http://54.235.29.9/FacialAge/BNav_EC2/DepthDuration/v2_depth_duration_MTurk/v2_DepthDuration_HTML.html#78,78,1280,625,1280,768,8-20-2022,9-58-15,16,depth_duration_stimuli/002279_2014-06-28_18-55-32_260595134347_rgbf000040-resize_5/002279_2014-06-28_18-55-32_260595134347_rgbf000040-resize_5-target.png,250,1.5043333333333,2,3398,236,feet,jsons/v1_VE250_randls_58_rotated.json,620094,1244853,25,Woman
16,337468,DepthScenes,duration_manipulation_targetAtFixation,jsons/v1_VE250_randls_58_rotated.json,http://54.235.29.9/FacialAge/BNav_EC2/DepthDuration/v2_depth_duration_MTurk/v2_DepthDuration_HTML.html#78,78,1280,625,1280,768,8-20-2022,9-58-15,17,depth_duration_stimuli/000709_2014-06-08_13-51-55_260595134347_rgbf000068-resize_3/000709_2014-06-08_13-51-55_260595134347_rgbf000068-resize_3-target.png,250,1.8030000000000002,2,3929,251,feet,jsons/v1_VE250_randls_58_rotated.json,620094,1244853,25,Woman
17,337468,DepthScenes,duration_manipulation_targetAtFixation,jsons/v1_VE250_randls_58_rotated.json,http://54.235.29.9/FacialAge/BNav_EC2/DepthDuration/v2_depth_duration_MTurk/v2_DepthDuration_HTML.html#78,78,1280,625,1280,768,8-20-2022,9-58-15,18,depth_duration_stimuli/002057_2014-06-24_21-00-13_260595134347_rgbf000120-resize_1/002057_2014-06-24_21-00-13_260595134347_rgbf000120-resize_1-target.png,250,2.967,5,3646,250,feet,jsons/v1_VE250_randls_58_rotated.json,620094,1244853,25,Woman
18,337468,DepthScenes,duration_manipulation_targetAtFixation,jsons/v1_VE250_randls_58_rotated.json,http://54.235.29.9/FacialAge/BNav_EC2/DepthDuration/v2_depth_duration_MTurk/v2_DepthDuration_HTML.html#78,78,1280,625,1280,768,8-20-2022,9-58-15,19,depth_duration_stimuli/001498_2014-06-19_17-45-14_260595134347_rgbf000129-resize_4/001498_2014-06-19_17-45-14_260595134347_rgbf000129-resize-original.jpg,250,1.4075,0,3692,249,feet,jsons/v1_VE250_randls_58_rotated.json,620094,1244853,25,Woman
19,337468,DepthScenes,duration_manipulation_targetAtFixation,jsons/v1_VE250_randls_58_rotated.json,http://54.235.29.9/FacialAge/BNav_EC2/DepthDuration/v2_depth_duration_MTurk/v2_DepthDuration_HTML.html#78,78,1280,625,1280,768,8-20-2022,9-58-15,20,depth_duration_stimuli/002875_2014-06-01_15-19-00_094959634447_rgbf000151-resize_1/002875_2014-06-01_15-19-00_094959634447_rgbf000151-resize_1-target.png,250,1.9675,2,3085,248,feet,jsons/v1_VE250_randls_58_rotated.json,620094,1244853,25,Woman
20,337468,DepthScenes,duration_manipulation_targetAtFixation,jsons/v1_VE250_randls_58_rotated.json,http://54.235.29.9/FacialAge/BNav_EC2/DepthDuration/v2_depth_duration_MTurk/v2_DepthDuration_HTML.html#78,78,1280,625,1280,768,8-20-2022,9-58-15,21,depth_duration_stimuli/001011_2014-06-08_23-18-54_260595134347_rgbf000044-resize_4/001011_2014-06-08_23-18-54_260595134347_rgbf000044-resize_4-target.png,250,2.4730000000000003,6,4060,251,feet,jsons/v1_VE250_randls_58_rotated.json,620094,1244853,25,Woman
21,337468,DepthScenes,duration_manipulation_targetAtFixation,jsons/v1_VE250_randls_58_rotated.json,http://54.235.29.9/FacialAge/BNav_EC2/DepthDuration/v2_depth_duration_MTurk/v2_DepthDuration_HTML.html#78,78,1280,625,1280,768,8-20-2022,9-58-15,22,depth_duration_stimuli/000866_2014-06-09_20-45-42_260595134347_rgbf000139-resize_1/000866_2014-06-09_20-45-42_260595134347_rgbf000139-resize_1-target.png,250,3.2155,3,3397,235,feet,jsons/v1_VE250_randls_58_rotated.json,620094,1244853,25,Woman
22,337468,DepthScenes,duration_manipulation_targetAtFixation,jsons/v1_VE250_randls_58_rotated.json,http://54.235.29.9/FacialAge/BNav_EC2/DepthDuration/v2_depth_duration_MTurk/v2_DepthDuration_HTML.html#78,78,1280,625,1280,768,8-20-2022,9-58-15,23,depth_duration_stimuli/002989_2014-06-15_12-25-03_094959634447_rgbf000150-resize_3/002989_2014-06-15_12-25-03_094959634447_rgbf000150-resize_3-target.png,250,4.1975,8,3035,248,feet,jsons/v1_VE250_randls_58_rotated.json,620094,1244853,25,Woman
23,337468,DepthScenes,duration_manipulation_targetAtFixation,jsons/v1_VE250_randls_58_rotated.json,http://54.235.29.9/FacialAge/BNav_EC2/DepthDuration/v2_depth_duration_MTurk/v2_DepthDuration_HTML.html#78,78,1280,625,1280,768,8-20-2022,9-58-15,24,depth_duration_stimuli/000109_2014-05-14_23-41-52_260595134347_rgbf000035-resize_9/000109_2014-05-14_23-41-52_260595134347_rgbf000035-resize_9-target.png,250,1.3545,1,2979,254,feet,jsons/v1_VE250_randls_58_rotated.json,620094,1244853,25,Woman
24,337468,DepthScenes,duration_manipulation_targetAtFixation,jsons/v1_VE250_randls_58_rotated.json,http://54.235.29.9/FacialAge/BNav_EC2/DepthDuration/v2_depth_duration_MTurk/v2_DepthDuration_HTML.html#78,78,1280,625,1280,768,8-20-2022,9-58-15,25,depth_duration_stimuli/000470_2014-06-09_19-42-40_260595134347_rgbf000094-resize_1/000470_2014-06-09_19-42-40_260595134347_rgbf000094-resize_1-target.png,250,1.831,2,3226,248,feet,jsons/v1_VE250_randls_58_rotated.json,620094,1244853,25,Woman
25,337468,DepthScenes,duration_manipulation_targetAtFixation,jsons/v1_VE250_randls_58_rotated.json,http://54.235.29.9/FacialAge/BNav_EC2/DepthDuration/v2_depth_duration_MTurk/v2_DepthDuration_HTML.html#78,78,1280,625,1280,768,8-20-2022,9-58-15,26,depth_duration_stimuli/003587_2014-05-23_16-48-02_094959634447_rgbf002384-resize_2/003587_2014-05-23_16-48-02_094959634447_rgbf002384-resize_2-target.png,250,1.357,1,2684,238,feet,jsons/v1_VE250_randls_58_rotated.json,620094,1244853,25,Woman
26,337468,DepthScenes,duration_manipulation_targetAtFixation,jsons/v1_VE250_randls_58_rotated.json,http://54.235.29.9/FacialAge/BNav_EC2/DepthDuration/v2_depth_duration_MTurk/v2_DepthDuration_HTML.html#78,78,1280,625,1280,768,8-20-2022,9-58-15,27,depth_duration_stimuli/001167_2014-06-17_15-38-07_260595134347_rgbf000108-resize_0/001167_2014-06-17_15-38-07_260595134347_rgbf000108-resize_0-target.png,250,1.8505,1,3110,248,feet,jsons/v1_VE250_randls_58_rotated.json,620094,1244853,25,Woman
27,337468,DepthScenes,duration_manipulation_targetAtFixation,jsons/v1_VE250_randls_58_rotated.json,http://54.235.29.9/FacialAge/BNav_EC2/DepthDuration/v2_depth_duration_MTurk/v2_DepthDuration_HTML.html#78,78,1280,625,1280,768,8-20-2022,9-58-15,28,depth_duration_stimuli/002103_2014-06-25_20-00-40_260595134347_rgbf000049-resize_0/002103_2014-06-25_20-00-40_260595134347_rgbf000049-resize_0-target.png,250,4.105,5,3350,249,feet,jsons/v1_VE250_randls_58_rotated.json,620094,1244853,25,Woman
28,337468,DepthScenes,duration_manipulation_targetAtFixation,jsons/v1_VE250_randls_58_rotated.json,http://54.235.29.9/FacialAge/BNav_EC2/DepthDuration/v2_depth_duration_MTurk/v2_DepthDuration_HTML.html#78,78,1280,625,1280,768,8-20-2022,9-58-15,29,depth_duration_stimuli/002039_2014-06-24_20-22-38_260595134347_rgbf000084-resize_1/002039_2014-06-24_20-22-38_260595134347_rgbf000084-resize_1-target.png,250,4.408,10,3338,250,feet,jsons/v1_VE250_randls_58_rotated.json,620094,1244853,25,Woman
29,337468,DepthScenes,duration_manipulation_targetAtFixation,jsons/v1_VE250_randls_58_rotated.json,http://54.235.29.9/FacialAge/BNav_EC2/DepthDuration/v2_depth_duration_MTurk/v2_DepthDuration_HTML.html#78,78,1280,625,1280,768,8-20-2022,9-58-15,30,depth_duration_stimuli/002072_2014-06-24_21-48-06_260595134347_rgbf000115-resize_0/002072_2014-06-24_21-48-06_260595134347_rgbf000115-resize-original.jpg,250,4.702,0,2501,258,feet,jsons/v1_VE250_randls_58_rotated.json,620094,1244853,25,Woman
30,337468,DepthScenes,duration_manipulation_targetAtFixation,jsons/v1_VE250_randls_58_rotated.json,http://54.235.29.9/FacialAge/BNav_EC2/DepthDuration/v2_depth_duration_MTurk/v2_DepthDuration_HTML.html#78,78,1280,625,1280,768,8-20-2022,9-58-15,31,depth_duration_stimuli/003129_2014-05-12_10-48-10_094959634447_rgbf000100-resize_0/003129_2014-05-12_10-48-10_094959634447_rgbf000100-resize_0-target.png,250,4.9305,9,3860,247,feet,jsons/v1_VE250_randls_58_rotated.json,620094,1244853,25,Woman
31,337468,DepthScenes,duration_manipulation_targetAtFixation,jsons/v1_VE250_randls_58_rotated.json,http://54.235.29.9/FacialAge/BNav_EC2/DepthDuration/v2_depth_duration_MTurk/v2_DepthDuration_HTML.html#78,78,1280,625,1280,768,8-20-2022,9-58-15,32,depth_duration_stimuli/000414_2014-06-04_19-49-13_260595134347_rgbf000044-resize_0/000414_2014-06-04_19-49-13_260595134347_rgbf000044-resize_0-target.png,250,4.329,8,2963,251,feet,jsons/v1_VE250_randls_58_rotated.json,620094,1244853,25,Woman
32,337468,DepthScenes,duration_manipulation_targetAtFixation,jsons/v1_VE250_randls_58_rotated.json,http://54.235.29.9/FacialAge/BNav_EC2/DepthDuration/v2_depth_duration_MTurk/v2_DepthDuration_HTML.html#78,78,1280,625,1280,768,8-20-2022,9-58-15,33,depth_duration_stimuli/002637_2014-06-24_14-51-13_094959634447_rgbf000066-resize_4/002637_2014-06-24_14-51-13_094959634447_rgbf000066-resize_4-target.png,250,1.9955,3,2776,249,feet,jsons/v1_VE250_randls_58_rotated.json,620094,1244853,25,Woman
33,337468,DepthScenes,duration_manipulation_targetAtFixation,jsons/v1_VE250_randls_58_rotated.json,http://54.235.29.9/FacialAge/BNav_EC2/DepthDuration/v2_depth_duration_MTurk/v2_DepthDuration_HTML.html#78,78,1280,625,1280,768,8-20-2022,9-58-15,34,depth_duration_stimuli/003534_2014-05-22_15-06-10_094959634447_rgbf000102-resize_4/003534_2014-05-22_15-06-10_094959634447_rgbf000102-resize_4-target.png,250,1.426,1,2449,246,feet,jsons/v1_VE250_randls_58_rotated.json,620094,1244853,25,Woman
34,337468,DepthScenes,duration_manipulation_targetAtFixation,jsons/v1_VE250_randls_58_rotated.json,http://54.235.29.9/FacialAge/BNav_EC2/DepthDuration/v2_depth_duration_MTurk/v2_DepthDuration_HTML.html#78,78,1280,625,1280,768,8-20-2022,9-58-15,35,depth_duration_stimuli/002953_2014-06-08_17-32-18_094959634447_rgbf000059-resize_5/002953_2014-06-08_17-32-18_094959634447_rgbf000059-resize_5-target.png,250,1.551,1,2302,251,feet,jsons/v1_VE250_randls_58_rotated.json,620094,1244853,25,Woman
35,337468,DepthScenes,duration_manipulation_targetAtFixation,jsons/v1_VE250_randls_58_rotated.json,http://54.235.29.9/FacialAge/BNav_EC2/DepthDuration/v2_depth_duration_MTurk/v2_DepthDuration_HTML.html#78,78,1280,625,1280,768,8-20-2022,9-58-15,36,depth_duration_stimuli/000878_2014-06-08_22-52-45_260595134347_rgbf000045-resize_2/000878_2014-06-08_22-52-45_260595134347_rgbf000045-resize_2-target.png,250,2.092,2,2337,234,feet,jsons/v1_VE250_randls_58_rotated.json,620094,1244853,25,Woman
36,337468,DepthScenes,duration_manipulation_targetAtFixation,jsons/v1_VE250_randls_58_rotated.json,http://54.235.29.9/FacialAge/BNav_EC2/DepthDuration/v2_depth_duration_MTurk/v2_DepthDuration_HTML.html#78,78,1280,625,1280,768,8-20-2022,9-58-15,37,depth_duration_stimuli/002750_2014-06-22_19-08-03_094959634447_rgbf000094-resize_4/002750_2014-06-22_19-08-03_094959634447_rgbf000094-resize_4-target.png,250,2.354,4,3286,251,feet,jsons/v1_VE250_randls_58_rotated.json,620094,1244853,25,Woman
37,337468,DepthScenes,duration_manipulation_targetAtFixation,jsons/v1_VE250_randls_58_rotated.json,http://54.235.29.9/FacialAge/BNav_EC2/DepthDuration/v2_depth_duration_MTurk/v2_DepthDuration_HTML.html#78,78,1280,625,1280,768,8-20-2022,9-58-15,38,depth_duration_stimuli/002549_2014-06-24_13-41-39_094959634447_rgbf000022-resize_3/002549_2014-06-24_13-41-39_094959634447_rgbf000022-resize_3-target.png,250,1.476,2,2971,249,feet,jsons/v1_VE250_randls_58_rotated.json,620094,1244853,25,Woman
38,337468,DepthScenes,duration_manipulation_targetAtFixation,jsons/v1_VE250_randls_58_rotated.json,http://54.235.29.9/FacialAge/BNav_EC2/DepthDuration/v2_depth_duration_MTurk/v2_DepthDuration_HTML.html#78,78,1280,625,1280,768,8-20-2022,9-58-15,39,depth_duration_stimuli/003010_2014-06-15_12-54-35_094959634447_rgbf000112-resize_0/003010_2014-06-15_12-54-35_094959634447_rgbf000112-resize_0-target.png,250,3.1185,5,3104,244,feet,jsons/v1_VE250_randls_58_rotated.json,620094,1244853,25,Woman
39,337468,DepthScenes,duration_manipulation_targetAtFixation,jsons/v1_VE250_randls_58_rotated.json,http://54.235.29.9/FacialAge/BNav_EC2/DepthDuration/v2_depth_duration_MTurk/v2_DepthDuration_HTML.html#78,78,1280,625,1280,768,8-20-2022,9-58-15,40,depth_duration_stimuli/001810_2014-06-26_20-51-35_260595134347_rgbf000040-resize_3/001810_2014-06-26_20-51-35_260595134347_rgbf000040-resize_3-target.png,250,2.2525,2,3004,256,feet,jsons/v1_VE250_randls_58_rotated.json,620094,1244853,25,Woman
40,337468,DepthScenes,duration_manipulation_targetAtFixation,jsons/v1_VE250_randls_58_rotated.json,http://54.235.29.9/FacialAge/BNav_EC2/DepthDuration/v2_depth_duration_MTurk/v2_DepthDuration_HTML.html#78,78,1280,625,1280,768,8-20-2022,9-58-15,41,depth_duration_stimuli/000927_2014-06-09_16-32-30_260595134347_rgbf000123-resize_3/000927_2014-06-09_16-32-30_260595134347_rgbf000123-resize_3-target.png,250,2.6785,5,2646,242,feet,jsons/v1_VE250_randls_58_rotated.json,620094,1244853,25,Woman
41,337468,DepthScenes,duration_manipulation_targetAtFixation,jsons/v1_VE250_randls_58_rotated.json,http://54.235.29.9/FacialAge/BNav_EC2/DepthDuration/v2_depth_duration_MTurk/v2_DepthDuration_HTML.html#78,78,1280,625,1280,768,8-20-2022,9-58-15,42,depth_duration_stimuli/001110_2014-06-15_17-25-28_260595134347_rgbf000150-resize_1/001110_2014-06-15_17-25-28_260595134347_rgbf000150-resize_1-target.png,250,1.7115,3,3224,243,feet,jsons/v1_VE250_randls_58_rotated.json,620094,1244853,25,Woman
42,337468,DepthScenes,duration_manipulation_targetAtFixation,jsons/v1_VE250_randls_58_rotated.json,http://54.235.29.9/FacialAge/BNav_EC2/DepthDuration/v2_depth_duration_MTurk/v2_DepthDuration_HTML.html#78,78,1280,625,1280,768,8-20-2022,9-58-15,43,depth_duration_stimuli/000137_2014-05-20_17-04-49_260595134347_rgbf000120-resize_1/000137_2014-05-20_17-04-49_260595134347_rgbf000120-resize_1-target.png,250,3.786,3,2740,251,feet,jsons/v1_VE250_randls_58_rotated.json,620094,1244853,25,Woman
43,337468,DepthScenes,duration_manipulation_targetAtFixation,jsons/v1_VE250_randls_58_rotated.json,http://54.235.29.9/FacialAge/BNav_EC2/DepthDuration/v2_depth_duration_MTurk/v2_DepthDuration_HTML.html#78,78,1280,625,1280,768,8-20-2022,9-58-15,44,depth_duration_stimuli/000736_2014-06-08_18-24-15_260595134347_rgbf000206-resize_3/000736_2014-06-08_18-24-15_260595134347_rgbf000206-resize_3-target.png,250,3.515,5,2818,249,feet,jsons/v1_VE250_randls_58_rotated.json,620094,1244853,25,Woman
44,337468,DepthScenes,duration_manipulation_targetAtFixation,jsons/v1_VE250_randls_58_rotated.json,http://54.235.29.9/FacialAge/BNav_EC2/DepthDuration/v2_depth_duration_MTurk/v2_DepthDuration_HTML.html#78,78,1280,625,1280,768,8-20-2022,9-58-15,45,depth_duration_stimuli/001136_2014-06-17_15-19-41_260595134347_rgbf000076-resize_3/001136_2014-06-17_15-19-41_260595134347_rgbf000076-resize_3-target.png,250,1.8655,3,3683,250,feet,jsons/v1_VE250_randls_58_rotated.json,620094,1244853,25,Woman
45,337468,DepthScenes,duration_manipulation_targetAtFixation,jsons/v1_VE250_randls_58_rotated.json,http://54.235.29.9/FacialAge/BNav_EC2/DepthDuration/v2_depth_duration_MTurk/v2_DepthDuration_HTML.html#78,78,1280,625,1280,768,8-20-2022,9-58-15,46,depth_duration_stimuli/001164_2014-06-17_15-35-46_260595134347_rgbf000085-resize_3/001164_2014-06-17_15-35-46_260595134347_rgbf000085-resize_3-target.png,250,2.354,4,2404,251,feet,jsons/v1_VE250_randls_58_rotated.json,620094,1244853,25,Woman
46,337468,DepthScenes,duration_manipulation_targetAtFixation,jsons/v1_VE250_randls_58_rotated.json,http://54.235.29.9/FacialAge/BNav_EC2/DepthDuration/v2_depth_duration_MTurk/v2_DepthDuration_HTML.html#78,78,1280,625,1280,768,8-20-2022,9-58-15,47,depth_duration_stimuli/002639_2014-06-24_14-51-37_094959634447_rgbf000074-resize_4/002639_2014-06-24_14-51-37_094959634447_rgbf000074-resize_4-target.png,250,4.0375,8,2952,247,feet,jsons/v1_VE250_randls_58_rotated.json,620094,1244853,25,Woman
47,337468,DepthScenes,duration_manipulation_targetAtFixation,jsons/v1_VE250_randls_58_rotated.json,http://54.235.29.9/FacialAge/BNav_EC2/DepthDuration/v2_depth_duration_MTurk/v2_DepthDuration_HTML.html#78,78,1280,625,1280,768,8-20-2022,9-58-15,48,depth_duration_stimuli/003292_2014-05-14_21-53-49_094959634447_rgbf000100-resize_2/003292_2014-05-14_21-53-49_094959634447_rgbf000100-resize_2-target.png,250,3.4815,4,2999,242,feet,jsons/v1_VE250_randls_58_rotated.json,620094,1244853,25,Woman
48,337468,DepthScenes,duration_manipulation_targetAtFixation,jsons/v1_VE250_randls_58_rotated.json,http://54.235.29.9/FacialAge/BNav_EC2/DepthDuration/v2_depth_duration_MTurk/v2_DepthDuration_HTML.html#78,78,1280,625,1280,768,8-20-2022,9-58-15,49,depth_duration_stimuli/001170_2014-06-17_15-43-44_260595134347_rgbf000096-resize_6/001170_2014-06-17_15-43-44_260595134347_rgbf000096-resize-original.jpg,250,1.1909999999999998,0,3657,248,feet,jsons/v1_VE250_randls_58_rotated.json,620094,1244853,25,Woman
49,337468,DepthScenes,duration_manipulation_targetAtFixation,jsons/v1_VE250_randls_58_rotated.json,http://54.235.29.9/FacialAge/BNav_EC2/DepthDuration/v2_depth_duration_MTurk/v2_DepthDuration_HTML.html#78,78,1280,625,1280,768,8-20-2022,9-58-15,50,depth_duration_stimuli/000409_2014-06-04_19-23-33_260595134347_rgbf000067-resize_0/000409_2014-06-04_19-23-33_260595134347_rgbf000067-resize_0-target.png,250,3.7335,5,2819,247,feet,jsons/v1_VE250_randls_58_rotated.json,620094,1244853,25,Woman
50,337468,DepthScenes,duration_manipulation_targetAtFixation,jsons/v1_VE250_randls_58_rotated.json,http://54.235.29.9/FacialAge/BNav_EC2/DepthDuration/v2_depth_duration_MTurk/v2_DepthDuration_HTML.html#78,78,1280,625,1280,768,8-20-2022,9-58-15,51,depth_duration_stimuli/002663_2014-06-13_15-50-26_094959634447_rgbf000075-resize_1/002663_2014-06-13_15-50-26_094959634447_rgbf000075-resize_1-target.png,250,4.7495,7,3053,251,feet,jsons/v1_VE250_randls_58_rotated.json,620094,1244853,25,Woman
51,337468,DepthScenes,duration_manipulation_targetAtFixation,jsons/v1_VE250_randls_58_rotated.json,http://54.235.29.9/FacialAge/BNav_EC2/DepthDuration/v2_depth_duration_MTurk/v2_DepthDuration_HTML.html#78,78,1280,625,1280,768,8-20-2022,9-58-15,52,depth_duration_stimuli/000556_2014-06-09_22-42-56_260595134347_rgbf000214-resize_1/000556_2014-06-09_22-42-56_260595134347_rgbf000214-resize_1-target.png,250,4.8415,8,4459,241,feet,jsons/v1_VE250_randls_58_rotated.json,620094,1244853,25,Woman
52,337468,DepthScenes,duration_manipulation_targetAtFixation,jsons/v1_VE250_randls_58_rotated.json,http://54.235.29.9/FacialAge/BNav_EC2/DepthDuration/v2_depth_duration_MTurk/v2_DepthDuration_HTML.html#78,78,1280,625,1280,768,8-20-2022,9-58-15,53,depth_duration_stimuli/001158_2014-06-17_15-32-16_260595134347_rgbf000138-resize_2/001158_2014-06-17_15-32-16_260595134347_rgbf000138-resize_2-target.png,250,4.5315,11,2882,252,feet,jsons/v1_VE250_randls_58_rotated.json,620094,1244853,25,Woman
53,337468,DepthScenes,duration_manipulation_targetAtFixation,jsons/v1_VE250_randls_58_rotated.json,http://54.235.29.9/FacialAge/BNav_EC2/DepthDuration/v2_depth_duration_MTurk/v2_DepthDuration_HTML.html#78,78,1280,625,1280,768,8-20-2022,9-58-15,54,depth_duration_stimuli/001032_2014-06-08_13-23-17_260595134347_rgbf000021-resize_3/001032_2014-06-08_13-23-17_260595134347_rgbf000021-resize_3-target.png,250,3.2725,4,5492,250,feet,jsons/v1_VE250_randls_58_rotated.json,620094,1244853,25,Woman
54,337468,DepthScenes,duration_manipulation_targetAtFixation,jsons/v1_VE250_randls_58_rotated.json,http://54.235.29.9/FacialAge/BNav_EC2/DepthDuration/v2_depth_duration_MTurk/v2_DepthDuration_HTML.html#78,78,1280,625,1280,768,8-20-2022,9-58-15,55,depth_duration_stimuli/001059_2014-06-08_21-53-27_260595134347_rgbf000061-resize_4/001059_2014-06-08_21-53-27_260595134347_rgbf000061-resize_4-target.png,250,2.4185,2,2242,236,feet,jsons/v1_VE250_randls_58_rotated.json,620094,1244853,25,Woman
55,337468,DepthScenes,duration_manipulation_targetAtFixation,jsons/v1_VE250_randls_58_rotated.json,http://54.235.29.9/FacialAge/BNav_EC2/DepthDuration/v2_depth_duration_MTurk/v2_DepthDuration_HTML.html#78,78,1280,625,1280,768,8-20-2022,9-58-15,56,depth_duration_stimuli/002209_2014-06-28_18-36-10_260595134347_rgbf000051-resize_1/002209_2014-06-28_18-36-10_260595134347_rgbf000051-resize_1-target.png,250,2.057,2,2907,240,feet,jsons/v1_VE250_randls_58_rotated.json,620094,1244853,25,Woman
56,337468,DepthScenes,duration_manipulation_targetAtFixation,jsons/v1_VE250_randls_58_rotated.json,http://54.235.29.9/FacialAge/BNav_EC2/DepthDuration/v2_depth_duration_MTurk/v2_DepthDuration_HTML.html#78,78,1280,625,1280,768,8-20-2022,9-58-15,57,depth_duration_stimuli/002763_2014-06-22_19-13-10_094959634447_rgbf000075-resize_4/002763_2014-06-22_19-13-10_094959634447_rgbf000075-resize_4-target.png,250,1.68375,2,2438,258,feet,jsons/v1_VE250_randls_58_rotated.json,620094,1244853,25,Woman
57,337468,DepthScenes,duration_manipulation_targetAtFixation,jsons/v1_VE250_randls_58_rotated.json,http://54.235.29.9/FacialAge/BNav_EC2/DepthDuration/v2_depth_duration_MTurk/v2_DepthDuration_HTML.html#78,78,1280,625,1280,768,8-20-2022,9-58-15,58,depth_duration_stimuli/000549_2014-06-08_22-10-24_260595134347_rgbf000247-resize_3/000549_2014-06-08_22-10-24_260595134347_rgbf000247-resize_3-target.png,250,1.841,1,2298,250,feet,jsons/v1_VE250_randls_58_rotated.json,620094,1244853,25,Woman
58,337468,DepthScenes,duration_manipulation_targetAtFixation,jsons/v1_VE250_randls_58_rotated.json,http://54.235.29.9/FacialAge/BNav_EC2/DepthDuration/v2_depth_duration_MTurk/v2_DepthDuration_HTML.html#78,78,1280,625,1280,768,8-20-2022,9-58-15,59,depth_duration_stimuli/001055_2014-06-08_18-45-35_260595134347_rgbf000111-resize_4/001055_2014-06-08_18-45-35_260595134347_rgbf000111-resize_4-target.png,250,2.4290000000000003,4,2257,259,feet,jsons/v1_VE250_randls_58_rotated.json,620094,1244853,25,Woman
59,337468,DepthScenes,duration_manipulation_targetAtFixation,jsons/v1_VE250_randls_58_rotated.json,http://54.235.29.9/FacialAge/BNav_EC2/DepthDuration/v2_depth_duration_MTurk/v2_DepthDuration_HTML.html#78,78,1280,625,1280,768,8-20-2022,9-58-15,60,depth_duration_stimuli/002758_2014-06-22_19-11-20_094959634447_rgbf000128-resize_1/002758_2014-06-22_19-11-20_094959634447_rgbf000128-resize_1-target.png,250,2.555,4,2336,311,feet,jsons/v1_VE250_randls_58_rotated.json,620094,1244853,25,Woman
60,337468,DepthScenes,duration_manipulation_targetAtFixation,jsons/v1_VE250_randls_58_rotated.json,http://54.235.29.9/FacialAge/BNav_EC2/DepthDuration/v2_depth_duration_MTurk/v2_DepthDuration_HTML.html#78,78,1280,625,1280,768,8-20-2022,9-58-15,61,depth_duration_stimuli/002630_2014-06-24_14-47-50_094959634447_rgbf000055-resize_1/002630_2014-06-24_14-47-50_094959634447_rgbf000055-resize_1-target.png,250,3.0095,5,2511,270,feet,jsons/v1_VE250_randls_58_rotated.json,620094,1244853,25,Woman
61,337468,DepthScenes,duration_manipulation_targetAtFixation,jsons/v1_VE250_randls_58_rotated.json,http://54.235.29.9/FacialAge/BNav_EC2/DepthDuration/v2_depth_duration_MTurk/v2_DepthDuration_HTML.html#78,78,1280,625,1280,768,8-20-2022,9-58-15,62,depth_duration_stimuli/001828_2014-06-26_21-40-03_260595134347_rgbf000024-resize_0/001828_2014-06-26_21-40-03_260595134347_rgbf000024-resize_0-target.png,250,4.8260000000000005,3,3086,247,feet,jsons/v1_VE250_randls_58_rotated.json,620094,1244853,25,Woman
62,337468,DepthScenes,duration_manipulation_targetAtFixation,jsons/v1_VE250_randls_58_rotated.json,http://54.235.29.9/FacialAge/BNav_EC2/DepthDuration/v2_depth_duration_MTurk/v2_DepthDuration_HTML.html#78,78,1280,625,1280,768,8-20-2022,9-58-15,63,depth_duration_stimuli/000009_2014-05-26_14-32-05_260595134347_rgbf000034-resize_3/000009_2014-05-26_14-32-05_260595134347_rgbf000034-resize_3-target.png,250,3.8715,6,3562,250,feet,jsons/v1_VE250_randls_58_rotated.json,620094,1244853,25,Woman
63,337468,DepthScenes,duration_manipulation_targetAtFixation,jsons/v1_VE250_randls_58_rotated.json,http://54.235.29.9/FacialAge/BNav_EC2/DepthDuration/v2_depth_duration_MTurk/v2_DepthDuration_HTML.html#78,78,1280,625,1280,768,8-20-2022,9-58-15,64,depth_duration_stimuli/003079_2014-06-15_15-18-20_094959634447_rgbf000152-resize_8/003079_2014-06-15_15-18-20_094959634447_rgbf000152-resize_8-target.png,250,2.8775,4,2756,250,feet,jsons/v1_VE250_randls_58_rotated.json,620094,1244853,25,Woman
64,337468,DepthScenes,duration_manipulation_targetAtFixation,jsons/v1_VE250_randls_58_rotated.json,http://54.235.29.9/FacialAge/BNav_EC2/DepthDuration/v2_depth_duration_MTurk/v2_DepthDuration_HTML.html#78,78,1280,625,1280,768,8-20-2022,9-58-15,65,depth_duration_stimuli/000506_2014-06-08_23-21-00_260595134347_rgbf000070-resize_7/000506_2014-06-08_23-21-00_260595134347_rgbf000070-resize_7-target.png,250,4.0585,4,2462,247,feet,jsons/v1_VE250_randls_58_rotated.json,620094,1244853,25,Woman
65,337468,DepthScenes,duration_manipulation_targetAtFixation,jsons/v1_VE250_randls_58_rotated.json,http://54.235.29.9/FacialAge/BNav_EC2/DepthDuration/v2_depth_duration_MTurk/v2_DepthDuration_HTML.html#78,78,1280,625,1280,768,8-20-2022,9-58-15,66,depth_duration_stimuli/001540_2014-06-20_17-01-05_260595134347_rgbf000086-resize_2/001540_2014-06-20_17-01-05_260595134347_rgbf000086-resize-original.jpg,250,1.459,0,2837,249,feet,jsons/v1_VE250_randls_58_rotated.json,620094,1244853,25,Woman
66,337468,DepthScenes,duration_manipulation_targetAtFixation,jsons/v1_VE250_randls_58_rotated.json,http://54.235.29.9/FacialAge/BNav_EC2/DepthDuration/v2_depth_duration_MTurk/v2_DepthDuration_HTML.html#78,78,1280,625,1280,768,8-20-2022,9-58-15,67,depth_duration_stimuli/003423_2014-05-21_10-23-26_094959634447_rgbf002665-resize_2/003423_2014-05-21_10-23-26_094959634447_rgbf002665-resize_2-target.png,250,3.2575,7,3161,249,feet,jsons/v1_VE250_randls_58_rotated.json,620094,1244853,25,Woman
67,337468,DepthScenes,duration_manipulation_targetAtFixation,jsons/v1_VE250_randls_58_rotated.json,http://54.235.29.9/FacialAge/BNav_EC2/DepthDuration/v2_depth_duration_MTurk/v2_DepthDuration_HTML.html#78,78,1280,625,1280,768,8-20-2022,9-58-15,68,depth_duration_stimuli/002905_2014-06-03_18-04-43_094959634447_rgbf000151-resize_2/002905_2014-06-03_18-04-43_094959634447_rgbf000151-resize_2-target.png,250,2.0295,3,6341,248,feet,jsons/v1_VE250_randls_58_rotated.json,620094,1244853,25,Woman
68,337468,DepthScenes,duration_manipulation_targetAtFixation,jsons/v1_VE250_randls_58_rotated.json,http://54.235.29.9/FacialAge/BNav_EC2/DepthDuration/v2_depth_duration_MTurk/v2_DepthDuration_HTML.html#78,78,1280,625,1280,768,8-20-2022,9-58-15,69,depth_duration_stimuli/000854_2014-06-09_19-43-13_260595134347_rgbf000066-resize_0/000854_2014-06-09_19-43-13_260595134347_rgbf000066-resize_0-target.png,250,3.068,2,4441,254,feet,jsons/v1_VE250_randls_58_rotated.json,620094,1244853,25,Woman
69,337468,DepthScenes,duration_manipulation_targetAtFixation,jsons/v1_VE250_randls_58_rotated.json,http://54.235.29.9/FacialAge/BNav_EC2/DepthDuration/v2_depth_duration_MTurk/v2_DepthDuration_HTML.html#78,78,1280,625,1280,768,8-20-2022,9-58-15,70,depth_duration_stimuli/000758_2014-06-08_22-05-08_260595134347_rgbf000085-resize_0/000758_2014-06-08_22-05-08_260595134347_rgbf000085-resize_0-target.png,250,3.3810000000000002,7,4124,249,feet,jsons/v1_VE250_randls_58_rotated.json,620094,1244853,25,Woman
70,337468,DepthScenes,duration_manipulation_targetAtFixation,jsons/v1_VE250_randls_58_rotated.json,http://54.235.29.9/FacialAge/BNav_EC2/DepthDuration/v2_depth_duration_MTurk/v2_DepthDuration_HTML.html#78,78,1280,625,1280,768,8-20-2022,9-58-15,71,depth_duration_stimuli/000502_2014-06-08_23-02-32_260595134347_rgbf000063-resize_4/000502_2014-06-08_23-02-32_260595134347_rgbf000063-resize_4-target.png,250,2.431,3,2749,250,feet,jsons/v1_VE250_randls_58_rotated.json,620094,1244853,25,Woman
71,337468,DepthScenes,duration_manipulation_targetAtFixation,jsons/v1_VE250_randls_58_rotated.json,http://54.235.29.9/FacialAge/BNav_EC2/DepthDuration/v2_depth_duration_MTurk/v2_DepthDuration_HTML.html#78,78,1280,625,1280,768,8-20-2022,9-58-15,72,depth_duration_stimuli/001199_2014-06-17_16-03-48_260595134347_rgbf000077-resize_0/001199_2014-06-17_16-03-48_260595134347_rgbf000077-resize_0-target.png,250,3.4375,5,2153,248,feet,jsons/v1_VE250_randls_58_rotated.json,620094,1244853,25,Woman
72,337468,DepthScenes,duration_manipulation_targetAtFixation,jsons/v1_VE250_randls_58_rotated.json,http://54.235.29.9/FacialAge/BNav_EC2/DepthDuration/v2_depth_duration_MTurk/v2_DepthDuration_HTML.html#78,78,1280,625,1280,768,8-20-2022,9-58-15,73,depth_duration_stimuli/001571_2014-06-20_17-21-32_260595134347_rgbf000089-resize_1/001571_2014-06-20_17-21-32_260595134347_rgbf000089-resize_1-target.png,250,1.86,2,2878,245,feet,jsons/v1_VE250_randls_58_rotated.json,620094,1244853,25,Woman
73,337468,DepthScenes,duration_manipulation_targetAtFixation,jsons/v1_VE250_randls_58_rotated.json,http://54.235.29.9/FacialAge/BNav_EC2/DepthDuration/v2_depth_duration_MTurk/v2_DepthDuration_HTML.html#78,78,1280,625,1280,768,8-20-2022,9-58-15,74,depth_duration_stimuli/002272_2014-06-28_18-53-56_260595134347_rgbf000067-resize_2/002272_2014-06-28_18-53-56_260595134347_rgbf000067-resize_2-target.png,250,1.138,2,2314,252,feet,jsons/v1_VE250_randls_58_rotated.json,620094,1244853,25,Woman
74,337468,DepthScenes,duration_manipulation_targetAtFixation,jsons/v1_VE250_randls_58_rotated.json,http://54.235.29.9/FacialAge/BNav_EC2/DepthDuration/v2_depth_duration_MTurk/v2_DepthDuration_HTML.html#78,78,1280,625,1280,768,8-20-2022,9-58-15,75,depth_duration_stimuli/002995_2014-06-15_12-31-26_094959634447_rgbf000150-resize_1/002995_2014-06-15_12-31-26_094959634447_rgbf000150-resize_1-target.png,250,3.8360000000000003,7,4532,269,feet,jsons/v1_VE250_randls_58_rotated.json,620094,1244853,25,Woman
75,337468,DepthScenes,duration_manipulation_targetAtFixation,jsons/v1_VE250_randls_58_rotated.json,http://54.235.29.9/FacialAge/BNav_EC2/DepthDuration/v2_depth_duration_MTurk/v2_DepthDuration_HTML.html#78,78,1280,625,1280,768,8-20-2022,9-58-15,76,depth_duration_stimuli/002748_2014-06-22_19-07-22_094959634447_rgbf000078-resize_1/002748_2014-06-22_19-07-22_094959634447_rgbf000078-resize_1-target.png,250,4.6705,9,4218,251,feet,jsons/v1_VE250_randls_58_rotated.json,620094,1244853,25,Woman
76,337468,DepthScenes,duration_manipulation_targetAtFixation,jsons/v1_VE250_randls_58_rotated.json,http://54.235.29.9/FacialAge/BNav_EC2/DepthDuration/v2_depth_duration_MTurk/v2_DepthDuration_HTML.html#78,78,1280,625,1280,768,8-20-2022,9-58-15,77,depth_duration_stimuli/002467_2014-06-28_20-38-07_260595134347_rgbf000026-resize_2/002467_2014-06-28_20-38-07_260595134347_rgbf000026-resize_2-target.png,250,4.742,5,4008,247,feet,jsons/v1_VE250_randls_58_rotated.json,620094,1244853,25,Woman
77,337468,DepthScenes,duration_manipulation_targetAtFixation,jsons/v1_VE250_randls_58_rotated.json,http://54.235.29.9/FacialAge/BNav_EC2/DepthDuration/v2_depth_duration_MTurk/v2_DepthDuration_HTML.html#78,78,1280,625,1280,768,8-20-2022,9-58-15,78,depth_duration_stimuli/002570_2014-06-24_13-59-54_094959634447_rgbf000059-resize_0/002570_2014-06-24_13-59-54_094959634447_rgbf000059-resize_0-target.png,250,4.037,6,2493,241,feet,jsons/v1_VE250_randls_58_rotated.json,620094,1244853,25,Woman
78,337468,DepthScenes,duration_manipulation_targetAtFixation,jsons/v1_VE250_randls_58_rotated.json,http://54.235.29.9/FacialAge/BNav_EC2/DepthDuration/v2_depth_duration_MTurk/v2_DepthDuration_HTML.html#78,78,1280,625,1280,768,8-20-2022,9-58-15,79,depth_duration_stimuli/002805_2014-06-22_19-54-03_094959634447_rgbf000079-resize_1/002805_2014-06-22_19-54-03_094959634447_rgbf000079-resize_1-target.png,250,3.1439999999999997,6,2923,247,feet,jsons/v1_VE250_randls_58_rotated.json,620094,1244853,25,Woman
79,337468,DepthScenes,duration_manipulation_targetAtFixation,jsons/v1_VE250_randls_58_rotated.json,http://54.235.29.9/FacialAge/BNav_EC2/DepthDuration/v2_depth_duration_MTurk/v2_DepthDuration_HTML.html#78,78,1280,625,1280,768,8-20-2022,9-58-15,80,depth_duration_stimuli/000906_2014-06-08_13-35-43_260595134347_rgbf000155-resize_1/000906_2014-06-08_13-35-43_260595134347_rgbf000155-resize_1-target.png,250,2.8489999999999998,5,3990,242,feet,jsons/v1_VE250_randls_58_rotated.json,620094,1244853,25,Woman
80,337468,DepthScenes,duration_manipulation_targetAtFixation,jsons/v1_VE250_randls_58_rotated.json,http://54.235.29.9/FacialAge/BNav_EC2/DepthDuration/v2_depth_duration_MTurk/v2_DepthDuration_HTML.html#78,78,1280,625,1280,768,8-20-2022,9-58-15,81,depth_duration_stimuli/001584_2014-06-20_11-07-43_260595134347_rgbf000002-resize_1/001584_2014-06-20_11-07-43_260595134347_rgbf000002-resize_1-target.png,250,3.53,0,5914,250,feet,jsons/v1_VE250_randls_58_rotated.json,620094,1244853,25,Woman
81,337468,DepthScenes,duration_manipulation_targetAtFixation,jsons/v1_VE250_randls_58_rotated.json,http://54.235.29.9/FacialAge/BNav_EC2/DepthDuration/v2_depth_duration_MTurk/v2_DepthDuration_HTML.html#78,78,1280,625,1280,768,8-20-2022,9-58-15,82,depth_duration_stimuli/003621_2014-05-23_18-06-08_094959634447_rgbf000101-resize_1/003621_2014-05-23_18-06-08_094959634447_rgbf000101-resize_1-target.png,250,3.9835,8,4410,243,feet,jsons/v1_VE250_randls_58_rotated.json,620094,1244853,25,Woman
82,337468,DepthScenes,duration_manipulation_targetAtFixation,jsons/v1_VE250_randls_58_rotated.json,http://54.235.29.9/FacialAge/BNav_EC2/DepthDuration/v2_depth_duration_MTurk/v2_DepthDuration_HTML.html#78,78,1280,625,1280,768,8-20-2022,9-58-15,83,depth_duration_stimuli/002340_2014-06-28_20-05-46_260595134347_rgbf000113-resize_0/002340_2014-06-28_20-05-46_260595134347_rgbf000113-resize_0-target.png,250,2.4735,9,3372,234,feet,jsons/v1_VE250_randls_58_rotated.json,620094,1244853,25,Woman
83,337468,DepthScenes,duration_manipulation_targetAtFixation,jsons/v1_VE250_randls_58_rotated.json,http://54.235.29.9/FacialAge/BNav_EC2/DepthDuration/v2_depth_duration_MTurk/v2_DepthDuration_HTML.html#78,78,1280,625,1280,768,8-20-2022,9-58-15,84,depth_duration_stimuli/001016_2014-06-09_16-16-10_260595134347_rgbf000112-resize_5/001016_2014-06-09_16-16-10_260595134347_rgbf000112-resize_5-target.png,250,1.6565,3,3211,266,feet,jsons/v1_VE250_randls_58_rotated.json,620094,1244853,25,Woman
84,337468,DepthScenes,duration_manipulation_targetAtFixation,jsons/v1_VE250_randls_58_rotated.json,http://54.235.29.9/FacialAge/BNav_EC2/DepthDuration/v2_depth_duration_MTurk/v2_DepthDuration_HTML.html#78,78,1280,625,1280,768,8-20-2022,9-58-15,85,depth_duration_stimuli/001132_2014-06-17_14-48-54_260595134347_rgbf000100-resize_2/001132_2014-06-17_14-48-54_260595134347_rgbf000100-resize_2-target.png,250,3.753,6,3028,248,feet,jsons/v1_VE250_randls_58_rotated.json,620094,1244853,25,Woman
85,337468,DepthScenes,duration_manipulation_targetAtFixation,jsons/v1_VE250_randls_58_rotated.json,http://54.235.29.9/FacialAge/BNav_EC2/DepthDuration/v2_depth_duration_MTurk/v2_DepthDuration_HTML.html#78,78,1280,625,1280,768,8-20-2022,9-58-15,86,depth_duration_stimuli/001133_2014-06-17_14-49-16_260595134347_rgbf000100-resize_0/001133_2014-06-17_14-49-16_260595134347_rgbf000100-resize_0-target.png,250,4.2115,8,3376,265,feet,jsons/v1_VE250_randls_58_rotated.json,620094,1244853,25,Woman
86,337468,DepthScenes,duration_manipulation_targetAtFixation,jsons/v1_VE250_randls_58_rotated.json,http://54.235.29.9/FacialAge/BNav_EC2/DepthDuration/v2_depth_duration_MTurk/v2_DepthDuration_HTML.html#78,78,1280,625,1280,768,8-20-2022,9-58-15,87,depth_duration_stimuli/002199_2014-06-28_18-33-56_260595134347_rgbf000074-resize_0/002199_2014-06-28_18-33-56_260595134347_rgbf000074-resize_0-target.png,250,1.996,2,3543,227,feet,jsons/v1_VE250_randls_58_rotated.json,620094,1244853,25,Woman
87,337468,DepthScenes,duration_manipulation_targetAtFixation,jsons/v1_VE250_randls_58_rotated.json,http://54.235.29.9/FacialAge/BNav_EC2/DepthDuration/v2_depth_duration_MTurk/v2_DepthDuration_HTML.html#78,78,1280,625,1280,768,8-20-2022,9-58-15,88,depth_duration_stimuli/001056_2014-06-08_18-46-44_260595134347_rgbf000068-resize_0/001056_2014-06-08_18-46-44_260595134347_rgbf000068-resize_0-target.png,250,2.6625,6,2361,248,feet,jsons/v1_VE250_randls_58_rotated.json,620094,1244853,25,Woman
88,337468,DepthScenes,duration_manipulation_targetAtFixation,jsons/v1_VE250_randls_58_rotated.json,http://54.235.29.9/FacialAge/BNav_EC2/DepthDuration/v2_depth_duration_MTurk/v2_DepthDuration_HTML.html#78,78,1280,625,1280,768,8-20-2022,9-58-15,89,depth_duration_stimuli/003083_2014-06-15_15-21-03_094959634447_rgbf000063-resize_1/003083_2014-06-15_15-21-03_094959634447_rgbf000063-resize_1-target.png,250,4.1405,8,2987,251,feet,jsons/v1_VE250_randls_58_rotated.json,620094,1244853,25,Woman
89,337468,DepthScenes,duration_manipulation_targetAtFixation,jsons/v1_VE250_randls_58_rotated.json,http://54.235.29.9/FacialAge/BNav_EC2/DepthDuration/v2_depth_duration_MTurk/v2_DepthDuration_HTML.html#78,78,1280,625,1280,768,8-20-2022,9-58-15,90,depth_duration_stimuli/000486_2014-06-09_20-47-20_260595134347_rgbf000143-resize_2/000486_2014-06-09_20-47-20_260595134347_rgbf000143-resize_2-target.png,250,4.8325,4,2711,264,feet,jsons/v1_VE250_randls_58_rotated.json,620094,1244853,25,Woman
90,337468,DepthScenes,duration_manipulation_targetAtFixation,jsons/v1_VE250_randls_58_rotated.json,http://54.235.29.9/FacialAge/BNav_EC2/DepthDuration/v2_depth_duration_MTurk/v2_DepthDuration_HTML.html#78,78,1280,625,1280,768,8-20-2022,9-58-15,91,depth_duration_stimuli/003048_2014-06-15_13-49-43_094959634447_rgbf000150-resize_1/003048_2014-06-15_13-49-43_094959634447_rgbf000150-resize_1-target.png,250,4.0035,7,2678,251,feet,jsons/v1_VE250_randls_58_rotated.json,620094,1244853,25,Woman
91,337468,DepthScenes,duration_manipulation_targetAtFixation,jsons/v1_VE250_randls_58_rotated.json,http://54.235.29.9/FacialAge/BNav_EC2/DepthDuration/v2_depth_duration_MTurk/v2_DepthDuration_HTML.html#78,78,1280,625,1280,768,8-20-2022,9-58-15,92,depth_duration_stimuli/002043_2014-06-24_20-29-38_260595134347_rgbf000039-resize_4/002043_2014-06-24_20-29-38_260595134347_rgbf000039-resize_4-target.png,250,2.8435,5,3817,254,feet,jsons/v1_VE250_randls_58_rotated.json,620094,1244853,25,Woman
92,337468,DepthScenes,duration_manipulation_targetAtFixation,jsons/v1_VE250_randls_58_rotated.json,http://54.235.29.9/FacialAge/BNav_EC2/DepthDuration/v2_depth_duration_MTurk/v2_DepthDuration_HTML.html#78,78,1280,625,1280,768,8-20-2022,9-58-15,93,depth_duration_stimuli/001447_2014-06-19_17-00-32_260595134347_rgbf000082-resize_5/001447_2014-06-19_17-00-32_260595134347_rgbf000082-resize_5-target.png,250,4.13775,5,3192,242,feet,jsons/v1_VE250_randls_58_rotated.json,620094,1244853,25,Woman
93,337468,DepthScenes,duration_manipulation_targetAtFixation,jsons/v1_VE250_randls_58_rotated.json,http://54.235.29.9/FacialAge/BNav_EC2/DepthDuration/v2_depth_duration_MTurk/v2_DepthDuration_HTML.html#78,78,1280,625,1280,768,8-20-2022,9-58-15,94,depth_duration_stimuli/000447_2014-06-08_16-15-46_260595134347_rgbf000130-resize_1/000447_2014-06-08_16-15-46_260595134347_rgbf000130-resize_1-target.png,250,4.479,9,3149,242,feet,jsons/v1_VE250_randls_58_rotated.json,620094,1244853,25,Woman
94,337468,DepthScenes,duration_manipulation_targetAtFixation,jsons/v1_VE250_randls_58_rotated.json,http://54.235.29.9/FacialAge/BNav_EC2/DepthDuration/v2_depth_duration_MTurk/v2_DepthDuration_HTML.html#78,78,1280,625,1280,768,8-20-2022,9-58-15,95,depth_duration_stimuli/001100_2014-06-15_17-46-26_260595134347_rgbf000225-resize_2/001100_2014-06-15_17-46-26_260595134347_rgbf000225-resize_2-target.png,250,2.24,1,2725,247,feet,jsons/v1_VE250_randls_58_rotated.json,620094,1244853,25,Woman
95,337468,DepthScenes,duration_manipulation_targetAtFixation,jsons/v1_VE250_randls_58_rotated.json,http://54.235.29.9/FacialAge/BNav_EC2/DepthDuration/v2_depth_duration_MTurk/v2_DepthDuration_HTML.html#78,78,1280,625,1280,768,8-20-2022,9-58-15,96,depth_duration_stimuli/002784_2014-06-22_19-26-30_094959634447_rgbf000083-resize_3/002784_2014-06-22_19-26-30_094959634447_rgbf000083-resize_3-target.png,250,1.8046666666667,2,2281,249,feet,jsons/v1_VE250_randls_58_rotated.json,620094,1244853,25,Woman
96,337468,DepthScenes,duration_manipulation_targetAtFixation,jsons/v1_VE250_randls_58_rotated.json,http://54.235.29.9/FacialAge/BNav_EC2/DepthDuration/v2_depth_duration_MTurk/v2_DepthDuration_HTML.html#78,78,1280,625,1280,768,8-20-2022,9-58-15,97,depth_duration_stimuli/003081_2014-06-15_15-19-16_094959634447_rgbf000150-resize_1/003081_2014-06-15_15-19-16_094959634447_rgbf000150-resize_1-target.png,250,3.9125,5,2582,243,feet,jsons/v1_VE250_randls_58_rotated.json,620094,1244853,25,Woman
97,337468,DepthScenes,duration_manipulation_targetAtFixation,jsons/v1_VE250_randls_58_rotated.json,http://54.235.29.9/FacialAge/BNav_EC2/DepthDuration/v2_depth_duration_MTurk/v2_DepthDuration_HTML.html#78,78,1280,625,1280,768,8-20-2022,9-58-15,98,depth_duration_stimuli/001417_2014-06-19_16-25-36_260595134347_rgbf000115-resize_5/001417_2014-06-19_16-25-36_260595134347_rgbf000115-resize_5-target.png,250,4.6255,6,2359,250,feet,jsons/v1_VE250_randls_58_rotated.json,620094,1244853,25,Woman
98,337468,DepthScenes,duration_manipulation_targetAtFixation,jsons/v1_VE250_randls_58_rotated.json,http://54.235.29.9/FacialAge/BNav_EC2/DepthDuration/v2_depth_duration_MTurk/v2_DepthDuration_HTML.html#78,78,1280,625,1280,768,8-20-2022,9-58-15,99,depth_duration_stimuli/001222_2014-06-17_16-24-06_260595134347_rgbf000073-resize_0/001222_2014-06-17_16-24-06_260595134347_rgbf000073-resize-original.jpg,250,1.4385,0,3205,268,feet,jsons/v1_VE250_randls_58_rotated.json,620094,1244853,25,Woman
99,337468,DepthScenes,duration_manipulation_targetAtFixation,jsons/v1_VE250_randls_58_rotated.json,http://54.235.29.9/FacialAge/BNav_EC2/DepthDuration/v2_depth_duration_MTurk/v2_DepthDuration_HTML.html#78,78,1280,625,1280,768,8-20-2022,9-58-15,100,depth_duration_stimuli/002678_2014-06-13_16-15-32_094959634447_rgbf000151-resize_6/002678_2014-06-13_16-15-32_094959634447_rgbf000151-resize_6-target.png,250,2.1830000000000003,6,3382,247,feet,jsons/v1_VE250_randls_58_rotated.json,620094,1244853,25,Woman
100,337468,DepthScenes,duration_manipulation_targetAtFixation,jsons/v1_VE250_randls_58_rotated.json,http://54.235.29.9/FacialAge/BNav_EC2/DepthDuration/v2_depth_duration_MTurk/v2_DepthDuration_HTML.html#78,78,1280,625,1280,768,8-20-2022,9-58-15,101,depth_duration_stimuli/000368_2014-06-09_15-53-01_260595134347_rgbf000155-resize_2/000368_2014-06-09_15-53-01_260595134347_rgbf000155-resize_2-target.png,250,2.4859999999999998,3,2313,245,feet,jsons/v1_VE250_randls_58_rotated.json,620094,1244853,25,Woman
101,337468,DepthScenes,duration_manipulation_targetAtFixation,jsons/v1_VE250_randls_58_rotated.json,http://54.235.29.9/FacialAge/BNav_EC2/DepthDuration/v2_depth_duration_MTurk/v2_DepthDuration_HTML.html#78,78,1280,625,1280,768,8-20-2022,9-58-15,102,depth_duration_stimuli/002425_2014-06-28_20-27-29_260595134347_rgbf000031-resize_8/002425_2014-06-28_20-27-29_260595134347_rgbf000031-resize_8-target.png,250,3.8960000000000004,5,4365,251,feet,jsons/v1_VE250_randls_58_rotated.json,620094,1244853,25,Woman
102,337468,DepthScenes,duration_manipulation_targetAtFixation,jsons/v1_VE250_randls_58_rotated.json,http://54.235.29.9/FacialAge/BNav_EC2/DepthDuration/v2_depth_duration_MTurk/v2_DepthDuration_HTML.html#78,78,1280,625,1280,768,8-20-2022,9-58-15,103,depth_duration_stimuli/000642_2014-06-08_16-59-25_260595134347_rgbf000098-resize_2/000642_2014-06-08_16-59-25_260595134347_rgbf000098-resize_2-target.png,250,2.8815,5,16941,246,feet,jsons/v1_VE250_randls_58_rotated.json,620094,1244853,25,Woman
103,337468,DepthScenes,duration_manipulation_targetAtFixation,jsons/v1_VE250_randls_58_rotated.json,http://54.235.29.9/FacialAge/BNav_EC2/DepthDuration/v2_depth_duration_MTurk/v2_DepthDuration_HTML.html#78,78,1280,625,1280,768,8-20-2022,9-58-15,104,depth_duration_stimuli/000103_2014-05-14_22-01-17_260595134347_rgbf000152-resize_5/000103_2014-05-14_22-01-17_260595134347_rgbf000152-resize_5-target.png,250,1.993,4,3329,242,feet,jsons/v1_VE250_randls_58_rotated.json,620094,1244853,25,Woman
104,337468,DepthScenes,duration_manipulation_targetAtFixation,jsons/v1_VE250_randls_58_rotated.json,http://54.235.29.9/FacialAge/BNav_EC2/DepthDuration/v2_depth_duration_MTurk/v2_DepthDuration_HTML.html#78,78,1280,625,1280,768,8-20-2022,9-58-15,105,depth_duration_stimuli/001555_2014-06-20_17-12-10_260595134347_rgbf000065-resize_4/001555_2014-06-20_17-12-10_260595134347_rgbf000065-resize_4-target.png,250,1.633,2,2683,253,feet,jsons/v1_VE250_randls_58_rotated.json,620094,1244853,25,Woman
105,337468,DepthScenes,duration_manipulation_targetAtFixation,jsons/v1_VE250_randls_58_rotated.json,http://54.235.29.9/FacialAge/BNav_EC2/DepthDuration/v2_depth_duration_MTurk/v2_DepthDuration_HTML.html#78,78,1280,625,1280,768,8-20-2022,9-58-15,106,depth_duration_stimuli/000483_2014-06-09_20-41-45_260595134347_rgbf000116-resize_4/000483_2014-06-09_20-41-45_260595134347_rgbf000116-resize_4-target.png,250,1.337,2,2108,234,feet,jsons/v1_VE250_randls_58_rotated.json,620094,1244853,25,Woman
106,337468,DepthScenes,duration_manipulation_targetAtFixation,jsons/v1_VE250_randls_58_rotated.json,http://54.235.29.9/FacialAge/BNav_EC2/DepthDuration/v2_depth_duration_MTurk/v2_DepthDuration_HTML.html#78,78,1280,625,1280,768,8-20-2022,9-58-15,107,depth_duration_stimuli/000469_2014-06-09_19-42-10_260595134347_rgbf000081-resize_1/000469_2014-06-09_19-42-10_260595134347_rgbf000081-resize_1-target.png,250,1.652,2,3094,232,feet,jsons/v1_VE250_randls_58_rotated.json,620094,1244853,25,Woman
107,337468,DepthScenes,duration_manipulation_targetAtFixation,jsons/v1_VE250_randls_58_rotated.json,http://54.235.29.9/FacialAge/BNav_EC2/DepthDuration/v2_depth_duration_MTurk/v2_DepthDuration_HTML.html#78,78,1280,625,1280,768,8-20-2022,9-58-15,108,depth_duration_stimuli/002568_2014-06-24_13-59-21_094959634447_rgbf000062-resize_4/002568_2014-06-24_13-59-21_094959634447_rgbf000062-resize_4-target.png,250,3.015,4,2737,250,feet,jsons/v1_VE250_randls_58_rotated.json,620094,1244853,25,Woman
108,337468,DepthScenes,duration_manipulation_targetAtFixation,jsons/v1_VE250_randls_58_rotated.json,http://54.235.29.9/FacialAge/BNav_EC2/DepthDuration/v2_depth_duration_MTurk/v2_DepthDuration_HTML.html#78,78,1280,625,1280,768,8-20-2022,9-58-15,109,depth_duration_stimuli/003492_2014-05-21_15-50-55_094959634447_rgbf000828-resize_1/003492_2014-05-21_15-50-55_094959634447_rgbf000828-resize_1-target.png,250,4.06875,7,3343,242,feet,jsons/v1_VE250_randls_58_rotated.json,620094,1244853,25,Woman
109,337468,DepthScenes,duration_manipulation_targetAtFixation,jsons/v1_VE250_randls_58_rotated.json,http://54.235.29.9/FacialAge/BNav_EC2/DepthDuration/v2_depth_duration_MTurk/v2_DepthDuration_HTML.html#78,78,1280,625,1280,768,8-20-2022,9-58-15,110,depth_duration_stimuli/000457_2014-06-08_16-52-43_260595134347_rgbf000199-resize_1/000457_2014-06-08_16-52-43_260595134347_rgbf000199-resize_1-target.png,250,3.6489999999999996,6,3622,250,feet,jsons/v1_VE250_randls_58_rotated.json,620094,1244853,25,Woman
110,337468,DepthScenes,duration_manipulation_targetAtFixation,jsons/v1_VE250_randls_58_rotated.json,http://54.235.29.9/FacialAge/BNav_EC2/DepthDuration/v2_depth_duration_MTurk/v2_DepthDuration_HTML.html#78,78,1280,625,1280,768,8-20-2022,9-58-15,111,depth_duration_stimuli/000929_2014-06-09_16-33-19_260595134347_rgbf000139-resize_0/000929_2014-06-09_16-33-19_260595134347_rgbf000139-resize_0-target.png,250,2.8680000000000003,4,3266,249,feet,jsons/v1_VE250_randls_58_rotated.json,620094,1244853,25,Woman
111,337468,DepthScenes,duration_manipulation_targetAtFixation,jsons/v1_VE250_randls_58_rotated.json,http://54.235.29.9/FacialAge/BNav_EC2/DepthDuration/v2_depth_duration_MTurk/v2_DepthDuration_HTML.html#78,78,1280,625,1280,768,8-20-2022,9-58-15,112,depth_duration_stimuli/003490_2014-05-21_15-50-11_094959634447_rgbf000101-resize_3/003490_2014-05-21_15-50-11_094959634447_rgbf000101-resize_3-target.png,250,3.6445,5,2095,251,feet,jsons/v1_VE250_randls_58_rotated.json,620094,1244853,25,Woman
112,337468,DepthScenes,duration_manipulation_targetAtFixation,jsons/v1_VE250_randls_58_rotated.json,http://54.235.29.9/FacialAge/BNav_EC2/DepthDuration/v2_depth_duration_MTurk/v2_DepthDuration_HTML.html#78,78,1280,625,1280,768,8-20-2022,9-58-15,113,depth_duration_stimuli/001175_2014-06-17_15-45-55_260595134347_rgbf000129-resize_4/001175_2014-06-17_15-45-55_260595134347_rgbf000129-resize_4-target.png,250,4.255,7,3171,246,feet,jsons/v1_VE250_randls_58_rotated.json,620094,1244853,25,Woman
113,337468,DepthScenes,duration_manipulation_targetAtFixation,jsons/v1_VE250_randls_58_rotated.json,http://54.235.29.9/FacialAge/BNav_EC2/DepthDuration/v2_depth_duration_MTurk/v2_DepthDuration_HTML.html#78,78,1280,625,1280,768,8-20-2022,9-58-15,114,depth_duration_stimuli/001214_2014-06-17_16-13-55_260595134347_rgbf000111-resize_0/001214_2014-06-17_16-13-55_260595134347_rgbf000111-resize_0-target.png,250,2.6505,3,2917,244,feet,jsons/v1_VE250_randls_58_rotated.json,620094,1244853,25,Woman
114,337468,DepthScenes,duration_manipulation_targetAtFixation,jsons/v1_VE250_randls_58_rotated.json,http://54.235.29.9/FacialAge/BNav_EC2/DepthDuration/v2_depth_duration_MTurk/v2_DepthDuration_HTML.html#78,78,1280,625,1280,768,8-20-2022,9-58-15,115,depth_duration_stimuli/000810_2014-06-08_17-20-01_260595134347_rgbf000105-resize_0/000810_2014-06-08_17-20-01_260595134347_rgbf000105-resize_0-target.png,250,1.4865,2,3206,237,feet,jsons/v1_VE250_randls_58_rotated.json,620094,1244853,25,Woman
115,337468,DepthScenes,duration_manipulation_targetAtFixation,jsons/v1_VE250_randls_58_rotated.json,http://54.235.29.9/FacialAge/BNav_EC2/DepthDuration/v2_depth_duration_MTurk/v2_DepthDuration_HTML.html#78,78,1280,625,1280,768,8-20-2022,9-58-15,116,depth_duration_stimuli/000665_2014-06-09_20-42-35_260595134347_rgbf000110-resize_1/000665_2014-06-09_20-42-35_260595134347_rgbf000110-resize_1-target.png,250,3.057,3,2211,254,feet,jsons/v1_VE250_randls_58_rotated.json,620094,1244853,25,Woman
116,337468,DepthScenes,duration_manipulation_targetAtFixation,jsons/v1_VE250_randls_58_rotated.json,http://54.235.29.9/FacialAge/BNav_EC2/DepthDuration/v2_depth_duration_MTurk/v2_DepthDuration_HTML.html#78,78,1280,625,1280,768,8-20-2022,9-58-15,117,depth_duration_stimuli/001150_2014-06-17_15-27-34_260595134347_rgbf000108-resize_2/001150_2014-06-17_15-27-34_260595134347_rgbf000108-resize_2-target.png,250,4.0325,4,3118,236,feet,jsons/v1_VE250_randls_58_rotated.json,620094,1244853,25,Woman
117,337468,DepthScenes,duration_manipulation_targetAtFixation,jsons/v1_VE250_randls_58_rotated.json,http://54.235.29.9/FacialAge/BNav_EC2/DepthDuration/v2_depth_duration_MTurk/v2_DepthDuration_HTML.html#78,78,1280,625,1280,768,8-20-2022,9-58-15,118,depth_duration_stimuli/003228_2014-05-14_13-42-35_094959634447_rgbf000101-resize_1/003228_2014-05-14_13-42-35_094959634447_rgbf000101-resize_1-target.png,250,1.9680000000000002,2,2124,265,feet,jsons/v1_VE250_randls_58_rotated.json,620094,1244853,25,Woman
118,337468,DepthScenes,duration_manipulation_targetAtFixation,jsons/v1_VE250_randls_58_rotated.json,http://54.235.29.9/FacialAge/BNav_EC2/DepthDuration/v2_depth_duration_MTurk/v2_DepthDuration_HTML.html#78,78,1280,625,1280,768,8-20-2022,9-58-15,119,depth_duration_stimuli/002600_2014-06-24_14-27-04_094959634447_rgbf000074-resize_2/002600_2014-06-24_14-27-04_094959634447_rgbf000074-resize_2-target.png,250,2.7575,3,3012,239,feet,jsons/v1_VE250_randls_58_rotated.json,620094,1244853,25,Woman
119,337468,DepthScenes,duration_manipulation_targetAtFixation,jsons/v1_VE250_randls_58_rotated.json,http://54.235.29.9/FacialAge/BNav_EC2/DepthDuration/v2_depth_duration_MTurk/v2_DepthDuration_HTML.html#78,78,1280,625,1280,768,8-20-2022,9-58-15,120,depth_duration_stimuli/000787_2014-06-08_22-33-53_260595134347_rgbf000175-resize_1/000787_2014-06-08_22-33-53_260595134347_rgbf000175-resize-original.jpg,250,4.784,0,2334,250,feet,jsons/v1_VE250_randls_58_rotated.json,620094,1244853,25,Woman
120,337468,DepthScenes,duration_manipulation_targetAtFixation,jsons/v1_VE250_randls_58_rotated.json,http://54.235.29.9/FacialAge/BNav_EC2/DepthDuration/v2_depth_duration_MTurk/v2_DepthDuration_HTML.html#78,78,1280,625,1280,768,8-20-2022,9-58-15,121,depth_duration_stimuli/002444_2014-06-28_20-32-08_260595134347_rgbf000027-resize_0/002444_2014-06-28_20-32-08_260595134347_rgbf000027-resize_0-target.png,250,4.388999999999999,7,2562,248,feet,jsons/v1_VE250_randls_58_rotated.json,620094,1244853,25,Woman
121,337468,DepthScenes,duration_manipulation_targetAtFixation,jsons/v1_VE250_randls_58_rotated.json,http://54.235.29.9/FacialAge/BNav_EC2/DepthDuration/v2_depth_duration_MTurk/v2_DepthDuration_HTML.html#78,78,1280,625,1280,768,8-20-2022,9-58-15,122,depth_duration_stimuli/000436_2014-06-09_22-25-11_260595134347_rgbf000137-resize_1/000436_2014-06-09_22-25-11_260595134347_rgbf000137-resize_1-target.png,250,4.0705,8,5074,249,feet,jsons/v1_VE250_randls_58_rotated.json,620094,1244853,25,Woman
122,337468,DepthScenes,duration_manipulation_targetAtFixation,jsons/v1_VE250_randls_58_rotated.json,http://54.235.29.9/FacialAge/BNav_EC2/DepthDuration/v2_depth_duration_MTurk/v2_DepthDuration_HTML.html#78,78,1280,625,1280,768,8-20-2022,9-58-15,123,depth_duration_stimuli/001094_2014-06-15_17-36-00_260595134347_rgbf000205-resize_0/001094_2014-06-15_17-36-00_260595134347_rgbf000205-resize_0-target.png,250,4.2175,6,2833,246,feet,jsons/v1_VE250_randls_58_rotated.json,620094,1244853,25,Woman
123,337468,DepthScenes,duration_manipulation_targetAtFixation,jsons/v1_VE250_randls_58_rotated.json,http://54.235.29.9/FacialAge/BNav_EC2/DepthDuration/v2_depth_duration_MTurk/v2_DepthDuration_HTML.html#78,78,1280,625,1280,768,8-20-2022,9-58-15,124,depth_duration_stimuli/000692_2014-06-08_13-09-42_260595134347_rgbf000199-resize_2/000692_2014-06-08_13-09-42_260595134347_rgbf000199-resize_2-target.png,250,3.661,5,2643,249,feet,jsons/v1_VE250_randls_58_rotated.json,620094,1244853,25,Woman
124,337468,DepthScenes,duration_manipulation_targetAtFixation,jsons/v1_VE250_randls_58_rotated.json,http://54.235.29.9/FacialAge/BNav_EC2/DepthDuration/v2_depth_duration_MTurk/v2_DepthDuration_HTML.html#78,78,1280,625,1280,768,8-20-2022,9-58-15,125,depth_duration_stimuli/001450_2014-06-19_17-02-03_260595134347_rgbf000203-resize_4/001450_2014-06-19_17-02-03_260595134347_rgbf000203-resize_4-target.png,250,4.0106666666667,7,2979,257,feet,jsons/v1_VE250_randls_58_rotated.json,620094,1244853,25,Woman
125,337468,DepthScenes,duration_manipulation_targetAtFixation,jsons/v1_VE250_randls_58_rotated.json,http://54.235.29.9/FacialAge/BNav_EC2/DepthDuration/v2_depth_duration_MTurk/v2_DepthDuration_HTML.html#78,78,1280,625,1280,768,8-20-2022,9-58-15,126,depth_duration_stimuli/001449_2014-06-19_17-01-27_260595134347_rgbf000116-resize_2/001449_2014-06-19_17-01-27_260595134347_rgbf000116-resize_2-target.png,250,3.452,3,2140,240,feet,jsons/v1_VE250_randls_58_rotated.json,620094,1244853,25,Woman
126,337468,DepthScenes,duration_manipulation_targetAtFixation,jsons/v1_VE250_randls_58_rotated.json,http://54.235.29.9/FacialAge/BNav_EC2/DepthDuration/v2_depth_duration_MTurk/v2_DepthDuration_HTML.html#78,78,1280,625,1280,768,8-20-2022,9-58-15,127,depth_duration_stimuli/000943_2014-06-09_19-31-07_260595134347_rgbf000128-resize_1/000943_2014-06-09_19-31-07_260595134347_rgbf000128-resize_1-target.png,250,1.9765,2,2915,237,feet,jsons/v1_VE250_randls_58_rotated.json,620094,1244853,25,Woman
127,337468,DepthScenes,duration_manipulation_targetAtFixation,jsons/v1_VE250_randls_58_rotated.json,http://54.235.29.9/FacialAge/BNav_EC2/DepthDuration/v2_depth_duration_MTurk/v2_DepthDuration_HTML.html#78,78,1280,625,1280,768,8-20-2022,9-58-15,128,depth_duration_stimuli/003070_2014-06-15_14-58-27_094959634447_rgbf000150-resize_3/003070_2014-06-15_14-58-27_094959634447_rgbf000150-resize_3-target.png,250,2.9415,5,4755,243,feet,jsons/v1_VE250_randls_58_rotated.json,620094,1244853,25,Woman
128,337468,DepthScenes,duration_manipulation_targetAtFixation,jsons/v1_VE250_randls_58_rotated.json,http://54.235.29.9/FacialAge/BNav_EC2/DepthDuration/v2_depth_duration_MTurk/v2_DepthDuration_HTML.html#78,78,1280,625,1280,768,8-20-2022,9-58-15,129,depth_duration_stimuli/003338_2014-05-20_11-01-23_094959634447_rgbf000051-resize_6/003338_2014-05-20_11-01-23_094959634447_rgbf000051-resize_6-target.png,250,1.693,4,14353,248,feet,jsons/v1_VE250_randls_58_rotated.json,620094,1244853,25,Woman
129,337468,DepthScenes,duration_manipulation_targetAtFixation,jsons/v1_VE250_randls_58_rotated.json,http://54.235.29.9/FacialAge/BNav_EC2/DepthDuration/v2_depth_duration_MTurk/v2_DepthDuration_HTML.html#78,78,1280,625,1280,768,8-20-2022,9-58-15,130,depth_duration_stimuli/002509_2014-06-24_13-19-22_094959634447_rgbf000077-resize_0/002509_2014-06-24_13-19-22_094959634447_rgbf000077-resize_0-target.png,250,1.3065,3,3494,258,feet,jsons/v1_VE250_randls_58_rotated.json,620094,1244853,25,Woman
130,337468,DepthScenes,duration_manipulation_targetAtFixation,jsons/v1_VE250_randls_58_rotated.json,http://54.235.29.9/FacialAge/BNav_EC2/DepthDuration/v2_depth_duration_MTurk/v2_DepthDuration_HTML.html#78,78,1280,625,1280,768,8-20-2022,9-58-15,131,depth_duration_stimuli/000780_2014-06-08_22-28-29_260595134347_rgbf000126-resize_1/000780_2014-06-08_22-28-29_260595134347_rgbf000126-resize_1-target.png,250,3.3825,3,3242,194,feet,jsons/v1_VE250_randls_58_rotated.json,620094,1244853,25,Woman
131,337468,DepthScenes,duration_manipulation_targetAtFixation,jsons/v1_VE250_randls_58_rotated.json,http://54.235.29.9/FacialAge/BNav_EC2/DepthDuration/v2_depth_duration_MTurk/v2_DepthDuration_HTML.html#78,78,1280,625,1280,768,8-20-2022,9-58-15,132,depth_duration_stimuli/002445_2014-06-28_20-32-16_260595134347_rgbf000029-resize_4/002445_2014-06-28_20-32-16_260595134347_rgbf000029-resize_4-target.png,250,2.5315,4,2847,249,feet,jsons/v1_VE250_randls_58_rotated.json,620094,1244853,25,Woman
132,337468,DepthScenes,duration_manipulation_targetAtFixation,jsons/v1_VE250_randls_58_rotated.json,http://54.235.29.9/FacialAge/BNav_EC2/DepthDuration/v2_depth_duration_MTurk/v2_DepthDuration_HTML.html#78,78,1280,625,1280,768,8-20-2022,9-58-15,133,depth_duration_stimuli/002657_2014-06-13_15-29-54_094959634447_rgbf000150-resize_1/002657_2014-06-13_15-29-54_094959634447_rgbf000150-resize_1-target.png,250,4.919,8,2897,370,feet,jsons/v1_VE250_randls_58_rotated.json,620094,1244853,25,Woman
133,337468,DepthScenes,duration_manipulation_targetAtFixation,jsons/v1_VE250_randls_58_rotated.json,http://54.235.29.9/FacialAge/BNav_EC2/DepthDuration/v2_depth_duration_MTurk/v2_DepthDuration_HTML.html#78,78,1280,625,1280,768,8-20-2022,9-58-15,134,depth_duration_stimuli/002375_2014-06-28_20-13-44_260595134347_rgbf000032-resize_1/002375_2014-06-28_20-13-44_260595134347_rgbf000032-resize_1-target.png,250,4.0175,5,3130,250,feet,jsons/v1_VE250_randls_58_rotated.json,620094,1244853,25,Woman
134,337468,DepthScenes,duration_manipulation_targetAtFixation,jsons/v1_VE250_randls_58_rotated.json,http://54.235.29.9/FacialAge/BNav_EC2/DepthDuration/v2_depth_duration_MTurk/v2_DepthDuration_HTML.html#78,78,1280,625,1280,768,8-20-2022,9-58-15,135,depth_duration_stimuli/000375_2014-06-08_11-17-29_260595134347_rgbf000133-resize_2/000375_2014-06-08_11-17-29_260595134347_rgbf000133-resize-original.jpg,250,4.718,0,3054,254,feet,jsons/v1_VE250_randls_58_rotated.json,620094,1244853,25,Woman
135,337468,DepthScenes,duration_manipulation_targetAtFixation,jsons/v1_VE250_randls_58_rotated.json,http://54.235.29.9/FacialAge/BNav_EC2/DepthDuration/v2_depth_duration_MTurk/v2_DepthDuration_HTML.html#78,78,1280,625,1280,768,8-20-2022,9-58-15,136,depth_duration_stimuli/002949_2014-06-26_15-57-42_094959634447_rgbf000079-resize_1/002949_2014-06-26_15-57-42_094959634447_rgbf000079-resize_1-target.png,250,1.8915,2,2345,243,feet,jsons/v1_VE250_randls_58_rotated.json,620094,1244853,25,Woman
136,337468,DepthScenes,duration_manipulation_targetAtFixation,jsons/v1_VE250_randls_58_rotated.json,http://54.235.29.9/FacialAge/BNav_EC2/DepthDuration/v2_depth_duration_MTurk/v2_DepthDuration_HTML.html#78,78,1280,625,1280,768,8-20-2022,9-58-15,137,depth_duration_stimuli/000522_2014-06-08_13-35-06_260595134347_rgbf000244-resize_1/000522_2014-06-08_13-35-06_260595134347_rgbf000244-resize_1-target.png,250,2.3715,1,2376,245,feet,jsons/v1_VE250_randls_58_rotated.json,620094,1244853,25,Woman
137,337468,DepthScenes,duration_manipulation_targetAtFixation,jsons/v1_VE250_randls_58_rotated.json,http://54.235.29.9/FacialAge/BNav_EC2/DepthDuration/v2_depth_duration_MTurk/v2_DepthDuration_HTML.html#78,78,1280,625,1280,768,8-20-2022,9-58-15,138,depth_duration_stimuli/001516_2014-06-20_16-25-09_260595134347_rgbf000076-resize_2/001516_2014-06-20_16-25-09_260595134347_rgbf000076-resize_2-target.png,250,1.7445,2,2281,233,feet,jsons/v1_VE250_randls_58_rotated.json,620094,1244853,25,Woman
138,337468,DepthScenes,duration_manipulation_targetAtFixation,jsons/v1_VE250_randls_58_rotated.json,http://54.235.29.9/FacialAge/BNav_EC2/DepthDuration/v2_depth_duration_MTurk/v2_DepthDuration_HTML.html#78,78,1280,625,1280,768,8-20-2022,9-58-15,139,depth_duration_stimuli/002118_2014-06-25_20-32-08_260595134347_rgbf000078-resize_1/002118_2014-06-25_20-32-08_260595134347_rgbf000078-resize_1-target.png,250,2.6460000000000004,4,2898,256,feet,jsons/v1_VE250_randls_58_rotated.json,620094,1244853,25,Woman
139,337468,DepthScenes,duration_manipulation_targetAtFixation,jsons/v1_VE250_randls_58_rotated.json,http://54.235.29.9/FacialAge/BNav_EC2/DepthDuration/v2_depth_duration_MTurk/v2_DepthDuration_HTML.html#78,78,1280,625,1280,768,8-20-2022,9-58-15,140,depth_duration_stimuli/001235_2014-06-17_16-37-36_260595134347_rgbf000084-resize_4/001235_2014-06-17_16-37-36_260595134347_rgbf000084-resize_4-target.png,250,3.6605,5,2469,312,feet,jsons/v1_VE250_randls_58_rotated.json,620094,1244853,25,Woman
140,337468,DepthScenes,duration_manipulation_targetAtFixation,jsons/v1_VE250_randls_58_rotated.json,http://54.235.29.9/FacialAge/BNav_EC2/DepthDuration/v2_depth_duration_MTurk/v2_DepthDuration_HTML.html#78,78,1280,625,1280,768,8-20-2022,9-58-15,141,depth_duration_stimuli/000788_2014-06-08_22-34-36_260595134347_rgbf000131-resize_1/000788_2014-06-08_22-34-36_260595134347_rgbf000131-resize_1-target.png,250,3.359,6,3822,244,feet,jsons/v1_VE250_randls_58_rotated.json,620094,1244853,25,Woman
141,337468,DepthScenes,duration_manipulation_targetAtFixation,jsons/v1_VE250_randls_58_rotated.json,http://54.235.29.9/FacialAge/BNav_EC2/DepthDuration/v2_depth_duration_MTurk/v2_DepthDuration_HTML.html#78,78,1280,625,1280,768,8-20-2022,9-58-15,142,depth_duration_stimuli/000191_2014-05-12_17-07-38_260595134347_rgbf000199-resize_0/000191_2014-05-12_17-07-38_260595134347_rgbf000199-resize_0-target.png,250,3.7995,98,2713,244,feet,jsons/v1_VE250_randls_58_rotated.json,620094,1244853,25,Woman
142,337468,DepthScenes,duration_manipulation_targetAtFixation,jsons/v1_VE250_randls_58_rotated.json,http://54.235.29.9/FacialAge/BNav_EC2/DepthDuration/v2_depth_duration_MTurk/v2_DepthDuration_HTML.html#78,78,1280,625,1280,768,8-20-2022,9-58-15,143,depth_duration_stimuli/000493_2014-06-09_21-01-18_260595134347_rgbf000196-resize_3/000493_2014-06-09_21-01-18_260595134347_rgbf000196-resize_3-target.png,250,3.44,7,4939,250,feet,jsons/v1_VE250_randls_58_rotated.json,620094,1244853,25,Woman
143,337468,DepthScenes,duration_manipulation_targetAtFixation,jsons/v1_VE250_randls_58_rotated.json,http://54.235.29.9/FacialAge/BNav_EC2/DepthDuration/v2_depth_duration_MTurk/v2_DepthDuration_HTML.html#78,78,1280,625,1280,768,8-20-2022,9-58-15,144,depth_duration_stimuli/002545_2014-06-24_13-38-53_094959634447_rgbf000080-resize_4/002545_2014-06-24_13-38-53_094959634447_rgbf000080-resize_4-target.png,250,1.9205,6,2901,248,feet,jsons/v1_VE250_randls_58_rotated.json,620094,1244853,25,Woman
144,337468,DepthScenes,duration_manipulation_targetAtFixation,jsons/v1_VE250_randls_58_rotated.json,http://54.235.29.9/FacialAge/BNav_EC2/DepthDuration/v2_depth_duration_MTurk/v2_DepthDuration_HTML.html#78,78,1280,625,1280,768,8-20-2022,9-58-15,145,depth_duration_stimuli/001092_2014-06-15_17-34-58_260595134347_rgbf000171-resize_3/001092_2014-06-15_17-34-58_260595134347_rgbf000171-resize_3-target.png,250,2.6935,4,3487,251,feet,jsons/v1_VE250_randls_58_rotated.json,620094,1244853,25,Woman
145,337468,DepthScenes,duration_manipulation_targetAtFixation,jsons/v1_VE250_randls_58_rotated.json,http://54.235.29.9/FacialAge/BNav_EC2/DepthDuration/v2_depth_duration_MTurk/v2_DepthDuration_HTML.html#78,78,1280,625,1280,768,8-20-2022,9-58-15,146,depth_duration_stimuli/002344_2014-06-28_20-06-29_260595134347_rgbf000030-resize_1/002344_2014-06-28_20-06-29_260595134347_rgbf000030-resize_1-target.png,250,1.5795,3,2707,262,feet,jsons/v1_VE250_randls_58_rotated.json,620094,1244853,25,Woman
146,337468,DepthScenes,duration_manipulation_targetAtFixation,jsons/v1_VE250_randls_58_rotated.json,http://54.235.29.9/FacialAge/BNav_EC2/DepthDuration/v2_depth_duration_MTurk/v2_DepthDuration_HTML.html#78,78,1280,625,1280,768,8-20-2022,9-58-15,147,depth_duration_stimuli/002725_2014-06-22_11-47-51_094959634447_rgbf000070-resize_1/002725_2014-06-22_11-47-51_094959634447_rgbf000070-resize_1-target.png,250,2.195,4,3791,242,feet,jsons/v1_VE250_randls_58_rotated.json,620094,1244853,25,Woman
147,337468,DepthScenes,duration_manipulation_targetAtFixation,jsons/v1_VE250_randls_58_rotated.json,http://54.235.29.9/FacialAge/BNav_EC2/DepthDuration/v2_depth_duration_MTurk/v2_DepthDuration_HTML.html#78,78,1280,625,1280,768,8-20-2022,9-58-15,148,depth_duration_stimuli/003495_2014-05-21_16-01-51_094959634447_rgbf000100-resize_3/003495_2014-05-21_16-01-51_094959634447_rgbf000100-resize_3-target.png,250,1.6255,3,2812,252,feet,jsons/v1_VE250_randls_58_rotated.json,620094,1244853,25,Woman
148,337468,DepthScenes,duration_manipulation_targetAtFixation,jsons/v1_VE250_randls_58_rotated.json,http://54.235.29.9/FacialAge/BNav_EC2/DepthDuration/v2_depth_duration_MTurk/v2_DepthDuration_HTML.html#78,78,1280,625,1280,768,8-20-2022,9-58-15,149,depth_duration_stimuli/001244_2014-06-17_16-47-45_260595134347_rgbf000030-resize_4/001244_2014-06-17_16-47-45_260595134347_rgbf000030-resize_4-target.png,250,2.0425,2,2905,295,feet,jsons/v1_VE250_randls_58_rotated.json,620094,1244853,25,Woman
149,337468,DepthScenes,duration_manipulation_targetAtFixation,jsons/v1_VE250_randls_58_rotated.json,http://54.235.29.9/FacialAge/BNav_EC2/DepthDuration/v2_depth_duration_MTurk/v2_DepthDuration_HTML.html#78,78,1280,625,1280,768,8-20-2022,9-58-15,150,depth_duration_stimuli/001617_2014-06-20_11-35-32_260595134347_rgbf000066-resize_1/001617_2014-06-20_11-35-32_260595134347_rgbf000066-resize_1-target.png,250,3.7910000000000004,4,2251,250,feet,jsons/v1_VE250_randls_58_rotated.json,620094,1244853,25,Woman
150,337468,DepthScenes,duration_manipulation_targetAtFixation,jsons/v1_VE250_randls_58_rotated.json,http://54.235.29.9/FacialAge/BNav_EC2/DepthDuration/v2_depth_duration_MTurk/v2_DepthDuration_HTML.html#78,78,1280,625,1280,768,8-20-2022,9-58-15,151,depth_duration_stimuli/001806_2014-06-26_20-50-20_260595134347_rgbf000091-resize_1/001806_2014-06-26_20-50-20_260595134347_rgbf000091-resize_1-target.png,250,2.7305,4,1943,241,feet,jsons/v1_VE250_randls_58_rotated.json,620094,1244853,25,Woman
151,337468,DepthScenes,duration_manipulation_targetAtFixation,jsons/v1_VE250_randls_58_rotated.json,http://54.235.29.9/FacialAge/BNav_EC2/DepthDuration/v2_depth_duration_MTurk/v2_DepthDuration_HTML.html#78,78,1280,625,1280,768,8-20-2022,9-58-15,152,depth_duration_stimuli/000569_2014-06-09_22-51-47_260595134347_rgbf000141-resize_3/000569_2014-06-09_22-51-47_260595134347_rgbf000141-resize-original.jpg,250,4.512,0,2597,248,feet,jsons/v1_VE250_randls_58_rotated.json,620094,1244853,25,Woman
152,337468,DepthScenes,duration_manipulation_targetAtFixation,jsons/v1_VE250_randls_58_rotated.json,http://54.235.29.9/FacialAge/BNav_EC2/DepthDuration/v2_depth_duration_MTurk/v2_DepthDuration_HTML.html#78,78,1280,625,1280,768,8-20-2022,9-58-15,153,depth_duration_stimuli/001052_2014-06-08_18-24-54_260595134347_rgbf000130-resize_1/001052_2014-06-08_18-24-54_260595134347_rgbf000130-resize_1-target.png,250,4.1045,8,2496,249,feet,jsons/v1_VE250_randls_58_rotated.json,620094,1244853,25,Woman
153,337468,DepthScenes,duration_manipulation_targetAtFixation,jsons/v1_VE250_randls_58_rotated.json,http://54.235.29.9/FacialAge/BNav_EC2/DepthDuration/v2_depth_duration_MTurk/v2_DepthDuration_HTML.html#78,78,1280,625,1280,768,8-20-2022,9-58-15,154,depth_duration_stimuli/002988_2014-06-15_12-24-20_094959634447_rgbf000150-resize_1/002988_2014-06-15_12-24-20_094959634447_rgbf000150-resize_1-target.png,250,4.7669999999999995,12,2784,241,feet,jsons/v1_VE250_randls_58_rotated.json,620094,1244853,25,Woman
154,337468,DepthScenes,duration_manipulation_targetAtFixation,jsons/v1_VE250_randls_58_rotated.json,http://54.235.29.9/FacialAge/BNav_EC2/DepthDuration/v2_depth_duration_MTurk/v2_DepthDuration_HTML.html#78,78,1280,625,1280,768,8-20-2022,9-58-15,155,depth_duration_stimuli/002414_2014-06-28_20-24-58_260595134347_rgbf000067-resize_4/002414_2014-06-28_20-24-58_260595134347_rgbf000067-resize_4-target.png,250,4.363,11,3870,251,feet,jsons/v1_VE250_randls_58_rotated.json,620094,1244853,25,Woman
155,337468,DepthScenes,duration_manipulation_targetAtFixation,jsons/v1_VE250_randls_58_rotated.json,http://54.235.29.9/FacialAge/BNav_EC2/DepthDuration/v2_depth_duration_MTurk/v2_DepthDuration_HTML.html#78,78,1280,625,1280,768,8-20-2022,9-58-15,156,depth_duration_stimuli/000773_2014-06-08_22-24-54_260595134347_rgbf000093-resize_1/000773_2014-06-08_22-24-54_260595134347_rgbf000093-resize_1-target.png,250,4.973,10,2811,251,feet,jsons/v1_VE250_randls_58_rotated.json,620094,1244853,25,Woman
156,337468,DepthScenes,duration_manipulation_targetAtFixation,jsons/v1_VE250_randls_58_rotated.json,http://54.235.29.9/FacialAge/BNav_EC2/DepthDuration/v2_depth_duration_MTurk/v2_DepthDuration_HTML.html#78,78,1280,625,1280,768,8-20-2022,9-58-15,157,depth_duration_stimuli/000734_2014-06-08_17-39-11_260595134347_rgbf000128-resize_2/000734_2014-06-08_17-39-11_260595134347_rgbf000128-resize_2-target.png,250,4.098,5,3021,249,feet,jsons/v1_VE250_randls_58_rotated.json,620094,1244853,25,Woman
157,337468,DepthScenes,duration_manipulation_targetAtFixation,jsons/v1_VE250_randls_58_rotated.json,http://54.235.29.9/FacialAge/BNav_EC2/DepthDuration/v2_depth_duration_MTurk/v2_DepthDuration_HTML.html#78,78,1280,625,1280,768,8-20-2022,9-58-15,158,depth_duration_stimuli/000739_2014-06-08_18-45-58_260595134347_rgbf000068-resize_1/000739_2014-06-08_18-45-58_260595134347_rgbf000068-resize_1-target.png,250,3.534,5,2844,241,feet,jsons/v1_VE250_randls_58_rotated.json,620094,1244853,25,Woman
158,337468,DepthScenes,duration_manipulation_targetAtFixation,jsons/v1_VE250_randls_58_rotated.json,http://54.235.29.9/FacialAge/BNav_EC2/DepthDuration/v2_depth_duration_MTurk/v2_DepthDuration_HTML.html#78,78,1280,625,1280,768,8-20-2022,9-58-15,159,depth_duration_stimuli/000691_2014-06-08_13-08-50_260595134347_rgbf000132-resize_3/000691_2014-06-08_13-08-50_260595134347_rgbf000132-resize_3-target.png,250,4.1530000000000005,8,2228,246,feet,jsons/v1_VE250_randls_58_rotated.json,620094,1244853,25,Woman
159,337468,DepthScenes,duration_manipulation_targetAtFixation,jsons/v1_VE250_randls_58_rotated.json,http://54.235.29.9/FacialAge/BNav_EC2/DepthDuration/v2_depth_duration_MTurk/v2_DepthDuration_HTML.html#78,78,1280,625,1280,768,8-20-2022,9-58-15,160,depth_duration_stimuli/002213_2014-06-28_18-37-58_260595134347_rgbf000055-resize_1/002213_2014-06-28_18-37-58_260595134347_rgbf000055-resize_1-target.png,250,3.62,10,2215,243,feet,jsons/v1_VE250_randls_58_rotated.json,620094,1244853,25,Woman
160,337468,DepthScenes,duration_manipulation_targetAtFixation,jsons/v1_VE250_randls_58_rotated.json,http://54.235.29.9/FacialAge/BNav_EC2/DepthDuration/v2_depth_duration_MTurk/v2_DepthDuration_HTML.html#78,78,1280,625,1280,768,8-20-2022,9-58-15,161,depth_duration_stimuli/001650_2014-06-20_12-09-00_260595134347_rgbf000087-resize_3/001650_2014-06-20_12-09-00_260595134347_rgbf000087-resize_3-target.png,250,1.9505,1,2165,256,feet,jsons/v1_VE250_randls_58_rotated.json,620094,1244853,25,Woman
161,337468,DepthScenes,duration_manipulation_targetAtFixation,jsons/v1_VE250_randls_58_rotated.json,http://54.235.29.9/FacialAge/BNav_EC2/DepthDuration/v2_depth_duration_MTurk/v2_DepthDuration_HTML.html#78,78,1280,625,1280,768,8-20-2022,9-58-15,162,depth_duration_stimuli/000682_2014-06-08_23-14-58_260595134347_rgbf000041-resize_5/000682_2014-06-08_23-14-58_260595134347_rgbf000041-resize_5-target.png,250,2.7239999999999998,4,4969,254,feet,jsons/v1_VE250_randls_58_rotated.json,620094,1244853,25,Woman
162,337468,DepthScenes,duration_manipulation_targetAtFixation,jsons/v1_VE250_randls_58_rotated.json,http://54.235.29.9/FacialAge/BNav_EC2/DepthDuration/v2_depth_duration_MTurk/v2_DepthDuration_HTML.html#78,78,1280,625,1280,768,8-20-2022,9-58-15,163,depth_duration_stimuli/000677_2014-06-08_23-10-32_260595134347_rgbf000158-resize_6/000677_2014-06-08_23-10-32_260595134347_rgbf000158-resize_6-target.png,250,3.556,4,2071,259,feet,jsons/v1_VE250_randls_58_rotated.json,620094,1244853,25,Woman
163,337468,DepthScenes,duration_manipulation_targetAtFixation,jsons/v1_VE250_randls_58_rotated.json,http://54.235.29.9/FacialAge/BNav_EC2/DepthDuration/v2_depth_duration_MTurk/v2_DepthDuration_HTML.html#78,78,1280,625,1280,768,8-20-2022,9-58-15,164,depth_duration_stimuli/001029_2014-06-08_13-17-57_260595134347_rgbf000065-resize_1/001029_2014-06-08_13-17-57_260595134347_rgbf000065-resize_1-target.png,250,3.0835,4,1851,263,feet,jsons/v1_VE250_randls_58_rotated.json,620094,1244853,25,Woman
