,subjID,experimentName,versionName,sequenceName,url,selected_row,windowWidth,windowHeight,screenWidth,screenHeight,startDate,startTime,trial,stimulus,duration,actual_depth,depth_estimate,trial_RT,log_sceneDuration,unitSelection,seq_filepath,experimentTime,totalTime,age,gender
0,337855,DepthScenes,duration_manipulation_targetAtFixation,jsons/VE125_randls_23.json,http://54.235.29.9/FacialAge/BNav_EC2/DepthDuration/v2_depth_duration_MTurk/v2_DepthDuration_HTML.html#41,41,1600,900,1600,900,9-3-2022,9-25-9,1,depth_duration_stimuli/000682_2014-06-08_23-14-58_260595134347_rgbf000041-resize_5/000682_2014-06-08_23-14-58_260595134347_rgbf000041-resize_5-target.png,125,2.7239999999999998,15,3217,126,meters,jsons/VE125_randls_23.json,619821,1029845,62,Woman
1,337855,DepthScenes,duration_manipulation_targetAtFixation,jsons/VE125_randls_23.json,http://54.235.29.9/FacialAge/BNav_EC2/DepthDuration/v2_depth_duration_MTurk/v2_DepthDuration_HTML.html#41,41,1600,900,1600,900,9-3-2022,9-25-9,2,depth_duration_stimuli/001650_2014-06-20_12-09-00_260595134347_rgbf000087-resize_3/001650_2014-06-20_12-09-00_260595134347_rgbf000087-resize_3-target.png,125,1.9505,20,6949,106,meters,jsons/VE125_randls_23.json,619821,1029845,62,Woman
2,337855,DepthScenes,duration_manipulation_targetAtFixation,jsons/VE125_randls_23.json,http://54.235.29.9/FacialAge/BNav_EC2/DepthDuration/v2_depth_duration_MTurk/v2_DepthDuration_HTML.html#41,41,1600,900,1600,900,9-3-2022,9-25-9,3,depth_duration_stimuli/000436_2014-06-09_22-25-11_260595134347_rgbf000137-resize_1/000436_2014-06-09_22-25-11_260595134347_rgbf000137-resize_1-target.png,125,4.0705,30,2531,123,meters,jsons/VE125_randls_23.json,619821,1029845,62,Woman
3,337855,DepthScenes,duration_manipulation_targetAtFixation,jsons/VE125_randls_23.json,http://54.235.29.9/FacialAge/BNav_EC2/DepthDuration/v2_depth_duration_MTurk/v2_DepthDuration_HTML.html#41,41,1600,900,1600,900,9-3-2022,9-25-9,4,depth_duration_stimuli/002444_2014-06-28_20-32-08_260595134347_rgbf000027-resize_0/002444_2014-06-28_20-32-08_260595134347_rgbf000027-resize_0-target.png,125,4.388999999999999,20,2999,62,meters,jsons/VE125_randls_23.json,619821,1029845,62,Woman
4,337855,DepthScenes,duration_manipulation_targetAtFixation,jsons/VE125_randls_23.json,http://54.235.29.9/FacialAge/BNav_EC2/DepthDuration/v2_depth_duration_MTurk/v2_DepthDuration_HTML.html#41,41,1600,900,1600,900,9-3-2022,9-25-9,5,depth_duration_stimuli/001449_2014-06-19_17-01-27_260595134347_rgbf000116-resize_2/001449_2014-06-19_17-01-27_260595134347_rgbf000116-resize_2-target.png,125,3.452,30,3470,123,meters,jsons/VE125_randls_23.json,619821,1029845,62,Woman
5,337855,DepthScenes,duration_manipulation_targetAtFixation,jsons/VE125_randls_23.json,http://54.235.29.9/FacialAge/BNav_EC2/DepthDuration/v2_depth_duration_MTurk/v2_DepthDuration_HTML.html#41,41,1600,900,1600,900,9-3-2022,9-25-9,6,depth_duration_stimuli/001450_2014-06-19_17-02-03_260595134347_rgbf000203-resize_4/001450_2014-06-19_17-02-03_260595134347_rgbf000203-resize_4-target.png,125,4.0106666666667,15,3283,134,meters,jsons/VE125_randls_23.json,619821,1029845,62,Woman
6,337855,DepthScenes,duration_manipulation_targetAtFixation,jsons/VE125_randls_23.json,http://54.235.29.9/FacialAge/BNav_EC2/DepthDuration/v2_depth_duration_MTurk/v2_DepthDuration_HTML.html#41,41,1600,900,1600,900,9-3-2022,9-25-9,7,depth_duration_stimuli/001150_2014-06-17_15-27-34_260595134347_rgbf000108-resize_2/001150_2014-06-17_15-27-34_260595134347_rgbf000108-resize_2-target.png,125,4.0325,20,3248,124,meters,jsons/VE125_randls_23.json,619821,1029845,62,Woman
7,337855,DepthScenes,duration_manipulation_targetAtFixation,jsons/VE125_randls_23.json,http://54.235.29.9/FacialAge/BNav_EC2/DepthDuration/v2_depth_duration_MTurk/v2_DepthDuration_HTML.html#41,41,1600,900,1600,900,9-3-2022,9-25-9,8,depth_duration_stimuli/000665_2014-06-09_20-42-35_260595134347_rgbf000110-resize_1/000665_2014-06-09_20-42-35_260595134347_rgbf000110-resize_1-target.png,125,3.057,15,3756,123,meters,jsons/VE125_randls_23.json,619821,1029845,62,Woman
8,337855,DepthScenes,duration_manipulation_targetAtFixation,jsons/VE125_randls_23.json,http://54.235.29.9/FacialAge/BNav_EC2/DepthDuration/v2_depth_duration_MTurk/v2_DepthDuration_HTML.html#41,41,1600,900,1600,900,9-3-2022,9-25-9,9,depth_duration_stimuli/000642_2014-06-08_16-59-25_260595134347_rgbf000098-resize_2/000642_2014-06-08_16-59-25_260595134347_rgbf000098-resize_2-target.png,125,2.8815,15,6871,127,meters,jsons/VE125_randls_23.json,619821,1029845,62,Woman
9,337855,DepthScenes,duration_manipulation_targetAtFixation,jsons/VE125_randls_23.json,http://54.235.29.9/FacialAge/BNav_EC2/DepthDuration/v2_depth_duration_MTurk/v2_DepthDuration_HTML.html#41,41,1600,900,1600,900,9-3-2022,9-25-9,10,depth_duration_stimuli/002425_2014-06-28_20-27-29_260595134347_rgbf000031-resize_8/002425_2014-06-28_20-27-29_260595134347_rgbf000031-resize_8-target.png,125,3.8960000000000004,25,2762,122,meters,jsons/VE125_randls_23.json,619821,1029845,62,Woman
10,337855,DepthScenes,duration_manipulation_targetAtFixation,jsons/VE125_randls_23.json,http://54.235.29.9/FacialAge/BNav_EC2/DepthDuration/v2_depth_duration_MTurk/v2_DepthDuration_HTML.html#41,41,1600,900,1600,900,9-3-2022,9-25-9,11,depth_duration_stimuli/001056_2014-06-08_18-46-44_260595134347_rgbf000068-resize_0/001056_2014-06-08_18-46-44_260595134347_rgbf000068-resize_0-target.png,125,2.6625,15,2909,123,meters,jsons/VE125_randls_23.json,619821,1029845,62,Woman
11,337855,DepthScenes,duration_manipulation_targetAtFixation,jsons/VE125_randls_23.json,http://54.235.29.9/FacialAge/BNav_EC2/DepthDuration/v2_depth_duration_MTurk/v2_DepthDuration_HTML.html#41,41,1600,900,1600,900,9-3-2022,9-25-9,12,depth_duration_stimuli/002199_2014-06-28_18-33-56_260595134347_rgbf000074-resize_0/002199_2014-06-28_18-33-56_260595134347_rgbf000074-resize_0-target.png,125,1.996,25,3484,119,meters,jsons/VE125_randls_23.json,619821,1029845,62,Woman
12,337855,DepthScenes,duration_manipulation_targetAtFixation,jsons/VE125_randls_23.json,http://54.235.29.9/FacialAge/BNav_EC2/DepthDuration/v2_depth_duration_MTurk/v2_DepthDuration_HTML.html#41,41,1600,900,1600,900,9-3-2022,9-25-9,13,depth_duration_stimuli/000569_2014-06-09_22-51-47_260595134347_rgbf000141-resize_3/000569_2014-06-09_22-51-47_260595134347_rgbf000141-resize-original.jpg,125,4.512,20,2332,127,meters,jsons/VE125_randls_23.json,619821,1029845,62,Woman
13,337855,DepthScenes,duration_manipulation_targetAtFixation,jsons/VE125_randls_23.json,http://54.235.29.9/FacialAge/BNav_EC2/DepthDuration/v2_depth_duration_MTurk/v2_DepthDuration_HTML.html#41,41,1600,900,1600,900,9-3-2022,9-25-9,14,depth_duration_stimuli/001092_2014-06-15_17-34-58_260595134347_rgbf000171-resize_3/001092_2014-06-15_17-34-58_260595134347_rgbf000171-resize_3-target.png,125,2.6935,20,2660,101,meters,jsons/VE125_randls_23.json,619821,1029845,62,Woman
14,337855,DepthScenes,duration_manipulation_targetAtFixation,jsons/VE125_randls_23.json,http://54.235.29.9/FacialAge/BNav_EC2/DepthDuration/v2_depth_duration_MTurk/v2_DepthDuration_HTML.html#41,41,1600,900,1600,900,9-3-2022,9-25-9,15,depth_duration_stimuli/002545_2014-06-24_13-38-53_094959634447_rgbf000080-resize_4/002545_2014-06-24_13-38-53_094959634447_rgbf000080-resize_4-target.png,125,1.9205,25,2677,124,meters,jsons/VE125_randls_23.json,619821,1029845,62,Woman
15,337855,DepthScenes,duration_manipulation_targetAtFixation,jsons/VE125_randls_23.json,http://54.235.29.9/FacialAge/BNav_EC2/DepthDuration/v2_depth_duration_MTurk/v2_DepthDuration_HTML.html#41,41,1600,900,1600,900,9-3-2022,9-25-9,16,depth_duration_stimuli/000414_2014-06-04_19-49-13_260595134347_rgbf000044-resize_0/000414_2014-06-04_19-49-13_260595134347_rgbf000044-resize_0-target.png,125,4.329,15,2644,124,meters,jsons/VE125_randls_23.json,619821,1029845,62,Woman
16,337855,DepthScenes,duration_manipulation_targetAtFixation,jsons/VE125_randls_23.json,http://54.235.29.9/FacialAge/BNav_EC2/DepthDuration/v2_depth_duration_MTurk/v2_DepthDuration_HTML.html#41,41,1600,900,1600,900,9-3-2022,9-25-9,17,depth_duration_stimuli/003129_2014-05-12_10-48-10_094959634447_rgbf000100-resize_0/003129_2014-05-12_10-48-10_094959634447_rgbf000100-resize_0-target.png,125,4.9305,10,2372,28,meters,jsons/VE125_randls_23.json,619821,1029845,62,Woman
17,337855,DepthScenes,duration_manipulation_targetAtFixation,jsons/VE125_randls_23.json,http://54.235.29.9/FacialAge/BNav_EC2/DepthDuration/v2_depth_duration_MTurk/v2_DepthDuration_HTML.html#41,41,1600,900,1600,900,9-3-2022,9-25-9,18,depth_duration_stimuli/003070_2014-06-15_14-58-27_094959634447_rgbf000150-resize_3/003070_2014-06-15_14-58-27_094959634447_rgbf000150-resize_3-target.png,125,2.9415,2,2473,109,meters,jsons/VE125_randls_23.json,619821,1029845,62,Woman
18,337855,DepthScenes,duration_manipulation_targetAtFixation,jsons/VE125_randls_23.json,http://54.235.29.9/FacialAge/BNav_EC2/DepthDuration/v2_depth_duration_MTurk/v2_DepthDuration_HTML.html#41,41,1600,900,1600,900,9-3-2022,9-25-9,19,depth_duration_stimuli/000943_2014-06-09_19-31-07_260595134347_rgbf000128-resize_1/000943_2014-06-09_19-31-07_260595134347_rgbf000128-resize_1-target.png,125,1.9765,15,3536,123,meters,jsons/VE125_randls_23.json,619821,1029845,62,Woman
19,337855,DepthScenes,duration_manipulation_targetAtFixation,jsons/VE125_randls_23.json,http://54.235.29.9/FacialAge/BNav_EC2/DepthDuration/v2_depth_duration_MTurk/v2_DepthDuration_HTML.html#41,41,1600,900,1600,900,9-3-2022,9-25-9,20,depth_duration_stimuli/002905_2014-06-03_18-04-43_094959634447_rgbf000151-resize_2/002905_2014-06-03_18-04-43_094959634447_rgbf000151-resize_2-target.png,125,2.0295,20,2799,121,meters,jsons/VE125_randls_23.json,619821,1029845,62,Woman
20,337855,DepthScenes,duration_manipulation_targetAtFixation,jsons/VE125_randls_23.json,http://54.235.29.9/FacialAge/BNav_EC2/DepthDuration/v2_depth_duration_MTurk/v2_DepthDuration_HTML.html#41,41,1600,900,1600,900,9-3-2022,9-25-9,21,depth_duration_stimuli/003423_2014-05-21_10-23-26_094959634447_rgbf002665-resize_2/003423_2014-05-21_10-23-26_094959634447_rgbf002665-resize_2-target.png,125,3.2575,10,2949,130,meters,jsons/VE125_randls_23.json,619821,1029845,62,Woman
21,337855,DepthScenes,duration_manipulation_targetAtFixation,jsons/VE125_randls_23.json,http://54.235.29.9/FacialAge/BNav_EC2/DepthDuration/v2_depth_duration_MTurk/v2_DepthDuration_HTML.html#41,41,1600,900,1600,900,9-3-2022,9-25-9,22,depth_duration_stimuli/000486_2014-06-09_20-47-20_260595134347_rgbf000143-resize_2/000486_2014-06-09_20-47-20_260595134347_rgbf000143-resize_2-target.png,125,4.8325,15,3092,112,meters,jsons/VE125_randls_23.json,619821,1029845,62,Woman
22,337855,DepthScenes,duration_manipulation_targetAtFixation,jsons/VE125_randls_23.json,http://54.235.29.9/FacialAge/BNav_EC2/DepthDuration/v2_depth_duration_MTurk/v2_DepthDuration_HTML.html#41,41,1600,900,1600,900,9-3-2022,9-25-9,23,depth_duration_stimuli/003083_2014-06-15_15-21-03_094959634447_rgbf000063-resize_1/003083_2014-06-15_15-21-03_094959634447_rgbf000063-resize_1-target.png,125,4.1405,25,3042,122,meters,jsons/VE125_randls_23.json,619821,1029845,62,Woman
23,337855,DepthScenes,duration_manipulation_targetAtFixation,jsons/VE125_randls_23.json,http://54.235.29.9/FacialAge/BNav_EC2/DepthDuration/v2_depth_duration_MTurk/v2_DepthDuration_HTML.html#41,41,1600,900,1600,900,9-3-2022,9-25-9,24,depth_duration_stimuli/002153_2014-06-25_21-27-18_260595134347_rgbf000038-resize_5/002153_2014-06-25_21-27-18_260595134347_rgbf000038-resize_5-target.png,125,2.505,10,2495,121,meters,jsons/VE125_randls_23.json,619821,1029845,62,Woman
24,337855,DepthScenes,duration_manipulation_targetAtFixation,jsons/VE125_randls_23.json,http://54.235.29.9/FacialAge/BNav_EC2/DepthDuration/v2_depth_duration_MTurk/v2_DepthDuration_HTML.html#41,41,1600,900,1600,900,9-3-2022,9-25-9,25,depth_duration_stimuli/002660_2014-06-13_15-44-18_094959634447_rgbf001878-resize_2/002660_2014-06-13_15-44-18_094959634447_rgbf001878-resize_2-target.png,125,3.576,15,2611,134,meters,jsons/VE125_randls_23.json,619821,1029845,62,Woman
25,337855,DepthScenes,duration_manipulation_targetAtFixation,jsons/VE125_randls_23.json,http://54.235.29.9/FacialAge/BNav_EC2/DepthDuration/v2_depth_duration_MTurk/v2_DepthDuration_HTML.html#41,41,1600,900,1600,900,9-3-2022,9-25-9,26,depth_duration_stimuli/001011_2014-06-08_23-18-54_260595134347_rgbf000044-resize_4/001011_2014-06-08_23-18-54_260595134347_rgbf000044-resize_4-target.png,125,2.4730000000000003,10,3051,124,meters,jsons/VE125_randls_23.json,619821,1029845,62,Woman
26,337855,DepthScenes,duration_manipulation_targetAtFixation,jsons/VE125_randls_23.json,http://54.235.29.9/FacialAge/BNav_EC2/DepthDuration/v2_depth_duration_MTurk/v2_DepthDuration_HTML.html#41,41,1600,900,1600,900,9-3-2022,9-25-9,27,depth_duration_stimuli/002875_2014-06-01_15-19-00_094959634447_rgbf000151-resize_1/002875_2014-06-01_15-19-00_094959634447_rgbf000151-resize_1-target.png,125,1.9675,10,3516,127,meters,jsons/VE125_randls_23.json,619821,1029845,62,Woman
27,337855,DepthScenes,duration_manipulation_targetAtFixation,jsons/VE125_randls_23.json,http://54.235.29.9/FacialAge/BNav_EC2/DepthDuration/v2_depth_duration_MTurk/v2_DepthDuration_HTML.html#41,41,1600,900,1600,900,9-3-2022,9-25-9,28,depth_duration_stimuli/002988_2014-06-15_12-24-20_094959634447_rgbf000150-resize_1/002988_2014-06-15_12-24-20_094959634447_rgbf000150-resize_1-target.png,125,4.7669999999999995,20,2411,119,meters,jsons/VE125_randls_23.json,619821,1029845,62,Woman
28,337855,DepthScenes,duration_manipulation_targetAtFixation,jsons/VE125_randls_23.json,http://54.235.29.9/FacialAge/BNav_EC2/DepthDuration/v2_depth_duration_MTurk/v2_DepthDuration_HTML.html#41,41,1600,900,1600,900,9-3-2022,9-25-9,29,depth_duration_stimuli/001052_2014-06-08_18-24-54_260595134347_rgbf000130-resize_1/001052_2014-06-08_18-24-54_260595134347_rgbf000130-resize_1-target.png,125,4.1045,30,3826,125,meters,jsons/VE125_randls_23.json,619821,1029845,62,Woman
29,337855,DepthScenes,duration_manipulation_targetAtFixation,jsons/VE125_randls_23.json,http://54.235.29.9/FacialAge/BNav_EC2/DepthDuration/v2_depth_duration_MTurk/v2_DepthDuration_HTML.html#41,41,1600,900,1600,900,9-3-2022,9-25-9,30,depth_duration_stimuli/000375_2014-06-08_11-17-29_260595134347_rgbf000133-resize_2/000375_2014-06-08_11-17-29_260595134347_rgbf000133-resize-original.jpg,125,4.718,10,2833,112,meters,jsons/VE125_randls_23.json,619821,1029845,62,Woman
30,337855,DepthScenes,duration_manipulation_targetAtFixation,jsons/VE125_randls_23.json,http://54.235.29.9/FacialAge/BNav_EC2/DepthDuration/v2_depth_duration_MTurk/v2_DepthDuration_HTML.html#41,41,1600,900,1600,900,9-3-2022,9-25-9,31,depth_duration_stimuli/002043_2014-06-24_20-29-38_260595134347_rgbf000039-resize_4/002043_2014-06-24_20-29-38_260595134347_rgbf000039-resize_4-target.png,125,2.8435,15,2496,125,meters,jsons/VE125_randls_23.json,619821,1029845,62,Woman
31,337855,DepthScenes,duration_manipulation_targetAtFixation,jsons/VE125_randls_23.json,http://54.235.29.9/FacialAge/BNav_EC2/DepthDuration/v2_depth_duration_MTurk/v2_DepthDuration_HTML.html#41,41,1600,900,1600,900,9-3-2022,9-25-9,32,depth_duration_stimuli/003048_2014-06-15_13-49-43_094959634447_rgbf000150-resize_1/003048_2014-06-15_13-49-43_094959634447_rgbf000150-resize_1-target.png,125,4.0035,20,2496,121,meters,jsons/VE125_randls_23.json,619821,1029845,62,Woman
32,337855,DepthScenes,duration_manipulation_targetAtFixation,jsons/VE125_randls_23.json,http://54.235.29.9/FacialAge/BNav_EC2/DepthDuration/v2_depth_duration_MTurk/v2_DepthDuration_HTML.html#41,41,1600,900,1600,900,9-3-2022,9-25-9,33,depth_duration_stimuli/002763_2014-06-22_19-13-10_094959634447_rgbf000075-resize_4/002763_2014-06-22_19-13-10_094959634447_rgbf000075-resize_4-target.png,125,1.68375,15,2328,127,meters,jsons/VE125_randls_23.json,619821,1029845,62,Woman
33,337855,DepthScenes,duration_manipulation_targetAtFixation,jsons/VE125_randls_23.json,http://54.235.29.9/FacialAge/BNav_EC2/DepthDuration/v2_depth_duration_MTurk/v2_DepthDuration_HTML.html#41,41,1600,900,1600,900,9-3-2022,9-25-9,34,depth_duration_stimuli/002209_2014-06-28_18-36-10_260595134347_rgbf000051-resize_1/002209_2014-06-28_18-36-10_260595134347_rgbf000051-resize_1-target.png,125,2.057,20,2524,128,meters,jsons/VE125_randls_23.json,619821,1029845,62,Woman
34,337855,DepthScenes,duration_manipulation_targetAtFixation,jsons/VE125_randls_23.json,http://54.235.29.9/FacialAge/BNav_EC2/DepthDuration/v2_depth_duration_MTurk/v2_DepthDuration_HTML.html#41,41,1600,900,1600,900,9-3-2022,9-25-9,35,depth_duration_stimuli/000522_2014-06-08_13-35-06_260595134347_rgbf000244-resize_1/000522_2014-06-08_13-35-06_260595134347_rgbf000244-resize_1-target.png,125,2.3715,15,2810,125,meters,jsons/VE125_randls_23.json,619821,1029845,62,Woman
35,337855,DepthScenes,duration_manipulation_targetAtFixation,jsons/VE125_randls_23.json,http://54.235.29.9/FacialAge/BNav_EC2/DepthDuration/v2_depth_duration_MTurk/v2_DepthDuration_HTML.html#41,41,1600,900,1600,900,9-3-2022,9-25-9,36,depth_duration_stimuli/002949_2014-06-26_15-57-42_094959634447_rgbf000079-resize_1/002949_2014-06-26_15-57-42_094959634447_rgbf000079-resize_1-target.png,125,1.8915,20,2609,126,meters,jsons/VE125_randls_23.json,619821,1029845,62,Woman
36,337855,DepthScenes,duration_manipulation_targetAtFixation,jsons/VE125_randls_23.json,http://54.235.29.9/FacialAge/BNav_EC2/DepthDuration/v2_depth_duration_MTurk/v2_DepthDuration_HTML.html#41,41,1600,900,1600,900,9-3-2022,9-25-9,37,depth_duration_stimuli/000917_2014-06-09_22-45-29_260595134347_rgbf000149-resize_3/000917_2014-06-09_22-45-29_260595134347_rgbf000149-resize_3-target.png,125,4.1865,25,3146,124,meters,jsons/VE125_randls_23.json,619821,1029845,62,Woman
37,337855,DepthScenes,duration_manipulation_targetAtFixation,jsons/VE125_randls_23.json,http://54.235.29.9/FacialAge/BNav_EC2/DepthDuration/v2_depth_duration_MTurk/v2_DepthDuration_HTML.html#41,41,1600,900,1600,900,9-3-2022,9-25-9,38,depth_duration_stimuli/002323_2014-06-28_20-01-54_260595134347_rgbf000051-resize_4/002323_2014-06-28_20-01-54_260595134347_rgbf000051-resize_4-target.png,125,3.7310000000000003,15,2843,159,meters,jsons/VE125_randls_23.json,619821,1029845,62,Woman
38,337855,DepthScenes,duration_manipulation_targetAtFixation,jsons/VE125_randls_23.json,http://54.235.29.9/FacialAge/BNav_EC2/DepthDuration/v2_depth_duration_MTurk/v2_DepthDuration_HTML.html#41,41,1600,900,1600,900,9-3-2022,9-25-9,39,depth_duration_stimuli/002549_2014-06-24_13-41-39_094959634447_rgbf000022-resize_3/002549_2014-06-24_13-41-39_094959634447_rgbf000022-resize_3-target.png,125,1.476,10,2842,129,meters,jsons/VE125_randls_23.json,619821,1029845,62,Woman
39,337855,DepthScenes,duration_manipulation_targetAtFixation,jsons/VE125_randls_23.json,http://54.235.29.9/FacialAge/BNav_EC2/DepthDuration/v2_depth_duration_MTurk/v2_DepthDuration_HTML.html#41,41,1600,900,1600,900,9-3-2022,9-25-9,40,depth_duration_stimuli/002750_2014-06-22_19-08-03_094959634447_rgbf000094-resize_4/002750_2014-06-22_19-08-03_094959634447_rgbf000094-resize_4-target.png,125,2.354,20,3943,123,meters,jsons/VE125_randls_23.json,619821,1029845,62,Woman
40,337855,DepthScenes,duration_manipulation_targetAtFixation,jsons/VE125_randls_23.json,http://54.235.29.9/FacialAge/BNav_EC2/DepthDuration/v2_depth_duration_MTurk/v2_DepthDuration_HTML.html#41,41,1600,900,1600,900,9-3-2022,9-25-9,41,depth_duration_stimuli/002600_2014-06-24_14-27-04_094959634447_rgbf000074-resize_2/002600_2014-06-24_14-27-04_094959634447_rgbf000074-resize_2-target.png,125,2.7575,25,10081,120,meters,jsons/VE125_randls_23.json,619821,1029845,62,Woman
41,337855,DepthScenes,duration_manipulation_targetAtFixation,jsons/VE125_randls_23.json,http://54.235.29.9/FacialAge/BNav_EC2/DepthDuration/v2_depth_duration_MTurk/v2_DepthDuration_HTML.html#41,41,1600,900,1600,900,9-3-2022,9-25-9,42,depth_duration_stimuli/003228_2014-05-14_13-42-35_094959634447_rgbf000101-resize_1/003228_2014-05-14_13-42-35_094959634447_rgbf000101-resize_1-target.png,125,1.9680000000000002,10,2447,125,meters,jsons/VE125_randls_23.json,619821,1029845,62,Woman
42,337855,DepthScenes,duration_manipulation_targetAtFixation,jsons/VE125_randls_23.json,http://54.235.29.9/FacialAge/BNav_EC2/DepthDuration/v2_depth_duration_MTurk/v2_DepthDuration_HTML.html#41,41,1600,900,1600,900,9-3-2022,9-25-9,43,depth_duration_stimuli/001029_2014-06-08_13-17-57_260595134347_rgbf000065-resize_1/001029_2014-06-08_13-17-57_260595134347_rgbf000065-resize_1-target.png,125,3.0835,15,3141,111,meters,jsons/VE125_randls_23.json,619821,1029845,62,Woman
43,337855,DepthScenes,duration_manipulation_targetAtFixation,jsons/VE125_randls_23.json,http://54.235.29.9/FacialAge/BNav_EC2/DepthDuration/v2_depth_duration_MTurk/v2_DepthDuration_HTML.html#41,41,1600,900,1600,900,9-3-2022,9-25-9,44,depth_duration_stimuli/000677_2014-06-08_23-10-32_260595134347_rgbf000158-resize_6/000677_2014-06-08_23-10-32_260595134347_rgbf000158-resize_6-target.png,125,3.556,15,2574,121,meters,jsons/VE125_randls_23.json,619821,1029845,62,Woman
44,337855,DepthScenes,duration_manipulation_targetAtFixation,jsons/VE125_randls_23.json,http://54.235.29.9/FacialAge/BNav_EC2/DepthDuration/v2_depth_duration_MTurk/v2_DepthDuration_HTML.html#41,41,1600,900,1600,900,9-3-2022,9-25-9,45,depth_duration_stimuli/000787_2014-06-08_22-33-53_260595134347_rgbf000175-resize_1/000787_2014-06-08_22-33-53_260595134347_rgbf000175-resize-original.jpg,125,4.784,20,2673,124,meters,jsons/VE125_randls_23.json,619821,1029845,62,Woman
45,337855,DepthScenes,duration_manipulation_targetAtFixation,jsons/VE125_randls_23.json,http://54.235.29.9/FacialAge/BNav_EC2/DepthDuration/v2_depth_duration_MTurk/v2_DepthDuration_HTML.html#41,41,1600,900,1600,900,9-3-2022,9-25-9,46,depth_duration_stimuli/001110_2014-06-15_17-25-28_260595134347_rgbf000150-resize_1/001110_2014-06-15_17-25-28_260595134347_rgbf000150-resize_1-target.png,125,1.7115,15,2600,128,meters,jsons/VE125_randls_23.json,619821,1029845,62,Woman
46,337855,DepthScenes,duration_manipulation_targetAtFixation,jsons/VE125_randls_23.json,http://54.235.29.9/FacialAge/BNav_EC2/DepthDuration/v2_depth_duration_MTurk/v2_DepthDuration_HTML.html#41,41,1600,900,1600,900,9-3-2022,9-25-9,47,depth_duration_stimuli/000927_2014-06-09_16-32-30_260595134347_rgbf000123-resize_3/000927_2014-06-09_16-32-30_260595134347_rgbf000123-resize_3-target.png,125,2.6785,20,2771,110,meters,jsons/VE125_randls_23.json,619821,1029845,62,Woman
47,337855,DepthScenes,duration_manipulation_targetAtFixation,jsons/VE125_randls_23.json,http://54.235.29.9/FacialAge/BNav_EC2/DepthDuration/v2_depth_duration_MTurk/v2_DepthDuration_HTML.html#41,41,1600,900,1600,900,9-3-2022,9-25-9,48,depth_duration_stimuli/002663_2014-06-13_15-50-26_094959634447_rgbf000075-resize_1/002663_2014-06-13_15-50-26_094959634447_rgbf000075-resize_1-target.png,125,4.7495,20,2365,102,meters,jsons/VE125_randls_23.json,619821,1029845,62,Woman
48,337855,DepthScenes,duration_manipulation_targetAtFixation,jsons/VE125_randls_23.json,http://54.235.29.9/FacialAge/BNav_EC2/DepthDuration/v2_depth_duration_MTurk/v2_DepthDuration_HTML.html#41,41,1600,900,1600,900,9-3-2022,9-25-9,49,depth_duration_stimuli/000409_2014-06-04_19-23-33_260595134347_rgbf000067-resize_0/000409_2014-06-04_19-23-33_260595134347_rgbf000067-resize_0-target.png,125,3.7335,15,3475,123,meters,jsons/VE125_randls_23.json,619821,1029845,62,Woman
49,337855,DepthScenes,duration_manipulation_targetAtFixation,jsons/VE125_randls_23.json,http://54.235.29.9/FacialAge/BNav_EC2/DepthDuration/v2_depth_duration_MTurk/v2_DepthDuration_HTML.html#41,41,1600,900,1600,900,9-3-2022,9-25-9,50,depth_duration_stimuli/001417_2014-06-19_16-25-36_260595134347_rgbf000115-resize_5/001417_2014-06-19_16-25-36_260595134347_rgbf000115-resize_5-target.png,125,4.6255,25,2627,130,meters,jsons/VE125_randls_23.json,619821,1029845,62,Woman
50,337855,DepthScenes,duration_manipulation_targetAtFixation,jsons/VE125_randls_23.json,http://54.235.29.9/FacialAge/BNav_EC2/DepthDuration/v2_depth_duration_MTurk/v2_DepthDuration_HTML.html#41,41,1600,900,1600,900,9-3-2022,9-25-9,51,depth_duration_stimuli/003081_2014-06-15_15-19-16_094959634447_rgbf000150-resize_1/003081_2014-06-15_15-19-16_094959634447_rgbf000150-resize_1-target.png,125,3.9125,10,2497,124,meters,jsons/VE125_randls_23.json,619821,1029845,62,Woman
51,337855,DepthScenes,duration_manipulation_targetAtFixation,jsons/VE125_randls_23.json,http://54.235.29.9/FacialAge/BNav_EC2/DepthDuration/v2_depth_duration_MTurk/v2_DepthDuration_HTML.html#41,41,1600,900,1600,900,9-3-2022,9-25-9,52,depth_duration_stimuli/002057_2014-06-24_21-00-13_260595134347_rgbf000120-resize_1/002057_2014-06-24_21-00-13_260595134347_rgbf000120-resize_1-target.png,125,2.967,30,3449,139,meters,jsons/VE125_randls_23.json,619821,1029845,62,Woman
52,337855,DepthScenes,duration_manipulation_targetAtFixation,jsons/VE125_randls_23.json,http://54.235.29.9/FacialAge/BNav_EC2/DepthDuration/v2_depth_duration_MTurk/v2_DepthDuration_HTML.html#41,41,1600,900,1600,900,9-3-2022,9-25-9,53,depth_duration_stimuli/000709_2014-06-08_13-51-55_260595134347_rgbf000068-resize_3/000709_2014-06-08_13-51-55_260595134347_rgbf000068-resize_3-target.png,125,1.8030000000000002,30,2382,123,meters,jsons/VE125_randls_23.json,619821,1029845,62,Woman
53,337855,DepthScenes,duration_manipulation_targetAtFixation,jsons/VE125_randls_23.json,http://54.235.29.9/FacialAge/BNav_EC2/DepthDuration/v2_depth_duration_MTurk/v2_DepthDuration_HTML.html#41,41,1600,900,1600,900,9-3-2022,9-25-9,54,depth_duration_stimuli/000788_2014-06-08_22-34-36_260595134347_rgbf000131-resize_1/000788_2014-06-08_22-34-36_260595134347_rgbf000131-resize_1-target.png,125,3.359,15,2677,129,meters,jsons/VE125_randls_23.json,619821,1029845,62,Woman
54,337855,DepthScenes,duration_manipulation_targetAtFixation,jsons/VE125_randls_23.json,http://54.235.29.9/FacialAge/BNav_EC2/DepthDuration/v2_depth_duration_MTurk/v2_DepthDuration_HTML.html#41,41,1600,900,1600,900,9-3-2022,9-25-9,55,depth_duration_stimuli/001235_2014-06-17_16-37-36_260595134347_rgbf000084-resize_4/001235_2014-06-17_16-37-36_260595134347_rgbf000084-resize_4-target.png,125,3.6605,15,2309,119,meters,jsons/VE125_randls_23.json,619821,1029845,62,Woman
55,337855,DepthScenes,duration_manipulation_targetAtFixation,jsons/VE125_randls_23.json,http://54.235.29.9/FacialAge/BNav_EC2/DepthDuration/v2_depth_duration_MTurk/v2_DepthDuration_HTML.html#41,41,1600,900,1600,900,9-3-2022,9-25-9,56,depth_duration_stimuli/000736_2014-06-08_18-24-15_260595134347_rgbf000206-resize_3/000736_2014-06-08_18-24-15_260595134347_rgbf000206-resize_3-target.png,125,3.515,20,2482,123,meters,jsons/VE125_randls_23.json,619821,1029845,62,Woman
56,337855,DepthScenes,duration_manipulation_targetAtFixation,jsons/VE125_randls_23.json,http://54.235.29.9/FacialAge/BNav_EC2/DepthDuration/v2_depth_duration_MTurk/v2_DepthDuration_HTML.html#41,41,1600,900,1600,900,9-3-2022,9-25-9,57,depth_duration_stimuli/000137_2014-05-20_17-04-49_260595134347_rgbf000120-resize_1/000137_2014-05-20_17-04-49_260595134347_rgbf000120-resize_1-target.png,125,3.786,25,2597,143,meters,jsons/VE125_randls_23.json,619821,1029845,62,Woman
57,337855,DepthScenes,duration_manipulation_targetAtFixation,jsons/VE125_randls_23.json,http://54.235.29.9/FacialAge/BNav_EC2/DepthDuration/v2_depth_duration_MTurk/v2_DepthDuration_HTML.html#41,41,1600,900,1600,900,9-3-2022,9-25-9,58,depth_duration_stimuli/000009_2014-05-26_14-32-05_260595134347_rgbf000034-resize_3/000009_2014-05-26_14-32-05_260595134347_rgbf000034-resize_3-target.png,125,3.8715,30,3233,122,meters,jsons/VE125_randls_23.json,619821,1029845,62,Woman
58,337855,DepthScenes,duration_manipulation_targetAtFixation,jsons/VE125_randls_23.json,http://54.235.29.9/FacialAge/BNav_EC2/DepthDuration/v2_depth_duration_MTurk/v2_DepthDuration_HTML.html#41,41,1600,900,1600,900,9-3-2022,9-25-9,59,depth_duration_stimuli/001828_2014-06-26_21-40-03_260595134347_rgbf000024-resize_0/001828_2014-06-26_21-40-03_260595134347_rgbf000024-resize_0-target.png,125,4.8260000000000005,15,2793,139,meters,jsons/VE125_randls_23.json,619821,1029845,62,Woman
59,337855,DepthScenes,duration_manipulation_targetAtFixation,jsons/VE125_randls_23.json,http://54.235.29.9/FacialAge/BNav_EC2/DepthDuration/v2_depth_duration_MTurk/v2_DepthDuration_HTML.html#41,41,1600,900,1600,900,9-3-2022,9-25-9,60,depth_duration_stimuli/002630_2014-06-24_14-47-50_094959634447_rgbf000055-resize_1/002630_2014-06-24_14-47-50_094959634447_rgbf000055-resize_1-target.png,125,3.0095,15,3094,129,meters,jsons/VE125_randls_23.json,619821,1029845,62,Woman
60,337855,DepthScenes,duration_manipulation_targetAtFixation,jsons/VE125_randls_23.json,http://54.235.29.9/FacialAge/BNav_EC2/DepthDuration/v2_depth_duration_MTurk/v2_DepthDuration_HTML.html#41,41,1600,900,1600,900,9-3-2022,9-25-9,61,depth_duration_stimuli/002758_2014-06-22_19-11-20_094959634447_rgbf000128-resize_1/002758_2014-06-22_19-11-20_094959634447_rgbf000128-resize_1-target.png,125,2.555,20,2532,125,meters,jsons/VE125_randls_23.json,619821,1029845,62,Woman
61,337855,DepthScenes,duration_manipulation_targetAtFixation,jsons/VE125_randls_23.json,http://54.235.29.9/FacialAge/BNav_EC2/DepthDuration/v2_depth_duration_MTurk/v2_DepthDuration_HTML.html#41,41,1600,900,1600,900,9-3-2022,9-25-9,62,depth_duration_stimuli/001167_2014-06-17_15-38-07_260595134347_rgbf000108-resize_0/001167_2014-06-17_15-38-07_260595134347_rgbf000108-resize_0-target.png,125,1.8505,15,3664,123,meters,jsons/VE125_randls_23.json,619821,1029845,62,Woman
62,337855,DepthScenes,duration_manipulation_targetAtFixation,jsons/VE125_randls_23.json,http://54.235.29.9/FacialAge/BNav_EC2/DepthDuration/v2_depth_duration_MTurk/v2_DepthDuration_HTML.html#41,41,1600,900,1600,900,9-3-2022,9-25-9,63,depth_duration_stimuli/003587_2014-05-23_16-48-02_094959634447_rgbf002384-resize_2/003587_2014-05-23_16-48-02_094959634447_rgbf002384-resize_2-target.png,125,1.357,20,4396,124,meters,jsons/VE125_randls_23.json,619821,1029845,62,Woman
63,337855,DepthScenes,duration_manipulation_targetAtFixation,jsons/VE125_randls_23.json,http://54.235.29.9/FacialAge/BNav_EC2/DepthDuration/v2_depth_duration_MTurk/v2_DepthDuration_HTML.html#41,41,1600,900,1600,900,9-3-2022,9-25-9,64,depth_duration_stimuli/000506_2014-06-08_23-21-00_260595134347_rgbf000070-resize_7/000506_2014-06-08_23-21-00_260595134347_rgbf000070-resize_7-target.png,125,4.0585,25,22309,70,meters,jsons/VE125_randls_23.json,619821,1029845,62,Woman
64,337855,DepthScenes,duration_manipulation_targetAtFixation,jsons/VE125_randls_23.json,http://54.235.29.9/FacialAge/BNav_EC2/DepthDuration/v2_depth_duration_MTurk/v2_DepthDuration_HTML.html#41,41,1600,900,1600,900,9-3-2022,9-25-9,65,depth_duration_stimuli/003079_2014-06-15_15-18-20_094959634447_rgbf000152-resize_8/003079_2014-06-15_15-18-20_094959634447_rgbf000152-resize_8-target.png,125,2.8775,20,27312,126,meters,jsons/VE125_randls_23.json,619821,1029845,62,Woman
65,337855,DepthScenes,duration_manipulation_targetAtFixation,jsons/VE125_randls_23.json,http://54.235.29.9/FacialAge/BNav_EC2/DepthDuration/v2_depth_duration_MTurk/v2_DepthDuration_HTML.html#41,41,1600,900,1600,900,9-3-2022,9-25-9,66,depth_duration_stimuli/001222_2014-06-17_16-24-06_260595134347_rgbf000073-resize_0/001222_2014-06-17_16-24-06_260595134347_rgbf000073-resize-original.jpg,125,1.4385,25,2607,135,meters,jsons/VE125_randls_23.json,619821,1029845,62,Woman
66,337855,DepthScenes,duration_manipulation_targetAtFixation,jsons/VE125_randls_23.json,http://54.235.29.9/FacialAge/BNav_EC2/DepthDuration/v2_depth_duration_MTurk/v2_DepthDuration_HTML.html#41,41,1600,900,1600,900,9-3-2022,9-25-9,67,depth_duration_stimuli/003292_2014-05-14_21-53-49_094959634447_rgbf000100-resize_2/003292_2014-05-14_21-53-49_094959634447_rgbf000100-resize_2-target.png,125,3.4815,20,2749,123,meters,jsons/VE125_randls_23.json,619821,1029845,62,Woman
67,337855,DepthScenes,duration_manipulation_targetAtFixation,jsons/VE125_randls_23.json,http://54.235.29.9/FacialAge/BNav_EC2/DepthDuration/v2_depth_duration_MTurk/v2_DepthDuration_HTML.html#41,41,1600,900,1600,900,9-3-2022,9-25-9,68,depth_duration_stimuli/002639_2014-06-24_14-51-37_094959634447_rgbf000074-resize_4/002639_2014-06-24_14-51-37_094959634447_rgbf000074-resize_4-target.png,125,4.0375,15,2434,122,meters,jsons/VE125_randls_23.json,619821,1029845,62,Woman
68,337855,DepthScenes,duration_manipulation_targetAtFixation,jsons/VE125_randls_23.json,http://54.235.29.9/FacialAge/BNav_EC2/DepthDuration/v2_depth_duration_MTurk/v2_DepthDuration_HTML.html#41,41,1600,900,1600,900,9-3-2022,9-25-9,69,depth_duration_stimuli/000470_2014-06-09_19-42-40_260595134347_rgbf000094-resize_1/000470_2014-06-09_19-42-40_260595134347_rgbf000094-resize_1-target.png,125,1.831,15,2338,145,meters,jsons/VE125_randls_23.json,619821,1029845,62,Woman
69,337855,DepthScenes,duration_manipulation_targetAtFixation,jsons/VE125_randls_23.json,http://54.235.29.9/FacialAge/BNav_EC2/DepthDuration/v2_depth_duration_MTurk/v2_DepthDuration_HTML.html#41,41,1600,900,1600,900,9-3-2022,9-25-9,70,depth_duration_stimuli/000109_2014-05-14_23-41-52_260595134347_rgbf000035-resize_9/000109_2014-05-14_23-41-52_260595134347_rgbf000035-resize_9-target.png,125,1.3545,20,2441,126,meters,jsons/VE125_randls_23.json,619821,1029845,62,Woman
70,337855,DepthScenes,duration_manipulation_targetAtFixation,jsons/VE125_randls_23.json,http://54.235.29.9/FacialAge/BNav_EC2/DepthDuration/v2_depth_duration_MTurk/v2_DepthDuration_HTML.html#41,41,1600,900,1600,900,9-3-2022,9-25-9,71,depth_duration_stimuli/002964_2014-06-08_17-46-11_094959634447_rgbf000091-resize_4/002964_2014-06-08_17-46-11_094959634447_rgbf000091-resize_4-target.png,125,1.6909999999999998,20,2514,124,meters,jsons/VE125_randls_23.json,619821,1029845,62,Woman
71,337855,DepthScenes,duration_manipulation_targetAtFixation,jsons/VE125_randls_23.json,http://54.235.29.9/FacialAge/BNav_EC2/DepthDuration/v2_depth_duration_MTurk/v2_DepthDuration_HTML.html#41,41,1600,900,1600,900,9-3-2022,9-25-9,72,depth_duration_stimuli/002136_2014-06-25_21-18-03_260595134347_rgbf000109-resize_3/002136_2014-06-25_21-18-03_260595134347_rgbf000109-resize_3-target.png,125,1.9569999999999999,15,2552,138,meters,jsons/VE125_randls_23.json,619821,1029845,62,Woman
72,337855,DepthScenes,duration_manipulation_targetAtFixation,jsons/VE125_randls_23.json,http://54.235.29.9/FacialAge/BNav_EC2/DepthDuration/v2_depth_duration_MTurk/v2_DepthDuration_HTML.html#41,41,1600,900,1600,900,9-3-2022,9-25-9,73,depth_duration_stimuli/000739_2014-06-08_18-45-58_260595134347_rgbf000068-resize_1/000739_2014-06-08_18-45-58_260595134347_rgbf000068-resize_1-target.png,125,3.534,20,2516,126,meters,jsons/VE125_randls_23.json,619821,1029845,62,Woman
73,337855,DepthScenes,duration_manipulation_targetAtFixation,jsons/VE125_randls_23.json,http://54.235.29.9/FacialAge/BNav_EC2/DepthDuration/v2_depth_duration_MTurk/v2_DepthDuration_HTML.html#41,41,1600,900,1600,900,9-3-2022,9-25-9,74,depth_duration_stimuli/000734_2014-06-08_17-39-11_260595134347_rgbf000128-resize_2/000734_2014-06-08_17-39-11_260595134347_rgbf000128-resize_2-target.png,125,4.098,32,2696,132,meters,jsons/VE125_randls_23.json,619821,1029845,62,Woman
74,337855,DepthScenes,duration_manipulation_targetAtFixation,jsons/VE125_randls_23.json,http://54.235.29.9/FacialAge/BNav_EC2/DepthDuration/v2_depth_duration_MTurk/v2_DepthDuration_HTML.html#41,41,1600,900,1600,900,9-3-2022,9-25-9,75,depth_duration_stimuli/000906_2014-06-08_13-35-43_260595134347_rgbf000155-resize_1/000906_2014-06-08_13-35-43_260595134347_rgbf000155-resize_1-target.png,125,2.8489999999999998,32,2595,126,meters,jsons/VE125_randls_23.json,619821,1029845,62,Woman
75,337855,DepthScenes,duration_manipulation_targetAtFixation,jsons/VE125_randls_23.json,http://54.235.29.9/FacialAge/BNav_EC2/DepthDuration/v2_depth_duration_MTurk/v2_DepthDuration_HTML.html#41,41,1600,900,1600,900,9-3-2022,9-25-9,76,depth_duration_stimuli/002805_2014-06-22_19-54-03_094959634447_rgbf000079-resize_1/002805_2014-06-22_19-54-03_094959634447_rgbf000079-resize_1-target.png,125,3.1439999999999997,50,2949,122,meters,jsons/VE125_randls_23.json,619821,1029845,62,Woman
76,337855,DepthScenes,duration_manipulation_targetAtFixation,jsons/VE125_randls_23.json,http://54.235.29.9/FacialAge/BNav_EC2/DepthDuration/v2_depth_duration_MTurk/v2_DepthDuration_HTML.html#41,41,1600,900,1600,900,9-3-2022,9-25-9,77,depth_duration_stimuli/001244_2014-06-17_16-47-45_260595134347_rgbf000030-resize_4/001244_2014-06-17_16-47-45_260595134347_rgbf000030-resize_4-target.png,125,2.0425,25,3263,116,meters,jsons/VE125_randls_23.json,619821,1029845,62,Woman
77,337855,DepthScenes,duration_manipulation_targetAtFixation,jsons/VE125_randls_23.json,http://54.235.29.9/FacialAge/BNav_EC2/DepthDuration/v2_depth_duration_MTurk/v2_DepthDuration_HTML.html#41,41,1600,900,1600,900,9-3-2022,9-25-9,78,depth_duration_stimuli/003495_2014-05-21_16-01-51_094959634447_rgbf000100-resize_3/003495_2014-05-21_16-01-51_094959634447_rgbf000100-resize_3-target.png,125,1.6255,30,2592,79,meters,jsons/VE125_randls_23.json,619821,1029845,62,Woman
78,337855,DepthScenes,duration_manipulation_targetAtFixation,jsons/VE125_randls_23.json,http://54.235.29.9/FacialAge/BNav_EC2/DepthDuration/v2_depth_duration_MTurk/v2_DepthDuration_HTML.html#41,41,1600,900,1600,900,9-3-2022,9-25-9,79,depth_duration_stimuli/001806_2014-06-26_20-50-20_260595134347_rgbf000091-resize_1/001806_2014-06-26_20-50-20_260595134347_rgbf000091-resize_1-target.png,125,2.7305,25,2395,124,meters,jsons/VE125_randls_23.json,619821,1029845,62,Woman
79,337855,DepthScenes,duration_manipulation_targetAtFixation,jsons/VE125_randls_23.json,http://54.235.29.9/FacialAge/BNav_EC2/DepthDuration/v2_depth_duration_MTurk/v2_DepthDuration_HTML.html#41,41,1600,900,1600,900,9-3-2022,9-25-9,80,depth_duration_stimuli/001617_2014-06-20_11-35-32_260595134347_rgbf000066-resize_1/001617_2014-06-20_11-35-32_260595134347_rgbf000066-resize_1-target.png,125,3.7910000000000004,30,2774,117,meters,jsons/VE125_randls_23.json,619821,1029845,62,Woman
80,337855,DepthScenes,duration_manipulation_targetAtFixation,jsons/VE125_randls_23.json,http://54.235.29.9/FacialAge/BNav_EC2/DepthDuration/v2_depth_duration_MTurk/v2_DepthDuration_HTML.html#41,41,1600,900,1600,900,9-3-2022,9-25-9,81,depth_duration_stimuli/000878_2014-06-08_22-52-45_260595134347_rgbf000045-resize_2/000878_2014-06-08_22-52-45_260595134347_rgbf000045-resize_2-target.png,125,2.092,35,2518,125,meters,jsons/VE125_randls_23.json,619821,1029845,62,Woman
81,337855,DepthScenes,duration_manipulation_targetAtFixation,jsons/VE125_randls_23.json,http://54.235.29.9/FacialAge/BNav_EC2/DepthDuration/v2_depth_duration_MTurk/v2_DepthDuration_HTML.html#41,41,1600,900,1600,900,9-3-2022,9-25-9,82,depth_duration_stimuli/002953_2014-06-08_17-32-18_094959634447_rgbf000059-resize_5/002953_2014-06-08_17-32-18_094959634447_rgbf000059-resize_5-target.png,125,1.551,15,2835,127,meters,jsons/VE125_randls_23.json,619821,1029845,62,Woman
82,337855,DepthScenes,duration_manipulation_targetAtFixation,jsons/VE125_randls_23.json,http://54.235.29.9/FacialAge/BNav_EC2/DepthDuration/v2_depth_duration_MTurk/v2_DepthDuration_HTML.html#41,41,1600,900,1600,900,9-3-2022,9-25-9,83,depth_duration_stimuli/000773_2014-06-08_22-24-54_260595134347_rgbf000093-resize_1/000773_2014-06-08_22-24-54_260595134347_rgbf000093-resize_1-target.png,125,4.973,12,3369,122,meters,jsons/VE125_randls_23.json,619821,1029845,62,Woman
83,337855,DepthScenes,duration_manipulation_targetAtFixation,jsons/VE125_randls_23.json,http://54.235.29.9/FacialAge/BNav_EC2/DepthDuration/v2_depth_duration_MTurk/v2_DepthDuration_HTML.html#41,41,1600,900,1600,900,9-3-2022,9-25-9,84,depth_duration_stimuli/002414_2014-06-28_20-24-58_260595134347_rgbf000067-resize_4/002414_2014-06-28_20-24-58_260595134347_rgbf000067-resize_4-target.png,125,4.363,25,2476,111,meters,jsons/VE125_randls_23.json,619821,1029845,62,Woman
84,337855,DepthScenes,duration_manipulation_targetAtFixation,jsons/VE125_randls_23.json,http://54.235.29.9/FacialAge/BNav_EC2/DepthDuration/v2_depth_duration_MTurk/v2_DepthDuration_HTML.html#41,41,1600,900,1600,900,9-3-2022,9-25-9,85,depth_duration_stimuli/002039_2014-06-24_20-22-38_260595134347_rgbf000084-resize_1/002039_2014-06-24_20-22-38_260595134347_rgbf000084-resize_1-target.png,125,4.408,25,2807,122,meters,jsons/VE125_randls_23.json,619821,1029845,62,Woman
85,337855,DepthScenes,duration_manipulation_targetAtFixation,jsons/VE125_randls_23.json,http://54.235.29.9/FacialAge/BNav_EC2/DepthDuration/v2_depth_duration_MTurk/v2_DepthDuration_HTML.html#41,41,1600,900,1600,900,9-3-2022,9-25-9,86,depth_duration_stimuli/002103_2014-06-25_20-00-40_260595134347_rgbf000049-resize_0/002103_2014-06-25_20-00-40_260595134347_rgbf000049-resize_0-target.png,125,4.105,23,2644,124,meters,jsons/VE125_randls_23.json,619821,1029845,62,Woman
86,337855,DepthScenes,duration_manipulation_targetAtFixation,jsons/VE125_randls_23.json,http://54.235.29.9/FacialAge/BNav_EC2/DepthDuration/v2_depth_duration_MTurk/v2_DepthDuration_HTML.html#41,41,1600,900,1600,900,9-3-2022,9-25-9,87,depth_duration_stimuli/002509_2014-06-24_13-19-22_094959634447_rgbf000077-resize_0/002509_2014-06-24_13-19-22_094959634447_rgbf000077-resize_0-target.png,125,1.3065,15,2603,124,meters,jsons/VE125_randls_23.json,619821,1029845,62,Woman
87,337855,DepthScenes,duration_manipulation_targetAtFixation,jsons/VE125_randls_23.json,http://54.235.29.9/FacialAge/BNav_EC2/DepthDuration/v2_depth_duration_MTurk/v2_DepthDuration_HTML.html#41,41,1600,900,1600,900,9-3-2022,9-25-9,88,depth_duration_stimuli/003338_2014-05-20_11-01-23_094959634447_rgbf000051-resize_6/003338_2014-05-20_11-01-23_094959634447_rgbf000051-resize_6-target.png,125,1.693,20,2400,116,meters,jsons/VE125_randls_23.json,619821,1029845,62,Woman
88,337855,DepthScenes,duration_manipulation_targetAtFixation,jsons/VE125_randls_23.json,http://54.235.29.9/FacialAge/BNav_EC2/DepthDuration/v2_depth_duration_MTurk/v2_DepthDuration_HTML.html#41,41,1600,900,1600,900,9-3-2022,9-25-9,89,depth_duration_stimuli/002725_2014-06-22_11-47-51_094959634447_rgbf000070-resize_1/002725_2014-06-22_11-47-51_094959634447_rgbf000070-resize_1-target.png,125,2.195,10,2844,124,meters,jsons/VE125_randls_23.json,619821,1029845,62,Woman
89,337855,DepthScenes,duration_manipulation_targetAtFixation,jsons/VE125_randls_23.json,http://54.235.29.9/FacialAge/BNav_EC2/DepthDuration/v2_depth_duration_MTurk/v2_DepthDuration_HTML.html#41,41,1600,900,1600,900,9-3-2022,9-25-9,90,depth_duration_stimuli/002344_2014-06-28_20-06-29_260595134347_rgbf000030-resize_1/002344_2014-06-28_20-06-29_260595134347_rgbf000030-resize_1-target.png,125,1.5795,25,2591,115,meters,jsons/VE125_randls_23.json,619821,1029845,62,Woman
90,337855,DepthScenes,duration_manipulation_targetAtFixation,jsons/VE125_randls_23.json,http://54.235.29.9/FacialAge/BNav_EC2/DepthDuration/v2_depth_duration_MTurk/v2_DepthDuration_HTML.html#41,41,1600,900,1600,900,9-3-2022,9-25-9,91,depth_duration_stimuli/002445_2014-06-28_20-32-16_260595134347_rgbf000029-resize_4/002445_2014-06-28_20-32-16_260595134347_rgbf000029-resize_4-target.png,125,2.5315,10,2667,133,meters,jsons/VE125_randls_23.json,619821,1029845,62,Woman
91,337855,DepthScenes,duration_manipulation_targetAtFixation,jsons/VE125_randls_23.json,http://54.235.29.9/FacialAge/BNav_EC2/DepthDuration/v2_depth_duration_MTurk/v2_DepthDuration_HTML.html#41,41,1600,900,1600,900,9-3-2022,9-25-9,92,depth_duration_stimuli/000780_2014-06-08_22-28-29_260595134347_rgbf000126-resize_1/000780_2014-06-08_22-28-29_260595134347_rgbf000126-resize_1-target.png,125,3.3825,25,2642,127,meters,jsons/VE125_randls_23.json,619821,1029845,62,Woman
92,337855,DepthScenes,duration_manipulation_targetAtFixation,jsons/VE125_randls_23.json,http://54.235.29.9/FacialAge/BNav_EC2/DepthDuration/v2_depth_duration_MTurk/v2_DepthDuration_HTML.html#41,41,1600,900,1600,900,9-3-2022,9-25-9,93,depth_duration_stimuli/001158_2014-06-17_15-32-16_260595134347_rgbf000138-resize_2/001158_2014-06-17_15-32-16_260595134347_rgbf000138-resize_2-target.png,125,4.5315,15,2742,122,meters,jsons/VE125_randls_23.json,619821,1029845,62,Woman
93,337855,DepthScenes,duration_manipulation_targetAtFixation,jsons/VE125_randls_23.json,http://54.235.29.9/FacialAge/BNav_EC2/DepthDuration/v2_depth_duration_MTurk/v2_DepthDuration_HTML.html#41,41,1600,900,1600,900,9-3-2022,9-25-9,94,depth_duration_stimuli/000556_2014-06-09_22-42-56_260595134347_rgbf000214-resize_1/000556_2014-06-09_22-42-56_260595134347_rgbf000214-resize_1-target.png,125,4.8415,25,2584,4,meters,jsons/VE125_randls_23.json,619821,1029845,62,Woman
94,337855,DepthScenes,duration_manipulation_targetAtFixation,jsons/VE125_randls_23.json,http://54.235.29.9/FacialAge/BNav_EC2/DepthDuration/v2_depth_duration_MTurk/v2_DepthDuration_HTML.html#41,41,1600,900,1600,900,9-3-2022,9-25-9,95,depth_duration_stimuli/002375_2014-06-28_20-13-44_260595134347_rgbf000032-resize_1/002375_2014-06-28_20-13-44_260595134347_rgbf000032-resize_1-target.png,125,4.0175,25,2495,115,meters,jsons/VE125_randls_23.json,619821,1029845,62,Woman
95,337855,DepthScenes,duration_manipulation_targetAtFixation,jsons/VE125_randls_23.json,http://54.235.29.9/FacialAge/BNav_EC2/DepthDuration/v2_depth_duration_MTurk/v2_DepthDuration_HTML.html#41,41,1600,900,1600,900,9-3-2022,9-25-9,96,depth_duration_stimuli/002657_2014-06-13_15-29-54_094959634447_rgbf000150-resize_1/002657_2014-06-13_15-29-54_094959634447_rgbf000150-resize_1-target.png,125,4.919,15,2463,125,meters,jsons/VE125_randls_23.json,619821,1029845,62,Woman
96,337855,DepthScenes,duration_manipulation_targetAtFixation,jsons/VE125_randls_23.json,http://54.235.29.9/FacialAge/BNav_EC2/DepthDuration/v2_depth_duration_MTurk/v2_DepthDuration_HTML.html#41,41,1600,900,1600,900,9-3-2022,9-25-9,97,depth_duration_stimuli/000493_2014-06-09_21-01-18_260595134347_rgbf000196-resize_3/000493_2014-06-09_21-01-18_260595134347_rgbf000196-resize_3-target.png,125,3.44,25,2480,110,meters,jsons/VE125_randls_23.json,619821,1029845,62,Woman
97,337855,DepthScenes,duration_manipulation_targetAtFixation,jsons/VE125_randls_23.json,http://54.235.29.9/FacialAge/BNav_EC2/DepthDuration/v2_depth_duration_MTurk/v2_DepthDuration_HTML.html#41,41,1600,900,1600,900,9-3-2022,9-25-9,98,depth_duration_stimuli/000191_2014-05-12_17-07-38_260595134347_rgbf000199-resize_0/000191_2014-05-12_17-07-38_260595134347_rgbf000199-resize_0-target.png,125,3.7995,40,3724,126,meters,jsons/VE125_randls_23.json,619821,1029845,62,Woman
98,337855,DepthScenes,duration_manipulation_targetAtFixation,jsons/VE125_randls_23.json,http://54.235.29.9/FacialAge/BNav_EC2/DepthDuration/v2_depth_duration_MTurk/v2_DepthDuration_HTML.html#41,41,1600,900,1600,900,9-3-2022,9-25-9,99,depth_duration_stimuli/001540_2014-06-20_17-01-05_260595134347_rgbf000086-resize_2/001540_2014-06-20_17-01-05_260595134347_rgbf000086-resize-original.jpg,125,1.459,23,3627,87,meters,jsons/VE125_randls_23.json,619821,1029845,62,Woman
99,337855,DepthScenes,duration_manipulation_targetAtFixation,jsons/VE125_randls_23.json,http://54.235.29.9/FacialAge/BNav_EC2/DepthDuration/v2_depth_duration_MTurk/v2_DepthDuration_HTML.html#41,41,1600,900,1600,900,9-3-2022,9-25-9,100,depth_duration_stimuli/001175_2014-06-17_15-45-55_260595134347_rgbf000129-resize_4/001175_2014-06-17_15-45-55_260595134347_rgbf000129-resize_4-target.png,125,4.255,15,2613,124,meters,jsons/VE125_randls_23.json,619821,1029845,62,Woman
100,337855,DepthScenes,duration_manipulation_targetAtFixation,jsons/VE125_randls_23.json,http://54.235.29.9/FacialAge/BNav_EC2/DepthDuration/v2_depth_duration_MTurk/v2_DepthDuration_HTML.html#41,41,1600,900,1600,900,9-3-2022,9-25-9,101,depth_duration_stimuli/003490_2014-05-21_15-50-11_094959634447_rgbf000101-resize_3/003490_2014-05-21_15-50-11_094959634447_rgbf000101-resize_3-target.png,125,3.6445,25,4120,133,meters,jsons/VE125_randls_23.json,619821,1029845,62,Woman
101,337855,DepthScenes,duration_manipulation_targetAtFixation,jsons/VE125_randls_23.json,http://54.235.29.9/FacialAge/BNav_EC2/DepthDuration/v2_depth_duration_MTurk/v2_DepthDuration_HTML.html#41,41,1600,900,1600,900,9-3-2022,9-25-9,102,depth_duration_stimuli/000469_2014-06-09_19-42-10_260595134347_rgbf000081-resize_1/000469_2014-06-09_19-42-10_260595134347_rgbf000081-resize_1-target.png,125,1.652,15,3181,120,meters,jsons/VE125_randls_23.json,619821,1029845,62,Woman
102,337855,DepthScenes,duration_manipulation_targetAtFixation,jsons/VE125_randls_23.json,http://54.235.29.9/FacialAge/BNav_EC2/DepthDuration/v2_depth_duration_MTurk/v2_DepthDuration_HTML.html#41,41,1600,900,1600,900,9-3-2022,9-25-9,103,depth_duration_stimuli/000483_2014-06-09_20-41-45_260595134347_rgbf000116-resize_4/000483_2014-06-09_20-41-45_260595134347_rgbf000116-resize_4-target.png,125,1.337,25,2742,107,meters,jsons/VE125_randls_23.json,619821,1029845,62,Woman
103,337855,DepthScenes,duration_manipulation_targetAtFixation,jsons/VE125_randls_23.json,http://54.235.29.9/FacialAge/BNav_EC2/DepthDuration/v2_depth_duration_MTurk/v2_DepthDuration_HTML.html#41,41,1600,900,1600,900,9-3-2022,9-25-9,104,depth_duration_stimuli/000447_2014-06-08_16-15-46_260595134347_rgbf000130-resize_1/000447_2014-06-08_16-15-46_260595134347_rgbf000130-resize_1-target.png,125,4.479,25,2545,121,meters,jsons/VE125_randls_23.json,619821,1029845,62,Woman
104,337855,DepthScenes,duration_manipulation_targetAtFixation,jsons/VE125_randls_23.json,http://54.235.29.9/FacialAge/BNav_EC2/DepthDuration/v2_depth_duration_MTurk/v2_DepthDuration_HTML.html#41,41,1600,900,1600,900,9-3-2022,9-25-9,105,depth_duration_stimuli/001447_2014-06-19_17-00-32_260595134347_rgbf000082-resize_5/001447_2014-06-19_17-00-32_260595134347_rgbf000082-resize_5-target.png,125,4.13775,25,4745,154,meters,jsons/VE125_randls_23.json,619821,1029845,62,Woman
105,337855,DepthScenes,duration_manipulation_targetAtFixation,jsons/VE125_randls_23.json,http://54.235.29.9/FacialAge/BNav_EC2/DepthDuration/v2_depth_duration_MTurk/v2_DepthDuration_HTML.html#41,41,1600,900,1600,900,9-3-2022,9-25-9,106,depth_duration_stimuli/000929_2014-06-09_16-33-19_260595134347_rgbf000139-resize_0/000929_2014-06-09_16-33-19_260595134347_rgbf000139-resize_0-target.png,125,2.8680000000000003,15,3844,127,meters,jsons/VE125_randls_23.json,619821,1029845,62,Woman
106,337855,DepthScenes,duration_manipulation_targetAtFixation,jsons/VE125_randls_23.json,http://54.235.29.9/FacialAge/BNav_EC2/DepthDuration/v2_depth_duration_MTurk/v2_DepthDuration_HTML.html#41,41,1600,900,1600,900,9-3-2022,9-25-9,107,depth_duration_stimuli/000457_2014-06-08_16-52-43_260595134347_rgbf000199-resize_1/000457_2014-06-08_16-52-43_260595134347_rgbf000199-resize_1-target.png,125,3.6489999999999996,25,2485,125,meters,jsons/VE125_randls_23.json,619821,1029845,62,Woman
107,337855,DepthScenes,duration_manipulation_targetAtFixation,jsons/VE125_randls_23.json,http://54.235.29.9/FacialAge/BNav_EC2/DepthDuration/v2_depth_duration_MTurk/v2_DepthDuration_HTML.html#41,41,1600,900,1600,900,9-3-2022,9-25-9,108,depth_duration_stimuli/001810_2014-06-26_20-51-35_260595134347_rgbf000040-resize_3/001810_2014-06-26_20-51-35_260595134347_rgbf000040-resize_3-target.png,125,2.2525,15,2311,105,meters,jsons/VE125_randls_23.json,619821,1029845,62,Woman
108,337855,DepthScenes,duration_manipulation_targetAtFixation,jsons/VE125_randls_23.json,http://54.235.29.9/FacialAge/BNav_EC2/DepthDuration/v2_depth_duration_MTurk/v2_DepthDuration_HTML.html#41,41,1600,900,1600,900,9-3-2022,9-25-9,109,depth_duration_stimuli/003010_2014-06-15_12-54-35_094959634447_rgbf000112-resize_0/003010_2014-06-15_12-54-35_094959634447_rgbf000112-resize_0-target.png,125,3.1185,25,4277,125,meters,jsons/VE125_randls_23.json,619821,1029845,62,Woman
109,337855,DepthScenes,duration_manipulation_targetAtFixation,jsons/VE125_randls_23.json,http://54.235.29.9/FacialAge/BNav_EC2/DepthDuration/v2_depth_duration_MTurk/v2_DepthDuration_HTML.html#41,41,1600,900,1600,900,9-3-2022,9-25-9,110,depth_duration_stimuli/002784_2014-06-22_19-26-30_094959634447_rgbf000083-resize_3/002784_2014-06-22_19-26-30_094959634447_rgbf000083-resize_3-target.png,125,1.8046666666667,36,3113,91,meters,jsons/VE125_randls_23.json,619821,1029845,62,Woman
110,337855,DepthScenes,duration_manipulation_targetAtFixation,jsons/VE125_randls_23.json,http://54.235.29.9/FacialAge/BNav_EC2/DepthDuration/v2_depth_duration_MTurk/v2_DepthDuration_HTML.html#41,41,1600,900,1600,900,9-3-2022,9-25-9,111,depth_duration_stimuli/001100_2014-06-15_17-46-26_260595134347_rgbf000225-resize_2/001100_2014-06-15_17-46-26_260595134347_rgbf000225-resize_2-target.png,125,2.24,10,2760,118,meters,jsons/VE125_randls_23.json,619821,1029845,62,Woman
111,337855,DepthScenes,duration_manipulation_targetAtFixation,jsons/VE125_randls_23.json,http://54.235.29.9/FacialAge/BNav_EC2/DepthDuration/v2_depth_duration_MTurk/v2_DepthDuration_HTML.html#41,41,1600,900,1600,900,9-3-2022,9-25-9,112,depth_duration_stimuli/000810_2014-06-08_17-20-01_260595134347_rgbf000105-resize_0/000810_2014-06-08_17-20-01_260595134347_rgbf000105-resize_0-target.png,125,1.4865,25,2857,119,meters,jsons/VE125_randls_23.json,619821,1029845,62,Woman
112,337855,DepthScenes,duration_manipulation_targetAtFixation,jsons/VE125_randls_23.json,http://54.235.29.9/FacialAge/BNav_EC2/DepthDuration/v2_depth_duration_MTurk/v2_DepthDuration_HTML.html#41,41,1600,900,1600,900,9-3-2022,9-25-9,113,depth_duration_stimuli/001214_2014-06-17_16-13-55_260595134347_rgbf000111-resize_0/001214_2014-06-17_16-13-55_260595134347_rgbf000111-resize_0-target.png,125,2.6505,25,2738,110,meters,jsons/VE125_randls_23.json,619821,1029845,62,Woman
113,337855,DepthScenes,duration_manipulation_targetAtFixation,jsons/VE125_randls_23.json,http://54.235.29.9/FacialAge/BNav_EC2/DepthDuration/v2_depth_duration_MTurk/v2_DepthDuration_HTML.html#41,41,1600,900,1600,900,9-3-2022,9-25-9,114,depth_duration_stimuli/000692_2014-06-08_13-09-42_260595134347_rgbf000199-resize_2/000692_2014-06-08_13-09-42_260595134347_rgbf000199-resize_2-target.png,125,3.661,20,2579,114,meters,jsons/VE125_randls_23.json,619821,1029845,62,Woman
114,337855,DepthScenes,duration_manipulation_targetAtFixation,jsons/VE125_randls_23.json,http://54.235.29.9/FacialAge/BNav_EC2/DepthDuration/v2_depth_duration_MTurk/v2_DepthDuration_HTML.html#41,41,1600,900,1600,900,9-3-2022,9-25-9,115,depth_duration_stimuli/001094_2014-06-15_17-36-00_260595134347_rgbf000205-resize_0/001094_2014-06-15_17-36-00_260595134347_rgbf000205-resize_0-target.png,125,4.2175,25,2482,127,meters,jsons/VE125_randls_23.json,619821,1029845,62,Woman
115,337855,DepthScenes,duration_manipulation_targetAtFixation,jsons/VE125_randls_23.json,http://54.235.29.9/FacialAge/BNav_EC2/DepthDuration/v2_depth_duration_MTurk/v2_DepthDuration_HTML.html#41,41,1600,900,1600,900,9-3-2022,9-25-9,116,depth_duration_stimuli/001170_2014-06-17_15-43-44_260595134347_rgbf000096-resize_6/001170_2014-06-17_15-43-44_260595134347_rgbf000096-resize-original.jpg,125,1.1909999999999998,23,3044,122,meters,jsons/VE125_randls_23.json,619821,1029845,62,Woman
116,337855,DepthScenes,duration_manipulation_targetAtFixation,jsons/VE125_randls_23.json,http://54.235.29.9/FacialAge/BNav_EC2/DepthDuration/v2_depth_duration_MTurk/v2_DepthDuration_HTML.html#41,41,1600,900,1600,900,9-3-2022,9-25-9,117,depth_duration_stimuli/001133_2014-06-17_14-49-16_260595134347_rgbf000100-resize_0/001133_2014-06-17_14-49-16_260595134347_rgbf000100-resize_0-target.png,125,4.2115,26,2520,118,meters,jsons/VE125_randls_23.json,619821,1029845,62,Woman
117,337855,DepthScenes,duration_manipulation_targetAtFixation,jsons/VE125_randls_23.json,http://54.235.29.9/FacialAge/BNav_EC2/DepthDuration/v2_depth_duration_MTurk/v2_DepthDuration_HTML.html#41,41,1600,900,1600,900,9-3-2022,9-25-9,118,depth_duration_stimuli/001132_2014-06-17_14-48-54_260595134347_rgbf000100-resize_2/001132_2014-06-17_14-48-54_260595134347_rgbf000100-resize_2-target.png,125,3.753,20,2509,159,meters,jsons/VE125_randls_23.json,619821,1029845,62,Woman
118,337855,DepthScenes,duration_manipulation_targetAtFixation,jsons/VE125_randls_23.json,http://54.235.29.9/FacialAge/BNav_EC2/DepthDuration/v2_depth_duration_MTurk/v2_DepthDuration_HTML.html#41,41,1600,900,1600,900,9-3-2022,9-25-9,119,depth_duration_stimuli/001016_2014-06-09_16-16-10_260595134347_rgbf000112-resize_5/001016_2014-06-09_16-16-10_260595134347_rgbf000112-resize_5-target.png,125,1.6565,25,2877,124,meters,jsons/VE125_randls_23.json,619821,1029845,62,Woman
119,337855,DepthScenes,duration_manipulation_targetAtFixation,jsons/VE125_randls_23.json,http://54.235.29.9/FacialAge/BNav_EC2/DepthDuration/v2_depth_duration_MTurk/v2_DepthDuration_HTML.html#41,41,1600,900,1600,900,9-3-2022,9-25-9,120,depth_duration_stimuli/002340_2014-06-28_20-05-46_260595134347_rgbf000113-resize_0/002340_2014-06-28_20-05-46_260595134347_rgbf000113-resize_0-target.png,125,2.4735,10,3047,114,meters,jsons/VE125_randls_23.json,619821,1029845,62,Woman
120,337855,DepthScenes,duration_manipulation_targetAtFixation,jsons/VE125_randls_23.json,http://54.235.29.9/FacialAge/BNav_EC2/DepthDuration/v2_depth_duration_MTurk/v2_DepthDuration_HTML.html#41,41,1600,900,1600,900,9-3-2022,9-25-9,121,depth_duration_stimuli/002279_2014-06-28_18-55-32_260595134347_rgbf000040-resize_5/002279_2014-06-28_18-55-32_260595134347_rgbf000040-resize_5-target.png,125,1.5043333333333,15,3188,123,meters,jsons/VE125_randls_23.json,619821,1029845,62,Woman
121,337855,DepthScenes,duration_manipulation_targetAtFixation,jsons/VE125_randls_23.json,http://54.235.29.9/FacialAge/BNav_EC2/DepthDuration/v2_depth_duration_MTurk/v2_DepthDuration_HTML.html#41,41,1600,900,1600,900,9-3-2022,9-25-9,122,depth_duration_stimuli/000635_2014-06-08_16-38-42_260595134347_rgbf000106-resize_1/000635_2014-06-08_16-38-42_260595134347_rgbf000106-resize_1-target.png,125,2.074,15,2526,121,meters,jsons/VE125_randls_23.json,619821,1029845,62,Woman
122,337855,DepthScenes,duration_manipulation_targetAtFixation,jsons/VE125_randls_23.json,http://54.235.29.9/FacialAge/BNav_EC2/DepthDuration/v2_depth_duration_MTurk/v2_DepthDuration_HTML.html#41,41,1600,900,1600,900,9-3-2022,9-25-9,123,depth_duration_stimuli/001059_2014-06-08_21-53-27_260595134347_rgbf000061-resize_4/001059_2014-06-08_21-53-27_260595134347_rgbf000061-resize_4-target.png,125,2.4185,20,2587,130,meters,jsons/VE125_randls_23.json,619821,1029845,62,Woman
123,337855,DepthScenes,duration_manipulation_targetAtFixation,jsons/VE125_randls_23.json,http://54.235.29.9/FacialAge/BNav_EC2/DepthDuration/v2_depth_duration_MTurk/v2_DepthDuration_HTML.html#41,41,1600,900,1600,900,9-3-2022,9-25-9,124,depth_duration_stimuli/001032_2014-06-08_13-23-17_260595134347_rgbf000021-resize_3/001032_2014-06-08_13-23-17_260595134347_rgbf000021-resize_3-target.png,125,3.2725,25,2359,128,meters,jsons/VE125_randls_23.json,619821,1029845,62,Woman
124,337855,DepthScenes,duration_manipulation_targetAtFixation,jsons/VE125_randls_23.json,http://54.235.29.9/FacialAge/BNav_EC2/DepthDuration/v2_depth_duration_MTurk/v2_DepthDuration_HTML.html#41,41,1600,900,1600,900,9-3-2022,9-25-9,125,depth_duration_stimuli/001066_2014-06-08_22-03-20_260595134347_rgbf000066-resize_4/001066_2014-06-08_22-03-20_260595134347_rgbf000066-resize_4-target.png,125,4.2330000000000005,25,2960,119,meters,jsons/VE125_randls_23.json,619821,1029845,62,Woman
125,337855,DepthScenes,duration_manipulation_targetAtFixation,jsons/VE125_randls_23.json,http://54.235.29.9/FacialAge/BNav_EC2/DepthDuration/v2_depth_duration_MTurk/v2_DepthDuration_HTML.html#41,41,1600,900,1600,900,9-3-2022,9-25-9,126,depth_duration_stimuli/000742_2014-06-08_18-48-09_260595134347_rgbf000164-resize_4/000742_2014-06-08_18-48-09_260595134347_rgbf000164-resize_4-target.png,125,4.632,30,2400,124,meters,jsons/VE125_randls_23.json,619821,1029845,62,Woman
126,337855,DepthScenes,duration_manipulation_targetAtFixation,jsons/VE125_randls_23.json,http://54.235.29.9/FacialAge/BNav_EC2/DepthDuration/v2_depth_duration_MTurk/v2_DepthDuration_HTML.html#41,41,1600,900,1600,900,9-3-2022,9-25-9,127,depth_duration_stimuli/000368_2014-06-09_15-53-01_260595134347_rgbf000155-resize_2/000368_2014-06-09_15-53-01_260595134347_rgbf000155-resize_2-target.png,125,2.4859999999999998,30,4299,125,meters,jsons/VE125_randls_23.json,619821,1029845,62,Woman
127,337855,DepthScenes,duration_manipulation_targetAtFixation,jsons/VE125_randls_23.json,http://54.235.29.9/FacialAge/BNav_EC2/DepthDuration/v2_depth_duration_MTurk/v2_DepthDuration_HTML.html#41,41,1600,900,1600,900,9-3-2022,9-25-9,128,depth_duration_stimuli/002678_2014-06-13_16-15-32_094959634447_rgbf000151-resize_6/002678_2014-06-13_16-15-32_094959634447_rgbf000151-resize_6-target.png,125,2.1830000000000003,15,3656,122,meters,jsons/VE125_randls_23.json,619821,1029845,62,Woman
128,337855,DepthScenes,duration_manipulation_targetAtFixation,jsons/VE125_randls_23.json,http://54.235.29.9/FacialAge/BNav_EC2/DepthDuration/v2_depth_duration_MTurk/v2_DepthDuration_HTML.html#41,41,1600,900,1600,900,9-3-2022,9-25-9,129,depth_duration_stimuli/000758_2014-06-08_22-05-08_260595134347_rgbf000085-resize_0/000758_2014-06-08_22-05-08_260595134347_rgbf000085-resize_0-target.png,125,3.3810000000000002,12,2763,123,meters,jsons/VE125_randls_23.json,619821,1029845,62,Woman
129,337855,DepthScenes,duration_manipulation_targetAtFixation,jsons/VE125_randls_23.json,http://54.235.29.9/FacialAge/BNav_EC2/DepthDuration/v2_depth_duration_MTurk/v2_DepthDuration_HTML.html#41,41,1600,900,1600,900,9-3-2022,9-25-9,130,depth_duration_stimuli/000854_2014-06-09_19-43-13_260595134347_rgbf000066-resize_0/000854_2014-06-09_19-43-13_260595134347_rgbf000066-resize_0-target.png,125,3.068,10,2295,123,meters,jsons/VE125_randls_23.json,619821,1029845,62,Woman
130,337855,DepthScenes,duration_manipulation_targetAtFixation,jsons/VE125_randls_23.json,http://54.235.29.9/FacialAge/BNav_EC2/DepthDuration/v2_depth_duration_MTurk/v2_DepthDuration_HTML.html#41,41,1600,900,1600,900,9-3-2022,9-25-9,131,depth_duration_stimuli/003492_2014-05-21_15-50-55_094959634447_rgbf000828-resize_1/003492_2014-05-21_15-50-55_094959634447_rgbf000828-resize_1-target.png,125,4.06875,20,3949,103,meters,jsons/VE125_randls_23.json,619821,1029845,62,Woman
131,337855,DepthScenes,duration_manipulation_targetAtFixation,jsons/VE125_randls_23.json,http://54.235.29.9/FacialAge/BNav_EC2/DepthDuration/v2_depth_duration_MTurk/v2_DepthDuration_HTML.html#41,41,1600,900,1600,900,9-3-2022,9-25-9,132,depth_duration_stimuli/002568_2014-06-24_13-59-21_094959634447_rgbf000062-resize_4/002568_2014-06-24_13-59-21_094959634447_rgbf000062-resize_4-target.png,125,3.015,10,2560,147,meters,jsons/VE125_randls_23.json,619821,1029845,62,Woman
132,337855,DepthScenes,duration_manipulation_targetAtFixation,jsons/VE125_randls_23.json,http://54.235.29.9/FacialAge/BNav_EC2/DepthDuration/v2_depth_duration_MTurk/v2_DepthDuration_HTML.html#41,41,1600,900,1600,900,9-3-2022,9-25-9,133,depth_duration_stimuli/002788_2014-06-22_19-36-03_094959634447_rgbf000088-resize_2/002788_2014-06-22_19-36-03_094959634447_rgbf000088-resize_2-target.png,125,1.6465,12,2754,116,meters,jsons/VE125_randls_23.json,619821,1029845,62,Woman
133,337855,DepthScenes,duration_manipulation_targetAtFixation,jsons/VE125_randls_23.json,http://54.235.29.9/FacialAge/BNav_EC2/DepthDuration/v2_depth_duration_MTurk/v2_DepthDuration_HTML.html#41,41,1600,900,1600,900,9-3-2022,9-25-9,134,depth_duration_stimuli/000749_2014-06-08_21-55-06_260595134347_rgbf000070-resize_2/000749_2014-06-08_21-55-06_260595134347_rgbf000070-resize_2-target.png,125,2.331,20,2143,115,meters,jsons/VE125_randls_23.json,619821,1029845,62,Woman
134,337855,DepthScenes,duration_manipulation_targetAtFixation,jsons/VE125_randls_23.json,http://54.235.29.9/FacialAge/BNav_EC2/DepthDuration/v2_depth_duration_MTurk/v2_DepthDuration_HTML.html#41,41,1600,900,1600,900,9-3-2022,9-25-9,135,depth_duration_stimuli/002072_2014-06-24_21-48-06_260595134347_rgbf000115-resize_0/002072_2014-06-24_21-48-06_260595134347_rgbf000115-resize-original.jpg,125,4.702,23,2616,90,meters,jsons/VE125_randls_23.json,619821,1029845,62,Woman
135,337855,DepthScenes,duration_manipulation_targetAtFixation,jsons/VE125_randls_23.json,http://54.235.29.9/FacialAge/BNav_EC2/DepthDuration/v2_depth_duration_MTurk/v2_DepthDuration_HTML.html#41,41,1600,900,1600,900,9-3-2022,9-25-9,136,depth_duration_stimuli/002570_2014-06-24_13-59-54_094959634447_rgbf000059-resize_0/002570_2014-06-24_13-59-54_094959634447_rgbf000059-resize_0-target.png,125,4.037,23,2496,92,meters,jsons/VE125_randls_23.json,619821,1029845,62,Woman
136,337855,DepthScenes,duration_manipulation_targetAtFixation,jsons/VE125_randls_23.json,http://54.235.29.9/FacialAge/BNav_EC2/DepthDuration/v2_depth_duration_MTurk/v2_DepthDuration_HTML.html#41,41,1600,900,1600,900,9-3-2022,9-25-9,137,depth_duration_stimuli/002467_2014-06-28_20-38-07_260595134347_rgbf000026-resize_2/002467_2014-06-28_20-38-07_260595134347_rgbf000026-resize_2-target.png,125,4.742,10,2659,132,meters,jsons/VE125_randls_23.json,619821,1029845,62,Woman
137,337855,DepthScenes,duration_manipulation_targetAtFixation,jsons/VE125_randls_23.json,http://54.235.29.9/FacialAge/BNav_EC2/DepthDuration/v2_depth_duration_MTurk/v2_DepthDuration_HTML.html#41,41,1600,900,1600,900,9-3-2022,9-25-9,138,depth_duration_stimuli/001555_2014-06-20_17-12-10_260595134347_rgbf000065-resize_4/001555_2014-06-20_17-12-10_260595134347_rgbf000065-resize_4-target.png,125,1.633,10,2353,110,meters,jsons/VE125_randls_23.json,619821,1029845,62,Woman
138,337855,DepthScenes,duration_manipulation_targetAtFixation,jsons/VE125_randls_23.json,http://54.235.29.9/FacialAge/BNav_EC2/DepthDuration/v2_depth_duration_MTurk/v2_DepthDuration_HTML.html#41,41,1600,900,1600,900,9-3-2022,9-25-9,139,depth_duration_stimuli/000103_2014-05-14_22-01-17_260595134347_rgbf000152-resize_5/000103_2014-05-14_22-01-17_260595134347_rgbf000152-resize_5-target.png,125,1.993,23,3017,127,meters,jsons/VE125_randls_23.json,619821,1029845,62,Woman
139,337855,DepthScenes,duration_manipulation_targetAtFixation,jsons/VE125_randls_23.json,http://54.235.29.9/FacialAge/BNav_EC2/DepthDuration/v2_depth_duration_MTurk/v2_DepthDuration_HTML.html#41,41,1600,900,1600,900,9-3-2022,9-25-9,140,depth_duration_stimuli/001164_2014-06-17_15-35-46_260595134347_rgbf000085-resize_3/001164_2014-06-17_15-35-46_260595134347_rgbf000085-resize_3-target.png,125,2.354,25,2728,127,meters,jsons/VE125_randls_23.json,619821,1029845,62,Woman
140,337855,DepthScenes,duration_manipulation_targetAtFixation,jsons/VE125_randls_23.json,http://54.235.29.9/FacialAge/BNav_EC2/DepthDuration/v2_depth_duration_MTurk/v2_DepthDuration_HTML.html#41,41,1600,900,1600,900,9-3-2022,9-25-9,141,depth_duration_stimuli/001136_2014-06-17_15-19-41_260595134347_rgbf000076-resize_3/001136_2014-06-17_15-19-41_260595134347_rgbf000076-resize_3-target.png,125,1.8655,23,2636,121,meters,jsons/VE125_randls_23.json,619821,1029845,62,Woman
141,337855,DepthScenes,duration_manipulation_targetAtFixation,jsons/VE125_randls_23.json,http://54.235.29.9/FacialAge/BNav_EC2/DepthDuration/v2_depth_duration_MTurk/v2_DepthDuration_HTML.html#41,41,1600,900,1600,900,9-3-2022,9-25-9,142,depth_duration_stimuli/002213_2014-06-28_18-37-58_260595134347_rgbf000055-resize_1/002213_2014-06-28_18-37-58_260595134347_rgbf000055-resize_1-target.png,125,3.62,23,3467,127,meters,jsons/VE125_randls_23.json,619821,1029845,62,Woman
142,337855,DepthScenes,duration_manipulation_targetAtFixation,jsons/VE125_randls_23.json,http://54.235.29.9/FacialAge/BNav_EC2/DepthDuration/v2_depth_duration_MTurk/v2_DepthDuration_HTML.html#41,41,1600,900,1600,900,9-3-2022,9-25-9,143,depth_duration_stimuli/000691_2014-06-08_13-08-50_260595134347_rgbf000132-resize_3/000691_2014-06-08_13-08-50_260595134347_rgbf000132-resize_3-target.png,125,4.1530000000000005,23,2576,121,meters,jsons/VE125_randls_23.json,619821,1029845,62,Woman
143,337855,DepthScenes,duration_manipulation_targetAtFixation,jsons/VE125_randls_23.json,http://54.235.29.9/FacialAge/BNav_EC2/DepthDuration/v2_depth_duration_MTurk/v2_DepthDuration_HTML.html#41,41,1600,900,1600,900,9-3-2022,9-25-9,144,depth_duration_stimuli/002989_2014-06-15_12-25-03_094959634447_rgbf000150-resize_3/002989_2014-06-15_12-25-03_094959634447_rgbf000150-resize_3-target.png,125,4.1975,23,4207,122,meters,jsons/VE125_randls_23.json,619821,1029845,62,Woman
144,337855,DepthScenes,duration_manipulation_targetAtFixation,jsons/VE125_randls_23.json,http://54.235.29.9/FacialAge/BNav_EC2/DepthDuration/v2_depth_duration_MTurk/v2_DepthDuration_HTML.html#41,41,1600,900,1600,900,9-3-2022,9-25-9,145,depth_duration_stimuli/000866_2014-06-09_20-45-42_260595134347_rgbf000139-resize_1/000866_2014-06-09_20-45-42_260595134347_rgbf000139-resize_1-target.png,125,3.2155,23,6130,123,meters,jsons/VE125_randls_23.json,619821,1029845,62,Woman
145,337855,DepthScenes,duration_manipulation_targetAtFixation,jsons/VE125_randls_23.json,http://54.235.29.9/FacialAge/BNav_EC2/DepthDuration/v2_depth_duration_MTurk/v2_DepthDuration_HTML.html#41,41,1600,900,1600,900,9-3-2022,9-25-9,146,depth_duration_stimuli/001498_2014-06-19_17-45-14_260595134347_rgbf000129-resize_4/001498_2014-06-19_17-45-14_260595134347_rgbf000129-resize-original.jpg,125,1.4075,23,3219,275,meters,jsons/VE125_randls_23.json,619821,1029845,62,Woman
146,337855,DepthScenes,duration_manipulation_targetAtFixation,jsons/VE125_randls_23.json,http://54.235.29.9/FacialAge/BNav_EC2/DepthDuration/v2_depth_duration_MTurk/v2_DepthDuration_HTML.html#41,41,1600,900,1600,900,9-3-2022,9-25-9,147,depth_duration_stimuli/002118_2014-06-25_20-32-08_260595134347_rgbf000078-resize_1/002118_2014-06-25_20-32-08_260595134347_rgbf000078-resize_1-target.png,125,2.6460000000000004,10,2295,119,meters,jsons/VE125_randls_23.json,619821,1029845,62,Woman
147,337855,DepthScenes,duration_manipulation_targetAtFixation,jsons/VE125_randls_23.json,http://54.235.29.9/FacialAge/BNav_EC2/DepthDuration/v2_depth_duration_MTurk/v2_DepthDuration_HTML.html#41,41,1600,900,1600,900,9-3-2022,9-25-9,148,depth_duration_stimuli/001516_2014-06-20_16-25-09_260595134347_rgbf000076-resize_2/001516_2014-06-20_16-25-09_260595134347_rgbf000076-resize_2-target.png,125,1.7445,23,3670,129,meters,jsons/VE125_randls_23.json,619821,1029845,62,Woman
148,337855,DepthScenes,duration_manipulation_targetAtFixation,jsons/VE125_randls_23.json,http://54.235.29.9/FacialAge/BNav_EC2/DepthDuration/v2_depth_duration_MTurk/v2_DepthDuration_HTML.html#41,41,1600,900,1600,900,9-3-2022,9-25-9,149,depth_duration_stimuli/002272_2014-06-28_18-53-56_260595134347_rgbf000067-resize_2/002272_2014-06-28_18-53-56_260595134347_rgbf000067-resize_2-target.png,125,1.138,25,3148,124,meters,jsons/VE125_randls_23.json,619821,1029845,62,Woman
149,337855,DepthScenes,duration_manipulation_targetAtFixation,jsons/VE125_randls_23.json,http://54.235.29.9/FacialAge/BNav_EC2/DepthDuration/v2_depth_duration_MTurk/v2_DepthDuration_HTML.html#41,41,1600,900,1600,900,9-3-2022,9-25-9,150,depth_duration_stimuli/001571_2014-06-20_17-21-32_260595134347_rgbf000089-resize_1/001571_2014-06-20_17-21-32_260595134347_rgbf000089-resize_1-target.png,125,1.86,23,2619,126,meters,jsons/VE125_randls_23.json,619821,1029845,62,Woman
150,337855,DepthScenes,duration_manipulation_targetAtFixation,jsons/VE125_randls_23.json,http://54.235.29.9/FacialAge/BNav_EC2/DepthDuration/v2_depth_duration_MTurk/v2_DepthDuration_HTML.html#41,41,1600,900,1600,900,9-3-2022,9-25-9,151,depth_duration_stimuli/001055_2014-06-08_18-45-35_260595134347_rgbf000111-resize_4/001055_2014-06-08_18-45-35_260595134347_rgbf000111-resize_4-target.png,125,2.4290000000000003,23,4599,110,meters,jsons/VE125_randls_23.json,619821,1029845,62,Woman
151,337855,DepthScenes,duration_manipulation_targetAtFixation,jsons/VE125_randls_23.json,http://54.235.29.9/FacialAge/BNav_EC2/DepthDuration/v2_depth_duration_MTurk/v2_DepthDuration_HTML.html#41,41,1600,900,1600,900,9-3-2022,9-25-9,152,depth_duration_stimuli/000549_2014-06-08_22-10-24_260595134347_rgbf000247-resize_3/000549_2014-06-08_22-10-24_260595134347_rgbf000247-resize_3-target.png,125,1.841,25,2466,127,meters,jsons/VE125_randls_23.json,619821,1029845,62,Woman
152,337855,DepthScenes,duration_manipulation_targetAtFixation,jsons/VE125_randls_23.json,http://54.235.29.9/FacialAge/BNav_EC2/DepthDuration/v2_depth_duration_MTurk/v2_DepthDuration_HTML.html#41,41,1600,900,1600,900,9-3-2022,9-25-9,153,depth_duration_stimuli/002748_2014-06-22_19-07-22_094959634447_rgbf000078-resize_1/002748_2014-06-22_19-07-22_094959634447_rgbf000078-resize_1-target.png,125,4.6705,25,2909,126,meters,jsons/VE125_randls_23.json,619821,1029845,62,Woman
153,337855,DepthScenes,duration_manipulation_targetAtFixation,jsons/VE125_randls_23.json,http://54.235.29.9/FacialAge/BNav_EC2/DepthDuration/v2_depth_duration_MTurk/v2_DepthDuration_HTML.html#41,41,1600,900,1600,900,9-3-2022,9-25-9,154,depth_duration_stimuli/002995_2014-06-15_12-31-26_094959634447_rgbf000150-resize_1/002995_2014-06-15_12-31-26_094959634447_rgbf000150-resize_1-target.png,125,3.8360000000000003,25,4444,116,meters,jsons/VE125_randls_23.json,619821,1029845,62,Woman
154,337855,DepthScenes,duration_manipulation_targetAtFixation,jsons/VE125_randls_23.json,http://54.235.29.9/FacialAge/BNav_EC2/DepthDuration/v2_depth_duration_MTurk/v2_DepthDuration_HTML.html#41,41,1600,900,1600,900,9-3-2022,9-25-9,155,depth_duration_stimuli/001808_2014-06-26_20-50-58_260595134347_rgbf000029-resize_1/001808_2014-06-26_20-50-58_260595134347_rgbf000029-resize_1-target.png,125,4.249,25,2697,123,meters,jsons/VE125_randls_23.json,619821,1029845,62,Woman
155,337855,DepthScenes,duration_manipulation_targetAtFixation,jsons/VE125_randls_23.json,http://54.235.29.9/FacialAge/BNav_EC2/DepthDuration/v2_depth_duration_MTurk/v2_DepthDuration_HTML.html#41,41,1600,900,1600,900,9-3-2022,9-25-9,156,depth_duration_stimuli/001815_2014-06-26_20-52-55_260595134347_rgbf000020-resize_0/001815_2014-06-26_20-52-55_260595134347_rgbf000020-resize_0-target.png,125,3.3865,25,2577,128,meters,jsons/VE125_randls_23.json,619821,1029845,62,Woman
156,337855,DepthScenes,duration_manipulation_targetAtFixation,jsons/VE125_randls_23.json,http://54.235.29.9/FacialAge/BNav_EC2/DepthDuration/v2_depth_duration_MTurk/v2_DepthDuration_HTML.html#41,41,1600,900,1600,900,9-3-2022,9-25-9,157,depth_duration_stimuli/001570_2014-06-20_17-21-09_260595134347_rgbf000135-resize_4/001570_2014-06-20_17-21-09_260595134347_rgbf000135-resize_4-target.png,125,4.467,15,2685,82,meters,jsons/VE125_randls_23.json,619821,1029845,62,Woman
157,337855,DepthScenes,duration_manipulation_targetAtFixation,jsons/VE125_randls_23.json,http://54.235.29.9/FacialAge/BNav_EC2/DepthDuration/v2_depth_duration_MTurk/v2_DepthDuration_HTML.html#41,41,1600,900,1600,900,9-3-2022,9-25-9,158,depth_duration_stimuli/001392_2014-06-19_16-07-59_260595134347_rgbf000046-resize_1/001392_2014-06-19_16-07-59_260595134347_rgbf000046-resize_1-target.png,125,4.135,25,2333,112,meters,jsons/VE125_randls_23.json,619821,1029845,62,Woman
158,337855,DepthScenes,duration_manipulation_targetAtFixation,jsons/VE125_randls_23.json,http://54.235.29.9/FacialAge/BNav_EC2/DepthDuration/v2_depth_duration_MTurk/v2_DepthDuration_HTML.html#41,41,1600,900,1600,900,9-3-2022,9-25-9,159,depth_duration_stimuli/003621_2014-05-23_18-06-08_094959634447_rgbf000101-resize_1/003621_2014-05-23_18-06-08_094959634447_rgbf000101-resize_1-target.png,125,3.9835,25,2607,118,meters,jsons/VE125_randls_23.json,619821,1029845,62,Woman
159,337855,DepthScenes,duration_manipulation_targetAtFixation,jsons/VE125_randls_23.json,http://54.235.29.9/FacialAge/BNav_EC2/DepthDuration/v2_depth_duration_MTurk/v2_DepthDuration_HTML.html#41,41,1600,900,1600,900,9-3-2022,9-25-9,160,depth_duration_stimuli/001584_2014-06-20_11-07-43_260595134347_rgbf000002-resize_1/001584_2014-06-20_11-07-43_260595134347_rgbf000002-resize_1-target.png,125,3.53,23,4366,62,meters,jsons/VE125_randls_23.json,619821,1029845,62,Woman
160,337855,DepthScenes,duration_manipulation_targetAtFixation,jsons/VE125_randls_23.json,http://54.235.29.9/FacialAge/BNav_EC2/DepthDuration/v2_depth_duration_MTurk/v2_DepthDuration_HTML.html#41,41,1600,900,1600,900,9-3-2022,9-25-9,161,depth_duration_stimuli/001199_2014-06-17_16-03-48_260595134347_rgbf000077-resize_0/001199_2014-06-17_16-03-48_260595134347_rgbf000077-resize_0-target.png,125,3.4375,15,2537,119,meters,jsons/VE125_randls_23.json,619821,1029845,62,Woman
161,337855,DepthScenes,duration_manipulation_targetAtFixation,jsons/VE125_randls_23.json,http://54.235.29.9/FacialAge/BNav_EC2/DepthDuration/v2_depth_duration_MTurk/v2_DepthDuration_HTML.html#41,41,1600,900,1600,900,9-3-2022,9-25-9,162,depth_duration_stimuli/000502_2014-06-08_23-02-32_260595134347_rgbf000063-resize_4/000502_2014-06-08_23-02-32_260595134347_rgbf000063-resize_4-target.png,125,2.431,26,2506,123,meters,jsons/VE125_randls_23.json,619821,1029845,62,Woman
162,337855,DepthScenes,duration_manipulation_targetAtFixation,jsons/VE125_randls_23.json,http://54.235.29.9/FacialAge/BNav_EC2/DepthDuration/v2_depth_duration_MTurk/v2_DepthDuration_HTML.html#41,41,1600,900,1600,900,9-3-2022,9-25-9,163,depth_duration_stimuli/003534_2014-05-22_15-06-10_094959634447_rgbf000102-resize_4/003534_2014-05-22_15-06-10_094959634447_rgbf000102-resize_4-target.png,125,1.426,10,2715,124,meters,jsons/VE125_randls_23.json,619821,1029845,62,Woman
163,337855,DepthScenes,duration_manipulation_targetAtFixation,jsons/VE125_randls_23.json,http://54.235.29.9/FacialAge/BNav_EC2/DepthDuration/v2_depth_duration_MTurk/v2_DepthDuration_HTML.html#41,41,1600,900,1600,900,9-3-2022,9-25-9,164,depth_duration_stimuli/002637_2014-06-24_14-51-13_094959634447_rgbf000066-resize_4/002637_2014-06-24_14-51-13_094959634447_rgbf000066-resize_4-target.png,125,1.9955,23,2480,130,meters,jsons/VE125_randls_23.json,619821,1029845,62,Woman
