,subjID,experimentName,versionName,sequenceName,url,selected_row,windowWidth,windowHeight,screenWidth,screenHeight,startDate,startTime,trial,stimulus,duration,actual_depth,depth_estimate,trial_RT,log_sceneDuration,unitSelection,seq_filepath,experimentTime,totalTime,age,gender
0,337840,DepthScenes,duration_manipulation_targetAtFixation,jsons/VE125_randls_28_rotated.json,http://54.235.29.9/FacialAge/BNav_EC2/DepthDuration/v2_depth_duration_MTurk/v2_DepthDuration_HTML.html#31,31,1364,625,1364,768,8-21-2022,10-7-32,1,depth_duration_stimuli/002136_2014-06-25_21-18-03_260595134347_rgbf000109-resize_3/002136_2014-06-25_21-18-03_260595134347_rgbf000109-resize_3-target.png,125,1.9569999999999999,6,8647,151,feet,jsons/VE125_randls_28_rotated.json,1126439,1293378,37,Woman
1,337840,DepthScenes,duration_manipulation_targetAtFixation,jsons/VE125_randls_28_rotated.json,http://54.235.29.9/FacialAge/BNav_EC2/DepthDuration/v2_depth_duration_MTurk/v2_DepthDuration_HTML.html#31,31,1364,625,1364,768,8-21-2022,10-7-32,2,depth_duration_stimuli/002964_2014-06-08_17-46-11_094959634447_rgbf000091-resize_4/002964_2014-06-08_17-46-11_094959634447_rgbf000091-resize_4-target.png,125,1.6909999999999998,0,5037,124,feet,jsons/VE125_randls_28_rotated.json,1126439,1293378,37,Woman
2,337840,DepthScenes,duration_manipulation_targetAtFixation,jsons/VE125_randls_28_rotated.json,http://54.235.29.9/FacialAge/BNav_EC2/DepthDuration/v2_depth_duration_MTurk/v2_DepthDuration_HTML.html#31,31,1364,625,1364,768,8-21-2022,10-7-32,3,depth_duration_stimuli/000866_2014-06-09_20-45-42_260595134347_rgbf000139-resize_1/000866_2014-06-09_20-45-42_260595134347_rgbf000139-resize_1-target.png,125,3.2155,6,5468,125,feet,jsons/VE125_randls_28_rotated.json,1126439,1293378,37,Woman
3,337840,DepthScenes,duration_manipulation_targetAtFixation,jsons/VE125_randls_28_rotated.json,http://54.235.29.9/FacialAge/BNav_EC2/DepthDuration/v2_depth_duration_MTurk/v2_DepthDuration_HTML.html#31,31,1364,625,1364,768,8-21-2022,10-7-32,4,depth_duration_stimuli/002989_2014-06-15_12-25-03_094959634447_rgbf000150-resize_3/002989_2014-06-15_12-25-03_094959634447_rgbf000150-resize_3-target.png,125,4.1975,9,3526,110,feet,jsons/VE125_randls_28_rotated.json,1126439,1293378,37,Woman
4,337840,DepthScenes,duration_manipulation_targetAtFixation,jsons/VE125_randls_28_rotated.json,http://54.235.29.9/FacialAge/BNav_EC2/DepthDuration/v2_depth_duration_MTurk/v2_DepthDuration_HTML.html#31,31,1364,625,1364,768,8-21-2022,10-7-32,5,depth_duration_stimuli/000409_2014-06-04_19-23-33_260595134347_rgbf000067-resize_0/000409_2014-06-04_19-23-33_260595134347_rgbf000067-resize_0-target.png,125,3.7335,3,4929,126,feet,jsons/VE125_randls_28_rotated.json,1126439,1293378,37,Woman
5,337840,DepthScenes,duration_manipulation_targetAtFixation,jsons/VE125_randls_28_rotated.json,http://54.235.29.9/FacialAge/BNav_EC2/DepthDuration/v2_depth_duration_MTurk/v2_DepthDuration_HTML.html#31,31,1364,625,1364,768,8-21-2022,10-7-32,6,depth_duration_stimuli/002663_2014-06-13_15-50-26_094959634447_rgbf000075-resize_1/002663_2014-06-13_15-50-26_094959634447_rgbf000075-resize_1-target.png,125,4.7495,5,3703,150,feet,jsons/VE125_randls_28_rotated.json,1126439,1293378,37,Woman
6,337840,DepthScenes,duration_manipulation_targetAtFixation,jsons/VE125_randls_28_rotated.json,http://54.235.29.9/FacialAge/BNav_EC2/DepthDuration/v2_depth_duration_MTurk/v2_DepthDuration_HTML.html#31,31,1364,625,1364,768,8-21-2022,10-7-32,7,depth_duration_stimuli/003495_2014-05-21_16-01-51_094959634447_rgbf000100-resize_3/003495_2014-05-21_16-01-51_094959634447_rgbf000100-resize_3-target.png,125,1.6255,5,8948,143,feet,jsons/VE125_randls_28_rotated.json,1126439,1293378,37,Woman
7,337840,DepthScenes,duration_manipulation_targetAtFixation,jsons/VE125_randls_28_rotated.json,http://54.235.29.9/FacialAge/BNav_EC2/DepthDuration/v2_depth_duration_MTurk/v2_DepthDuration_HTML.html#31,31,1364,625,1364,768,8-21-2022,10-7-32,8,depth_duration_stimuli/001244_2014-06-17_16-47-45_260595134347_rgbf000030-resize_4/001244_2014-06-17_16-47-45_260595134347_rgbf000030-resize_4-target.png,125,2.0425,5,3869,126,feet,jsons/VE125_randls_28_rotated.json,1126439,1293378,37,Woman
8,337840,DepthScenes,duration_manipulation_targetAtFixation,jsons/VE125_randls_28_rotated.json,http://54.235.29.9/FacialAge/BNav_EC2/DepthDuration/v2_depth_duration_MTurk/v2_DepthDuration_HTML.html#31,31,1364,625,1364,768,8-21-2022,10-7-32,9,depth_duration_stimuli/000854_2014-06-09_19-43-13_260595134347_rgbf000066-resize_0/000854_2014-06-09_19-43-13_260595134347_rgbf000066-resize_0-target.png,125,3.068,5,20511,98,feet,jsons/VE125_randls_28_rotated.json,1126439,1293378,37,Woman
9,337840,DepthScenes,duration_manipulation_targetAtFixation,jsons/VE125_randls_28_rotated.json,http://54.235.29.9/FacialAge/BNav_EC2/DepthDuration/v2_depth_duration_MTurk/v2_DepthDuration_HTML.html#31,31,1364,625,1364,768,8-21-2022,10-7-32,10,depth_duration_stimuli/000758_2014-06-08_22-05-08_260595134347_rgbf000085-resize_0/000758_2014-06-08_22-05-08_260595134347_rgbf000085-resize_0-target.png,125,3.3810000000000002,6,4899,138,feet,jsons/VE125_randls_28_rotated.json,1126439,1293378,37,Woman
10,337840,DepthScenes,duration_manipulation_targetAtFixation,jsons/VE125_randls_28_rotated.json,http://54.235.29.9/FacialAge/BNav_EC2/DepthDuration/v2_depth_duration_MTurk/v2_DepthDuration_HTML.html#31,31,1364,625,1364,768,8-21-2022,10-7-32,11,depth_duration_stimuli/001450_2014-06-19_17-02-03_260595134347_rgbf000203-resize_4/001450_2014-06-19_17-02-03_260595134347_rgbf000203-resize_4-target.png,125,4.0106666666667,6,4794,124,feet,jsons/VE125_randls_28_rotated.json,1126439,1293378,37,Woman
11,337840,DepthScenes,duration_manipulation_targetAtFixation,jsons/VE125_randls_28_rotated.json,http://54.235.29.9/FacialAge/BNav_EC2/DepthDuration/v2_depth_duration_MTurk/v2_DepthDuration_HTML.html#31,31,1364,625,1364,768,8-21-2022,10-7-32,12,depth_duration_stimuli/001449_2014-06-19_17-01-27_260595134347_rgbf000116-resize_2/001449_2014-06-19_17-01-27_260595134347_rgbf000116-resize_2-target.png,125,3.452,5,4674,150,feet,jsons/VE125_randls_28_rotated.json,1126439,1293378,37,Woman
12,337840,DepthScenes,duration_manipulation_targetAtFixation,jsons/VE125_randls_28_rotated.json,http://54.235.29.9/FacialAge/BNav_EC2/DepthDuration/v2_depth_duration_MTurk/v2_DepthDuration_HTML.html#31,31,1364,625,1364,768,8-21-2022,10-7-32,13,depth_duration_stimuli/001617_2014-06-20_11-35-32_260595134347_rgbf000066-resize_1/001617_2014-06-20_11-35-32_260595134347_rgbf000066-resize_1-target.png,125,3.7910000000000004,6,5083,134,feet,jsons/VE125_randls_28_rotated.json,1126439,1293378,37,Woman
13,337840,DepthScenes,duration_manipulation_targetAtFixation,jsons/VE125_randls_28_rotated.json,http://54.235.29.9/FacialAge/BNav_EC2/DepthDuration/v2_depth_duration_MTurk/v2_DepthDuration_HTML.html#31,31,1364,625,1364,768,8-21-2022,10-7-32,14,depth_duration_stimuli/001806_2014-06-26_20-50-20_260595134347_rgbf000091-resize_1/001806_2014-06-26_20-50-20_260595134347_rgbf000091-resize_1-target.png,125,2.7305,5,5940,124,feet,jsons/VE125_randls_28_rotated.json,1126439,1293378,37,Woman
14,337840,DepthScenes,duration_manipulation_targetAtFixation,jsons/VE125_randls_28_rotated.json,http://54.235.29.9/FacialAge/BNav_EC2/DepthDuration/v2_depth_duration_MTurk/v2_DepthDuration_HTML.html#31,31,1364,625,1364,768,8-21-2022,10-7-32,15,depth_duration_stimuli/002750_2014-06-22_19-08-03_094959634447_rgbf000094-resize_4/002750_2014-06-22_19-08-03_094959634447_rgbf000094-resize_4-target.png,125,2.354,5,9298,125,feet,jsons/VE125_randls_28_rotated.json,1126439,1293378,37,Woman
15,337840,DepthScenes,duration_manipulation_targetAtFixation,jsons/VE125_randls_28_rotated.json,http://54.235.29.9/FacialAge/BNav_EC2/DepthDuration/v2_depth_duration_MTurk/v2_DepthDuration_HTML.html#31,31,1364,625,1364,768,8-21-2022,10-7-32,16,depth_duration_stimuli/002549_2014-06-24_13-41-39_094959634447_rgbf000022-resize_3/002549_2014-06-24_13-41-39_094959634447_rgbf000022-resize_3-target.png,125,1.476,4,3959,126,feet,jsons/VE125_randls_28_rotated.json,1126439,1293378,37,Woman
16,337840,DepthScenes,duration_manipulation_targetAtFixation,jsons/VE125_randls_28_rotated.json,http://54.235.29.9/FacialAge/BNav_EC2/DepthDuration/v2_depth_duration_MTurk/v2_DepthDuration_HTML.html#31,31,1364,625,1364,768,8-21-2022,10-7-32,17,depth_duration_stimuli/003423_2014-05-21_10-23-26_094959634447_rgbf002665-resize_2/003423_2014-05-21_10-23-26_094959634447_rgbf002665-resize_2-target.png,125,3.2575,3,9484,129,feet,jsons/VE125_randls_28_rotated.json,1126439,1293378,37,Woman
17,337840,DepthScenes,duration_manipulation_targetAtFixation,jsons/VE125_randls_28_rotated.json,http://54.235.29.9/FacialAge/BNav_EC2/DepthDuration/v2_depth_duration_MTurk/v2_DepthDuration_HTML.html#31,31,1364,625,1364,768,8-21-2022,10-7-32,18,depth_duration_stimuli/002905_2014-06-03_18-04-43_094959634447_rgbf000151-resize_2/002905_2014-06-03_18-04-43_094959634447_rgbf000151-resize_2-target.png,125,2.0295,3,6589,127,feet,jsons/VE125_randls_28_rotated.json,1126439,1293378,37,Woman
18,337840,DepthScenes,duration_manipulation_targetAtFixation,jsons/VE125_randls_28_rotated.json,http://54.235.29.9/FacialAge/BNav_EC2/DepthDuration/v2_depth_duration_MTurk/v2_DepthDuration_HTML.html#31,31,1364,625,1364,768,8-21-2022,10-7-32,19,depth_duration_stimuli/001498_2014-06-19_17-45-14_260595134347_rgbf000129-resize_4/001498_2014-06-19_17-45-14_260595134347_rgbf000129-resize-original.jpg,125,1.4075,0,7400,122,feet,jsons/VE125_randls_28_rotated.json,1126439,1293378,37,Woman
19,337840,DepthScenes,duration_manipulation_targetAtFixation,jsons/VE125_randls_28_rotated.json,http://54.235.29.9/FacialAge/BNav_EC2/DepthDuration/v2_depth_duration_MTurk/v2_DepthDuration_HTML.html#31,31,1364,625,1364,768,8-21-2022,10-7-32,20,depth_duration_stimuli/000137_2014-05-20_17-04-49_260595134347_rgbf000120-resize_1/000137_2014-05-20_17-04-49_260595134347_rgbf000120-resize_1-target.png,125,3.786,6,9531,126,feet,jsons/VE125_randls_28_rotated.json,1126439,1293378,37,Woman
20,337840,DepthScenes,duration_manipulation_targetAtFixation,jsons/VE125_randls_28_rotated.json,http://54.235.29.9/FacialAge/BNav_EC2/DepthDuration/v2_depth_duration_MTurk/v2_DepthDuration_HTML.html#31,31,1364,625,1364,768,8-21-2022,10-7-32,21,depth_duration_stimuli/000736_2014-06-08_18-24-15_260595134347_rgbf000206-resize_3/000736_2014-06-08_18-24-15_260595134347_rgbf000206-resize_3-target.png,125,3.515,3,5224,125,feet,jsons/VE125_randls_28_rotated.json,1126439,1293378,37,Woman
21,337840,DepthScenes,duration_manipulation_targetAtFixation,jsons/VE125_randls_28_rotated.json,http://54.235.29.9/FacialAge/BNav_EC2/DepthDuration/v2_depth_duration_MTurk/v2_DepthDuration_HTML.html#31,31,1364,625,1364,768,8-21-2022,10-7-32,22,depth_duration_stimuli/000709_2014-06-08_13-51-55_260595134347_rgbf000068-resize_3/000709_2014-06-08_13-51-55_260595134347_rgbf000068-resize_3-target.png,125,1.8030000000000002,4,8196,124,feet,jsons/VE125_randls_28_rotated.json,1126439,1293378,37,Woman
22,337840,DepthScenes,duration_manipulation_targetAtFixation,jsons/VE125_randls_28_rotated.json,http://54.235.29.9/FacialAge/BNav_EC2/DepthDuration/v2_depth_duration_MTurk/v2_DepthDuration_HTML.html#31,31,1364,625,1364,768,8-21-2022,10-7-32,23,depth_duration_stimuli/002057_2014-06-24_21-00-13_260595134347_rgbf000120-resize_1/002057_2014-06-24_21-00-13_260595134347_rgbf000120-resize_1-target.png,125,2.967,0,6182,124,feet,jsons/VE125_randls_28_rotated.json,1126439,1293378,37,Woman
23,337840,DepthScenes,duration_manipulation_targetAtFixation,jsons/VE125_randls_28_rotated.json,http://54.235.29.9/FacialAge/BNav_EC2/DepthDuration/v2_depth_duration_MTurk/v2_DepthDuration_HTML.html#31,31,1364,625,1364,768,8-21-2022,10-7-32,24,depth_duration_stimuli/002209_2014-06-28_18-36-10_260595134347_rgbf000051-resize_1/002209_2014-06-28_18-36-10_260595134347_rgbf000051-resize_1-target.png,125,2.057,3,10775,127,feet,jsons/VE125_randls_28_rotated.json,1126439,1293378,37,Woman
24,337840,DepthScenes,duration_manipulation_targetAtFixation,jsons/VE125_randls_28_rotated.json,http://54.235.29.9/FacialAge/BNav_EC2/DepthDuration/v2_depth_duration_MTurk/v2_DepthDuration_HTML.html#31,31,1364,625,1364,768,8-21-2022,10-7-32,25,depth_duration_stimuli/002763_2014-06-22_19-13-10_094959634447_rgbf000075-resize_4/002763_2014-06-22_19-13-10_094959634447_rgbf000075-resize_4-target.png,125,1.68375,4,5380,112,feet,jsons/VE125_randls_28_rotated.json,1126439,1293378,37,Woman
25,337840,DepthScenes,duration_manipulation_targetAtFixation,jsons/VE125_randls_28_rotated.json,http://54.235.29.9/FacialAge/BNav_EC2/DepthDuration/v2_depth_duration_MTurk/v2_DepthDuration_HTML.html#31,31,1364,625,1364,768,8-21-2022,10-7-32,26,depth_duration_stimuli/000191_2014-05-12_17-07-38_260595134347_rgbf000199-resize_0/000191_2014-05-12_17-07-38_260595134347_rgbf000199-resize_0-target.png,125,3.7995,6,6218,154,feet,jsons/VE125_randls_28_rotated.json,1126439,1293378,37,Woman
26,337840,DepthScenes,duration_manipulation_targetAtFixation,jsons/VE125_randls_28_rotated.json,http://54.235.29.9/FacialAge/BNav_EC2/DepthDuration/v2_depth_duration_MTurk/v2_DepthDuration_HTML.html#31,31,1364,625,1364,768,8-21-2022,10-7-32,27,depth_duration_stimuli/000493_2014-06-09_21-01-18_260595134347_rgbf000196-resize_3/000493_2014-06-09_21-01-18_260595134347_rgbf000196-resize_3-target.png,125,3.44,5,5178,141,feet,jsons/VE125_randls_28_rotated.json,1126439,1293378,37,Woman
27,337840,DepthScenes,duration_manipulation_targetAtFixation,jsons/VE125_randls_28_rotated.json,http://54.235.29.9/FacialAge/BNav_EC2/DepthDuration/v2_depth_duration_MTurk/v2_DepthDuration_HTML.html#31,31,1364,625,1364,768,8-21-2022,10-7-32,28,depth_duration_stimuli/001650_2014-06-20_12-09-00_260595134347_rgbf000087-resize_3/001650_2014-06-20_12-09-00_260595134347_rgbf000087-resize_3-target.png,125,1.9505,3,8830,141,feet,jsons/VE125_randls_28_rotated.json,1126439,1293378,37,Woman
28,337840,DepthScenes,duration_manipulation_targetAtFixation,jsons/VE125_randls_28_rotated.json,http://54.235.29.9/FacialAge/BNav_EC2/DepthDuration/v2_depth_duration_MTurk/v2_DepthDuration_HTML.html#31,31,1364,625,1364,768,8-21-2022,10-7-32,29,depth_duration_stimuli/000682_2014-06-08_23-14-58_260595134347_rgbf000041-resize_5/000682_2014-06-08_23-14-58_260595134347_rgbf000041-resize_5-target.png,125,2.7239999999999998,4,7451,128,feet,jsons/VE125_randls_28_rotated.json,1126439,1293378,37,Woman
29,337840,DepthScenes,duration_manipulation_targetAtFixation,jsons/VE125_randls_28_rotated.json,http://54.235.29.9/FacialAge/BNav_EC2/DepthDuration/v2_depth_duration_MTurk/v2_DepthDuration_HTML.html#31,31,1364,625,1364,768,8-21-2022,10-7-32,30,depth_duration_stimuli/002072_2014-06-24_21-48-06_260595134347_rgbf000115-resize_0/002072_2014-06-24_21-48-06_260595134347_rgbf000115-resize-original.jpg,125,4.702,2,7172,49,feet,jsons/VE125_randls_28_rotated.json,1126439,1293378,37,Woman
30,337840,DepthScenes,duration_manipulation_targetAtFixation,jsons/VE125_randls_28_rotated.json,http://54.235.29.9/FacialAge/BNav_EC2/DepthDuration/v2_depth_duration_MTurk/v2_DepthDuration_HTML.html#31,31,1364,625,1364,768,8-21-2022,10-7-32,31,depth_duration_stimuli/000943_2014-06-09_19-31-07_260595134347_rgbf000128-resize_1/000943_2014-06-09_19-31-07_260595134347_rgbf000128-resize_1-target.png,125,1.9765,4,11932,118,feet,jsons/VE125_randls_28_rotated.json,1126439,1293378,37,Woman
31,337840,DepthScenes,duration_manipulation_targetAtFixation,jsons/VE125_randls_28_rotated.json,http://54.235.29.9/FacialAge/BNav_EC2/DepthDuration/v2_depth_duration_MTurk/v2_DepthDuration_HTML.html#31,31,1364,625,1364,768,8-21-2022,10-7-32,32,depth_duration_stimuli/003070_2014-06-15_14-58-27_094959634447_rgbf000150-resize_3/003070_2014-06-15_14-58-27_094959634447_rgbf000150-resize_3-target.png,125,2.9415,3,3867,122,feet,jsons/VE125_randls_28_rotated.json,1126439,1293378,37,Woman
32,337840,DepthScenes,duration_manipulation_targetAtFixation,jsons/VE125_randls_28_rotated.json,http://54.235.29.9/FacialAge/BNav_EC2/DepthDuration/v2_depth_duration_MTurk/v2_DepthDuration_HTML.html#31,31,1364,625,1364,768,8-21-2022,10-7-32,33,depth_duration_stimuli/000635_2014-06-08_16-38-42_260595134347_rgbf000106-resize_1/000635_2014-06-08_16-38-42_260595134347_rgbf000106-resize_1-target.png,125,2.074,5,4500,167,feet,jsons/VE125_randls_28_rotated.json,1126439,1293378,37,Woman
33,337840,DepthScenes,duration_manipulation_targetAtFixation,jsons/VE125_randls_28_rotated.json,http://54.235.29.9/FacialAge/BNav_EC2/DepthDuration/v2_depth_duration_MTurk/v2_DepthDuration_HTML.html#31,31,1364,625,1364,768,8-21-2022,10-7-32,34,depth_duration_stimuli/002279_2014-06-28_18-55-32_260595134347_rgbf000040-resize_5/002279_2014-06-28_18-55-32_260595134347_rgbf000040-resize_5-target.png,125,1.5043333333333,5,3565,149,feet,jsons/VE125_randls_28_rotated.json,1126439,1293378,37,Woman
34,337840,DepthScenes,duration_manipulation_targetAtFixation,jsons/VE125_randls_28_rotated.json,http://54.235.29.9/FacialAge/BNav_EC2/DepthDuration/v2_depth_duration_MTurk/v2_DepthDuration_HTML.html#31,31,1364,625,1364,768,8-21-2022,10-7-32,35,depth_duration_stimuli/002340_2014-06-28_20-05-46_260595134347_rgbf000113-resize_0/002340_2014-06-28_20-05-46_260595134347_rgbf000113-resize_0-target.png,125,2.4735,6,5940,133,feet,jsons/VE125_randls_28_rotated.json,1126439,1293378,37,Woman
35,337840,DepthScenes,duration_manipulation_targetAtFixation,jsons/VE125_randls_28_rotated.json,http://54.235.29.9/FacialAge/BNav_EC2/DepthDuration/v2_depth_duration_MTurk/v2_DepthDuration_HTML.html#31,31,1364,625,1364,768,8-21-2022,10-7-32,36,depth_duration_stimuli/001016_2014-06-09_16-16-10_260595134347_rgbf000112-resize_5/001016_2014-06-09_16-16-10_260595134347_rgbf000112-resize_5-target.png,125,1.6565,5,6575,150,feet,jsons/VE125_randls_28_rotated.json,1126439,1293378,37,Woman
36,337840,DepthScenes,duration_manipulation_targetAtFixation,jsons/VE125_randls_28_rotated.json,http://54.235.29.9/FacialAge/BNav_EC2/DepthDuration/v2_depth_duration_MTurk/v2_DepthDuration_HTML.html#31,31,1364,625,1364,768,8-21-2022,10-7-32,37,depth_duration_stimuli/003587_2014-05-23_16-48-02_094959634447_rgbf002384-resize_2/003587_2014-05-23_16-48-02_094959634447_rgbf002384-resize_2-target.png,125,1.357,3,3846,127,feet,jsons/VE125_randls_28_rotated.json,1126439,1293378,37,Woman
37,337840,DepthScenes,duration_manipulation_targetAtFixation,jsons/VE125_randls_28_rotated.json,http://54.235.29.9/FacialAge/BNav_EC2/DepthDuration/v2_depth_duration_MTurk/v2_DepthDuration_HTML.html#31,31,1364,625,1364,768,8-21-2022,10-7-32,38,depth_duration_stimuli/001167_2014-06-17_15-38-07_260595134347_rgbf000108-resize_0/001167_2014-06-17_15-38-07_260595134347_rgbf000108-resize_0-target.png,125,1.8505,4,4233,126,feet,jsons/VE125_randls_28_rotated.json,1126439,1293378,37,Woman
38,337840,DepthScenes,duration_manipulation_targetAtFixation,jsons/VE125_randls_28_rotated.json,http://54.235.29.9/FacialAge/BNav_EC2/DepthDuration/v2_depth_duration_MTurk/v2_DepthDuration_HTML.html#31,31,1364,625,1364,768,8-21-2022,10-7-32,39,depth_duration_stimuli/002657_2014-06-13_15-29-54_094959634447_rgbf000150-resize_1/002657_2014-06-13_15-29-54_094959634447_rgbf000150-resize_1-target.png,125,4.919,2,7552,133,feet,jsons/VE125_randls_28_rotated.json,1126439,1293378,37,Woman
39,337840,DepthScenes,duration_manipulation_targetAtFixation,jsons/VE125_randls_28_rotated.json,http://54.235.29.9/FacialAge/BNav_EC2/DepthDuration/v2_depth_duration_MTurk/v2_DepthDuration_HTML.html#31,31,1364,625,1364,768,8-21-2022,10-7-32,40,depth_duration_stimuli/002375_2014-06-28_20-13-44_260595134347_rgbf000032-resize_1/002375_2014-06-28_20-13-44_260595134347_rgbf000032-resize_1-target.png,125,4.0175,4,4050,143,feet,jsons/VE125_randls_28_rotated.json,1126439,1293378,37,Woman
40,337840,DepthScenes,duration_manipulation_targetAtFixation,jsons/VE125_randls_28_rotated.json,http://54.235.29.9/FacialAge/BNav_EC2/DepthDuration/v2_depth_duration_MTurk/v2_DepthDuration_HTML.html#31,31,1364,625,1364,768,8-21-2022,10-7-32,41,depth_duration_stimuli/000665_2014-06-09_20-42-35_260595134347_rgbf000110-resize_1/000665_2014-06-09_20-42-35_260595134347_rgbf000110-resize_1-target.png,125,3.057,3,9683,122,feet,jsons/VE125_randls_28_rotated.json,1126439,1293378,37,Woman
41,337840,DepthScenes,duration_manipulation_targetAtFixation,jsons/VE125_randls_28_rotated.json,http://54.235.29.9/FacialAge/BNav_EC2/DepthDuration/v2_depth_duration_MTurk/v2_DepthDuration_HTML.html#31,31,1364,625,1364,768,8-21-2022,10-7-32,42,depth_duration_stimuli/001150_2014-06-17_15-27-34_260595134347_rgbf000108-resize_2/001150_2014-06-17_15-27-34_260595134347_rgbf000108-resize_2-target.png,125,4.0325,0,3222,143,feet,jsons/VE125_randls_28_rotated.json,1126439,1293378,37,Woman
42,337840,DepthScenes,duration_manipulation_targetAtFixation,jsons/VE125_randls_28_rotated.json,http://54.235.29.9/FacialAge/BNav_EC2/DepthDuration/v2_depth_duration_MTurk/v2_DepthDuration_HTML.html#31,31,1364,625,1364,768,8-21-2022,10-7-32,43,depth_duration_stimuli/002199_2014-06-28_18-33-56_260595134347_rgbf000074-resize_0/002199_2014-06-28_18-33-56_260595134347_rgbf000074-resize_0-target.png,125,1.996,2,5962,120,feet,jsons/VE125_randls_28_rotated.json,1126439,1293378,37,Woman
43,337840,DepthScenes,duration_manipulation_targetAtFixation,jsons/VE125_randls_28_rotated.json,http://54.235.29.9/FacialAge/BNav_EC2/DepthDuration/v2_depth_duration_MTurk/v2_DepthDuration_HTML.html#31,31,1364,625,1364,768,8-21-2022,10-7-32,44,depth_duration_stimuli/001056_2014-06-08_18-46-44_260595134347_rgbf000068-resize_0/001056_2014-06-08_18-46-44_260595134347_rgbf000068-resize_0-target.png,125,2.6625,4,2868,126,feet,jsons/VE125_randls_28_rotated.json,1126439,1293378,37,Woman
44,337840,DepthScenes,duration_manipulation_targetAtFixation,jsons/VE125_randls_28_rotated.json,http://54.235.29.9/FacialAge/BNav_EC2/DepthDuration/v2_depth_duration_MTurk/v2_DepthDuration_HTML.html#31,31,1364,625,1364,768,8-21-2022,10-7-32,45,depth_duration_stimuli/002660_2014-06-13_15-44-18_094959634447_rgbf001878-resize_2/002660_2014-06-13_15-44-18_094959634447_rgbf001878-resize_2-target.png,125,3.576,5,8374,124,feet,jsons/VE125_randls_28_rotated.json,1126439,1293378,37,Woman
45,337840,DepthScenes,duration_manipulation_targetAtFixation,jsons/VE125_randls_28_rotated.json,http://54.235.29.9/FacialAge/BNav_EC2/DepthDuration/v2_depth_duration_MTurk/v2_DepthDuration_HTML.html#31,31,1364,625,1364,768,8-21-2022,10-7-32,46,depth_duration_stimuli/002153_2014-06-25_21-27-18_260595134347_rgbf000038-resize_5/002153_2014-06-25_21-27-18_260595134347_rgbf000038-resize_5-target.png,125,2.505,3,3331,121,feet,jsons/VE125_randls_28_rotated.json,1126439,1293378,37,Woman
46,337840,DepthScenes,duration_manipulation_targetAtFixation,jsons/VE125_randls_28_rotated.json,http://54.235.29.9/FacialAge/BNav_EC2/DepthDuration/v2_depth_duration_MTurk/v2_DepthDuration_HTML.html#31,31,1364,625,1364,768,8-21-2022,10-7-32,47,depth_duration_stimuli/002323_2014-06-28_20-01-54_260595134347_rgbf000051-resize_4/002323_2014-06-28_20-01-54_260595134347_rgbf000051-resize_4-target.png,125,3.7310000000000003,4,4534,131,feet,jsons/VE125_randls_28_rotated.json,1126439,1293378,37,Woman
47,337840,DepthScenes,duration_manipulation_targetAtFixation,jsons/VE125_randls_28_rotated.json,http://54.235.29.9/FacialAge/BNav_EC2/DepthDuration/v2_depth_duration_MTurk/v2_DepthDuration_HTML.html#31,31,1364,625,1364,768,8-21-2022,10-7-32,48,depth_duration_stimuli/000917_2014-06-09_22-45-29_260595134347_rgbf000149-resize_3/000917_2014-06-09_22-45-29_260595134347_rgbf000149-resize_3-target.png,125,4.1865,0,3168,42,feet,jsons/VE125_randls_28_rotated.json,1126439,1293378,37,Woman
48,337840,DepthScenes,duration_manipulation_targetAtFixation,jsons/VE125_randls_28_rotated.json,http://54.235.29.9/FacialAge/BNav_EC2/DepthDuration/v2_depth_duration_MTurk/v2_DepthDuration_HTML.html#31,31,1364,625,1364,768,8-21-2022,10-7-32,49,depth_duration_stimuli/001170_2014-06-17_15-43-44_260595134347_rgbf000096-resize_6/001170_2014-06-17_15-43-44_260595134347_rgbf000096-resize-original.jpg,125,1.1909999999999998,0,7829,123,feet,jsons/VE125_randls_28_rotated.json,1126439,1293378,37,Woman
49,337840,DepthScenes,duration_manipulation_targetAtFixation,jsons/VE125_randls_28_rotated.json,http://54.235.29.9/FacialAge/BNav_EC2/DepthDuration/v2_depth_duration_MTurk/v2_DepthDuration_HTML.html#31,31,1364,625,1364,768,8-21-2022,10-7-32,50,depth_duration_stimuli/003081_2014-06-15_15-19-16_094959634447_rgbf000150-resize_1/003081_2014-06-15_15-19-16_094959634447_rgbf000150-resize_1-target.png,125,3.9125,5,9209,242,feet,jsons/VE125_randls_28_rotated.json,1126439,1293378,37,Woman
50,337840,DepthScenes,duration_manipulation_targetAtFixation,jsons/VE125_randls_28_rotated.json,http://54.235.29.9/FacialAge/BNav_EC2/DepthDuration/v2_depth_duration_MTurk/v2_DepthDuration_HTML.html#31,31,1364,625,1364,768,8-21-2022,10-7-32,51,depth_duration_stimuli/001417_2014-06-19_16-25-36_260595134347_rgbf000115-resize_5/001417_2014-06-19_16-25-36_260595134347_rgbf000115-resize_5-target.png,125,4.6255,6,3491,131,feet,jsons/VE125_randls_28_rotated.json,1126439,1293378,37,Woman
51,337840,DepthScenes,duration_manipulation_targetAtFixation,jsons/VE125_randls_28_rotated.json,http://54.235.29.9/FacialAge/BNav_EC2/DepthDuration/v2_depth_duration_MTurk/v2_DepthDuration_HTML.html#31,31,1364,625,1364,768,8-21-2022,10-7-32,52,depth_duration_stimuli/000927_2014-06-09_16-32-30_260595134347_rgbf000123-resize_3/000927_2014-06-09_16-32-30_260595134347_rgbf000123-resize_3-target.png,125,2.6785,6,5526,115,feet,jsons/VE125_randls_28_rotated.json,1126439,1293378,37,Woman
52,337840,DepthScenes,duration_manipulation_targetAtFixation,jsons/VE125_randls_28_rotated.json,http://54.235.29.9/FacialAge/BNav_EC2/DepthDuration/v2_depth_duration_MTurk/v2_DepthDuration_HTML.html#31,31,1364,625,1364,768,8-21-2022,10-7-32,53,depth_duration_stimuli/001110_2014-06-15_17-25-28_260595134347_rgbf000150-resize_1/001110_2014-06-15_17-25-28_260595134347_rgbf000150-resize_1-target.png,125,1.7115,5,3150,122,feet,jsons/VE125_randls_28_rotated.json,1126439,1293378,37,Woman
53,337840,DepthScenes,duration_manipulation_targetAtFixation,jsons/VE125_randls_28_rotated.json,http://54.235.29.9/FacialAge/BNav_EC2/DepthDuration/v2_depth_duration_MTurk/v2_DepthDuration_HTML.html#31,31,1364,625,1364,768,8-21-2022,10-7-32,54,depth_duration_stimuli/001136_2014-06-17_15-19-41_260595134347_rgbf000076-resize_3/001136_2014-06-17_15-19-41_260595134347_rgbf000076-resize_3-target.png,125,1.8655,7,5203,134,feet,jsons/VE125_randls_28_rotated.json,1126439,1293378,37,Woman
54,337840,DepthScenes,duration_manipulation_targetAtFixation,jsons/VE125_randls_28_rotated.json,http://54.235.29.9/FacialAge/BNav_EC2/DepthDuration/v2_depth_duration_MTurk/v2_DepthDuration_HTML.html#31,31,1364,625,1364,768,8-21-2022,10-7-32,55,depth_duration_stimuli/001164_2014-06-17_15-35-46_260595134347_rgbf000085-resize_3/001164_2014-06-17_15-35-46_260595134347_rgbf000085-resize_3-target.png,125,2.354,7,3801,124,feet,jsons/VE125_randls_28_rotated.json,1126439,1293378,37,Woman
55,337840,DepthScenes,duration_manipulation_targetAtFixation,jsons/VE125_randls_28_rotated.json,http://54.235.29.9/FacialAge/BNav_EC2/DepthDuration/v2_depth_duration_MTurk/v2_DepthDuration_HTML.html#31,31,1364,625,1364,768,8-21-2022,10-7-32,56,depth_duration_stimuli/001132_2014-06-17_14-48-54_260595134347_rgbf000100-resize_2/001132_2014-06-17_14-48-54_260595134347_rgbf000100-resize_2-target.png,125,3.753,5,5850,127,feet,jsons/VE125_randls_28_rotated.json,1126439,1293378,37,Woman
56,337840,DepthScenes,duration_manipulation_targetAtFixation,jsons/VE125_randls_28_rotated.json,http://54.235.29.9/FacialAge/BNav_EC2/DepthDuration/v2_depth_duration_MTurk/v2_DepthDuration_HTML.html#31,31,1364,625,1364,768,8-21-2022,10-7-32,57,depth_duration_stimuli/001133_2014-06-17_14-49-16_260595134347_rgbf000100-resize_0/001133_2014-06-17_14-49-16_260595134347_rgbf000100-resize_0-target.png,125,4.2115,0,150336,160,feet,jsons/VE125_randls_28_rotated.json,1126439,1293378,37,Woman
57,337840,DepthScenes,duration_manipulation_targetAtFixation,jsons/VE125_randls_28_rotated.json,http://54.235.29.9/FacialAge/BNav_EC2/DepthDuration/v2_depth_duration_MTurk/v2_DepthDuration_HTML.html#31,31,1364,625,1364,768,8-21-2022,10-7-32,58,depth_duration_stimuli/002425_2014-06-28_20-27-29_260595134347_rgbf000031-resize_8/002425_2014-06-28_20-27-29_260595134347_rgbf000031-resize_8-target.png,125,3.8960000000000004,5,8012,145,feet,jsons/VE125_randls_28_rotated.json,1126439,1293378,37,Woman
58,337840,DepthScenes,duration_manipulation_targetAtFixation,jsons/VE125_randls_28_rotated.json,http://54.235.29.9/FacialAge/BNav_EC2/DepthDuration/v2_depth_duration_MTurk/v2_DepthDuration_HTML.html#31,31,1364,625,1364,768,8-21-2022,10-7-32,59,depth_duration_stimuli/000642_2014-06-08_16-59-25_260595134347_rgbf000098-resize_2/000642_2014-06-08_16-59-25_260595134347_rgbf000098-resize_2-target.png,125,2.8815,3,3828,135,feet,jsons/VE125_randls_28_rotated.json,1126439,1293378,37,Woman
59,337840,DepthScenes,duration_manipulation_targetAtFixation,jsons/VE125_randls_28_rotated.json,http://54.235.29.9/FacialAge/BNav_EC2/DepthDuration/v2_depth_duration_MTurk/v2_DepthDuration_HTML.html#31,31,1364,625,1364,768,8-21-2022,10-7-32,60,depth_duration_stimuli/000780_2014-06-08_22-28-29_260595134347_rgbf000126-resize_1/000780_2014-06-08_22-28-29_260595134347_rgbf000126-resize_1-target.png,125,3.3825,6,7355,134,feet,jsons/VE125_randls_28_rotated.json,1126439,1293378,37,Woman
60,337840,DepthScenes,duration_manipulation_targetAtFixation,jsons/VE125_randls_28_rotated.json,http://54.235.29.9/FacialAge/BNav_EC2/DepthDuration/v2_depth_duration_MTurk/v2_DepthDuration_HTML.html#31,31,1364,625,1364,768,8-21-2022,10-7-32,61,depth_duration_stimuli/002445_2014-06-28_20-32-16_260595134347_rgbf000029-resize_4/002445_2014-06-28_20-32-16_260595134347_rgbf000029-resize_4-target.png,125,2.5315,3,6243,82,feet,jsons/VE125_randls_28_rotated.json,1126439,1293378,37,Woman
61,337840,DepthScenes,duration_manipulation_targetAtFixation,jsons/VE125_randls_28_rotated.json,http://54.235.29.9/FacialAge/BNav_EC2/DepthDuration/v2_depth_duration_MTurk/v2_DepthDuration_HTML.html#31,31,1364,625,1364,768,8-21-2022,10-7-32,62,depth_duration_stimuli/002758_2014-06-22_19-11-20_094959634447_rgbf000128-resize_1/002758_2014-06-22_19-11-20_094959634447_rgbf000128-resize_1-target.png,125,2.555,3,6262,126,feet,jsons/VE125_randls_28_rotated.json,1126439,1293378,37,Woman
62,337840,DepthScenes,duration_manipulation_targetAtFixation,jsons/VE125_randls_28_rotated.json,http://54.235.29.9/FacialAge/BNav_EC2/DepthDuration/v2_depth_duration_MTurk/v2_DepthDuration_HTML.html#31,31,1364,625,1364,768,8-21-2022,10-7-32,63,depth_duration_stimuli/002630_2014-06-24_14-47-50_094959634447_rgbf000055-resize_1/002630_2014-06-24_14-47-50_094959634447_rgbf000055-resize_1-target.png,125,3.0095,6,3097,127,feet,jsons/VE125_randls_28_rotated.json,1126439,1293378,37,Woman
63,337840,DepthScenes,duration_manipulation_targetAtFixation,jsons/VE125_randls_28_rotated.json,http://54.235.29.9/FacialAge/BNav_EC2/DepthDuration/v2_depth_duration_MTurk/v2_DepthDuration_HTML.html#31,31,1364,625,1364,768,8-21-2022,10-7-32,64,depth_duration_stimuli/002953_2014-06-08_17-32-18_094959634447_rgbf000059-resize_5/002953_2014-06-08_17-32-18_094959634447_rgbf000059-resize_5-target.png,125,1.551,5,6066,126,feet,jsons/VE125_randls_28_rotated.json,1126439,1293378,37,Woman
64,337840,DepthScenes,duration_manipulation_targetAtFixation,jsons/VE125_randls_28_rotated.json,http://54.235.29.9/FacialAge/BNav_EC2/DepthDuration/v2_depth_duration_MTurk/v2_DepthDuration_HTML.html#31,31,1364,625,1364,768,8-21-2022,10-7-32,65,depth_duration_stimuli/000878_2014-06-08_22-52-45_260595134347_rgbf000045-resize_2/000878_2014-06-08_22-52-45_260595134347_rgbf000045-resize_2-target.png,125,2.092,6,4343,121,feet,jsons/VE125_randls_28_rotated.json,1126439,1293378,37,Woman
65,337840,DepthScenes,duration_manipulation_targetAtFixation,jsons/VE125_randls_28_rotated.json,http://54.235.29.9/FacialAge/BNav_EC2/DepthDuration/v2_depth_duration_MTurk/v2_DepthDuration_HTML.html#31,31,1364,625,1364,768,8-21-2022,10-7-32,66,depth_duration_stimuli/001540_2014-06-20_17-01-05_260595134347_rgbf000086-resize_2/001540_2014-06-20_17-01-05_260595134347_rgbf000086-resize-original.jpg,125,1.459,0,7509,151,feet,jsons/VE125_randls_28_rotated.json,1126439,1293378,37,Woman
66,337840,DepthScenes,duration_manipulation_targetAtFixation,jsons/VE125_randls_28_rotated.json,http://54.235.29.9/FacialAge/BNav_EC2/DepthDuration/v2_depth_duration_MTurk/v2_DepthDuration_HTML.html#31,31,1364,625,1364,768,8-21-2022,10-7-32,67,depth_duration_stimuli/002344_2014-06-28_20-06-29_260595134347_rgbf000030-resize_1/002344_2014-06-28_20-06-29_260595134347_rgbf000030-resize_1-target.png,125,1.5795,2,5565,158,feet,jsons/VE125_randls_28_rotated.json,1126439,1293378,37,Woman
67,337840,DepthScenes,duration_manipulation_targetAtFixation,jsons/VE125_randls_28_rotated.json,http://54.235.29.9/FacialAge/BNav_EC2/DepthDuration/v2_depth_duration_MTurk/v2_DepthDuration_HTML.html#31,31,1364,625,1364,768,8-21-2022,10-7-32,68,depth_duration_stimuli/002725_2014-06-22_11-47-51_094959634447_rgbf000070-resize_1/002725_2014-06-22_11-47-51_094959634447_rgbf000070-resize_1-target.png,125,2.195,0,3048,128,feet,jsons/VE125_randls_28_rotated.json,1126439,1293378,37,Woman
68,337840,DepthScenes,duration_manipulation_targetAtFixation,jsons/VE125_randls_28_rotated.json,http://54.235.29.9/FacialAge/BNav_EC2/DepthDuration/v2_depth_duration_MTurk/v2_DepthDuration_HTML.html#31,31,1364,625,1364,768,8-21-2022,10-7-32,69,depth_duration_stimuli/000549_2014-06-08_22-10-24_260595134347_rgbf000247-resize_3/000549_2014-06-08_22-10-24_260595134347_rgbf000247-resize_3-target.png,125,1.841,2,4975,123,feet,jsons/VE125_randls_28_rotated.json,1126439,1293378,37,Woman
69,337840,DepthScenes,duration_manipulation_targetAtFixation,jsons/VE125_randls_28_rotated.json,http://54.235.29.9/FacialAge/BNav_EC2/DepthDuration/v2_depth_duration_MTurk/v2_DepthDuration_HTML.html#31,31,1364,625,1364,768,8-21-2022,10-7-32,70,depth_duration_stimuli/001055_2014-06-08_18-45-35_260595134347_rgbf000111-resize_4/001055_2014-06-08_18-45-35_260595134347_rgbf000111-resize_4-target.png,125,2.4290000000000003,0,3737,126,feet,jsons/VE125_randls_28_rotated.json,1126439,1293378,37,Woman
70,337840,DepthScenes,duration_manipulation_targetAtFixation,jsons/VE125_randls_28_rotated.json,http://54.235.29.9/FacialAge/BNav_EC2/DepthDuration/v2_depth_duration_MTurk/v2_DepthDuration_HTML.html#31,31,1364,625,1364,768,8-21-2022,10-7-32,71,depth_duration_stimuli/001516_2014-06-20_16-25-09_260595134347_rgbf000076-resize_2/001516_2014-06-20_16-25-09_260595134347_rgbf000076-resize_2-target.png,125,1.7445,5,4656,125,feet,jsons/VE125_randls_28_rotated.json,1126439,1293378,37,Woman
71,337840,DepthScenes,duration_manipulation_targetAtFixation,jsons/VE125_randls_28_rotated.json,http://54.235.29.9/FacialAge/BNav_EC2/DepthDuration/v2_depth_duration_MTurk/v2_DepthDuration_HTML.html#31,31,1364,625,1364,768,8-21-2022,10-7-32,72,depth_duration_stimuli/002118_2014-06-25_20-32-08_260595134347_rgbf000078-resize_1/002118_2014-06-25_20-32-08_260595134347_rgbf000078-resize_1-target.png,125,2.6460000000000004,0,5329,128,feet,jsons/VE125_randls_28_rotated.json,1126439,1293378,37,Woman
72,337840,DepthScenes,duration_manipulation_targetAtFixation,jsons/VE125_randls_28_rotated.json,http://54.235.29.9/FacialAge/BNav_EC2/DepthDuration/v2_depth_duration_MTurk/v2_DepthDuration_HTML.html#31,31,1364,625,1364,768,8-21-2022,10-7-32,73,depth_duration_stimuli/001828_2014-06-26_21-40-03_260595134347_rgbf000024-resize_0/001828_2014-06-26_21-40-03_260595134347_rgbf000024-resize_0-target.png,125,4.8260000000000005,5,4816,161,feet,jsons/VE125_randls_28_rotated.json,1126439,1293378,37,Woman
73,337840,DepthScenes,duration_manipulation_targetAtFixation,jsons/VE125_randls_28_rotated.json,http://54.235.29.9/FacialAge/BNav_EC2/DepthDuration/v2_depth_duration_MTurk/v2_DepthDuration_HTML.html#31,31,1364,625,1364,768,8-21-2022,10-7-32,74,depth_duration_stimuli/000009_2014-05-26_14-32-05_260595134347_rgbf000034-resize_3/000009_2014-05-26_14-32-05_260595134347_rgbf000034-resize_3-target.png,125,3.8715,6,3749,126,feet,jsons/VE125_randls_28_rotated.json,1126439,1293378,37,Woman
74,337840,DepthScenes,duration_manipulation_targetAtFixation,jsons/VE125_randls_28_rotated.json,http://54.235.29.9/FacialAge/BNav_EC2/DepthDuration/v2_depth_duration_MTurk/v2_DepthDuration_HTML.html#31,31,1364,625,1364,768,8-21-2022,10-7-32,75,depth_duration_stimuli/000109_2014-05-14_23-41-52_260595134347_rgbf000035-resize_9/000109_2014-05-14_23-41-52_260595134347_rgbf000035-resize_9-target.png,125,1.3545,4,4316,123,feet,jsons/VE125_randls_28_rotated.json,1126439,1293378,37,Woman
75,337840,DepthScenes,duration_manipulation_targetAtFixation,jsons/VE125_randls_28_rotated.json,http://54.235.29.9/FacialAge/BNav_EC2/DepthDuration/v2_depth_duration_MTurk/v2_DepthDuration_HTML.html#31,31,1364,625,1364,768,8-21-2022,10-7-32,76,depth_duration_stimuli/000470_2014-06-09_19-42-40_260595134347_rgbf000094-resize_1/000470_2014-06-09_19-42-40_260595134347_rgbf000094-resize_1-target.png,125,1.831,0,3002,130,feet,jsons/VE125_randls_28_rotated.json,1126439,1293378,37,Woman
76,337840,DepthScenes,duration_manipulation_targetAtFixation,jsons/VE125_randls_28_rotated.json,http://54.235.29.9/FacialAge/BNav_EC2/DepthDuration/v2_depth_duration_MTurk/v2_DepthDuration_HTML.html#31,31,1364,625,1364,768,8-21-2022,10-7-32,77,depth_duration_stimuli/001815_2014-06-26_20-52-55_260595134347_rgbf000020-resize_0/001815_2014-06-26_20-52-55_260595134347_rgbf000020-resize_0-target.png,125,3.3865,6,4684,121,feet,jsons/VE125_randls_28_rotated.json,1126439,1293378,37,Woman
77,337840,DepthScenes,duration_manipulation_targetAtFixation,jsons/VE125_randls_28_rotated.json,http://54.235.29.9/FacialAge/BNav_EC2/DepthDuration/v2_depth_duration_MTurk/v2_DepthDuration_HTML.html#31,31,1364,625,1364,768,8-21-2022,10-7-32,78,depth_duration_stimuli/001808_2014-06-26_20-50-58_260595134347_rgbf000029-resize_1/001808_2014-06-26_20-50-58_260595134347_rgbf000029-resize_1-target.png,125,4.249,0,3125,132,feet,jsons/VE125_randls_28_rotated.json,1126439,1293378,37,Woman
78,337840,DepthScenes,duration_manipulation_targetAtFixation,jsons/VE125_randls_28_rotated.json,http://54.235.29.9/FacialAge/BNav_EC2/DepthDuration/v2_depth_duration_MTurk/v2_DepthDuration_HTML.html#31,31,1364,625,1364,768,8-21-2022,10-7-32,79,depth_duration_stimuli/000502_2014-06-08_23-02-32_260595134347_rgbf000063-resize_4/000502_2014-06-08_23-02-32_260595134347_rgbf000063-resize_4-target.png,125,2.431,4,6506,26,feet,jsons/VE125_randls_28_rotated.json,1126439,1293378,37,Woman
79,337840,DepthScenes,duration_manipulation_targetAtFixation,jsons/VE125_randls_28_rotated.json,http://54.235.29.9/FacialAge/BNav_EC2/DepthDuration/v2_depth_duration_MTurk/v2_DepthDuration_HTML.html#31,31,1364,625,1364,768,8-21-2022,10-7-32,80,depth_duration_stimuli/001199_2014-06-17_16-03-48_260595134347_rgbf000077-resize_0/001199_2014-06-17_16-03-48_260595134347_rgbf000077-resize_0-target.png,125,3.4375,6,4401,130,feet,jsons/VE125_randls_28_rotated.json,1126439,1293378,37,Woman
80,337840,DepthScenes,duration_manipulation_targetAtFixation,jsons/VE125_randls_28_rotated.json,http://54.235.29.9/FacialAge/BNav_EC2/DepthDuration/v2_depth_duration_MTurk/v2_DepthDuration_HTML.html#31,31,1364,625,1364,768,8-21-2022,10-7-32,81,depth_duration_stimuli/003048_2014-06-15_13-49-43_094959634447_rgbf000150-resize_1/003048_2014-06-15_13-49-43_094959634447_rgbf000150-resize_1-target.png,125,4.0035,6,10103,136,feet,jsons/VE125_randls_28_rotated.json,1126439,1293378,37,Woman
81,337840,DepthScenes,duration_manipulation_targetAtFixation,jsons/VE125_randls_28_rotated.json,http://54.235.29.9/FacialAge/BNav_EC2/DepthDuration/v2_depth_duration_MTurk/v2_DepthDuration_HTML.html#31,31,1364,625,1364,768,8-21-2022,10-7-32,82,depth_duration_stimuli/002043_2014-06-24_20-29-38_260595134347_rgbf000039-resize_4/002043_2014-06-24_20-29-38_260595134347_rgbf000039-resize_4-target.png,125,2.8435,5,4126,116,feet,jsons/VE125_randls_28_rotated.json,1126439,1293378,37,Woman
82,337840,DepthScenes,duration_manipulation_targetAtFixation,jsons/VE125_randls_28_rotated.json,http://54.235.29.9/FacialAge/BNav_EC2/DepthDuration/v2_depth_duration_MTurk/v2_DepthDuration_HTML.html#31,31,1364,625,1364,768,8-21-2022,10-7-32,83,depth_duration_stimuli/000691_2014-06-08_13-08-50_260595134347_rgbf000132-resize_3/000691_2014-06-08_13-08-50_260595134347_rgbf000132-resize_3-target.png,125,4.1530000000000005,6,5615,150,feet,jsons/VE125_randls_28_rotated.json,1126439,1293378,37,Woman
83,337840,DepthScenes,duration_manipulation_targetAtFixation,jsons/VE125_randls_28_rotated.json,http://54.235.29.9/FacialAge/BNav_EC2/DepthDuration/v2_depth_duration_MTurk/v2_DepthDuration_HTML.html#31,31,1364,625,1364,768,8-21-2022,10-7-32,84,depth_duration_stimuli/002213_2014-06-28_18-37-58_260595134347_rgbf000055-resize_1/002213_2014-06-28_18-37-58_260595134347_rgbf000055-resize_1-target.png,125,3.62,7,3347,123,feet,jsons/VE125_randls_28_rotated.json,1126439,1293378,37,Woman
84,337840,DepthScenes,duration_manipulation_targetAtFixation,jsons/VE125_randls_28_rotated.json,http://54.235.29.9/FacialAge/BNav_EC2/DepthDuration/v2_depth_duration_MTurk/v2_DepthDuration_HTML.html#31,31,1364,625,1364,768,8-21-2022,10-7-32,85,depth_duration_stimuli/001235_2014-06-17_16-37-36_260595134347_rgbf000084-resize_4/001235_2014-06-17_16-37-36_260595134347_rgbf000084-resize_4-target.png,125,3.6605,5,4783,123,feet,jsons/VE125_randls_28_rotated.json,1126439,1293378,37,Woman
85,337840,DepthScenes,duration_manipulation_targetAtFixation,jsons/VE125_randls_28_rotated.json,http://54.235.29.9/FacialAge/BNav_EC2/DepthDuration/v2_depth_duration_MTurk/v2_DepthDuration_HTML.html#31,31,1364,625,1364,768,8-21-2022,10-7-32,86,depth_duration_stimuli/000788_2014-06-08_22-34-36_260595134347_rgbf000131-resize_1/000788_2014-06-08_22-34-36_260595134347_rgbf000131-resize_1-target.png,125,3.359,5,3006,126,feet,jsons/VE125_randls_28_rotated.json,1126439,1293378,37,Woman
86,337840,DepthScenes,duration_manipulation_targetAtFixation,jsons/VE125_randls_28_rotated.json,http://54.235.29.9/FacialAge/BNav_EC2/DepthDuration/v2_depth_duration_MTurk/v2_DepthDuration_HTML.html#31,31,1364,625,1364,768,8-21-2022,10-7-32,87,depth_duration_stimuli/002875_2014-06-01_15-19-00_094959634447_rgbf000151-resize_1/002875_2014-06-01_15-19-00_094959634447_rgbf000151-resize_1-target.png,125,1.9675,5,7256,239,feet,jsons/VE125_randls_28_rotated.json,1126439,1293378,37,Woman
87,337840,DepthScenes,duration_manipulation_targetAtFixation,jsons/VE125_randls_28_rotated.json,http://54.235.29.9/FacialAge/BNav_EC2/DepthDuration/v2_depth_duration_MTurk/v2_DepthDuration_HTML.html#31,31,1364,625,1364,768,8-21-2022,10-7-32,88,depth_duration_stimuli/001011_2014-06-08_23-18-54_260595134347_rgbf000044-resize_4/001011_2014-06-08_23-18-54_260595134347_rgbf000044-resize_4-target.png,125,2.4730000000000003,5,4163,172,feet,jsons/VE125_randls_28_rotated.json,1126439,1293378,37,Woman
88,337840,DepthScenes,duration_manipulation_targetAtFixation,jsons/VE125_randls_28_rotated.json,http://54.235.29.9/FacialAge/BNav_EC2/DepthDuration/v2_depth_duration_MTurk/v2_DepthDuration_HTML.html#31,31,1364,625,1364,768,8-21-2022,10-7-32,89,depth_duration_stimuli/002637_2014-06-24_14-51-13_094959634447_rgbf000066-resize_4/002637_2014-06-24_14-51-13_094959634447_rgbf000066-resize_4-target.png,125,1.9955,4,6725,123,feet,jsons/VE125_randls_28_rotated.json,1126439,1293378,37,Woman
89,337840,DepthScenes,duration_manipulation_targetAtFixation,jsons/VE125_randls_28_rotated.json,http://54.235.29.9/FacialAge/BNav_EC2/DepthDuration/v2_depth_duration_MTurk/v2_DepthDuration_HTML.html#31,31,1364,625,1364,768,8-21-2022,10-7-32,90,depth_duration_stimuli/003534_2014-05-22_15-06-10_094959634447_rgbf000102-resize_4/003534_2014-05-22_15-06-10_094959634447_rgbf000102-resize_4-target.png,125,1.426,0,3873,125,feet,jsons/VE125_randls_28_rotated.json,1126439,1293378,37,Woman
90,337840,DepthScenes,duration_manipulation_targetAtFixation,jsons/VE125_randls_28_rotated.json,http://54.235.29.9/FacialAge/BNav_EC2/DepthDuration/v2_depth_duration_MTurk/v2_DepthDuration_HTML.html#31,31,1364,625,1364,768,8-21-2022,10-7-32,91,depth_duration_stimuli/002805_2014-06-22_19-54-03_094959634447_rgbf000079-resize_1/002805_2014-06-22_19-54-03_094959634447_rgbf000079-resize_1-target.png,125,3.1439999999999997,3,4959,137,feet,jsons/VE125_randls_28_rotated.json,1126439,1293378,37,Woman
91,337840,DepthScenes,duration_manipulation_targetAtFixation,jsons/VE125_randls_28_rotated.json,http://54.235.29.9/FacialAge/BNav_EC2/DepthDuration/v2_depth_duration_MTurk/v2_DepthDuration_HTML.html#31,31,1364,625,1364,768,8-21-2022,10-7-32,92,depth_duration_stimuli/000906_2014-06-08_13-35-43_260595134347_rgbf000155-resize_1/000906_2014-06-08_13-35-43_260595134347_rgbf000155-resize_1-target.png,125,2.8489999999999998,0,3083,122,feet,jsons/VE125_randls_28_rotated.json,1126439,1293378,37,Woman
92,337840,DepthScenes,duration_manipulation_targetAtFixation,jsons/VE125_randls_28_rotated.json,http://54.235.29.9/FacialAge/BNav_EC2/DepthDuration/v2_depth_duration_MTurk/v2_DepthDuration_HTML.html#31,31,1364,625,1364,768,8-21-2022,10-7-32,93,depth_duration_stimuli/000103_2014-05-14_22-01-17_260595134347_rgbf000152-resize_5/000103_2014-05-14_22-01-17_260595134347_rgbf000152-resize_5-target.png,125,1.993,5,5528,219,feet,jsons/VE125_randls_28_rotated.json,1126439,1293378,37,Woman
93,337840,DepthScenes,duration_manipulation_targetAtFixation,jsons/VE125_randls_28_rotated.json,http://54.235.29.9/FacialAge/BNav_EC2/DepthDuration/v2_depth_duration_MTurk/v2_DepthDuration_HTML.html#31,31,1364,625,1364,768,8-21-2022,10-7-32,94,depth_duration_stimuli/001555_2014-06-20_17-12-10_260595134347_rgbf000065-resize_4/001555_2014-06-20_17-12-10_260595134347_rgbf000065-resize_4-target.png,125,1.633,2,6143,126,feet,jsons/VE125_randls_28_rotated.json,1126439,1293378,37,Woman
94,337840,DepthScenes,duration_manipulation_targetAtFixation,jsons/VE125_randls_28_rotated.json,http://54.235.29.9/FacialAge/BNav_EC2/DepthDuration/v2_depth_duration_MTurk/v2_DepthDuration_HTML.html#31,31,1364,625,1364,768,8-21-2022,10-7-32,95,depth_duration_stimuli/002678_2014-06-13_16-15-32_094959634447_rgbf000151-resize_6/002678_2014-06-13_16-15-32_094959634447_rgbf000151-resize_6-target.png,125,2.1830000000000003,5,7837,126,feet,jsons/VE125_randls_28_rotated.json,1126439,1293378,37,Woman
95,337840,DepthScenes,duration_manipulation_targetAtFixation,jsons/VE125_randls_28_rotated.json,http://54.235.29.9/FacialAge/BNav_EC2/DepthDuration/v2_depth_duration_MTurk/v2_DepthDuration_HTML.html#31,31,1364,625,1364,768,8-21-2022,10-7-32,96,depth_duration_stimuli/000368_2014-06-09_15-53-01_260595134347_rgbf000155-resize_2/000368_2014-06-09_15-53-01_260595134347_rgbf000155-resize_2-target.png,125,2.4859999999999998,3,6013,143,feet,jsons/VE125_randls_28_rotated.json,1126439,1293378,37,Woman
96,337840,DepthScenes,duration_manipulation_targetAtFixation,jsons/VE125_randls_28_rotated.json,http://54.235.29.9/FacialAge/BNav_EC2/DepthDuration/v2_depth_duration_MTurk/v2_DepthDuration_HTML.html#31,31,1364,625,1364,768,8-21-2022,10-7-32,97,depth_duration_stimuli/002568_2014-06-24_13-59-21_094959634447_rgbf000062-resize_4/002568_2014-06-24_13-59-21_094959634447_rgbf000062-resize_4-target.png,125,3.015,4,7953,120,feet,jsons/VE125_randls_28_rotated.json,1126439,1293378,37,Woman
97,337840,DepthScenes,duration_manipulation_targetAtFixation,jsons/VE125_randls_28_rotated.json,http://54.235.29.9/FacialAge/BNav_EC2/DepthDuration/v2_depth_duration_MTurk/v2_DepthDuration_HTML.html#31,31,1364,625,1364,768,8-21-2022,10-7-32,98,depth_duration_stimuli/003492_2014-05-21_15-50-55_094959634447_rgbf000828-resize_1/003492_2014-05-21_15-50-55_094959634447_rgbf000828-resize_1-target.png,125,4.06875,5,3216,133,feet,jsons/VE125_randls_28_rotated.json,1126439,1293378,37,Woman
98,337840,DepthScenes,duration_manipulation_targetAtFixation,jsons/VE125_randls_28_rotated.json,http://54.235.29.9/FacialAge/BNav_EC2/DepthDuration/v2_depth_duration_MTurk/v2_DepthDuration_HTML.html#31,31,1364,625,1364,768,8-21-2022,10-7-32,99,depth_duration_stimuli/001222_2014-06-17_16-24-06_260595134347_rgbf000073-resize_0/001222_2014-06-17_16-24-06_260595134347_rgbf000073-resize-original.jpg,125,1.4385,0,6772,127,feet,jsons/VE125_randls_28_rotated.json,1126439,1293378,37,Woman
99,337840,DepthScenes,duration_manipulation_targetAtFixation,jsons/VE125_randls_28_rotated.json,http://54.235.29.9/FacialAge/BNav_EC2/DepthDuration/v2_depth_duration_MTurk/v2_DepthDuration_HTML.html#31,31,1364,625,1364,768,8-21-2022,10-7-32,100,depth_duration_stimuli/000457_2014-06-08_16-52-43_260595134347_rgbf000199-resize_1/000457_2014-06-08_16-52-43_260595134347_rgbf000199-resize_1-target.png,125,3.6489999999999996,5,8511,119,feet,jsons/VE125_randls_28_rotated.json,1126439,1293378,37,Woman
100,337840,DepthScenes,duration_manipulation_targetAtFixation,jsons/VE125_randls_28_rotated.json,http://54.235.29.9/FacialAge/BNav_EC2/DepthDuration/v2_depth_duration_MTurk/v2_DepthDuration_HTML.html#31,31,1364,625,1364,768,8-21-2022,10-7-32,101,depth_duration_stimuli/000929_2014-06-09_16-33-19_260595134347_rgbf000139-resize_0/000929_2014-06-09_16-33-19_260595134347_rgbf000139-resize_0-target.png,125,2.8680000000000003,3,3723,126,feet,jsons/VE125_randls_28_rotated.json,1126439,1293378,37,Woman
101,337840,DepthScenes,duration_manipulation_targetAtFixation,jsons/VE125_randls_28_rotated.json,http://54.235.29.9/FacialAge/BNav_EC2/DepthDuration/v2_depth_duration_MTurk/v2_DepthDuration_HTML.html#31,31,1364,625,1364,768,8-21-2022,10-7-32,102,depth_duration_stimuli/001100_2014-06-15_17-46-26_260595134347_rgbf000225-resize_2/001100_2014-06-15_17-46-26_260595134347_rgbf000225-resize_2-target.png,125,2.24,3,9477,129,feet,jsons/VE125_randls_28_rotated.json,1126439,1293378,37,Woman
102,337840,DepthScenes,duration_manipulation_targetAtFixation,jsons/VE125_randls_28_rotated.json,http://54.235.29.9/FacialAge/BNav_EC2/DepthDuration/v2_depth_duration_MTurk/v2_DepthDuration_HTML.html#31,31,1364,625,1364,768,8-21-2022,10-7-32,103,depth_duration_stimuli/002784_2014-06-22_19-26-30_094959634447_rgbf000083-resize_3/002784_2014-06-22_19-26-30_094959634447_rgbf000083-resize_3-target.png,125,1.8046666666667,2,3926,123,feet,jsons/VE125_randls_28_rotated.json,1126439,1293378,37,Woman
103,337840,DepthScenes,duration_manipulation_targetAtFixation,jsons/VE125_randls_28_rotated.json,http://54.235.29.9/FacialAge/BNav_EC2/DepthDuration/v2_depth_duration_MTurk/v2_DepthDuration_HTML.html#31,31,1364,625,1364,768,8-21-2022,10-7-32,104,depth_duration_stimuli/000677_2014-06-08_23-10-32_260595134347_rgbf000158-resize_6/000677_2014-06-08_23-10-32_260595134347_rgbf000158-resize_6-target.png,125,3.556,4,8000,123,feet,jsons/VE125_randls_28_rotated.json,1126439,1293378,37,Woman
104,337840,DepthScenes,duration_manipulation_targetAtFixation,jsons/VE125_randls_28_rotated.json,http://54.235.29.9/FacialAge/BNav_EC2/DepthDuration/v2_depth_duration_MTurk/v2_DepthDuration_HTML.html#31,31,1364,625,1364,768,8-21-2022,10-7-32,105,depth_duration_stimuli/001029_2014-06-08_13-17-57_260595134347_rgbf000065-resize_1/001029_2014-06-08_13-17-57_260595134347_rgbf000065-resize_1-target.png,125,3.0835,4,3223,125,feet,jsons/VE125_randls_28_rotated.json,1126439,1293378,37,Woman
105,337840,DepthScenes,duration_manipulation_targetAtFixation,jsons/VE125_randls_28_rotated.json,http://54.235.29.9/FacialAge/BNav_EC2/DepthDuration/v2_depth_duration_MTurk/v2_DepthDuration_HTML.html#31,31,1364,625,1364,768,8-21-2022,10-7-32,106,depth_duration_stimuli/003129_2014-05-12_10-48-10_094959634447_rgbf000100-resize_0/003129_2014-05-12_10-48-10_094959634447_rgbf000100-resize_0-target.png,125,4.9305,2,5534,155,feet,jsons/VE125_randls_28_rotated.json,1126439,1293378,37,Woman
106,337840,DepthScenes,duration_manipulation_targetAtFixation,jsons/VE125_randls_28_rotated.json,http://54.235.29.9/FacialAge/BNav_EC2/DepthDuration/v2_depth_duration_MTurk/v2_DepthDuration_HTML.html#31,31,1364,625,1364,768,8-21-2022,10-7-32,107,depth_duration_stimuli/000414_2014-06-04_19-49-13_260595134347_rgbf000044-resize_0/000414_2014-06-04_19-49-13_260595134347_rgbf000044-resize_0-target.png,125,4.329,5,3777,204,feet,jsons/VE125_randls_28_rotated.json,1126439,1293378,37,Woman
107,337840,DepthScenes,duration_manipulation_targetAtFixation,jsons/VE125_randls_28_rotated.json,http://54.235.29.9/FacialAge/BNav_EC2/DepthDuration/v2_depth_duration_MTurk/v2_DepthDuration_HTML.html#31,31,1364,625,1364,768,8-21-2022,10-7-32,108,depth_duration_stimuli/003083_2014-06-15_15-21-03_094959634447_rgbf000063-resize_1/003083_2014-06-15_15-21-03_094959634447_rgbf000063-resize_1-target.png,125,4.1405,5,4566,130,feet,jsons/VE125_randls_28_rotated.json,1126439,1293378,37,Woman
108,337840,DepthScenes,duration_manipulation_targetAtFixation,jsons/VE125_randls_28_rotated.json,http://54.235.29.9/FacialAge/BNav_EC2/DepthDuration/v2_depth_duration_MTurk/v2_DepthDuration_HTML.html#31,31,1364,625,1364,768,8-21-2022,10-7-32,109,depth_duration_stimuli/000486_2014-06-09_20-47-20_260595134347_rgbf000143-resize_2/000486_2014-06-09_20-47-20_260595134347_rgbf000143-resize_2-target.png,125,4.8325,0,3251,146,feet,jsons/VE125_randls_28_rotated.json,1126439,1293378,37,Woman
109,337840,DepthScenes,duration_manipulation_targetAtFixation,jsons/VE125_randls_28_rotated.json,http://54.235.29.9/FacialAge/BNav_EC2/DepthDuration/v2_depth_duration_MTurk/v2_DepthDuration_HTML.html#31,31,1364,625,1364,768,8-21-2022,10-7-32,110,depth_duration_stimuli/002639_2014-06-24_14-51-37_094959634447_rgbf000074-resize_4/002639_2014-06-24_14-51-37_094959634447_rgbf000074-resize_4-target.png,125,4.0375,4,6356,149,feet,jsons/VE125_randls_28_rotated.json,1126439,1293378,37,Woman
110,337840,DepthScenes,duration_manipulation_targetAtFixation,jsons/VE125_randls_28_rotated.json,http://54.235.29.9/FacialAge/BNav_EC2/DepthDuration/v2_depth_duration_MTurk/v2_DepthDuration_HTML.html#31,31,1364,625,1364,768,8-21-2022,10-7-32,111,depth_duration_stimuli/003292_2014-05-14_21-53-49_094959634447_rgbf000100-resize_2/003292_2014-05-14_21-53-49_094959634447_rgbf000100-resize_2-target.png,125,3.4815,4,4068,127,feet,jsons/VE125_randls_28_rotated.json,1126439,1293378,37,Woman
111,337840,DepthScenes,duration_manipulation_targetAtFixation,jsons/VE125_randls_28_rotated.json,http://54.235.29.9/FacialAge/BNav_EC2/DepthDuration/v2_depth_duration_MTurk/v2_DepthDuration_HTML.html#31,31,1364,625,1364,768,8-21-2022,10-7-32,112,depth_duration_stimuli/003228_2014-05-14_13-42-35_094959634447_rgbf000101-resize_1/003228_2014-05-14_13-42-35_094959634447_rgbf000101-resize_1-target.png,125,1.9680000000000002,4,8736,124,feet,jsons/VE125_randls_28_rotated.json,1126439,1293378,37,Woman
112,337840,DepthScenes,duration_manipulation_targetAtFixation,jsons/VE125_randls_28_rotated.json,http://54.235.29.9/FacialAge/BNav_EC2/DepthDuration/v2_depth_duration_MTurk/v2_DepthDuration_HTML.html#31,31,1364,625,1364,768,8-21-2022,10-7-32,113,depth_duration_stimuli/002600_2014-06-24_14-27-04_094959634447_rgbf000074-resize_2/002600_2014-06-24_14-27-04_094959634447_rgbf000074-resize_2-target.png,125,2.7575,2,5749,129,feet,jsons/VE125_randls_28_rotated.json,1126439,1293378,37,Woman
113,337840,DepthScenes,duration_manipulation_targetAtFixation,jsons/VE125_randls_28_rotated.json,http://54.235.29.9/FacialAge/BNav_EC2/DepthDuration/v2_depth_duration_MTurk/v2_DepthDuration_HTML.html#31,31,1364,625,1364,768,8-21-2022,10-7-32,114,depth_duration_stimuli/002103_2014-06-25_20-00-40_260595134347_rgbf000049-resize_0/002103_2014-06-25_20-00-40_260595134347_rgbf000049-resize_0-target.png,125,4.105,4,6146,137,feet,jsons/VE125_randls_28_rotated.json,1126439,1293378,37,Woman
114,337840,DepthScenes,duration_manipulation_targetAtFixation,jsons/VE125_randls_28_rotated.json,http://54.235.29.9/FacialAge/BNav_EC2/DepthDuration/v2_depth_duration_MTurk/v2_DepthDuration_HTML.html#31,31,1364,625,1364,768,8-21-2022,10-7-32,115,depth_duration_stimuli/002039_2014-06-24_20-22-38_260595134347_rgbf000084-resize_1/002039_2014-06-24_20-22-38_260595134347_rgbf000084-resize_1-target.png,125,4.408,3,3822,126,feet,jsons/VE125_randls_28_rotated.json,1126439,1293378,37,Woman
115,337840,DepthScenes,duration_manipulation_targetAtFixation,jsons/VE125_randls_28_rotated.json,http://54.235.29.9/FacialAge/BNav_EC2/DepthDuration/v2_depth_duration_MTurk/v2_DepthDuration_HTML.html#31,31,1364,625,1364,768,8-21-2022,10-7-32,116,depth_duration_stimuli/002995_2014-06-15_12-31-26_094959634447_rgbf000150-resize_1/002995_2014-06-15_12-31-26_094959634447_rgbf000150-resize_1-target.png,125,3.8360000000000003,4,4845,128,feet,jsons/VE125_randls_28_rotated.json,1126439,1293378,37,Woman
116,337840,DepthScenes,duration_manipulation_targetAtFixation,jsons/VE125_randls_28_rotated.json,http://54.235.29.9/FacialAge/BNav_EC2/DepthDuration/v2_depth_duration_MTurk/v2_DepthDuration_HTML.html#31,31,1364,625,1364,768,8-21-2022,10-7-32,117,depth_duration_stimuli/002748_2014-06-22_19-07-22_094959634447_rgbf000078-resize_1/002748_2014-06-22_19-07-22_094959634447_rgbf000078-resize_1-target.png,125,4.6705,5,3489,210,feet,jsons/VE125_randls_28_rotated.json,1126439,1293378,37,Woman
117,337840,DepthScenes,duration_manipulation_targetAtFixation,jsons/VE125_randls_28_rotated.json,http://54.235.29.9/FacialAge/BNav_EC2/DepthDuration/v2_depth_duration_MTurk/v2_DepthDuration_HTML.html#31,31,1364,625,1364,768,8-21-2022,10-7-32,118,depth_duration_stimuli/001052_2014-06-08_18-24-54_260595134347_rgbf000130-resize_1/001052_2014-06-08_18-24-54_260595134347_rgbf000130-resize_1-target.png,125,4.1045,6,4296,126,feet,jsons/VE125_randls_28_rotated.json,1126439,1293378,37,Woman
118,337840,DepthScenes,duration_manipulation_targetAtFixation,jsons/VE125_randls_28_rotated.json,http://54.235.29.9/FacialAge/BNav_EC2/DepthDuration/v2_depth_duration_MTurk/v2_DepthDuration_HTML.html#31,31,1364,625,1364,768,8-21-2022,10-7-32,119,depth_duration_stimuli/002988_2014-06-15_12-24-20_094959634447_rgbf000150-resize_1/002988_2014-06-15_12-24-20_094959634447_rgbf000150-resize_1-target.png,125,4.7669999999999995,7,2774,122,feet,jsons/VE125_randls_28_rotated.json,1126439,1293378,37,Woman
119,337840,DepthScenes,duration_manipulation_targetAtFixation,jsons/VE125_randls_28_rotated.json,http://54.235.29.9/FacialAge/BNav_EC2/DepthDuration/v2_depth_duration_MTurk/v2_DepthDuration_HTML.html#31,31,1364,625,1364,768,8-21-2022,10-7-32,120,depth_duration_stimuli/000787_2014-06-08_22-33-53_260595134347_rgbf000175-resize_1/000787_2014-06-08_22-33-53_260595134347_rgbf000175-resize-original.jpg,125,4.784,0,8617,124,feet,jsons/VE125_randls_28_rotated.json,1126439,1293378,37,Woman
120,337840,DepthScenes,duration_manipulation_targetAtFixation,jsons/VE125_randls_28_rotated.json,http://54.235.29.9/FacialAge/BNav_EC2/DepthDuration/v2_depth_duration_MTurk/v2_DepthDuration_HTML.html#31,31,1364,625,1364,768,8-21-2022,10-7-32,121,depth_duration_stimuli/001571_2014-06-20_17-21-32_260595134347_rgbf000089-resize_1/001571_2014-06-20_17-21-32_260595134347_rgbf000089-resize_1-target.png,125,1.86,1,4258,127,feet,jsons/VE125_randls_28_rotated.json,1126439,1293378,37,Woman
121,337840,DepthScenes,duration_manipulation_targetAtFixation,jsons/VE125_randls_28_rotated.json,http://54.235.29.9/FacialAge/BNav_EC2/DepthDuration/v2_depth_duration_MTurk/v2_DepthDuration_HTML.html#31,31,1364,625,1364,768,8-21-2022,10-7-32,122,depth_duration_stimuli/002272_2014-06-28_18-53-56_260595134347_rgbf000067-resize_2/002272_2014-06-28_18-53-56_260595134347_rgbf000067-resize_2-target.png,125,1.138,0,2959,108,feet,jsons/VE125_randls_28_rotated.json,1126439,1293378,37,Woman
122,337840,DepthScenes,duration_manipulation_targetAtFixation,jsons/VE125_randls_28_rotated.json,http://54.235.29.9/FacialAge/BNav_EC2/DepthDuration/v2_depth_duration_MTurk/v2_DepthDuration_HTML.html#31,31,1364,625,1364,768,8-21-2022,10-7-32,123,depth_duration_stimuli/002545_2014-06-24_13-38-53_094959634447_rgbf000080-resize_4/002545_2014-06-24_13-38-53_094959634447_rgbf000080-resize_4-target.png,125,1.9205,3,3819,202,feet,jsons/VE125_randls_28_rotated.json,1126439,1293378,37,Woman
123,337840,DepthScenes,duration_manipulation_targetAtFixation,jsons/VE125_randls_28_rotated.json,http://54.235.29.9/FacialAge/BNav_EC2/DepthDuration/v2_depth_duration_MTurk/v2_DepthDuration_HTML.html#31,31,1364,625,1364,768,8-21-2022,10-7-32,124,depth_duration_stimuli/001092_2014-06-15_17-34-58_260595134347_rgbf000171-resize_3/001092_2014-06-15_17-34-58_260595134347_rgbf000171-resize_3-target.png,125,2.6935,0,2719,138,feet,jsons/VE125_randls_28_rotated.json,1126439,1293378,37,Woman
124,337840,DepthScenes,duration_manipulation_targetAtFixation,jsons/VE125_randls_28_rotated.json,http://54.235.29.9/FacialAge/BNav_EC2/DepthDuration/v2_depth_duration_MTurk/v2_DepthDuration_HTML.html#31,31,1364,625,1364,768,8-21-2022,10-7-32,125,depth_duration_stimuli/003079_2014-06-15_15-18-20_094959634447_rgbf000152-resize_8/003079_2014-06-15_15-18-20_094959634447_rgbf000152-resize_8-target.png,125,2.8775,5,4404,114,feet,jsons/VE125_randls_28_rotated.json,1126439,1293378,37,Woman
125,337840,DepthScenes,duration_manipulation_targetAtFixation,jsons/VE125_randls_28_rotated.json,http://54.235.29.9/FacialAge/BNav_EC2/DepthDuration/v2_depth_duration_MTurk/v2_DepthDuration_HTML.html#31,31,1364,625,1364,768,8-21-2022,10-7-32,126,depth_duration_stimuli/000506_2014-06-08_23-21-00_260595134347_rgbf000070-resize_7/000506_2014-06-08_23-21-00_260595134347_rgbf000070-resize_7-target.png,125,4.0585,4,4413,151,feet,jsons/VE125_randls_28_rotated.json,1126439,1293378,37,Woman
126,337840,DepthScenes,duration_manipulation_targetAtFixation,jsons/VE125_randls_28_rotated.json,http://54.235.29.9/FacialAge/BNav_EC2/DepthDuration/v2_depth_duration_MTurk/v2_DepthDuration_HTML.html#31,31,1364,625,1364,768,8-21-2022,10-7-32,127,depth_duration_stimuli/000556_2014-06-09_22-42-56_260595134347_rgbf000214-resize_1/000556_2014-06-09_22-42-56_260595134347_rgbf000214-resize_1-target.png,125,4.8415,4,8241,125,feet,jsons/VE125_randls_28_rotated.json,1126439,1293378,37,Woman
127,337840,DepthScenes,duration_manipulation_targetAtFixation,jsons/VE125_randls_28_rotated.json,http://54.235.29.9/FacialAge/BNav_EC2/DepthDuration/v2_depth_duration_MTurk/v2_DepthDuration_HTML.html#31,31,1364,625,1364,768,8-21-2022,10-7-32,128,depth_duration_stimuli/001158_2014-06-17_15-32-16_260595134347_rgbf000138-resize_2/001158_2014-06-17_15-32-16_260595134347_rgbf000138-resize_2-target.png,125,4.5315,5,3412,82,feet,jsons/VE125_randls_28_rotated.json,1126439,1293378,37,Woman
128,337840,DepthScenes,duration_manipulation_targetAtFixation,jsons/VE125_randls_28_rotated.json,http://54.235.29.9/FacialAge/BNav_EC2/DepthDuration/v2_depth_duration_MTurk/v2_DepthDuration_HTML.html#31,31,1364,625,1364,768,8-21-2022,10-7-32,129,depth_duration_stimuli/001214_2014-06-17_16-13-55_260595134347_rgbf000111-resize_0/001214_2014-06-17_16-13-55_260595134347_rgbf000111-resize_0-target.png,125,2.6505,2,5097,127,feet,jsons/VE125_randls_28_rotated.json,1126439,1293378,37,Woman
129,337840,DepthScenes,duration_manipulation_targetAtFixation,jsons/VE125_randls_28_rotated.json,http://54.235.29.9/FacialAge/BNav_EC2/DepthDuration/v2_depth_duration_MTurk/v2_DepthDuration_HTML.html#31,31,1364,625,1364,768,8-21-2022,10-7-32,130,depth_duration_stimuli/000810_2014-06-08_17-20-01_260595134347_rgbf000105-resize_0/000810_2014-06-08_17-20-01_260595134347_rgbf000105-resize_0-target.png,125,1.4865,2,3228,126,feet,jsons/VE125_randls_28_rotated.json,1126439,1293378,37,Woman
130,337840,DepthScenes,duration_manipulation_targetAtFixation,jsons/VE125_randls_28_rotated.json,http://54.235.29.9/FacialAge/BNav_EC2/DepthDuration/v2_depth_duration_MTurk/v2_DepthDuration_HTML.html#31,31,1364,625,1364,768,8-21-2022,10-7-32,131,depth_duration_stimuli/003490_2014-05-21_15-50-11_094959634447_rgbf000101-resize_3/003490_2014-05-21_15-50-11_094959634447_rgbf000101-resize_3-target.png,125,3.6445,4,4703,125,feet,jsons/VE125_randls_28_rotated.json,1126439,1293378,37,Woman
131,337840,DepthScenes,duration_manipulation_targetAtFixation,jsons/VE125_randls_28_rotated.json,http://54.235.29.9/FacialAge/BNav_EC2/DepthDuration/v2_depth_duration_MTurk/v2_DepthDuration_HTML.html#31,31,1364,625,1364,768,8-21-2022,10-7-32,132,depth_duration_stimuli/001175_2014-06-17_15-45-55_260595134347_rgbf000129-resize_4/001175_2014-06-17_15-45-55_260595134347_rgbf000129-resize_4-target.png,125,4.255,5,4369,110,feet,jsons/VE125_randls_28_rotated.json,1126439,1293378,37,Woman
132,337840,DepthScenes,duration_manipulation_targetAtFixation,jsons/VE125_randls_28_rotated.json,http://54.235.29.9/FacialAge/BNav_EC2/DepthDuration/v2_depth_duration_MTurk/v2_DepthDuration_HTML.html#31,31,1364,625,1364,768,8-21-2022,10-7-32,133,depth_duration_stimuli/002444_2014-06-28_20-32-08_260595134347_rgbf000027-resize_0/002444_2014-06-28_20-32-08_260595134347_rgbf000027-resize_0-target.png,125,4.388999999999999,4,5175,123,feet,jsons/VE125_randls_28_rotated.json,1126439,1293378,37,Woman
133,337840,DepthScenes,duration_manipulation_targetAtFixation,jsons/VE125_randls_28_rotated.json,http://54.235.29.9/FacialAge/BNav_EC2/DepthDuration/v2_depth_duration_MTurk/v2_DepthDuration_HTML.html#31,31,1364,625,1364,768,8-21-2022,10-7-32,134,depth_duration_stimuli/000436_2014-06-09_22-25-11_260595134347_rgbf000137-resize_1/000436_2014-06-09_22-25-11_260595134347_rgbf000137-resize_1-target.png,125,4.0705,4,2883,121,feet,jsons/VE125_randls_28_rotated.json,1126439,1293378,37,Woman
134,337840,DepthScenes,duration_manipulation_targetAtFixation,jsons/VE125_randls_28_rotated.json,http://54.235.29.9/FacialAge/BNav_EC2/DepthDuration/v2_depth_duration_MTurk/v2_DepthDuration_HTML.html#31,31,1364,625,1364,768,8-21-2022,10-7-32,135,depth_duration_stimuli/000375_2014-06-08_11-17-29_260595134347_rgbf000133-resize_2/000375_2014-06-08_11-17-29_260595134347_rgbf000133-resize-original.jpg,125,4.718,0,4178,126,feet,jsons/VE125_randls_28_rotated.json,1126439,1293378,37,Woman
135,337840,DepthScenes,duration_manipulation_targetAtFixation,jsons/VE125_randls_28_rotated.json,http://54.235.29.9/FacialAge/BNav_EC2/DepthDuration/v2_depth_duration_MTurk/v2_DepthDuration_HTML.html#31,31,1364,625,1364,768,8-21-2022,10-7-32,136,depth_duration_stimuli/001032_2014-06-08_13-23-17_260595134347_rgbf000021-resize_3/001032_2014-06-08_13-23-17_260595134347_rgbf000021-resize_3-target.png,125,3.2725,0,3663,118,feet,jsons/VE125_randls_28_rotated.json,1126439,1293378,37,Woman
136,337840,DepthScenes,duration_manipulation_targetAtFixation,jsons/VE125_randls_28_rotated.json,http://54.235.29.9/FacialAge/BNav_EC2/DepthDuration/v2_depth_duration_MTurk/v2_DepthDuration_HTML.html#31,31,1364,625,1364,768,8-21-2022,10-7-32,137,depth_duration_stimuli/001059_2014-06-08_21-53-27_260595134347_rgbf000061-resize_4/001059_2014-06-08_21-53-27_260595134347_rgbf000061-resize_4-target.png,125,2.4185,3,4560,143,feet,jsons/VE125_randls_28_rotated.json,1126439,1293378,37,Woman
137,337840,DepthScenes,duration_manipulation_targetAtFixation,jsons/VE125_randls_28_rotated.json,http://54.235.29.9/FacialAge/BNav_EC2/DepthDuration/v2_depth_duration_MTurk/v2_DepthDuration_HTML.html#31,31,1364,625,1364,768,8-21-2022,10-7-32,138,depth_duration_stimuli/003010_2014-06-15_12-54-35_094959634447_rgbf000112-resize_0/003010_2014-06-15_12-54-35_094959634447_rgbf000112-resize_0-target.png,125,3.1185,5,9468,140,feet,jsons/VE125_randls_28_rotated.json,1126439,1293378,37,Woman
138,337840,DepthScenes,duration_manipulation_targetAtFixation,jsons/VE125_randls_28_rotated.json,http://54.235.29.9/FacialAge/BNav_EC2/DepthDuration/v2_depth_duration_MTurk/v2_DepthDuration_HTML.html#31,31,1364,625,1364,768,8-21-2022,10-7-32,139,depth_duration_stimuli/001810_2014-06-26_20-51-35_260595134347_rgbf000040-resize_3/001810_2014-06-26_20-51-35_260595134347_rgbf000040-resize_3-target.png,125,2.2525,3,4903,129,feet,jsons/VE125_randls_28_rotated.json,1126439,1293378,37,Woman
139,337840,DepthScenes,duration_manipulation_targetAtFixation,jsons/VE125_randls_28_rotated.json,http://54.235.29.9/FacialAge/BNav_EC2/DepthDuration/v2_depth_duration_MTurk/v2_DepthDuration_HTML.html#31,31,1364,625,1364,768,8-21-2022,10-7-32,140,depth_duration_stimuli/000483_2014-06-09_20-41-45_260595134347_rgbf000116-resize_4/000483_2014-06-09_20-41-45_260595134347_rgbf000116-resize_4-target.png,125,1.337,2,8424,128,feet,jsons/VE125_randls_28_rotated.json,1126439,1293378,37,Woman
140,337840,DepthScenes,duration_manipulation_targetAtFixation,jsons/VE125_randls_28_rotated.json,http://54.235.29.9/FacialAge/BNav_EC2/DepthDuration/v2_depth_duration_MTurk/v2_DepthDuration_HTML.html#31,31,1364,625,1364,768,8-21-2022,10-7-32,141,depth_duration_stimuli/000469_2014-06-09_19-42-10_260595134347_rgbf000081-resize_1/000469_2014-06-09_19-42-10_260595134347_rgbf000081-resize_1-target.png,125,1.652,2,5153,119,feet,jsons/VE125_randls_28_rotated.json,1126439,1293378,37,Woman
141,337840,DepthScenes,duration_manipulation_targetAtFixation,jsons/VE125_randls_28_rotated.json,http://54.235.29.9/FacialAge/BNav_EC2/DepthDuration/v2_depth_duration_MTurk/v2_DepthDuration_HTML.html#31,31,1364,625,1364,768,8-21-2022,10-7-32,142,depth_duration_stimuli/000742_2014-06-08_18-48-09_260595134347_rgbf000164-resize_4/000742_2014-06-08_18-48-09_260595134347_rgbf000164-resize_4-target.png,125,4.632,5,7043,124,feet,jsons/VE125_randls_28_rotated.json,1126439,1293378,37,Woman
142,337840,DepthScenes,duration_manipulation_targetAtFixation,jsons/VE125_randls_28_rotated.json,http://54.235.29.9/FacialAge/BNav_EC2/DepthDuration/v2_depth_duration_MTurk/v2_DepthDuration_HTML.html#31,31,1364,625,1364,768,8-21-2022,10-7-32,143,depth_duration_stimuli/001066_2014-06-08_22-03-20_260595134347_rgbf000066-resize_4/001066_2014-06-08_22-03-20_260595134347_rgbf000066-resize_4-target.png,125,4.2330000000000005,6,4076,152,feet,jsons/VE125_randls_28_rotated.json,1126439,1293378,37,Woman
143,337840,DepthScenes,duration_manipulation_targetAtFixation,jsons/VE125_randls_28_rotated.json,http://54.235.29.9/FacialAge/BNav_EC2/DepthDuration/v2_depth_duration_MTurk/v2_DepthDuration_HTML.html#31,31,1364,625,1364,768,8-21-2022,10-7-32,144,depth_duration_stimuli/001447_2014-06-19_17-00-32_260595134347_rgbf000082-resize_5/001447_2014-06-19_17-00-32_260595134347_rgbf000082-resize_5-target.png,125,4.13775,5,4554,130,feet,jsons/VE125_randls_28_rotated.json,1126439,1293378,37,Woman
144,337840,DepthScenes,duration_manipulation_targetAtFixation,jsons/VE125_randls_28_rotated.json,http://54.235.29.9/FacialAge/BNav_EC2/DepthDuration/v2_depth_duration_MTurk/v2_DepthDuration_HTML.html#31,31,1364,625,1364,768,8-21-2022,10-7-32,145,depth_duration_stimuli/000447_2014-06-08_16-15-46_260595134347_rgbf000130-resize_1/000447_2014-06-08_16-15-46_260595134347_rgbf000130-resize_1-target.png,125,4.479,0,2543,123,feet,jsons/VE125_randls_28_rotated.json,1126439,1293378,37,Woman
145,337840,DepthScenes,duration_manipulation_targetAtFixation,jsons/VE125_randls_28_rotated.json,http://54.235.29.9/FacialAge/BNav_EC2/DepthDuration/v2_depth_duration_MTurk/v2_DepthDuration_HTML.html#31,31,1364,625,1364,768,8-21-2022,10-7-32,146,depth_duration_stimuli/000734_2014-06-08_17-39-11_260595134347_rgbf000128-resize_2/000734_2014-06-08_17-39-11_260595134347_rgbf000128-resize_2-target.png,125,4.098,5,5335,165,feet,jsons/VE125_randls_28_rotated.json,1126439,1293378,37,Woman
146,337840,DepthScenes,duration_manipulation_targetAtFixation,jsons/VE125_randls_28_rotated.json,http://54.235.29.9/FacialAge/BNav_EC2/DepthDuration/v2_depth_duration_MTurk/v2_DepthDuration_HTML.html#31,31,1364,625,1364,768,8-21-2022,10-7-32,147,depth_duration_stimuli/000739_2014-06-08_18-45-58_260595134347_rgbf000068-resize_1/000739_2014-06-08_18-45-58_260595134347_rgbf000068-resize_1-target.png,125,3.534,5,3476,134,feet,jsons/VE125_randls_28_rotated.json,1126439,1293378,37,Woman
147,337840,DepthScenes,duration_manipulation_targetAtFixation,jsons/VE125_randls_28_rotated.json,http://54.235.29.9/FacialAge/BNav_EC2/DepthDuration/v2_depth_duration_MTurk/v2_DepthDuration_HTML.html#31,31,1364,625,1364,768,8-21-2022,10-7-32,148,depth_duration_stimuli/000749_2014-06-08_21-55-06_260595134347_rgbf000070-resize_2/000749_2014-06-08_21-55-06_260595134347_rgbf000070-resize_2-target.png,125,2.331,4,5539,154,feet,jsons/VE125_randls_28_rotated.json,1126439,1293378,37,Woman
148,337840,DepthScenes,duration_manipulation_targetAtFixation,jsons/VE125_randls_28_rotated.json,http://54.235.29.9/FacialAge/BNav_EC2/DepthDuration/v2_depth_duration_MTurk/v2_DepthDuration_HTML.html#31,31,1364,625,1364,768,8-21-2022,10-7-32,149,depth_duration_stimuli/002788_2014-06-22_19-36-03_094959634447_rgbf000088-resize_2/002788_2014-06-22_19-36-03_094959634447_rgbf000088-resize_2-target.png,125,1.6465,3,5334,125,feet,jsons/VE125_randls_28_rotated.json,1126439,1293378,37,Woman
149,337840,DepthScenes,duration_manipulation_targetAtFixation,jsons/VE125_randls_28_rotated.json,http://54.235.29.9/FacialAge/BNav_EC2/DepthDuration/v2_depth_duration_MTurk/v2_DepthDuration_HTML.html#31,31,1364,625,1364,768,8-21-2022,10-7-32,150,depth_duration_stimuli/001584_2014-06-20_11-07-43_260595134347_rgbf000002-resize_1/001584_2014-06-20_11-07-43_260595134347_rgbf000002-resize_1-target.png,125,3.53,5,6382,139,feet,jsons/VE125_randls_28_rotated.json,1126439,1293378,37,Woman
150,337840,DepthScenes,duration_manipulation_targetAtFixation,jsons/VE125_randls_28_rotated.json,http://54.235.29.9/FacialAge/BNav_EC2/DepthDuration/v2_depth_duration_MTurk/v2_DepthDuration_HTML.html#31,31,1364,625,1364,768,8-21-2022,10-7-32,151,depth_duration_stimuli/003621_2014-05-23_18-06-08_094959634447_rgbf000101-resize_1/003621_2014-05-23_18-06-08_094959634447_rgbf000101-resize_1-target.png,125,3.9835,0,2951,159,feet,jsons/VE125_randls_28_rotated.json,1126439,1293378,37,Woman
151,337840,DepthScenes,duration_manipulation_targetAtFixation,jsons/VE125_randls_28_rotated.json,http://54.235.29.9/FacialAge/BNav_EC2/DepthDuration/v2_depth_duration_MTurk/v2_DepthDuration_HTML.html#31,31,1364,625,1364,768,8-21-2022,10-7-32,152,depth_duration_stimuli/000569_2014-06-09_22-51-47_260595134347_rgbf000141-resize_3/000569_2014-06-09_22-51-47_260595134347_rgbf000141-resize-original.jpg,125,4.512,0,4942,120,feet,jsons/VE125_randls_28_rotated.json,1126439,1293378,37,Woman
152,337840,DepthScenes,duration_manipulation_targetAtFixation,jsons/VE125_randls_28_rotated.json,http://54.235.29.9/FacialAge/BNav_EC2/DepthDuration/v2_depth_duration_MTurk/v2_DepthDuration_HTML.html#31,31,1364,625,1364,768,8-21-2022,10-7-32,153,depth_duration_stimuli/001094_2014-06-15_17-36-00_260595134347_rgbf000205-resize_0/001094_2014-06-15_17-36-00_260595134347_rgbf000205-resize_0-target.png,125,4.2175,5,5241,134,feet,jsons/VE125_randls_28_rotated.json,1126439,1293378,37,Woman
153,337840,DepthScenes,duration_manipulation_targetAtFixation,jsons/VE125_randls_28_rotated.json,http://54.235.29.9/FacialAge/BNav_EC2/DepthDuration/v2_depth_duration_MTurk/v2_DepthDuration_HTML.html#31,31,1364,625,1364,768,8-21-2022,10-7-32,154,depth_duration_stimuli/000692_2014-06-08_13-09-42_260595134347_rgbf000199-resize_2/000692_2014-06-08_13-09-42_260595134347_rgbf000199-resize_2-target.png,125,3.661,5,3014,124,feet,jsons/VE125_randls_28_rotated.json,1126439,1293378,37,Woman
154,337840,DepthScenes,duration_manipulation_targetAtFixation,jsons/VE125_randls_28_rotated.json,http://54.235.29.9/FacialAge/BNav_EC2/DepthDuration/v2_depth_duration_MTurk/v2_DepthDuration_HTML.html#31,31,1364,625,1364,768,8-21-2022,10-7-32,155,depth_duration_stimuli/002949_2014-06-26_15-57-42_094959634447_rgbf000079-resize_1/002949_2014-06-26_15-57-42_094959634447_rgbf000079-resize_1-target.png,125,1.8915,3,5339,121,feet,jsons/VE125_randls_28_rotated.json,1126439,1293378,37,Woman
155,337840,DepthScenes,duration_manipulation_targetAtFixation,jsons/VE125_randls_28_rotated.json,http://54.235.29.9/FacialAge/BNav_EC2/DepthDuration/v2_depth_duration_MTurk/v2_DepthDuration_HTML.html#31,31,1364,625,1364,768,8-21-2022,10-7-32,156,depth_duration_stimuli/000522_2014-06-08_13-35-06_260595134347_rgbf000244-resize_1/000522_2014-06-08_13-35-06_260595134347_rgbf000244-resize_1-target.png,125,2.3715,3,3137,124,feet,jsons/VE125_randls_28_rotated.json,1126439,1293378,37,Woman
156,337840,DepthScenes,duration_manipulation_targetAtFixation,jsons/VE125_randls_28_rotated.json,http://54.235.29.9/FacialAge/BNav_EC2/DepthDuration/v2_depth_duration_MTurk/v2_DepthDuration_HTML.html#31,31,1364,625,1364,768,8-21-2022,10-7-32,157,depth_duration_stimuli/003338_2014-05-20_11-01-23_094959634447_rgbf000051-resize_6/003338_2014-05-20_11-01-23_094959634447_rgbf000051-resize_6-target.png,125,1.693,2,5609,117,feet,jsons/VE125_randls_28_rotated.json,1126439,1293378,37,Woman
157,337840,DepthScenes,duration_manipulation_targetAtFixation,jsons/VE125_randls_28_rotated.json,http://54.235.29.9/FacialAge/BNav_EC2/DepthDuration/v2_depth_duration_MTurk/v2_DepthDuration_HTML.html#31,31,1364,625,1364,768,8-21-2022,10-7-32,158,depth_duration_stimuli/002509_2014-06-24_13-19-22_094959634447_rgbf000077-resize_0/002509_2014-06-24_13-19-22_094959634447_rgbf000077-resize_0-target.png,125,1.3065,4,3099,121,feet,jsons/VE125_randls_28_rotated.json,1126439,1293378,37,Woman
158,337840,DepthScenes,duration_manipulation_targetAtFixation,jsons/VE125_randls_28_rotated.json,http://54.235.29.9/FacialAge/BNav_EC2/DepthDuration/v2_depth_duration_MTurk/v2_DepthDuration_HTML.html#31,31,1364,625,1364,768,8-21-2022,10-7-32,159,depth_duration_stimuli/002414_2014-06-28_20-24-58_260595134347_rgbf000067-resize_4/002414_2014-06-28_20-24-58_260595134347_rgbf000067-resize_4-target.png,125,4.363,3,8371,116,feet,jsons/VE125_randls_28_rotated.json,1126439,1293378,37,Woman
159,337840,DepthScenes,duration_manipulation_targetAtFixation,jsons/VE125_randls_28_rotated.json,http://54.235.29.9/FacialAge/BNav_EC2/DepthDuration/v2_depth_duration_MTurk/v2_DepthDuration_HTML.html#31,31,1364,625,1364,768,8-21-2022,10-7-32,160,depth_duration_stimuli/000773_2014-06-08_22-24-54_260595134347_rgbf000093-resize_1/000773_2014-06-08_22-24-54_260595134347_rgbf000093-resize_1-target.png,125,4.973,5,4522,123,feet,jsons/VE125_randls_28_rotated.json,1126439,1293378,37,Woman
160,337840,DepthScenes,duration_manipulation_targetAtFixation,jsons/VE125_randls_28_rotated.json,http://54.235.29.9/FacialAge/BNav_EC2/DepthDuration/v2_depth_duration_MTurk/v2_DepthDuration_HTML.html#31,31,1364,625,1364,768,8-21-2022,10-7-32,161,depth_duration_stimuli/002467_2014-06-28_20-38-07_260595134347_rgbf000026-resize_2/002467_2014-06-28_20-38-07_260595134347_rgbf000026-resize_2-target.png,125,4.742,5,5149,131,feet,jsons/VE125_randls_28_rotated.json,1126439,1293378,37,Woman
161,337840,DepthScenes,duration_manipulation_targetAtFixation,jsons/VE125_randls_28_rotated.json,http://54.235.29.9/FacialAge/BNav_EC2/DepthDuration/v2_depth_duration_MTurk/v2_DepthDuration_HTML.html#31,31,1364,625,1364,768,8-21-2022,10-7-32,162,depth_duration_stimuli/002570_2014-06-24_13-59-54_094959634447_rgbf000059-resize_0/002570_2014-06-24_13-59-54_094959634447_rgbf000059-resize_0-target.png,125,4.037,0,3963,131,feet,jsons/VE125_randls_28_rotated.json,1126439,1293378,37,Woman
162,337840,DepthScenes,duration_manipulation_targetAtFixation,jsons/VE125_randls_28_rotated.json,http://54.235.29.9/FacialAge/BNav_EC2/DepthDuration/v2_depth_duration_MTurk/v2_DepthDuration_HTML.html#31,31,1364,625,1364,768,8-21-2022,10-7-32,163,depth_duration_stimuli/001392_2014-06-19_16-07-59_260595134347_rgbf000046-resize_1/001392_2014-06-19_16-07-59_260595134347_rgbf000046-resize_1-target.png,125,4.135,5,8192,217,feet,jsons/VE125_randls_28_rotated.json,1126439,1293378,37,Woman
163,337840,DepthScenes,duration_manipulation_targetAtFixation,jsons/VE125_randls_28_rotated.json,http://54.235.29.9/FacialAge/BNav_EC2/DepthDuration/v2_depth_duration_MTurk/v2_DepthDuration_HTML.html#31,31,1364,625,1364,768,8-21-2022,10-7-32,164,depth_duration_stimuli/001570_2014-06-20_17-21-09_260595134347_rgbf000135-resize_4/001570_2014-06-20_17-21-09_260595134347_rgbf000135-resize_4-target.png,125,4.467,4,5123,131,feet,jsons/VE125_randls_28_rotated.json,1126439,1293378,37,Woman
