,subjID,experimentName,versionName,sequenceName,url,selected_row,windowWidth,windowHeight,screenWidth,screenHeight,startDate,startTime,trial,stimulus,duration,actual_depth,depth_estimate,trial_RT,log_sceneDuration,unitSelection,seq_filepath,experimentTime,totalTime,age,gender
0,338576,DepthScenes,duration_manipulation_targetAtFixation,jsons/v1_VE1000_randls_48_rotated.json,http://54.235.29.9/FacialAge/BNav_EC2/DepthDuration/v2_depth_duration_MTurk/v2_DepthDuration_HTML.html#149,149,1366,768,1366,768,8-22-2022,8-0-32,1,depth_duration_stimuli/000709_2014-06-08_13-51-55_260595134347_rgbf000068-resize_3/000709_2014-06-08_13-51-55_260595134347_rgbf000068-resize_3-target.png,1000,1.8030000000000002,2,3968,993,meters,jsons/v1_VE1000_randls_48_rotated.json,761344,917038,51,Woman
1,338576,DepthScenes,duration_manipulation_targetAtFixation,jsons/v1_VE1000_randls_48_rotated.json,http://54.235.29.9/FacialAge/BNav_EC2/DepthDuration/v2_depth_duration_MTurk/v2_DepthDuration_HTML.html#149,149,1366,768,1366,768,8-22-2022,8-0-32,2,depth_duration_stimuli/002057_2014-06-24_21-00-13_260595134347_rgbf000120-resize_1/002057_2014-06-24_21-00-13_260595134347_rgbf000120-resize_1-target.png,1000,2.967,3,4505,1006,meters,jsons/v1_VE1000_randls_48_rotated.json,761344,917038,51,Woman
2,338576,DepthScenes,duration_manipulation_targetAtFixation,jsons/v1_VE1000_randls_48_rotated.json,http://54.235.29.9/FacialAge/BNav_EC2/DepthDuration/v2_depth_duration_MTurk/v2_DepthDuration_HTML.html#149,149,1366,768,1366,768,8-22-2022,8-0-32,3,depth_duration_stimuli/000635_2014-06-08_16-38-42_260595134347_rgbf000106-resize_1/000635_2014-06-08_16-38-42_260595134347_rgbf000106-resize_1-target.png,1000,2.074,1,3729,1000,meters,jsons/v1_VE1000_randls_48_rotated.json,761344,917038,51,Woman
3,338576,DepthScenes,duration_manipulation_targetAtFixation,jsons/v1_VE1000_randls_48_rotated.json,http://54.235.29.9/FacialAge/BNav_EC2/DepthDuration/v2_depth_duration_MTurk/v2_DepthDuration_HTML.html#149,149,1366,768,1366,768,8-22-2022,8-0-32,4,depth_duration_stimuli/002279_2014-06-28_18-55-32_260595134347_rgbf000040-resize_5/002279_2014-06-28_18-55-32_260595134347_rgbf000040-resize_5-target.png,1000,1.5043333333333,2,3516,994,meters,jsons/v1_VE1000_randls_48_rotated.json,761344,917038,51,Woman
4,338576,DepthScenes,duration_manipulation_targetAtFixation,jsons/v1_VE1000_randls_48_rotated.json,http://54.235.29.9/FacialAge/BNav_EC2/DepthDuration/v2_depth_duration_MTurk/v2_DepthDuration_HTML.html#149,149,1366,768,1366,768,8-22-2022,8-0-32,5,depth_duration_stimuli/002758_2014-06-22_19-11-20_094959634447_rgbf000128-resize_1/002758_2014-06-22_19-11-20_094959634447_rgbf000128-resize_1-target.png,1000,2.555,3,4068,999,meters,jsons/v1_VE1000_randls_48_rotated.json,761344,917038,51,Woman
5,338576,DepthScenes,duration_manipulation_targetAtFixation,jsons/v1_VE1000_randls_48_rotated.json,http://54.235.29.9/FacialAge/BNav_EC2/DepthDuration/v2_depth_duration_MTurk/v2_DepthDuration_HTML.html#149,149,1366,768,1366,768,8-22-2022,8-0-32,6,depth_duration_stimuli/002630_2014-06-24_14-47-50_094959634447_rgbf000055-resize_1/002630_2014-06-24_14-47-50_094959634447_rgbf000055-resize_1-target.png,1000,3.0095,2,3506,994,meters,jsons/v1_VE1000_randls_48_rotated.json,761344,917038,51,Woman
6,338576,DepthScenes,duration_manipulation_targetAtFixation,jsons/v1_VE1000_randls_48_rotated.json,http://54.235.29.9/FacialAge/BNav_EC2/DepthDuration/v2_depth_duration_MTurk/v2_DepthDuration_HTML.html#149,149,1366,768,1366,768,8-22-2022,8-0-32,7,depth_duration_stimuli/003228_2014-05-14_13-42-35_094959634447_rgbf000101-resize_1/003228_2014-05-14_13-42-35_094959634447_rgbf000101-resize_1-target.png,1000,1.9680000000000002,3,4503,983,meters,jsons/v1_VE1000_randls_48_rotated.json,761344,917038,51,Woman
7,338576,DepthScenes,duration_manipulation_targetAtFixation,jsons/v1_VE1000_randls_48_rotated.json,http://54.235.29.9/FacialAge/BNav_EC2/DepthDuration/v2_depth_duration_MTurk/v2_DepthDuration_HTML.html#149,149,1366,768,1366,768,8-22-2022,8-0-32,8,depth_duration_stimuli/002600_2014-06-24_14-27-04_094959634447_rgbf000074-resize_2/002600_2014-06-24_14-27-04_094959634447_rgbf000074-resize_2-target.png,1000,2.7575,1,5342,1018,meters,jsons/v1_VE1000_randls_48_rotated.json,761344,917038,51,Woman
8,338576,DepthScenes,duration_manipulation_targetAtFixation,jsons/v1_VE1000_randls_48_rotated.json,http://54.235.29.9/FacialAge/BNav_EC2/DepthDuration/v2_depth_duration_MTurk/v2_DepthDuration_HTML.html#149,149,1366,768,1366,768,8-22-2022,8-0-32,9,depth_duration_stimuli/001447_2014-06-19_17-00-32_260595134347_rgbf000082-resize_5/001447_2014-06-19_17-00-32_260595134347_rgbf000082-resize_5-target.png,1000,4.13775,2,4487,1008,meters,jsons/v1_VE1000_randls_48_rotated.json,761344,917038,51,Woman
9,338576,DepthScenes,duration_manipulation_targetAtFixation,jsons/v1_VE1000_randls_48_rotated.json,http://54.235.29.9/FacialAge/BNav_EC2/DepthDuration/v2_depth_duration_MTurk/v2_DepthDuration_HTML.html#149,149,1366,768,1366,768,8-22-2022,8-0-32,10,depth_duration_stimuli/000447_2014-06-08_16-15-46_260595134347_rgbf000130-resize_1/000447_2014-06-08_16-15-46_260595134347_rgbf000130-resize_1-target.png,1000,4.479,3,3931,989,meters,jsons/v1_VE1000_randls_48_rotated.json,761344,917038,51,Woman
10,338576,DepthScenes,duration_manipulation_targetAtFixation,jsons/v1_VE1000_randls_48_rotated.json,http://54.235.29.9/FacialAge/BNav_EC2/DepthDuration/v2_depth_duration_MTurk/v2_DepthDuration_HTML.html#149,149,1366,768,1366,768,8-22-2022,8-0-32,11,depth_duration_stimuli/000691_2014-06-08_13-08-50_260595134347_rgbf000132-resize_3/000691_2014-06-08_13-08-50_260595134347_rgbf000132-resize_3-target.png,1000,4.1530000000000005,3,4542,972,meters,jsons/v1_VE1000_randls_48_rotated.json,761344,917038,51,Woman
11,338576,DepthScenes,duration_manipulation_targetAtFixation,jsons/v1_VE1000_randls_48_rotated.json,http://54.235.29.9/FacialAge/BNav_EC2/DepthDuration/v2_depth_duration_MTurk/v2_DepthDuration_HTML.html#149,149,1366,768,1366,768,8-22-2022,8-0-32,12,depth_duration_stimuli/002213_2014-06-28_18-37-58_260595134347_rgbf000055-resize_1/002213_2014-06-28_18-37-58_260595134347_rgbf000055-resize_1-target.png,1000,3.62,2,5985,1005,meters,jsons/v1_VE1000_randls_48_rotated.json,761344,917038,51,Woman
12,338576,DepthScenes,duration_manipulation_targetAtFixation,jsons/v1_VE1000_randls_48_rotated.json,http://54.235.29.9/FacialAge/BNav_EC2/DepthDuration/v2_depth_duration_MTurk/v2_DepthDuration_HTML.html#149,149,1366,768,1366,768,8-22-2022,8-0-32,13,depth_duration_stimuli/003423_2014-05-21_10-23-26_094959634447_rgbf002665-resize_2/003423_2014-05-21_10-23-26_094959634447_rgbf002665-resize_2-target.png,1000,3.2575,3,5453,1012,meters,jsons/v1_VE1000_randls_48_rotated.json,761344,917038,51,Woman
13,338576,DepthScenes,duration_manipulation_targetAtFixation,jsons/v1_VE1000_randls_48_rotated.json,http://54.235.29.9/FacialAge/BNav_EC2/DepthDuration/v2_depth_duration_MTurk/v2_DepthDuration_HTML.html#149,149,1366,768,1366,768,8-22-2022,8-0-32,14,depth_duration_stimuli/002905_2014-06-03_18-04-43_094959634447_rgbf000151-resize_2/002905_2014-06-03_18-04-43_094959634447_rgbf000151-resize_2-target.png,1000,2.0295,2,4488,987,meters,jsons/v1_VE1000_randls_48_rotated.json,761344,917038,51,Woman
14,338576,DepthScenes,duration_manipulation_targetAtFixation,jsons/v1_VE1000_randls_48_rotated.json,http://54.235.29.9/FacialAge/BNav_EC2/DepthDuration/v2_depth_duration_MTurk/v2_DepthDuration_HTML.html#149,149,1366,768,1366,768,8-22-2022,8-0-32,15,depth_duration_stimuli/001052_2014-06-08_18-24-54_260595134347_rgbf000130-resize_1/001052_2014-06-08_18-24-54_260595134347_rgbf000130-resize_1-target.png,1000,4.1045,3,3809,1002,meters,jsons/v1_VE1000_randls_48_rotated.json,761344,917038,51,Woman
15,338576,DepthScenes,duration_manipulation_targetAtFixation,jsons/v1_VE1000_randls_48_rotated.json,http://54.235.29.9/FacialAge/BNav_EC2/DepthDuration/v2_depth_duration_MTurk/v2_DepthDuration_HTML.html#149,149,1366,768,1366,768,8-22-2022,8-0-32,16,depth_duration_stimuli/002988_2014-06-15_12-24-20_094959634447_rgbf000150-resize_1/002988_2014-06-15_12-24-20_094959634447_rgbf000150-resize_1-target.png,1000,4.7669999999999995,3,4109,1009,meters,jsons/v1_VE1000_randls_48_rotated.json,761344,917038,51,Woman
16,338576,DepthScenes,duration_manipulation_targetAtFixation,jsons/v1_VE1000_randls_48_rotated.json,http://54.235.29.9/FacialAge/BNav_EC2/DepthDuration/v2_depth_duration_MTurk/v2_DepthDuration_HTML.html#149,149,1366,768,1366,768,8-22-2022,8-0-32,17,depth_duration_stimuli/001450_2014-06-19_17-02-03_260595134347_rgbf000203-resize_4/001450_2014-06-19_17-02-03_260595134347_rgbf000203-resize_4-target.png,1000,4.0106666666667,1,4895,1006,meters,jsons/v1_VE1000_randls_48_rotated.json,761344,917038,51,Woman
17,338576,DepthScenes,duration_manipulation_targetAtFixation,jsons/v1_VE1000_randls_48_rotated.json,http://54.235.29.9/FacialAge/BNav_EC2/DepthDuration/v2_depth_duration_MTurk/v2_DepthDuration_HTML.html#149,149,1366,768,1366,768,8-22-2022,8-0-32,18,depth_duration_stimuli/001449_2014-06-19_17-01-27_260595134347_rgbf000116-resize_2/001449_2014-06-19_17-01-27_260595134347_rgbf000116-resize_2-target.png,1000,3.452,2,3824,1002,meters,jsons/v1_VE1000_randls_48_rotated.json,761344,917038,51,Woman
18,338576,DepthScenes,duration_manipulation_targetAtFixation,jsons/v1_VE1000_randls_48_rotated.json,http://54.235.29.9/FacialAge/BNav_EC2/DepthDuration/v2_depth_duration_MTurk/v2_DepthDuration_HTML.html#149,149,1366,768,1366,768,8-22-2022,8-0-32,19,depth_duration_stimuli/001498_2014-06-19_17-45-14_260595134347_rgbf000129-resize_4/001498_2014-06-19_17-45-14_260595134347_rgbf000129-resize-original.jpg,1000,1.4075,3,3865,1002,meters,jsons/v1_VE1000_randls_48_rotated.json,761344,917038,51,Woman
19,338576,DepthScenes,duration_manipulation_targetAtFixation,jsons/v1_VE1000_randls_48_rotated.json,http://54.235.29.9/FacialAge/BNav_EC2/DepthDuration/v2_depth_duration_MTurk/v2_DepthDuration_HTML.html#149,149,1366,768,1366,768,8-22-2022,8-0-32,20,depth_duration_stimuli/002805_2014-06-22_19-54-03_094959634447_rgbf000079-resize_1/002805_2014-06-22_19-54-03_094959634447_rgbf000079-resize_1-target.png,1000,3.1439999999999997,2,4661,1005,meters,jsons/v1_VE1000_randls_48_rotated.json,761344,917038,51,Woman
20,338576,DepthScenes,duration_manipulation_targetAtFixation,jsons/v1_VE1000_randls_48_rotated.json,http://54.235.29.9/FacialAge/BNav_EC2/DepthDuration/v2_depth_duration_MTurk/v2_DepthDuration_HTML.html#149,149,1366,768,1366,768,8-22-2022,8-0-32,21,depth_duration_stimuli/000906_2014-06-08_13-35-43_260595134347_rgbf000155-resize_1/000906_2014-06-08_13-35-43_260595134347_rgbf000155-resize_1-target.png,1000,2.8489999999999998,3,4157,1000,meters,jsons/v1_VE1000_randls_48_rotated.json,761344,917038,51,Woman
21,338576,DepthScenes,duration_manipulation_targetAtFixation,jsons/v1_VE1000_randls_48_rotated.json,http://54.235.29.9/FacialAge/BNav_EC2/DepthDuration/v2_depth_duration_MTurk/v2_DepthDuration_HTML.html#149,149,1366,768,1366,768,8-22-2022,8-0-32,22,depth_duration_stimuli/002949_2014-06-26_15-57-42_094959634447_rgbf000079-resize_1/002949_2014-06-26_15-57-42_094959634447_rgbf000079-resize_1-target.png,1000,1.8915,1,4807,1009,meters,jsons/v1_VE1000_randls_48_rotated.json,761344,917038,51,Woman
22,338576,DepthScenes,duration_manipulation_targetAtFixation,jsons/v1_VE1000_randls_48_rotated.json,http://54.235.29.9/FacialAge/BNav_EC2/DepthDuration/v2_depth_duration_MTurk/v2_DepthDuration_HTML.html#149,149,1366,768,1366,768,8-22-2022,8-0-32,23,depth_duration_stimuli/000522_2014-06-08_13-35-06_260595134347_rgbf000244-resize_1/000522_2014-06-08_13-35-06_260595134347_rgbf000244-resize_1-target.png,1000,2.3715,2,4731,997,meters,jsons/v1_VE1000_randls_48_rotated.json,761344,917038,51,Woman
23,338576,DepthScenes,duration_manipulation_targetAtFixation,jsons/v1_VE1000_randls_48_rotated.json,http://54.235.29.9/FacialAge/BNav_EC2/DepthDuration/v2_depth_duration_MTurk/v2_DepthDuration_HTML.html#149,149,1366,768,1366,768,8-22-2022,8-0-32,24,depth_duration_stimuli/000665_2014-06-09_20-42-35_260595134347_rgbf000110-resize_1/000665_2014-06-09_20-42-35_260595134347_rgbf000110-resize_1-target.png,1000,3.057,3,60516,954,meters,jsons/v1_VE1000_randls_48_rotated.json,761344,917038,51,Woman
24,338576,DepthScenes,duration_manipulation_targetAtFixation,jsons/v1_VE1000_randls_48_rotated.json,http://54.235.29.9/FacialAge/BNav_EC2/DepthDuration/v2_depth_duration_MTurk/v2_DepthDuration_HTML.html#149,149,1366,768,1366,768,8-22-2022,8-0-32,25,depth_duration_stimuli/001150_2014-06-17_15-27-34_260595134347_rgbf000108-resize_2/001150_2014-06-17_15-27-34_260595134347_rgbf000108-resize_2-target.png,1000,4.0325,2,4197,968,meters,jsons/v1_VE1000_randls_48_rotated.json,761344,917038,51,Woman
25,338576,DepthScenes,duration_manipulation_targetAtFixation,jsons/v1_VE1000_randls_48_rotated.json,http://54.235.29.9/FacialAge/BNav_EC2/DepthDuration/v2_depth_duration_MTurk/v2_DepthDuration_HTML.html#149,149,1366,768,1366,768,8-22-2022,8-0-32,26,depth_duration_stimuli/001617_2014-06-20_11-35-32_260595134347_rgbf000066-resize_1/001617_2014-06-20_11-35-32_260595134347_rgbf000066-resize_1-target.png,1000,3.7910000000000004,3,5502,989,meters,jsons/v1_VE1000_randls_48_rotated.json,761344,917038,51,Woman
26,338576,DepthScenes,duration_manipulation_targetAtFixation,jsons/v1_VE1000_randls_48_rotated.json,http://54.235.29.9/FacialAge/BNav_EC2/DepthDuration/v2_depth_duration_MTurk/v2_DepthDuration_HTML.html#149,149,1366,768,1366,768,8-22-2022,8-0-32,27,depth_duration_stimuli/001806_2014-06-26_20-50-20_260595134347_rgbf000091-resize_1/001806_2014-06-26_20-50-20_260595134347_rgbf000091-resize_1-target.png,1000,2.7305,1,3978,998,meters,jsons/v1_VE1000_randls_48_rotated.json,761344,917038,51,Woman
27,338576,DepthScenes,duration_manipulation_targetAtFixation,jsons/v1_VE1000_randls_48_rotated.json,http://54.235.29.9/FacialAge/BNav_EC2/DepthDuration/v2_depth_duration_MTurk/v2_DepthDuration_HTML.html#149,149,1366,768,1366,768,8-22-2022,8-0-32,28,depth_duration_stimuli/003495_2014-05-21_16-01-51_094959634447_rgbf000100-resize_3/003495_2014-05-21_16-01-51_094959634447_rgbf000100-resize_3-target.png,1000,1.6255,2,4042,1012,meters,jsons/v1_VE1000_randls_48_rotated.json,761344,917038,51,Woman
28,338576,DepthScenes,duration_manipulation_targetAtFixation,jsons/v1_VE1000_randls_48_rotated.json,http://54.235.29.9/FacialAge/BNav_EC2/DepthDuration/v2_depth_duration_MTurk/v2_DepthDuration_HTML.html#149,149,1366,768,1366,768,8-22-2022,8-0-32,29,depth_duration_stimuli/001244_2014-06-17_16-47-45_260595134347_rgbf000030-resize_4/001244_2014-06-17_16-47-45_260595134347_rgbf000030-resize_4-target.png,1000,2.0425,3,4371,982,meters,jsons/v1_VE1000_randls_48_rotated.json,761344,917038,51,Woman
29,338576,DepthScenes,duration_manipulation_targetAtFixation,jsons/v1_VE1000_randls_48_rotated.json,http://54.235.29.9/FacialAge/BNav_EC2/DepthDuration/v2_depth_duration_MTurk/v2_DepthDuration_HTML.html#149,149,1366,768,1366,768,8-22-2022,8-0-32,30,depth_duration_stimuli/002072_2014-06-24_21-48-06_260595134347_rgbf000115-resize_0/002072_2014-06-24_21-48-06_260595134347_rgbf000115-resize-original.jpg,1000,4.702,0,6085,1021,meters,jsons/v1_VE1000_randls_48_rotated.json,761344,917038,51,Woman
30,338576,DepthScenes,duration_manipulation_targetAtFixation,jsons/v1_VE1000_randls_48_rotated.json,http://54.235.29.9/FacialAge/BNav_EC2/DepthDuration/v2_depth_duration_MTurk/v2_DepthDuration_HTML.html#149,149,1366,768,1366,768,8-22-2022,8-0-32,31,depth_duration_stimuli/002657_2014-06-13_15-29-54_094959634447_rgbf000150-resize_1/002657_2014-06-13_15-29-54_094959634447_rgbf000150-resize_1-target.png,1000,4.919,1,3753,1011,meters,jsons/v1_VE1000_randls_48_rotated.json,761344,917038,51,Woman
31,338576,DepthScenes,duration_manipulation_targetAtFixation,jsons/v1_VE1000_randls_48_rotated.json,http://54.235.29.9/FacialAge/BNav_EC2/DepthDuration/v2_depth_duration_MTurk/v2_DepthDuration_HTML.html#149,149,1366,768,1366,768,8-22-2022,8-0-32,32,depth_duration_stimuli/002375_2014-06-28_20-13-44_260595134347_rgbf000032-resize_1/002375_2014-06-28_20-13-44_260595134347_rgbf000032-resize_1-target.png,1000,4.0175,2,3537,961,meters,jsons/v1_VE1000_randls_48_rotated.json,761344,917038,51,Woman
32,338576,DepthScenes,duration_manipulation_targetAtFixation,jsons/v1_VE1000_randls_48_rotated.json,http://54.235.29.9/FacialAge/BNav_EC2/DepthDuration/v2_depth_duration_MTurk/v2_DepthDuration_HTML.html#149,149,1366,768,1366,768,8-22-2022,8-0-32,33,depth_duration_stimuli/003010_2014-06-15_12-54-35_094959634447_rgbf000112-resize_0/003010_2014-06-15_12-54-35_094959634447_rgbf000112-resize_0-target.png,1000,3.1185,3,3160,984,meters,jsons/v1_VE1000_randls_48_rotated.json,761344,917038,51,Woman
33,338576,DepthScenes,duration_manipulation_targetAtFixation,jsons/v1_VE1000_randls_48_rotated.json,http://54.235.29.9/FacialAge/BNav_EC2/DepthDuration/v2_depth_duration_MTurk/v2_DepthDuration_HTML.html#149,149,1366,768,1366,768,8-22-2022,8-0-32,34,depth_duration_stimuli/001810_2014-06-26_20-51-35_260595134347_rgbf000040-resize_3/001810_2014-06-26_20-51-35_260595134347_rgbf000040-resize_3-target.png,1000,2.2525,1,4247,993,meters,jsons/v1_VE1000_randls_48_rotated.json,761344,917038,51,Woman
34,338576,DepthScenes,duration_manipulation_targetAtFixation,jsons/v1_VE1000_randls_48_rotated.json,http://54.235.29.9/FacialAge/BNav_EC2/DepthDuration/v2_depth_duration_MTurk/v2_DepthDuration_HTML.html#149,149,1366,768,1366,768,8-22-2022,8-0-32,35,depth_duration_stimuli/001516_2014-06-20_16-25-09_260595134347_rgbf000076-resize_2/001516_2014-06-20_16-25-09_260595134347_rgbf000076-resize_2-target.png,1000,1.7445,2,3338,990,meters,jsons/v1_VE1000_randls_48_rotated.json,761344,917038,51,Woman
35,338576,DepthScenes,duration_manipulation_targetAtFixation,jsons/v1_VE1000_randls_48_rotated.json,http://54.235.29.9/FacialAge/BNav_EC2/DepthDuration/v2_depth_duration_MTurk/v2_DepthDuration_HTML.html#149,149,1366,768,1366,768,8-22-2022,8-0-32,36,depth_duration_stimuli/002118_2014-06-25_20-32-08_260595134347_rgbf000078-resize_1/002118_2014-06-25_20-32-08_260595134347_rgbf000078-resize_1-target.png,1000,2.6460000000000004,3,3675,962,meters,jsons/v1_VE1000_randls_48_rotated.json,761344,917038,51,Woman
36,338576,DepthScenes,duration_manipulation_targetAtFixation,jsons/v1_VE1000_randls_48_rotated.json,http://54.235.29.9/FacialAge/BNav_EC2/DepthDuration/v2_depth_duration_MTurk/v2_DepthDuration_HTML.html#149,149,1366,768,1366,768,8-22-2022,8-0-32,37,depth_duration_stimuli/000854_2014-06-09_19-43-13_260595134347_rgbf000066-resize_0/000854_2014-06-09_19-43-13_260595134347_rgbf000066-resize_0-target.png,1000,3.068,1,3539,997,meters,jsons/v1_VE1000_randls_48_rotated.json,761344,917038,51,Woman
37,338576,DepthScenes,duration_manipulation_targetAtFixation,jsons/v1_VE1000_randls_48_rotated.json,http://54.235.29.9/FacialAge/BNav_EC2/DepthDuration/v2_depth_duration_MTurk/v2_DepthDuration_HTML.html#149,149,1366,768,1366,768,8-22-2022,8-0-32,38,depth_duration_stimuli/000758_2014-06-08_22-05-08_260595134347_rgbf000085-resize_0/000758_2014-06-08_22-05-08_260595134347_rgbf000085-resize_0-target.png,1000,3.3810000000000002,2,4535,991,meters,jsons/v1_VE1000_randls_48_rotated.json,761344,917038,51,Woman
38,338576,DepthScenes,duration_manipulation_targetAtFixation,jsons/v1_VE1000_randls_48_rotated.json,http://54.235.29.9/FacialAge/BNav_EC2/DepthDuration/v2_depth_duration_MTurk/v2_DepthDuration_HTML.html#149,149,1366,768,1366,768,8-22-2022,8-0-32,39,depth_duration_stimuli/000483_2014-06-09_20-41-45_260595134347_rgbf000116-resize_4/000483_2014-06-09_20-41-45_260595134347_rgbf000116-resize_4-target.png,1000,1.337,1,3497,1039,meters,jsons/v1_VE1000_randls_48_rotated.json,761344,917038,51,Woman
39,338576,DepthScenes,duration_manipulation_targetAtFixation,jsons/v1_VE1000_randls_48_rotated.json,http://54.235.29.9/FacialAge/BNav_EC2/DepthDuration/v2_depth_duration_MTurk/v2_DepthDuration_HTML.html#149,149,1366,768,1366,768,8-22-2022,8-0-32,40,depth_duration_stimuli/000469_2014-06-09_19-42-10_260595134347_rgbf000081-resize_1/000469_2014-06-09_19-42-10_260595134347_rgbf000081-resize_1-target.png,1000,1.652,2,3441,1000,meters,jsons/v1_VE1000_randls_48_rotated.json,761344,917038,51,Woman
40,338576,DepthScenes,duration_manipulation_targetAtFixation,jsons/v1_VE1000_randls_48_rotated.json,http://54.235.29.9/FacialAge/BNav_EC2/DepthDuration/v2_depth_duration_MTurk/v2_DepthDuration_HTML.html#149,149,1366,768,1366,768,8-22-2022,8-0-32,41,depth_duration_stimuli/000502_2014-06-08_23-02-32_260595134347_rgbf000063-resize_4/000502_2014-06-08_23-02-32_260595134347_rgbf000063-resize_4-target.png,1000,2.431,3,3295,989,meters,jsons/v1_VE1000_randls_48_rotated.json,761344,917038,51,Woman
41,338576,DepthScenes,duration_manipulation_targetAtFixation,jsons/v1_VE1000_randls_48_rotated.json,http://54.235.29.9/FacialAge/BNav_EC2/DepthDuration/v2_depth_duration_MTurk/v2_DepthDuration_HTML.html#149,149,1366,768,1366,768,8-22-2022,8-0-32,42,depth_duration_stimuli/001199_2014-06-17_16-03-48_260595134347_rgbf000077-resize_0/001199_2014-06-17_16-03-48_260595134347_rgbf000077-resize_0-target.png,1000,3.4375,2,3630,1000,meters,jsons/v1_VE1000_randls_48_rotated.json,761344,917038,51,Woman
42,338576,DepthScenes,duration_manipulation_targetAtFixation,jsons/v1_VE1000_randls_48_rotated.json,http://54.235.29.9/FacialAge/BNav_EC2/DepthDuration/v2_depth_duration_MTurk/v2_DepthDuration_HTML.html#149,149,1366,768,1366,768,8-22-2022,8-0-32,43,depth_duration_stimuli/002637_2014-06-24_14-51-13_094959634447_rgbf000066-resize_4/002637_2014-06-24_14-51-13_094959634447_rgbf000066-resize_4-target.png,1000,1.9955,3,4232,1007,meters,jsons/v1_VE1000_randls_48_rotated.json,761344,917038,51,Woman
43,338576,DepthScenes,duration_manipulation_targetAtFixation,jsons/v1_VE1000_randls_48_rotated.json,http://54.235.29.9/FacialAge/BNav_EC2/DepthDuration/v2_depth_duration_MTurk/v2_DepthDuration_HTML.html#149,149,1366,768,1366,768,8-22-2022,8-0-32,44,depth_duration_stimuli/003534_2014-05-22_15-06-10_094959634447_rgbf000102-resize_4/003534_2014-05-22_15-06-10_094959634447_rgbf000102-resize_4-target.png,1000,1.426,1,3327,973,meters,jsons/v1_VE1000_randls_48_rotated.json,761344,917038,51,Woman
44,338576,DepthScenes,duration_manipulation_targetAtFixation,jsons/v1_VE1000_randls_48_rotated.json,http://54.235.29.9/FacialAge/BNav_EC2/DepthDuration/v2_depth_duration_MTurk/v2_DepthDuration_HTML.html#149,149,1366,768,1366,768,8-22-2022,8-0-32,45,depth_duration_stimuli/002103_2014-06-25_20-00-40_260595134347_rgbf000049-resize_0/002103_2014-06-25_20-00-40_260595134347_rgbf000049-resize_0-target.png,1000,4.105,2,3554,997,meters,jsons/v1_VE1000_randls_48_rotated.json,761344,917038,51,Woman
45,338576,DepthScenes,duration_manipulation_targetAtFixation,jsons/v1_VE1000_randls_48_rotated.json,http://54.235.29.9/FacialAge/BNav_EC2/DepthDuration/v2_depth_duration_MTurk/v2_DepthDuration_HTML.html#149,149,1366,768,1366,768,8-22-2022,8-0-32,46,depth_duration_stimuli/002039_2014-06-24_20-22-38_260595134347_rgbf000084-resize_1/002039_2014-06-24_20-22-38_260595134347_rgbf000084-resize_1-target.png,1000,4.408,3,4682,997,meters,jsons/v1_VE1000_randls_48_rotated.json,761344,917038,51,Woman
46,338576,DepthScenes,duration_manipulation_targetAtFixation,jsons/v1_VE1000_randls_48_rotated.json,http://54.235.29.9/FacialAge/BNav_EC2/DepthDuration/v2_depth_duration_MTurk/v2_DepthDuration_HTML.html#149,149,1366,768,1366,768,8-22-2022,8-0-32,47,depth_duration_stimuli/003048_2014-06-15_13-49-43_094959634447_rgbf000150-resize_1/003048_2014-06-15_13-49-43_094959634447_rgbf000150-resize_1-target.png,1000,4.0035,2,3263,984,meters,jsons/v1_VE1000_randls_48_rotated.json,761344,917038,51,Woman
47,338576,DepthScenes,duration_manipulation_targetAtFixation,jsons/v1_VE1000_randls_48_rotated.json,http://54.235.29.9/FacialAge/BNav_EC2/DepthDuration/v2_depth_duration_MTurk/v2_DepthDuration_HTML.html#149,149,1366,768,1366,768,8-22-2022,8-0-32,48,depth_duration_stimuli/002043_2014-06-24_20-29-38_260595134347_rgbf000039-resize_4/002043_2014-06-24_20-29-38_260595134347_rgbf000039-resize_4-target.png,1000,2.8435,2,3849,1004,meters,jsons/v1_VE1000_randls_48_rotated.json,761344,917038,51,Woman
48,338576,DepthScenes,duration_manipulation_targetAtFixation,jsons/v1_VE1000_randls_48_rotated.json,http://54.235.29.9/FacialAge/BNav_EC2/DepthDuration/v2_depth_duration_MTurk/v2_DepthDuration_HTML.html#149,149,1366,768,1366,768,8-22-2022,8-0-32,49,depth_duration_stimuli/001170_2014-06-17_15-43-44_260595134347_rgbf000096-resize_6/001170_2014-06-17_15-43-44_260595134347_rgbf000096-resize-original.jpg,1000,1.1909999999999998,0,7243,1187,meters,jsons/v1_VE1000_randls_48_rotated.json,761344,917038,51,Woman
49,338576,DepthScenes,duration_manipulation_targetAtFixation,jsons/v1_VE1000_randls_48_rotated.json,http://54.235.29.9/FacialAge/BNav_EC2/DepthDuration/v2_depth_duration_MTurk/v2_DepthDuration_HTML.html#149,149,1366,768,1366,768,8-22-2022,8-0-32,50,depth_duration_stimuli/002136_2014-06-25_21-18-03_260595134347_rgbf000109-resize_3/002136_2014-06-25_21-18-03_260595134347_rgbf000109-resize_3-target.png,1000,1.9569999999999999,2,3780,1029,meters,jsons/v1_VE1000_randls_48_rotated.json,761344,917038,51,Woman
50,338576,DepthScenes,duration_manipulation_targetAtFixation,jsons/v1_VE1000_randls_48_rotated.json,http://54.235.29.9/FacialAge/BNav_EC2/DepthDuration/v2_depth_duration_MTurk/v2_DepthDuration_HTML.html#149,149,1366,768,1366,768,8-22-2022,8-0-32,51,depth_duration_stimuli/002964_2014-06-08_17-46-11_094959634447_rgbf000091-resize_4/002964_2014-06-08_17-46-11_094959634447_rgbf000091-resize_4-target.png,1000,1.6909999999999998,3,3323,989,meters,jsons/v1_VE1000_randls_48_rotated.json,761344,917038,51,Woman
51,338576,DepthScenes,duration_manipulation_targetAtFixation,jsons/v1_VE1000_randls_48_rotated.json,http://54.235.29.9/FacialAge/BNav_EC2/DepthDuration/v2_depth_duration_MTurk/v2_DepthDuration_HTML.html#149,149,1366,768,1366,768,8-22-2022,8-0-32,52,depth_duration_stimuli/002425_2014-06-28_20-27-29_260595134347_rgbf000031-resize_8/002425_2014-06-28_20-27-29_260595134347_rgbf000031-resize_8-target.png,1000,3.8960000000000004,2,3486,990,meters,jsons/v1_VE1000_randls_48_rotated.json,761344,917038,51,Woman
52,338576,DepthScenes,duration_manipulation_targetAtFixation,jsons/v1_VE1000_randls_48_rotated.json,http://54.235.29.9/FacialAge/BNav_EC2/DepthDuration/v2_depth_duration_MTurk/v2_DepthDuration_HTML.html#149,149,1366,768,1366,768,8-22-2022,8-0-32,53,depth_duration_stimuli/000642_2014-06-08_16-59-25_260595134347_rgbf000098-resize_2/000642_2014-06-08_16-59-25_260595134347_rgbf000098-resize_2-target.png,1000,2.8815,1,3666,986,meters,jsons/v1_VE1000_randls_48_rotated.json,761344,917038,51,Woman
53,338576,DepthScenes,duration_manipulation_targetAtFixation,jsons/v1_VE1000_randls_48_rotated.json,http://54.235.29.9/FacialAge/BNav_EC2/DepthDuration/v2_depth_duration_MTurk/v2_DepthDuration_HTML.html#149,149,1366,768,1366,768,8-22-2022,8-0-32,54,depth_duration_stimuli/000109_2014-05-14_23-41-52_260595134347_rgbf000035-resize_9/000109_2014-05-14_23-41-52_260595134347_rgbf000035-resize_9-target.png,1000,1.3545,3,3569,994,meters,jsons/v1_VE1000_randls_48_rotated.json,761344,917038,51,Woman
54,338576,DepthScenes,duration_manipulation_targetAtFixation,jsons/v1_VE1000_randls_48_rotated.json,http://54.235.29.9/FacialAge/BNav_EC2/DepthDuration/v2_depth_duration_MTurk/v2_DepthDuration_HTML.html#149,149,1366,768,1366,768,8-22-2022,8-0-32,55,depth_duration_stimuli/000470_2014-06-09_19-42-40_260595134347_rgbf000094-resize_1/000470_2014-06-09_19-42-40_260595134347_rgbf000094-resize_1-target.png,1000,1.831,1,6413,1001,meters,jsons/v1_VE1000_randls_48_rotated.json,761344,917038,51,Woman
55,338576,DepthScenes,duration_manipulation_targetAtFixation,jsons/v1_VE1000_randls_48_rotated.json,http://54.235.29.9/FacialAge/BNav_EC2/DepthDuration/v2_depth_duration_MTurk/v2_DepthDuration_HTML.html#149,149,1366,768,1366,768,8-22-2022,8-0-32,56,depth_duration_stimuli/002953_2014-06-08_17-32-18_094959634447_rgbf000059-resize_5/002953_2014-06-08_17-32-18_094959634447_rgbf000059-resize_5-target.png,1000,1.551,2,3429,1002,meters,jsons/v1_VE1000_randls_48_rotated.json,761344,917038,51,Woman
56,338576,DepthScenes,duration_manipulation_targetAtFixation,jsons/v1_VE1000_randls_48_rotated.json,http://54.235.29.9/FacialAge/BNav_EC2/DepthDuration/v2_depth_duration_MTurk/v2_DepthDuration_HTML.html#149,149,1366,768,1366,768,8-22-2022,8-0-32,57,depth_duration_stimuli/000878_2014-06-08_22-52-45_260595134347_rgbf000045-resize_2/000878_2014-06-08_22-52-45_260595134347_rgbf000045-resize_2-target.png,1000,2.092,3,3801,993,meters,jsons/v1_VE1000_randls_48_rotated.json,761344,917038,51,Woman
57,338576,DepthScenes,duration_manipulation_targetAtFixation,jsons/v1_VE1000_randls_48_rotated.json,http://54.235.29.9/FacialAge/BNav_EC2/DepthDuration/v2_depth_duration_MTurk/v2_DepthDuration_HTML.html#149,149,1366,768,1366,768,8-22-2022,8-0-32,58,depth_duration_stimuli/003079_2014-06-15_15-18-20_094959634447_rgbf000152-resize_8/003079_2014-06-15_15-18-20_094959634447_rgbf000152-resize_8-target.png,1000,2.8775,1,3682,905,meters,jsons/v1_VE1000_randls_48_rotated.json,761344,917038,51,Woman
58,338576,DepthScenes,duration_manipulation_targetAtFixation,jsons/v1_VE1000_randls_48_rotated.json,http://54.235.29.9/FacialAge/BNav_EC2/DepthDuration/v2_depth_duration_MTurk/v2_DepthDuration_HTML.html#149,149,1366,768,1366,768,8-22-2022,8-0-32,59,depth_duration_stimuli/000506_2014-06-08_23-21-00_260595134347_rgbf000070-resize_7/000506_2014-06-08_23-21-00_260595134347_rgbf000070-resize_7-target.png,1000,4.0585,2,3672,1010,meters,jsons/v1_VE1000_randls_48_rotated.json,761344,917038,51,Woman
59,338576,DepthScenes,duration_manipulation_targetAtFixation,jsons/v1_VE1000_randls_48_rotated.json,http://54.235.29.9/FacialAge/BNav_EC2/DepthDuration/v2_depth_duration_MTurk/v2_DepthDuration_HTML.html#149,149,1366,768,1366,768,8-22-2022,8-0-32,60,depth_duration_stimuli/001828_2014-06-26_21-40-03_260595134347_rgbf000024-resize_0/001828_2014-06-26_21-40-03_260595134347_rgbf000024-resize_0-target.png,1000,4.8260000000000005,3,3159,999,meters,jsons/v1_VE1000_randls_48_rotated.json,761344,917038,51,Woman
60,338576,DepthScenes,duration_manipulation_targetAtFixation,jsons/v1_VE1000_randls_48_rotated.json,http://54.235.29.9/FacialAge/BNav_EC2/DepthDuration/v2_depth_duration_MTurk/v2_DepthDuration_HTML.html#149,149,1366,768,1366,768,8-22-2022,8-0-32,61,depth_duration_stimuli/000009_2014-05-26_14-32-05_260595134347_rgbf000034-resize_3/000009_2014-05-26_14-32-05_260595134347_rgbf000034-resize_3-target.png,1000,3.8715,1,3430,1002,meters,jsons/v1_VE1000_randls_48_rotated.json,761344,917038,51,Woman
61,338576,DepthScenes,duration_manipulation_targetAtFixation,jsons/v1_VE1000_randls_48_rotated.json,http://54.235.29.9/FacialAge/BNav_EC2/DepthDuration/v2_depth_duration_MTurk/v2_DepthDuration_HTML.html#149,149,1366,768,1366,768,8-22-2022,8-0-32,62,depth_duration_stimuli/000734_2014-06-08_17-39-11_260595134347_rgbf000128-resize_2/000734_2014-06-08_17-39-11_260595134347_rgbf000128-resize_2-target.png,1000,4.098,2,3264,991,meters,jsons/v1_VE1000_randls_48_rotated.json,761344,917038,51,Woman
62,338576,DepthScenes,duration_manipulation_targetAtFixation,jsons/v1_VE1000_randls_48_rotated.json,http://54.235.29.9/FacialAge/BNav_EC2/DepthDuration/v2_depth_duration_MTurk/v2_DepthDuration_HTML.html#149,149,1366,768,1366,768,8-22-2022,8-0-32,63,depth_duration_stimuli/000739_2014-06-08_18-45-58_260595134347_rgbf000068-resize_1/000739_2014-06-08_18-45-58_260595134347_rgbf000068-resize_1-target.png,1000,3.534,3,3136,1003,meters,jsons/v1_VE1000_randls_48_rotated.json,761344,917038,51,Woman
63,338576,DepthScenes,duration_manipulation_targetAtFixation,jsons/v1_VE1000_randls_48_rotated.json,http://54.235.29.9/FacialAge/BNav_EC2/DepthDuration/v2_depth_duration_MTurk/v2_DepthDuration_HTML.html#149,149,1366,768,1366,768,8-22-2022,8-0-32,64,depth_duration_stimuli/002340_2014-06-28_20-05-46_260595134347_rgbf000113-resize_0/002340_2014-06-28_20-05-46_260595134347_rgbf000113-resize_0-target.png,1000,2.4735,2,3501,998,meters,jsons/v1_VE1000_randls_48_rotated.json,761344,917038,51,Woman
64,338576,DepthScenes,duration_manipulation_targetAtFixation,jsons/v1_VE1000_randls_48_rotated.json,http://54.235.29.9/FacialAge/BNav_EC2/DepthDuration/v2_depth_duration_MTurk/v2_DepthDuration_HTML.html#149,149,1366,768,1366,768,8-22-2022,8-0-32,65,depth_duration_stimuli/001016_2014-06-09_16-16-10_260595134347_rgbf000112-resize_5/001016_2014-06-09_16-16-10_260595134347_rgbf000112-resize_5-target.png,1000,1.6565,3,3612,985,meters,jsons/v1_VE1000_randls_48_rotated.json,761344,917038,51,Woman
65,338576,DepthScenes,duration_manipulation_targetAtFixation,jsons/v1_VE1000_randls_48_rotated.json,http://54.235.29.9/FacialAge/BNav_EC2/DepthDuration/v2_depth_duration_MTurk/v2_DepthDuration_HTML.html#149,149,1366,768,1366,768,8-22-2022,8-0-32,66,depth_duration_stimuli/001540_2014-06-20_17-01-05_260595134347_rgbf000086-resize_2/001540_2014-06-20_17-01-05_260595134347_rgbf000086-resize-original.jpg,1000,1.459,0,5609,1008,meters,jsons/v1_VE1000_randls_48_rotated.json,761344,917038,51,Woman
66,338576,DepthScenes,duration_manipulation_targetAtFixation,jsons/v1_VE1000_randls_48_rotated.json,http://54.235.29.9/FacialAge/BNav_EC2/DepthDuration/v2_depth_duration_MTurk/v2_DepthDuration_HTML.html#149,149,1366,768,1366,768,8-22-2022,8-0-32,67,depth_duration_stimuli/001214_2014-06-17_16-13-55_260595134347_rgbf000111-resize_0/001214_2014-06-17_16-13-55_260595134347_rgbf000111-resize_0-target.png,1000,2.6505,1,3700,991,meters,jsons/v1_VE1000_randls_48_rotated.json,761344,917038,51,Woman
67,338576,DepthScenes,duration_manipulation_targetAtFixation,jsons/v1_VE1000_randls_48_rotated.json,http://54.235.29.9/FacialAge/BNav_EC2/DepthDuration/v2_depth_duration_MTurk/v2_DepthDuration_HTML.html#149,149,1366,768,1366,768,8-22-2022,8-0-32,68,depth_duration_stimuli/000810_2014-06-08_17-20-01_260595134347_rgbf000105-resize_0/000810_2014-06-08_17-20-01_260595134347_rgbf000105-resize_0-target.png,1000,1.4865,2,3228,880,meters,jsons/v1_VE1000_randls_48_rotated.json,761344,917038,51,Woman
68,338576,DepthScenes,duration_manipulation_targetAtFixation,jsons/v1_VE1000_randls_48_rotated.json,http://54.235.29.9/FacialAge/BNav_EC2/DepthDuration/v2_depth_duration_MTurk/v2_DepthDuration_HTML.html#149,149,1366,768,1366,768,8-22-2022,8-0-32,69,depth_duration_stimuli/001094_2014-06-15_17-36-00_260595134347_rgbf000205-resize_0/001094_2014-06-15_17-36-00_260595134347_rgbf000205-resize_0-target.png,1000,4.2175,3,3322,986,meters,jsons/v1_VE1000_randls_48_rotated.json,761344,917038,51,Woman
69,338576,DepthScenes,duration_manipulation_targetAtFixation,jsons/v1_VE1000_randls_48_rotated.json,http://54.235.29.9/FacialAge/BNav_EC2/DepthDuration/v2_depth_duration_MTurk/v2_DepthDuration_HTML.html#149,149,1366,768,1366,768,8-22-2022,8-0-32,70,depth_duration_stimuli/000692_2014-06-08_13-09-42_260595134347_rgbf000199-resize_2/000692_2014-06-08_13-09-42_260595134347_rgbf000199-resize_2-target.png,1000,3.661,2,3383,988,meters,jsons/v1_VE1000_randls_48_rotated.json,761344,917038,51,Woman
70,338576,DepthScenes,duration_manipulation_targetAtFixation,jsons/v1_VE1000_randls_48_rotated.json,http://54.235.29.9/FacialAge/BNav_EC2/DepthDuration/v2_depth_duration_MTurk/v2_DepthDuration_HTML.html#149,149,1366,768,1366,768,8-22-2022,8-0-32,71,depth_duration_stimuli/003490_2014-05-21_15-50-11_094959634447_rgbf000101-resize_3/003490_2014-05-21_15-50-11_094959634447_rgbf000101-resize_3-target.png,1000,3.6445,3,3081,1004,meters,jsons/v1_VE1000_randls_48_rotated.json,761344,917038,51,Woman
71,338576,DepthScenes,duration_manipulation_targetAtFixation,jsons/v1_VE1000_randls_48_rotated.json,http://54.235.29.9/FacialAge/BNav_EC2/DepthDuration/v2_depth_duration_MTurk/v2_DepthDuration_HTML.html#149,149,1366,768,1366,768,8-22-2022,8-0-32,72,depth_duration_stimuli/001175_2014-06-17_15-45-55_260595134347_rgbf000129-resize_4/001175_2014-06-17_15-45-55_260595134347_rgbf000129-resize_4-target.png,1000,4.255,1,3547,1000,meters,jsons/v1_VE1000_randls_48_rotated.json,761344,917038,51,Woman
72,338576,DepthScenes,duration_manipulation_targetAtFixation,jsons/v1_VE1000_randls_48_rotated.json,http://54.235.29.9/FacialAge/BNav_EC2/DepthDuration/v2_depth_duration_MTurk/v2_DepthDuration_HTML.html#149,149,1366,768,1366,768,8-22-2022,8-0-32,73,depth_duration_stimuli/001392_2014-06-19_16-07-59_260595134347_rgbf000046-resize_1/001392_2014-06-19_16-07-59_260595134347_rgbf000046-resize_1-target.png,1000,4.135,2,3756,994,meters,jsons/v1_VE1000_randls_48_rotated.json,761344,917038,51,Woman
73,338576,DepthScenes,duration_manipulation_targetAtFixation,jsons/v1_VE1000_randls_48_rotated.json,http://54.235.29.9/FacialAge/BNav_EC2/DepthDuration/v2_depth_duration_MTurk/v2_DepthDuration_HTML.html#149,149,1366,768,1366,768,8-22-2022,8-0-32,74,depth_duration_stimuli/001570_2014-06-20_17-21-09_260595134347_rgbf000135-resize_4/001570_2014-06-20_17-21-09_260595134347_rgbf000135-resize_4-target.png,1000,4.467,3,3166,1003,meters,jsons/v1_VE1000_randls_48_rotated.json,761344,917038,51,Woman
74,338576,DepthScenes,duration_manipulation_targetAtFixation,jsons/v1_VE1000_randls_48_rotated.json,http://54.235.29.9/FacialAge/BNav_EC2/DepthDuration/v2_depth_duration_MTurk/v2_DepthDuration_HTML.html#149,149,1366,768,1366,768,8-22-2022,8-0-32,75,depth_duration_stimuli/002209_2014-06-28_18-36-10_260595134347_rgbf000051-resize_1/002209_2014-06-28_18-36-10_260595134347_rgbf000051-resize_1-target.png,1000,2.057,1,3418,997,meters,jsons/v1_VE1000_randls_48_rotated.json,761344,917038,51,Woman
75,338576,DepthScenes,duration_manipulation_targetAtFixation,jsons/v1_VE1000_randls_48_rotated.json,http://54.235.29.9/FacialAge/BNav_EC2/DepthDuration/v2_depth_duration_MTurk/v2_DepthDuration_HTML.html#149,149,1366,768,1366,768,8-22-2022,8-0-32,76,depth_duration_stimuli/002763_2014-06-22_19-13-10_094959634447_rgbf000075-resize_4/002763_2014-06-22_19-13-10_094959634447_rgbf000075-resize_4-target.png,1000,1.68375,2,4367,989,meters,jsons/v1_VE1000_randls_48_rotated.json,761344,917038,51,Woman
76,338576,DepthScenes,duration_manipulation_targetAtFixation,jsons/v1_VE1000_randls_48_rotated.json,http://54.235.29.9/FacialAge/BNav_EC2/DepthDuration/v2_depth_duration_MTurk/v2_DepthDuration_HTML.html#149,149,1366,768,1366,768,8-22-2022,8-0-32,77,depth_duration_stimuli/000780_2014-06-08_22-28-29_260595134347_rgbf000126-resize_1/000780_2014-06-08_22-28-29_260595134347_rgbf000126-resize_1-target.png,1000,3.3825,3,3374,1009,meters,jsons/v1_VE1000_randls_48_rotated.json,761344,917038,51,Woman
77,338576,DepthScenes,duration_manipulation_targetAtFixation,jsons/v1_VE1000_randls_48_rotated.json,http://54.235.29.9/FacialAge/BNav_EC2/DepthDuration/v2_depth_duration_MTurk/v2_DepthDuration_HTML.html#149,149,1366,768,1366,768,8-22-2022,8-0-32,78,depth_duration_stimuli/002445_2014-06-28_20-32-16_260595134347_rgbf000029-resize_4/002445_2014-06-28_20-32-16_260595134347_rgbf000029-resize_4-target.png,1000,2.5315,1,3314,1006,meters,jsons/v1_VE1000_randls_48_rotated.json,761344,917038,51,Woman
78,338576,DepthScenes,duration_manipulation_targetAtFixation,jsons/v1_VE1000_randls_48_rotated.json,http://54.235.29.9/FacialAge/BNav_EC2/DepthDuration/v2_depth_duration_MTurk/v2_DepthDuration_HTML.html#149,149,1366,768,1366,768,8-22-2022,8-0-32,79,depth_duration_stimuli/003083_2014-06-15_15-21-03_094959634447_rgbf000063-resize_1/003083_2014-06-15_15-21-03_094959634447_rgbf000063-resize_1-target.png,1000,4.1405,2,3736,1005,meters,jsons/v1_VE1000_randls_48_rotated.json,761344,917038,51,Woman
79,338576,DepthScenes,duration_manipulation_targetAtFixation,jsons/v1_VE1000_randls_48_rotated.json,http://54.235.29.9/FacialAge/BNav_EC2/DepthDuration/v2_depth_duration_MTurk/v2_DepthDuration_HTML.html#149,149,1366,768,1366,768,8-22-2022,8-0-32,80,depth_duration_stimuli/000486_2014-06-09_20-47-20_260595134347_rgbf000143-resize_2/000486_2014-06-09_20-47-20_260595134347_rgbf000143-resize_2-target.png,1000,4.8325,3,3283,989,meters,jsons/v1_VE1000_randls_48_rotated.json,761344,917038,51,Woman
80,338576,DepthScenes,duration_manipulation_targetAtFixation,jsons/v1_VE1000_randls_48_rotated.json,http://54.235.29.9/FacialAge/BNav_EC2/DepthDuration/v2_depth_duration_MTurk/v2_DepthDuration_HTML.html#149,149,1366,768,1366,768,8-22-2022,8-0-32,81,depth_duration_stimuli/002545_2014-06-24_13-38-53_094959634447_rgbf000080-resize_4/002545_2014-06-24_13-38-53_094959634447_rgbf000080-resize_4-target.png,1000,1.9205,1,3602,997,meters,jsons/v1_VE1000_randls_48_rotated.json,761344,917038,51,Woman
81,338576,DepthScenes,duration_manipulation_targetAtFixation,jsons/v1_VE1000_randls_48_rotated.json,http://54.235.29.9/FacialAge/BNav_EC2/DepthDuration/v2_depth_duration_MTurk/v2_DepthDuration_HTML.html#149,149,1366,768,1366,768,8-22-2022,8-0-32,82,depth_duration_stimuli/001092_2014-06-15_17-34-58_260595134347_rgbf000171-resize_3/001092_2014-06-15_17-34-58_260595134347_rgbf000171-resize_3-target.png,1000,2.6935,2,2980,999,meters,jsons/v1_VE1000_randls_48_rotated.json,761344,917038,51,Woman
82,338576,DepthScenes,duration_manipulation_targetAtFixation,jsons/v1_VE1000_randls_48_rotated.json,http://54.235.29.9/FacialAge/BNav_EC2/DepthDuration/v2_depth_duration_MTurk/v2_DepthDuration_HTML.html#149,149,1366,768,1366,768,8-22-2022,8-0-32,83,depth_duration_stimuli/001650_2014-06-20_12-09-00_260595134347_rgbf000087-resize_3/001650_2014-06-20_12-09-00_260595134347_rgbf000087-resize_3-target.png,1000,1.9505,3,3105,1010,meters,jsons/v1_VE1000_randls_48_rotated.json,761344,917038,51,Woman
83,338576,DepthScenes,duration_manipulation_targetAtFixation,jsons/v1_VE1000_randls_48_rotated.json,http://54.235.29.9/FacialAge/BNav_EC2/DepthDuration/v2_depth_duration_MTurk/v2_DepthDuration_HTML.html#149,149,1366,768,1366,768,8-22-2022,8-0-32,84,depth_duration_stimuli/000682_2014-06-08_23-14-58_260595134347_rgbf000041-resize_5/000682_2014-06-08_23-14-58_260595134347_rgbf000041-resize_5-target.png,1000,2.7239999999999998,2,3458,986,meters,jsons/v1_VE1000_randls_48_rotated.json,761344,917038,51,Woman
84,338576,DepthScenes,duration_manipulation_targetAtFixation,jsons/v1_VE1000_randls_48_rotated.json,http://54.235.29.9/FacialAge/BNav_EC2/DepthDuration/v2_depth_duration_MTurk/v2_DepthDuration_HTML.html#149,149,1366,768,1366,768,8-22-2022,8-0-32,85,depth_duration_stimuli/002444_2014-06-28_20-32-08_260595134347_rgbf000027-resize_0/002444_2014-06-28_20-32-08_260595134347_rgbf000027-resize_0-target.png,1000,4.388999999999999,3,3110,993,meters,jsons/v1_VE1000_randls_48_rotated.json,761344,917038,51,Woman
85,338576,DepthScenes,duration_manipulation_targetAtFixation,jsons/v1_VE1000_randls_48_rotated.json,http://54.235.29.9/FacialAge/BNav_EC2/DepthDuration/v2_depth_duration_MTurk/v2_DepthDuration_HTML.html#149,149,1366,768,1366,768,8-22-2022,8-0-32,86,depth_duration_stimuli/000436_2014-06-09_22-25-11_260595134347_rgbf000137-resize_1/000436_2014-06-09_22-25-11_260595134347_rgbf000137-resize_1-target.png,1000,4.0705,1,3164,986,meters,jsons/v1_VE1000_randls_48_rotated.json,761344,917038,51,Woman
86,338576,DepthScenes,duration_manipulation_targetAtFixation,jsons/v1_VE1000_randls_48_rotated.json,http://54.235.29.9/FacialAge/BNav_EC2/DepthDuration/v2_depth_duration_MTurk/v2_DepthDuration_HTML.html#149,149,1366,768,1366,768,8-22-2022,8-0-32,87,depth_duration_stimuli/000742_2014-06-08_18-48-09_260595134347_rgbf000164-resize_4/000742_2014-06-08_18-48-09_260595134347_rgbf000164-resize_4-target.png,1000,4.632,2,3539,992,meters,jsons/v1_VE1000_randls_48_rotated.json,761344,917038,51,Woman
87,338576,DepthScenes,duration_manipulation_targetAtFixation,jsons/v1_VE1000_randls_48_rotated.json,http://54.235.29.9/FacialAge/BNav_EC2/DepthDuration/v2_depth_duration_MTurk/v2_DepthDuration_HTML.html#149,149,1366,768,1366,768,8-22-2022,8-0-32,88,depth_duration_stimuli/001066_2014-06-08_22-03-20_260595134347_rgbf000066-resize_4/001066_2014-06-08_22-03-20_260595134347_rgbf000066-resize_4-target.png,1000,4.2330000000000005,3,3007,996,meters,jsons/v1_VE1000_randls_48_rotated.json,761344,917038,51,Woman
88,338576,DepthScenes,duration_manipulation_targetAtFixation,jsons/v1_VE1000_randls_48_rotated.json,http://54.235.29.9/FacialAge/BNav_EC2/DepthDuration/v2_depth_duration_MTurk/v2_DepthDuration_HTML.html#149,149,1366,768,1366,768,8-22-2022,8-0-32,89,depth_duration_stimuli/002467_2014-06-28_20-38-07_260595134347_rgbf000026-resize_2/002467_2014-06-28_20-38-07_260595134347_rgbf000026-resize_2-target.png,1000,4.742,2,3223,973,meters,jsons/v1_VE1000_randls_48_rotated.json,761344,917038,51,Woman
89,338576,DepthScenes,duration_manipulation_targetAtFixation,jsons/v1_VE1000_randls_48_rotated.json,http://54.235.29.9/FacialAge/BNav_EC2/DepthDuration/v2_depth_duration_MTurk/v2_DepthDuration_HTML.html#149,149,1366,768,1366,768,8-22-2022,8-0-32,90,depth_duration_stimuli/002570_2014-06-24_13-59-54_094959634447_rgbf000059-resize_0/002570_2014-06-24_13-59-54_094959634447_rgbf000059-resize_0-target.png,1000,4.037,3,3225,921,meters,jsons/v1_VE1000_randls_48_rotated.json,761344,917038,51,Woman
90,338576,DepthScenes,duration_manipulation_targetAtFixation,jsons/v1_VE1000_randls_48_rotated.json,http://54.235.29.9/FacialAge/BNav_EC2/DepthDuration/v2_depth_duration_MTurk/v2_DepthDuration_HTML.html#149,149,1366,768,1366,768,8-22-2022,8-0-32,91,depth_duration_stimuli/002660_2014-06-13_15-44-18_094959634447_rgbf001878-resize_2/002660_2014-06-13_15-44-18_094959634447_rgbf001878-resize_2-target.png,1000,3.576,1,3122,1000,meters,jsons/v1_VE1000_randls_48_rotated.json,761344,917038,51,Woman
91,338576,DepthScenes,duration_manipulation_targetAtFixation,jsons/v1_VE1000_randls_48_rotated.json,http://54.235.29.9/FacialAge/BNav_EC2/DepthDuration/v2_depth_duration_MTurk/v2_DepthDuration_HTML.html#149,149,1366,768,1366,768,8-22-2022,8-0-32,92,depth_duration_stimuli/002153_2014-06-25_21-27-18_260595134347_rgbf000038-resize_5/002153_2014-06-25_21-27-18_260595134347_rgbf000038-resize_5-target.png,1000,2.505,2,3153,996,meters,jsons/v1_VE1000_randls_48_rotated.json,761344,917038,51,Woman
92,338576,DepthScenes,duration_manipulation_targetAtFixation,jsons/v1_VE1000_randls_48_rotated.json,http://54.235.29.9/FacialAge/BNav_EC2/DepthDuration/v2_depth_duration_MTurk/v2_DepthDuration_HTML.html#149,149,1366,768,1366,768,8-22-2022,8-0-32,93,depth_duration_stimuli/002875_2014-06-01_15-19-00_094959634447_rgbf000151-resize_1/002875_2014-06-01_15-19-00_094959634447_rgbf000151-resize_1-target.png,1000,1.9675,3,2907,998,meters,jsons/v1_VE1000_randls_48_rotated.json,761344,917038,51,Woman
93,338576,DepthScenes,duration_manipulation_targetAtFixation,jsons/v1_VE1000_randls_48_rotated.json,http://54.235.29.9/FacialAge/BNav_EC2/DepthDuration/v2_depth_duration_MTurk/v2_DepthDuration_HTML.html#149,149,1366,768,1366,768,8-22-2022,8-0-32,94,depth_duration_stimuli/001011_2014-06-08_23-18-54_260595134347_rgbf000044-resize_4/001011_2014-06-08_23-18-54_260595134347_rgbf000044-resize_4-target.png,1000,2.4730000000000003,2,3065,998,meters,jsons/v1_VE1000_randls_48_rotated.json,761344,917038,51,Woman
94,338576,DepthScenes,duration_manipulation_targetAtFixation,jsons/v1_VE1000_randls_48_rotated.json,http://54.235.29.9/FacialAge/BNav_EC2/DepthDuration/v2_depth_duration_MTurk/v2_DepthDuration_HTML.html#149,149,1366,768,1366,768,8-22-2022,8-0-32,95,depth_duration_stimuli/000749_2014-06-08_21-55-06_260595134347_rgbf000070-resize_2/000749_2014-06-08_21-55-06_260595134347_rgbf000070-resize_2-target.png,1000,2.331,3,2797,918,meters,jsons/v1_VE1000_randls_48_rotated.json,761344,917038,51,Woman
95,338576,DepthScenes,duration_manipulation_targetAtFixation,jsons/v1_VE1000_randls_48_rotated.json,http://54.235.29.9/FacialAge/BNav_EC2/DepthDuration/v2_depth_duration_MTurk/v2_DepthDuration_HTML.html#149,149,1366,768,1366,768,8-22-2022,8-0-32,96,depth_duration_stimuli/002788_2014-06-22_19-36-03_094959634447_rgbf000088-resize_2/002788_2014-06-22_19-36-03_094959634447_rgbf000088-resize_2-target.png,1000,1.6465,1,3542,996,meters,jsons/v1_VE1000_randls_48_rotated.json,761344,917038,51,Woman
96,338576,DepthScenes,duration_manipulation_targetAtFixation,jsons/v1_VE1000_randls_48_rotated.json,http://54.235.29.9/FacialAge/BNav_EC2/DepthDuration/v2_depth_duration_MTurk/v2_DepthDuration_HTML.html#149,149,1366,768,1366,768,8-22-2022,8-0-32,97,depth_duration_stimuli/002750_2014-06-22_19-08-03_094959634447_rgbf000094-resize_4/002750_2014-06-22_19-08-03_094959634447_rgbf000094-resize_4-target.png,1000,2.354,2,3030,1086,meters,jsons/v1_VE1000_randls_48_rotated.json,761344,917038,51,Woman
97,338576,DepthScenes,duration_manipulation_targetAtFixation,jsons/v1_VE1000_randls_48_rotated.json,http://54.235.29.9/FacialAge/BNav_EC2/DepthDuration/v2_depth_duration_MTurk/v2_DepthDuration_HTML.html#149,149,1366,768,1366,768,8-22-2022,8-0-32,98,depth_duration_stimuli/002549_2014-06-24_13-41-39_094959634447_rgbf000022-resize_3/002549_2014-06-24_13-41-39_094959634447_rgbf000022-resize_3-target.png,1000,1.476,3,3338,996,meters,jsons/v1_VE1000_randls_48_rotated.json,761344,917038,51,Woman
98,338576,DepthScenes,duration_manipulation_targetAtFixation,jsons/v1_VE1000_randls_48_rotated.json,http://54.235.29.9/FacialAge/BNav_EC2/DepthDuration/v2_depth_duration_MTurk/v2_DepthDuration_HTML.html#149,149,1366,768,1366,768,8-22-2022,8-0-32,99,depth_duration_stimuli/001222_2014-06-17_16-24-06_260595134347_rgbf000073-resize_0/001222_2014-06-17_16-24-06_260595134347_rgbf000073-resize-original.jpg,1000,1.4385,0,5499,992,meters,jsons/v1_VE1000_randls_48_rotated.json,761344,917038,51,Woman
99,338576,DepthScenes,duration_manipulation_targetAtFixation,jsons/v1_VE1000_randls_48_rotated.json,http://54.235.29.9/FacialAge/BNav_EC2/DepthDuration/v2_depth_duration_MTurk/v2_DepthDuration_HTML.html#149,149,1366,768,1366,768,8-22-2022,8-0-32,100,depth_duration_stimuli/000677_2014-06-08_23-10-32_260595134347_rgbf000158-resize_6/000677_2014-06-08_23-10-32_260595134347_rgbf000158-resize_6-target.png,1000,3.556,2,3356,989,meters,jsons/v1_VE1000_randls_48_rotated.json,761344,917038,51,Woman
100,338576,DepthScenes,duration_manipulation_targetAtFixation,jsons/v1_VE1000_randls_48_rotated.json,http://54.235.29.9/FacialAge/BNav_EC2/DepthDuration/v2_depth_duration_MTurk/v2_DepthDuration_HTML.html#149,149,1366,768,1366,768,8-22-2022,8-0-32,101,depth_duration_stimuli/001029_2014-06-08_13-17-57_260595134347_rgbf000065-resize_1/001029_2014-06-08_13-17-57_260595134347_rgbf000065-resize_1-target.png,1000,3.0835,1,3502,998,meters,jsons/v1_VE1000_randls_48_rotated.json,761344,917038,51,Woman
101,338576,DepthScenes,duration_manipulation_targetAtFixation,jsons/v1_VE1000_randls_48_rotated.json,http://54.235.29.9/FacialAge/BNav_EC2/DepthDuration/v2_depth_duration_MTurk/v2_DepthDuration_HTML.html#149,149,1366,768,1366,768,8-22-2022,8-0-32,102,depth_duration_stimuli/002323_2014-06-28_20-01-54_260595134347_rgbf000051-resize_4/002323_2014-06-28_20-01-54_260595134347_rgbf000051-resize_4-target.png,1000,3.7310000000000003,3,3067,981,meters,jsons/v1_VE1000_randls_48_rotated.json,761344,917038,51,Woman
102,338576,DepthScenes,duration_manipulation_targetAtFixation,jsons/v1_VE1000_randls_48_rotated.json,http://54.235.29.9/FacialAge/BNav_EC2/DepthDuration/v2_depth_duration_MTurk/v2_DepthDuration_HTML.html#149,149,1366,768,1366,768,8-22-2022,8-0-32,103,depth_duration_stimuli/000917_2014-06-09_22-45-29_260595134347_rgbf000149-resize_3/000917_2014-06-09_22-45-29_260595134347_rgbf000149-resize_3-target.png,1000,4.1865,2,3332,987,meters,jsons/v1_VE1000_randls_48_rotated.json,761344,917038,51,Woman
103,338576,DepthScenes,duration_manipulation_targetAtFixation,jsons/v1_VE1000_randls_48_rotated.json,http://54.235.29.9/FacialAge/BNav_EC2/DepthDuration/v2_depth_duration_MTurk/v2_DepthDuration_HTML.html#149,149,1366,768,1366,768,8-22-2022,8-0-32,104,depth_duration_stimuli/002639_2014-06-24_14-51-37_094959634447_rgbf000074-resize_4/002639_2014-06-24_14-51-37_094959634447_rgbf000074-resize_4-target.png,1000,4.0375,1,3218,883,meters,jsons/v1_VE1000_randls_48_rotated.json,761344,917038,51,Woman
104,338576,DepthScenes,duration_manipulation_targetAtFixation,jsons/v1_VE1000_randls_48_rotated.json,http://54.235.29.9/FacialAge/BNav_EC2/DepthDuration/v2_depth_duration_MTurk/v2_DepthDuration_HTML.html#149,149,1366,768,1366,768,8-22-2022,8-0-32,105,depth_duration_stimuli/003292_2014-05-14_21-53-49_094959634447_rgbf000100-resize_2/003292_2014-05-14_21-53-49_094959634447_rgbf000100-resize_2-target.png,1000,3.4815,2,2984,995,meters,jsons/v1_VE1000_randls_48_rotated.json,761344,917038,51,Woman
105,338576,DepthScenes,duration_manipulation_targetAtFixation,jsons/v1_VE1000_randls_48_rotated.json,http://54.235.29.9/FacialAge/BNav_EC2/DepthDuration/v2_depth_duration_MTurk/v2_DepthDuration_HTML.html#149,149,1366,768,1366,768,8-22-2022,8-0-32,106,depth_duration_stimuli/003587_2014-05-23_16-48-02_094959634447_rgbf002384-resize_2/003587_2014-05-23_16-48-02_094959634447_rgbf002384-resize_2-target.png,1000,1.357,3,3669,1056,meters,jsons/v1_VE1000_randls_48_rotated.json,761344,917038,51,Woman
106,338576,DepthScenes,duration_manipulation_targetAtFixation,jsons/v1_VE1000_randls_48_rotated.json,http://54.235.29.9/FacialAge/BNav_EC2/DepthDuration/v2_depth_duration_MTurk/v2_DepthDuration_HTML.html#149,149,1366,768,1366,768,8-22-2022,8-0-32,107,depth_duration_stimuli/001167_2014-06-17_15-38-07_260595134347_rgbf000108-resize_0/001167_2014-06-17_15-38-07_260595134347_rgbf000108-resize_0-target.png,1000,1.8505,2,3440,1013,meters,jsons/v1_VE1000_randls_48_rotated.json,761344,917038,51,Woman
107,338576,DepthScenes,duration_manipulation_targetAtFixation,jsons/v1_VE1000_randls_48_rotated.json,http://54.235.29.9/FacialAge/BNav_EC2/DepthDuration/v2_depth_duration_MTurk/v2_DepthDuration_HTML.html#149,149,1366,768,1366,768,8-22-2022,8-0-32,108,depth_duration_stimuli/001100_2014-06-15_17-46-26_260595134347_rgbf000225-resize_2/001100_2014-06-15_17-46-26_260595134347_rgbf000225-resize_2-target.png,1000,2.24,1,3272,995,meters,jsons/v1_VE1000_randls_48_rotated.json,761344,917038,51,Woman
108,338576,DepthScenes,duration_manipulation_targetAtFixation,jsons/v1_VE1000_randls_48_rotated.json,http://54.235.29.9/FacialAge/BNav_EC2/DepthDuration/v2_depth_duration_MTurk/v2_DepthDuration_HTML.html#149,149,1366,768,1366,768,8-22-2022,8-0-32,109,depth_duration_stimuli/002784_2014-06-22_19-26-30_094959634447_rgbf000083-resize_3/002784_2014-06-22_19-26-30_094959634447_rgbf000083-resize_3-target.png,1000,1.8046666666667,3,3156,995,meters,jsons/v1_VE1000_randls_48_rotated.json,761344,917038,51,Woman
109,338576,DepthScenes,duration_manipulation_targetAtFixation,jsons/v1_VE1000_randls_48_rotated.json,http://54.235.29.9/FacialAge/BNav_EC2/DepthDuration/v2_depth_duration_MTurk/v2_DepthDuration_HTML.html#149,149,1366,768,1366,768,8-22-2022,8-0-32,110,depth_duration_stimuli/002199_2014-06-28_18-33-56_260595134347_rgbf000074-resize_0/002199_2014-06-28_18-33-56_260595134347_rgbf000074-resize_0-target.png,1000,1.996,2,3186,988,meters,jsons/v1_VE1000_randls_48_rotated.json,761344,917038,51,Woman
110,338576,DepthScenes,duration_manipulation_targetAtFixation,jsons/v1_VE1000_randls_48_rotated.json,http://54.235.29.9/FacialAge/BNav_EC2/DepthDuration/v2_depth_duration_MTurk/v2_DepthDuration_HTML.html#149,149,1366,768,1366,768,8-22-2022,8-0-32,111,depth_duration_stimuli/001056_2014-06-08_18-46-44_260595134347_rgbf000068-resize_0/001056_2014-06-08_18-46-44_260595134347_rgbf000068-resize_0-target.png,1000,2.6625,1,3295,992,meters,jsons/v1_VE1000_randls_48_rotated.json,761344,917038,51,Woman
111,338576,DepthScenes,duration_manipulation_targetAtFixation,jsons/v1_VE1000_randls_48_rotated.json,http://54.235.29.9/FacialAge/BNav_EC2/DepthDuration/v2_depth_duration_MTurk/v2_DepthDuration_HTML.html#149,149,1366,768,1366,768,8-22-2022,8-0-32,112,depth_duration_stimuli/000927_2014-06-09_16-32-30_260595134347_rgbf000123-resize_3/000927_2014-06-09_16-32-30_260595134347_rgbf000123-resize_3-target.png,1000,2.6785,2,3501,1099,meters,jsons/v1_VE1000_randls_48_rotated.json,761344,917038,51,Woman
112,338576,DepthScenes,duration_manipulation_targetAtFixation,jsons/v1_VE1000_randls_48_rotated.json,http://54.235.29.9/FacialAge/BNav_EC2/DepthDuration/v2_depth_duration_MTurk/v2_DepthDuration_HTML.html#149,149,1366,768,1366,768,8-22-2022,8-0-32,113,depth_duration_stimuli/001110_2014-06-15_17-25-28_260595134347_rgbf000150-resize_1/001110_2014-06-15_17-25-28_260595134347_rgbf000150-resize_1-target.png,1000,1.7115,3,3770,997,meters,jsons/v1_VE1000_randls_48_rotated.json,761344,917038,51,Woman
113,338576,DepthScenes,duration_manipulation_targetAtFixation,jsons/v1_VE1000_randls_48_rotated.json,http://54.235.29.9/FacialAge/BNav_EC2/DepthDuration/v2_depth_duration_MTurk/v2_DepthDuration_HTML.html#149,149,1366,768,1366,768,8-22-2022,8-0-32,114,depth_duration_stimuli/001571_2014-06-20_17-21-32_260595134347_rgbf000089-resize_1/001571_2014-06-20_17-21-32_260595134347_rgbf000089-resize_1-target.png,1000,1.86,2,3744,999,meters,jsons/v1_VE1000_randls_48_rotated.json,761344,917038,51,Woman
114,338576,DepthScenes,duration_manipulation_targetAtFixation,jsons/v1_VE1000_randls_48_rotated.json,http://54.235.29.9/FacialAge/BNav_EC2/DepthDuration/v2_depth_duration_MTurk/v2_DepthDuration_HTML.html#149,149,1366,768,1366,768,8-22-2022,8-0-32,115,depth_duration_stimuli/002272_2014-06-28_18-53-56_260595134347_rgbf000067-resize_2/002272_2014-06-28_18-53-56_260595134347_rgbf000067-resize_2-target.png,1000,1.138,1,3074,998,meters,jsons/v1_VE1000_randls_48_rotated.json,761344,917038,51,Woman
115,338576,DepthScenes,duration_manipulation_targetAtFixation,jsons/v1_VE1000_randls_48_rotated.json,http://54.235.29.9/FacialAge/BNav_EC2/DepthDuration/v2_depth_duration_MTurk/v2_DepthDuration_HTML.html#149,149,1366,768,1366,768,8-22-2022,8-0-32,116,depth_duration_stimuli/000137_2014-05-20_17-04-49_260595134347_rgbf000120-resize_1/000137_2014-05-20_17-04-49_260595134347_rgbf000120-resize_1-target.png,1000,3.786,2,3417,994,meters,jsons/v1_VE1000_randls_48_rotated.json,761344,917038,51,Woman
116,338576,DepthScenes,duration_manipulation_targetAtFixation,jsons/v1_VE1000_randls_48_rotated.json,http://54.235.29.9/FacialAge/BNav_EC2/DepthDuration/v2_depth_duration_MTurk/v2_DepthDuration_HTML.html#149,149,1366,768,1366,768,8-22-2022,8-0-32,117,depth_duration_stimuli/000736_2014-06-08_18-24-15_260595134347_rgbf000206-resize_3/000736_2014-06-08_18-24-15_260595134347_rgbf000206-resize_3-target.png,1000,3.515,3,3246,1000,meters,jsons/v1_VE1000_randls_48_rotated.json,761344,917038,51,Woman
117,338576,DepthScenes,duration_manipulation_targetAtFixation,jsons/v1_VE1000_randls_48_rotated.json,http://54.235.29.9/FacialAge/BNav_EC2/DepthDuration/v2_depth_duration_MTurk/v2_DepthDuration_HTML.html#149,149,1366,768,1366,768,8-22-2022,8-0-32,118,depth_duration_stimuli/002995_2014-06-15_12-31-26_094959634447_rgbf000150-resize_1/002995_2014-06-15_12-31-26_094959634447_rgbf000150-resize_1-target.png,1000,3.8360000000000003,1,4412,1004,meters,jsons/v1_VE1000_randls_48_rotated.json,761344,917038,51,Woman
118,338576,DepthScenes,duration_manipulation_targetAtFixation,jsons/v1_VE1000_randls_48_rotated.json,http://54.235.29.9/FacialAge/BNav_EC2/DepthDuration/v2_depth_duration_MTurk/v2_DepthDuration_HTML.html#149,149,1366,768,1366,768,8-22-2022,8-0-32,119,depth_duration_stimuli/002748_2014-06-22_19-07-22_094959634447_rgbf000078-resize_1/002748_2014-06-22_19-07-22_094959634447_rgbf000078-resize_1-target.png,1000,4.6705,2,2975,984,meters,jsons/v1_VE1000_randls_48_rotated.json,761344,917038,51,Woman
119,338576,DepthScenes,duration_manipulation_targetAtFixation,jsons/v1_VE1000_randls_48_rotated.json,http://54.235.29.9/FacialAge/BNav_EC2/DepthDuration/v2_depth_duration_MTurk/v2_DepthDuration_HTML.html#149,149,1366,768,1366,768,8-22-2022,8-0-32,120,depth_duration_stimuli/000787_2014-06-08_22-33-53_260595134347_rgbf000175-resize_1/000787_2014-06-08_22-33-53_260595134347_rgbf000175-resize-original.jpg,1000,4.784,0,5801,992,meters,jsons/v1_VE1000_randls_48_rotated.json,761344,917038,51,Woman
120,338576,DepthScenes,duration_manipulation_targetAtFixation,jsons/v1_VE1000_randls_48_rotated.json,http://54.235.29.9/FacialAge/BNav_EC2/DepthDuration/v2_depth_duration_MTurk/v2_DepthDuration_HTML.html#149,149,1366,768,1366,768,8-22-2022,8-0-32,121,depth_duration_stimuli/000191_2014-05-12_17-07-38_260595134347_rgbf000199-resize_0/000191_2014-05-12_17-07-38_260595134347_rgbf000199-resize_0-target.png,1000,3.7995,2,3653,992,meters,jsons/v1_VE1000_randls_48_rotated.json,761344,917038,51,Woman
121,338576,DepthScenes,duration_manipulation_targetAtFixation,jsons/v1_VE1000_randls_48_rotated.json,http://54.235.29.9/FacialAge/BNav_EC2/DepthDuration/v2_depth_duration_MTurk/v2_DepthDuration_HTML.html#149,149,1366,768,1366,768,8-22-2022,8-0-32,122,depth_duration_stimuli/000493_2014-06-09_21-01-18_260595134347_rgbf000196-resize_3/000493_2014-06-09_21-01-18_260595134347_rgbf000196-resize_3-target.png,1000,3.44,3,3255,1001,meters,jsons/v1_VE1000_randls_48_rotated.json,761344,917038,51,Woman
122,338576,DepthScenes,duration_manipulation_targetAtFixation,jsons/v1_VE1000_randls_48_rotated.json,http://54.235.29.9/FacialAge/BNav_EC2/DepthDuration/v2_depth_duration_MTurk/v2_DepthDuration_HTML.html#149,149,1366,768,1366,768,8-22-2022,8-0-32,123,depth_duration_stimuli/001136_2014-06-17_15-19-41_260595134347_rgbf000076-resize_3/001136_2014-06-17_15-19-41_260595134347_rgbf000076-resize_3-target.png,1000,1.8655,1,3298,999,meters,jsons/v1_VE1000_randls_48_rotated.json,761344,917038,51,Woman
123,338576,DepthScenes,duration_manipulation_targetAtFixation,jsons/v1_VE1000_randls_48_rotated.json,http://54.235.29.9/FacialAge/BNav_EC2/DepthDuration/v2_depth_duration_MTurk/v2_DepthDuration_HTML.html#149,149,1366,768,1366,768,8-22-2022,8-0-32,124,depth_duration_stimuli/001164_2014-06-17_15-35-46_260595134347_rgbf000085-resize_3/001164_2014-06-17_15-35-46_260595134347_rgbf000085-resize_3-target.png,1000,2.354,2,3452,1000,meters,jsons/v1_VE1000_randls_48_rotated.json,761344,917038,51,Woman
124,338576,DepthScenes,duration_manipulation_targetAtFixation,jsons/v1_VE1000_randls_48_rotated.json,http://54.235.29.9/FacialAge/BNav_EC2/DepthDuration/v2_depth_duration_MTurk/v2_DepthDuration_HTML.html#149,149,1366,768,1366,768,8-22-2022,8-0-32,125,depth_duration_stimuli/001815_2014-06-26_20-52-55_260595134347_rgbf000020-resize_0/001815_2014-06-26_20-52-55_260595134347_rgbf000020-resize_0-target.png,1000,3.3865,3,3751,994,meters,jsons/v1_VE1000_randls_48_rotated.json,761344,917038,51,Woman
125,338576,DepthScenes,duration_manipulation_targetAtFixation,jsons/v1_VE1000_randls_48_rotated.json,http://54.235.29.9/FacialAge/BNav_EC2/DepthDuration/v2_depth_duration_MTurk/v2_DepthDuration_HTML.html#149,149,1366,768,1366,768,8-22-2022,8-0-32,126,depth_duration_stimuli/001808_2014-06-26_20-50-58_260595134347_rgbf000029-resize_1/001808_2014-06-26_20-50-58_260595134347_rgbf000029-resize_1-target.png,1000,4.249,1,3273,984,meters,jsons/v1_VE1000_randls_48_rotated.json,761344,917038,51,Woman
126,338576,DepthScenes,duration_manipulation_targetAtFixation,jsons/v1_VE1000_randls_48_rotated.json,http://54.235.29.9/FacialAge/BNav_EC2/DepthDuration/v2_depth_duration_MTurk/v2_DepthDuration_HTML.html#149,149,1366,768,1366,768,8-22-2022,8-0-32,127,depth_duration_stimuli/002678_2014-06-13_16-15-32_094959634447_rgbf000151-resize_6/002678_2014-06-13_16-15-32_094959634447_rgbf000151-resize_6-target.png,1000,2.1830000000000003,2,3597,1055,meters,jsons/v1_VE1000_randls_48_rotated.json,761344,917038,51,Woman
127,338576,DepthScenes,duration_manipulation_targetAtFixation,jsons/v1_VE1000_randls_48_rotated.json,http://54.235.29.9/FacialAge/BNav_EC2/DepthDuration/v2_depth_duration_MTurk/v2_DepthDuration_HTML.html#149,149,1366,768,1366,768,8-22-2022,8-0-32,128,depth_duration_stimuli/000368_2014-06-09_15-53-01_260595134347_rgbf000155-resize_2/000368_2014-06-09_15-53-01_260595134347_rgbf000155-resize_2-target.png,1000,2.4859999999999998,3,3618,1011,meters,jsons/v1_VE1000_randls_48_rotated.json,761344,917038,51,Woman
128,338576,DepthScenes,duration_manipulation_targetAtFixation,jsons/v1_VE1000_randls_48_rotated.json,http://54.235.29.9/FacialAge/BNav_EC2/DepthDuration/v2_depth_duration_MTurk/v2_DepthDuration_HTML.html#149,149,1366,768,1366,768,8-22-2022,8-0-32,129,depth_duration_stimuli/001584_2014-06-20_11-07-43_260595134347_rgbf000002-resize_1/001584_2014-06-20_11-07-43_260595134347_rgbf000002-resize_1-target.png,1000,3.53,2,3439,1001,meters,jsons/v1_VE1000_randls_48_rotated.json,761344,917038,51,Woman
129,338576,DepthScenes,duration_manipulation_targetAtFixation,jsons/v1_VE1000_randls_48_rotated.json,http://54.235.29.9/FacialAge/BNav_EC2/DepthDuration/v2_depth_duration_MTurk/v2_DepthDuration_HTML.html#149,149,1366,768,1366,768,8-22-2022,8-0-32,130,depth_duration_stimuli/003621_2014-05-23_18-06-08_094959634447_rgbf000101-resize_1/003621_2014-05-23_18-06-08_094959634447_rgbf000101-resize_1-target.png,1000,3.9835,1,3477,1052,meters,jsons/v1_VE1000_randls_48_rotated.json,761344,917038,51,Woman
130,338576,DepthScenes,duration_manipulation_targetAtFixation,jsons/v1_VE1000_randls_48_rotated.json,http://54.235.29.9/FacialAge/BNav_EC2/DepthDuration/v2_depth_duration_MTurk/v2_DepthDuration_HTML.html#149,149,1366,768,1366,768,8-22-2022,8-0-32,131,depth_duration_stimuli/002568_2014-06-24_13-59-21_094959634447_rgbf000062-resize_4/002568_2014-06-24_13-59-21_094959634447_rgbf000062-resize_4-target.png,1000,3.015,2,3144,986,meters,jsons/v1_VE1000_randls_48_rotated.json,761344,917038,51,Woman
131,338576,DepthScenes,duration_manipulation_targetAtFixation,jsons/v1_VE1000_randls_48_rotated.json,http://54.235.29.9/FacialAge/BNav_EC2/DepthDuration/v2_depth_duration_MTurk/v2_DepthDuration_HTML.html#149,149,1366,768,1366,768,8-22-2022,8-0-32,132,depth_duration_stimuli/003492_2014-05-21_15-50-55_094959634447_rgbf000828-resize_1/003492_2014-05-21_15-50-55_094959634447_rgbf000828-resize_1-target.png,1000,4.06875,3,3249,994,meters,jsons/v1_VE1000_randls_48_rotated.json,761344,917038,51,Woman
132,338576,DepthScenes,duration_manipulation_targetAtFixation,jsons/v1_VE1000_randls_48_rotated.json,http://54.235.29.9/FacialAge/BNav_EC2/DepthDuration/v2_depth_duration_MTurk/v2_DepthDuration_HTML.html#149,149,1366,768,1366,768,8-22-2022,8-0-32,133,depth_duration_stimuli/001235_2014-06-17_16-37-36_260595134347_rgbf000084-resize_4/001235_2014-06-17_16-37-36_260595134347_rgbf000084-resize_4-target.png,1000,3.6605,2,3707,1001,meters,jsons/v1_VE1000_randls_48_rotated.json,761344,917038,51,Woman
133,338576,DepthScenes,duration_manipulation_targetAtFixation,jsons/v1_VE1000_randls_48_rotated.json,http://54.235.29.9/FacialAge/BNav_EC2/DepthDuration/v2_depth_duration_MTurk/v2_DepthDuration_HTML.html#149,149,1366,768,1366,768,8-22-2022,8-0-32,134,depth_duration_stimuli/000788_2014-06-08_22-34-36_260595134347_rgbf000131-resize_1/000788_2014-06-08_22-34-36_260595134347_rgbf000131-resize_1-target.png,1000,3.359,1,2960,998,meters,jsons/v1_VE1000_randls_48_rotated.json,761344,917038,51,Woman
134,338576,DepthScenes,duration_manipulation_targetAtFixation,jsons/v1_VE1000_randls_48_rotated.json,http://54.235.29.9/FacialAge/BNav_EC2/DepthDuration/v2_depth_duration_MTurk/v2_DepthDuration_HTML.html#149,149,1366,768,1366,768,8-22-2022,8-0-32,135,depth_duration_stimuli/000375_2014-06-08_11-17-29_260595134347_rgbf000133-resize_2/000375_2014-06-08_11-17-29_260595134347_rgbf000133-resize-original.jpg,1000,4.718,0,5922,1000,meters,jsons/v1_VE1000_randls_48_rotated.json,761344,917038,51,Woman
135,338576,DepthScenes,duration_manipulation_targetAtFixation,jsons/v1_VE1000_randls_48_rotated.json,http://54.235.29.9/FacialAge/BNav_EC2/DepthDuration/v2_depth_duration_MTurk/v2_DepthDuration_HTML.html#149,149,1366,768,1366,768,8-22-2022,8-0-32,136,depth_duration_stimuli/000457_2014-06-08_16-52-43_260595134347_rgbf000199-resize_1/000457_2014-06-08_16-52-43_260595134347_rgbf000199-resize_1-target.png,1000,3.6489999999999996,2,3310,991,meters,jsons/v1_VE1000_randls_48_rotated.json,761344,917038,51,Woman
136,338576,DepthScenes,duration_manipulation_targetAtFixation,jsons/v1_VE1000_randls_48_rotated.json,http://54.235.29.9/FacialAge/BNav_EC2/DepthDuration/v2_depth_duration_MTurk/v2_DepthDuration_HTML.html#149,149,1366,768,1366,768,8-22-2022,8-0-32,137,depth_duration_stimuli/000929_2014-06-09_16-33-19_260595134347_rgbf000139-resize_0/000929_2014-06-09_16-33-19_260595134347_rgbf000139-resize_0-target.png,1000,2.8680000000000003,3,3147,987,meters,jsons/v1_VE1000_randls_48_rotated.json,761344,917038,51,Woman
137,338576,DepthScenes,duration_manipulation_targetAtFixation,jsons/v1_VE1000_randls_48_rotated.json,http://54.235.29.9/FacialAge/BNav_EC2/DepthDuration/v2_depth_duration_MTurk/v2_DepthDuration_HTML.html#149,149,1366,768,1366,768,8-22-2022,8-0-32,138,depth_duration_stimuli/002414_2014-06-28_20-24-58_260595134347_rgbf000067-resize_4/002414_2014-06-28_20-24-58_260595134347_rgbf000067-resize_4-target.png,1000,4.363,1,3443,1003,meters,jsons/v1_VE1000_randls_48_rotated.json,761344,917038,51,Woman
138,338576,DepthScenes,duration_manipulation_targetAtFixation,jsons/v1_VE1000_randls_48_rotated.json,http://54.235.29.9/FacialAge/BNav_EC2/DepthDuration/v2_depth_duration_MTurk/v2_DepthDuration_HTML.html#149,149,1366,768,1366,768,8-22-2022,8-0-32,139,depth_duration_stimuli/000773_2014-06-08_22-24-54_260595134347_rgbf000093-resize_1/000773_2014-06-08_22-24-54_260595134347_rgbf000093-resize_1-target.png,1000,4.973,2,3037,1002,meters,jsons/v1_VE1000_randls_48_rotated.json,761344,917038,51,Woman
139,338576,DepthScenes,duration_manipulation_targetAtFixation,jsons/v1_VE1000_randls_48_rotated.json,http://54.235.29.9/FacialAge/BNav_EC2/DepthDuration/v2_depth_duration_MTurk/v2_DepthDuration_HTML.html#149,149,1366,768,1366,768,8-22-2022,8-0-32,140,depth_duration_stimuli/000866_2014-06-09_20-45-42_260595134347_rgbf000139-resize_1/000866_2014-06-09_20-45-42_260595134347_rgbf000139-resize_1-target.png,1000,3.2155,3,3346,1005,meters,jsons/v1_VE1000_randls_48_rotated.json,761344,917038,51,Woman
140,338576,DepthScenes,duration_manipulation_targetAtFixation,jsons/v1_VE1000_randls_48_rotated.json,http://54.235.29.9/FacialAge/BNav_EC2/DepthDuration/v2_depth_duration_MTurk/v2_DepthDuration_HTML.html#149,149,1366,768,1366,768,8-22-2022,8-0-32,141,depth_duration_stimuli/002989_2014-06-15_12-25-03_094959634447_rgbf000150-resize_3/002989_2014-06-15_12-25-03_094959634447_rgbf000150-resize_3-target.png,1000,4.1975,1,3448,996,meters,jsons/v1_VE1000_randls_48_rotated.json,761344,917038,51,Woman
141,338576,DepthScenes,duration_manipulation_targetAtFixation,jsons/v1_VE1000_randls_48_rotated.json,http://54.235.29.9/FacialAge/BNav_EC2/DepthDuration/v2_depth_duration_MTurk/v2_DepthDuration_HTML.html#149,149,1366,768,1366,768,8-22-2022,8-0-32,142,depth_duration_stimuli/001132_2014-06-17_14-48-54_260595134347_rgbf000100-resize_2/001132_2014-06-17_14-48-54_260595134347_rgbf000100-resize_2-target.png,1000,3.753,2,3086,994,meters,jsons/v1_VE1000_randls_48_rotated.json,761344,917038,51,Woman
142,338576,DepthScenes,duration_manipulation_targetAtFixation,jsons/v1_VE1000_randls_48_rotated.json,http://54.235.29.9/FacialAge/BNav_EC2/DepthDuration/v2_depth_duration_MTurk/v2_DepthDuration_HTML.html#149,149,1366,768,1366,768,8-22-2022,8-0-32,143,depth_duration_stimuli/001133_2014-06-17_14-49-16_260595134347_rgbf000100-resize_0/001133_2014-06-17_14-49-16_260595134347_rgbf000100-resize_0-target.png,1000,4.2115,3,3265,997,meters,jsons/v1_VE1000_randls_48_rotated.json,761344,917038,51,Woman
143,338576,DepthScenes,duration_manipulation_targetAtFixation,jsons/v1_VE1000_randls_48_rotated.json,http://54.235.29.9/FacialAge/BNav_EC2/DepthDuration/v2_depth_duration_MTurk/v2_DepthDuration_HTML.html#149,149,1366,768,1366,768,8-22-2022,8-0-32,144,depth_duration_stimuli/003338_2014-05-20_11-01-23_094959634447_rgbf000051-resize_6/003338_2014-05-20_11-01-23_094959634447_rgbf000051-resize_6-target.png,1000,1.693,2,3659,995,meters,jsons/v1_VE1000_randls_48_rotated.json,761344,917038,51,Woman
144,338576,DepthScenes,duration_manipulation_targetAtFixation,jsons/v1_VE1000_randls_48_rotated.json,http://54.235.29.9/FacialAge/BNav_EC2/DepthDuration/v2_depth_duration_MTurk/v2_DepthDuration_HTML.html#149,149,1366,768,1366,768,8-22-2022,8-0-32,145,depth_duration_stimuli/002509_2014-06-24_13-19-22_094959634447_rgbf000077-resize_0/002509_2014-06-24_13-19-22_094959634447_rgbf000077-resize_0-target.png,1000,1.3065,1,3185,1000,meters,jsons/v1_VE1000_randls_48_rotated.json,761344,917038,51,Woman
145,338576,DepthScenes,duration_manipulation_targetAtFixation,jsons/v1_VE1000_randls_48_rotated.json,http://54.235.29.9/FacialAge/BNav_EC2/DepthDuration/v2_depth_duration_MTurk/v2_DepthDuration_HTML.html#149,149,1366,768,1366,768,8-22-2022,8-0-32,146,depth_duration_stimuli/000549_2014-06-08_22-10-24_260595134347_rgbf000247-resize_3/000549_2014-06-08_22-10-24_260595134347_rgbf000247-resize_3-target.png,1000,1.841,2,3895,992,meters,jsons/v1_VE1000_randls_48_rotated.json,761344,917038,51,Woman
146,338576,DepthScenes,duration_manipulation_targetAtFixation,jsons/v1_VE1000_randls_48_rotated.json,http://54.235.29.9/FacialAge/BNav_EC2/DepthDuration/v2_depth_duration_MTurk/v2_DepthDuration_HTML.html#149,149,1366,768,1366,768,8-22-2022,8-0-32,147,depth_duration_stimuli/001055_2014-06-08_18-45-35_260595134347_rgbf000111-resize_4/001055_2014-06-08_18-45-35_260595134347_rgbf000111-resize_4-target.png,1000,2.4290000000000003,3,3120,998,meters,jsons/v1_VE1000_randls_48_rotated.json,761344,917038,51,Woman
147,338576,DepthScenes,duration_manipulation_targetAtFixation,jsons/v1_VE1000_randls_48_rotated.json,http://54.235.29.9/FacialAge/BNav_EC2/DepthDuration/v2_depth_duration_MTurk/v2_DepthDuration_HTML.html#149,149,1366,768,1366,768,8-22-2022,8-0-32,148,depth_duration_stimuli/000943_2014-06-09_19-31-07_260595134347_rgbf000128-resize_1/000943_2014-06-09_19-31-07_260595134347_rgbf000128-resize_1-target.png,1000,1.9765,3,8223,986,meters,jsons/v1_VE1000_randls_48_rotated.json,761344,917038,51,Woman
148,338576,DepthScenes,duration_manipulation_targetAtFixation,jsons/v1_VE1000_randls_48_rotated.json,http://54.235.29.9/FacialAge/BNav_EC2/DepthDuration/v2_depth_duration_MTurk/v2_DepthDuration_HTML.html#149,149,1366,768,1366,768,8-22-2022,8-0-32,149,depth_duration_stimuli/003070_2014-06-15_14-58-27_094959634447_rgbf000150-resize_3/003070_2014-06-15_14-58-27_094959634447_rgbf000150-resize_3-target.png,1000,2.9415,2,2926,958,meters,jsons/v1_VE1000_randls_48_rotated.json,761344,917038,51,Woman
149,338576,DepthScenes,duration_manipulation_targetAtFixation,jsons/v1_VE1000_randls_48_rotated.json,http://54.235.29.9/FacialAge/BNav_EC2/DepthDuration/v2_depth_duration_MTurk/v2_DepthDuration_HTML.html#149,149,1366,768,1366,768,8-22-2022,8-0-32,150,depth_duration_stimuli/001032_2014-06-08_13-23-17_260595134347_rgbf000021-resize_3/001032_2014-06-08_13-23-17_260595134347_rgbf000021-resize_3-target.png,1000,3.2725,1,4238,1006,meters,jsons/v1_VE1000_randls_48_rotated.json,761344,917038,51,Woman
150,338576,DepthScenes,duration_manipulation_targetAtFixation,jsons/v1_VE1000_randls_48_rotated.json,http://54.235.29.9/FacialAge/BNav_EC2/DepthDuration/v2_depth_duration_MTurk/v2_DepthDuration_HTML.html#149,149,1366,768,1366,768,8-22-2022,8-0-32,151,depth_duration_stimuli/001059_2014-06-08_21-53-27_260595134347_rgbf000061-resize_4/001059_2014-06-08_21-53-27_260595134347_rgbf000061-resize_4-target.png,1000,2.4185,2,3295,991,meters,jsons/v1_VE1000_randls_48_rotated.json,761344,917038,51,Woman
151,338576,DepthScenes,duration_manipulation_targetAtFixation,jsons/v1_VE1000_randls_48_rotated.json,http://54.235.29.9/FacialAge/BNav_EC2/DepthDuration/v2_depth_duration_MTurk/v2_DepthDuration_HTML.html#149,149,1366,768,1366,768,8-22-2022,8-0-32,152,depth_duration_stimuli/000569_2014-06-09_22-51-47_260595134347_rgbf000141-resize_3/000569_2014-06-09_22-51-47_260595134347_rgbf000141-resize-original.jpg,1000,4.512,0,6520,1211,meters,jsons/v1_VE1000_randls_48_rotated.json,761344,917038,51,Woman
152,338576,DepthScenes,duration_manipulation_targetAtFixation,jsons/v1_VE1000_randls_48_rotated.json,http://54.235.29.9/FacialAge/BNav_EC2/DepthDuration/v2_depth_duration_MTurk/v2_DepthDuration_HTML.html#149,149,1366,768,1366,768,8-22-2022,8-0-32,153,depth_duration_stimuli/000556_2014-06-09_22-42-56_260595134347_rgbf000214-resize_1/000556_2014-06-09_22-42-56_260595134347_rgbf000214-resize_1-target.png,1000,4.8415,1,3525,1011,meters,jsons/v1_VE1000_randls_48_rotated.json,761344,917038,51,Woman
153,338576,DepthScenes,duration_manipulation_targetAtFixation,jsons/v1_VE1000_randls_48_rotated.json,http://54.235.29.9/FacialAge/BNav_EC2/DepthDuration/v2_depth_duration_MTurk/v2_DepthDuration_HTML.html#149,149,1366,768,1366,768,8-22-2022,8-0-32,154,depth_duration_stimuli/001158_2014-06-17_15-32-16_260595134347_rgbf000138-resize_2/001158_2014-06-17_15-32-16_260595134347_rgbf000138-resize_2-target.png,1000,4.5315,2,3627,997,meters,jsons/v1_VE1000_randls_48_rotated.json,761344,917038,51,Woman
154,338576,DepthScenes,duration_manipulation_targetAtFixation,jsons/v1_VE1000_randls_48_rotated.json,http://54.235.29.9/FacialAge/BNav_EC2/DepthDuration/v2_depth_duration_MTurk/v2_DepthDuration_HTML.html#149,149,1366,768,1366,768,8-22-2022,8-0-32,155,depth_duration_stimuli/002344_2014-06-28_20-06-29_260595134347_rgbf000030-resize_1/002344_2014-06-28_20-06-29_260595134347_rgbf000030-resize_1-target.png,1000,1.5795,3,3587,997,meters,jsons/v1_VE1000_randls_48_rotated.json,761344,917038,51,Woman
155,338576,DepthScenes,duration_manipulation_targetAtFixation,jsons/v1_VE1000_randls_48_rotated.json,http://54.235.29.9/FacialAge/BNav_EC2/DepthDuration/v2_depth_duration_MTurk/v2_DepthDuration_HTML.html#149,149,1366,768,1366,768,8-22-2022,8-0-32,156,depth_duration_stimuli/002725_2014-06-22_11-47-51_094959634447_rgbf000070-resize_1/002725_2014-06-22_11-47-51_094959634447_rgbf000070-resize_1-target.png,1000,2.195,2,3688,1005,meters,jsons/v1_VE1000_randls_48_rotated.json,761344,917038,51,Woman
156,338576,DepthScenes,duration_manipulation_targetAtFixation,jsons/v1_VE1000_randls_48_rotated.json,http://54.235.29.9/FacialAge/BNav_EC2/DepthDuration/v2_depth_duration_MTurk/v2_DepthDuration_HTML.html#149,149,1366,768,1366,768,8-22-2022,8-0-32,157,depth_duration_stimuli/000409_2014-06-04_19-23-33_260595134347_rgbf000067-resize_0/000409_2014-06-04_19-23-33_260595134347_rgbf000067-resize_0-target.png,1000,3.7335,3,4468,995,meters,jsons/v1_VE1000_randls_48_rotated.json,761344,917038,51,Woman
157,338576,DepthScenes,duration_manipulation_targetAtFixation,jsons/v1_VE1000_randls_48_rotated.json,http://54.235.29.9/FacialAge/BNav_EC2/DepthDuration/v2_depth_duration_MTurk/v2_DepthDuration_HTML.html#149,149,1366,768,1366,768,8-22-2022,8-0-32,158,depth_duration_stimuli/002663_2014-06-13_15-50-26_094959634447_rgbf000075-resize_1/002663_2014-06-13_15-50-26_094959634447_rgbf000075-resize_1-target.png,1000,4.7495,1,4338,985,meters,jsons/v1_VE1000_randls_48_rotated.json,761344,917038,51,Woman
158,338576,DepthScenes,duration_manipulation_targetAtFixation,jsons/v1_VE1000_randls_48_rotated.json,http://54.235.29.9/FacialAge/BNav_EC2/DepthDuration/v2_depth_duration_MTurk/v2_DepthDuration_HTML.html#149,149,1366,768,1366,768,8-22-2022,8-0-32,159,depth_duration_stimuli/003129_2014-05-12_10-48-10_094959634447_rgbf000100-resize_0/003129_2014-05-12_10-48-10_094959634447_rgbf000100-resize_0-target.png,1000,4.9305,2,3189,998,meters,jsons/v1_VE1000_randls_48_rotated.json,761344,917038,51,Woman
159,338576,DepthScenes,duration_manipulation_targetAtFixation,jsons/v1_VE1000_randls_48_rotated.json,http://54.235.29.9/FacialAge/BNav_EC2/DepthDuration/v2_depth_duration_MTurk/v2_DepthDuration_HTML.html#149,149,1366,768,1366,768,8-22-2022,8-0-32,160,depth_duration_stimuli/000414_2014-06-04_19-49-13_260595134347_rgbf000044-resize_0/000414_2014-06-04_19-49-13_260595134347_rgbf000044-resize_0-target.png,1000,4.329,3,3711,1004,meters,jsons/v1_VE1000_randls_48_rotated.json,761344,917038,51,Woman
160,338576,DepthScenes,duration_manipulation_targetAtFixation,jsons/v1_VE1000_randls_48_rotated.json,http://54.235.29.9/FacialAge/BNav_EC2/DepthDuration/v2_depth_duration_MTurk/v2_DepthDuration_HTML.html#149,149,1366,768,1366,768,8-22-2022,8-0-32,161,depth_duration_stimuli/000103_2014-05-14_22-01-17_260595134347_rgbf000152-resize_5/000103_2014-05-14_22-01-17_260595134347_rgbf000152-resize_5-target.png,1000,1.993,1,5179,997,meters,jsons/v1_VE1000_randls_48_rotated.json,761344,917038,51,Woman
161,338576,DepthScenes,duration_manipulation_targetAtFixation,jsons/v1_VE1000_randls_48_rotated.json,http://54.235.29.9/FacialAge/BNav_EC2/DepthDuration/v2_depth_duration_MTurk/v2_DepthDuration_HTML.html#149,149,1366,768,1366,768,8-22-2022,8-0-32,162,depth_duration_stimuli/001555_2014-06-20_17-12-10_260595134347_rgbf000065-resize_4/001555_2014-06-20_17-12-10_260595134347_rgbf000065-resize_4-target.png,1000,1.633,2,3463,989,meters,jsons/v1_VE1000_randls_48_rotated.json,761344,917038,51,Woman
162,338576,DepthScenes,duration_manipulation_targetAtFixation,jsons/v1_VE1000_randls_48_rotated.json,http://54.235.29.9/FacialAge/BNav_EC2/DepthDuration/v2_depth_duration_MTurk/v2_DepthDuration_HTML.html#149,149,1366,768,1366,768,8-22-2022,8-0-32,163,depth_duration_stimuli/003081_2014-06-15_15-19-16_094959634447_rgbf000150-resize_1/003081_2014-06-15_15-19-16_094959634447_rgbf000150-resize_1-target.png,1000,3.9125,3,3257,1008,meters,jsons/v1_VE1000_randls_48_rotated.json,761344,917038,51,Woman
163,338576,DepthScenes,duration_manipulation_targetAtFixation,jsons/v1_VE1000_randls_48_rotated.json,http://54.235.29.9/FacialAge/BNav_EC2/DepthDuration/v2_depth_duration_MTurk/v2_DepthDuration_HTML.html#149,149,1366,768,1366,768,8-22-2022,8-0-32,164,depth_duration_stimuli/001417_2014-06-19_16-25-36_260595134347_rgbf000115-resize_5/001417_2014-06-19_16-25-36_260595134347_rgbf000115-resize_5-target.png,1000,4.6255,1,3433,995,meters,jsons/v1_VE1000_randls_48_rotated.json,761344,917038,51,Woman
