,subjID,experimentName,versionName,sequenceName,url,selected_row,windowWidth,windowHeight,screenWidth,screenHeight,startDate,startTime,trial,stimulus,duration,actual_depth,depth_estimate,trial_RT,log_sceneDuration,unitSelection,seq_filepath,experimentTime,totalTime,age,gender
0,339164,DepthScenes,duration_manipulation_targetAtFixation,jsons/v1_VE250_randls_57.json,http://54.235.29.9/FacialAge/BNav_EC2/DepthDuration/v2_depth_duration_MTurk/v2_DepthDuration_HTML.html#416,416,1366,768,1366,768,8-29-2022,9-42-0,1,depth_duration_stimuli/002118_2014-06-25_20-32-08_260595134347_rgbf000078-resize_1/002118_2014-06-25_20-32-08_260595134347_rgbf000078-resize_1-target.png,250,2.6460000000000004,30,2989,249,meters,jsons/v1_VE250_randls_57.json,836444,1145603,50,Woman
1,339164,DepthScenes,duration_manipulation_targetAtFixation,jsons/v1_VE250_randls_57.json,http://54.235.29.9/FacialAge/BNav_EC2/DepthDuration/v2_depth_duration_MTurk/v2_DepthDuration_HTML.html#416,416,1366,768,1366,768,8-29-2022,9-42-0,2,depth_duration_stimuli/001516_2014-06-20_16-25-09_260595134347_rgbf000076-resize_2/001516_2014-06-20_16-25-09_260595134347_rgbf000076-resize_2-target.png,250,1.7445,12,2592,248,meters,jsons/v1_VE250_randls_57.json,836444,1145603,50,Woman
2,339164,DepthScenes,duration_manipulation_targetAtFixation,jsons/v1_VE250_randls_57.json,http://54.235.29.9/FacialAge/BNav_EC2/DepthDuration/v2_depth_duration_MTurk/v2_DepthDuration_HTML.html#416,416,1366,768,1366,768,8-29-2022,9-42-0,3,depth_duration_stimuli/001150_2014-06-17_15-27-34_260595134347_rgbf000108-resize_2/001150_2014-06-17_15-27-34_260595134347_rgbf000108-resize_2-target.png,250,4.0325,4,4710,257,meters,jsons/v1_VE250_randls_57.json,836444,1145603,50,Woman
3,339164,DepthScenes,duration_manipulation_targetAtFixation,jsons/v1_VE250_randls_57.json,http://54.235.29.9/FacialAge/BNav_EC2/DepthDuration/v2_depth_duration_MTurk/v2_DepthDuration_HTML.html#416,416,1366,768,1366,768,8-29-2022,9-42-0,4,depth_duration_stimuli/000665_2014-06-09_20-42-35_260595134347_rgbf000110-resize_1/000665_2014-06-09_20-42-35_260595134347_rgbf000110-resize_1-target.png,250,3.057,15,3128,264,meters,jsons/v1_VE250_randls_57.json,836444,1145603,50,Woman
4,339164,DepthScenes,duration_manipulation_targetAtFixation,jsons/v1_VE250_randls_57.json,http://54.235.29.9/FacialAge/BNav_EC2/DepthDuration/v2_depth_duration_MTurk/v2_DepthDuration_HTML.html#416,416,1366,768,1366,768,8-29-2022,9-42-0,5,depth_duration_stimuli/000447_2014-06-08_16-15-46_260595134347_rgbf000130-resize_1/000447_2014-06-08_16-15-46_260595134347_rgbf000130-resize_1-target.png,250,4.479,20,2653,248,meters,jsons/v1_VE250_randls_57.json,836444,1145603,50,Woman
5,339164,DepthScenes,duration_manipulation_targetAtFixation,jsons/v1_VE250_randls_57.json,http://54.235.29.9/FacialAge/BNav_EC2/DepthDuration/v2_depth_duration_MTurk/v2_DepthDuration_HTML.html#416,416,1366,768,1366,768,8-29-2022,9-42-0,6,depth_duration_stimuli/001447_2014-06-19_17-00-32_260595134347_rgbf000082-resize_5/001447_2014-06-19_17-00-32_260595134347_rgbf000082-resize_5-target.png,250,4.13775,22,4256,247,meters,jsons/v1_VE250_randls_57.json,836444,1145603,50,Woman
6,339164,DepthScenes,duration_manipulation_targetAtFixation,jsons/v1_VE250_randls_57.json,http://54.235.29.9/FacialAge/BNav_EC2/DepthDuration/v2_depth_duration_MTurk/v2_DepthDuration_HTML.html#416,416,1366,768,1366,768,8-29-2022,9-42-0,7,depth_duration_stimuli/002763_2014-06-22_19-13-10_094959634447_rgbf000075-resize_4/002763_2014-06-22_19-13-10_094959634447_rgbf000075-resize_4-target.png,250,1.68375,8,3262,247,meters,jsons/v1_VE250_randls_57.json,836444,1145603,50,Woman
7,339164,DepthScenes,duration_manipulation_targetAtFixation,jsons/v1_VE250_randls_57.json,http://54.235.29.9/FacialAge/BNav_EC2/DepthDuration/v2_depth_duration_MTurk/v2_DepthDuration_HTML.html#416,416,1366,768,1366,768,8-29-2022,9-42-0,8,depth_duration_stimuli/002209_2014-06-28_18-36-10_260595134347_rgbf000051-resize_1/002209_2014-06-28_18-36-10_260595134347_rgbf000051-resize_1-target.png,250,2.057,10,2475,245,meters,jsons/v1_VE250_randls_57.json,836444,1145603,50,Woman
8,339164,DepthScenes,duration_manipulation_targetAtFixation,jsons/v1_VE250_randls_57.json,http://54.235.29.9/FacialAge/BNav_EC2/DepthDuration/v2_depth_duration_MTurk/v2_DepthDuration_HTML.html#416,416,1366,768,1366,768,8-29-2022,9-42-0,9,depth_duration_stimuli/002988_2014-06-15_12-24-20_094959634447_rgbf000150-resize_1/002988_2014-06-15_12-24-20_094959634447_rgbf000150-resize_1-target.png,250,4.7669999999999995,20,2784,247,meters,jsons/v1_VE250_randls_57.json,836444,1145603,50,Woman
9,339164,DepthScenes,duration_manipulation_targetAtFixation,jsons/v1_VE250_randls_57.json,http://54.235.29.9/FacialAge/BNav_EC2/DepthDuration/v2_depth_duration_MTurk/v2_DepthDuration_HTML.html#416,416,1366,768,1366,768,8-29-2022,9-42-0,10,depth_duration_stimuli/001052_2014-06-08_18-24-54_260595134347_rgbf000130-resize_1/001052_2014-06-08_18-24-54_260595134347_rgbf000130-resize_1-target.png,250,4.1045,25,2578,250,meters,jsons/v1_VE250_randls_57.json,836444,1145603,50,Woman
10,339164,DepthScenes,duration_manipulation_targetAtFixation,jsons/v1_VE250_randls_57.json,http://54.235.29.9/FacialAge/BNav_EC2/DepthDuration/v2_depth_duration_MTurk/v2_DepthDuration_HTML.html#416,416,1366,768,1366,768,8-29-2022,9-42-0,11,depth_duration_stimuli/003292_2014-05-14_21-53-49_094959634447_rgbf000100-resize_2/003292_2014-05-14_21-53-49_094959634447_rgbf000100-resize_2-target.png,250,3.4815,15,2541,248,meters,jsons/v1_VE250_randls_57.json,836444,1145603,50,Woman
11,339164,DepthScenes,duration_manipulation_targetAtFixation,jsons/v1_VE250_randls_57.json,http://54.235.29.9/FacialAge/BNav_EC2/DepthDuration/v2_depth_duration_MTurk/v2_DepthDuration_HTML.html#416,416,1366,768,1366,768,8-29-2022,9-42-0,12,depth_duration_stimuli/002639_2014-06-24_14-51-37_094959634447_rgbf000074-resize_4/002639_2014-06-24_14-51-37_094959634447_rgbf000074-resize_4-target.png,250,4.0375,10,2585,246,meters,jsons/v1_VE250_randls_57.json,836444,1145603,50,Woman
12,339164,DepthScenes,duration_manipulation_targetAtFixation,jsons/v1_VE250_randls_57.json,http://54.235.29.9/FacialAge/BNav_EC2/DepthDuration/v2_depth_duration_MTurk/v2_DepthDuration_HTML.html#416,416,1366,768,1366,768,8-29-2022,9-42-0,13,depth_duration_stimuli/000569_2014-06-09_22-51-47_260595134347_rgbf000141-resize_3/000569_2014-06-09_22-51-47_260595134347_rgbf000141-resize-original.jpg,250,4.512,0,2484,249,meters,jsons/v1_VE250_randls_57.json,836444,1145603,50,Woman
13,339164,DepthScenes,duration_manipulation_targetAtFixation,jsons/v1_VE250_randls_57.json,http://54.235.29.9/FacialAge/BNav_EC2/DepthDuration/v2_depth_duration_MTurk/v2_DepthDuration_HTML.html#416,416,1366,768,1366,768,8-29-2022,9-42-0,14,depth_duration_stimuli/001570_2014-06-20_17-21-09_260595134347_rgbf000135-resize_4/001570_2014-06-20_17-21-09_260595134347_rgbf000135-resize_4-target.png,250,4.467,30,4448,248,meters,jsons/v1_VE250_randls_57.json,836444,1145603,50,Woman
14,339164,DepthScenes,duration_manipulation_targetAtFixation,jsons/v1_VE250_randls_57.json,http://54.235.29.9/FacialAge/BNav_EC2/DepthDuration/v2_depth_duration_MTurk/v2_DepthDuration_HTML.html#416,416,1366,768,1366,768,8-29-2022,9-42-0,15,depth_duration_stimuli/001392_2014-06-19_16-07-59_260595134347_rgbf000046-resize_1/001392_2014-06-19_16-07-59_260595134347_rgbf000046-resize_1-target.png,250,4.135,20,2434,252,meters,jsons/v1_VE250_randls_57.json,836444,1145603,50,Woman
15,339164,DepthScenes,duration_manipulation_targetAtFixation,jsons/v1_VE250_randls_57.json,http://54.235.29.9/FacialAge/BNav_EC2/DepthDuration/v2_depth_duration_MTurk/v2_DepthDuration_HTML.html#416,416,1366,768,1366,768,8-29-2022,9-42-0,16,depth_duration_stimuli/000506_2014-06-08_23-21-00_260595134347_rgbf000070-resize_7/000506_2014-06-08_23-21-00_260595134347_rgbf000070-resize_7-target.png,250,4.0585,25,2358,247,meters,jsons/v1_VE250_randls_57.json,836444,1145603,50,Woman
16,339164,DepthScenes,duration_manipulation_targetAtFixation,jsons/v1_VE250_randls_57.json,http://54.235.29.9/FacialAge/BNav_EC2/DepthDuration/v2_depth_duration_MTurk/v2_DepthDuration_HTML.html#416,416,1366,768,1366,768,8-29-2022,9-42-0,17,depth_duration_stimuli/003079_2014-06-15_15-18-20_094959634447_rgbf000152-resize_8/003079_2014-06-15_15-18-20_094959634447_rgbf000152-resize_8-target.png,250,2.8775,22,2488,252,meters,jsons/v1_VE250_randls_57.json,836444,1145603,50,Woman
17,339164,DepthScenes,duration_manipulation_targetAtFixation,jsons/v1_VE250_randls_57.json,http://54.235.29.9/FacialAge/BNav_EC2/DepthDuration/v2_depth_duration_MTurk/v2_DepthDuration_HTML.html#416,416,1366,768,1366,768,8-29-2022,9-42-0,18,depth_duration_stimuli/002784_2014-06-22_19-26-30_094959634447_rgbf000083-resize_3/002784_2014-06-22_19-26-30_094959634447_rgbf000083-resize_3-target.png,250,1.8046666666667,8,2560,249,meters,jsons/v1_VE250_randls_57.json,836444,1145603,50,Woman
18,339164,DepthScenes,duration_manipulation_targetAtFixation,jsons/v1_VE250_randls_57.json,http://54.235.29.9/FacialAge/BNav_EC2/DepthDuration/v2_depth_duration_MTurk/v2_DepthDuration_HTML.html#416,416,1366,768,1366,768,8-29-2022,9-42-0,19,depth_duration_stimuli/001100_2014-06-15_17-46-26_260595134347_rgbf000225-resize_2/001100_2014-06-15_17-46-26_260595134347_rgbf000225-resize_2-target.png,250,2.24,6,2554,247,meters,jsons/v1_VE250_randls_57.json,836444,1145603,50,Woman
19,339164,DepthScenes,duration_manipulation_targetAtFixation,jsons/v1_VE250_randls_57.json,http://54.235.29.9/FacialAge/BNav_EC2/DepthDuration/v2_depth_duration_MTurk/v2_DepthDuration_HTML.html#416,416,1366,768,1366,768,8-29-2022,9-42-0,20,depth_duration_stimuli/000906_2014-06-08_13-35-43_260595134347_rgbf000155-resize_1/000906_2014-06-08_13-35-43_260595134347_rgbf000155-resize_1-target.png,250,2.8489999999999998,20,31610,247,meters,jsons/v1_VE250_randls_57.json,836444,1145603,50,Woman
20,339164,DepthScenes,duration_manipulation_targetAtFixation,jsons/v1_VE250_randls_57.json,http://54.235.29.9/FacialAge/BNav_EC2/DepthDuration/v2_depth_duration_MTurk/v2_DepthDuration_HTML.html#416,416,1366,768,1366,768,8-29-2022,9-42-0,21,depth_duration_stimuli/002805_2014-06-22_19-54-03_094959634447_rgbf000079-resize_1/002805_2014-06-22_19-54-03_094959634447_rgbf000079-resize_1-target.png,250,3.1439999999999997,15,3978,251,meters,jsons/v1_VE250_randls_57.json,836444,1145603,50,Woman
21,339164,DepthScenes,duration_manipulation_targetAtFixation,jsons/v1_VE250_randls_57.json,http://54.235.29.9/FacialAge/BNav_EC2/DepthDuration/v2_depth_duration_MTurk/v2_DepthDuration_HTML.html#416,416,1366,768,1366,768,8-29-2022,9-42-0,22,depth_duration_stimuli/001806_2014-06-26_20-50-20_260595134347_rgbf000091-resize_1/001806_2014-06-26_20-50-20_260595134347_rgbf000091-resize_1-target.png,250,2.7305,20,2864,253,meters,jsons/v1_VE250_randls_57.json,836444,1145603,50,Woman
22,339164,DepthScenes,duration_manipulation_targetAtFixation,jsons/v1_VE250_randls_57.json,http://54.235.29.9/FacialAge/BNav_EC2/DepthDuration/v2_depth_duration_MTurk/v2_DepthDuration_HTML.html#416,416,1366,768,1366,768,8-29-2022,9-42-0,23,depth_duration_stimuli/001617_2014-06-20_11-35-32_260595134347_rgbf000066-resize_1/001617_2014-06-20_11-35-32_260595134347_rgbf000066-resize_1-target.png,250,3.7910000000000004,25,2724,250,meters,jsons/v1_VE250_randls_57.json,836444,1145603,50,Woman
23,339164,DepthScenes,duration_manipulation_targetAtFixation,jsons/v1_VE250_randls_57.json,http://54.235.29.9/FacialAge/BNav_EC2/DepthDuration/v2_depth_duration_MTurk/v2_DepthDuration_HTML.html#416,416,1366,768,1366,768,8-29-2022,9-42-0,24,depth_duration_stimuli/000009_2014-05-26_14-32-05_260595134347_rgbf000034-resize_3/000009_2014-05-26_14-32-05_260595134347_rgbf000034-resize_3-target.png,250,3.8715,22,2560,245,meters,jsons/v1_VE250_randls_57.json,836444,1145603,50,Woman
24,339164,DepthScenes,duration_manipulation_targetAtFixation,jsons/v1_VE250_randls_57.json,http://54.235.29.9/FacialAge/BNav_EC2/DepthDuration/v2_depth_duration_MTurk/v2_DepthDuration_HTML.html#416,416,1366,768,1366,768,8-29-2022,9-42-0,25,depth_duration_stimuli/001828_2014-06-26_21-40-03_260595134347_rgbf000024-resize_0/001828_2014-06-26_21-40-03_260595134347_rgbf000024-resize_0-target.png,250,4.8260000000000005,25,2664,261,meters,jsons/v1_VE250_randls_57.json,836444,1145603,50,Woman
25,339164,DepthScenes,duration_manipulation_targetAtFixation,jsons/v1_VE250_randls_57.json,http://54.235.29.9/FacialAge/BNav_EC2/DepthDuration/v2_depth_duration_MTurk/v2_DepthDuration_HTML.html#416,416,1366,768,1366,768,8-29-2022,9-42-0,26,depth_duration_stimuli/002272_2014-06-28_18-53-56_260595134347_rgbf000067-resize_2/002272_2014-06-28_18-53-56_260595134347_rgbf000067-resize_2-target.png,250,1.138,8,2243,245,meters,jsons/v1_VE250_randls_57.json,836444,1145603,50,Woman
26,339164,DepthScenes,duration_manipulation_targetAtFixation,jsons/v1_VE250_randls_57.json,http://54.235.29.9/FacialAge/BNav_EC2/DepthDuration/v2_depth_duration_MTurk/v2_DepthDuration_HTML.html#416,416,1366,768,1366,768,8-29-2022,9-42-0,27,depth_duration_stimuli/001571_2014-06-20_17-21-32_260595134347_rgbf000089-resize_1/001571_2014-06-20_17-21-32_260595134347_rgbf000089-resize_1-target.png,250,1.86,12,3354,248,meters,jsons/v1_VE250_randls_57.json,836444,1145603,50,Woman
27,339164,DepthScenes,duration_manipulation_targetAtFixation,jsons/v1_VE250_randls_57.json,http://54.235.29.9/FacialAge/BNav_EC2/DepthDuration/v2_depth_duration_MTurk/v2_DepthDuration_HTML.html#416,416,1366,768,1366,768,8-29-2022,9-42-0,28,depth_duration_stimuli/000773_2014-06-08_22-24-54_260595134347_rgbf000093-resize_1/000773_2014-06-08_22-24-54_260595134347_rgbf000093-resize_1-target.png,250,4.973,15,2913,250,meters,jsons/v1_VE250_randls_57.json,836444,1145603,50,Woman
28,339164,DepthScenes,duration_manipulation_targetAtFixation,jsons/v1_VE250_randls_57.json,http://54.235.29.9/FacialAge/BNav_EC2/DepthDuration/v2_depth_duration_MTurk/v2_DepthDuration_HTML.html#416,416,1366,768,1366,768,8-29-2022,9-42-0,29,depth_duration_stimuli/002414_2014-06-28_20-24-58_260595134347_rgbf000067-resize_4/002414_2014-06-28_20-24-58_260595134347_rgbf000067-resize_4-target.png,250,4.363,22,4045,247,meters,jsons/v1_VE250_randls_57.json,836444,1145603,50,Woman
29,339164,DepthScenes,duration_manipulation_targetAtFixation,jsons/v1_VE250_randls_57.json,http://54.235.29.9/FacialAge/BNav_EC2/DepthDuration/v2_depth_duration_MTurk/v2_DepthDuration_HTML.html#416,416,1366,768,1366,768,8-29-2022,9-42-0,30,depth_duration_stimuli/000375_2014-06-08_11-17-29_260595134347_rgbf000133-resize_2/000375_2014-06-08_11-17-29_260595134347_rgbf000133-resize-original.jpg,250,4.718,0,2668,246,meters,jsons/v1_VE250_randls_57.json,836444,1145603,50,Woman
30,339164,DepthScenes,duration_manipulation_targetAtFixation,jsons/v1_VE250_randls_57.json,http://54.235.29.9/FacialAge/BNav_EC2/DepthDuration/v2_depth_duration_MTurk/v2_DepthDuration_HTML.html#416,416,1366,768,1366,768,8-29-2022,9-42-0,31,depth_duration_stimuli/001158_2014-06-17_15-32-16_260595134347_rgbf000138-resize_2/001158_2014-06-17_15-32-16_260595134347_rgbf000138-resize_2-target.png,250,4.5315,16,3361,247,meters,jsons/v1_VE250_randls_57.json,836444,1145603,50,Woman
31,339164,DepthScenes,duration_manipulation_targetAtFixation,jsons/v1_VE250_randls_57.json,http://54.235.29.9/FacialAge/BNav_EC2/DepthDuration/v2_depth_duration_MTurk/v2_DepthDuration_HTML.html#416,416,1366,768,1366,768,8-29-2022,9-42-0,32,depth_duration_stimuli/000556_2014-06-09_22-42-56_260595134347_rgbf000214-resize_1/000556_2014-06-09_22-42-56_260595134347_rgbf000214-resize_1-target.png,250,4.8415,32,2533,234,meters,jsons/v1_VE250_randls_57.json,836444,1145603,50,Woman
32,339164,DepthScenes,duration_manipulation_targetAtFixation,jsons/v1_VE250_randls_57.json,http://54.235.29.9/FacialAge/BNav_EC2/DepthDuration/v2_depth_duration_MTurk/v2_DepthDuration_HTML.html#416,416,1366,768,1366,768,8-29-2022,9-42-0,33,depth_duration_stimuli/002375_2014-06-28_20-13-44_260595134347_rgbf000032-resize_1/002375_2014-06-28_20-13-44_260595134347_rgbf000032-resize_1-target.png,250,4.0175,25,2879,247,meters,jsons/v1_VE250_randls_57.json,836444,1145603,50,Woman
33,339164,DepthScenes,duration_manipulation_targetAtFixation,jsons/v1_VE250_randls_57.json,http://54.235.29.9/FacialAge/BNav_EC2/DepthDuration/v2_depth_duration_MTurk/v2_DepthDuration_HTML.html#416,416,1366,768,1366,768,8-29-2022,9-42-0,34,depth_duration_stimuli/002657_2014-06-13_15-29-54_094959634447_rgbf000150-resize_1/002657_2014-06-13_15-29-54_094959634447_rgbf000150-resize_1-target.png,250,4.919,19,2415,247,meters,jsons/v1_VE250_randls_57.json,836444,1145603,50,Woman
34,339164,DepthScenes,duration_manipulation_targetAtFixation,jsons/v1_VE250_randls_57.json,http://54.235.29.9/FacialAge/BNav_EC2/DepthDuration/v2_depth_duration_MTurk/v2_DepthDuration_HTML.html#416,416,1366,768,1366,768,8-29-2022,9-42-0,35,depth_duration_stimuli/000470_2014-06-09_19-42-40_260595134347_rgbf000094-resize_1/000470_2014-06-09_19-42-40_260595134347_rgbf000094-resize_1-target.png,250,1.831,10,2534,249,meters,jsons/v1_VE250_randls_57.json,836444,1145603,50,Woman
35,339164,DepthScenes,duration_manipulation_targetAtFixation,jsons/v1_VE250_randls_57.json,http://54.235.29.9/FacialAge/BNav_EC2/DepthDuration/v2_depth_duration_MTurk/v2_DepthDuration_HTML.html#416,416,1366,768,1366,768,8-29-2022,9-42-0,36,depth_duration_stimuli/000109_2014-05-14_23-41-52_260595134347_rgbf000035-resize_9/000109_2014-05-14_23-41-52_260595134347_rgbf000035-resize_9-target.png,250,1.3545,8,2252,250,meters,jsons/v1_VE250_randls_57.json,836444,1145603,50,Woman
36,339164,DepthScenes,duration_manipulation_targetAtFixation,jsons/v1_VE250_randls_57.json,http://54.235.29.9/FacialAge/BNav_EC2/DepthDuration/v2_depth_duration_MTurk/v2_DepthDuration_HTML.html#416,416,1366,768,1366,768,8-29-2022,9-42-0,37,depth_duration_stimuli/002663_2014-06-13_15-50-26_094959634447_rgbf000075-resize_1/002663_2014-06-13_15-50-26_094959634447_rgbf000075-resize_1-target.png,250,4.7495,12,2622,248,meters,jsons/v1_VE250_randls_57.json,836444,1145603,50,Woman
37,339164,DepthScenes,duration_manipulation_targetAtFixation,jsons/v1_VE250_randls_57.json,http://54.235.29.9/FacialAge/BNav_EC2/DepthDuration/v2_depth_duration_MTurk/v2_DepthDuration_HTML.html#416,416,1366,768,1366,768,8-29-2022,9-42-0,38,depth_duration_stimuli/000409_2014-06-04_19-23-33_260595134347_rgbf000067-resize_0/000409_2014-06-04_19-23-33_260595134347_rgbf000067-resize_0-target.png,250,3.7335,10,2477,248,meters,jsons/v1_VE250_randls_57.json,836444,1145603,50,Woman
38,339164,DepthScenes,duration_manipulation_targetAtFixation,jsons/v1_VE250_randls_57.json,http://54.235.29.9/FacialAge/BNav_EC2/DepthDuration/v2_depth_duration_MTurk/v2_DepthDuration_HTML.html#416,416,1366,768,1366,768,8-29-2022,9-42-0,39,depth_duration_stimuli/002630_2014-06-24_14-47-50_094959634447_rgbf000055-resize_1/002630_2014-06-24_14-47-50_094959634447_rgbf000055-resize_1-target.png,250,3.0095,15,2690,250,meters,jsons/v1_VE250_randls_57.json,836444,1145603,50,Woman
39,339164,DepthScenes,duration_manipulation_targetAtFixation,jsons/v1_VE250_randls_57.json,http://54.235.29.9/FacialAge/BNav_EC2/DepthDuration/v2_depth_duration_MTurk/v2_DepthDuration_HTML.html#416,416,1366,768,1366,768,8-29-2022,9-42-0,40,depth_duration_stimuli/002758_2014-06-22_19-11-20_094959634447_rgbf000128-resize_1/002758_2014-06-22_19-11-20_094959634447_rgbf000128-resize_1-target.png,250,2.555,8,2321,250,meters,jsons/v1_VE250_randls_57.json,836444,1145603,50,Woman
40,339164,DepthScenes,duration_manipulation_targetAtFixation,jsons/v1_VE250_randls_57.json,http://54.235.29.9/FacialAge/BNav_EC2/DepthDuration/v2_depth_duration_MTurk/v2_DepthDuration_HTML.html#416,416,1366,768,1366,768,8-29-2022,9-42-0,41,depth_duration_stimuli/000436_2014-06-09_22-25-11_260595134347_rgbf000137-resize_1/000436_2014-06-09_22-25-11_260595134347_rgbf000137-resize_1-target.png,250,4.0705,12,2868,249,meters,jsons/v1_VE250_randls_57.json,836444,1145603,50,Woman
41,339164,DepthScenes,duration_manipulation_targetAtFixation,jsons/v1_VE250_randls_57.json,http://54.235.29.9/FacialAge/BNav_EC2/DepthDuration/v2_depth_duration_MTurk/v2_DepthDuration_HTML.html#416,416,1366,768,1366,768,8-29-2022,9-42-0,42,depth_duration_stimuli/002444_2014-06-28_20-32-08_260595134347_rgbf000027-resize_0/002444_2014-06-28_20-32-08_260595134347_rgbf000027-resize_0-target.png,250,4.388999999999999,10,2770,253,meters,jsons/v1_VE250_randls_57.json,836444,1145603,50,Woman
42,339164,DepthScenes,duration_manipulation_targetAtFixation,jsons/v1_VE250_randls_57.json,http://54.235.29.9/FacialAge/BNav_EC2/DepthDuration/v2_depth_duration_MTurk/v2_DepthDuration_HTML.html#416,416,1366,768,1366,768,8-29-2022,9-42-0,43,depth_duration_stimuli/002039_2014-06-24_20-22-38_260595134347_rgbf000084-resize_1/002039_2014-06-24_20-22-38_260595134347_rgbf000084-resize_1-target.png,250,4.408,10,2339,246,meters,jsons/v1_VE250_randls_57.json,836444,1145603,50,Woman
43,339164,DepthScenes,duration_manipulation_targetAtFixation,jsons/v1_VE250_randls_57.json,http://54.235.29.9/FacialAge/BNav_EC2/DepthDuration/v2_depth_duration_MTurk/v2_DepthDuration_HTML.html#416,416,1366,768,1366,768,8-29-2022,9-42-0,44,depth_duration_stimuli/002103_2014-06-25_20-00-40_260595134347_rgbf000049-resize_0/002103_2014-06-25_20-00-40_260595134347_rgbf000049-resize_0-target.png,250,4.105,12,2485,248,meters,jsons/v1_VE250_randls_57.json,836444,1145603,50,Woman
44,339164,DepthScenes,duration_manipulation_targetAtFixation,jsons/v1_VE250_randls_57.json,http://54.235.29.9/FacialAge/BNav_EC2/DepthDuration/v2_depth_duration_MTurk/v2_DepthDuration_HTML.html#416,416,1366,768,1366,768,8-29-2022,9-42-0,45,depth_duration_stimuli/000787_2014-06-08_22-33-53_260595134347_rgbf000175-resize_1/000787_2014-06-08_22-33-53_260595134347_rgbf000175-resize-original.jpg,250,4.784,0,2236,251,meters,jsons/v1_VE250_randls_57.json,836444,1145603,50,Woman
45,339164,DepthScenes,duration_manipulation_targetAtFixation,jsons/v1_VE250_randls_57.json,http://54.235.29.9/FacialAge/BNav_EC2/DepthDuration/v2_depth_duration_MTurk/v2_DepthDuration_HTML.html#416,416,1366,768,1366,768,8-29-2022,9-42-0,46,depth_duration_stimuli/000739_2014-06-08_18-45-58_260595134347_rgbf000068-resize_1/000739_2014-06-08_18-45-58_260595134347_rgbf000068-resize_1-target.png,250,3.534,10,2583,248,meters,jsons/v1_VE250_randls_57.json,836444,1145603,50,Woman
46,339164,DepthScenes,duration_manipulation_targetAtFixation,jsons/v1_VE250_randls_57.json,http://54.235.29.9/FacialAge/BNav_EC2/DepthDuration/v2_depth_duration_MTurk/v2_DepthDuration_HTML.html#416,416,1366,768,1366,768,8-29-2022,9-42-0,47,depth_duration_stimuli/000734_2014-06-08_17-39-11_260595134347_rgbf000128-resize_2/000734_2014-06-08_17-39-11_260595134347_rgbf000128-resize_2-target.png,250,4.098,12,2427,246,meters,jsons/v1_VE250_randls_57.json,836444,1145603,50,Woman
47,339164,DepthScenes,duration_manipulation_targetAtFixation,jsons/v1_VE250_randls_57.json,http://54.235.29.9/FacialAge/BNav_EC2/DepthDuration/v2_depth_duration_MTurk/v2_DepthDuration_HTML.html#416,416,1366,768,1366,768,8-29-2022,9-42-0,48,depth_duration_stimuli/000878_2014-06-08_22-52-45_260595134347_rgbf000045-resize_2/000878_2014-06-08_22-52-45_260595134347_rgbf000045-resize_2-target.png,250,2.092,15,2473,253,meters,jsons/v1_VE250_randls_57.json,836444,1145603,50,Woman
48,339164,DepthScenes,duration_manipulation_targetAtFixation,jsons/v1_VE250_randls_57.json,http://54.235.29.9/FacialAge/BNav_EC2/DepthDuration/v2_depth_duration_MTurk/v2_DepthDuration_HTML.html#416,416,1366,768,1366,768,8-29-2022,9-42-0,49,depth_duration_stimuli/002953_2014-06-08_17-32-18_094959634447_rgbf000059-resize_5/002953_2014-06-08_17-32-18_094959634447_rgbf000059-resize_5-target.png,250,1.551,8,2341,247,meters,jsons/v1_VE250_randls_57.json,836444,1145603,50,Woman
49,339164,DepthScenes,duration_manipulation_targetAtFixation,jsons/v1_VE250_randls_57.json,http://54.235.29.9/FacialAge/BNav_EC2/DepthDuration/v2_depth_duration_MTurk/v2_DepthDuration_HTML.html#416,416,1366,768,1366,768,8-29-2022,9-42-0,50,depth_duration_stimuli/001055_2014-06-08_18-45-35_260595134347_rgbf000111-resize_4/001055_2014-06-08_18-45-35_260595134347_rgbf000111-resize_4-target.png,250,2.4290000000000003,15,2458,250,meters,jsons/v1_VE250_randls_57.json,836444,1145603,50,Woman
50,339164,DepthScenes,duration_manipulation_targetAtFixation,jsons/v1_VE250_randls_57.json,http://54.235.29.9/FacialAge/BNav_EC2/DepthDuration/v2_depth_duration_MTurk/v2_DepthDuration_HTML.html#416,416,1366,768,1366,768,8-29-2022,9-42-0,51,depth_duration_stimuli/000549_2014-06-08_22-10-24_260595134347_rgbf000247-resize_3/000549_2014-06-08_22-10-24_260595134347_rgbf000247-resize_3-target.png,250,1.841,12,2452,249,meters,jsons/v1_VE250_randls_57.json,836444,1145603,50,Woman
51,339164,DepthScenes,duration_manipulation_targetAtFixation,jsons/v1_VE250_randls_57.json,http://54.235.29.9/FacialAge/BNav_EC2/DepthDuration/v2_depth_duration_MTurk/v2_DepthDuration_HTML.html#416,416,1366,768,1366,768,8-29-2022,9-42-0,52,depth_duration_stimuli/002279_2014-06-28_18-55-32_260595134347_rgbf000040-resize_5/002279_2014-06-28_18-55-32_260595134347_rgbf000040-resize_5-target.png,250,1.5043333333333,13,3254,248,meters,jsons/v1_VE250_randls_57.json,836444,1145603,50,Woman
52,339164,DepthScenes,duration_manipulation_targetAtFixation,jsons/v1_VE250_randls_57.json,http://54.235.29.9/FacialAge/BNav_EC2/DepthDuration/v2_depth_duration_MTurk/v2_DepthDuration_HTML.html#416,416,1366,768,1366,768,8-29-2022,9-42-0,53,depth_duration_stimuli/000635_2014-06-08_16-38-42_260595134347_rgbf000106-resize_1/000635_2014-06-08_16-38-42_260595134347_rgbf000106-resize_1-target.png,250,2.074,9,2222,249,meters,jsons/v1_VE250_randls_57.json,836444,1145603,50,Woman
53,339164,DepthScenes,duration_manipulation_targetAtFixation,jsons/v1_VE250_randls_57.json,http://54.235.29.9/FacialAge/BNav_EC2/DepthDuration/v2_depth_duration_MTurk/v2_DepthDuration_HTML.html#416,416,1366,768,1366,768,8-29-2022,9-42-0,54,depth_duration_stimuli/000368_2014-06-09_15-53-01_260595134347_rgbf000155-resize_2/000368_2014-06-09_15-53-01_260595134347_rgbf000155-resize_2-target.png,250,2.4859999999999998,15,2688,246,meters,jsons/v1_VE250_randls_57.json,836444,1145603,50,Woman
54,339164,DepthScenes,duration_manipulation_targetAtFixation,jsons/v1_VE250_randls_57.json,http://54.235.29.9/FacialAge/BNav_EC2/DepthDuration/v2_depth_duration_MTurk/v2_DepthDuration_HTML.html#416,416,1366,768,1366,768,8-29-2022,9-42-0,55,depth_duration_stimuli/002678_2014-06-13_16-15-32_094959634447_rgbf000151-resize_6/002678_2014-06-13_16-15-32_094959634447_rgbf000151-resize_6-target.png,250,2.1830000000000003,22,3824,248,meters,jsons/v1_VE250_randls_57.json,836444,1145603,50,Woman
55,339164,DepthScenes,duration_manipulation_targetAtFixation,jsons/v1_VE250_randls_57.json,http://54.235.29.9/FacialAge/BNav_EC2/DepthDuration/v2_depth_duration_MTurk/v2_DepthDuration_HTML.html#416,416,1366,768,1366,768,8-29-2022,9-42-0,56,depth_duration_stimuli/001555_2014-06-20_17-12-10_260595134347_rgbf000065-resize_4/001555_2014-06-20_17-12-10_260595134347_rgbf000065-resize_4-target.png,250,1.633,5,2293,246,meters,jsons/v1_VE250_randls_57.json,836444,1145603,50,Woman
56,339164,DepthScenes,duration_manipulation_targetAtFixation,jsons/v1_VE250_randls_57.json,http://54.235.29.9/FacialAge/BNav_EC2/DepthDuration/v2_depth_duration_MTurk/v2_DepthDuration_HTML.html#416,416,1366,768,1366,768,8-29-2022,9-42-0,57,depth_duration_stimuli/000103_2014-05-14_22-01-17_260595134347_rgbf000152-resize_5/000103_2014-05-14_22-01-17_260595134347_rgbf000152-resize_5-target.png,250,1.993,18,2838,246,meters,jsons/v1_VE250_randls_57.json,836444,1145603,50,Woman
57,339164,DepthScenes,duration_manipulation_targetAtFixation,jsons/v1_VE250_randls_57.json,http://54.235.29.9/FacialAge/BNav_EC2/DepthDuration/v2_depth_duration_MTurk/v2_DepthDuration_HTML.html#416,416,1366,768,1366,768,8-29-2022,9-42-0,58,depth_duration_stimuli/002748_2014-06-22_19-07-22_094959634447_rgbf000078-resize_1/002748_2014-06-22_19-07-22_094959634447_rgbf000078-resize_1-target.png,250,4.6705,35,2482,248,meters,jsons/v1_VE250_randls_57.json,836444,1145603,50,Woman
58,339164,DepthScenes,duration_manipulation_targetAtFixation,jsons/v1_VE250_randls_57.json,http://54.235.29.9/FacialAge/BNav_EC2/DepthDuration/v2_depth_duration_MTurk/v2_DepthDuration_HTML.html#416,416,1366,768,1366,768,8-29-2022,9-42-0,59,depth_duration_stimuli/002995_2014-06-15_12-31-26_094959634447_rgbf000150-resize_1/002995_2014-06-15_12-31-26_094959634447_rgbf000150-resize_1-target.png,250,3.8360000000000003,22,2516,248,meters,jsons/v1_VE250_randls_57.json,836444,1145603,50,Woman
59,339164,DepthScenes,duration_manipulation_targetAtFixation,jsons/v1_VE250_randls_57.json,http://54.235.29.9/FacialAge/BNav_EC2/DepthDuration/v2_depth_duration_MTurk/v2_DepthDuration_HTML.html#416,416,1366,768,1366,768,8-29-2022,9-42-0,60,depth_duration_stimuli/000414_2014-06-04_19-49-13_260595134347_rgbf000044-resize_0/000414_2014-06-04_19-49-13_260595134347_rgbf000044-resize_0-target.png,250,4.329,28,2525,245,meters,jsons/v1_VE250_randls_57.json,836444,1145603,50,Woman
60,339164,DepthScenes,duration_manipulation_targetAtFixation,jsons/v1_VE250_randls_57.json,http://54.235.29.9/FacialAge/BNav_EC2/DepthDuration/v2_depth_duration_MTurk/v2_DepthDuration_HTML.html#416,416,1366,768,1366,768,8-29-2022,9-42-0,61,depth_duration_stimuli/003129_2014-05-12_10-48-10_094959634447_rgbf000100-resize_0/003129_2014-05-12_10-48-10_094959634447_rgbf000100-resize_0-target.png,250,4.9305,19,3102,246,meters,jsons/v1_VE250_randls_57.json,836444,1145603,50,Woman
61,339164,DepthScenes,duration_manipulation_targetAtFixation,jsons/v1_VE250_randls_57.json,http://54.235.29.9/FacialAge/BNav_EC2/DepthDuration/v2_depth_duration_MTurk/v2_DepthDuration_HTML.html#416,416,1366,768,1366,768,8-29-2022,9-42-0,62,depth_duration_stimuli/003492_2014-05-21_15-50-55_094959634447_rgbf000828-resize_1/003492_2014-05-21_15-50-55_094959634447_rgbf000828-resize_1-target.png,250,4.06875,15,2479,246,meters,jsons/v1_VE250_randls_57.json,836444,1145603,50,Woman
62,339164,DepthScenes,duration_manipulation_targetAtFixation,jsons/v1_VE250_randls_57.json,http://54.235.29.9/FacialAge/BNav_EC2/DepthDuration/v2_depth_duration_MTurk/v2_DepthDuration_HTML.html#416,416,1366,768,1366,768,8-29-2022,9-42-0,63,depth_duration_stimuli/002568_2014-06-24_13-59-21_094959634447_rgbf000062-resize_4/002568_2014-06-24_13-59-21_094959634447_rgbf000062-resize_4-target.png,250,3.015,12,2826,247,meters,jsons/v1_VE250_randls_57.json,836444,1145603,50,Woman
63,339164,DepthScenes,duration_manipulation_targetAtFixation,jsons/v1_VE250_randls_57.json,http://54.235.29.9/FacialAge/BNav_EC2/DepthDuration/v2_depth_duration_MTurk/v2_DepthDuration_HTML.html#416,416,1366,768,1366,768,8-29-2022,9-42-0,64,depth_duration_stimuli/000486_2014-06-09_20-47-20_260595134347_rgbf000143-resize_2/000486_2014-06-09_20-47-20_260595134347_rgbf000143-resize_2-target.png,250,4.8325,24,2847,251,meters,jsons/v1_VE250_randls_57.json,836444,1145603,50,Woman
64,339164,DepthScenes,duration_manipulation_targetAtFixation,jsons/v1_VE250_randls_57.json,http://54.235.29.9/FacialAge/BNav_EC2/DepthDuration/v2_depth_duration_MTurk/v2_DepthDuration_HTML.html#416,416,1366,768,1366,768,8-29-2022,9-42-0,65,depth_duration_stimuli/003083_2014-06-15_15-21-03_094959634447_rgbf000063-resize_1/003083_2014-06-15_15-21-03_094959634447_rgbf000063-resize_1-target.png,250,4.1405,40,2360,245,meters,jsons/v1_VE250_randls_57.json,836444,1145603,50,Woman
65,339164,DepthScenes,duration_manipulation_targetAtFixation,jsons/v1_VE250_randls_57.json,http://54.235.29.9/FacialAge/BNav_EC2/DepthDuration/v2_depth_duration_MTurk/v2_DepthDuration_HTML.html#416,416,1366,768,1366,768,8-29-2022,9-42-0,66,depth_duration_stimuli/001222_2014-06-17_16-24-06_260595134347_rgbf000073-resize_0/001222_2014-06-17_16-24-06_260595134347_rgbf000073-resize-original.jpg,250,1.4385,0,2112,246,meters,jsons/v1_VE250_randls_57.json,836444,1145603,50,Woman
66,339164,DepthScenes,duration_manipulation_targetAtFixation,jsons/v1_VE250_randls_57.json,http://54.235.29.9/FacialAge/BNav_EC2/DepthDuration/v2_depth_duration_MTurk/v2_DepthDuration_HTML.html#416,416,1366,768,1366,768,8-29-2022,9-42-0,67,depth_duration_stimuli/001199_2014-06-17_16-03-48_260595134347_rgbf000077-resize_0/001199_2014-06-17_16-03-48_260595134347_rgbf000077-resize_0-target.png,250,3.4375,45,4623,250,meters,jsons/v1_VE250_randls_57.json,836444,1145603,50,Woman
67,339164,DepthScenes,duration_manipulation_targetAtFixation,jsons/v1_VE250_randls_57.json,http://54.235.29.9/FacialAge/BNav_EC2/DepthDuration/v2_depth_duration_MTurk/v2_DepthDuration_HTML.html#416,416,1366,768,1366,768,8-29-2022,9-42-0,68,depth_duration_stimuli/000502_2014-06-08_23-02-32_260595134347_rgbf000063-resize_4/000502_2014-06-08_23-02-32_260595134347_rgbf000063-resize_4-target.png,250,2.431,12,2387,248,meters,jsons/v1_VE250_randls_57.json,836444,1145603,50,Woman
68,339164,DepthScenes,duration_manipulation_targetAtFixation,jsons/v1_VE250_randls_57.json,http://54.235.29.9/FacialAge/BNav_EC2/DepthDuration/v2_depth_duration_MTurk/v2_DepthDuration_HTML.html#416,416,1366,768,1366,768,8-29-2022,9-42-0,69,depth_duration_stimuli/000810_2014-06-08_17-20-01_260595134347_rgbf000105-resize_0/000810_2014-06-08_17-20-01_260595134347_rgbf000105-resize_0-target.png,250,1.4865,11,2331,248,meters,jsons/v1_VE250_randls_57.json,836444,1145603,50,Woman
69,339164,DepthScenes,duration_manipulation_targetAtFixation,jsons/v1_VE250_randls_57.json,http://54.235.29.9/FacialAge/BNav_EC2/DepthDuration/v2_depth_duration_MTurk/v2_DepthDuration_HTML.html#416,416,1366,768,1366,768,8-29-2022,9-42-0,70,depth_duration_stimuli/001214_2014-06-17_16-13-55_260595134347_rgbf000111-resize_0/001214_2014-06-17_16-13-55_260595134347_rgbf000111-resize_0-target.png,250,2.6505,10,2406,251,meters,jsons/v1_VE250_randls_57.json,836444,1145603,50,Woman
70,339164,DepthScenes,duration_manipulation_targetAtFixation,jsons/v1_VE250_randls_57.json,http://54.235.29.9/FacialAge/BNav_EC2/DepthDuration/v2_depth_duration_MTurk/v2_DepthDuration_HTML.html#416,416,1366,768,1366,768,8-29-2022,9-42-0,71,depth_duration_stimuli/002509_2014-06-24_13-19-22_094959634447_rgbf000077-resize_0/002509_2014-06-24_13-19-22_094959634447_rgbf000077-resize_0-target.png,250,1.3065,11,2748,243,meters,jsons/v1_VE250_randls_57.json,836444,1145603,50,Woman
71,339164,DepthScenes,duration_manipulation_targetAtFixation,jsons/v1_VE250_randls_57.json,http://54.235.29.9/FacialAge/BNav_EC2/DepthDuration/v2_depth_duration_MTurk/v2_DepthDuration_HTML.html#416,416,1366,768,1366,768,8-29-2022,9-42-0,72,depth_duration_stimuli/003338_2014-05-20_11-01-23_094959634447_rgbf000051-resize_6/003338_2014-05-20_11-01-23_094959634447_rgbf000051-resize_6-target.png,250,1.693,10,2342,245,meters,jsons/v1_VE250_randls_57.json,836444,1145603,50,Woman
72,339164,DepthScenes,duration_manipulation_targetAtFixation,jsons/v1_VE250_randls_57.json,http://54.235.29.9/FacialAge/BNav_EC2/DepthDuration/v2_depth_duration_MTurk/v2_DepthDuration_HTML.html#416,416,1366,768,1366,768,8-29-2022,9-42-0,73,depth_duration_stimuli/000682_2014-06-08_23-14-58_260595134347_rgbf000041-resize_5/000682_2014-06-08_23-14-58_260595134347_rgbf000041-resize_5-target.png,250,2.7239999999999998,12,2669,249,meters,jsons/v1_VE250_randls_57.json,836444,1145603,50,Woman
73,339164,DepthScenes,duration_manipulation_targetAtFixation,jsons/v1_VE250_randls_57.json,http://54.235.29.9/FacialAge/BNav_EC2/DepthDuration/v2_depth_duration_MTurk/v2_DepthDuration_HTML.html#416,416,1366,768,1366,768,8-29-2022,9-42-0,74,depth_duration_stimuli/001650_2014-06-20_12-09-00_260595134347_rgbf000087-resize_3/001650_2014-06-20_12-09-00_260595134347_rgbf000087-resize_3-target.png,250,1.9505,10,3734,246,meters,jsons/v1_VE250_randls_57.json,836444,1145603,50,Woman
74,339164,DepthScenes,duration_manipulation_targetAtFixation,jsons/v1_VE250_randls_57.json,http://54.235.29.9/FacialAge/BNav_EC2/DepthDuration/v2_depth_duration_MTurk/v2_DepthDuration_HTML.html#416,416,1366,768,1366,768,8-29-2022,9-42-0,75,depth_duration_stimuli/001059_2014-06-08_21-53-27_260595134347_rgbf000061-resize_4/001059_2014-06-08_21-53-27_260595134347_rgbf000061-resize_4-target.png,250,2.4185,18,2391,248,meters,jsons/v1_VE250_randls_57.json,836444,1145603,50,Woman
75,339164,DepthScenes,duration_manipulation_targetAtFixation,jsons/v1_VE250_randls_57.json,http://54.235.29.9/FacialAge/BNav_EC2/DepthDuration/v2_depth_duration_MTurk/v2_DepthDuration_HTML.html#416,416,1366,768,1366,768,8-29-2022,9-42-0,76,depth_duration_stimuli/001032_2014-06-08_13-23-17_260595134347_rgbf000021-resize_3/001032_2014-06-08_13-23-17_260595134347_rgbf000021-resize_3-target.png,250,3.2725,12,11681,249,meters,jsons/v1_VE250_randls_57.json,836444,1145603,50,Woman
76,339164,DepthScenes,duration_manipulation_targetAtFixation,jsons/v1_VE250_randls_57.json,http://54.235.29.9/FacialAge/BNav_EC2/DepthDuration/v2_depth_duration_MTurk/v2_DepthDuration_HTML.html#416,416,1366,768,1366,768,8-29-2022,9-42-0,77,depth_duration_stimuli/000522_2014-06-08_13-35-06_260595134347_rgbf000244-resize_1/000522_2014-06-08_13-35-06_260595134347_rgbf000244-resize_1-target.png,250,2.3715,10,2532,244,meters,jsons/v1_VE250_randls_57.json,836444,1145603,50,Woman
77,339164,DepthScenes,duration_manipulation_targetAtFixation,jsons/v1_VE250_randls_57.json,http://54.235.29.9/FacialAge/BNav_EC2/DepthDuration/v2_depth_duration_MTurk/v2_DepthDuration_HTML.html#416,416,1366,768,1366,768,8-29-2022,9-42-0,78,depth_duration_stimuli/002949_2014-06-26_15-57-42_094959634447_rgbf000079-resize_1/002949_2014-06-26_15-57-42_094959634447_rgbf000079-resize_1-target.png,250,1.8915,0,2237,246,meters,jsons/v1_VE250_randls_57.json,836444,1145603,50,Woman
78,339164,DepthScenes,duration_manipulation_targetAtFixation,jsons/v1_VE250_randls_57.json,http://54.235.29.9/FacialAge/BNav_EC2/DepthDuration/v2_depth_duration_MTurk/v2_DepthDuration_HTML.html#416,416,1366,768,1366,768,8-29-2022,9-42-0,79,depth_duration_stimuli/001110_2014-06-15_17-25-28_260595134347_rgbf000150-resize_1/001110_2014-06-15_17-25-28_260595134347_rgbf000150-resize_1-target.png,250,1.7115,15,2553,263,meters,jsons/v1_VE250_randls_57.json,836444,1145603,50,Woman
79,339164,DepthScenes,duration_manipulation_targetAtFixation,jsons/v1_VE250_randls_57.json,http://54.235.29.9/FacialAge/BNav_EC2/DepthDuration/v2_depth_duration_MTurk/v2_DepthDuration_HTML.html#416,416,1366,768,1366,768,8-29-2022,9-42-0,80,depth_duration_stimuli/000927_2014-06-09_16-32-30_260595134347_rgbf000123-resize_3/000927_2014-06-09_16-32-30_260595134347_rgbf000123-resize_3-target.png,250,2.6785,20,2321,247,meters,jsons/v1_VE250_randls_57.json,836444,1145603,50,Woman
80,339164,DepthScenes,duration_manipulation_targetAtFixation,jsons/v1_VE250_randls_57.json,http://54.235.29.9/FacialAge/BNav_EC2/DepthDuration/v2_depth_duration_MTurk/v2_DepthDuration_HTML.html#416,416,1366,768,1366,768,8-29-2022,9-42-0,81,depth_duration_stimuli/001810_2014-06-26_20-51-35_260595134347_rgbf000040-resize_3/001810_2014-06-26_20-51-35_260595134347_rgbf000040-resize_3-target.png,250,2.2525,15,2376,248,meters,jsons/v1_VE250_randls_57.json,836444,1145603,50,Woman
81,339164,DepthScenes,duration_manipulation_targetAtFixation,jsons/v1_VE250_randls_57.json,http://54.235.29.9/FacialAge/BNav_EC2/DepthDuration/v2_depth_duration_MTurk/v2_DepthDuration_HTML.html#416,416,1366,768,1366,768,8-29-2022,9-42-0,82,depth_duration_stimuli/003010_2014-06-15_12-54-35_094959634447_rgbf000112-resize_0/003010_2014-06-15_12-54-35_094959634447_rgbf000112-resize_0-target.png,250,3.1185,22,2429,263,meters,jsons/v1_VE250_randls_57.json,836444,1145603,50,Woman
82,339164,DepthScenes,duration_manipulation_targetAtFixation,jsons/v1_VE250_randls_57.json,http://54.235.29.9/FacialAge/BNav_EC2/DepthDuration/v2_depth_duration_MTurk/v2_DepthDuration_HTML.html#416,416,1366,768,1366,768,8-29-2022,9-42-0,83,depth_duration_stimuli/000929_2014-06-09_16-33-19_260595134347_rgbf000139-resize_0/000929_2014-06-09_16-33-19_260595134347_rgbf000139-resize_0-target.png,250,2.8680000000000003,15,2410,245,meters,jsons/v1_VE250_randls_57.json,836444,1145603,50,Woman
83,339164,DepthScenes,duration_manipulation_targetAtFixation,jsons/v1_VE250_randls_57.json,http://54.235.29.9/FacialAge/BNav_EC2/DepthDuration/v2_depth_duration_MTurk/v2_DepthDuration_HTML.html#416,416,1366,768,1366,768,8-29-2022,9-42-0,84,depth_duration_stimuli/000457_2014-06-08_16-52-43_260595134347_rgbf000199-resize_1/000457_2014-06-08_16-52-43_260595134347_rgbf000199-resize_1-target.png,250,3.6489999999999996,18,2751,246,meters,jsons/v1_VE250_randls_57.json,836444,1145603,50,Woman
84,339164,DepthScenes,duration_manipulation_targetAtFixation,jsons/v1_VE250_randls_57.json,http://54.235.29.9/FacialAge/BNav_EC2/DepthDuration/v2_depth_duration_MTurk/v2_DepthDuration_HTML.html#416,416,1366,768,1366,768,8-29-2022,9-42-0,85,depth_duration_stimuli/002057_2014-06-24_21-00-13_260595134347_rgbf000120-resize_1/002057_2014-06-24_21-00-13_260595134347_rgbf000120-resize_1-target.png,250,2.967,25,2671,246,meters,jsons/v1_VE250_randls_57.json,836444,1145603,50,Woman
85,339164,DepthScenes,duration_manipulation_targetAtFixation,jsons/v1_VE250_randls_57.json,http://54.235.29.9/FacialAge/BNav_EC2/DepthDuration/v2_depth_duration_MTurk/v2_DepthDuration_HTML.html#416,416,1366,768,1366,768,8-29-2022,9-42-0,86,depth_duration_stimuli/000709_2014-06-08_13-51-55_260595134347_rgbf000068-resize_3/000709_2014-06-08_13-51-55_260595134347_rgbf000068-resize_3-target.png,250,1.8030000000000002,15,4087,249,meters,jsons/v1_VE250_randls_57.json,836444,1145603,50,Woman
86,339164,DepthScenes,duration_manipulation_targetAtFixation,jsons/v1_VE250_randls_57.json,http://54.235.29.9/FacialAge/BNav_EC2/DepthDuration/v2_depth_duration_MTurk/v2_DepthDuration_HTML.html#416,416,1366,768,1366,768,8-29-2022,9-42-0,87,depth_duration_stimuli/001175_2014-06-17_15-45-55_260595134347_rgbf000129-resize_4/001175_2014-06-17_15-45-55_260595134347_rgbf000129-resize_4-target.png,250,4.255,15,61357,247,meters,jsons/v1_VE250_randls_57.json,836444,1145603,50,Woman
87,339164,DepthScenes,duration_manipulation_targetAtFixation,jsons/v1_VE250_randls_57.json,http://54.235.29.9/FacialAge/BNav_EC2/DepthDuration/v2_depth_duration_MTurk/v2_DepthDuration_HTML.html#416,416,1366,768,1366,768,8-29-2022,9-42-0,88,depth_duration_stimuli/003490_2014-05-21_15-50-11_094959634447_rgbf000101-resize_3/003490_2014-05-21_15-50-11_094959634447_rgbf000101-resize_3-target.png,250,3.6445,15,2679,249,meters,jsons/v1_VE250_randls_57.json,836444,1145603,50,Woman
88,339164,DepthScenes,duration_manipulation_targetAtFixation,jsons/v1_VE250_randls_57.json,http://54.235.29.9/FacialAge/BNav_EC2/DepthDuration/v2_depth_duration_MTurk/v2_DepthDuration_HTML.html#416,416,1366,768,1366,768,8-29-2022,9-42-0,89,depth_duration_stimuli/001808_2014-06-26_20-50-58_260595134347_rgbf000029-resize_1/001808_2014-06-26_20-50-58_260595134347_rgbf000029-resize_1-target.png,250,4.249,25,3150,245,meters,jsons/v1_VE250_randls_57.json,836444,1145603,50,Woman
89,339164,DepthScenes,duration_manipulation_targetAtFixation,jsons/v1_VE250_randls_57.json,http://54.235.29.9/FacialAge/BNav_EC2/DepthDuration/v2_depth_duration_MTurk/v2_DepthDuration_HTML.html#416,416,1366,768,1366,768,8-29-2022,9-42-0,90,depth_duration_stimuli/001815_2014-06-26_20-52-55_260595134347_rgbf000020-resize_0/001815_2014-06-26_20-52-55_260595134347_rgbf000020-resize_0-target.png,250,3.3865,22,4631,243,meters,jsons/v1_VE250_randls_57.json,836444,1145603,50,Woman
90,339164,DepthScenes,duration_manipulation_targetAtFixation,jsons/v1_VE250_randls_57.json,http://54.235.29.9/FacialAge/BNav_EC2/DepthDuration/v2_depth_duration_MTurk/v2_DepthDuration_HTML.html#416,416,1366,768,1366,768,8-29-2022,9-42-0,91,depth_duration_stimuli/002905_2014-06-03_18-04-43_094959634447_rgbf000151-resize_2/002905_2014-06-03_18-04-43_094959634447_rgbf000151-resize_2-target.png,250,2.0295,10,3018,246,meters,jsons/v1_VE250_randls_57.json,836444,1145603,50,Woman
91,339164,DepthScenes,duration_manipulation_targetAtFixation,jsons/v1_VE250_randls_57.json,http://54.235.29.9/FacialAge/BNav_EC2/DepthDuration/v2_depth_duration_MTurk/v2_DepthDuration_HTML.html#416,416,1366,768,1366,768,8-29-2022,9-42-0,92,depth_duration_stimuli/003423_2014-05-21_10-23-26_094959634447_rgbf002665-resize_2/003423_2014-05-21_10-23-26_094959634447_rgbf002665-resize_2-target.png,250,3.2575,15,2491,260,meters,jsons/v1_VE250_randls_57.json,836444,1145603,50,Woman
92,339164,DepthScenes,duration_manipulation_targetAtFixation,jsons/v1_VE250_randls_57.json,http://54.235.29.9/FacialAge/BNav_EC2/DepthDuration/v2_depth_duration_MTurk/v2_DepthDuration_HTML.html#416,416,1366,768,1366,768,8-29-2022,9-42-0,93,depth_duration_stimuli/000493_2014-06-09_21-01-18_260595134347_rgbf000196-resize_3/000493_2014-06-09_21-01-18_260595134347_rgbf000196-resize_3-target.png,250,3.44,20,2503,246,meters,jsons/v1_VE250_randls_57.json,836444,1145603,50,Woman
93,339164,DepthScenes,duration_manipulation_targetAtFixation,jsons/v1_VE250_randls_57.json,http://54.235.29.9/FacialAge/BNav_EC2/DepthDuration/v2_depth_duration_MTurk/v2_DepthDuration_HTML.html#416,416,1366,768,1366,768,8-29-2022,9-42-0,94,depth_duration_stimuli/000191_2014-05-12_17-07-38_260595134347_rgbf000199-resize_0/000191_2014-05-12_17-07-38_260595134347_rgbf000199-resize_0-target.png,250,3.7995,25,2748,246,meters,jsons/v1_VE250_randls_57.json,836444,1145603,50,Woman
94,339164,DepthScenes,duration_manipulation_targetAtFixation,jsons/v1_VE250_randls_57.json,http://54.235.29.9/FacialAge/BNav_EC2/DepthDuration/v2_depth_duration_MTurk/v2_DepthDuration_HTML.html#416,416,1366,768,1366,768,8-29-2022,9-42-0,95,depth_duration_stimuli/001016_2014-06-09_16-16-10_260595134347_rgbf000112-resize_5/001016_2014-06-09_16-16-10_260595134347_rgbf000112-resize_5-target.png,250,1.6565,22,2485,248,meters,jsons/v1_VE250_randls_57.json,836444,1145603,50,Woman
95,339164,DepthScenes,duration_manipulation_targetAtFixation,jsons/v1_VE250_randls_57.json,http://54.235.29.9/FacialAge/BNav_EC2/DepthDuration/v2_depth_duration_MTurk/v2_DepthDuration_HTML.html#416,416,1366,768,1366,768,8-29-2022,9-42-0,96,depth_duration_stimuli/002340_2014-06-28_20-05-46_260595134347_rgbf000113-resize_0/002340_2014-06-28_20-05-46_260595134347_rgbf000113-resize_0-target.png,250,2.4735,30,2429,246,meters,jsons/v1_VE250_randls_57.json,836444,1145603,50,Woman
96,339164,DepthScenes,duration_manipulation_targetAtFixation,jsons/v1_VE250_randls_57.json,http://54.235.29.9/FacialAge/BNav_EC2/DepthDuration/v2_depth_duration_MTurk/v2_DepthDuration_HTML.html#416,416,1366,768,1366,768,8-29-2022,9-42-0,97,depth_duration_stimuli/001029_2014-06-08_13-17-57_260595134347_rgbf000065-resize_1/001029_2014-06-08_13-17-57_260595134347_rgbf000065-resize_1-target.png,250,3.0835,20,2660,252,meters,jsons/v1_VE250_randls_57.json,836444,1145603,50,Woman
97,339164,DepthScenes,duration_manipulation_targetAtFixation,jsons/v1_VE250_randls_57.json,http://54.235.29.9/FacialAge/BNav_EC2/DepthDuration/v2_depth_duration_MTurk/v2_DepthDuration_HTML.html#416,416,1366,768,1366,768,8-29-2022,9-42-0,98,depth_duration_stimuli/000677_2014-06-08_23-10-32_260595134347_rgbf000158-resize_6/000677_2014-06-08_23-10-32_260595134347_rgbf000158-resize_6-target.png,250,3.556,22,2478,247,meters,jsons/v1_VE250_randls_57.json,836444,1145603,50,Woman
98,339164,DepthScenes,duration_manipulation_targetAtFixation,jsons/v1_VE250_randls_57.json,http://54.235.29.9/FacialAge/BNav_EC2/DepthDuration/v2_depth_duration_MTurk/v2_DepthDuration_HTML.html#416,416,1366,768,1366,768,8-29-2022,9-42-0,99,depth_duration_stimuli/001540_2014-06-20_17-01-05_260595134347_rgbf000086-resize_2/001540_2014-06-20_17-01-05_260595134347_rgbf000086-resize-original.jpg,250,1.459,0,4092,242,meters,jsons/v1_VE250_randls_57.json,836444,1145603,50,Woman
99,339164,DepthScenes,duration_manipulation_targetAtFixation,jsons/v1_VE250_randls_57.json,http://54.235.29.9/FacialAge/BNav_EC2/DepthDuration/v2_depth_duration_MTurk/v2_DepthDuration_HTML.html#416,416,1366,768,1366,768,8-29-2022,9-42-0,100,depth_duration_stimuli/003534_2014-05-22_15-06-10_094959634447_rgbf000102-resize_4/003534_2014-05-22_15-06-10_094959634447_rgbf000102-resize_4-target.png,250,1.426,15,38981,233,meters,jsons/v1_VE250_randls_57.json,836444,1145603,50,Woman
100,339164,DepthScenes,duration_manipulation_targetAtFixation,jsons/v1_VE250_randls_57.json,http://54.235.29.9/FacialAge/BNav_EC2/DepthDuration/v2_depth_duration_MTurk/v2_DepthDuration_HTML.html#416,416,1366,768,1366,768,8-29-2022,9-42-0,101,depth_duration_stimuli/002637_2014-06-24_14-51-13_094959634447_rgbf000066-resize_4/002637_2014-06-24_14-51-13_094959634447_rgbf000066-resize_4-target.png,250,1.9955,20,2430,247,meters,jsons/v1_VE250_randls_57.json,836444,1145603,50,Woman
101,339164,DepthScenes,duration_manipulation_targetAtFixation,jsons/v1_VE250_randls_57.json,http://54.235.29.9/FacialAge/BNav_EC2/DepthDuration/v2_depth_duration_MTurk/v2_DepthDuration_HTML.html#416,416,1366,768,1366,768,8-29-2022,9-42-0,102,depth_duration_stimuli/002153_2014-06-25_21-27-18_260595134347_rgbf000038-resize_5/002153_2014-06-25_21-27-18_260595134347_rgbf000038-resize_5-target.png,250,2.505,22,2312,248,meters,jsons/v1_VE250_randls_57.json,836444,1145603,50,Woman
102,339164,DepthScenes,duration_manipulation_targetAtFixation,jsons/v1_VE250_randls_57.json,http://54.235.29.9/FacialAge/BNav_EC2/DepthDuration/v2_depth_duration_MTurk/v2_DepthDuration_HTML.html#416,416,1366,768,1366,768,8-29-2022,9-42-0,103,depth_duration_stimuli/002660_2014-06-13_15-44-18_094959634447_rgbf001878-resize_2/002660_2014-06-13_15-44-18_094959634447_rgbf001878-resize_2-target.png,250,3.576,20,2569,247,meters,jsons/v1_VE250_randls_57.json,836444,1145603,50,Woman
103,339164,DepthScenes,duration_manipulation_targetAtFixation,jsons/v1_VE250_randls_57.json,http://54.235.29.9/FacialAge/BNav_EC2/DepthDuration/v2_depth_duration_MTurk/v2_DepthDuration_HTML.html#416,416,1366,768,1366,768,8-29-2022,9-42-0,104,depth_duration_stimuli/002600_2014-06-24_14-27-04_094959634447_rgbf000074-resize_2/002600_2014-06-24_14-27-04_094959634447_rgbf000074-resize_2-target.png,250,2.7575,20,2408,247,meters,jsons/v1_VE250_randls_57.json,836444,1145603,50,Woman
104,339164,DepthScenes,duration_manipulation_targetAtFixation,jsons/v1_VE250_randls_57.json,http://54.235.29.9/FacialAge/BNav_EC2/DepthDuration/v2_depth_duration_MTurk/v2_DepthDuration_HTML.html#416,416,1366,768,1366,768,8-29-2022,9-42-0,105,depth_duration_stimuli/003228_2014-05-14_13-42-35_094959634447_rgbf000101-resize_1/003228_2014-05-14_13-42-35_094959634447_rgbf000101-resize_1-target.png,250,1.9680000000000002,38,2514,249,meters,jsons/v1_VE250_randls_57.json,836444,1145603,50,Woman
105,339164,DepthScenes,duration_manipulation_targetAtFixation,jsons/v1_VE250_randls_57.json,http://54.235.29.9/FacialAge/BNav_EC2/DepthDuration/v2_depth_duration_MTurk/v2_DepthDuration_HTML.html#416,416,1366,768,1366,768,8-29-2022,9-42-0,106,depth_duration_stimuli/001011_2014-06-08_23-18-54_260595134347_rgbf000044-resize_4/001011_2014-06-08_23-18-54_260595134347_rgbf000044-resize_4-target.png,250,2.4730000000000003,35,2444,250,meters,jsons/v1_VE250_randls_57.json,836444,1145603,50,Woman
106,339164,DepthScenes,duration_manipulation_targetAtFixation,jsons/v1_VE250_randls_57.json,http://54.235.29.9/FacialAge/BNav_EC2/DepthDuration/v2_depth_duration_MTurk/v2_DepthDuration_HTML.html#416,416,1366,768,1366,768,8-29-2022,9-42-0,107,depth_duration_stimuli/002875_2014-06-01_15-19-00_094959634447_rgbf000151-resize_1/002875_2014-06-01_15-19-00_094959634447_rgbf000151-resize_1-target.png,250,1.9675,45,2511,249,meters,jsons/v1_VE250_randls_57.json,836444,1145603,50,Woman
107,339164,DepthScenes,duration_manipulation_targetAtFixation,jsons/v1_VE250_randls_57.json,http://54.235.29.9/FacialAge/BNav_EC2/DepthDuration/v2_depth_duration_MTurk/v2_DepthDuration_HTML.html#416,416,1366,768,1366,768,8-29-2022,9-42-0,108,depth_duration_stimuli/001417_2014-06-19_16-25-36_260595134347_rgbf000115-resize_5/001417_2014-06-19_16-25-36_260595134347_rgbf000115-resize_5-target.png,250,4.6255,41,2478,248,meters,jsons/v1_VE250_randls_57.json,836444,1145603,50,Woman
108,339164,DepthScenes,duration_manipulation_targetAtFixation,jsons/v1_VE250_randls_57.json,http://54.235.29.9/FacialAge/BNav_EC2/DepthDuration/v2_depth_duration_MTurk/v2_DepthDuration_HTML.html#416,416,1366,768,1366,768,8-29-2022,9-42-0,109,depth_duration_stimuli/003081_2014-06-15_15-19-16_094959634447_rgbf000150-resize_1/003081_2014-06-15_15-19-16_094959634447_rgbf000150-resize_1-target.png,250,3.9125,45,2805,247,meters,jsons/v1_VE250_randls_57.json,836444,1145603,50,Woman
109,339164,DepthScenes,duration_manipulation_targetAtFixation,jsons/v1_VE250_randls_57.json,http://54.235.29.9/FacialAge/BNav_EC2/DepthDuration/v2_depth_duration_MTurk/v2_DepthDuration_HTML.html#416,416,1366,768,1366,768,8-29-2022,9-42-0,110,depth_duration_stimuli/003070_2014-06-15_14-58-27_094959634447_rgbf000150-resize_3/003070_2014-06-15_14-58-27_094959634447_rgbf000150-resize_3-target.png,250,2.9415,28,2363,250,meters,jsons/v1_VE250_randls_57.json,836444,1145603,50,Woman
110,339164,DepthScenes,duration_manipulation_targetAtFixation,jsons/v1_VE250_randls_57.json,http://54.235.29.9/FacialAge/BNav_EC2/DepthDuration/v2_depth_duration_MTurk/v2_DepthDuration_HTML.html#416,416,1366,768,1366,768,8-29-2022,9-42-0,111,depth_duration_stimuli/000943_2014-06-09_19-31-07_260595134347_rgbf000128-resize_1/000943_2014-06-09_19-31-07_260595134347_rgbf000128-resize_1-target.png,250,1.9765,43,2763,261,meters,jsons/v1_VE250_randls_57.json,836444,1145603,50,Woman
111,339164,DepthScenes,duration_manipulation_targetAtFixation,jsons/v1_VE250_randls_57.json,http://54.235.29.9/FacialAge/BNav_EC2/DepthDuration/v2_depth_duration_MTurk/v2_DepthDuration_HTML.html#416,416,1366,768,1366,768,8-29-2022,9-42-0,112,depth_duration_stimuli/000788_2014-06-08_22-34-36_260595134347_rgbf000131-resize_1/000788_2014-06-08_22-34-36_260595134347_rgbf000131-resize_1-target.png,250,3.359,42,16529,249,meters,jsons/v1_VE250_randls_57.json,836444,1145603,50,Woman
112,339164,DepthScenes,duration_manipulation_targetAtFixation,jsons/v1_VE250_randls_57.json,http://54.235.29.9/FacialAge/BNav_EC2/DepthDuration/v2_depth_duration_MTurk/v2_DepthDuration_HTML.html#416,416,1366,768,1366,768,8-29-2022,9-42-0,113,depth_duration_stimuli/001235_2014-06-17_16-37-36_260595134347_rgbf000084-resize_4/001235_2014-06-17_16-37-36_260595134347_rgbf000084-resize_4-target.png,250,3.6605,15,4405,247,meters,jsons/v1_VE250_randls_57.json,836444,1145603,50,Woman
113,339164,DepthScenes,duration_manipulation_targetAtFixation,jsons/v1_VE250_randls_57.json,http://54.235.29.9/FacialAge/BNav_EC2/DepthDuration/v2_depth_duration_MTurk/v2_DepthDuration_HTML.html#416,416,1366,768,1366,768,8-29-2022,9-42-0,114,depth_duration_stimuli/002445_2014-06-28_20-32-16_260595134347_rgbf000029-resize_4/002445_2014-06-28_20-32-16_260595134347_rgbf000029-resize_4-target.png,250,2.5315,10,4102,248,meters,jsons/v1_VE250_randls_57.json,836444,1145603,50,Woman
114,339164,DepthScenes,duration_manipulation_targetAtFixation,jsons/v1_VE250_randls_57.json,http://54.235.29.9/FacialAge/BNav_EC2/DepthDuration/v2_depth_duration_MTurk/v2_DepthDuration_HTML.html#416,416,1366,768,1366,768,8-29-2022,9-42-0,115,depth_duration_stimuli/000780_2014-06-08_22-28-29_260595134347_rgbf000126-resize_1/000780_2014-06-08_22-28-29_260595134347_rgbf000126-resize_1-target.png,250,3.3825,15,17610,246,meters,jsons/v1_VE250_randls_57.json,836444,1145603,50,Woman
115,339164,DepthScenes,duration_manipulation_targetAtFixation,jsons/v1_VE250_randls_57.json,http://54.235.29.9/FacialAge/BNav_EC2/DepthDuration/v2_depth_duration_MTurk/v2_DepthDuration_HTML.html#416,416,1366,768,1366,768,8-29-2022,9-42-0,116,depth_duration_stimuli/001170_2014-06-17_15-43-44_260595134347_rgbf000096-resize_6/001170_2014-06-17_15-43-44_260595134347_rgbf000096-resize-original.jpg,250,1.1909999999999998,0,2709,246,meters,jsons/v1_VE250_randls_57.json,836444,1145603,50,Woman
116,339164,DepthScenes,duration_manipulation_targetAtFixation,jsons/v1_VE250_randls_57.json,http://54.235.29.9/FacialAge/BNav_EC2/DepthDuration/v2_depth_duration_MTurk/v2_DepthDuration_HTML.html#416,416,1366,768,1366,768,8-29-2022,9-42-0,117,depth_duration_stimuli/002570_2014-06-24_13-59-54_094959634447_rgbf000059-resize_0/002570_2014-06-24_13-59-54_094959634447_rgbf000059-resize_0-target.png,250,4.037,18,4724,247,meters,jsons/v1_VE250_randls_57.json,836444,1145603,50,Woman
117,339164,DepthScenes,duration_manipulation_targetAtFixation,jsons/v1_VE250_randls_57.json,http://54.235.29.9/FacialAge/BNav_EC2/DepthDuration/v2_depth_duration_MTurk/v2_DepthDuration_HTML.html#416,416,1366,768,1366,768,8-29-2022,9-42-0,118,depth_duration_stimuli/002467_2014-06-28_20-38-07_260595134347_rgbf000026-resize_2/002467_2014-06-28_20-38-07_260595134347_rgbf000026-resize_2-target.png,250,4.742,22,2575,248,meters,jsons/v1_VE250_randls_57.json,836444,1145603,50,Woman
118,339164,DepthScenes,duration_manipulation_targetAtFixation,jsons/v1_VE250_randls_57.json,http://54.235.29.9/FacialAge/BNav_EC2/DepthDuration/v2_depth_duration_MTurk/v2_DepthDuration_HTML.html#416,416,1366,768,1366,768,8-29-2022,9-42-0,119,depth_duration_stimuli/002549_2014-06-24_13-41-39_094959634447_rgbf000022-resize_3/002549_2014-06-24_13-41-39_094959634447_rgbf000022-resize_3-target.png,250,1.476,15,2388,247,meters,jsons/v1_VE250_randls_57.json,836444,1145603,50,Woman
119,339164,DepthScenes,duration_manipulation_targetAtFixation,jsons/v1_VE250_randls_57.json,http://54.235.29.9/FacialAge/BNav_EC2/DepthDuration/v2_depth_duration_MTurk/v2_DepthDuration_HTML.html#416,416,1366,768,1366,768,8-29-2022,9-42-0,120,depth_duration_stimuli/002750_2014-06-22_19-08-03_094959634447_rgbf000094-resize_4/002750_2014-06-22_19-08-03_094959634447_rgbf000094-resize_4-target.png,250,2.354,25,2350,246,meters,jsons/v1_VE250_randls_57.json,836444,1145603,50,Woman
120,339164,DepthScenes,duration_manipulation_targetAtFixation,jsons/v1_VE250_randls_57.json,http://54.235.29.9/FacialAge/BNav_EC2/DepthDuration/v2_depth_duration_MTurk/v2_DepthDuration_HTML.html#416,416,1366,768,1366,768,8-29-2022,9-42-0,121,depth_duration_stimuli/000469_2014-06-09_19-42-10_260595134347_rgbf000081-resize_1/000469_2014-06-09_19-42-10_260595134347_rgbf000081-resize_1-target.png,250,1.652,10,2416,248,meters,jsons/v1_VE250_randls_57.json,836444,1145603,50,Woman
121,339164,DepthScenes,duration_manipulation_targetAtFixation,jsons/v1_VE250_randls_57.json,http://54.235.29.9/FacialAge/BNav_EC2/DepthDuration/v2_depth_duration_MTurk/v2_DepthDuration_HTML.html#416,416,1366,768,1366,768,8-29-2022,9-42-0,122,depth_duration_stimuli/000483_2014-06-09_20-41-45_260595134347_rgbf000116-resize_4/000483_2014-06-09_20-41-45_260595134347_rgbf000116-resize_4-target.png,250,1.337,12,2577,246,meters,jsons/v1_VE250_randls_57.json,836444,1145603,50,Woman
122,339164,DepthScenes,duration_manipulation_targetAtFixation,jsons/v1_VE250_randls_57.json,http://54.235.29.9/FacialAge/BNav_EC2/DepthDuration/v2_depth_duration_MTurk/v2_DepthDuration_HTML.html#416,416,1366,768,1366,768,8-29-2022,9-42-0,123,depth_duration_stimuli/001244_2014-06-17_16-47-45_260595134347_rgbf000030-resize_4/001244_2014-06-17_16-47-45_260595134347_rgbf000030-resize_4-target.png,250,2.0425,15,2750,250,meters,jsons/v1_VE250_randls_57.json,836444,1145603,50,Woman
123,339164,DepthScenes,duration_manipulation_targetAtFixation,jsons/v1_VE250_randls_57.json,http://54.235.29.9/FacialAge/BNav_EC2/DepthDuration/v2_depth_duration_MTurk/v2_DepthDuration_HTML.html#416,416,1366,768,1366,768,8-29-2022,9-42-0,124,depth_duration_stimuli/003495_2014-05-21_16-01-51_094959634447_rgbf000100-resize_3/003495_2014-05-21_16-01-51_094959634447_rgbf000100-resize_3-target.png,250,1.6255,10,3209,246,meters,jsons/v1_VE250_randls_57.json,836444,1145603,50,Woman
124,339164,DepthScenes,duration_manipulation_targetAtFixation,jsons/v1_VE250_randls_57.json,http://54.235.29.9/FacialAge/BNav_EC2/DepthDuration/v2_depth_duration_MTurk/v2_DepthDuration_HTML.html#416,416,1366,768,1366,768,8-29-2022,9-42-0,125,depth_duration_stimuli/001056_2014-06-08_18-46-44_260595134347_rgbf000068-resize_0/001056_2014-06-08_18-46-44_260595134347_rgbf000068-resize_0-target.png,250,2.6625,10,11161,247,meters,jsons/v1_VE250_randls_57.json,836444,1145603,50,Woman
125,339164,DepthScenes,duration_manipulation_targetAtFixation,jsons/v1_VE250_randls_57.json,http://54.235.29.9/FacialAge/BNav_EC2/DepthDuration/v2_depth_duration_MTurk/v2_DepthDuration_HTML.html#416,416,1366,768,1366,768,8-29-2022,9-42-0,126,depth_duration_stimuli/002199_2014-06-28_18-33-56_260595134347_rgbf000074-resize_0/002199_2014-06-28_18-33-56_260595134347_rgbf000074-resize_0-target.png,250,1.996,18,2727,250,meters,jsons/v1_VE250_randls_57.json,836444,1145603,50,Woman
126,339164,DepthScenes,duration_manipulation_targetAtFixation,jsons/v1_VE250_randls_57.json,http://54.235.29.9/FacialAge/BNav_EC2/DepthDuration/v2_depth_duration_MTurk/v2_DepthDuration_HTML.html#416,416,1366,768,1366,768,8-29-2022,9-42-0,127,depth_duration_stimuli/001092_2014-06-15_17-34-58_260595134347_rgbf000171-resize_3/001092_2014-06-15_17-34-58_260595134347_rgbf000171-resize_3-target.png,250,2.6935,12,2719,246,meters,jsons/v1_VE250_randls_57.json,836444,1145603,50,Woman
127,339164,DepthScenes,duration_manipulation_targetAtFixation,jsons/v1_VE250_randls_57.json,http://54.235.29.9/FacialAge/BNav_EC2/DepthDuration/v2_depth_duration_MTurk/v2_DepthDuration_HTML.html#416,416,1366,768,1366,768,8-29-2022,9-42-0,128,depth_duration_stimuli/002545_2014-06-24_13-38-53_094959634447_rgbf000080-resize_4/002545_2014-06-24_13-38-53_094959634447_rgbf000080-resize_4-target.png,250,1.9205,17,5014,248,meters,jsons/v1_VE250_randls_57.json,836444,1145603,50,Woman
128,339164,DepthScenes,duration_manipulation_targetAtFixation,jsons/v1_VE250_randls_57.json,http://54.235.29.9/FacialAge/BNav_EC2/DepthDuration/v2_depth_duration_MTurk/v2_DepthDuration_HTML.html#416,416,1366,768,1366,768,8-29-2022,9-42-0,129,depth_duration_stimuli/002788_2014-06-22_19-36-03_094959634447_rgbf000088-resize_2/002788_2014-06-22_19-36-03_094959634447_rgbf000088-resize_2-target.png,250,1.6465,10,2495,248,meters,jsons/v1_VE250_randls_57.json,836444,1145603,50,Woman
129,339164,DepthScenes,duration_manipulation_targetAtFixation,jsons/v1_VE250_randls_57.json,http://54.235.29.9/FacialAge/BNav_EC2/DepthDuration/v2_depth_duration_MTurk/v2_DepthDuration_HTML.html#416,416,1366,768,1366,768,8-29-2022,9-42-0,130,depth_duration_stimuli/000749_2014-06-08_21-55-06_260595134347_rgbf000070-resize_2/000749_2014-06-08_21-55-06_260595134347_rgbf000070-resize_2-target.png,250,2.331,10,14115,261,meters,jsons/v1_VE250_randls_57.json,836444,1145603,50,Woman
130,339164,DepthScenes,duration_manipulation_targetAtFixation,jsons/v1_VE250_randls_57.json,http://54.235.29.9/FacialAge/BNav_EC2/DepthDuration/v2_depth_duration_MTurk/v2_DepthDuration_HTML.html#416,416,1366,768,1366,768,8-29-2022,9-42-0,131,depth_duration_stimuli/002725_2014-06-22_11-47-51_094959634447_rgbf000070-resize_1/002725_2014-06-22_11-47-51_094959634447_rgbf000070-resize_1-target.png,250,2.195,14,2492,250,meters,jsons/v1_VE250_randls_57.json,836444,1145603,50,Woman
131,339164,DepthScenes,duration_manipulation_targetAtFixation,jsons/v1_VE250_randls_57.json,http://54.235.29.9/FacialAge/BNav_EC2/DepthDuration/v2_depth_duration_MTurk/v2_DepthDuration_HTML.html#416,416,1366,768,1366,768,8-29-2022,9-42-0,132,depth_duration_stimuli/002344_2014-06-28_20-06-29_260595134347_rgbf000030-resize_1/002344_2014-06-28_20-06-29_260595134347_rgbf000030-resize_1-target.png,250,1.5795,9,2951,248,meters,jsons/v1_VE250_randls_57.json,836444,1145603,50,Woman
132,339164,DepthScenes,duration_manipulation_targetAtFixation,jsons/v1_VE250_randls_57.json,http://54.235.29.9/FacialAge/BNav_EC2/DepthDuration/v2_depth_duration_MTurk/v2_DepthDuration_HTML.html#416,416,1366,768,1366,768,8-29-2022,9-42-0,133,depth_duration_stimuli/001167_2014-06-17_15-38-07_260595134347_rgbf000108-resize_0/001167_2014-06-17_15-38-07_260595134347_rgbf000108-resize_0-target.png,250,1.8505,10,2645,263,meters,jsons/v1_VE250_randls_57.json,836444,1145603,50,Woman
133,339164,DepthScenes,duration_manipulation_targetAtFixation,jsons/v1_VE250_randls_57.json,http://54.235.29.9/FacialAge/BNav_EC2/DepthDuration/v2_depth_duration_MTurk/v2_DepthDuration_HTML.html#416,416,1366,768,1366,768,8-29-2022,9-42-0,134,depth_duration_stimuli/003587_2014-05-23_16-48-02_094959634447_rgbf002384-resize_2/003587_2014-05-23_16-48-02_094959634447_rgbf002384-resize_2-target.png,250,1.357,17,5487,260,meters,jsons/v1_VE250_randls_57.json,836444,1145603,50,Woman
134,339164,DepthScenes,duration_manipulation_targetAtFixation,jsons/v1_VE250_randls_57.json,http://54.235.29.9/FacialAge/BNav_EC2/DepthDuration/v2_depth_duration_MTurk/v2_DepthDuration_HTML.html#416,416,1366,768,1366,768,8-29-2022,9-42-0,135,depth_duration_stimuli/002072_2014-06-24_21-48-06_260595134347_rgbf000115-resize_0/002072_2014-06-24_21-48-06_260595134347_rgbf000115-resize-original.jpg,250,4.702,0,2155,248,meters,jsons/v1_VE250_randls_57.json,836444,1145603,50,Woman
135,339164,DepthScenes,duration_manipulation_targetAtFixation,jsons/v1_VE250_randls_57.json,http://54.235.29.9/FacialAge/BNav_EC2/DepthDuration/v2_depth_duration_MTurk/v2_DepthDuration_HTML.html#416,416,1366,768,1366,768,8-29-2022,9-42-0,136,depth_duration_stimuli/001164_2014-06-17_15-35-46_260595134347_rgbf000085-resize_3/001164_2014-06-17_15-35-46_260595134347_rgbf000085-resize_3-target.png,250,2.354,18,2224,252,meters,jsons/v1_VE250_randls_57.json,836444,1145603,50,Woman
136,339164,DepthScenes,duration_manipulation_targetAtFixation,jsons/v1_VE250_randls_57.json,http://54.235.29.9/FacialAge/BNav_EC2/DepthDuration/v2_depth_duration_MTurk/v2_DepthDuration_HTML.html#416,416,1366,768,1366,768,8-29-2022,9-42-0,137,depth_duration_stimuli/001136_2014-06-17_15-19-41_260595134347_rgbf000076-resize_3/001136_2014-06-17_15-19-41_260595134347_rgbf000076-resize_3-target.png,250,1.8655,15,2406,245,meters,jsons/v1_VE250_randls_57.json,836444,1145603,50,Woman
137,339164,DepthScenes,duration_manipulation_targetAtFixation,jsons/v1_VE250_randls_57.json,http://54.235.29.9/FacialAge/BNav_EC2/DepthDuration/v2_depth_duration_MTurk/v2_DepthDuration_HTML.html#416,416,1366,768,1366,768,8-29-2022,9-42-0,138,depth_duration_stimuli/001066_2014-06-08_22-03-20_260595134347_rgbf000066-resize_4/001066_2014-06-08_22-03-20_260595134347_rgbf000066-resize_4-target.png,250,4.2330000000000005,10,2577,247,meters,jsons/v1_VE250_randls_57.json,836444,1145603,50,Woman
138,339164,DepthScenes,duration_manipulation_targetAtFixation,jsons/v1_VE250_randls_57.json,http://54.235.29.9/FacialAge/BNav_EC2/DepthDuration/v2_depth_duration_MTurk/v2_DepthDuration_HTML.html#416,416,1366,768,1366,768,8-29-2022,9-42-0,139,depth_duration_stimuli/000742_2014-06-08_18-48-09_260595134347_rgbf000164-resize_4/000742_2014-06-08_18-48-09_260595134347_rgbf000164-resize_4-target.png,250,4.632,18,2210,263,meters,jsons/v1_VE250_randls_57.json,836444,1145603,50,Woman
139,339164,DepthScenes,duration_manipulation_targetAtFixation,jsons/v1_VE250_randls_57.json,http://54.235.29.9/FacialAge/BNav_EC2/DepthDuration/v2_depth_duration_MTurk/v2_DepthDuration_HTML.html#416,416,1366,768,1366,768,8-29-2022,9-42-0,140,depth_duration_stimuli/003621_2014-05-23_18-06-08_094959634447_rgbf000101-resize_1/003621_2014-05-23_18-06-08_094959634447_rgbf000101-resize_1-target.png,250,3.9835,45,2367,247,meters,jsons/v1_VE250_randls_57.json,836444,1145603,50,Woman
140,339164,DepthScenes,duration_manipulation_targetAtFixation,jsons/v1_VE250_randls_57.json,http://54.235.29.9/FacialAge/BNav_EC2/DepthDuration/v2_depth_duration_MTurk/v2_DepthDuration_HTML.html#416,416,1366,768,1366,768,8-29-2022,9-42-0,141,depth_duration_stimuli/001584_2014-06-20_11-07-43_260595134347_rgbf000002-resize_1/001584_2014-06-20_11-07-43_260595134347_rgbf000002-resize_1-target.png,250,3.53,28,14715,246,meters,jsons/v1_VE250_randls_57.json,836444,1145603,50,Woman
141,339164,DepthScenes,duration_manipulation_targetAtFixation,jsons/v1_VE250_randls_57.json,http://54.235.29.9/FacialAge/BNav_EC2/DepthDuration/v2_depth_duration_MTurk/v2_DepthDuration_HTML.html#416,416,1366,768,1366,768,8-29-2022,9-42-0,142,depth_duration_stimuli/001449_2014-06-19_17-01-27_260595134347_rgbf000116-resize_2/001449_2014-06-19_17-01-27_260595134347_rgbf000116-resize_2-target.png,250,3.452,25,2578,262,meters,jsons/v1_VE250_randls_57.json,836444,1145603,50,Woman
142,339164,DepthScenes,duration_manipulation_targetAtFixation,jsons/v1_VE250_randls_57.json,http://54.235.29.9/FacialAge/BNav_EC2/DepthDuration/v2_depth_duration_MTurk/v2_DepthDuration_HTML.html#416,416,1366,768,1366,768,8-29-2022,9-42-0,143,depth_duration_stimuli/001450_2014-06-19_17-02-03_260595134347_rgbf000203-resize_4/001450_2014-06-19_17-02-03_260595134347_rgbf000203-resize_4-target.png,250,4.0106666666667,30,3763,248,meters,jsons/v1_VE250_randls_57.json,836444,1145603,50,Woman
143,339164,DepthScenes,duration_manipulation_targetAtFixation,jsons/v1_VE250_randls_57.json,http://54.235.29.9/FacialAge/BNav_EC2/DepthDuration/v2_depth_duration_MTurk/v2_DepthDuration_HTML.html#416,416,1366,768,1366,768,8-29-2022,9-42-0,144,depth_duration_stimuli/001133_2014-06-17_14-49-16_260595134347_rgbf000100-resize_0/001133_2014-06-17_14-49-16_260595134347_rgbf000100-resize_0-target.png,250,4.2115,25,2335,248,meters,jsons/v1_VE250_randls_57.json,836444,1145603,50,Woman
144,339164,DepthScenes,duration_manipulation_targetAtFixation,jsons/v1_VE250_randls_57.json,http://54.235.29.9/FacialAge/BNav_EC2/DepthDuration/v2_depth_duration_MTurk/v2_DepthDuration_HTML.html#416,416,1366,768,1366,768,8-29-2022,9-42-0,145,depth_duration_stimuli/001132_2014-06-17_14-48-54_260595134347_rgbf000100-resize_2/001132_2014-06-17_14-48-54_260595134347_rgbf000100-resize_2-target.png,250,3.753,30,2237,247,meters,jsons/v1_VE250_randls_57.json,836444,1145603,50,Woman
145,339164,DepthScenes,duration_manipulation_targetAtFixation,jsons/v1_VE250_randls_57.json,http://54.235.29.9/FacialAge/BNav_EC2/DepthDuration/v2_depth_duration_MTurk/v2_DepthDuration_HTML.html#416,416,1366,768,1366,768,8-29-2022,9-42-0,146,depth_duration_stimuli/001498_2014-06-19_17-45-14_260595134347_rgbf000129-resize_4/001498_2014-06-19_17-45-14_260595134347_rgbf000129-resize-original.jpg,250,1.4075,0,1973,246,meters,jsons/v1_VE250_randls_57.json,836444,1145603,50,Woman
146,339164,DepthScenes,duration_manipulation_targetAtFixation,jsons/v1_VE250_randls_57.json,http://54.235.29.9/FacialAge/BNav_EC2/DepthDuration/v2_depth_duration_MTurk/v2_DepthDuration_HTML.html#416,416,1366,768,1366,768,8-29-2022,9-42-0,147,depth_duration_stimuli/000692_2014-06-08_13-09-42_260595134347_rgbf000199-resize_2/000692_2014-06-08_13-09-42_260595134347_rgbf000199-resize_2-target.png,250,3.661,15,2857,252,meters,jsons/v1_VE250_randls_57.json,836444,1145603,50,Woman
147,339164,DepthScenes,duration_manipulation_targetAtFixation,jsons/v1_VE250_randls_57.json,http://54.235.29.9/FacialAge/BNav_EC2/DepthDuration/v2_depth_duration_MTurk/v2_DepthDuration_HTML.html#416,416,1366,768,1366,768,8-29-2022,9-42-0,148,depth_duration_stimuli/001094_2014-06-15_17-36-00_260595134347_rgbf000205-resize_0/001094_2014-06-15_17-36-00_260595134347_rgbf000205-resize_0-target.png,250,4.2175,18,73330,251,meters,jsons/v1_VE250_randls_57.json,836444,1145603,50,Woman
148,339164,DepthScenes,duration_manipulation_targetAtFixation,jsons/v1_VE250_randls_57.json,http://54.235.29.9/FacialAge/BNav_EC2/DepthDuration/v2_depth_duration_MTurk/v2_DepthDuration_HTML.html#416,416,1366,768,1366,768,8-29-2022,9-42-0,149,depth_duration_stimuli/000642_2014-06-08_16-59-25_260595134347_rgbf000098-resize_2/000642_2014-06-08_16-59-25_260595134347_rgbf000098-resize_2-target.png,250,2.8815,15,2922,252,meters,jsons/v1_VE250_randls_57.json,836444,1145603,50,Woman
149,339164,DepthScenes,duration_manipulation_targetAtFixation,jsons/v1_VE250_randls_57.json,http://54.235.29.9/FacialAge/BNav_EC2/DepthDuration/v2_depth_duration_MTurk/v2_DepthDuration_HTML.html#416,416,1366,768,1366,768,8-29-2022,9-42-0,150,depth_duration_stimuli/002425_2014-06-28_20-27-29_260595134347_rgbf000031-resize_8/002425_2014-06-28_20-27-29_260595134347_rgbf000031-resize_8-target.png,250,3.8960000000000004,15,9768,251,meters,jsons/v1_VE250_randls_57.json,836444,1145603,50,Woman
150,339164,DepthScenes,duration_manipulation_targetAtFixation,jsons/v1_VE250_randls_57.json,http://54.235.29.9/FacialAge/BNav_EC2/DepthDuration/v2_depth_duration_MTurk/v2_DepthDuration_HTML.html#416,416,1366,768,1366,768,8-29-2022,9-42-0,151,depth_duration_stimuli/002989_2014-06-15_12-25-03_094959634447_rgbf000150-resize_3/002989_2014-06-15_12-25-03_094959634447_rgbf000150-resize_3-target.png,250,4.1975,25,2393,247,meters,jsons/v1_VE250_randls_57.json,836444,1145603,50,Woman
151,339164,DepthScenes,duration_manipulation_targetAtFixation,jsons/v1_VE250_randls_57.json,http://54.235.29.9/FacialAge/BNav_EC2/DepthDuration/v2_depth_duration_MTurk/v2_DepthDuration_HTML.html#416,416,1366,768,1366,768,8-29-2022,9-42-0,152,depth_duration_stimuli/000866_2014-06-09_20-45-42_260595134347_rgbf000139-resize_1/000866_2014-06-09_20-45-42_260595134347_rgbf000139-resize_1-target.png,250,3.2155,30,2279,247,meters,jsons/v1_VE250_randls_57.json,836444,1145603,50,Woman
152,339164,DepthScenes,duration_manipulation_targetAtFixation,jsons/v1_VE250_randls_57.json,http://54.235.29.9/FacialAge/BNav_EC2/DepthDuration/v2_depth_duration_MTurk/v2_DepthDuration_HTML.html#416,416,1366,768,1366,768,8-29-2022,9-42-0,153,depth_duration_stimuli/000758_2014-06-08_22-05-08_260595134347_rgbf000085-resize_0/000758_2014-06-08_22-05-08_260595134347_rgbf000085-resize_0-target.png,250,3.3810000000000002,25,2377,263,meters,jsons/v1_VE250_randls_57.json,836444,1145603,50,Woman
153,339164,DepthScenes,duration_manipulation_targetAtFixation,jsons/v1_VE250_randls_57.json,http://54.235.29.9/FacialAge/BNav_EC2/DepthDuration/v2_depth_duration_MTurk/v2_DepthDuration_HTML.html#416,416,1366,768,1366,768,8-29-2022,9-42-0,154,depth_duration_stimuli/000854_2014-06-09_19-43-13_260595134347_rgbf000066-resize_0/000854_2014-06-09_19-43-13_260595134347_rgbf000066-resize_0-target.png,250,3.068,10,2212,246,meters,jsons/v1_VE250_randls_57.json,836444,1145603,50,Woman
154,339164,DepthScenes,duration_manipulation_targetAtFixation,jsons/v1_VE250_randls_57.json,http://54.235.29.9/FacialAge/BNav_EC2/DepthDuration/v2_depth_duration_MTurk/v2_DepthDuration_HTML.html#416,416,1366,768,1366,768,8-29-2022,9-42-0,155,depth_duration_stimuli/000736_2014-06-08_18-24-15_260595134347_rgbf000206-resize_3/000736_2014-06-08_18-24-15_260595134347_rgbf000206-resize_3-target.png,250,3.515,12,2202,234,meters,jsons/v1_VE250_randls_57.json,836444,1145603,50,Woman
155,339164,DepthScenes,duration_manipulation_targetAtFixation,jsons/v1_VE250_randls_57.json,http://54.235.29.9/FacialAge/BNav_EC2/DepthDuration/v2_depth_duration_MTurk/v2_DepthDuration_HTML.html#416,416,1366,768,1366,768,8-29-2022,9-42-0,156,depth_duration_stimuli/000137_2014-05-20_17-04-49_260595134347_rgbf000120-resize_1/000137_2014-05-20_17-04-49_260595134347_rgbf000120-resize_1-target.png,250,3.786,35,2297,248,meters,jsons/v1_VE250_randls_57.json,836444,1145603,50,Woman
156,339164,DepthScenes,duration_manipulation_targetAtFixation,jsons/v1_VE250_randls_57.json,http://54.235.29.9/FacialAge/BNav_EC2/DepthDuration/v2_depth_duration_MTurk/v2_DepthDuration_HTML.html#416,416,1366,768,1366,768,8-29-2022,9-42-0,157,depth_duration_stimuli/002213_2014-06-28_18-37-58_260595134347_rgbf000055-resize_1/002213_2014-06-28_18-37-58_260595134347_rgbf000055-resize_1-target.png,250,3.62,28,2305,256,meters,jsons/v1_VE250_randls_57.json,836444,1145603,50,Woman
157,339164,DepthScenes,duration_manipulation_targetAtFixation,jsons/v1_VE250_randls_57.json,http://54.235.29.9/FacialAge/BNav_EC2/DepthDuration/v2_depth_duration_MTurk/v2_DepthDuration_HTML.html#416,416,1366,768,1366,768,8-29-2022,9-42-0,158,depth_duration_stimuli/000691_2014-06-08_13-08-50_260595134347_rgbf000132-resize_3/000691_2014-06-08_13-08-50_260595134347_rgbf000132-resize_3-target.png,250,4.1530000000000005,15,2073,245,meters,jsons/v1_VE250_randls_57.json,836444,1145603,50,Woman
158,339164,DepthScenes,duration_manipulation_targetAtFixation,jsons/v1_VE250_randls_57.json,http://54.235.29.9/FacialAge/BNav_EC2/DepthDuration/v2_depth_duration_MTurk/v2_DepthDuration_HTML.html#416,416,1366,768,1366,768,8-29-2022,9-42-0,159,depth_duration_stimuli/002964_2014-06-08_17-46-11_094959634447_rgbf000091-resize_4/002964_2014-06-08_17-46-11_094959634447_rgbf000091-resize_4-target.png,250,1.6909999999999998,15,2726,246,meters,jsons/v1_VE250_randls_57.json,836444,1145603,50,Woman
159,339164,DepthScenes,duration_manipulation_targetAtFixation,jsons/v1_VE250_randls_57.json,http://54.235.29.9/FacialAge/BNav_EC2/DepthDuration/v2_depth_duration_MTurk/v2_DepthDuration_HTML.html#416,416,1366,768,1366,768,8-29-2022,9-42-0,160,depth_duration_stimuli/002136_2014-06-25_21-18-03_260595134347_rgbf000109-resize_3/002136_2014-06-25_21-18-03_260595134347_rgbf000109-resize_3-target.png,250,1.9569999999999999,10,2567,249,meters,jsons/v1_VE250_randls_57.json,836444,1145603,50,Woman
160,339164,DepthScenes,duration_manipulation_targetAtFixation,jsons/v1_VE250_randls_57.json,http://54.235.29.9/FacialAge/BNav_EC2/DepthDuration/v2_depth_duration_MTurk/v2_DepthDuration_HTML.html#416,416,1366,768,1366,768,8-29-2022,9-42-0,161,depth_duration_stimuli/000917_2014-06-09_22-45-29_260595134347_rgbf000149-resize_3/000917_2014-06-09_22-45-29_260595134347_rgbf000149-resize_3-target.png,250,4.1865,15,2402,248,meters,jsons/v1_VE250_randls_57.json,836444,1145603,50,Woman
161,339164,DepthScenes,duration_manipulation_targetAtFixation,jsons/v1_VE250_randls_57.json,http://54.235.29.9/FacialAge/BNav_EC2/DepthDuration/v2_depth_duration_MTurk/v2_DepthDuration_HTML.html#416,416,1366,768,1366,768,8-29-2022,9-42-0,162,depth_duration_stimuli/002323_2014-06-28_20-01-54_260595134347_rgbf000051-resize_4/002323_2014-06-28_20-01-54_260595134347_rgbf000051-resize_4-target.png,250,3.7310000000000003,24,2552,259,meters,jsons/v1_VE250_randls_57.json,836444,1145603,50,Woman
162,339164,DepthScenes,duration_manipulation_targetAtFixation,jsons/v1_VE250_randls_57.json,http://54.235.29.9/FacialAge/BNav_EC2/DepthDuration/v2_depth_duration_MTurk/v2_DepthDuration_HTML.html#416,416,1366,768,1366,768,8-29-2022,9-42-0,163,depth_duration_stimuli/002043_2014-06-24_20-29-38_260595134347_rgbf000039-resize_4/002043_2014-06-24_20-29-38_260595134347_rgbf000039-resize_4-target.png,250,2.8435,25,33254,249,meters,jsons/v1_VE250_randls_57.json,836444,1145603,50,Woman
163,339164,DepthScenes,duration_manipulation_targetAtFixation,jsons/v1_VE250_randls_57.json,http://54.235.29.9/FacialAge/BNav_EC2/DepthDuration/v2_depth_duration_MTurk/v2_DepthDuration_HTML.html#416,416,1366,768,1366,768,8-29-2022,9-42-0,164,depth_duration_stimuli/003048_2014-06-15_13-49-43_094959634447_rgbf000150-resize_1/003048_2014-06-15_13-49-43_094959634447_rgbf000150-resize_1-target.png,250,4.0035,45,2381,247,meters,jsons/v1_VE250_randls_57.json,836444,1145603,50,Woman
