,subjID,experimentName,versionName,sequenceName,url,selected_row,windowWidth,windowHeight,screenWidth,screenHeight,startDate,startTime,trial,stimulus,duration,actual_depth,depth_estimate,trial_RT,log_sceneDuration,unitSelection,seq_filepath,experimentTime,totalTime,age,gender
0,340061,DepthScenes,duration_manipulation_targetAtFixation,jsons/v1_VE250_randls_17.json,http://54.235.29.9/FacialAge/BNav_EC2/DepthDuration/v2_depth_duration_MTurk/v2_DepthDuration_HTML.html#430,430,1366,625,1366,768,9-3-2022,13-36-42,1,depth_duration_stimuli/002600_2014-06-24_14-27-04_094959634447_rgbf000074-resize_2/002600_2014-06-24_14-27-04_094959634447_rgbf000074-resize_2-target.png,250,2.7575,1,3717,249,meters,jsons/v1_VE250_randls_17.json,588460,903304,35,Woman
1,340061,DepthScenes,duration_manipulation_targetAtFixation,jsons/v1_VE250_randls_17.json,http://54.235.29.9/FacialAge/BNav_EC2/DepthDuration/v2_depth_duration_MTurk/v2_DepthDuration_HTML.html#430,430,1366,625,1366,768,9-3-2022,13-36-42,2,depth_duration_stimuli/003228_2014-05-14_13-42-35_094959634447_rgbf000101-resize_1/003228_2014-05-14_13-42-35_094959634447_rgbf000101-resize_1-target.png,250,1.9680000000000002,1,3963,246,meters,jsons/v1_VE250_randls_17.json,588460,903304,35,Woman
2,340061,DepthScenes,duration_manipulation_targetAtFixation,jsons/v1_VE250_randls_17.json,http://54.235.29.9/FacialAge/BNav_EC2/DepthDuration/v2_depth_duration_MTurk/v2_DepthDuration_HTML.html#430,430,1366,625,1366,768,9-3-2022,13-36-42,3,depth_duration_stimuli/002039_2014-06-24_20-22-38_260595134347_rgbf000084-resize_1/002039_2014-06-24_20-22-38_260595134347_rgbf000084-resize_1-target.png,250,4.408,1,3389,241,meters,jsons/v1_VE250_randls_17.json,588460,903304,35,Woman
3,340061,DepthScenes,duration_manipulation_targetAtFixation,jsons/v1_VE250_randls_17.json,http://54.235.29.9/FacialAge/BNav_EC2/DepthDuration/v2_depth_duration_MTurk/v2_DepthDuration_HTML.html#430,430,1366,625,1366,768,9-3-2022,13-36-42,4,depth_duration_stimuli/002103_2014-06-25_20-00-40_260595134347_rgbf000049-resize_0/002103_2014-06-25_20-00-40_260595134347_rgbf000049-resize_0-target.png,250,4.105,1,3219,252,meters,jsons/v1_VE250_randls_17.json,588460,903304,35,Woman
4,340061,DepthScenes,duration_manipulation_targetAtFixation,jsons/v1_VE250_randls_17.json,http://54.235.29.9/FacialAge/BNav_EC2/DepthDuration/v2_depth_duration_MTurk/v2_DepthDuration_HTML.html#430,430,1366,625,1366,768,9-3-2022,13-36-42,5,depth_duration_stimuli/003621_2014-05-23_18-06-08_094959634447_rgbf000101-resize_1/003621_2014-05-23_18-06-08_094959634447_rgbf000101-resize_1-target.png,250,3.9835,1,2869,265,meters,jsons/v1_VE250_randls_17.json,588460,903304,35,Woman
5,340061,DepthScenes,duration_manipulation_targetAtFixation,jsons/v1_VE250_randls_17.json,http://54.235.29.9/FacialAge/BNav_EC2/DepthDuration/v2_depth_duration_MTurk/v2_DepthDuration_HTML.html#430,430,1366,625,1366,768,9-3-2022,13-36-42,6,depth_duration_stimuli/001584_2014-06-20_11-07-43_260595134347_rgbf000002-resize_1/001584_2014-06-20_11-07-43_260595134347_rgbf000002-resize_1-target.png,250,3.53,1,2320,259,meters,jsons/v1_VE250_randls_17.json,588460,903304,35,Woman
6,340061,DepthScenes,duration_manipulation_targetAtFixation,jsons/v1_VE250_randls_17.json,http://54.235.29.9/FacialAge/BNav_EC2/DepthDuration/v2_depth_duration_MTurk/v2_DepthDuration_HTML.html#430,430,1366,625,1366,768,9-3-2022,13-36-42,7,depth_duration_stimuli/002375_2014-06-28_20-13-44_260595134347_rgbf000032-resize_1/002375_2014-06-28_20-13-44_260595134347_rgbf000032-resize_1-target.png,250,4.0175,1,4835,246,meters,jsons/v1_VE250_randls_17.json,588460,903304,35,Woman
7,340061,DepthScenes,duration_manipulation_targetAtFixation,jsons/v1_VE250_randls_17.json,http://54.235.29.9/FacialAge/BNav_EC2/DepthDuration/v2_depth_duration_MTurk/v2_DepthDuration_HTML.html#430,430,1366,625,1366,768,9-3-2022,13-36-42,8,depth_duration_stimuli/002657_2014-06-13_15-29-54_094959634447_rgbf000150-resize_1/002657_2014-06-13_15-29-54_094959634447_rgbf000150-resize_1-target.png,250,4.919,1,2432,249,meters,jsons/v1_VE250_randls_17.json,588460,903304,35,Woman
8,340061,DepthScenes,duration_manipulation_targetAtFixation,jsons/v1_VE250_randls_17.json,http://54.235.29.9/FacialAge/BNav_EC2/DepthDuration/v2_depth_duration_MTurk/v2_DepthDuration_HTML.html#430,430,1366,625,1366,768,9-3-2022,13-36-42,9,depth_duration_stimuli/001199_2014-06-17_16-03-48_260595134347_rgbf000077-resize_0/001199_2014-06-17_16-03-48_260595134347_rgbf000077-resize_0-target.png,250,3.4375,1,2719,248,meters,jsons/v1_VE250_randls_17.json,588460,903304,35,Woman
9,340061,DepthScenes,duration_manipulation_targetAtFixation,jsons/v1_VE250_randls_17.json,http://54.235.29.9/FacialAge/BNav_EC2/DepthDuration/v2_depth_duration_MTurk/v2_DepthDuration_HTML.html#430,430,1366,625,1366,768,9-3-2022,13-36-42,10,depth_duration_stimuli/000502_2014-06-08_23-02-32_260595134347_rgbf000063-resize_4/000502_2014-06-08_23-02-32_260595134347_rgbf000063-resize_4-target.png,250,2.431,1,2489,253,meters,jsons/v1_VE250_randls_17.json,588460,903304,35,Woman
10,340061,DepthScenes,duration_manipulation_targetAtFixation,jsons/v1_VE250_randls_17.json,http://54.235.29.9/FacialAge/BNav_EC2/DepthDuration/v2_depth_duration_MTurk/v2_DepthDuration_HTML.html#430,430,1366,625,1366,768,9-3-2022,13-36-42,11,depth_duration_stimuli/000788_2014-06-08_22-34-36_260595134347_rgbf000131-resize_1/000788_2014-06-08_22-34-36_260595134347_rgbf000131-resize_1-target.png,250,3.359,1,2908,238,meters,jsons/v1_VE250_randls_17.json,588460,903304,35,Woman
11,340061,DepthScenes,duration_manipulation_targetAtFixation,jsons/v1_VE250_randls_17.json,http://54.235.29.9/FacialAge/BNav_EC2/DepthDuration/v2_depth_duration_MTurk/v2_DepthDuration_HTML.html#430,430,1366,625,1366,768,9-3-2022,13-36-42,12,depth_duration_stimuli/001235_2014-06-17_16-37-36_260595134347_rgbf000084-resize_4/001235_2014-06-17_16-37-36_260595134347_rgbf000084-resize_4-target.png,250,3.6605,1,2628,238,meters,jsons/v1_VE250_randls_17.json,588460,903304,35,Woman
12,340061,DepthScenes,duration_manipulation_targetAtFixation,jsons/v1_VE250_randls_17.json,http://54.235.29.9/FacialAge/BNav_EC2/DepthDuration/v2_depth_duration_MTurk/v2_DepthDuration_HTML.html#430,430,1366,625,1366,768,9-3-2022,13-36-42,13,depth_duration_stimuli/000569_2014-06-09_22-51-47_260595134347_rgbf000141-resize_3/000569_2014-06-09_22-51-47_260595134347_rgbf000141-resize-original.jpg,250,4.512,0,3613,254,meters,jsons/v1_VE250_randls_17.json,588460,903304,35,Woman
13,340061,DepthScenes,duration_manipulation_targetAtFixation,jsons/v1_VE250_randls_17.json,http://54.235.29.9/FacialAge/BNav_EC2/DepthDuration/v2_depth_duration_MTurk/v2_DepthDuration_HTML.html#430,430,1366,625,1366,768,9-3-2022,13-36-42,14,depth_duration_stimuli/000486_2014-06-09_20-47-20_260595134347_rgbf000143-resize_2/000486_2014-06-09_20-47-20_260595134347_rgbf000143-resize_2-target.png,250,4.8325,1,2491,240,meters,jsons/v1_VE250_randls_17.json,588460,903304,35,Woman
14,340061,DepthScenes,duration_manipulation_targetAtFixation,jsons/v1_VE250_randls_17.json,http://54.235.29.9/FacialAge/BNav_EC2/DepthDuration/v2_depth_duration_MTurk/v2_DepthDuration_HTML.html#430,430,1366,625,1366,768,9-3-2022,13-36-42,15,depth_duration_stimuli/003083_2014-06-15_15-21-03_094959634447_rgbf000063-resize_1/003083_2014-06-15_15-21-03_094959634447_rgbf000063-resize_1-target.png,250,4.1405,1,2378,251,meters,jsons/v1_VE250_randls_17.json,588460,903304,35,Woman
15,340061,DepthScenes,duration_manipulation_targetAtFixation,jsons/v1_VE250_randls_17.json,http://54.235.29.9/FacialAge/BNav_EC2/DepthDuration/v2_depth_duration_MTurk/v2_DepthDuration_HTML.html#430,430,1366,625,1366,768,9-3-2022,13-36-42,16,depth_duration_stimuli/001164_2014-06-17_15-35-46_260595134347_rgbf000085-resize_3/001164_2014-06-17_15-35-46_260595134347_rgbf000085-resize_3-target.png,250,2.354,1,2721,253,meters,jsons/v1_VE250_randls_17.json,588460,903304,35,Woman
16,340061,DepthScenes,duration_manipulation_targetAtFixation,jsons/v1_VE250_randls_17.json,http://54.235.29.9/FacialAge/BNav_EC2/DepthDuration/v2_depth_duration_MTurk/v2_DepthDuration_HTML.html#430,430,1366,625,1366,768,9-3-2022,13-36-42,17,depth_duration_stimuli/001136_2014-06-17_15-19-41_260595134347_rgbf000076-resize_3/001136_2014-06-17_15-19-41_260595134347_rgbf000076-resize_3-target.png,250,1.8655,1,2499,250,meters,jsons/v1_VE250_randls_17.json,588460,903304,35,Woman
17,340061,DepthScenes,duration_manipulation_targetAtFixation,jsons/v1_VE250_randls_17.json,http://54.235.29.9/FacialAge/BNav_EC2/DepthDuration/v2_depth_duration_MTurk/v2_DepthDuration_HTML.html#430,430,1366,625,1366,768,9-3-2022,13-36-42,18,depth_duration_stimuli/000906_2014-06-08_13-35-43_260595134347_rgbf000155-resize_1/000906_2014-06-08_13-35-43_260595134347_rgbf000155-resize_1-target.png,250,2.8489999999999998,1,2878,249,meters,jsons/v1_VE250_randls_17.json,588460,903304,35,Woman
18,340061,DepthScenes,duration_manipulation_targetAtFixation,jsons/v1_VE250_randls_17.json,http://54.235.29.9/FacialAge/BNav_EC2/DepthDuration/v2_depth_duration_MTurk/v2_DepthDuration_HTML.html#430,430,1366,625,1366,768,9-3-2022,13-36-42,19,depth_duration_stimuli/002805_2014-06-22_19-54-03_094959634447_rgbf000079-resize_1/002805_2014-06-22_19-54-03_094959634447_rgbf000079-resize_1-target.png,250,3.1439999999999997,1,2377,249,meters,jsons/v1_VE250_randls_17.json,588460,903304,35,Woman
19,340061,DepthScenes,duration_manipulation_targetAtFixation,jsons/v1_VE250_randls_17.json,http://54.235.29.9/FacialAge/BNav_EC2/DepthDuration/v2_depth_duration_MTurk/v2_DepthDuration_HTML.html#430,430,1366,625,1366,768,9-3-2022,13-36-42,20,depth_duration_stimuli/002057_2014-06-24_21-00-13_260595134347_rgbf000120-resize_1/002057_2014-06-24_21-00-13_260595134347_rgbf000120-resize_1-target.png,250,2.967,1,2796,254,meters,jsons/v1_VE250_randls_17.json,588460,903304,35,Woman
20,340061,DepthScenes,duration_manipulation_targetAtFixation,jsons/v1_VE250_randls_17.json,http://54.235.29.9/FacialAge/BNav_EC2/DepthDuration/v2_depth_duration_MTurk/v2_DepthDuration_HTML.html#430,430,1366,625,1366,768,9-3-2022,13-36-42,21,depth_duration_stimuli/000709_2014-06-08_13-51-55_260595134347_rgbf000068-resize_3/000709_2014-06-08_13-51-55_260595134347_rgbf000068-resize_3-target.png,250,1.8030000000000002,1,2616,249,meters,jsons/v1_VE250_randls_17.json,588460,903304,35,Woman
21,340061,DepthScenes,duration_manipulation_targetAtFixation,jsons/v1_VE250_randls_17.json,http://54.235.29.9/FacialAge/BNav_EC2/DepthDuration/v2_depth_duration_MTurk/v2_DepthDuration_HTML.html#430,430,1366,625,1366,768,9-3-2022,13-36-42,22,depth_duration_stimuli/002905_2014-06-03_18-04-43_094959634447_rgbf000151-resize_2/002905_2014-06-03_18-04-43_094959634447_rgbf000151-resize_2-target.png,250,2.0295,1,2399,264,meters,jsons/v1_VE250_randls_17.json,588460,903304,35,Woman
22,340061,DepthScenes,duration_manipulation_targetAtFixation,jsons/v1_VE250_randls_17.json,http://54.235.29.9/FacialAge/BNav_EC2/DepthDuration/v2_depth_duration_MTurk/v2_DepthDuration_HTML.html#430,430,1366,625,1366,768,9-3-2022,13-36-42,23,depth_duration_stimuli/003423_2014-05-21_10-23-26_094959634447_rgbf002665-resize_2/003423_2014-05-21_10-23-26_094959634447_rgbf002665-resize_2-target.png,250,3.2575,1,2379,261,meters,jsons/v1_VE250_randls_17.json,588460,903304,35,Woman
23,340061,DepthScenes,duration_manipulation_targetAtFixation,jsons/v1_VE250_randls_17.json,http://54.235.29.9/FacialAge/BNav_EC2/DepthDuration/v2_depth_duration_MTurk/v2_DepthDuration_HTML.html#430,430,1366,625,1366,768,9-3-2022,13-36-42,24,depth_duration_stimuli/001806_2014-06-26_20-50-20_260595134347_rgbf000091-resize_1/001806_2014-06-26_20-50-20_260595134347_rgbf000091-resize_1-target.png,250,2.7305,1,2608,257,meters,jsons/v1_VE250_randls_17.json,588460,903304,35,Woman
24,340061,DepthScenes,duration_manipulation_targetAtFixation,jsons/v1_VE250_randls_17.json,http://54.235.29.9/FacialAge/BNav_EC2/DepthDuration/v2_depth_duration_MTurk/v2_DepthDuration_HTML.html#430,430,1366,625,1366,768,9-3-2022,13-36-42,25,depth_duration_stimuli/001617_2014-06-20_11-35-32_260595134347_rgbf000066-resize_1/001617_2014-06-20_11-35-32_260595134347_rgbf000066-resize_1-target.png,250,3.7910000000000004,1,3804,255,meters,jsons/v1_VE250_randls_17.json,588460,903304,35,Woman
25,340061,DepthScenes,duration_manipulation_targetAtFixation,jsons/v1_VE250_randls_17.json,http://54.235.29.9/FacialAge/BNav_EC2/DepthDuration/v2_depth_duration_MTurk/v2_DepthDuration_HTML.html#430,430,1366,625,1366,768,9-3-2022,13-36-42,26,depth_duration_stimuli/001158_2014-06-17_15-32-16_260595134347_rgbf000138-resize_2/001158_2014-06-17_15-32-16_260595134347_rgbf000138-resize_2-target.png,250,4.5315,1,2197,239,meters,jsons/v1_VE250_randls_17.json,588460,903304,35,Woman
26,340061,DepthScenes,duration_manipulation_targetAtFixation,jsons/v1_VE250_randls_17.json,http://54.235.29.9/FacialAge/BNav_EC2/DepthDuration/v2_depth_duration_MTurk/v2_DepthDuration_HTML.html#430,430,1366,625,1366,768,9-3-2022,13-36-42,27,depth_duration_stimuli/000556_2014-06-09_22-42-56_260595134347_rgbf000214-resize_1/000556_2014-06-09_22-42-56_260595134347_rgbf000214-resize_1-target.png,250,4.8415,2,5915,249,meters,jsons/v1_VE250_randls_17.json,588460,903304,35,Woman
27,340061,DepthScenes,duration_manipulation_targetAtFixation,jsons/v1_VE250_randls_17.json,http://54.235.29.9/FacialAge/BNav_EC2/DepthDuration/v2_depth_duration_MTurk/v2_DepthDuration_HTML.html#430,430,1366,625,1366,768,9-3-2022,13-36-42,28,depth_duration_stimuli/002549_2014-06-24_13-41-39_094959634447_rgbf000022-resize_3/002549_2014-06-24_13-41-39_094959634447_rgbf000022-resize_3-target.png,250,1.476,2,8720,251,meters,jsons/v1_VE250_randls_17.json,588460,903304,35,Woman
28,340061,DepthScenes,duration_manipulation_targetAtFixation,jsons/v1_VE250_randls_17.json,http://54.235.29.9/FacialAge/BNav_EC2/DepthDuration/v2_depth_duration_MTurk/v2_DepthDuration_HTML.html#430,430,1366,625,1366,768,9-3-2022,13-36-42,29,depth_duration_stimuli/002750_2014-06-22_19-08-03_094959634447_rgbf000094-resize_4/002750_2014-06-22_19-08-03_094959634447_rgbf000094-resize_4-target.png,250,2.354,4,3144,244,meters,jsons/v1_VE250_randls_17.json,588460,903304,35,Woman
29,340061,DepthScenes,duration_manipulation_targetAtFixation,jsons/v1_VE250_randls_17.json,http://54.235.29.9/FacialAge/BNav_EC2/DepthDuration/v2_depth_duration_MTurk/v2_DepthDuration_HTML.html#430,430,1366,625,1366,768,9-3-2022,13-36-42,30,depth_duration_stimuli/000375_2014-06-08_11-17-29_260595134347_rgbf000133-resize_2/000375_2014-06-08_11-17-29_260595134347_rgbf000133-resize-original.jpg,250,4.718,0,2917,250,meters,jsons/v1_VE250_randls_17.json,588460,903304,35,Woman
30,340061,DepthScenes,duration_manipulation_targetAtFixation,jsons/v1_VE250_randls_17.json,http://54.235.29.9/FacialAge/BNav_EC2/DepthDuration/v2_depth_duration_MTurk/v2_DepthDuration_HTML.html#430,430,1366,625,1366,768,9-3-2022,13-36-42,31,depth_duration_stimuli/002118_2014-06-25_20-32-08_260595134347_rgbf000078-resize_1/002118_2014-06-25_20-32-08_260595134347_rgbf000078-resize_1-target.png,250,2.6460000000000004,3,3105,236,meters,jsons/v1_VE250_randls_17.json,588460,903304,35,Woman
31,340061,DepthScenes,duration_manipulation_targetAtFixation,jsons/v1_VE250_randls_17.json,http://54.235.29.9/FacialAge/BNav_EC2/DepthDuration/v2_depth_duration_MTurk/v2_DepthDuration_HTML.html#430,430,1366,625,1366,768,9-3-2022,13-36-42,32,depth_duration_stimuli/001516_2014-06-20_16-25-09_260595134347_rgbf000076-resize_2/001516_2014-06-20_16-25-09_260595134347_rgbf000076-resize_2-target.png,250,1.7445,1,2796,261,meters,jsons/v1_VE250_randls_17.json,588460,903304,35,Woman
32,340061,DepthScenes,duration_manipulation_targetAtFixation,jsons/v1_VE250_randls_17.json,http://54.235.29.9/FacialAge/BNav_EC2/DepthDuration/v2_depth_duration_MTurk/v2_DepthDuration_HTML.html#430,430,1366,625,1366,768,9-3-2022,13-36-42,33,depth_duration_stimuli/002043_2014-06-24_20-29-38_260595134347_rgbf000039-resize_4/002043_2014-06-24_20-29-38_260595134347_rgbf000039-resize_4-target.png,250,2.8435,1,2297,247,meters,jsons/v1_VE250_randls_17.json,588460,903304,35,Woman
33,340061,DepthScenes,duration_manipulation_targetAtFixation,jsons/v1_VE250_randls_17.json,http://54.235.29.9/FacialAge/BNav_EC2/DepthDuration/v2_depth_duration_MTurk/v2_DepthDuration_HTML.html#430,430,1366,625,1366,768,9-3-2022,13-36-42,34,depth_duration_stimuli/003048_2014-06-15_13-49-43_094959634447_rgbf000150-resize_1/003048_2014-06-15_13-49-43_094959634447_rgbf000150-resize_1-target.png,250,4.0035,4,2708,262,meters,jsons/v1_VE250_randls_17.json,588460,903304,35,Woman
34,340061,DepthScenes,duration_manipulation_targetAtFixation,jsons/v1_VE250_randls_17.json,http://54.235.29.9/FacialAge/BNav_EC2/DepthDuration/v2_depth_duration_MTurk/v2_DepthDuration_HTML.html#430,430,1366,625,1366,768,9-3-2022,13-36-42,35,depth_duration_stimuli/000506_2014-06-08_23-21-00_260595134347_rgbf000070-resize_7/000506_2014-06-08_23-21-00_260595134347_rgbf000070-resize_7-target.png,250,4.0585,4,5715,246,meters,jsons/v1_VE250_randls_17.json,588460,903304,35,Woman
35,340061,DepthScenes,duration_manipulation_targetAtFixation,jsons/v1_VE250_randls_17.json,http://54.235.29.9/FacialAge/BNav_EC2/DepthDuration/v2_depth_duration_MTurk/v2_DepthDuration_HTML.html#430,430,1366,625,1366,768,9-3-2022,13-36-42,36,depth_duration_stimuli/003079_2014-06-15_15-18-20_094959634447_rgbf000152-resize_8/003079_2014-06-15_15-18-20_094959634447_rgbf000152-resize_8-target.png,250,2.8775,1,2447,245,meters,jsons/v1_VE250_randls_17.json,588460,903304,35,Woman
36,340061,DepthScenes,duration_manipulation_targetAtFixation,jsons/v1_VE250_randls_17.json,http://54.235.29.9/FacialAge/BNav_EC2/DepthDuration/v2_depth_duration_MTurk/v2_DepthDuration_HTML.html#430,430,1366,625,1366,768,9-3-2022,13-36-42,37,depth_duration_stimuli/001056_2014-06-08_18-46-44_260595134347_rgbf000068-resize_0/001056_2014-06-08_18-46-44_260595134347_rgbf000068-resize_0-target.png,250,2.6625,4,2778,248,meters,jsons/v1_VE250_randls_17.json,588460,903304,35,Woman
37,340061,DepthScenes,duration_manipulation_targetAtFixation,jsons/v1_VE250_randls_17.json,http://54.235.29.9/FacialAge/BNav_EC2/DepthDuration/v2_depth_duration_MTurk/v2_DepthDuration_HTML.html#430,430,1366,625,1366,768,9-3-2022,13-36-42,38,depth_duration_stimuli/002199_2014-06-28_18-33-56_260595134347_rgbf000074-resize_0/002199_2014-06-28_18-33-56_260595134347_rgbf000074-resize_0-target.png,250,1.996,1,2589,254,meters,jsons/v1_VE250_randls_17.json,588460,903304,35,Woman
38,340061,DepthScenes,duration_manipulation_targetAtFixation,jsons/v1_VE250_randls_17.json,http://54.235.29.9/FacialAge/BNav_EC2/DepthDuration/v2_depth_duration_MTurk/v2_DepthDuration_HTML.html#430,430,1366,625,1366,768,9-3-2022,13-36-42,39,depth_duration_stimuli/002663_2014-06-13_15-50-26_094959634447_rgbf000075-resize_1/002663_2014-06-13_15-50-26_094959634447_rgbf000075-resize_1-target.png,250,4.7495,3,2648,245,meters,jsons/v1_VE250_randls_17.json,588460,903304,35,Woman
39,340061,DepthScenes,duration_manipulation_targetAtFixation,jsons/v1_VE250_randls_17.json,http://54.235.29.9/FacialAge/BNav_EC2/DepthDuration/v2_depth_duration_MTurk/v2_DepthDuration_HTML.html#430,430,1366,625,1366,768,9-3-2022,13-36-42,40,depth_duration_stimuli/000409_2014-06-04_19-23-33_260595134347_rgbf000067-resize_0/000409_2014-06-04_19-23-33_260595134347_rgbf000067-resize_0-target.png,250,3.7335,5,3159,260,meters,jsons/v1_VE250_randls_17.json,588460,903304,35,Woman
40,340061,DepthScenes,duration_manipulation_targetAtFixation,jsons/v1_VE250_randls_17.json,http://54.235.29.9/FacialAge/BNav_EC2/DepthDuration/v2_depth_duration_MTurk/v2_DepthDuration_HTML.html#430,430,1366,625,1366,768,9-3-2022,13-36-42,41,depth_duration_stimuli/001150_2014-06-17_15-27-34_260595134347_rgbf000108-resize_2/001150_2014-06-17_15-27-34_260595134347_rgbf000108-resize_2-target.png,250,4.0325,1,2489,253,meters,jsons/v1_VE250_randls_17.json,588460,903304,35,Woman
41,340061,DepthScenes,duration_manipulation_targetAtFixation,jsons/v1_VE250_randls_17.json,http://54.235.29.9/FacialAge/BNav_EC2/DepthDuration/v2_depth_duration_MTurk/v2_DepthDuration_HTML.html#430,430,1366,625,1366,768,9-3-2022,13-36-42,42,depth_duration_stimuli/000665_2014-06-09_20-42-35_260595134347_rgbf000110-resize_1/000665_2014-06-09_20-42-35_260595134347_rgbf000110-resize_1-target.png,250,3.057,2,2917,250,meters,jsons/v1_VE250_randls_17.json,588460,903304,35,Woman
42,340061,DepthScenes,duration_manipulation_targetAtFixation,jsons/v1_VE250_randls_17.json,http://54.235.29.9/FacialAge/BNav_EC2/DepthDuration/v2_depth_duration_MTurk/v2_DepthDuration_HTML.html#430,430,1366,625,1366,768,9-3-2022,13-36-42,43,depth_duration_stimuli/000470_2014-06-09_19-42-40_260595134347_rgbf000094-resize_1/000470_2014-06-09_19-42-40_260595134347_rgbf000094-resize_1-target.png,250,1.831,1,2474,258,meters,jsons/v1_VE250_randls_17.json,588460,903304,35,Woman
43,340061,DepthScenes,duration_manipulation_targetAtFixation,jsons/v1_VE250_randls_17.json,http://54.235.29.9/FacialAge/BNav_EC2/DepthDuration/v2_depth_duration_MTurk/v2_DepthDuration_HTML.html#430,430,1366,625,1366,768,9-3-2022,13-36-42,44,depth_duration_stimuli/000109_2014-05-14_23-41-52_260595134347_rgbf000035-resize_9/000109_2014-05-14_23-41-52_260595134347_rgbf000035-resize_9-target.png,250,1.3545,5,3065,236,meters,jsons/v1_VE250_randls_17.json,588460,903304,35,Woman
44,340061,DepthScenes,duration_manipulation_targetAtFixation,jsons/v1_VE250_randls_17.json,http://54.235.29.9/FacialAge/BNav_EC2/DepthDuration/v2_depth_duration_MTurk/v2_DepthDuration_HTML.html#430,430,1366,625,1366,768,9-3-2022,13-36-42,45,depth_duration_stimuli/000787_2014-06-08_22-33-53_260595134347_rgbf000175-resize_1/000787_2014-06-08_22-33-53_260595134347_rgbf000175-resize-original.jpg,250,4.784,0,4716,258,meters,jsons/v1_VE250_randls_17.json,588460,903304,35,Woman
45,340061,DepthScenes,duration_manipulation_targetAtFixation,jsons/v1_VE250_randls_17.json,http://54.235.29.9/FacialAge/BNav_EC2/DepthDuration/v2_depth_duration_MTurk/v2_DepthDuration_HTML.html#430,430,1366,625,1366,768,9-3-2022,13-36-42,46,depth_duration_stimuli/001133_2014-06-17_14-49-16_260595134347_rgbf000100-resize_0/001133_2014-06-17_14-49-16_260595134347_rgbf000100-resize_0-target.png,250,4.2115,7,3115,242,meters,jsons/v1_VE250_randls_17.json,588460,903304,35,Woman
46,340061,DepthScenes,duration_manipulation_targetAtFixation,jsons/v1_VE250_randls_17.json,http://54.235.29.9/FacialAge/BNav_EC2/DepthDuration/v2_depth_duration_MTurk/v2_DepthDuration_HTML.html#430,430,1366,625,1366,768,9-3-2022,13-36-42,47,depth_duration_stimuli/001132_2014-06-17_14-48-54_260595134347_rgbf000100-resize_2/001132_2014-06-17_14-48-54_260595134347_rgbf000100-resize_2-target.png,250,3.753,3,3034,247,meters,jsons/v1_VE250_randls_17.json,588460,903304,35,Woman
47,340061,DepthScenes,duration_manipulation_targetAtFixation,jsons/v1_VE250_randls_17.json,http://54.235.29.9/FacialAge/BNav_EC2/DepthDuration/v2_depth_duration_MTurk/v2_DepthDuration_HTML.html#430,430,1366,625,1366,768,9-3-2022,13-36-42,48,depth_duration_stimuli/001167_2014-06-17_15-38-07_260595134347_rgbf000108-resize_0/001167_2014-06-17_15-38-07_260595134347_rgbf000108-resize_0-target.png,250,1.8505,2,3095,246,meters,jsons/v1_VE250_randls_17.json,588460,903304,35,Woman
48,340061,DepthScenes,duration_manipulation_targetAtFixation,jsons/v1_VE250_randls_17.json,http://54.235.29.9/FacialAge/BNav_EC2/DepthDuration/v2_depth_duration_MTurk/v2_DepthDuration_HTML.html#430,430,1366,625,1366,768,9-3-2022,13-36-42,49,depth_duration_stimuli/003587_2014-05-23_16-48-02_094959634447_rgbf002384-resize_2/003587_2014-05-23_16-48-02_094959634447_rgbf002384-resize_2-target.png,250,1.357,2,2882,249,meters,jsons/v1_VE250_randls_17.json,588460,903304,35,Woman
49,340061,DepthScenes,duration_manipulation_targetAtFixation,jsons/v1_VE250_randls_17.json,http://54.235.29.9/FacialAge/BNav_EC2/DepthDuration/v2_depth_duration_MTurk/v2_DepthDuration_HTML.html#430,430,1366,625,1366,768,9-3-2022,13-36-42,50,depth_duration_stimuli/002445_2014-06-28_20-32-16_260595134347_rgbf000029-resize_4/002445_2014-06-28_20-32-16_260595134347_rgbf000029-resize_4-target.png,250,2.5315,1,2668,252,meters,jsons/v1_VE250_randls_17.json,588460,903304,35,Woman
50,340061,DepthScenes,duration_manipulation_targetAtFixation,jsons/v1_VE250_randls_17.json,http://54.235.29.9/FacialAge/BNav_EC2/DepthDuration/v2_depth_duration_MTurk/v2_DepthDuration_HTML.html#430,430,1366,625,1366,768,9-3-2022,13-36-42,51,depth_duration_stimuli/000780_2014-06-08_22-28-29_260595134347_rgbf000126-resize_1/000780_2014-06-08_22-28-29_260595134347_rgbf000126-resize_1-target.png,250,3.3825,5,2904,244,meters,jsons/v1_VE250_randls_17.json,588460,903304,35,Woman
51,340061,DepthScenes,duration_manipulation_targetAtFixation,jsons/v1_VE250_randls_17.json,http://54.235.29.9/FacialAge/BNav_EC2/DepthDuration/v2_depth_duration_MTurk/v2_DepthDuration_HTML.html#430,430,1366,625,1366,768,9-3-2022,13-36-42,52,depth_duration_stimuli/001029_2014-06-08_13-17-57_260595134347_rgbf000065-resize_1/001029_2014-06-08_13-17-57_260595134347_rgbf000065-resize_1-target.png,250,3.0835,3,3035,246,meters,jsons/v1_VE250_randls_17.json,588460,903304,35,Woman
52,340061,DepthScenes,duration_manipulation_targetAtFixation,jsons/v1_VE250_randls_17.json,http://54.235.29.9/FacialAge/BNav_EC2/DepthDuration/v2_depth_duration_MTurk/v2_DepthDuration_HTML.html#430,430,1366,625,1366,768,9-3-2022,13-36-42,53,depth_duration_stimuli/000677_2014-06-08_23-10-32_260595134347_rgbf000158-resize_6/000677_2014-06-08_23-10-32_260595134347_rgbf000158-resize_6-target.png,250,3.556,2,2607,262,meters,jsons/v1_VE250_randls_17.json,588460,903304,35,Woman
53,340061,DepthScenes,duration_manipulation_targetAtFixation,jsons/v1_VE250_randls_17.json,http://54.235.29.9/FacialAge/BNav_EC2/DepthDuration/v2_depth_duration_MTurk/v2_DepthDuration_HTML.html#430,430,1366,625,1366,768,9-3-2022,13-36-42,54,depth_duration_stimuli/003534_2014-05-22_15-06-10_094959634447_rgbf000102-resize_4/003534_2014-05-22_15-06-10_094959634447_rgbf000102-resize_4-target.png,250,1.426,6,3367,252,meters,jsons/v1_VE250_randls_17.json,588460,903304,35,Woman
54,340061,DepthScenes,duration_manipulation_targetAtFixation,jsons/v1_VE250_randls_17.json,http://54.235.29.9/FacialAge/BNav_EC2/DepthDuration/v2_depth_duration_MTurk/v2_DepthDuration_HTML.html#430,430,1366,625,1366,768,9-3-2022,13-36-42,55,depth_duration_stimuli/002637_2014-06-24_14-51-13_094959634447_rgbf000066-resize_4/002637_2014-06-24_14-51-13_094959634447_rgbf000066-resize_4-target.png,250,1.9955,1,2754,245,meters,jsons/v1_VE250_randls_17.json,588460,903304,35,Woman
55,340061,DepthScenes,duration_manipulation_targetAtFixation,jsons/v1_VE250_randls_17.json,http://54.235.29.9/FacialAge/BNav_EC2/DepthDuration/v2_depth_duration_MTurk/v2_DepthDuration_HTML.html#430,430,1366,625,1366,768,9-3-2022,13-36-42,56,depth_duration_stimuli/002988_2014-06-15_12-24-20_094959634447_rgbf000150-resize_1/002988_2014-06-15_12-24-20_094959634447_rgbf000150-resize_1-target.png,250,4.7669999999999995,4,2843,251,meters,jsons/v1_VE250_randls_17.json,588460,903304,35,Woman
56,340061,DepthScenes,duration_manipulation_targetAtFixation,jsons/v1_VE250_randls_17.json,http://54.235.29.9/FacialAge/BNav_EC2/DepthDuration/v2_depth_duration_MTurk/v2_DepthDuration_HTML.html#430,430,1366,625,1366,768,9-3-2022,13-36-42,57,depth_duration_stimuli/001052_2014-06-08_18-24-54_260595134347_rgbf000130-resize_1/001052_2014-06-08_18-24-54_260595134347_rgbf000130-resize_1-target.png,250,4.1045,2,2458,251,meters,jsons/v1_VE250_randls_17.json,588460,903304,35,Woman
57,340061,DepthScenes,duration_manipulation_targetAtFixation,jsons/v1_VE250_randls_17.json,http://54.235.29.9/FacialAge/BNav_EC2/DepthDuration/v2_depth_duration_MTurk/v2_DepthDuration_HTML.html#430,430,1366,625,1366,768,9-3-2022,13-36-42,58,depth_duration_stimuli/001059_2014-06-08_21-53-27_260595134347_rgbf000061-resize_4/001059_2014-06-08_21-53-27_260595134347_rgbf000061-resize_4-target.png,250,2.4185,1,3104,249,meters,jsons/v1_VE250_randls_17.json,588460,903304,35,Woman
58,340061,DepthScenes,duration_manipulation_targetAtFixation,jsons/v1_VE250_randls_17.json,http://54.235.29.9/FacialAge/BNav_EC2/DepthDuration/v2_depth_duration_MTurk/v2_DepthDuration_HTML.html#430,430,1366,625,1366,768,9-3-2022,13-36-42,59,depth_duration_stimuli/001032_2014-06-08_13-23-17_260595134347_rgbf000021-resize_3/001032_2014-06-08_13-23-17_260595134347_rgbf000021-resize_3-target.png,250,3.2725,2,2476,249,meters,jsons/v1_VE250_randls_17.json,588460,903304,35,Woman
59,340061,DepthScenes,duration_manipulation_targetAtFixation,jsons/v1_VE250_randls_17.json,http://54.235.29.9/FacialAge/BNav_EC2/DepthDuration/v2_depth_duration_MTurk/v2_DepthDuration_HTML.html#430,430,1366,625,1366,768,9-3-2022,13-36-42,60,depth_duration_stimuli/002964_2014-06-08_17-46-11_094959634447_rgbf000091-resize_4/002964_2014-06-08_17-46-11_094959634447_rgbf000091-resize_4-target.png,250,1.6909999999999998,1,2704,258,meters,jsons/v1_VE250_randls_17.json,588460,903304,35,Woman
60,340061,DepthScenes,duration_manipulation_targetAtFixation,jsons/v1_VE250_randls_17.json,http://54.235.29.9/FacialAge/BNav_EC2/DepthDuration/v2_depth_duration_MTurk/v2_DepthDuration_HTML.html#430,430,1366,625,1366,768,9-3-2022,13-36-42,61,depth_duration_stimuli/002136_2014-06-25_21-18-03_260595134347_rgbf000109-resize_3/002136_2014-06-25_21-18-03_260595134347_rgbf000109-resize_3-target.png,250,1.9569999999999999,3,2855,249,meters,jsons/v1_VE250_randls_17.json,588460,903304,35,Woman
61,340061,DepthScenes,duration_manipulation_targetAtFixation,jsons/v1_VE250_randls_17.json,http://54.235.29.9/FacialAge/BNav_EC2/DepthDuration/v2_depth_duration_MTurk/v2_DepthDuration_HTML.html#430,430,1366,625,1366,768,9-3-2022,13-36-42,62,depth_duration_stimuli/002989_2014-06-15_12-25-03_094959634447_rgbf000150-resize_3/002989_2014-06-15_12-25-03_094959634447_rgbf000150-resize_3-target.png,250,4.1975,2,3174,251,meters,jsons/v1_VE250_randls_17.json,588460,903304,35,Woman
62,340061,DepthScenes,duration_manipulation_targetAtFixation,jsons/v1_VE250_randls_17.json,http://54.235.29.9/FacialAge/BNav_EC2/DepthDuration/v2_depth_duration_MTurk/v2_DepthDuration_HTML.html#430,430,1366,625,1366,768,9-3-2022,13-36-42,63,depth_duration_stimuli/000866_2014-06-09_20-45-42_260595134347_rgbf000139-resize_1/000866_2014-06-09_20-45-42_260595134347_rgbf000139-resize_1-target.png,250,3.2155,0,3568,250,meters,jsons/v1_VE250_randls_17.json,588460,903304,35,Woman
63,340061,DepthScenes,duration_manipulation_targetAtFixation,jsons/v1_VE250_randls_17.json,http://54.235.29.9/FacialAge/BNav_EC2/DepthDuration/v2_depth_duration_MTurk/v2_DepthDuration_HTML.html#430,430,1366,625,1366,768,9-3-2022,13-36-42,64,depth_duration_stimuli/002153_2014-06-25_21-27-18_260595134347_rgbf000038-resize_5/002153_2014-06-25_21-27-18_260595134347_rgbf000038-resize_5-target.png,250,2.505,2,3198,249,meters,jsons/v1_VE250_randls_17.json,588460,903304,35,Woman
64,340061,DepthScenes,duration_manipulation_targetAtFixation,jsons/v1_VE250_randls_17.json,http://54.235.29.9/FacialAge/BNav_EC2/DepthDuration/v2_depth_duration_MTurk/v2_DepthDuration_HTML.html#430,430,1366,625,1366,768,9-3-2022,13-36-42,65,depth_duration_stimuli/002660_2014-06-13_15-44-18_094959634447_rgbf001878-resize_2/002660_2014-06-13_15-44-18_094959634447_rgbf001878-resize_2-target.png,250,3.576,0,3148,247,meters,jsons/v1_VE250_randls_17.json,588460,903304,35,Woman
65,340061,DepthScenes,duration_manipulation_targetAtFixation,jsons/v1_VE250_randls_17.json,http://54.235.29.9/FacialAge/BNav_EC2/DepthDuration/v2_depth_duration_MTurk/v2_DepthDuration_HTML.html#430,430,1366,625,1366,768,9-3-2022,13-36-42,66,depth_duration_stimuli/001222_2014-06-17_16-24-06_260595134347_rgbf000073-resize_0/001222_2014-06-17_16-24-06_260595134347_rgbf000073-resize-original.jpg,250,1.4385,0,2947,248,meters,jsons/v1_VE250_randls_17.json,588460,903304,35,Woman
66,340061,DepthScenes,duration_manipulation_targetAtFixation,jsons/v1_VE250_randls_17.json,http://54.235.29.9/FacialAge/BNav_EC2/DepthDuration/v2_depth_duration_MTurk/v2_DepthDuration_HTML.html#430,430,1366,625,1366,768,9-3-2022,13-36-42,67,depth_duration_stimuli/000493_2014-06-09_21-01-18_260595134347_rgbf000196-resize_3/000493_2014-06-09_21-01-18_260595134347_rgbf000196-resize_3-target.png,250,3.44,2,2449,251,meters,jsons/v1_VE250_randls_17.json,588460,903304,35,Woman
67,340061,DepthScenes,duration_manipulation_targetAtFixation,jsons/v1_VE250_randls_17.json,http://54.235.29.9/FacialAge/BNav_EC2/DepthDuration/v2_depth_duration_MTurk/v2_DepthDuration_HTML.html#430,430,1366,625,1366,768,9-3-2022,13-36-42,68,depth_duration_stimuli/000191_2014-05-12_17-07-38_260595134347_rgbf000199-resize_0/000191_2014-05-12_17-07-38_260595134347_rgbf000199-resize_0-target.png,250,3.7995,1,2429,249,meters,jsons/v1_VE250_randls_17.json,588460,903304,35,Woman
68,340061,DepthScenes,duration_manipulation_targetAtFixation,jsons/v1_VE250_randls_17.json,http://54.235.29.9/FacialAge/BNav_EC2/DepthDuration/v2_depth_duration_MTurk/v2_DepthDuration_HTML.html#430,430,1366,625,1366,768,9-3-2022,13-36-42,69,depth_duration_stimuli/000758_2014-06-08_22-05-08_260595134347_rgbf000085-resize_0/000758_2014-06-08_22-05-08_260595134347_rgbf000085-resize_0-target.png,250,3.3810000000000002,2,2234,250,meters,jsons/v1_VE250_randls_17.json,588460,903304,35,Woman
69,340061,DepthScenes,duration_manipulation_targetAtFixation,jsons/v1_VE250_randls_17.json,http://54.235.29.9/FacialAge/BNav_EC2/DepthDuration/v2_depth_duration_MTurk/v2_DepthDuration_HTML.html#430,430,1366,625,1366,768,9-3-2022,13-36-42,70,depth_duration_stimuli/000854_2014-06-09_19-43-13_260595134347_rgbf000066-resize_0/000854_2014-06-09_19-43-13_260595134347_rgbf000066-resize_0-target.png,250,3.068,1,2074,251,meters,jsons/v1_VE250_randls_17.json,588460,903304,35,Woman
70,340061,DepthScenes,duration_manipulation_targetAtFixation,jsons/v1_VE250_randls_17.json,http://54.235.29.9/FacialAge/BNav_EC2/DepthDuration/v2_depth_duration_MTurk/v2_DepthDuration_HTML.html#430,430,1366,625,1366,768,9-3-2022,13-36-42,71,depth_duration_stimuli/001092_2014-06-15_17-34-58_260595134347_rgbf000171-resize_3/001092_2014-06-15_17-34-58_260595134347_rgbf000171-resize_3-target.png,250,2.6935,2,2478,249,meters,jsons/v1_VE250_randls_17.json,588460,903304,35,Woman
71,340061,DepthScenes,duration_manipulation_targetAtFixation,jsons/v1_VE250_randls_17.json,http://54.235.29.9/FacialAge/BNav_EC2/DepthDuration/v2_depth_duration_MTurk/v2_DepthDuration_HTML.html#430,430,1366,625,1366,768,9-3-2022,13-36-42,72,depth_duration_stimuli/002545_2014-06-24_13-38-53_094959634447_rgbf000080-resize_4/002545_2014-06-24_13-38-53_094959634447_rgbf000080-resize_4-target.png,250,1.9205,1,2660,255,meters,jsons/v1_VE250_randls_17.json,588460,903304,35,Woman
72,340061,DepthScenes,duration_manipulation_targetAtFixation,jsons/v1_VE250_randls_17.json,http://54.235.29.9/FacialAge/BNav_EC2/DepthDuration/v2_depth_duration_MTurk/v2_DepthDuration_HTML.html#430,430,1366,625,1366,768,9-3-2022,13-36-42,73,depth_duration_stimuli/002784_2014-06-22_19-26-30_094959634447_rgbf000083-resize_3/002784_2014-06-22_19-26-30_094959634447_rgbf000083-resize_3-target.png,250,1.8046666666667,1,2262,250,meters,jsons/v1_VE250_randls_17.json,588460,903304,35,Woman
73,340061,DepthScenes,duration_manipulation_targetAtFixation,jsons/v1_VE250_randls_17.json,http://54.235.29.9/FacialAge/BNav_EC2/DepthDuration/v2_depth_duration_MTurk/v2_DepthDuration_HTML.html#430,430,1366,625,1366,768,9-3-2022,13-36-42,74,depth_duration_stimuli/001100_2014-06-15_17-46-26_260595134347_rgbf000225-resize_2/001100_2014-06-15_17-46-26_260595134347_rgbf000225-resize_2-target.png,250,2.24,2,2509,250,meters,jsons/v1_VE250_randls_17.json,588460,903304,35,Woman
74,340061,DepthScenes,duration_manipulation_targetAtFixation,jsons/v1_VE250_randls_17.json,http://54.235.29.9/FacialAge/BNav_EC2/DepthDuration/v2_depth_duration_MTurk/v2_DepthDuration_HTML.html#430,430,1366,625,1366,768,9-3-2022,13-36-42,75,depth_duration_stimuli/000682_2014-06-08_23-14-58_260595134347_rgbf000041-resize_5/000682_2014-06-08_23-14-58_260595134347_rgbf000041-resize_5-target.png,250,2.7239999999999998,1,2087,249,meters,jsons/v1_VE250_randls_17.json,588460,903304,35,Woman
75,340061,DepthScenes,duration_manipulation_targetAtFixation,jsons/v1_VE250_randls_17.json,http://54.235.29.9/FacialAge/BNav_EC2/DepthDuration/v2_depth_duration_MTurk/v2_DepthDuration_HTML.html#430,430,1366,625,1366,768,9-3-2022,13-36-42,76,depth_duration_stimuli/001650_2014-06-20_12-09-00_260595134347_rgbf000087-resize_3/001650_2014-06-20_12-09-00_260595134347_rgbf000087-resize_3-target.png,250,1.9505,2,2209,251,meters,jsons/v1_VE250_randls_17.json,588460,903304,35,Woman
76,340061,DepthScenes,duration_manipulation_targetAtFixation,jsons/v1_VE250_randls_17.json,http://54.235.29.9/FacialAge/BNav_EC2/DepthDuration/v2_depth_duration_MTurk/v2_DepthDuration_HTML.html#430,430,1366,625,1366,768,9-3-2022,13-36-42,77,depth_duration_stimuli/001055_2014-06-08_18-45-35_260595134347_rgbf000111-resize_4/001055_2014-06-08_18-45-35_260595134347_rgbf000111-resize_4-target.png,250,2.4290000000000003,1,2439,251,meters,jsons/v1_VE250_randls_17.json,588460,903304,35,Woman
77,340061,DepthScenes,duration_manipulation_targetAtFixation,jsons/v1_VE250_randls_17.json,http://54.235.29.9/FacialAge/BNav_EC2/DepthDuration/v2_depth_duration_MTurk/v2_DepthDuration_HTML.html#430,430,1366,625,1366,768,9-3-2022,13-36-42,78,depth_duration_stimuli/000549_2014-06-08_22-10-24_260595134347_rgbf000247-resize_3/000549_2014-06-08_22-10-24_260595134347_rgbf000247-resize_3-target.png,250,1.841,2,2459,250,meters,jsons/v1_VE250_randls_17.json,588460,903304,35,Woman
78,340061,DepthScenes,duration_manipulation_targetAtFixation,jsons/v1_VE250_randls_17.json,http://54.235.29.9/FacialAge/BNav_EC2/DepthDuration/v2_depth_duration_MTurk/v2_DepthDuration_HTML.html#430,430,1366,625,1366,768,9-3-2022,13-36-42,79,depth_duration_stimuli/000522_2014-06-08_13-35-06_260595134347_rgbf000244-resize_1/000522_2014-06-08_13-35-06_260595134347_rgbf000244-resize_1-target.png,250,2.3715,3,2359,250,meters,jsons/v1_VE250_randls_17.json,588460,903304,35,Woman
79,340061,DepthScenes,duration_manipulation_targetAtFixation,jsons/v1_VE250_randls_17.json,http://54.235.29.9/FacialAge/BNav_EC2/DepthDuration/v2_depth_duration_MTurk/v2_DepthDuration_HTML.html#430,430,1366,625,1366,768,9-3-2022,13-36-42,80,depth_duration_stimuli/002949_2014-06-26_15-57-42_094959634447_rgbf000079-resize_1/002949_2014-06-26_15-57-42_094959634447_rgbf000079-resize_1-target.png,250,1.8915,2,1986,250,meters,jsons/v1_VE250_randls_17.json,588460,903304,35,Woman
80,340061,DepthScenes,duration_manipulation_targetAtFixation,jsons/v1_VE250_randls_17.json,http://54.235.29.9/FacialAge/BNav_EC2/DepthDuration/v2_depth_duration_MTurk/v2_DepthDuration_HTML.html#430,430,1366,625,1366,768,9-3-2022,13-36-42,81,depth_duration_stimuli/001066_2014-06-08_22-03-20_260595134347_rgbf000066-resize_4/001066_2014-06-08_22-03-20_260595134347_rgbf000066-resize_4-target.png,250,4.2330000000000005,4,2920,250,meters,jsons/v1_VE250_randls_17.json,588460,903304,35,Woman
81,340061,DepthScenes,duration_manipulation_targetAtFixation,jsons/v1_VE250_randls_17.json,http://54.235.29.9/FacialAge/BNav_EC2/DepthDuration/v2_depth_duration_MTurk/v2_DepthDuration_HTML.html#430,430,1366,625,1366,768,9-3-2022,13-36-42,82,depth_duration_stimuli/000742_2014-06-08_18-48-09_260595134347_rgbf000164-resize_4/000742_2014-06-08_18-48-09_260595134347_rgbf000164-resize_4-target.png,250,4.632,6,2572,250,meters,jsons/v1_VE250_randls_17.json,588460,903304,35,Woman
82,340061,DepthScenes,duration_manipulation_targetAtFixation,jsons/v1_VE250_randls_17.json,http://54.235.29.9/FacialAge/BNav_EC2/DepthDuration/v2_depth_duration_MTurk/v2_DepthDuration_HTML.html#430,430,1366,625,1366,768,9-3-2022,13-36-42,83,depth_duration_stimuli/000368_2014-06-09_15-53-01_260595134347_rgbf000155-resize_2/000368_2014-06-09_15-53-01_260595134347_rgbf000155-resize_2-target.png,250,2.4859999999999998,2,2633,249,meters,jsons/v1_VE250_randls_17.json,588460,903304,35,Woman
83,340061,DepthScenes,duration_manipulation_targetAtFixation,jsons/v1_VE250_randls_17.json,http://54.235.29.9/FacialAge/BNav_EC2/DepthDuration/v2_depth_duration_MTurk/v2_DepthDuration_HTML.html#430,430,1366,625,1366,768,9-3-2022,13-36-42,84,depth_duration_stimuli/002678_2014-06-13_16-15-32_094959634447_rgbf000151-resize_6/002678_2014-06-13_16-15-32_094959634447_rgbf000151-resize_6-target.png,250,2.1830000000000003,3,2412,249,meters,jsons/v1_VE250_randls_17.json,588460,903304,35,Woman
84,340061,DepthScenes,duration_manipulation_targetAtFixation,jsons/v1_VE250_randls_17.json,http://54.235.29.9/FacialAge/BNav_EC2/DepthDuration/v2_depth_duration_MTurk/v2_DepthDuration_HTML.html#430,430,1366,625,1366,768,9-3-2022,13-36-42,85,depth_duration_stimuli/002788_2014-06-22_19-36-03_094959634447_rgbf000088-resize_2/002788_2014-06-22_19-36-03_094959634447_rgbf000088-resize_2-target.png,250,1.6465,2,2363,251,meters,jsons/v1_VE250_randls_17.json,588460,903304,35,Woman
85,340061,DepthScenes,duration_manipulation_targetAtFixation,jsons/v1_VE250_randls_17.json,http://54.235.29.9/FacialAge/BNav_EC2/DepthDuration/v2_depth_duration_MTurk/v2_DepthDuration_HTML.html#430,430,1366,625,1366,768,9-3-2022,13-36-42,86,depth_duration_stimuli/000749_2014-06-08_21-55-06_260595134347_rgbf000070-resize_2/000749_2014-06-08_21-55-06_260595134347_rgbf000070-resize_2-target.png,250,2.331,2,2337,251,meters,jsons/v1_VE250_randls_17.json,588460,903304,35,Woman
86,340061,DepthScenes,duration_manipulation_targetAtFixation,jsons/v1_VE250_randls_17.json,http://54.235.29.9/FacialAge/BNav_EC2/DepthDuration/v2_depth_duration_MTurk/v2_DepthDuration_HTML.html#430,430,1366,625,1366,768,9-3-2022,13-36-42,87,depth_duration_stimuli/000917_2014-06-09_22-45-29_260595134347_rgbf000149-resize_3/000917_2014-06-09_22-45-29_260595134347_rgbf000149-resize_3-target.png,250,4.1865,2,2580,250,meters,jsons/v1_VE250_randls_17.json,588460,903304,35,Woman
87,340061,DepthScenes,duration_manipulation_targetAtFixation,jsons/v1_VE250_randls_17.json,http://54.235.29.9/FacialAge/BNav_EC2/DepthDuration/v2_depth_duration_MTurk/v2_DepthDuration_HTML.html#430,430,1366,625,1366,768,9-3-2022,13-36-42,88,depth_duration_stimuli/002323_2014-06-28_20-01-54_260595134347_rgbf000051-resize_4/002323_2014-06-28_20-01-54_260595134347_rgbf000051-resize_4-target.png,250,3.7310000000000003,1,2268,250,meters,jsons/v1_VE250_randls_17.json,588460,903304,35,Woman
88,340061,DepthScenes,duration_manipulation_targetAtFixation,jsons/v1_VE250_randls_17.json,http://54.235.29.9/FacialAge/BNav_EC2/DepthDuration/v2_depth_duration_MTurk/v2_DepthDuration_HTML.html#430,430,1366,625,1366,768,9-3-2022,13-36-42,89,depth_duration_stimuli/001449_2014-06-19_17-01-27_260595134347_rgbf000116-resize_2/001449_2014-06-19_17-01-27_260595134347_rgbf000116-resize_2-target.png,250,3.452,6,2684,251,meters,jsons/v1_VE250_randls_17.json,588460,903304,35,Woman
89,340061,DepthScenes,duration_manipulation_targetAtFixation,jsons/v1_VE250_randls_17.json,http://54.235.29.9/FacialAge/BNav_EC2/DepthDuration/v2_depth_duration_MTurk/v2_DepthDuration_HTML.html#430,430,1366,625,1366,768,9-3-2022,13-36-42,90,depth_duration_stimuli/001450_2014-06-19_17-02-03_260595134347_rgbf000203-resize_4/001450_2014-06-19_17-02-03_260595134347_rgbf000203-resize_4-target.png,250,4.0106666666667,4,8123,249,meters,jsons/v1_VE250_randls_17.json,588460,903304,35,Woman
90,340061,DepthScenes,duration_manipulation_targetAtFixation,jsons/v1_VE250_randls_17.json,http://54.235.29.9/FacialAge/BNav_EC2/DepthDuration/v2_depth_duration_MTurk/v2_DepthDuration_HTML.html#430,430,1366,625,1366,768,9-3-2022,13-36-42,91,depth_duration_stimuli/001016_2014-06-09_16-16-10_260595134347_rgbf000112-resize_5/001016_2014-06-09_16-16-10_260595134347_rgbf000112-resize_5-target.png,250,1.6565,3,40409,249,meters,jsons/v1_VE250_randls_17.json,588460,903304,35,Woman
91,340061,DepthScenes,duration_manipulation_targetAtFixation,jsons/v1_VE250_randls_17.json,http://54.235.29.9/FacialAge/BNav_EC2/DepthDuration/v2_depth_duration_MTurk/v2_DepthDuration_HTML.html#430,430,1366,625,1366,768,9-3-2022,13-36-42,92,depth_duration_stimuli/002340_2014-06-28_20-05-46_260595134347_rgbf000113-resize_0/002340_2014-06-28_20-05-46_260595134347_rgbf000113-resize_0-target.png,250,2.4735,2,2316,249,meters,jsons/v1_VE250_randls_17.json,588460,903304,35,Woman
92,340061,DepthScenes,duration_manipulation_targetAtFixation,jsons/v1_VE250_randls_17.json,http://54.235.29.9/FacialAge/BNav_EC2/DepthDuration/v2_depth_duration_MTurk/v2_DepthDuration_HTML.html#430,430,1366,625,1366,768,9-3-2022,13-36-42,93,depth_duration_stimuli/002630_2014-06-24_14-47-50_094959634447_rgbf000055-resize_1/002630_2014-06-24_14-47-50_094959634447_rgbf000055-resize_1-target.png,250,3.0095,7,3145,243,meters,jsons/v1_VE250_randls_17.json,588460,903304,35,Woman
93,340061,DepthScenes,duration_manipulation_targetAtFixation,jsons/v1_VE250_randls_17.json,http://54.235.29.9/FacialAge/BNav_EC2/DepthDuration/v2_depth_duration_MTurk/v2_DepthDuration_HTML.html#430,430,1366,625,1366,768,9-3-2022,13-36-42,94,depth_duration_stimuli/002758_2014-06-22_19-11-20_094959634447_rgbf000128-resize_1/002758_2014-06-22_19-11-20_094959634447_rgbf000128-resize_1-target.png,250,2.555,2,2299,250,meters,jsons/v1_VE250_randls_17.json,588460,903304,35,Woman
94,340061,DepthScenes,duration_manipulation_targetAtFixation,jsons/v1_VE250_randls_17.json,http://54.235.29.9/FacialAge/BNav_EC2/DepthDuration/v2_depth_duration_MTurk/v2_DepthDuration_HTML.html#430,430,1366,625,1366,768,9-3-2022,13-36-42,95,depth_duration_stimuli/002725_2014-06-22_11-47-51_094959634447_rgbf000070-resize_1/002725_2014-06-22_11-47-51_094959634447_rgbf000070-resize_1-target.png,250,2.195,1,2408,249,meters,jsons/v1_VE250_randls_17.json,588460,903304,35,Woman
95,340061,DepthScenes,duration_manipulation_targetAtFixation,jsons/v1_VE250_randls_17.json,http://54.235.29.9/FacialAge/BNav_EC2/DepthDuration/v2_depth_duration_MTurk/v2_DepthDuration_HTML.html#430,430,1366,625,1366,768,9-3-2022,13-36-42,96,depth_duration_stimuli/002344_2014-06-28_20-06-29_260595134347_rgbf000030-resize_1/002344_2014-06-28_20-06-29_260595134347_rgbf000030-resize_1-target.png,250,1.5795,2,2258,249,meters,jsons/v1_VE250_randls_17.json,588460,903304,35,Woman
96,340061,DepthScenes,duration_manipulation_targetAtFixation,jsons/v1_VE250_randls_17.json,http://54.235.29.9/FacialAge/BNav_EC2/DepthDuration/v2_depth_duration_MTurk/v2_DepthDuration_HTML.html#430,430,1366,625,1366,768,9-3-2022,13-36-42,97,depth_duration_stimuli/001110_2014-06-15_17-25-28_260595134347_rgbf000150-resize_1/001110_2014-06-15_17-25-28_260595134347_rgbf000150-resize_1-target.png,250,1.7115,3,2359,249,meters,jsons/v1_VE250_randls_17.json,588460,903304,35,Woman
97,340061,DepthScenes,duration_manipulation_targetAtFixation,jsons/v1_VE250_randls_17.json,http://54.235.29.9/FacialAge/BNav_EC2/DepthDuration/v2_depth_duration_MTurk/v2_DepthDuration_HTML.html#430,430,1366,625,1366,768,9-3-2022,13-36-42,98,depth_duration_stimuli/000927_2014-06-09_16-32-30_260595134347_rgbf000123-resize_3/000927_2014-06-09_16-32-30_260595134347_rgbf000123-resize_3-target.png,250,2.6785,2,2337,250,meters,jsons/v1_VE250_randls_17.json,588460,903304,35,Woman
98,340061,DepthScenes,duration_manipulation_targetAtFixation,jsons/v1_VE250_randls_17.json,http://54.235.29.9/FacialAge/BNav_EC2/DepthDuration/v2_depth_duration_MTurk/v2_DepthDuration_HTML.html#430,430,1366,625,1366,768,9-3-2022,13-36-42,99,depth_duration_stimuli/001540_2014-06-20_17-01-05_260595134347_rgbf000086-resize_2/001540_2014-06-20_17-01-05_260595134347_rgbf000086-resize-original.jpg,250,1.459,0,3559,250,meters,jsons/v1_VE250_randls_17.json,588460,903304,35,Woman
99,340061,DepthScenes,duration_manipulation_targetAtFixation,jsons/v1_VE250_randls_17.json,http://54.235.29.9/FacialAge/BNav_EC2/DepthDuration/v2_depth_duration_MTurk/v2_DepthDuration_HTML.html#430,430,1366,625,1366,768,9-3-2022,13-36-42,100,depth_duration_stimuli/000414_2014-06-04_19-49-13_260595134347_rgbf000044-resize_0/000414_2014-06-04_19-49-13_260595134347_rgbf000044-resize_0-target.png,250,4.329,2,2741,250,meters,jsons/v1_VE250_randls_17.json,588460,903304,35,Woman
100,340061,DepthScenes,duration_manipulation_targetAtFixation,jsons/v1_VE250_randls_17.json,http://54.235.29.9/FacialAge/BNav_EC2/DepthDuration/v2_depth_duration_MTurk/v2_DepthDuration_HTML.html#430,430,1366,625,1366,768,9-3-2022,13-36-42,101,depth_duration_stimuli/003129_2014-05-12_10-48-10_094959634447_rgbf000100-resize_0/003129_2014-05-12_10-48-10_094959634447_rgbf000100-resize_0-target.png,250,4.9305,3,2030,250,meters,jsons/v1_VE250_randls_17.json,588460,903304,35,Woman
101,340061,DepthScenes,duration_manipulation_targetAtFixation,jsons/v1_VE250_randls_17.json,http://54.235.29.9/FacialAge/BNav_EC2/DepthDuration/v2_depth_duration_MTurk/v2_DepthDuration_HTML.html#430,430,1366,625,1366,768,9-3-2022,13-36-42,102,depth_duration_stimuli/002272_2014-06-28_18-53-56_260595134347_rgbf000067-resize_2/002272_2014-06-28_18-53-56_260595134347_rgbf000067-resize_2-target.png,250,1.138,2,3377,250,meters,jsons/v1_VE250_randls_17.json,588460,903304,35,Woman
102,340061,DepthScenes,duration_manipulation_targetAtFixation,jsons/v1_VE250_randls_17.json,http://54.235.29.9/FacialAge/BNav_EC2/DepthDuration/v2_depth_duration_MTurk/v2_DepthDuration_HTML.html#430,430,1366,625,1366,768,9-3-2022,13-36-42,103,depth_duration_stimuli/001571_2014-06-20_17-21-32_260595134347_rgbf000089-resize_1/001571_2014-06-20_17-21-32_260595134347_rgbf000089-resize_1-target.png,250,1.86,2,1904,249,meters,jsons/v1_VE250_randls_17.json,588460,903304,35,Woman
103,340061,DepthScenes,duration_manipulation_targetAtFixation,jsons/v1_VE250_randls_17.json,http://54.235.29.9/FacialAge/BNav_EC2/DepthDuration/v2_depth_duration_MTurk/v2_DepthDuration_HTML.html#430,430,1366,625,1366,768,9-3-2022,13-36-42,104,depth_duration_stimuli/001175_2014-06-17_15-45-55_260595134347_rgbf000129-resize_4/001175_2014-06-17_15-45-55_260595134347_rgbf000129-resize_4-target.png,250,4.255,4,2864,248,meters,jsons/v1_VE250_randls_17.json,588460,903304,35,Woman
104,340061,DepthScenes,duration_manipulation_targetAtFixation,jsons/v1_VE250_randls_17.json,http://54.235.29.9/FacialAge/BNav_EC2/DepthDuration/v2_depth_duration_MTurk/v2_DepthDuration_HTML.html#430,430,1366,625,1366,768,9-3-2022,13-36-42,105,depth_duration_stimuli/003490_2014-05-21_15-50-11_094959634447_rgbf000101-resize_3/003490_2014-05-21_15-50-11_094959634447_rgbf000101-resize_3-target.png,250,3.6445,3,1897,249,meters,jsons/v1_VE250_randls_17.json,588460,903304,35,Woman
105,340061,DepthScenes,duration_manipulation_targetAtFixation,jsons/v1_VE250_randls_17.json,http://54.235.29.9/FacialAge/BNav_EC2/DepthDuration/v2_depth_duration_MTurk/v2_DepthDuration_HTML.html#430,430,1366,625,1366,768,9-3-2022,13-36-42,106,depth_duration_stimuli/003292_2014-05-14_21-53-49_094959634447_rgbf000100-resize_2/003292_2014-05-14_21-53-49_094959634447_rgbf000100-resize_2-target.png,250,3.4815,2,2351,250,meters,jsons/v1_VE250_randls_17.json,588460,903304,35,Woman
106,340061,DepthScenes,duration_manipulation_targetAtFixation,jsons/v1_VE250_randls_17.json,http://54.235.29.9/FacialAge/BNav_EC2/DepthDuration/v2_depth_duration_MTurk/v2_DepthDuration_HTML.html#430,430,1366,625,1366,768,9-3-2022,13-36-42,107,depth_duration_stimuli/002639_2014-06-24_14-51-37_094959634447_rgbf000074-resize_4/002639_2014-06-24_14-51-37_094959634447_rgbf000074-resize_4-target.png,250,4.0375,4,2676,249,meters,jsons/v1_VE250_randls_17.json,588460,903304,35,Woman
107,340061,DepthScenes,duration_manipulation_targetAtFixation,jsons/v1_VE250_randls_17.json,http://54.235.29.9/FacialAge/BNav_EC2/DepthDuration/v2_depth_duration_MTurk/v2_DepthDuration_HTML.html#430,430,1366,625,1366,768,9-3-2022,13-36-42,108,depth_duration_stimuli/000810_2014-06-08_17-20-01_260595134347_rgbf000105-resize_0/000810_2014-06-08_17-20-01_260595134347_rgbf000105-resize_0-target.png,250,1.4865,2,2549,250,meters,jsons/v1_VE250_randls_17.json,588460,903304,35,Woman
108,340061,DepthScenes,duration_manipulation_targetAtFixation,jsons/v1_VE250_randls_17.json,http://54.235.29.9/FacialAge/BNav_EC2/DepthDuration/v2_depth_duration_MTurk/v2_DepthDuration_HTML.html#430,430,1366,625,1366,768,9-3-2022,13-36-42,109,depth_duration_stimuli/001214_2014-06-17_16-13-55_260595134347_rgbf000111-resize_0/001214_2014-06-17_16-13-55_260595134347_rgbf000111-resize_0-target.png,250,2.6505,1,2049,250,meters,jsons/v1_VE250_randls_17.json,588460,903304,35,Woman
109,340061,DepthScenes,duration_manipulation_targetAtFixation,jsons/v1_VE250_randls_17.json,http://54.235.29.9/FacialAge/BNav_EC2/DepthDuration/v2_depth_duration_MTurk/v2_DepthDuration_HTML.html#430,430,1366,625,1366,768,9-3-2022,13-36-42,110,depth_duration_stimuli/000878_2014-06-08_22-52-45_260595134347_rgbf000045-resize_2/000878_2014-06-08_22-52-45_260595134347_rgbf000045-resize_2-target.png,250,2.092,2,2540,249,meters,jsons/v1_VE250_randls_17.json,588460,903304,35,Woman
110,340061,DepthScenes,duration_manipulation_targetAtFixation,jsons/v1_VE250_randls_17.json,http://54.235.29.9/FacialAge/BNav_EC2/DepthDuration/v2_depth_duration_MTurk/v2_DepthDuration_HTML.html#430,430,1366,625,1366,768,9-3-2022,13-36-42,111,depth_duration_stimuli/002953_2014-06-08_17-32-18_094959634447_rgbf000059-resize_5/002953_2014-06-08_17-32-18_094959634447_rgbf000059-resize_5-target.png,250,1.551,2,2027,249,meters,jsons/v1_VE250_randls_17.json,588460,903304,35,Woman
111,340061,DepthScenes,duration_manipulation_targetAtFixation,jsons/v1_VE250_randls_17.json,http://54.235.29.9/FacialAge/BNav_EC2/DepthDuration/v2_depth_duration_MTurk/v2_DepthDuration_HTML.html#430,430,1366,625,1366,768,9-3-2022,13-36-42,112,depth_duration_stimuli/001555_2014-06-20_17-12-10_260595134347_rgbf000065-resize_4/001555_2014-06-20_17-12-10_260595134347_rgbf000065-resize_4-target.png,250,1.633,1,2021,249,meters,jsons/v1_VE250_randls_17.json,588460,903304,35,Woman
112,340061,DepthScenes,duration_manipulation_targetAtFixation,jsons/v1_VE250_randls_17.json,http://54.235.29.9/FacialAge/BNav_EC2/DepthDuration/v2_depth_duration_MTurk/v2_DepthDuration_HTML.html#430,430,1366,625,1366,768,9-3-2022,13-36-42,113,depth_duration_stimuli/000103_2014-05-14_22-01-17_260595134347_rgbf000152-resize_5/000103_2014-05-14_22-01-17_260595134347_rgbf000152-resize_5-target.png,250,1.993,1,2495,248,meters,jsons/v1_VE250_randls_17.json,588460,903304,35,Woman
113,340061,DepthScenes,duration_manipulation_targetAtFixation,jsons/v1_VE250_randls_17.json,http://54.235.29.9/FacialAge/BNav_EC2/DepthDuration/v2_depth_duration_MTurk/v2_DepthDuration_HTML.html#430,430,1366,625,1366,768,9-3-2022,13-36-42,114,depth_duration_stimuli/000009_2014-05-26_14-32-05_260595134347_rgbf000034-resize_3/000009_2014-05-26_14-32-05_260595134347_rgbf000034-resize_3-target.png,250,3.8715,3,2291,250,meters,jsons/v1_VE250_randls_17.json,588460,903304,35,Woman
114,340061,DepthScenes,duration_manipulation_targetAtFixation,jsons/v1_VE250_randls_17.json,http://54.235.29.9/FacialAge/BNav_EC2/DepthDuration/v2_depth_duration_MTurk/v2_DepthDuration_HTML.html#430,430,1366,625,1366,768,9-3-2022,13-36-42,115,depth_duration_stimuli/001828_2014-06-26_21-40-03_260595134347_rgbf000024-resize_0/001828_2014-06-26_21-40-03_260595134347_rgbf000024-resize_0-target.png,250,4.8260000000000005,2,2020,250,meters,jsons/v1_VE250_randls_17.json,588460,903304,35,Woman
115,340061,DepthScenes,duration_manipulation_targetAtFixation,jsons/v1_VE250_randls_17.json,http://54.235.29.9/FacialAge/BNav_EC2/DepthDuration/v2_depth_duration_MTurk/v2_DepthDuration_HTML.html#430,430,1366,625,1366,768,9-3-2022,13-36-42,116,depth_duration_stimuli/001170_2014-06-17_15-43-44_260595134347_rgbf000096-resize_6/001170_2014-06-17_15-43-44_260595134347_rgbf000096-resize-original.jpg,250,1.1909999999999998,0,2735,249,meters,jsons/v1_VE250_randls_17.json,588460,903304,35,Woman
116,340061,DepthScenes,duration_manipulation_targetAtFixation,jsons/v1_VE250_randls_17.json,http://54.235.29.9/FacialAge/BNav_EC2/DepthDuration/v2_depth_duration_MTurk/v2_DepthDuration_HTML.html#430,430,1366,625,1366,768,9-3-2022,13-36-42,117,depth_duration_stimuli/002509_2014-06-24_13-19-22_094959634447_rgbf000077-resize_0/002509_2014-06-24_13-19-22_094959634447_rgbf000077-resize_0-target.png,250,1.3065,3,2161,249,meters,jsons/v1_VE250_randls_17.json,588460,903304,35,Woman
117,340061,DepthScenes,duration_manipulation_targetAtFixation,jsons/v1_VE250_randls_17.json,http://54.235.29.9/FacialAge/BNav_EC2/DepthDuration/v2_depth_duration_MTurk/v2_DepthDuration_HTML.html#430,430,1366,625,1366,768,9-3-2022,13-36-42,118,depth_duration_stimuli/003338_2014-05-20_11-01-23_094959634447_rgbf000051-resize_6/003338_2014-05-20_11-01-23_094959634447_rgbf000051-resize_6-target.png,250,1.693,1,2735,249,meters,jsons/v1_VE250_randls_17.json,588460,903304,35,Woman
118,340061,DepthScenes,duration_manipulation_targetAtFixation,jsons/v1_VE250_randls_17.json,http://54.235.29.9/FacialAge/BNav_EC2/DepthDuration/v2_depth_duration_MTurk/v2_DepthDuration_HTML.html#430,430,1366,625,1366,768,9-3-2022,13-36-42,119,depth_duration_stimuli/000736_2014-06-08_18-24-15_260595134347_rgbf000206-resize_3/000736_2014-06-08_18-24-15_260595134347_rgbf000206-resize_3-target.png,250,3.515,2,1972,252,meters,jsons/v1_VE250_randls_17.json,588460,903304,35,Woman
119,340061,DepthScenes,duration_manipulation_targetAtFixation,jsons/v1_VE250_randls_17.json,http://54.235.29.9/FacialAge/BNav_EC2/DepthDuration/v2_depth_duration_MTurk/v2_DepthDuration_HTML.html#430,430,1366,625,1366,768,9-3-2022,13-36-42,120,depth_duration_stimuli/000137_2014-05-20_17-04-49_260595134347_rgbf000120-resize_1/000137_2014-05-20_17-04-49_260595134347_rgbf000120-resize_1-target.png,250,3.786,4,2997,250,meters,jsons/v1_VE250_randls_17.json,588460,903304,35,Woman
120,340061,DepthScenes,duration_manipulation_targetAtFixation,jsons/v1_VE250_randls_17.json,http://54.235.29.9/FacialAge/BNav_EC2/DepthDuration/v2_depth_duration_MTurk/v2_DepthDuration_HTML.html#430,430,1366,625,1366,768,9-3-2022,13-36-42,121,depth_duration_stimuli/000692_2014-06-08_13-09-42_260595134347_rgbf000199-resize_2/000692_2014-06-08_13-09-42_260595134347_rgbf000199-resize_2-target.png,250,3.661,5,3057,249,meters,jsons/v1_VE250_randls_17.json,588460,903304,35,Woman
121,340061,DepthScenes,duration_manipulation_targetAtFixation,jsons/v1_VE250_randls_17.json,http://54.235.29.9/FacialAge/BNav_EC2/DepthDuration/v2_depth_duration_MTurk/v2_DepthDuration_HTML.html#430,430,1366,625,1366,768,9-3-2022,13-36-42,122,depth_duration_stimuli/001094_2014-06-15_17-36-00_260595134347_rgbf000205-resize_0/001094_2014-06-15_17-36-00_260595134347_rgbf000205-resize_0-target.png,250,4.2175,4,11329,249,meters,jsons/v1_VE250_randls_17.json,588460,903304,35,Woman
122,340061,DepthScenes,duration_manipulation_targetAtFixation,jsons/v1_VE250_randls_17.json,http://54.235.29.9/FacialAge/BNav_EC2/DepthDuration/v2_depth_duration_MTurk/v2_DepthDuration_HTML.html#430,430,1366,625,1366,768,9-3-2022,13-36-42,123,depth_duration_stimuli/000642_2014-06-08_16-59-25_260595134347_rgbf000098-resize_2/000642_2014-06-08_16-59-25_260595134347_rgbf000098-resize_2-target.png,250,2.8815,3,2437,250,meters,jsons/v1_VE250_randls_17.json,588460,903304,35,Woman
123,340061,DepthScenes,duration_manipulation_targetAtFixation,jsons/v1_VE250_randls_17.json,http://54.235.29.9/FacialAge/BNav_EC2/DepthDuration/v2_depth_duration_MTurk/v2_DepthDuration_HTML.html#430,430,1366,625,1366,768,9-3-2022,13-36-42,124,depth_duration_stimuli/002425_2014-06-28_20-27-29_260595134347_rgbf000031-resize_8/002425_2014-06-28_20-27-29_260595134347_rgbf000031-resize_8-target.png,250,3.8960000000000004,3,2039,251,meters,jsons/v1_VE250_randls_17.json,588460,903304,35,Woman
124,340061,DepthScenes,duration_manipulation_targetAtFixation,jsons/v1_VE250_randls_17.json,http://54.235.29.9/FacialAge/BNav_EC2/DepthDuration/v2_depth_duration_MTurk/v2_DepthDuration_HTML.html#430,430,1366,625,1366,768,9-3-2022,13-36-42,125,depth_duration_stimuli/001244_2014-06-17_16-47-45_260595134347_rgbf000030-resize_4/001244_2014-06-17_16-47-45_260595134347_rgbf000030-resize_4-target.png,250,2.0425,6,3245,249,meters,jsons/v1_VE250_randls_17.json,588460,903304,35,Woman
125,340061,DepthScenes,duration_manipulation_targetAtFixation,jsons/v1_VE250_randls_17.json,http://54.235.29.9/FacialAge/BNav_EC2/DepthDuration/v2_depth_duration_MTurk/v2_DepthDuration_HTML.html#430,430,1366,625,1366,768,9-3-2022,13-36-42,126,depth_duration_stimuli/003495_2014-05-21_16-01-51_094959634447_rgbf000100-resize_3/003495_2014-05-21_16-01-51_094959634447_rgbf000100-resize_3-target.png,250,1.6255,2,2371,250,meters,jsons/v1_VE250_randls_17.json,588460,903304,35,Woman
126,340061,DepthScenes,duration_manipulation_targetAtFixation,jsons/v1_VE250_randls_17.json,http://54.235.29.9/FacialAge/BNav_EC2/DepthDuration/v2_depth_duration_MTurk/v2_DepthDuration_HTML.html#430,430,1366,625,1366,768,9-3-2022,13-36-42,127,depth_duration_stimuli/002570_2014-06-24_13-59-54_094959634447_rgbf000059-resize_0/002570_2014-06-24_13-59-54_094959634447_rgbf000059-resize_0-target.png,250,4.037,1,2258,250,meters,jsons/v1_VE250_randls_17.json,588460,903304,35,Woman
127,340061,DepthScenes,duration_manipulation_targetAtFixation,jsons/v1_VE250_randls_17.json,http://54.235.29.9/FacialAge/BNav_EC2/DepthDuration/v2_depth_duration_MTurk/v2_DepthDuration_HTML.html#430,430,1366,625,1366,768,9-3-2022,13-36-42,128,depth_duration_stimuli/002467_2014-06-28_20-38-07_260595134347_rgbf000026-resize_2/002467_2014-06-28_20-38-07_260595134347_rgbf000026-resize_2-target.png,250,4.742,1,2624,251,meters,jsons/v1_VE250_randls_17.json,588460,903304,35,Woman
128,340061,DepthScenes,duration_manipulation_targetAtFixation,jsons/v1_VE250_randls_17.json,http://54.235.29.9/FacialAge/BNav_EC2/DepthDuration/v2_depth_duration_MTurk/v2_DepthDuration_HTML.html#430,430,1366,625,1366,768,9-3-2022,13-36-42,129,depth_duration_stimuli/000929_2014-06-09_16-33-19_260595134347_rgbf000139-resize_0/000929_2014-06-09_16-33-19_260595134347_rgbf000139-resize_0-target.png,250,2.8680000000000003,2,2089,249,meters,jsons/v1_VE250_randls_17.json,588460,903304,35,Woman
129,340061,DepthScenes,duration_manipulation_targetAtFixation,jsons/v1_VE250_randls_17.json,http://54.235.29.9/FacialAge/BNav_EC2/DepthDuration/v2_depth_duration_MTurk/v2_DepthDuration_HTML.html#430,430,1366,625,1366,768,9-3-2022,13-36-42,130,depth_duration_stimuli/000457_2014-06-08_16-52-43_260595134347_rgbf000199-resize_1/000457_2014-06-08_16-52-43_260595134347_rgbf000199-resize_1-target.png,250,3.6489999999999996,1,2811,251,meters,jsons/v1_VE250_randls_17.json,588460,903304,35,Woman
130,340061,DepthScenes,duration_manipulation_targetAtFixation,jsons/v1_VE250_randls_17.json,http://54.235.29.9/FacialAge/BNav_EC2/DepthDuration/v2_depth_duration_MTurk/v2_DepthDuration_HTML.html#430,430,1366,625,1366,768,9-3-2022,13-36-42,131,depth_duration_stimuli/001570_2014-06-20_17-21-09_260595134347_rgbf000135-resize_4/001570_2014-06-20_17-21-09_260595134347_rgbf000135-resize_4-target.png,250,4.467,3,2168,251,meters,jsons/v1_VE250_randls_17.json,588460,903304,35,Woman
131,340061,DepthScenes,duration_manipulation_targetAtFixation,jsons/v1_VE250_randls_17.json,http://54.235.29.9/FacialAge/BNav_EC2/DepthDuration/v2_depth_duration_MTurk/v2_DepthDuration_HTML.html#430,430,1366,625,1366,768,9-3-2022,13-36-42,132,depth_duration_stimuli/001392_2014-06-19_16-07-59_260595134347_rgbf000046-resize_1/001392_2014-06-19_16-07-59_260595134347_rgbf000046-resize_1-target.png,250,4.135,1,1931,249,meters,jsons/v1_VE250_randls_17.json,588460,903304,35,Woman
132,340061,DepthScenes,duration_manipulation_targetAtFixation,jsons/v1_VE250_randls_17.json,http://54.235.29.9/FacialAge/BNav_EC2/DepthDuration/v2_depth_duration_MTurk/v2_DepthDuration_HTML.html#430,430,1366,625,1366,768,9-3-2022,13-36-42,133,depth_duration_stimuli/001808_2014-06-26_20-50-58_260595134347_rgbf000029-resize_1/001808_2014-06-26_20-50-58_260595134347_rgbf000029-resize_1-target.png,250,4.249,4,2451,252,meters,jsons/v1_VE250_randls_17.json,588460,903304,35,Woman
133,340061,DepthScenes,duration_manipulation_targetAtFixation,jsons/v1_VE250_randls_17.json,http://54.235.29.9/FacialAge/BNav_EC2/DepthDuration/v2_depth_duration_MTurk/v2_DepthDuration_HTML.html#430,430,1366,625,1366,768,9-3-2022,13-36-42,134,depth_duration_stimuli/001815_2014-06-26_20-52-55_260595134347_rgbf000020-resize_0/001815_2014-06-26_20-52-55_260595134347_rgbf000020-resize_0-target.png,250,3.3865,1,2174,251,meters,jsons/v1_VE250_randls_17.json,588460,903304,35,Woman
134,340061,DepthScenes,duration_manipulation_targetAtFixation,jsons/v1_VE250_randls_17.json,http://54.235.29.9/FacialAge/BNav_EC2/DepthDuration/v2_depth_duration_MTurk/v2_DepthDuration_HTML.html#430,430,1366,625,1366,768,9-3-2022,13-36-42,135,depth_duration_stimuli/002072_2014-06-24_21-48-06_260595134347_rgbf000115-resize_0/002072_2014-06-24_21-48-06_260595134347_rgbf000115-resize-original.jpg,250,4.702,0,3218,250,meters,jsons/v1_VE250_randls_17.json,588460,903304,35,Woman
135,340061,DepthScenes,duration_manipulation_targetAtFixation,jsons/v1_VE250_randls_17.json,http://54.235.29.9/FacialAge/BNav_EC2/DepthDuration/v2_depth_duration_MTurk/v2_DepthDuration_HTML.html#430,430,1366,625,1366,768,9-3-2022,13-36-42,136,depth_duration_stimuli/002763_2014-06-22_19-13-10_094959634447_rgbf000075-resize_4/002763_2014-06-22_19-13-10_094959634447_rgbf000075-resize_4-target.png,250,1.68375,3,6519,250,meters,jsons/v1_VE250_randls_17.json,588460,903304,35,Woman
136,340061,DepthScenes,duration_manipulation_targetAtFixation,jsons/v1_VE250_randls_17.json,http://54.235.29.9/FacialAge/BNav_EC2/DepthDuration/v2_depth_duration_MTurk/v2_DepthDuration_HTML.html#430,430,1366,625,1366,768,9-3-2022,13-36-42,137,depth_duration_stimuli/002209_2014-06-28_18-36-10_260595134347_rgbf000051-resize_1/002209_2014-06-28_18-36-10_260595134347_rgbf000051-resize_1-target.png,250,2.057,1,2999,250,meters,jsons/v1_VE250_randls_17.json,588460,903304,35,Woman
137,340061,DepthScenes,duration_manipulation_targetAtFixation,jsons/v1_VE250_randls_17.json,http://54.235.29.9/FacialAge/BNav_EC2/DepthDuration/v2_depth_duration_MTurk/v2_DepthDuration_HTML.html#430,430,1366,625,1366,768,9-3-2022,13-36-42,138,depth_duration_stimuli/000447_2014-06-08_16-15-46_260595134347_rgbf000130-resize_1/000447_2014-06-08_16-15-46_260595134347_rgbf000130-resize_1-target.png,250,4.479,3,2839,250,meters,jsons/v1_VE250_randls_17.json,588460,903304,35,Woman
138,340061,DepthScenes,duration_manipulation_targetAtFixation,jsons/v1_VE250_randls_17.json,http://54.235.29.9/FacialAge/BNav_EC2/DepthDuration/v2_depth_duration_MTurk/v2_DepthDuration_HTML.html#430,430,1366,625,1366,768,9-3-2022,13-36-42,139,depth_duration_stimuli/001447_2014-06-19_17-00-32_260595134347_rgbf000082-resize_5/001447_2014-06-19_17-00-32_260595134347_rgbf000082-resize_5-target.png,250,4.13775,2,2477,250,meters,jsons/v1_VE250_randls_17.json,588460,903304,35,Woman
139,340061,DepthScenes,duration_manipulation_targetAtFixation,jsons/v1_VE250_randls_17.json,http://54.235.29.9/FacialAge/BNav_EC2/DepthDuration/v2_depth_duration_MTurk/v2_DepthDuration_HTML.html#430,430,1366,625,1366,768,9-3-2022,13-36-42,140,depth_duration_stimuli/002279_2014-06-28_18-55-32_260595134347_rgbf000040-resize_5/002279_2014-06-28_18-55-32_260595134347_rgbf000040-resize_5-target.png,250,1.5043333333333,1,2068,249,meters,jsons/v1_VE250_randls_17.json,588460,903304,35,Woman
140,340061,DepthScenes,duration_manipulation_targetAtFixation,jsons/v1_VE250_randls_17.json,http://54.235.29.9/FacialAge/BNav_EC2/DepthDuration/v2_depth_duration_MTurk/v2_DepthDuration_HTML.html#430,430,1366,625,1366,768,9-3-2022,13-36-42,141,depth_duration_stimuli/000635_2014-06-08_16-38-42_260595134347_rgbf000106-resize_1/000635_2014-06-08_16-38-42_260595134347_rgbf000106-resize_1-target.png,250,2.074,4,2329,250,meters,jsons/v1_VE250_randls_17.json,588460,903304,35,Woman
141,340061,DepthScenes,duration_manipulation_targetAtFixation,jsons/v1_VE250_randls_17.json,http://54.235.29.9/FacialAge/BNav_EC2/DepthDuration/v2_depth_duration_MTurk/v2_DepthDuration_HTML.html#430,430,1366,625,1366,768,9-3-2022,13-36-42,142,depth_duration_stimuli/000469_2014-06-09_19-42-10_260595134347_rgbf000081-resize_1/000469_2014-06-09_19-42-10_260595134347_rgbf000081-resize_1-target.png,250,1.652,2,2106,250,meters,jsons/v1_VE250_randls_17.json,588460,903304,35,Woman
142,340061,DepthScenes,duration_manipulation_targetAtFixation,jsons/v1_VE250_randls_17.json,http://54.235.29.9/FacialAge/BNav_EC2/DepthDuration/v2_depth_duration_MTurk/v2_DepthDuration_HTML.html#430,430,1366,625,1366,768,9-3-2022,13-36-42,143,depth_duration_stimuli/000483_2014-06-09_20-41-45_260595134347_rgbf000116-resize_4/000483_2014-06-09_20-41-45_260595134347_rgbf000116-resize_4-target.png,250,1.337,2,2551,250,meters,jsons/v1_VE250_randls_17.json,588460,903304,35,Woman
143,340061,DepthScenes,duration_manipulation_targetAtFixation,jsons/v1_VE250_randls_17.json,http://54.235.29.9/FacialAge/BNav_EC2/DepthDuration/v2_depth_duration_MTurk/v2_DepthDuration_HTML.html#430,430,1366,625,1366,768,9-3-2022,13-36-42,144,depth_duration_stimuli/000773_2014-06-08_22-24-54_260595134347_rgbf000093-resize_1/000773_2014-06-08_22-24-54_260595134347_rgbf000093-resize_1-target.png,250,4.973,1,2405,249,meters,jsons/v1_VE250_randls_17.json,588460,903304,35,Woman
144,340061,DepthScenes,duration_manipulation_targetAtFixation,jsons/v1_VE250_randls_17.json,http://54.235.29.9/FacialAge/BNav_EC2/DepthDuration/v2_depth_duration_MTurk/v2_DepthDuration_HTML.html#430,430,1366,625,1366,768,9-3-2022,13-36-42,145,depth_duration_stimuli/002414_2014-06-28_20-24-58_260595134347_rgbf000067-resize_4/002414_2014-06-28_20-24-58_260595134347_rgbf000067-resize_4-target.png,250,4.363,2,3021,250,meters,jsons/v1_VE250_randls_17.json,588460,903304,35,Woman
145,340061,DepthScenes,duration_manipulation_targetAtFixation,jsons/v1_VE250_randls_17.json,http://54.235.29.9/FacialAge/BNav_EC2/DepthDuration/v2_depth_duration_MTurk/v2_DepthDuration_HTML.html#430,430,1366,625,1366,768,9-3-2022,13-36-42,146,depth_duration_stimuli/001498_2014-06-19_17-45-14_260595134347_rgbf000129-resize_4/001498_2014-06-19_17-45-14_260595134347_rgbf000129-resize-original.jpg,250,1.4075,0,3149,250,meters,jsons/v1_VE250_randls_17.json,588460,903304,35,Woman
146,340061,DepthScenes,duration_manipulation_targetAtFixation,jsons/v1_VE250_randls_17.json,http://54.235.29.9/FacialAge/BNav_EC2/DepthDuration/v2_depth_duration_MTurk/v2_DepthDuration_HTML.html#430,430,1366,625,1366,768,9-3-2022,13-36-42,147,depth_duration_stimuli/001810_2014-06-26_20-51-35_260595134347_rgbf000040-resize_3/001810_2014-06-26_20-51-35_260595134347_rgbf000040-resize_3-target.png,250,2.2525,3,2722,250,meters,jsons/v1_VE250_randls_17.json,588460,903304,35,Woman
147,340061,DepthScenes,duration_manipulation_targetAtFixation,jsons/v1_VE250_randls_17.json,http://54.235.29.9/FacialAge/BNav_EC2/DepthDuration/v2_depth_duration_MTurk/v2_DepthDuration_HTML.html#430,430,1366,625,1366,768,9-3-2022,13-36-42,148,depth_duration_stimuli/003010_2014-06-15_12-54-35_094959634447_rgbf000112-resize_0/003010_2014-06-15_12-54-35_094959634447_rgbf000112-resize_0-target.png,250,3.1185,2,2056,249,meters,jsons/v1_VE250_randls_17.json,588460,903304,35,Woman
148,340061,DepthScenes,duration_manipulation_targetAtFixation,jsons/v1_VE250_randls_17.json,http://54.235.29.9/FacialAge/BNav_EC2/DepthDuration/v2_depth_duration_MTurk/v2_DepthDuration_HTML.html#430,430,1366,625,1366,768,9-3-2022,13-36-42,149,depth_duration_stimuli/000436_2014-06-09_22-25-11_260595134347_rgbf000137-resize_1/000436_2014-06-09_22-25-11_260595134347_rgbf000137-resize_1-target.png,250,4.0705,3,2267,249,meters,jsons/v1_VE250_randls_17.json,588460,903304,35,Woman
149,340061,DepthScenes,duration_manipulation_targetAtFixation,jsons/v1_VE250_randls_17.json,http://54.235.29.9/FacialAge/BNav_EC2/DepthDuration/v2_depth_duration_MTurk/v2_DepthDuration_HTML.html#430,430,1366,625,1366,768,9-3-2022,13-36-42,150,depth_duration_stimuli/002444_2014-06-28_20-32-08_260595134347_rgbf000027-resize_0/002444_2014-06-28_20-32-08_260595134347_rgbf000027-resize_0-target.png,250,4.388999999999999,1,2279,249,meters,jsons/v1_VE250_randls_17.json,588460,903304,35,Woman
150,340061,DepthScenes,duration_manipulation_targetAtFixation,jsons/v1_VE250_randls_17.json,http://54.235.29.9/FacialAge/BNav_EC2/DepthDuration/v2_depth_duration_MTurk/v2_DepthDuration_HTML.html#430,430,1366,625,1366,768,9-3-2022,13-36-42,151,depth_duration_stimuli/002213_2014-06-28_18-37-58_260595134347_rgbf000055-resize_1/002213_2014-06-28_18-37-58_260595134347_rgbf000055-resize_1-target.png,250,3.62,4,2059,248,meters,jsons/v1_VE250_randls_17.json,588460,903304,35,Woman
151,340061,DepthScenes,duration_manipulation_targetAtFixation,jsons/v1_VE250_randls_17.json,http://54.235.29.9/FacialAge/BNav_EC2/DepthDuration/v2_depth_duration_MTurk/v2_DepthDuration_HTML.html#430,430,1366,625,1366,768,9-3-2022,13-36-42,152,depth_duration_stimuli/000691_2014-06-08_13-08-50_260595134347_rgbf000132-resize_3/000691_2014-06-08_13-08-50_260595134347_rgbf000132-resize_3-target.png,250,4.1530000000000005,2,1979,249,meters,jsons/v1_VE250_randls_17.json,588460,903304,35,Woman
152,340061,DepthScenes,duration_manipulation_targetAtFixation,jsons/v1_VE250_randls_17.json,http://54.235.29.9/FacialAge/BNav_EC2/DepthDuration/v2_depth_duration_MTurk/v2_DepthDuration_HTML.html#430,430,1366,625,1366,768,9-3-2022,13-36-42,153,depth_duration_stimuli/001417_2014-06-19_16-25-36_260595134347_rgbf000115-resize_5/001417_2014-06-19_16-25-36_260595134347_rgbf000115-resize_5-target.png,250,4.6255,5,3830,251,meters,jsons/v1_VE250_randls_17.json,588460,903304,35,Woman
153,340061,DepthScenes,duration_manipulation_targetAtFixation,jsons/v1_VE250_randls_17.json,http://54.235.29.9/FacialAge/BNav_EC2/DepthDuration/v2_depth_duration_MTurk/v2_DepthDuration_HTML.html#430,430,1366,625,1366,768,9-3-2022,13-36-42,154,depth_duration_stimuli/003081_2014-06-15_15-19-16_094959634447_rgbf000150-resize_1/003081_2014-06-15_15-19-16_094959634447_rgbf000150-resize_1-target.png,250,3.9125,2,2880,250,meters,jsons/v1_VE250_randls_17.json,588460,903304,35,Woman
154,340061,DepthScenes,duration_manipulation_targetAtFixation,jsons/v1_VE250_randls_17.json,http://54.235.29.9/FacialAge/BNav_EC2/DepthDuration/v2_depth_duration_MTurk/v2_DepthDuration_HTML.html#430,430,1366,625,1366,768,9-3-2022,13-36-42,155,depth_duration_stimuli/003492_2014-05-21_15-50-55_094959634447_rgbf000828-resize_1/003492_2014-05-21_15-50-55_094959634447_rgbf000828-resize_1-target.png,250,4.06875,1,2558,251,meters,jsons/v1_VE250_randls_17.json,588460,903304,35,Woman
155,340061,DepthScenes,duration_manipulation_targetAtFixation,jsons/v1_VE250_randls_17.json,http://54.235.29.9/FacialAge/BNav_EC2/DepthDuration/v2_depth_duration_MTurk/v2_DepthDuration_HTML.html#430,430,1366,625,1366,768,9-3-2022,13-36-42,156,depth_duration_stimuli/002568_2014-06-24_13-59-21_094959634447_rgbf000062-resize_4/002568_2014-06-24_13-59-21_094959634447_rgbf000062-resize_4-target.png,250,3.015,6,6778,250,meters,jsons/v1_VE250_randls_17.json,588460,903304,35,Woman
156,340061,DepthScenes,duration_manipulation_targetAtFixation,jsons/v1_VE250_randls_17.json,http://54.235.29.9/FacialAge/BNav_EC2/DepthDuration/v2_depth_duration_MTurk/v2_DepthDuration_HTML.html#430,430,1366,625,1366,768,9-3-2022,13-36-42,157,depth_duration_stimuli/000739_2014-06-08_18-45-58_260595134347_rgbf000068-resize_1/000739_2014-06-08_18-45-58_260595134347_rgbf000068-resize_1-target.png,250,3.534,4,3028,251,meters,jsons/v1_VE250_randls_17.json,588460,903304,35,Woman
157,340061,DepthScenes,duration_manipulation_targetAtFixation,jsons/v1_VE250_randls_17.json,http://54.235.29.9/FacialAge/BNav_EC2/DepthDuration/v2_depth_duration_MTurk/v2_DepthDuration_HTML.html#430,430,1366,625,1366,768,9-3-2022,13-36-42,158,depth_duration_stimuli/000734_2014-06-08_17-39-11_260595134347_rgbf000128-resize_2/000734_2014-06-08_17-39-11_260595134347_rgbf000128-resize_2-target.png,250,4.098,2,2543,249,meters,jsons/v1_VE250_randls_17.json,588460,903304,35,Woman
158,340061,DepthScenes,duration_manipulation_targetAtFixation,jsons/v1_VE250_randls_17.json,http://54.235.29.9/FacialAge/BNav_EC2/DepthDuration/v2_depth_duration_MTurk/v2_DepthDuration_HTML.html#430,430,1366,625,1366,768,9-3-2022,13-36-42,159,depth_duration_stimuli/003070_2014-06-15_14-58-27_094959634447_rgbf000150-resize_3/003070_2014-06-15_14-58-27_094959634447_rgbf000150-resize_3-target.png,250,2.9415,5,2352,250,meters,jsons/v1_VE250_randls_17.json,588460,903304,35,Woman
159,340061,DepthScenes,duration_manipulation_targetAtFixation,jsons/v1_VE250_randls_17.json,http://54.235.29.9/FacialAge/BNav_EC2/DepthDuration/v2_depth_duration_MTurk/v2_DepthDuration_HTML.html#430,430,1366,625,1366,768,9-3-2022,13-36-42,160,depth_duration_stimuli/000943_2014-06-09_19-31-07_260595134347_rgbf000128-resize_1/000943_2014-06-09_19-31-07_260595134347_rgbf000128-resize_1-target.png,250,1.9765,2,1908,249,meters,jsons/v1_VE250_randls_17.json,588460,903304,35,Woman
160,340061,DepthScenes,duration_manipulation_targetAtFixation,jsons/v1_VE250_randls_17.json,http://54.235.29.9/FacialAge/BNav_EC2/DepthDuration/v2_depth_duration_MTurk/v2_DepthDuration_HTML.html#430,430,1366,625,1366,768,9-3-2022,13-36-42,161,depth_duration_stimuli/002748_2014-06-22_19-07-22_094959634447_rgbf000078-resize_1/002748_2014-06-22_19-07-22_094959634447_rgbf000078-resize_1-target.png,250,4.6705,6,2778,249,meters,jsons/v1_VE250_randls_17.json,588460,903304,35,Woman
161,340061,DepthScenes,duration_manipulation_targetAtFixation,jsons/v1_VE250_randls_17.json,http://54.235.29.9/FacialAge/BNav_EC2/DepthDuration/v2_depth_duration_MTurk/v2_DepthDuration_HTML.html#430,430,1366,625,1366,768,9-3-2022,13-36-42,162,depth_duration_stimuli/002995_2014-06-15_12-31-26_094959634447_rgbf000150-resize_1/002995_2014-06-15_12-31-26_094959634447_rgbf000150-resize_1-target.png,250,3.8360000000000003,3,2098,250,meters,jsons/v1_VE250_randls_17.json,588460,903304,35,Woman
162,340061,DepthScenes,duration_manipulation_targetAtFixation,jsons/v1_VE250_randls_17.json,http://54.235.29.9/FacialAge/BNav_EC2/DepthDuration/v2_depth_duration_MTurk/v2_DepthDuration_HTML.html#430,430,1366,625,1366,768,9-3-2022,13-36-42,163,depth_duration_stimuli/001011_2014-06-08_23-18-54_260595134347_rgbf000044-resize_4/001011_2014-06-08_23-18-54_260595134347_rgbf000044-resize_4-target.png,250,2.4730000000000003,1,2250,251,meters,jsons/v1_VE250_randls_17.json,588460,903304,35,Woman
163,340061,DepthScenes,duration_manipulation_targetAtFixation,jsons/v1_VE250_randls_17.json,http://54.235.29.9/FacialAge/BNav_EC2/DepthDuration/v2_depth_duration_MTurk/v2_DepthDuration_HTML.html#430,430,1366,625,1366,768,9-3-2022,13-36-42,164,depth_duration_stimuli/002875_2014-06-01_15-19-00_094959634447_rgbf000151-resize_1/002875_2014-06-01_15-19-00_094959634447_rgbf000151-resize_1-target.png,250,1.9675,1,2038,251,meters,jsons/v1_VE250_randls_17.json,588460,903304,35,Woman
