,subjID,experimentName,versionName,sequenceName,url,selected_row,windowWidth,windowHeight,screenWidth,screenHeight,startDate,startTime,trial,stimulus,duration,actual_depth,depth_estimate,trial_RT,log_sceneDuration,unitSelection,seq_filepath,experimentTime,totalTime,age,gender
0,340864,DepthScenes,duration_manipulation_targetAtFixation,jsons/VE83_randls_57.json,http://54.235.29.9/FacialAge/BNav_EC2/DepthDuration/v2_depth_duration_MTurk/v2_DepthDuration_HTML.html#1,1,1366,619,1366,768,8-29-2023,12-54-49,1,depth_duration_stimuli/002118_2014-06-25_20-32-08_260595134347_rgbf000078-resize_1/002118_2014-06-25_20-32-08_260595134347_rgbf000078-resize_1-target.png,83,2.6460000000000004,15,4060,82,meters,jsons/VE83_randls_57.json,1525069,1882843,19,Woman
1,340864,DepthScenes,duration_manipulation_targetAtFixation,jsons/VE83_randls_57.json,http://54.235.29.9/FacialAge/BNav_EC2/DepthDuration/v2_depth_duration_MTurk/v2_DepthDuration_HTML.html#1,1,1366,619,1366,768,8-29-2023,12-54-49,2,depth_duration_stimuli/001516_2014-06-20_16-25-09_260595134347_rgbf000076-resize_2/001516_2014-06-20_16-25-09_260595134347_rgbf000076-resize_2-target.png,83,1.7445,0,3625,80,meters,jsons/VE83_randls_57.json,1525069,1882843,19,Woman
2,340864,DepthScenes,duration_manipulation_targetAtFixation,jsons/VE83_randls_57.json,http://54.235.29.9/FacialAge/BNav_EC2/DepthDuration/v2_depth_duration_MTurk/v2_DepthDuration_HTML.html#1,1,1366,619,1366,768,8-29-2023,12-54-49,3,depth_duration_stimuli/001150_2014-06-17_15-27-34_260595134347_rgbf000108-resize_2/001150_2014-06-17_15-27-34_260595134347_rgbf000108-resize_2-target.png,83,4.0325,12,3579,84,meters,jsons/VE83_randls_57.json,1525069,1882843,19,Woman
3,340864,DepthScenes,duration_manipulation_targetAtFixation,jsons/VE83_randls_57.json,http://54.235.29.9/FacialAge/BNav_EC2/DepthDuration/v2_depth_duration_MTurk/v2_DepthDuration_HTML.html#1,1,1366,619,1366,768,8-29-2023,12-54-49,4,depth_duration_stimuli/000665_2014-06-09_20-42-35_260595134347_rgbf000110-resize_1/000665_2014-06-09_20-42-35_260595134347_rgbf000110-resize_1-target.png,83,3.057,10,4390,83,meters,jsons/VE83_randls_57.json,1525069,1882843,19,Woman
4,340864,DepthScenes,duration_manipulation_targetAtFixation,jsons/VE83_randls_57.json,http://54.235.29.9/FacialAge/BNav_EC2/DepthDuration/v2_depth_duration_MTurk/v2_DepthDuration_HTML.html#1,1,1366,619,1366,768,8-29-2023,12-54-49,5,depth_duration_stimuli/000447_2014-06-08_16-15-46_260595134347_rgbf000130-resize_1/000447_2014-06-08_16-15-46_260595134347_rgbf000130-resize_1-target.png,83,4.479,10,9879,92,meters,jsons/VE83_randls_57.json,1525069,1882843,19,Woman
5,340864,DepthScenes,duration_manipulation_targetAtFixation,jsons/VE83_randls_57.json,http://54.235.29.9/FacialAge/BNav_EC2/DepthDuration/v2_depth_duration_MTurk/v2_DepthDuration_HTML.html#1,1,1366,619,1366,768,8-29-2023,12-54-49,6,depth_duration_stimuli/001447_2014-06-19_17-00-32_260595134347_rgbf000082-resize_5/001447_2014-06-19_17-00-32_260595134347_rgbf000082-resize_5-target.png,83,4.13775,20,3386,81,meters,jsons/VE83_randls_57.json,1525069,1882843,19,Woman
6,340864,DepthScenes,duration_manipulation_targetAtFixation,jsons/VE83_randls_57.json,http://54.235.29.9/FacialAge/BNav_EC2/DepthDuration/v2_depth_duration_MTurk/v2_DepthDuration_HTML.html#1,1,1366,619,1366,768,8-29-2023,12-54-49,7,depth_duration_stimuli/002763_2014-06-22_19-13-10_094959634447_rgbf000075-resize_4/002763_2014-06-22_19-13-10_094959634447_rgbf000075-resize_4-target.png,83,1.68375,25,3496,70,meters,jsons/VE83_randls_57.json,1525069,1882843,19,Woman
7,340864,DepthScenes,duration_manipulation_targetAtFixation,jsons/VE83_randls_57.json,http://54.235.29.9/FacialAge/BNav_EC2/DepthDuration/v2_depth_duration_MTurk/v2_DepthDuration_HTML.html#1,1,1366,619,1366,768,8-29-2023,12-54-49,8,depth_duration_stimuli/002209_2014-06-28_18-36-10_260595134347_rgbf000051-resize_1/002209_2014-06-28_18-36-10_260595134347_rgbf000051-resize_1-target.png,83,2.057,0,2963,83,meters,jsons/VE83_randls_57.json,1525069,1882843,19,Woman
8,340864,DepthScenes,duration_manipulation_targetAtFixation,jsons/VE83_randls_57.json,http://54.235.29.9/FacialAge/BNav_EC2/DepthDuration/v2_depth_duration_MTurk/v2_DepthDuration_HTML.html#1,1,1366,619,1366,768,8-29-2023,12-54-49,9,depth_duration_stimuli/002988_2014-06-15_12-24-20_094959634447_rgbf000150-resize_1/002988_2014-06-15_12-24-20_094959634447_rgbf000150-resize_1-target.png,83,4.7669999999999995,16,4033,69,meters,jsons/VE83_randls_57.json,1525069,1882843,19,Woman
9,340864,DepthScenes,duration_manipulation_targetAtFixation,jsons/VE83_randls_57.json,http://54.235.29.9/FacialAge/BNav_EC2/DepthDuration/v2_depth_duration_MTurk/v2_DepthDuration_HTML.html#1,1,1366,619,1366,768,8-29-2023,12-54-49,10,depth_duration_stimuli/001052_2014-06-08_18-24-54_260595134347_rgbf000130-resize_1/001052_2014-06-08_18-24-54_260595134347_rgbf000130-resize_1-target.png,83,4.1045,0,2978,81,meters,jsons/VE83_randls_57.json,1525069,1882843,19,Woman
10,340864,DepthScenes,duration_manipulation_targetAtFixation,jsons/VE83_randls_57.json,http://54.235.29.9/FacialAge/BNav_EC2/DepthDuration/v2_depth_duration_MTurk/v2_DepthDuration_HTML.html#1,1,1366,619,1366,768,8-29-2023,12-54-49,11,depth_duration_stimuli/003292_2014-05-14_21-53-49_094959634447_rgbf000100-resize_2/003292_2014-05-14_21-53-49_094959634447_rgbf000100-resize_2-target.png,83,3.4815,23,6088,88,meters,jsons/VE83_randls_57.json,1525069,1882843,19,Woman
11,340864,DepthScenes,duration_manipulation_targetAtFixation,jsons/VE83_randls_57.json,http://54.235.29.9/FacialAge/BNav_EC2/DepthDuration/v2_depth_duration_MTurk/v2_DepthDuration_HTML.html#1,1,1366,619,1366,768,8-29-2023,12-54-49,12,depth_duration_stimuli/002639_2014-06-24_14-51-37_094959634447_rgbf000074-resize_4/002639_2014-06-24_14-51-37_094959634447_rgbf000074-resize_4-target.png,83,4.0375,24,3460,80,meters,jsons/VE83_randls_57.json,1525069,1882843,19,Woman
12,340864,DepthScenes,duration_manipulation_targetAtFixation,jsons/VE83_randls_57.json,http://54.235.29.9/FacialAge/BNav_EC2/DepthDuration/v2_depth_duration_MTurk/v2_DepthDuration_HTML.html#1,1,1366,619,1366,768,8-29-2023,12-54-49,13,depth_duration_stimuli/000569_2014-06-09_22-51-47_260595134347_rgbf000141-resize_3/000569_2014-06-09_22-51-47_260595134347_rgbf000141-resize-original.jpg,83,4.512,25,6095,83,meters,jsons/VE83_randls_57.json,1525069,1882843,19,Woman
13,340864,DepthScenes,duration_manipulation_targetAtFixation,jsons/VE83_randls_57.json,http://54.235.29.9/FacialAge/BNav_EC2/DepthDuration/v2_depth_duration_MTurk/v2_DepthDuration_HTML.html#1,1,1366,619,1366,768,8-29-2023,12-54-49,14,depth_duration_stimuli/001570_2014-06-20_17-21-09_260595134347_rgbf000135-resize_4/001570_2014-06-20_17-21-09_260595134347_rgbf000135-resize_4-target.png,83,4.467,29,7323,83,meters,jsons/VE83_randls_57.json,1525069,1882843,19,Woman
14,340864,DepthScenes,duration_manipulation_targetAtFixation,jsons/VE83_randls_57.json,http://54.235.29.9/FacialAge/BNav_EC2/DepthDuration/v2_depth_duration_MTurk/v2_DepthDuration_HTML.html#1,1,1366,619,1366,768,8-29-2023,12-54-49,15,depth_duration_stimuli/001392_2014-06-19_16-07-59_260595134347_rgbf000046-resize_1/001392_2014-06-19_16-07-59_260595134347_rgbf000046-resize_1-target.png,83,4.135,43,5081,80,meters,jsons/VE83_randls_57.json,1525069,1882843,19,Woman
15,340864,DepthScenes,duration_manipulation_targetAtFixation,jsons/VE83_randls_57.json,http://54.235.29.9/FacialAge/BNav_EC2/DepthDuration/v2_depth_duration_MTurk/v2_DepthDuration_HTML.html#1,1,1366,619,1366,768,8-29-2023,12-54-49,16,depth_duration_stimuli/000506_2014-06-08_23-21-00_260595134347_rgbf000070-resize_7/000506_2014-06-08_23-21-00_260595134347_rgbf000070-resize_7-target.png,83,4.0585,28,4502,84,meters,jsons/VE83_randls_57.json,1525069,1882843,19,Woman
16,340864,DepthScenes,duration_manipulation_targetAtFixation,jsons/VE83_randls_57.json,http://54.235.29.9/FacialAge/BNav_EC2/DepthDuration/v2_depth_duration_MTurk/v2_DepthDuration_HTML.html#1,1,1366,619,1366,768,8-29-2023,12-54-49,17,depth_duration_stimuli/003079_2014-06-15_15-18-20_094959634447_rgbf000152-resize_8/003079_2014-06-15_15-18-20_094959634447_rgbf000152-resize_8-target.png,83,2.8775,30,3831,101,meters,jsons/VE83_randls_57.json,1525069,1882843,19,Woman
17,340864,DepthScenes,duration_manipulation_targetAtFixation,jsons/VE83_randls_57.json,http://54.235.29.9/FacialAge/BNav_EC2/DepthDuration/v2_depth_duration_MTurk/v2_DepthDuration_HTML.html#1,1,1366,619,1366,768,8-29-2023,12-54-49,18,depth_duration_stimuli/002784_2014-06-22_19-26-30_094959634447_rgbf000083-resize_3/002784_2014-06-22_19-26-30_094959634447_rgbf000083-resize_3-target.png,83,1.8046666666667,32,6864,85,meters,jsons/VE83_randls_57.json,1525069,1882843,19,Woman
18,340864,DepthScenes,duration_manipulation_targetAtFixation,jsons/VE83_randls_57.json,http://54.235.29.9/FacialAge/BNav_EC2/DepthDuration/v2_depth_duration_MTurk/v2_DepthDuration_HTML.html#1,1,1366,619,1366,768,8-29-2023,12-54-49,19,depth_duration_stimuli/001100_2014-06-15_17-46-26_260595134347_rgbf000225-resize_2/001100_2014-06-15_17-46-26_260595134347_rgbf000225-resize_2-target.png,83,2.24,45,4167,83,meters,jsons/VE83_randls_57.json,1525069,1882843,19,Woman
19,340864,DepthScenes,duration_manipulation_targetAtFixation,jsons/VE83_randls_57.json,http://54.235.29.9/FacialAge/BNav_EC2/DepthDuration/v2_depth_duration_MTurk/v2_DepthDuration_HTML.html#1,1,1366,619,1366,768,8-29-2023,12-54-49,20,depth_duration_stimuli/000906_2014-06-08_13-35-43_260595134347_rgbf000155-resize_1/000906_2014-06-08_13-35-43_260595134347_rgbf000155-resize_1-target.png,83,2.8489999999999998,20,3784,86,meters,jsons/VE83_randls_57.json,1525069,1882843,19,Woman
20,340864,DepthScenes,duration_manipulation_targetAtFixation,jsons/VE83_randls_57.json,http://54.235.29.9/FacialAge/BNav_EC2/DepthDuration/v2_depth_duration_MTurk/v2_DepthDuration_HTML.html#1,1,1366,619,1366,768,8-29-2023,12-54-49,21,depth_duration_stimuli/002805_2014-06-22_19-54-03_094959634447_rgbf000079-resize_1/002805_2014-06-22_19-54-03_094959634447_rgbf000079-resize_1-target.png,83,3.1439999999999997,23,5464,95,meters,jsons/VE83_randls_57.json,1525069,1882843,19,Woman
21,340864,DepthScenes,duration_manipulation_targetAtFixation,jsons/VE83_randls_57.json,http://54.235.29.9/FacialAge/BNav_EC2/DepthDuration/v2_depth_duration_MTurk/v2_DepthDuration_HTML.html#1,1,1366,619,1366,768,8-29-2023,12-54-49,22,depth_duration_stimuli/001806_2014-06-26_20-50-20_260595134347_rgbf000091-resize_1/001806_2014-06-26_20-50-20_260595134347_rgbf000091-resize_1-target.png,83,2.7305,20,20311,66,meters,jsons/VE83_randls_57.json,1525069,1882843,19,Woman
22,340864,DepthScenes,duration_manipulation_targetAtFixation,jsons/VE83_randls_57.json,http://54.235.29.9/FacialAge/BNav_EC2/DepthDuration/v2_depth_duration_MTurk/v2_DepthDuration_HTML.html#1,1,1366,619,1366,768,8-29-2023,12-54-49,23,depth_duration_stimuli/001617_2014-06-20_11-35-32_260595134347_rgbf000066-resize_1/001617_2014-06-20_11-35-32_260595134347_rgbf000066-resize_1-target.png,83,3.7910000000000004,36,3539,85,meters,jsons/VE83_randls_57.json,1525069,1882843,19,Woman
23,340864,DepthScenes,duration_manipulation_targetAtFixation,jsons/VE83_randls_57.json,http://54.235.29.9/FacialAge/BNav_EC2/DepthDuration/v2_depth_duration_MTurk/v2_DepthDuration_HTML.html#1,1,1366,619,1366,768,8-29-2023,12-54-49,24,depth_duration_stimuli/000009_2014-05-26_14-32-05_260595134347_rgbf000034-resize_3/000009_2014-05-26_14-32-05_260595134347_rgbf000034-resize_3-target.png,83,3.8715,34,3379,93,meters,jsons/VE83_randls_57.json,1525069,1882843,19,Woman
24,340864,DepthScenes,duration_manipulation_targetAtFixation,jsons/VE83_randls_57.json,http://54.235.29.9/FacialAge/BNav_EC2/DepthDuration/v2_depth_duration_MTurk/v2_DepthDuration_HTML.html#1,1,1366,619,1366,768,8-29-2023,12-54-49,25,depth_duration_stimuli/001828_2014-06-26_21-40-03_260595134347_rgbf000024-resize_0/001828_2014-06-26_21-40-03_260595134347_rgbf000024-resize_0-target.png,83,4.8260000000000005,25,3638,72,meters,jsons/VE83_randls_57.json,1525069,1882843,19,Woman
25,340864,DepthScenes,duration_manipulation_targetAtFixation,jsons/VE83_randls_57.json,http://54.235.29.9/FacialAge/BNav_EC2/DepthDuration/v2_depth_duration_MTurk/v2_DepthDuration_HTML.html#1,1,1366,619,1366,768,8-29-2023,12-54-49,26,depth_duration_stimuli/002272_2014-06-28_18-53-56_260595134347_rgbf000067-resize_2/002272_2014-06-28_18-53-56_260595134347_rgbf000067-resize_2-target.png,83,1.138,35,3618,69,meters,jsons/VE83_randls_57.json,1525069,1882843,19,Woman
26,340864,DepthScenes,duration_manipulation_targetAtFixation,jsons/VE83_randls_57.json,http://54.235.29.9/FacialAge/BNav_EC2/DepthDuration/v2_depth_duration_MTurk/v2_DepthDuration_HTML.html#1,1,1366,619,1366,768,8-29-2023,12-54-49,27,depth_duration_stimuli/001571_2014-06-20_17-21-32_260595134347_rgbf000089-resize_1/001571_2014-06-20_17-21-32_260595134347_rgbf000089-resize_1-target.png,83,1.86,20,3344,55,meters,jsons/VE83_randls_57.json,1525069,1882843,19,Woman
27,340864,DepthScenes,duration_manipulation_targetAtFixation,jsons/VE83_randls_57.json,http://54.235.29.9/FacialAge/BNav_EC2/DepthDuration/v2_depth_duration_MTurk/v2_DepthDuration_HTML.html#1,1,1366,619,1366,768,8-29-2023,12-54-49,28,depth_duration_stimuli/000773_2014-06-08_22-24-54_260595134347_rgbf000093-resize_1/000773_2014-06-08_22-24-54_260595134347_rgbf000093-resize_1-target.png,83,4.973,42,3308,81,meters,jsons/VE83_randls_57.json,1525069,1882843,19,Woman
28,340864,DepthScenes,duration_manipulation_targetAtFixation,jsons/VE83_randls_57.json,http://54.235.29.9/FacialAge/BNav_EC2/DepthDuration/v2_depth_duration_MTurk/v2_DepthDuration_HTML.html#1,1,1366,619,1366,768,8-29-2023,12-54-49,29,depth_duration_stimuli/002414_2014-06-28_20-24-58_260595134347_rgbf000067-resize_4/002414_2014-06-28_20-24-58_260595134347_rgbf000067-resize_4-target.png,83,4.363,0,3044,82,meters,jsons/VE83_randls_57.json,1525069,1882843,19,Woman
29,340864,DepthScenes,duration_manipulation_targetAtFixation,jsons/VE83_randls_57.json,http://54.235.29.9/FacialAge/BNav_EC2/DepthDuration/v2_depth_duration_MTurk/v2_DepthDuration_HTML.html#1,1,1366,619,1366,768,8-29-2023,12-54-49,30,depth_duration_stimuli/000375_2014-06-08_11-17-29_260595134347_rgbf000133-resize_2/000375_2014-06-08_11-17-29_260595134347_rgbf000133-resize-original.jpg,83,4.718,20,3154,68,meters,jsons/VE83_randls_57.json,1525069,1882843,19,Woman
30,340864,DepthScenes,duration_manipulation_targetAtFixation,jsons/VE83_randls_57.json,http://54.235.29.9/FacialAge/BNav_EC2/DepthDuration/v2_depth_duration_MTurk/v2_DepthDuration_HTML.html#1,1,1366,619,1366,768,8-29-2023,12-54-49,31,depth_duration_stimuli/001158_2014-06-17_15-32-16_260595134347_rgbf000138-resize_2/001158_2014-06-17_15-32-16_260595134347_rgbf000138-resize_2-target.png,83,4.5315,46,3371,83,meters,jsons/VE83_randls_57.json,1525069,1882843,19,Woman
31,340864,DepthScenes,duration_manipulation_targetAtFixation,jsons/VE83_randls_57.json,http://54.235.29.9/FacialAge/BNav_EC2/DepthDuration/v2_depth_duration_MTurk/v2_DepthDuration_HTML.html#1,1,1366,619,1366,768,8-29-2023,12-54-49,32,depth_duration_stimuli/000556_2014-06-09_22-42-56_260595134347_rgbf000214-resize_1/000556_2014-06-09_22-42-56_260595134347_rgbf000214-resize_1-target.png,83,4.8415,29,3901,80,meters,jsons/VE83_randls_57.json,1525069,1882843,19,Woman
32,340864,DepthScenes,duration_manipulation_targetAtFixation,jsons/VE83_randls_57.json,http://54.235.29.9/FacialAge/BNav_EC2/DepthDuration/v2_depth_duration_MTurk/v2_DepthDuration_HTML.html#1,1,1366,619,1366,768,8-29-2023,12-54-49,33,depth_duration_stimuli/002375_2014-06-28_20-13-44_260595134347_rgbf000032-resize_1/002375_2014-06-28_20-13-44_260595134347_rgbf000032-resize_1-target.png,83,4.0175,23,4389,84,meters,jsons/VE83_randls_57.json,1525069,1882843,19,Woman
33,340864,DepthScenes,duration_manipulation_targetAtFixation,jsons/VE83_randls_57.json,http://54.235.29.9/FacialAge/BNav_EC2/DepthDuration/v2_depth_duration_MTurk/v2_DepthDuration_HTML.html#1,1,1366,619,1366,768,8-29-2023,12-54-49,34,depth_duration_stimuli/002657_2014-06-13_15-29-54_094959634447_rgbf000150-resize_1/002657_2014-06-13_15-29-54_094959634447_rgbf000150-resize_1-target.png,83,4.919,54,5074,84,meters,jsons/VE83_randls_57.json,1525069,1882843,19,Woman
34,340864,DepthScenes,duration_manipulation_targetAtFixation,jsons/VE83_randls_57.json,http://54.235.29.9/FacialAge/BNav_EC2/DepthDuration/v2_depth_duration_MTurk/v2_DepthDuration_HTML.html#1,1,1366,619,1366,768,8-29-2023,12-54-49,35,depth_duration_stimuli/000470_2014-06-09_19-42-40_260595134347_rgbf000094-resize_1/000470_2014-06-09_19-42-40_260595134347_rgbf000094-resize_1-target.png,83,1.831,15,4765,82,meters,jsons/VE83_randls_57.json,1525069,1882843,19,Woman
35,340864,DepthScenes,duration_manipulation_targetAtFixation,jsons/VE83_randls_57.json,http://54.235.29.9/FacialAge/BNav_EC2/DepthDuration/v2_depth_duration_MTurk/v2_DepthDuration_HTML.html#1,1,1366,619,1366,768,8-29-2023,12-54-49,36,depth_duration_stimuli/000109_2014-05-14_23-41-52_260595134347_rgbf000035-resize_9/000109_2014-05-14_23-41-52_260595134347_rgbf000035-resize_9-target.png,83,1.3545,25,3352,82,meters,jsons/VE83_randls_57.json,1525069,1882843,19,Woman
36,340864,DepthScenes,duration_manipulation_targetAtFixation,jsons/VE83_randls_57.json,http://54.235.29.9/FacialAge/BNav_EC2/DepthDuration/v2_depth_duration_MTurk/v2_DepthDuration_HTML.html#1,1,1366,619,1366,768,8-29-2023,12-54-49,37,depth_duration_stimuli/002663_2014-06-13_15-50-26_094959634447_rgbf000075-resize_1/002663_2014-06-13_15-50-26_094959634447_rgbf000075-resize_1-target.png,83,4.7495,12,12754,83,meters,jsons/VE83_randls_57.json,1525069,1882843,19,Woman
37,340864,DepthScenes,duration_manipulation_targetAtFixation,jsons/VE83_randls_57.json,http://54.235.29.9/FacialAge/BNav_EC2/DepthDuration/v2_depth_duration_MTurk/v2_DepthDuration_HTML.html#1,1,1366,619,1366,768,8-29-2023,12-54-49,38,depth_duration_stimuli/000409_2014-06-04_19-23-33_260595134347_rgbf000067-resize_0/000409_2014-06-04_19-23-33_260595134347_rgbf000067-resize_0-target.png,83,3.7335,36,3430,65,meters,jsons/VE83_randls_57.json,1525069,1882843,19,Woman
38,340864,DepthScenes,duration_manipulation_targetAtFixation,jsons/VE83_randls_57.json,http://54.235.29.9/FacialAge/BNav_EC2/DepthDuration/v2_depth_duration_MTurk/v2_DepthDuration_HTML.html#1,1,1366,619,1366,768,8-29-2023,12-54-49,39,depth_duration_stimuli/002630_2014-06-24_14-47-50_094959634447_rgbf000055-resize_1/002630_2014-06-24_14-47-50_094959634447_rgbf000055-resize_1-target.png,83,3.0095,42,4024,85,meters,jsons/VE83_randls_57.json,1525069,1882843,19,Woman
39,340864,DepthScenes,duration_manipulation_targetAtFixation,jsons/VE83_randls_57.json,http://54.235.29.9/FacialAge/BNav_EC2/DepthDuration/v2_depth_duration_MTurk/v2_DepthDuration_HTML.html#1,1,1366,619,1366,768,8-29-2023,12-54-49,40,depth_duration_stimuli/002758_2014-06-22_19-11-20_094959634447_rgbf000128-resize_1/002758_2014-06-22_19-11-20_094959634447_rgbf000128-resize_1-target.png,83,2.555,30,3431,73,meters,jsons/VE83_randls_57.json,1525069,1882843,19,Woman
40,340864,DepthScenes,duration_manipulation_targetAtFixation,jsons/VE83_randls_57.json,http://54.235.29.9/FacialAge/BNav_EC2/DepthDuration/v2_depth_duration_MTurk/v2_DepthDuration_HTML.html#1,1,1366,619,1366,768,8-29-2023,12-54-49,41,depth_duration_stimuli/000436_2014-06-09_22-25-11_260595134347_rgbf000137-resize_1/000436_2014-06-09_22-25-11_260595134347_rgbf000137-resize_1-target.png,83,4.0705,42,3985,74,meters,jsons/VE83_randls_57.json,1525069,1882843,19,Woman
41,340864,DepthScenes,duration_manipulation_targetAtFixation,jsons/VE83_randls_57.json,http://54.235.29.9/FacialAge/BNav_EC2/DepthDuration/v2_depth_duration_MTurk/v2_DepthDuration_HTML.html#1,1,1366,619,1366,768,8-29-2023,12-54-49,42,depth_duration_stimuli/002444_2014-06-28_20-32-08_260595134347_rgbf000027-resize_0/002444_2014-06-28_20-32-08_260595134347_rgbf000027-resize_0-target.png,83,4.388999999999999,25,7178,91,meters,jsons/VE83_randls_57.json,1525069,1882843,19,Woman
42,340864,DepthScenes,duration_manipulation_targetAtFixation,jsons/VE83_randls_57.json,http://54.235.29.9/FacialAge/BNav_EC2/DepthDuration/v2_depth_duration_MTurk/v2_DepthDuration_HTML.html#1,1,1366,619,1366,768,8-29-2023,12-54-49,43,depth_duration_stimuli/002039_2014-06-24_20-22-38_260595134347_rgbf000084-resize_1/002039_2014-06-24_20-22-38_260595134347_rgbf000084-resize_1-target.png,83,4.408,36,3558,76,meters,jsons/VE83_randls_57.json,1525069,1882843,19,Woman
43,340864,DepthScenes,duration_manipulation_targetAtFixation,jsons/VE83_randls_57.json,http://54.235.29.9/FacialAge/BNav_EC2/DepthDuration/v2_depth_duration_MTurk/v2_DepthDuration_HTML.html#1,1,1366,619,1366,768,8-29-2023,12-54-49,44,depth_duration_stimuli/002103_2014-06-25_20-00-40_260595134347_rgbf000049-resize_0/002103_2014-06-25_20-00-40_260595134347_rgbf000049-resize_0-target.png,83,4.105,42,3628,92,meters,jsons/VE83_randls_57.json,1525069,1882843,19,Woman
44,340864,DepthScenes,duration_manipulation_targetAtFixation,jsons/VE83_randls_57.json,http://54.235.29.9/FacialAge/BNav_EC2/DepthDuration/v2_depth_duration_MTurk/v2_DepthDuration_HTML.html#1,1,1366,619,1366,768,8-29-2023,12-54-49,45,depth_duration_stimuli/000787_2014-06-08_22-33-53_260595134347_rgbf000175-resize_1/000787_2014-06-08_22-33-53_260595134347_rgbf000175-resize-original.jpg,83,4.784,10,3263,82,meters,jsons/VE83_randls_57.json,1525069,1882843,19,Woman
45,340864,DepthScenes,duration_manipulation_targetAtFixation,jsons/VE83_randls_57.json,http://54.235.29.9/FacialAge/BNav_EC2/DepthDuration/v2_depth_duration_MTurk/v2_DepthDuration_HTML.html#1,1,1366,619,1366,768,8-29-2023,12-54-49,46,depth_duration_stimuli/000739_2014-06-08_18-45-58_260595134347_rgbf000068-resize_1/000739_2014-06-08_18-45-58_260595134347_rgbf000068-resize_1-target.png,83,3.534,30,3143,83,meters,jsons/VE83_randls_57.json,1525069,1882843,19,Woman
46,340864,DepthScenes,duration_manipulation_targetAtFixation,jsons/VE83_randls_57.json,http://54.235.29.9/FacialAge/BNav_EC2/DepthDuration/v2_depth_duration_MTurk/v2_DepthDuration_HTML.html#1,1,1366,619,1366,768,8-29-2023,12-54-49,47,depth_duration_stimuli/000734_2014-06-08_17-39-11_260595134347_rgbf000128-resize_2/000734_2014-06-08_17-39-11_260595134347_rgbf000128-resize_2-target.png,83,4.098,20,3056,83,meters,jsons/VE83_randls_57.json,1525069,1882843,19,Woman
47,340864,DepthScenes,duration_manipulation_targetAtFixation,jsons/VE83_randls_57.json,http://54.235.29.9/FacialAge/BNav_EC2/DepthDuration/v2_depth_duration_MTurk/v2_DepthDuration_HTML.html#1,1,1366,619,1366,768,8-29-2023,12-54-49,48,depth_duration_stimuli/000878_2014-06-08_22-52-45_260595134347_rgbf000045-resize_2/000878_2014-06-08_22-52-45_260595134347_rgbf000045-resize_2-target.png,83,2.092,20,23760,86,meters,jsons/VE83_randls_57.json,1525069,1882843,19,Woman
48,340864,DepthScenes,duration_manipulation_targetAtFixation,jsons/VE83_randls_57.json,http://54.235.29.9/FacialAge/BNav_EC2/DepthDuration/v2_depth_duration_MTurk/v2_DepthDuration_HTML.html#1,1,1366,619,1366,768,8-29-2023,12-54-49,49,depth_duration_stimuli/002953_2014-06-08_17-32-18_094959634447_rgbf000059-resize_5/002953_2014-06-08_17-32-18_094959634447_rgbf000059-resize_5-target.png,83,1.551,42,3860,94,meters,jsons/VE83_randls_57.json,1525069,1882843,19,Woman
49,340864,DepthScenes,duration_manipulation_targetAtFixation,jsons/VE83_randls_57.json,http://54.235.29.9/FacialAge/BNav_EC2/DepthDuration/v2_depth_duration_MTurk/v2_DepthDuration_HTML.html#1,1,1366,619,1366,768,8-29-2023,12-54-49,50,depth_duration_stimuli/001055_2014-06-08_18-45-35_260595134347_rgbf000111-resize_4/001055_2014-06-08_18-45-35_260595134347_rgbf000111-resize_4-target.png,83,2.4290000000000003,30,3164,87,meters,jsons/VE83_randls_57.json,1525069,1882843,19,Woman
50,340864,DepthScenes,duration_manipulation_targetAtFixation,jsons/VE83_randls_57.json,http://54.235.29.9/FacialAge/BNav_EC2/DepthDuration/v2_depth_duration_MTurk/v2_DepthDuration_HTML.html#1,1,1366,619,1366,768,8-29-2023,12-54-49,51,depth_duration_stimuli/000549_2014-06-08_22-10-24_260595134347_rgbf000247-resize_3/000549_2014-06-08_22-10-24_260595134347_rgbf000247-resize_3-target.png,83,1.841,42,3169,89,meters,jsons/VE83_randls_57.json,1525069,1882843,19,Woman
51,340864,DepthScenes,duration_manipulation_targetAtFixation,jsons/VE83_randls_57.json,http://54.235.29.9/FacialAge/BNav_EC2/DepthDuration/v2_depth_duration_MTurk/v2_DepthDuration_HTML.html#1,1,1366,619,1366,768,8-29-2023,12-54-49,52,depth_duration_stimuli/002279_2014-06-28_18-55-32_260595134347_rgbf000040-resize_5/002279_2014-06-28_18-55-32_260595134347_rgbf000040-resize_5-target.png,83,1.5043333333333,15,3468,81,meters,jsons/VE83_randls_57.json,1525069,1882843,19,Woman
52,340864,DepthScenes,duration_manipulation_targetAtFixation,jsons/VE83_randls_57.json,http://54.235.29.9/FacialAge/BNav_EC2/DepthDuration/v2_depth_duration_MTurk/v2_DepthDuration_HTML.html#1,1,1366,619,1366,768,8-29-2023,12-54-49,53,depth_duration_stimuli/000635_2014-06-08_16-38-42_260595134347_rgbf000106-resize_1/000635_2014-06-08_16-38-42_260595134347_rgbf000106-resize_1-target.png,83,2.074,10,3792,88,meters,jsons/VE83_randls_57.json,1525069,1882843,19,Woman
53,340864,DepthScenes,duration_manipulation_targetAtFixation,jsons/VE83_randls_57.json,http://54.235.29.9/FacialAge/BNav_EC2/DepthDuration/v2_depth_duration_MTurk/v2_DepthDuration_HTML.html#1,1,1366,619,1366,768,8-29-2023,12-54-49,54,depth_duration_stimuli/000368_2014-06-09_15-53-01_260595134347_rgbf000155-resize_2/000368_2014-06-09_15-53-01_260595134347_rgbf000155-resize_2-target.png,83,2.4859999999999998,35,3642,87,meters,jsons/VE83_randls_57.json,1525069,1882843,19,Woman
54,340864,DepthScenes,duration_manipulation_targetAtFixation,jsons/VE83_randls_57.json,http://54.235.29.9/FacialAge/BNav_EC2/DepthDuration/v2_depth_duration_MTurk/v2_DepthDuration_HTML.html#1,1,1366,619,1366,768,8-29-2023,12-54-49,55,depth_duration_stimuli/002678_2014-06-13_16-15-32_094959634447_rgbf000151-resize_6/002678_2014-06-13_16-15-32_094959634447_rgbf000151-resize_6-target.png,83,2.1830000000000003,20,3735,91,meters,jsons/VE83_randls_57.json,1525069,1882843,19,Woman
55,340864,DepthScenes,duration_manipulation_targetAtFixation,jsons/VE83_randls_57.json,http://54.235.29.9/FacialAge/BNav_EC2/DepthDuration/v2_depth_duration_MTurk/v2_DepthDuration_HTML.html#1,1,1366,619,1366,768,8-29-2023,12-54-49,56,depth_duration_stimuli/001555_2014-06-20_17-12-10_260595134347_rgbf000065-resize_4/001555_2014-06-20_17-12-10_260595134347_rgbf000065-resize_4-target.png,83,1.633,36,3358,100,meters,jsons/VE83_randls_57.json,1525069,1882843,19,Woman
56,340864,DepthScenes,duration_manipulation_targetAtFixation,jsons/VE83_randls_57.json,http://54.235.29.9/FacialAge/BNav_EC2/DepthDuration/v2_depth_duration_MTurk/v2_DepthDuration_HTML.html#1,1,1366,619,1366,768,8-29-2023,12-54-49,57,depth_duration_stimuli/000103_2014-05-14_22-01-17_260595134347_rgbf000152-resize_5/000103_2014-05-14_22-01-17_260595134347_rgbf000152-resize_5-target.png,83,1.993,46,7250,84,meters,jsons/VE83_randls_57.json,1525069,1882843,19,Woman
57,340864,DepthScenes,duration_manipulation_targetAtFixation,jsons/VE83_randls_57.json,http://54.235.29.9/FacialAge/BNav_EC2/DepthDuration/v2_depth_duration_MTurk/v2_DepthDuration_HTML.html#1,1,1366,619,1366,768,8-29-2023,12-54-49,58,depth_duration_stimuli/002748_2014-06-22_19-07-22_094959634447_rgbf000078-resize_1/002748_2014-06-22_19-07-22_094959634447_rgbf000078-resize_1-target.png,83,4.6705,42,3798,73,meters,jsons/VE83_randls_57.json,1525069,1882843,19,Woman
58,340864,DepthScenes,duration_manipulation_targetAtFixation,jsons/VE83_randls_57.json,http://54.235.29.9/FacialAge/BNav_EC2/DepthDuration/v2_depth_duration_MTurk/v2_DepthDuration_HTML.html#1,1,1366,619,1366,768,8-29-2023,12-54-49,59,depth_duration_stimuli/002995_2014-06-15_12-31-26_094959634447_rgbf000150-resize_1/002995_2014-06-15_12-31-26_094959634447_rgbf000150-resize_1-target.png,83,3.8360000000000003,30,3788,74,meters,jsons/VE83_randls_57.json,1525069,1882843,19,Woman
59,340864,DepthScenes,duration_manipulation_targetAtFixation,jsons/VE83_randls_57.json,http://54.235.29.9/FacialAge/BNav_EC2/DepthDuration/v2_depth_duration_MTurk/v2_DepthDuration_HTML.html#1,1,1366,619,1366,768,8-29-2023,12-54-49,60,depth_duration_stimuli/000414_2014-06-04_19-49-13_260595134347_rgbf000044-resize_0/000414_2014-06-04_19-49-13_260595134347_rgbf000044-resize_0-target.png,83,4.329,46,3155,75,meters,jsons/VE83_randls_57.json,1525069,1882843,19,Woman
60,340864,DepthScenes,duration_manipulation_targetAtFixation,jsons/VE83_randls_57.json,http://54.235.29.9/FacialAge/BNav_EC2/DepthDuration/v2_depth_duration_MTurk/v2_DepthDuration_HTML.html#1,1,1366,619,1366,768,8-29-2023,12-54-49,61,depth_duration_stimuli/003129_2014-05-12_10-48-10_094959634447_rgbf000100-resize_0/003129_2014-05-12_10-48-10_094959634447_rgbf000100-resize_0-target.png,83,4.9305,23,3628,84,meters,jsons/VE83_randls_57.json,1525069,1882843,19,Woman
61,340864,DepthScenes,duration_manipulation_targetAtFixation,jsons/VE83_randls_57.json,http://54.235.29.9/FacialAge/BNav_EC2/DepthDuration/v2_depth_duration_MTurk/v2_DepthDuration_HTML.html#1,1,1366,619,1366,768,8-29-2023,12-54-49,62,depth_duration_stimuli/003492_2014-05-21_15-50-55_094959634447_rgbf000828-resize_1/003492_2014-05-21_15-50-55_094959634447_rgbf000828-resize_1-target.png,83,4.06875,46,3312,78,meters,jsons/VE83_randls_57.json,1525069,1882843,19,Woman
62,340864,DepthScenes,duration_manipulation_targetAtFixation,jsons/VE83_randls_57.json,http://54.235.29.9/FacialAge/BNav_EC2/DepthDuration/v2_depth_duration_MTurk/v2_DepthDuration_HTML.html#1,1,1366,619,1366,768,8-29-2023,12-54-49,63,depth_duration_stimuli/002568_2014-06-24_13-59-21_094959634447_rgbf000062-resize_4/002568_2014-06-24_13-59-21_094959634447_rgbf000062-resize_4-target.png,83,3.015,32,3564,83,meters,jsons/VE83_randls_57.json,1525069,1882843,19,Woman
63,340864,DepthScenes,duration_manipulation_targetAtFixation,jsons/VE83_randls_57.json,http://54.235.29.9/FacialAge/BNav_EC2/DepthDuration/v2_depth_duration_MTurk/v2_DepthDuration_HTML.html#1,1,1366,619,1366,768,8-29-2023,12-54-49,64,depth_duration_stimuli/000486_2014-06-09_20-47-20_260595134347_rgbf000143-resize_2/000486_2014-06-09_20-47-20_260595134347_rgbf000143-resize_2-target.png,83,4.8325,13,5801,66,meters,jsons/VE83_randls_57.json,1525069,1882843,19,Woman
64,340864,DepthScenes,duration_manipulation_targetAtFixation,jsons/VE83_randls_57.json,http://54.235.29.9/FacialAge/BNav_EC2/DepthDuration/v2_depth_duration_MTurk/v2_DepthDuration_HTML.html#1,1,1366,619,1366,768,8-29-2023,12-54-49,65,depth_duration_stimuli/003083_2014-06-15_15-21-03_094959634447_rgbf000063-resize_1/003083_2014-06-15_15-21-03_094959634447_rgbf000063-resize_1-target.png,83,4.1405,42,3467,80,meters,jsons/VE83_randls_57.json,1525069,1882843,19,Woman
65,340864,DepthScenes,duration_manipulation_targetAtFixation,jsons/VE83_randls_57.json,http://54.235.29.9/FacialAge/BNav_EC2/DepthDuration/v2_depth_duration_MTurk/v2_DepthDuration_HTML.html#1,1,1366,619,1366,768,8-29-2023,12-54-49,66,depth_duration_stimuli/001222_2014-06-17_16-24-06_260595134347_rgbf000073-resize_0/001222_2014-06-17_16-24-06_260595134347_rgbf000073-resize-original.jpg,83,1.4385,20,3342,100,meters,jsons/VE83_randls_57.json,1525069,1882843,19,Woman
66,340864,DepthScenes,duration_manipulation_targetAtFixation,jsons/VE83_randls_57.json,http://54.235.29.9/FacialAge/BNav_EC2/DepthDuration/v2_depth_duration_MTurk/v2_DepthDuration_HTML.html#1,1,1366,619,1366,768,8-29-2023,12-54-49,67,depth_duration_stimuli/001199_2014-06-17_16-03-48_260595134347_rgbf000077-resize_0/001199_2014-06-17_16-03-48_260595134347_rgbf000077-resize_0-target.png,83,3.4375,30,3052,85,meters,jsons/VE83_randls_57.json,1525069,1882843,19,Woman
67,340864,DepthScenes,duration_manipulation_targetAtFixation,jsons/VE83_randls_57.json,http://54.235.29.9/FacialAge/BNav_EC2/DepthDuration/v2_depth_duration_MTurk/v2_DepthDuration_HTML.html#1,1,1366,619,1366,768,8-29-2023,12-54-49,68,depth_duration_stimuli/000502_2014-06-08_23-02-32_260595134347_rgbf000063-resize_4/000502_2014-06-08_23-02-32_260595134347_rgbf000063-resize_4-target.png,83,2.431,46,3650,89,meters,jsons/VE83_randls_57.json,1525069,1882843,19,Woman
68,340864,DepthScenes,duration_manipulation_targetAtFixation,jsons/VE83_randls_57.json,http://54.235.29.9/FacialAge/BNav_EC2/DepthDuration/v2_depth_duration_MTurk/v2_DepthDuration_HTML.html#1,1,1366,619,1366,768,8-29-2023,12-54-49,69,depth_duration_stimuli/000810_2014-06-08_17-20-01_260595134347_rgbf000105-resize_0/000810_2014-06-08_17-20-01_260595134347_rgbf000105-resize_0-target.png,83,1.4865,30,3428,86,meters,jsons/VE83_randls_57.json,1525069,1882843,19,Woman
69,340864,DepthScenes,duration_manipulation_targetAtFixation,jsons/VE83_randls_57.json,http://54.235.29.9/FacialAge/BNav_EC2/DepthDuration/v2_depth_duration_MTurk/v2_DepthDuration_HTML.html#1,1,1366,619,1366,768,8-29-2023,12-54-49,70,depth_duration_stimuli/001214_2014-06-17_16-13-55_260595134347_rgbf000111-resize_0/001214_2014-06-17_16-13-55_260595134347_rgbf000111-resize_0-target.png,83,2.6505,12,3089,93,meters,jsons/VE83_randls_57.json,1525069,1882843,19,Woman
70,340864,DepthScenes,duration_manipulation_targetAtFixation,jsons/VE83_randls_57.json,http://54.235.29.9/FacialAge/BNav_EC2/DepthDuration/v2_depth_duration_MTurk/v2_DepthDuration_HTML.html#1,1,1366,619,1366,768,8-29-2023,12-54-49,71,depth_duration_stimuli/002509_2014-06-24_13-19-22_094959634447_rgbf000077-resize_0/002509_2014-06-24_13-19-22_094959634447_rgbf000077-resize_0-target.png,83,1.3065,18,4579,84,meters,jsons/VE83_randls_57.json,1525069,1882843,19,Woman
71,340864,DepthScenes,duration_manipulation_targetAtFixation,jsons/VE83_randls_57.json,http://54.235.29.9/FacialAge/BNav_EC2/DepthDuration/v2_depth_duration_MTurk/v2_DepthDuration_HTML.html#1,1,1366,619,1366,768,8-29-2023,12-54-49,72,depth_duration_stimuli/003338_2014-05-20_11-01-23_094959634447_rgbf000051-resize_6/003338_2014-05-20_11-01-23_094959634447_rgbf000051-resize_6-target.png,83,1.693,13,3618,74,meters,jsons/VE83_randls_57.json,1525069,1882843,19,Woman
72,340864,DepthScenes,duration_manipulation_targetAtFixation,jsons/VE83_randls_57.json,http://54.235.29.9/FacialAge/BNav_EC2/DepthDuration/v2_depth_duration_MTurk/v2_DepthDuration_HTML.html#1,1,1366,619,1366,768,8-29-2023,12-54-49,73,depth_duration_stimuli/000682_2014-06-08_23-14-58_260595134347_rgbf000041-resize_5/000682_2014-06-08_23-14-58_260595134347_rgbf000041-resize_5-target.png,83,2.7239999999999998,14,3974,99,meters,jsons/VE83_randls_57.json,1525069,1882843,19,Woman
73,340864,DepthScenes,duration_manipulation_targetAtFixation,jsons/VE83_randls_57.json,http://54.235.29.9/FacialAge/BNav_EC2/DepthDuration/v2_depth_duration_MTurk/v2_DepthDuration_HTML.html#1,1,1366,619,1366,768,8-29-2023,12-54-49,74,depth_duration_stimuli/001650_2014-06-20_12-09-00_260595134347_rgbf000087-resize_3/001650_2014-06-20_12-09-00_260595134347_rgbf000087-resize_3-target.png,83,1.9505,15,3402,92,meters,jsons/VE83_randls_57.json,1525069,1882843,19,Woman
74,340864,DepthScenes,duration_manipulation_targetAtFixation,jsons/VE83_randls_57.json,http://54.235.29.9/FacialAge/BNav_EC2/DepthDuration/v2_depth_duration_MTurk/v2_DepthDuration_HTML.html#1,1,1366,619,1366,768,8-29-2023,12-54-49,75,depth_duration_stimuli/001059_2014-06-08_21-53-27_260595134347_rgbf000061-resize_4/001059_2014-06-08_21-53-27_260595134347_rgbf000061-resize_4-target.png,83,2.4185,10,4070,84,meters,jsons/VE83_randls_57.json,1525069,1882843,19,Woman
75,340864,DepthScenes,duration_manipulation_targetAtFixation,jsons/VE83_randls_57.json,http://54.235.29.9/FacialAge/BNav_EC2/DepthDuration/v2_depth_duration_MTurk/v2_DepthDuration_HTML.html#1,1,1366,619,1366,768,8-29-2023,12-54-49,76,depth_duration_stimuli/001032_2014-06-08_13-23-17_260595134347_rgbf000021-resize_3/001032_2014-06-08_13-23-17_260595134347_rgbf000021-resize_3-target.png,83,3.2725,17,3346,83,meters,jsons/VE83_randls_57.json,1525069,1882843,19,Woman
76,340864,DepthScenes,duration_manipulation_targetAtFixation,jsons/VE83_randls_57.json,http://54.235.29.9/FacialAge/BNav_EC2/DepthDuration/v2_depth_duration_MTurk/v2_DepthDuration_HTML.html#1,1,1366,619,1366,768,8-29-2023,12-54-49,77,depth_duration_stimuli/000522_2014-06-08_13-35-06_260595134347_rgbf000244-resize_1/000522_2014-06-08_13-35-06_260595134347_rgbf000244-resize_1-target.png,83,2.3715,16,3437,75,meters,jsons/VE83_randls_57.json,1525069,1882843,19,Woman
77,340864,DepthScenes,duration_manipulation_targetAtFixation,jsons/VE83_randls_57.json,http://54.235.29.9/FacialAge/BNav_EC2/DepthDuration/v2_depth_duration_MTurk/v2_DepthDuration_HTML.html#1,1,1366,619,1366,768,8-29-2023,12-54-49,78,depth_duration_stimuli/002949_2014-06-26_15-57-42_094959634447_rgbf000079-resize_1/002949_2014-06-26_15-57-42_094959634447_rgbf000079-resize_1-target.png,83,1.8915,15,5418,84,meters,jsons/VE83_randls_57.json,1525069,1882843,19,Woman
78,340864,DepthScenes,duration_manipulation_targetAtFixation,jsons/VE83_randls_57.json,http://54.235.29.9/FacialAge/BNav_EC2/DepthDuration/v2_depth_duration_MTurk/v2_DepthDuration_HTML.html#1,1,1366,619,1366,768,8-29-2023,12-54-49,79,depth_duration_stimuli/001110_2014-06-15_17-25-28_260595134347_rgbf000150-resize_1/001110_2014-06-15_17-25-28_260595134347_rgbf000150-resize_1-target.png,83,1.7115,18,3245,84,meters,jsons/VE83_randls_57.json,1525069,1882843,19,Woman
79,340864,DepthScenes,duration_manipulation_targetAtFixation,jsons/VE83_randls_57.json,http://54.235.29.9/FacialAge/BNav_EC2/DepthDuration/v2_depth_duration_MTurk/v2_DepthDuration_HTML.html#1,1,1366,619,1366,768,8-29-2023,12-54-49,80,depth_duration_stimuli/000927_2014-06-09_16-32-30_260595134347_rgbf000123-resize_3/000927_2014-06-09_16-32-30_260595134347_rgbf000123-resize_3-target.png,83,2.6785,16,3286,80,meters,jsons/VE83_randls_57.json,1525069,1882843,19,Woman
80,340864,DepthScenes,duration_manipulation_targetAtFixation,jsons/VE83_randls_57.json,http://54.235.29.9/FacialAge/BNav_EC2/DepthDuration/v2_depth_duration_MTurk/v2_DepthDuration_HTML.html#1,1,1366,619,1366,768,8-29-2023,12-54-49,81,depth_duration_stimuli/001810_2014-06-26_20-51-35_260595134347_rgbf000040-resize_3/001810_2014-06-26_20-51-35_260595134347_rgbf000040-resize_3-target.png,83,2.2525,17,3141,75,meters,jsons/VE83_randls_57.json,1525069,1882843,19,Woman
81,340864,DepthScenes,duration_manipulation_targetAtFixation,jsons/VE83_randls_57.json,http://54.235.29.9/FacialAge/BNav_EC2/DepthDuration/v2_depth_duration_MTurk/v2_DepthDuration_HTML.html#1,1,1366,619,1366,768,8-29-2023,12-54-49,82,depth_duration_stimuli/003010_2014-06-15_12-54-35_094959634447_rgbf000112-resize_0/003010_2014-06-15_12-54-35_094959634447_rgbf000112-resize_0-target.png,83,3.1185,10,3448,80,meters,jsons/VE83_randls_57.json,1525069,1882843,19,Woman
82,340864,DepthScenes,duration_manipulation_targetAtFixation,jsons/VE83_randls_57.json,http://54.235.29.9/FacialAge/BNav_EC2/DepthDuration/v2_depth_duration_MTurk/v2_DepthDuration_HTML.html#1,1,1366,619,1366,768,8-29-2023,12-54-49,83,depth_duration_stimuli/000929_2014-06-09_16-33-19_260595134347_rgbf000139-resize_0/000929_2014-06-09_16-33-19_260595134347_rgbf000139-resize_0-target.png,83,2.8680000000000003,16,3454,101,meters,jsons/VE83_randls_57.json,1525069,1882843,19,Woman
83,340864,DepthScenes,duration_manipulation_targetAtFixation,jsons/VE83_randls_57.json,http://54.235.29.9/FacialAge/BNav_EC2/DepthDuration/v2_depth_duration_MTurk/v2_DepthDuration_HTML.html#1,1,1366,619,1366,768,8-29-2023,12-54-49,84,depth_duration_stimuli/000457_2014-06-08_16-52-43_260595134347_rgbf000199-resize_1/000457_2014-06-08_16-52-43_260595134347_rgbf000199-resize_1-target.png,83,3.6489999999999996,17,3625,83,meters,jsons/VE83_randls_57.json,1525069,1882843,19,Woman
84,340864,DepthScenes,duration_manipulation_targetAtFixation,jsons/VE83_randls_57.json,http://54.235.29.9/FacialAge/BNav_EC2/DepthDuration/v2_depth_duration_MTurk/v2_DepthDuration_HTML.html#1,1,1366,619,1366,768,8-29-2023,12-54-49,85,depth_duration_stimuli/002057_2014-06-24_21-00-13_260595134347_rgbf000120-resize_1/002057_2014-06-24_21-00-13_260595134347_rgbf000120-resize_1-target.png,83,2.967,10,4005,89,meters,jsons/VE83_randls_57.json,1525069,1882843,19,Woman
85,340864,DepthScenes,duration_manipulation_targetAtFixation,jsons/VE83_randls_57.json,http://54.235.29.9/FacialAge/BNav_EC2/DepthDuration/v2_depth_duration_MTurk/v2_DepthDuration_HTML.html#1,1,1366,619,1366,768,8-29-2023,12-54-49,86,depth_duration_stimuli/000709_2014-06-08_13-51-55_260595134347_rgbf000068-resize_3/000709_2014-06-08_13-51-55_260595134347_rgbf000068-resize_3-target.png,83,1.8030000000000002,0,3929,73,meters,jsons/VE83_randls_57.json,1525069,1882843,19,Woman
86,340864,DepthScenes,duration_manipulation_targetAtFixation,jsons/VE83_randls_57.json,http://54.235.29.9/FacialAge/BNav_EC2/DepthDuration/v2_depth_duration_MTurk/v2_DepthDuration_HTML.html#1,1,1366,619,1366,768,8-29-2023,12-54-49,87,depth_duration_stimuli/001175_2014-06-17_15-45-55_260595134347_rgbf000129-resize_4/001175_2014-06-17_15-45-55_260595134347_rgbf000129-resize_4-target.png,83,4.255,0,6007,90,meters,jsons/VE83_randls_57.json,1525069,1882843,19,Woman
87,340864,DepthScenes,duration_manipulation_targetAtFixation,jsons/VE83_randls_57.json,http://54.235.29.9/FacialAge/BNav_EC2/DepthDuration/v2_depth_duration_MTurk/v2_DepthDuration_HTML.html#1,1,1366,619,1366,768,8-29-2023,12-54-49,88,depth_duration_stimuli/003490_2014-05-21_15-50-11_094959634447_rgbf000101-resize_3/003490_2014-05-21_15-50-11_094959634447_rgbf000101-resize_3-target.png,83,3.6445,13,3850,98,meters,jsons/VE83_randls_57.json,1525069,1882843,19,Woman
88,340864,DepthScenes,duration_manipulation_targetAtFixation,jsons/VE83_randls_57.json,http://54.235.29.9/FacialAge/BNav_EC2/DepthDuration/v2_depth_duration_MTurk/v2_DepthDuration_HTML.html#1,1,1366,619,1366,768,8-29-2023,12-54-49,89,depth_duration_stimuli/001808_2014-06-26_20-50-58_260595134347_rgbf000029-resize_1/001808_2014-06-26_20-50-58_260595134347_rgbf000029-resize_1-target.png,83,4.249,10,44649,84,meters,jsons/VE83_randls_57.json,1525069,1882843,19,Woman
89,340864,DepthScenes,duration_manipulation_targetAtFixation,jsons/VE83_randls_57.json,http://54.235.29.9/FacialAge/BNav_EC2/DepthDuration/v2_depth_duration_MTurk/v2_DepthDuration_HTML.html#1,1,1366,619,1366,768,8-29-2023,12-54-49,90,depth_duration_stimuli/001815_2014-06-26_20-52-55_260595134347_rgbf000020-resize_0/001815_2014-06-26_20-52-55_260595134347_rgbf000020-resize_0-target.png,83,3.3865,12,3480,97,meters,jsons/VE83_randls_57.json,1525069,1882843,19,Woman
90,340864,DepthScenes,duration_manipulation_targetAtFixation,jsons/VE83_randls_57.json,http://54.235.29.9/FacialAge/BNav_EC2/DepthDuration/v2_depth_duration_MTurk/v2_DepthDuration_HTML.html#1,1,1366,619,1366,768,8-29-2023,12-54-49,91,depth_duration_stimuli/002905_2014-06-03_18-04-43_094959634447_rgbf000151-resize_2/002905_2014-06-03_18-04-43_094959634447_rgbf000151-resize_2-target.png,83,2.0295,14,3649,81,meters,jsons/VE83_randls_57.json,1525069,1882843,19,Woman
91,340864,DepthScenes,duration_manipulation_targetAtFixation,jsons/VE83_randls_57.json,http://54.235.29.9/FacialAge/BNav_EC2/DepthDuration/v2_depth_duration_MTurk/v2_DepthDuration_HTML.html#1,1,1366,619,1366,768,8-29-2023,12-54-49,92,depth_duration_stimuli/003423_2014-05-21_10-23-26_094959634447_rgbf002665-resize_2/003423_2014-05-21_10-23-26_094959634447_rgbf002665-resize_2-target.png,83,3.2575,32,8507,97,meters,jsons/VE83_randls_57.json,1525069,1882843,19,Woman
92,340864,DepthScenes,duration_manipulation_targetAtFixation,jsons/VE83_randls_57.json,http://54.235.29.9/FacialAge/BNav_EC2/DepthDuration/v2_depth_duration_MTurk/v2_DepthDuration_HTML.html#1,1,1366,619,1366,768,8-29-2023,12-54-49,93,depth_duration_stimuli/000493_2014-06-09_21-01-18_260595134347_rgbf000196-resize_3/000493_2014-06-09_21-01-18_260595134347_rgbf000196-resize_3-target.png,83,3.44,20,3864,84,meters,jsons/VE83_randls_57.json,1525069,1882843,19,Woman
93,340864,DepthScenes,duration_manipulation_targetAtFixation,jsons/VE83_randls_57.json,http://54.235.29.9/FacialAge/BNav_EC2/DepthDuration/v2_depth_duration_MTurk/v2_DepthDuration_HTML.html#1,1,1366,619,1366,768,8-29-2023,12-54-49,94,depth_duration_stimuli/000191_2014-05-12_17-07-38_260595134347_rgbf000199-resize_0/000191_2014-05-12_17-07-38_260595134347_rgbf000199-resize_0-target.png,83,3.7995,34,4272,72,meters,jsons/VE83_randls_57.json,1525069,1882843,19,Woman
94,340864,DepthScenes,duration_manipulation_targetAtFixation,jsons/VE83_randls_57.json,http://54.235.29.9/FacialAge/BNav_EC2/DepthDuration/v2_depth_duration_MTurk/v2_DepthDuration_HTML.html#1,1,1366,619,1366,768,8-29-2023,12-54-49,95,depth_duration_stimuli/001016_2014-06-09_16-16-10_260595134347_rgbf000112-resize_5/001016_2014-06-09_16-16-10_260595134347_rgbf000112-resize_5-target.png,83,1.6565,30,6303,72,meters,jsons/VE83_randls_57.json,1525069,1882843,19,Woman
95,340864,DepthScenes,duration_manipulation_targetAtFixation,jsons/VE83_randls_57.json,http://54.235.29.9/FacialAge/BNav_EC2/DepthDuration/v2_depth_duration_MTurk/v2_DepthDuration_HTML.html#1,1,1366,619,1366,768,8-29-2023,12-54-49,96,depth_duration_stimuli/002340_2014-06-28_20-05-46_260595134347_rgbf000113-resize_0/002340_2014-06-28_20-05-46_260595134347_rgbf000113-resize_0-target.png,83,2.4735,15,3775,82,meters,jsons/VE83_randls_57.json,1525069,1882843,19,Woman
96,340864,DepthScenes,duration_manipulation_targetAtFixation,jsons/VE83_randls_57.json,http://54.235.29.9/FacialAge/BNav_EC2/DepthDuration/v2_depth_duration_MTurk/v2_DepthDuration_HTML.html#1,1,1366,619,1366,768,8-29-2023,12-54-49,97,depth_duration_stimuli/001029_2014-06-08_13-17-57_260595134347_rgbf000065-resize_1/001029_2014-06-08_13-17-57_260595134347_rgbf000065-resize_1-target.png,83,3.0835,20,91094,79,meters,jsons/VE83_randls_57.json,1525069,1882843,19,Woman
97,340864,DepthScenes,duration_manipulation_targetAtFixation,jsons/VE83_randls_57.json,http://54.235.29.9/FacialAge/BNav_EC2/DepthDuration/v2_depth_duration_MTurk/v2_DepthDuration_HTML.html#1,1,1366,619,1366,768,8-29-2023,12-54-49,98,depth_duration_stimuli/000677_2014-06-08_23-10-32_260595134347_rgbf000158-resize_6/000677_2014-06-08_23-10-32_260595134347_rgbf000158-resize_6-target.png,83,3.556,30,13546,83,meters,jsons/VE83_randls_57.json,1525069,1882843,19,Woman
98,340864,DepthScenes,duration_manipulation_targetAtFixation,jsons/VE83_randls_57.json,http://54.235.29.9/FacialAge/BNav_EC2/DepthDuration/v2_depth_duration_MTurk/v2_DepthDuration_HTML.html#1,1,1366,619,1366,768,8-29-2023,12-54-49,99,depth_duration_stimuli/001540_2014-06-20_17-01-05_260595134347_rgbf000086-resize_2/001540_2014-06-20_17-01-05_260595134347_rgbf000086-resize-original.jpg,83,1.459,10,8902,84,meters,jsons/VE83_randls_57.json,1525069,1882843,19,Woman
99,340864,DepthScenes,duration_manipulation_targetAtFixation,jsons/VE83_randls_57.json,http://54.235.29.9/FacialAge/BNav_EC2/DepthDuration/v2_depth_duration_MTurk/v2_DepthDuration_HTML.html#1,1,1366,619,1366,768,8-29-2023,12-54-49,100,depth_duration_stimuli/003534_2014-05-22_15-06-10_094959634447_rgbf000102-resize_4/003534_2014-05-22_15-06-10_094959634447_rgbf000102-resize_4-target.png,83,1.426,30,17649,86,meters,jsons/VE83_randls_57.json,1525069,1882843,19,Woman
100,340864,DepthScenes,duration_manipulation_targetAtFixation,jsons/VE83_randls_57.json,http://54.235.29.9/FacialAge/BNav_EC2/DepthDuration/v2_depth_duration_MTurk/v2_DepthDuration_HTML.html#1,1,1366,619,1366,768,8-29-2023,12-54-49,101,depth_duration_stimuli/002637_2014-06-24_14-51-13_094959634447_rgbf000066-resize_4/002637_2014-06-24_14-51-13_094959634447_rgbf000066-resize_4-target.png,83,1.9955,12,6064,82,meters,jsons/VE83_randls_57.json,1525069,1882843,19,Woman
101,340864,DepthScenes,duration_manipulation_targetAtFixation,jsons/VE83_randls_57.json,http://54.235.29.9/FacialAge/BNav_EC2/DepthDuration/v2_depth_duration_MTurk/v2_DepthDuration_HTML.html#1,1,1366,619,1366,768,8-29-2023,12-54-49,102,depth_duration_stimuli/002153_2014-06-25_21-27-18_260595134347_rgbf000038-resize_5/002153_2014-06-25_21-27-18_260595134347_rgbf000038-resize_5-target.png,83,2.505,30,4253,77,meters,jsons/VE83_randls_57.json,1525069,1882843,19,Woman
102,340864,DepthScenes,duration_manipulation_targetAtFixation,jsons/VE83_randls_57.json,http://54.235.29.9/FacialAge/BNav_EC2/DepthDuration/v2_depth_duration_MTurk/v2_DepthDuration_HTML.html#1,1,1366,619,1366,768,8-29-2023,12-54-49,103,depth_duration_stimuli/002660_2014-06-13_15-44-18_094959634447_rgbf001878-resize_2/002660_2014-06-13_15-44-18_094959634447_rgbf001878-resize_2-target.png,83,3.576,30,8113,74,meters,jsons/VE83_randls_57.json,1525069,1882843,19,Woman
103,340864,DepthScenes,duration_manipulation_targetAtFixation,jsons/VE83_randls_57.json,http://54.235.29.9/FacialAge/BNav_EC2/DepthDuration/v2_depth_duration_MTurk/v2_DepthDuration_HTML.html#1,1,1366,619,1366,768,8-29-2023,12-54-49,104,depth_duration_stimuli/002600_2014-06-24_14-27-04_094959634447_rgbf000074-resize_2/002600_2014-06-24_14-27-04_094959634447_rgbf000074-resize_2-target.png,83,2.7575,45,6190,76,meters,jsons/VE83_randls_57.json,1525069,1882843,19,Woman
104,340864,DepthScenes,duration_manipulation_targetAtFixation,jsons/VE83_randls_57.json,http://54.235.29.9/FacialAge/BNav_EC2/DepthDuration/v2_depth_duration_MTurk/v2_DepthDuration_HTML.html#1,1,1366,619,1366,768,8-29-2023,12-54-49,105,depth_duration_stimuli/003228_2014-05-14_13-42-35_094959634447_rgbf000101-resize_1/003228_2014-05-14_13-42-35_094959634447_rgbf000101-resize_1-target.png,83,1.9680000000000002,20,45922,76,meters,jsons/VE83_randls_57.json,1525069,1882843,19,Woman
105,340864,DepthScenes,duration_manipulation_targetAtFixation,jsons/VE83_randls_57.json,http://54.235.29.9/FacialAge/BNav_EC2/DepthDuration/v2_depth_duration_MTurk/v2_DepthDuration_HTML.html#1,1,1366,619,1366,768,8-29-2023,12-54-49,106,depth_duration_stimuli/001011_2014-06-08_23-18-54_260595134347_rgbf000044-resize_4/001011_2014-06-08_23-18-54_260595134347_rgbf000044-resize_4-target.png,83,2.4730000000000003,30,13730,68,meters,jsons/VE83_randls_57.json,1525069,1882843,19,Woman
106,340864,DepthScenes,duration_manipulation_targetAtFixation,jsons/VE83_randls_57.json,http://54.235.29.9/FacialAge/BNav_EC2/DepthDuration/v2_depth_duration_MTurk/v2_DepthDuration_HTML.html#1,1,1366,619,1366,768,8-29-2023,12-54-49,107,depth_duration_stimuli/002875_2014-06-01_15-19-00_094959634447_rgbf000151-resize_1/002875_2014-06-01_15-19-00_094959634447_rgbf000151-resize_1-target.png,83,1.9675,32,8638,88,meters,jsons/VE83_randls_57.json,1525069,1882843,19,Woman
107,340864,DepthScenes,duration_manipulation_targetAtFixation,jsons/VE83_randls_57.json,http://54.235.29.9/FacialAge/BNav_EC2/DepthDuration/v2_depth_duration_MTurk/v2_DepthDuration_HTML.html#1,1,1366,619,1366,768,8-29-2023,12-54-49,108,depth_duration_stimuli/001417_2014-06-19_16-25-36_260595134347_rgbf000115-resize_5/001417_2014-06-19_16-25-36_260595134347_rgbf000115-resize_5-target.png,83,4.6255,42,4821,72,meters,jsons/VE83_randls_57.json,1525069,1882843,19,Woman
108,340864,DepthScenes,duration_manipulation_targetAtFixation,jsons/VE83_randls_57.json,http://54.235.29.9/FacialAge/BNav_EC2/DepthDuration/v2_depth_duration_MTurk/v2_DepthDuration_HTML.html#1,1,1366,619,1366,768,8-29-2023,12-54-49,109,depth_duration_stimuli/003081_2014-06-15_15-19-16_094959634447_rgbf000150-resize_1/003081_2014-06-15_15-19-16_094959634447_rgbf000150-resize_1-target.png,83,3.9125,30,5083,74,meters,jsons/VE83_randls_57.json,1525069,1882843,19,Woman
109,340864,DepthScenes,duration_manipulation_targetAtFixation,jsons/VE83_randls_57.json,http://54.235.29.9/FacialAge/BNav_EC2/DepthDuration/v2_depth_duration_MTurk/v2_DepthDuration_HTML.html#1,1,1366,619,1366,768,8-29-2023,12-54-49,110,depth_duration_stimuli/003070_2014-06-15_14-58-27_094959634447_rgbf000150-resize_3/003070_2014-06-15_14-58-27_094959634447_rgbf000150-resize_3-target.png,83,2.9415,42,8044,90,meters,jsons/VE83_randls_57.json,1525069,1882843,19,Woman
110,340864,DepthScenes,duration_manipulation_targetAtFixation,jsons/VE83_randls_57.json,http://54.235.29.9/FacialAge/BNav_EC2/DepthDuration/v2_depth_duration_MTurk/v2_DepthDuration_HTML.html#1,1,1366,619,1366,768,8-29-2023,12-54-49,111,depth_duration_stimuli/000943_2014-06-09_19-31-07_260595134347_rgbf000128-resize_1/000943_2014-06-09_19-31-07_260595134347_rgbf000128-resize_1-target.png,83,1.9765,30,4700,69,meters,jsons/VE83_randls_57.json,1525069,1882843,19,Woman
111,340864,DepthScenes,duration_manipulation_targetAtFixation,jsons/VE83_randls_57.json,http://54.235.29.9/FacialAge/BNav_EC2/DepthDuration/v2_depth_duration_MTurk/v2_DepthDuration_HTML.html#1,1,1366,619,1366,768,8-29-2023,12-54-49,112,depth_duration_stimuli/000788_2014-06-08_22-34-36_260595134347_rgbf000131-resize_1/000788_2014-06-08_22-34-36_260595134347_rgbf000131-resize_1-target.png,83,3.359,30,4940,93,meters,jsons/VE83_randls_57.json,1525069,1882843,19,Woman
112,340864,DepthScenes,duration_manipulation_targetAtFixation,jsons/VE83_randls_57.json,http://54.235.29.9/FacialAge/BNav_EC2/DepthDuration/v2_depth_duration_MTurk/v2_DepthDuration_HTML.html#1,1,1366,619,1366,768,8-29-2023,12-54-49,113,depth_duration_stimuli/001235_2014-06-17_16-37-36_260595134347_rgbf000084-resize_4/001235_2014-06-17_16-37-36_260595134347_rgbf000084-resize_4-target.png,83,3.6605,45,12164,72,meters,jsons/VE83_randls_57.json,1525069,1882843,19,Woman
113,340864,DepthScenes,duration_manipulation_targetAtFixation,jsons/VE83_randls_57.json,http://54.235.29.9/FacialAge/BNav_EC2/DepthDuration/v2_depth_duration_MTurk/v2_DepthDuration_HTML.html#1,1,1366,619,1366,768,8-29-2023,12-54-49,114,depth_duration_stimuli/002445_2014-06-28_20-32-16_260595134347_rgbf000029-resize_4/002445_2014-06-28_20-32-16_260595134347_rgbf000029-resize_4-target.png,83,2.5315,30,22801,99,meters,jsons/VE83_randls_57.json,1525069,1882843,19,Woman
114,340864,DepthScenes,duration_manipulation_targetAtFixation,jsons/VE83_randls_57.json,http://54.235.29.9/FacialAge/BNav_EC2/DepthDuration/v2_depth_duration_MTurk/v2_DepthDuration_HTML.html#1,1,1366,619,1366,768,8-29-2023,12-54-49,115,depth_duration_stimuli/000780_2014-06-08_22-28-29_260595134347_rgbf000126-resize_1/000780_2014-06-08_22-28-29_260595134347_rgbf000126-resize_1-target.png,83,3.3825,30,18321,75,meters,jsons/VE83_randls_57.json,1525069,1882843,19,Woman
115,340864,DepthScenes,duration_manipulation_targetAtFixation,jsons/VE83_randls_57.json,http://54.235.29.9/FacialAge/BNav_EC2/DepthDuration/v2_depth_duration_MTurk/v2_DepthDuration_HTML.html#1,1,1366,619,1366,768,8-29-2023,12-54-49,116,depth_duration_stimuli/001170_2014-06-17_15-43-44_260595134347_rgbf000096-resize_6/001170_2014-06-17_15-43-44_260595134347_rgbf000096-resize-original.jpg,83,1.1909999999999998,45,7834,67,meters,jsons/VE83_randls_57.json,1525069,1882843,19,Woman
116,340864,DepthScenes,duration_manipulation_targetAtFixation,jsons/VE83_randls_57.json,http://54.235.29.9/FacialAge/BNav_EC2/DepthDuration/v2_depth_duration_MTurk/v2_DepthDuration_HTML.html#1,1,1366,619,1366,768,8-29-2023,12-54-49,117,depth_duration_stimuli/002570_2014-06-24_13-59-54_094959634447_rgbf000059-resize_0/002570_2014-06-24_13-59-54_094959634447_rgbf000059-resize_0-target.png,83,4.037,30,8502,75,meters,jsons/VE83_randls_57.json,1525069,1882843,19,Woman
117,340864,DepthScenes,duration_manipulation_targetAtFixation,jsons/VE83_randls_57.json,http://54.235.29.9/FacialAge/BNav_EC2/DepthDuration/v2_depth_duration_MTurk/v2_DepthDuration_HTML.html#1,1,1366,619,1366,768,8-29-2023,12-54-49,118,depth_duration_stimuli/002467_2014-06-28_20-38-07_260595134347_rgbf000026-resize_2/002467_2014-06-28_20-38-07_260595134347_rgbf000026-resize_2-target.png,83,4.742,62,16094,84,meters,jsons/VE83_randls_57.json,1525069,1882843,19,Woman
118,340864,DepthScenes,duration_manipulation_targetAtFixation,jsons/VE83_randls_57.json,http://54.235.29.9/FacialAge/BNav_EC2/DepthDuration/v2_depth_duration_MTurk/v2_DepthDuration_HTML.html#1,1,1366,619,1366,768,8-29-2023,12-54-49,119,depth_duration_stimuli/002549_2014-06-24_13-41-39_094959634447_rgbf000022-resize_3/002549_2014-06-24_13-41-39_094959634447_rgbf000022-resize_3-target.png,83,1.476,31,5539,83,meters,jsons/VE83_randls_57.json,1525069,1882843,19,Woman
119,340864,DepthScenes,duration_manipulation_targetAtFixation,jsons/VE83_randls_57.json,http://54.235.29.9/FacialAge/BNav_EC2/DepthDuration/v2_depth_duration_MTurk/v2_DepthDuration_HTML.html#1,1,1366,619,1366,768,8-29-2023,12-54-49,120,depth_duration_stimuli/002750_2014-06-22_19-08-03_094959634447_rgbf000094-resize_4/002750_2014-06-22_19-08-03_094959634447_rgbf000094-resize_4-target.png,83,2.354,52,5339,80,meters,jsons/VE83_randls_57.json,1525069,1882843,19,Woman
120,340864,DepthScenes,duration_manipulation_targetAtFixation,jsons/VE83_randls_57.json,http://54.235.29.9/FacialAge/BNav_EC2/DepthDuration/v2_depth_duration_MTurk/v2_DepthDuration_HTML.html#1,1,1366,619,1366,768,8-29-2023,12-54-49,121,depth_duration_stimuli/000469_2014-06-09_19-42-10_260595134347_rgbf000081-resize_1/000469_2014-06-09_19-42-10_260595134347_rgbf000081-resize_1-target.png,83,1.652,20,145571,83,meters,jsons/VE83_randls_57.json,1525069,1882843,19,Woman
121,340864,DepthScenes,duration_manipulation_targetAtFixation,jsons/VE83_randls_57.json,http://54.235.29.9/FacialAge/BNav_EC2/DepthDuration/v2_depth_duration_MTurk/v2_DepthDuration_HTML.html#1,1,1366,619,1366,768,8-29-2023,12-54-49,122,depth_duration_stimuli/000483_2014-06-09_20-41-45_260595134347_rgbf000116-resize_4/000483_2014-06-09_20-41-45_260595134347_rgbf000116-resize_4-target.png,83,1.337,20,60200,79,meters,jsons/VE83_randls_57.json,1525069,1882843,19,Woman
122,340864,DepthScenes,duration_manipulation_targetAtFixation,jsons/VE83_randls_57.json,http://54.235.29.9/FacialAge/BNav_EC2/DepthDuration/v2_depth_duration_MTurk/v2_DepthDuration_HTML.html#1,1,1366,619,1366,768,8-29-2023,12-54-49,123,depth_duration_stimuli/001244_2014-06-17_16-47-45_260595134347_rgbf000030-resize_4/001244_2014-06-17_16-47-45_260595134347_rgbf000030-resize_4-target.png,83,2.0425,30,12752,90,meters,jsons/VE83_randls_57.json,1525069,1882843,19,Woman
123,340864,DepthScenes,duration_manipulation_targetAtFixation,jsons/VE83_randls_57.json,http://54.235.29.9/FacialAge/BNav_EC2/DepthDuration/v2_depth_duration_MTurk/v2_DepthDuration_HTML.html#1,1,1366,619,1366,768,8-29-2023,12-54-49,124,depth_duration_stimuli/003495_2014-05-21_16-01-51_094959634447_rgbf000100-resize_3/003495_2014-05-21_16-01-51_094959634447_rgbf000100-resize_3-target.png,83,1.6255,42,6888,74,meters,jsons/VE83_randls_57.json,1525069,1882843,19,Woman
124,340864,DepthScenes,duration_manipulation_targetAtFixation,jsons/VE83_randls_57.json,http://54.235.29.9/FacialAge/BNav_EC2/DepthDuration/v2_depth_duration_MTurk/v2_DepthDuration_HTML.html#1,1,1366,619,1366,768,8-29-2023,12-54-49,125,depth_duration_stimuli/001056_2014-06-08_18-46-44_260595134347_rgbf000068-resize_0/001056_2014-06-08_18-46-44_260595134347_rgbf000068-resize_0-target.png,83,2.6625,30,4338,79,meters,jsons/VE83_randls_57.json,1525069,1882843,19,Woman
125,340864,DepthScenes,duration_manipulation_targetAtFixation,jsons/VE83_randls_57.json,http://54.235.29.9/FacialAge/BNav_EC2/DepthDuration/v2_depth_duration_MTurk/v2_DepthDuration_HTML.html#1,1,1366,619,1366,768,8-29-2023,12-54-49,126,depth_duration_stimuli/002199_2014-06-28_18-33-56_260595134347_rgbf000074-resize_0/002199_2014-06-28_18-33-56_260595134347_rgbf000074-resize_0-target.png,83,1.996,30,9841,83,meters,jsons/VE83_randls_57.json,1525069,1882843,19,Woman
126,340864,DepthScenes,duration_manipulation_targetAtFixation,jsons/VE83_randls_57.json,http://54.235.29.9/FacialAge/BNav_EC2/DepthDuration/v2_depth_duration_MTurk/v2_DepthDuration_HTML.html#1,1,1366,619,1366,768,8-29-2023,12-54-49,127,depth_duration_stimuli/001092_2014-06-15_17-34-58_260595134347_rgbf000171-resize_3/001092_2014-06-15_17-34-58_260595134347_rgbf000171-resize_3-target.png,83,2.6935,10,25687,75,meters,jsons/VE83_randls_57.json,1525069,1882843,19,Woman
127,340864,DepthScenes,duration_manipulation_targetAtFixation,jsons/VE83_randls_57.json,http://54.235.29.9/FacialAge/BNav_EC2/DepthDuration/v2_depth_duration_MTurk/v2_DepthDuration_HTML.html#1,1,1366,619,1366,768,8-29-2023,12-54-49,128,depth_duration_stimuli/002545_2014-06-24_13-38-53_094959634447_rgbf000080-resize_4/002545_2014-06-24_13-38-53_094959634447_rgbf000080-resize_4-target.png,83,1.9205,62,4600,85,meters,jsons/VE83_randls_57.json,1525069,1882843,19,Woman
128,340864,DepthScenes,duration_manipulation_targetAtFixation,jsons/VE83_randls_57.json,http://54.235.29.9/FacialAge/BNav_EC2/DepthDuration/v2_depth_duration_MTurk/v2_DepthDuration_HTML.html#1,1,1366,619,1366,768,8-29-2023,12-54-49,129,depth_duration_stimuli/002788_2014-06-22_19-36-03_094959634447_rgbf000088-resize_2/002788_2014-06-22_19-36-03_094959634447_rgbf000088-resize_2-target.png,83,1.6465,30,12352,85,meters,jsons/VE83_randls_57.json,1525069,1882843,19,Woman
129,340864,DepthScenes,duration_manipulation_targetAtFixation,jsons/VE83_randls_57.json,http://54.235.29.9/FacialAge/BNav_EC2/DepthDuration/v2_depth_duration_MTurk/v2_DepthDuration_HTML.html#1,1,1366,619,1366,768,8-29-2023,12-54-49,130,depth_duration_stimuli/000749_2014-06-08_21-55-06_260595134347_rgbf000070-resize_2/000749_2014-06-08_21-55-06_260595134347_rgbf000070-resize_2-target.png,83,2.331,0,6452,97,meters,jsons/VE83_randls_57.json,1525069,1882843,19,Woman
130,340864,DepthScenes,duration_manipulation_targetAtFixation,jsons/VE83_randls_57.json,http://54.235.29.9/FacialAge/BNav_EC2/DepthDuration/v2_depth_duration_MTurk/v2_DepthDuration_HTML.html#1,1,1366,619,1366,768,8-29-2023,12-54-49,131,depth_duration_stimuli/002725_2014-06-22_11-47-51_094959634447_rgbf000070-resize_1/002725_2014-06-22_11-47-51_094959634447_rgbf000070-resize_1-target.png,83,2.195,20,53772,99,meters,jsons/VE83_randls_57.json,1525069,1882843,19,Woman
131,340864,DepthScenes,duration_manipulation_targetAtFixation,jsons/VE83_randls_57.json,http://54.235.29.9/FacialAge/BNav_EC2/DepthDuration/v2_depth_duration_MTurk/v2_DepthDuration_HTML.html#1,1,1366,619,1366,768,8-29-2023,12-54-49,132,depth_duration_stimuli/002344_2014-06-28_20-06-29_260595134347_rgbf000030-resize_1/002344_2014-06-28_20-06-29_260595134347_rgbf000030-resize_1-target.png,83,1.5795,30,6597,65,meters,jsons/VE83_randls_57.json,1525069,1882843,19,Woman
132,340864,DepthScenes,duration_manipulation_targetAtFixation,jsons/VE83_randls_57.json,http://54.235.29.9/FacialAge/BNav_EC2/DepthDuration/v2_depth_duration_MTurk/v2_DepthDuration_HTML.html#1,1,1366,619,1366,768,8-29-2023,12-54-49,133,depth_duration_stimuli/001167_2014-06-17_15-38-07_260595134347_rgbf000108-resize_0/001167_2014-06-17_15-38-07_260595134347_rgbf000108-resize_0-target.png,83,1.8505,42,4172,84,meters,jsons/VE83_randls_57.json,1525069,1882843,19,Woman
133,340864,DepthScenes,duration_manipulation_targetAtFixation,jsons/VE83_randls_57.json,http://54.235.29.9/FacialAge/BNav_EC2/DepthDuration/v2_depth_duration_MTurk/v2_DepthDuration_HTML.html#1,1,1366,619,1366,768,8-29-2023,12-54-49,134,depth_duration_stimuli/003587_2014-05-23_16-48-02_094959634447_rgbf002384-resize_2/003587_2014-05-23_16-48-02_094959634447_rgbf002384-resize_2-target.png,83,1.357,30,4229,90,meters,jsons/VE83_randls_57.json,1525069,1882843,19,Woman
134,340864,DepthScenes,duration_manipulation_targetAtFixation,jsons/VE83_randls_57.json,http://54.235.29.9/FacialAge/BNav_EC2/DepthDuration/v2_depth_duration_MTurk/v2_DepthDuration_HTML.html#1,1,1366,619,1366,768,8-29-2023,12-54-49,135,depth_duration_stimuli/002072_2014-06-24_21-48-06_260595134347_rgbf000115-resize_0/002072_2014-06-24_21-48-06_260595134347_rgbf000115-resize-original.jpg,83,4.702,42,7300,92,meters,jsons/VE83_randls_57.json,1525069,1882843,19,Woman
135,340864,DepthScenes,duration_manipulation_targetAtFixation,jsons/VE83_randls_57.json,http://54.235.29.9/FacialAge/BNav_EC2/DepthDuration/v2_depth_duration_MTurk/v2_DepthDuration_HTML.html#1,1,1366,619,1366,768,8-29-2023,12-54-49,136,depth_duration_stimuli/001164_2014-06-17_15-35-46_260595134347_rgbf000085-resize_3/001164_2014-06-17_15-35-46_260595134347_rgbf000085-resize_3-target.png,83,2.354,32,11573,83,meters,jsons/VE83_randls_57.json,1525069,1882843,19,Woman
136,340864,DepthScenes,duration_manipulation_targetAtFixation,jsons/VE83_randls_57.json,http://54.235.29.9/FacialAge/BNav_EC2/DepthDuration/v2_depth_duration_MTurk/v2_DepthDuration_HTML.html#1,1,1366,619,1366,768,8-29-2023,12-54-49,137,depth_duration_stimuli/001136_2014-06-17_15-19-41_260595134347_rgbf000076-resize_3/001136_2014-06-17_15-19-41_260595134347_rgbf000076-resize_3-target.png,83,1.8655,30,23156,82,meters,jsons/VE83_randls_57.json,1525069,1882843,19,Woman
137,340864,DepthScenes,duration_manipulation_targetAtFixation,jsons/VE83_randls_57.json,http://54.235.29.9/FacialAge/BNav_EC2/DepthDuration/v2_depth_duration_MTurk/v2_DepthDuration_HTML.html#1,1,1366,619,1366,768,8-29-2023,12-54-49,138,depth_duration_stimuli/001066_2014-06-08_22-03-20_260595134347_rgbf000066-resize_4/001066_2014-06-08_22-03-20_260595134347_rgbf000066-resize_4-target.png,83,4.2330000000000005,42,8786,95,meters,jsons/VE83_randls_57.json,1525069,1882843,19,Woman
138,340864,DepthScenes,duration_manipulation_targetAtFixation,jsons/VE83_randls_57.json,http://54.235.29.9/FacialAge/BNav_EC2/DepthDuration/v2_depth_duration_MTurk/v2_DepthDuration_HTML.html#1,1,1366,619,1366,768,8-29-2023,12-54-49,139,depth_duration_stimuli/000742_2014-06-08_18-48-09_260595134347_rgbf000164-resize_4/000742_2014-06-08_18-48-09_260595134347_rgbf000164-resize_4-target.png,83,4.632,20,6121,63,meters,jsons/VE83_randls_57.json,1525069,1882843,19,Woman
139,340864,DepthScenes,duration_manipulation_targetAtFixation,jsons/VE83_randls_57.json,http://54.235.29.9/FacialAge/BNav_EC2/DepthDuration/v2_depth_duration_MTurk/v2_DepthDuration_HTML.html#1,1,1366,619,1366,768,8-29-2023,12-54-49,140,depth_duration_stimuli/003621_2014-05-23_18-06-08_094959634447_rgbf000101-resize_1/003621_2014-05-23_18-06-08_094959634447_rgbf000101-resize_1-target.png,83,3.9835,20,6714,84,meters,jsons/VE83_randls_57.json,1525069,1882843,19,Woman
140,340864,DepthScenes,duration_manipulation_targetAtFixation,jsons/VE83_randls_57.json,http://54.235.29.9/FacialAge/BNav_EC2/DepthDuration/v2_depth_duration_MTurk/v2_DepthDuration_HTML.html#1,1,1366,619,1366,768,8-29-2023,12-54-49,141,depth_duration_stimuli/001584_2014-06-20_11-07-43_260595134347_rgbf000002-resize_1/001584_2014-06-20_11-07-43_260595134347_rgbf000002-resize_1-target.png,83,3.53,10,7312,82,meters,jsons/VE83_randls_57.json,1525069,1882843,19,Woman
141,340864,DepthScenes,duration_manipulation_targetAtFixation,jsons/VE83_randls_57.json,http://54.235.29.9/FacialAge/BNav_EC2/DepthDuration/v2_depth_duration_MTurk/v2_DepthDuration_HTML.html#1,1,1366,619,1366,768,8-29-2023,12-54-49,142,depth_duration_stimuli/001449_2014-06-19_17-01-27_260595134347_rgbf000116-resize_2/001449_2014-06-19_17-01-27_260595134347_rgbf000116-resize_2-target.png,83,3.452,50,3944,78,meters,jsons/VE83_randls_57.json,1525069,1882843,19,Woman
142,340864,DepthScenes,duration_manipulation_targetAtFixation,jsons/VE83_randls_57.json,http://54.235.29.9/FacialAge/BNav_EC2/DepthDuration/v2_depth_duration_MTurk/v2_DepthDuration_HTML.html#1,1,1366,619,1366,768,8-29-2023,12-54-49,143,depth_duration_stimuli/001450_2014-06-19_17-02-03_260595134347_rgbf000203-resize_4/001450_2014-06-19_17-02-03_260595134347_rgbf000203-resize_4-target.png,83,4.0106666666667,40,4533,81,meters,jsons/VE83_randls_57.json,1525069,1882843,19,Woman
143,340864,DepthScenes,duration_manipulation_targetAtFixation,jsons/VE83_randls_57.json,http://54.235.29.9/FacialAge/BNav_EC2/DepthDuration/v2_depth_duration_MTurk/v2_DepthDuration_HTML.html#1,1,1366,619,1366,768,8-29-2023,12-54-49,144,depth_duration_stimuli/001133_2014-06-17_14-49-16_260595134347_rgbf000100-resize_0/001133_2014-06-17_14-49-16_260595134347_rgbf000100-resize_0-target.png,83,4.2115,20,4431,80,meters,jsons/VE83_randls_57.json,1525069,1882843,19,Woman
144,340864,DepthScenes,duration_manipulation_targetAtFixation,jsons/VE83_randls_57.json,http://54.235.29.9/FacialAge/BNav_EC2/DepthDuration/v2_depth_duration_MTurk/v2_DepthDuration_HTML.html#1,1,1366,619,1366,768,8-29-2023,12-54-49,145,depth_duration_stimuli/001132_2014-06-17_14-48-54_260595134347_rgbf000100-resize_2/001132_2014-06-17_14-48-54_260595134347_rgbf000100-resize_2-target.png,83,3.753,40,3682,79,meters,jsons/VE83_randls_57.json,1525069,1882843,19,Woman
145,340864,DepthScenes,duration_manipulation_targetAtFixation,jsons/VE83_randls_57.json,http://54.235.29.9/FacialAge/BNav_EC2/DepthDuration/v2_depth_duration_MTurk/v2_DepthDuration_HTML.html#1,1,1366,619,1366,768,8-29-2023,12-54-49,146,depth_duration_stimuli/001498_2014-06-19_17-45-14_260595134347_rgbf000129-resize_4/001498_2014-06-19_17-45-14_260595134347_rgbf000129-resize-original.jpg,83,1.4075,20,43639,93,meters,jsons/VE83_randls_57.json,1525069,1882843,19,Woman
146,340864,DepthScenes,duration_manipulation_targetAtFixation,jsons/VE83_randls_57.json,http://54.235.29.9/FacialAge/BNav_EC2/DepthDuration/v2_depth_duration_MTurk/v2_DepthDuration_HTML.html#1,1,1366,619,1366,768,8-29-2023,12-54-49,147,depth_duration_stimuli/000692_2014-06-08_13-09-42_260595134347_rgbf000199-resize_2/000692_2014-06-08_13-09-42_260595134347_rgbf000199-resize_2-target.png,83,3.661,20,20891,78,meters,jsons/VE83_randls_57.json,1525069,1882843,19,Woman
147,340864,DepthScenes,duration_manipulation_targetAtFixation,jsons/VE83_randls_57.json,http://54.235.29.9/FacialAge/BNav_EC2/DepthDuration/v2_depth_duration_MTurk/v2_DepthDuration_HTML.html#1,1,1366,619,1366,768,8-29-2023,12-54-49,148,depth_duration_stimuli/001094_2014-06-15_17-36-00_260595134347_rgbf000205-resize_0/001094_2014-06-15_17-36-00_260595134347_rgbf000205-resize_0-target.png,83,4.2175,30,8151,83,meters,jsons/VE83_randls_57.json,1525069,1882843,19,Woman
148,340864,DepthScenes,duration_manipulation_targetAtFixation,jsons/VE83_randls_57.json,http://54.235.29.9/FacialAge/BNav_EC2/DepthDuration/v2_depth_duration_MTurk/v2_DepthDuration_HTML.html#1,1,1366,619,1366,768,8-29-2023,12-54-49,149,depth_duration_stimuli/000642_2014-06-08_16-59-25_260595134347_rgbf000098-resize_2/000642_2014-06-08_16-59-25_260595134347_rgbf000098-resize_2-target.png,83,2.8815,45,4107,82,meters,jsons/VE83_randls_57.json,1525069,1882843,19,Woman
149,340864,DepthScenes,duration_manipulation_targetAtFixation,jsons/VE83_randls_57.json,http://54.235.29.9/FacialAge/BNav_EC2/DepthDuration/v2_depth_duration_MTurk/v2_DepthDuration_HTML.html#1,1,1366,619,1366,768,8-29-2023,12-54-49,150,depth_duration_stimuli/002425_2014-06-28_20-27-29_260595134347_rgbf000031-resize_8/002425_2014-06-28_20-27-29_260595134347_rgbf000031-resize_8-target.png,83,3.8960000000000004,20,4244,86,meters,jsons/VE83_randls_57.json,1525069,1882843,19,Woman
150,340864,DepthScenes,duration_manipulation_targetAtFixation,jsons/VE83_randls_57.json,http://54.235.29.9/FacialAge/BNav_EC2/DepthDuration/v2_depth_duration_MTurk/v2_DepthDuration_HTML.html#1,1,1366,619,1366,768,8-29-2023,12-54-49,151,depth_duration_stimuli/002989_2014-06-15_12-25-03_094959634447_rgbf000150-resize_3/002989_2014-06-15_12-25-03_094959634447_rgbf000150-resize_3-target.png,83,4.1975,30,7905,83,meters,jsons/VE83_randls_57.json,1525069,1882843,19,Woman
151,340864,DepthScenes,duration_manipulation_targetAtFixation,jsons/VE83_randls_57.json,http://54.235.29.9/FacialAge/BNav_EC2/DepthDuration/v2_depth_duration_MTurk/v2_DepthDuration_HTML.html#1,1,1366,619,1366,768,8-29-2023,12-54-49,152,depth_duration_stimuli/000866_2014-06-09_20-45-42_260595134347_rgbf000139-resize_1/000866_2014-06-09_20-45-42_260595134347_rgbf000139-resize_1-target.png,83,3.2155,10,5300,67,meters,jsons/VE83_randls_57.json,1525069,1882843,19,Woman
152,340864,DepthScenes,duration_manipulation_targetAtFixation,jsons/VE83_randls_57.json,http://54.235.29.9/FacialAge/BNav_EC2/DepthDuration/v2_depth_duration_MTurk/v2_DepthDuration_HTML.html#1,1,1366,619,1366,768,8-29-2023,12-54-49,153,depth_duration_stimuli/000758_2014-06-08_22-05-08_260595134347_rgbf000085-resize_0/000758_2014-06-08_22-05-08_260595134347_rgbf000085-resize_0-target.png,83,3.3810000000000002,42,6160,85,meters,jsons/VE83_randls_57.json,1525069,1882843,19,Woman
153,340864,DepthScenes,duration_manipulation_targetAtFixation,jsons/VE83_randls_57.json,http://54.235.29.9/FacialAge/BNav_EC2/DepthDuration/v2_depth_duration_MTurk/v2_DepthDuration_HTML.html#1,1,1366,619,1366,768,8-29-2023,12-54-49,154,depth_duration_stimuli/000854_2014-06-09_19-43-13_260595134347_rgbf000066-resize_0/000854_2014-06-09_19-43-13_260595134347_rgbf000066-resize_0-target.png,83,3.068,20,5424,99,meters,jsons/VE83_randls_57.json,1525069,1882843,19,Woman
154,340864,DepthScenes,duration_manipulation_targetAtFixation,jsons/VE83_randls_57.json,http://54.235.29.9/FacialAge/BNav_EC2/DepthDuration/v2_depth_duration_MTurk/v2_DepthDuration_HTML.html#1,1,1366,619,1366,768,8-29-2023,12-54-49,155,depth_duration_stimuli/000736_2014-06-08_18-24-15_260595134347_rgbf000206-resize_3/000736_2014-06-08_18-24-15_260595134347_rgbf000206-resize_3-target.png,83,3.515,20,16834,84,meters,jsons/VE83_randls_57.json,1525069,1882843,19,Woman
155,340864,DepthScenes,duration_manipulation_targetAtFixation,jsons/VE83_randls_57.json,http://54.235.29.9/FacialAge/BNav_EC2/DepthDuration/v2_depth_duration_MTurk/v2_DepthDuration_HTML.html#1,1,1366,619,1366,768,8-29-2023,12-54-49,156,depth_duration_stimuli/000137_2014-05-20_17-04-49_260595134347_rgbf000120-resize_1/000137_2014-05-20_17-04-49_260595134347_rgbf000120-resize_1-target.png,83,3.786,30,10751,83,meters,jsons/VE83_randls_57.json,1525069,1882843,19,Woman
156,340864,DepthScenes,duration_manipulation_targetAtFixation,jsons/VE83_randls_57.json,http://54.235.29.9/FacialAge/BNav_EC2/DepthDuration/v2_depth_duration_MTurk/v2_DepthDuration_HTML.html#1,1,1366,619,1366,768,8-29-2023,12-54-49,157,depth_duration_stimuli/002213_2014-06-28_18-37-58_260595134347_rgbf000055-resize_1/002213_2014-06-28_18-37-58_260595134347_rgbf000055-resize_1-target.png,83,3.62,12,5852,65,meters,jsons/VE83_randls_57.json,1525069,1882843,19,Woman
157,340864,DepthScenes,duration_manipulation_targetAtFixation,jsons/VE83_randls_57.json,http://54.235.29.9/FacialAge/BNav_EC2/DepthDuration/v2_depth_duration_MTurk/v2_DepthDuration_HTML.html#1,1,1366,619,1366,768,8-29-2023,12-54-49,158,depth_duration_stimuli/000691_2014-06-08_13-08-50_260595134347_rgbf000132-resize_3/000691_2014-06-08_13-08-50_260595134347_rgbf000132-resize_3-target.png,83,4.1530000000000005,25,6777,95,meters,jsons/VE83_randls_57.json,1525069,1882843,19,Woman
158,340864,DepthScenes,duration_manipulation_targetAtFixation,jsons/VE83_randls_57.json,http://54.235.29.9/FacialAge/BNav_EC2/DepthDuration/v2_depth_duration_MTurk/v2_DepthDuration_HTML.html#1,1,1366,619,1366,768,8-29-2023,12-54-49,159,depth_duration_stimuli/002964_2014-06-08_17-46-11_094959634447_rgbf000091-resize_4/002964_2014-06-08_17-46-11_094959634447_rgbf000091-resize_4-target.png,83,1.6909999999999998,30,3946,66,meters,jsons/VE83_randls_57.json,1525069,1882843,19,Woman
159,340864,DepthScenes,duration_manipulation_targetAtFixation,jsons/VE83_randls_57.json,http://54.235.29.9/FacialAge/BNav_EC2/DepthDuration/v2_depth_duration_MTurk/v2_DepthDuration_HTML.html#1,1,1366,619,1366,768,8-29-2023,12-54-49,160,depth_duration_stimuli/002136_2014-06-25_21-18-03_260595134347_rgbf000109-resize_3/002136_2014-06-25_21-18-03_260595134347_rgbf000109-resize_3-target.png,83,1.9569999999999999,10,4129,89,meters,jsons/VE83_randls_57.json,1525069,1882843,19,Woman
160,340864,DepthScenes,duration_manipulation_targetAtFixation,jsons/VE83_randls_57.json,http://54.235.29.9/FacialAge/BNav_EC2/DepthDuration/v2_depth_duration_MTurk/v2_DepthDuration_HTML.html#1,1,1366,619,1366,768,8-29-2023,12-54-49,161,depth_duration_stimuli/000917_2014-06-09_22-45-29_260595134347_rgbf000149-resize_3/000917_2014-06-09_22-45-29_260595134347_rgbf000149-resize_3-target.png,83,4.1865,20,3790,90,meters,jsons/VE83_randls_57.json,1525069,1882843,19,Woman
161,340864,DepthScenes,duration_manipulation_targetAtFixation,jsons/VE83_randls_57.json,http://54.235.29.9/FacialAge/BNav_EC2/DepthDuration/v2_depth_duration_MTurk/v2_DepthDuration_HTML.html#1,1,1366,619,1366,768,8-29-2023,12-54-49,162,depth_duration_stimuli/002323_2014-06-28_20-01-54_260595134347_rgbf000051-resize_4/002323_2014-06-28_20-01-54_260595134347_rgbf000051-resize_4-target.png,83,3.7310000000000003,30,3489,82,meters,jsons/VE83_randls_57.json,1525069,1882843,19,Woman
162,340864,DepthScenes,duration_manipulation_targetAtFixation,jsons/VE83_randls_57.json,http://54.235.29.9/FacialAge/BNav_EC2/DepthDuration/v2_depth_duration_MTurk/v2_DepthDuration_HTML.html#1,1,1366,619,1366,768,8-29-2023,12-54-49,163,depth_duration_stimuli/002043_2014-06-24_20-29-38_260595134347_rgbf000039-resize_4/002043_2014-06-24_20-29-38_260595134347_rgbf000039-resize_4-target.png,83,2.8435,32,3957,99,meters,jsons/VE83_randls_57.json,1525069,1882843,19,Woman
163,340864,DepthScenes,duration_manipulation_targetAtFixation,jsons/VE83_randls_57.json,http://54.235.29.9/FacialAge/BNav_EC2/DepthDuration/v2_depth_duration_MTurk/v2_DepthDuration_HTML.html#1,1,1366,619,1366,768,8-29-2023,12-54-49,164,depth_duration_stimuli/003048_2014-06-15_13-49-43_094959634447_rgbf000150-resize_1/003048_2014-06-15_13-49-43_094959634447_rgbf000150-resize_1-target.png,83,4.0035,36,6073,90,meters,jsons/VE83_randls_57.json,1525069,1882843,19,Woman
