,subjID,experimentName,versionName,sequenceName,url,selected_row,windowWidth,windowHeight,screenWidth,screenHeight,startDate,startTime,trial,stimulus,duration,actual_depth,depth_estimate,trial_RT,log_sceneDuration,unitSelection,seq_filepath,experimentTime,totalTime,age,gender
0,342816,DepthScenes,duration_manipulation_targetAtFixation,jsons/VE125_randls_37_rotated.json,http://54.235.29.9/FacialAge/BNav_EC2/DepthDuration/v2_depth_duration_MTurk/v2_DepthDuration_HTML.html#46,46,1364,768,1364,768,8-21-2022,6-51-3,1,depth_duration_stimuli/000191_2014-05-12_17-07-38_260595134347_rgbf000199-resize_0/000191_2014-05-12_17-07-38_260595134347_rgbf000199-resize_0-target.png,125,3.7995,5,8291,124,feet,jsons/VE125_randls_37_rotated.json,1781571,1948597,35,Woman
1,342816,DepthScenes,duration_manipulation_targetAtFixation,jsons/VE125_randls_37_rotated.json,http://54.235.29.9/FacialAge/BNav_EC2/DepthDuration/v2_depth_duration_MTurk/v2_DepthDuration_HTML.html#46,46,1364,768,1364,768,8-21-2022,6-51-3,2,depth_duration_stimuli/000493_2014-06-09_21-01-18_260595134347_rgbf000196-resize_3/000493_2014-06-09_21-01-18_260595134347_rgbf000196-resize_3-target.png,125,3.44,5,4410,124,feet,jsons/VE125_randls_37_rotated.json,1781571,1948597,35,Woman
2,342816,DepthScenes,duration_manipulation_targetAtFixation,jsons/VE125_randls_37_rotated.json,http://54.235.29.9/FacialAge/BNav_EC2/DepthDuration/v2_depth_duration_MTurk/v2_DepthDuration_HTML.html#46,46,1364,768,1364,768,8-21-2022,6-51-3,3,depth_duration_stimuli/003048_2014-06-15_13-49-43_094959634447_rgbf000150-resize_1/003048_2014-06-15_13-49-43_094959634447_rgbf000150-resize_1-target.png,125,4.0035,7,7138,124,feet,jsons/VE125_randls_37_rotated.json,1781571,1948597,35,Woman
3,342816,DepthScenes,duration_manipulation_targetAtFixation,jsons/VE125_randls_37_rotated.json,http://54.235.29.9/FacialAge/BNav_EC2/DepthDuration/v2_depth_duration_MTurk/v2_DepthDuration_HTML.html#46,46,1364,768,1364,768,8-21-2022,6-51-3,4,depth_duration_stimuli/002043_2014-06-24_20-29-38_260595134347_rgbf000039-resize_4/002043_2014-06-24_20-29-38_260595134347_rgbf000039-resize_4-target.png,125,2.8435,6,7819,124,feet,jsons/VE125_randls_37_rotated.json,1781571,1948597,35,Woman
4,342816,DepthScenes,duration_manipulation_targetAtFixation,jsons/VE125_randls_37_rotated.json,http://54.235.29.9/FacialAge/BNav_EC2/DepthDuration/v2_depth_duration_MTurk/v2_DepthDuration_HTML.html#46,46,1364,768,1364,768,8-21-2022,6-51-3,5,depth_duration_stimuli/002199_2014-06-28_18-33-56_260595134347_rgbf000074-resize_0/002199_2014-06-28_18-33-56_260595134347_rgbf000074-resize_0-target.png,125,1.996,1,7642,124,feet,jsons/VE125_randls_37_rotated.json,1781571,1948597,35,Woman
5,342816,DepthScenes,duration_manipulation_targetAtFixation,jsons/VE125_randls_37_rotated.json,http://54.235.29.9/FacialAge/BNav_EC2/DepthDuration/v2_depth_duration_MTurk/v2_DepthDuration_HTML.html#46,46,1364,768,1364,768,8-21-2022,6-51-3,6,depth_duration_stimuli/001056_2014-06-08_18-46-44_260595134347_rgbf000068-resize_0/001056_2014-06-08_18-46-44_260595134347_rgbf000068-resize_0-target.png,125,2.6625,4,4139,125,feet,jsons/VE125_randls_37_rotated.json,1781571,1948597,35,Woman
6,342816,DepthScenes,duration_manipulation_targetAtFixation,jsons/VE125_randls_37_rotated.json,http://54.235.29.9/FacialAge/BNav_EC2/DepthDuration/v2_depth_duration_MTurk/v2_DepthDuration_HTML.html#46,46,1364,768,1364,768,8-21-2022,6-51-3,7,depth_duration_stimuli/003423_2014-05-21_10-23-26_094959634447_rgbf002665-resize_2/003423_2014-05-21_10-23-26_094959634447_rgbf002665-resize_2-target.png,125,3.2575,5,6202,124,feet,jsons/VE125_randls_37_rotated.json,1781571,1948597,35,Woman
7,342816,DepthScenes,duration_manipulation_targetAtFixation,jsons/VE125_randls_37_rotated.json,http://54.235.29.9/FacialAge/BNav_EC2/DepthDuration/v2_depth_duration_MTurk/v2_DepthDuration_HTML.html#46,46,1364,768,1364,768,8-21-2022,6-51-3,8,depth_duration_stimuli/002905_2014-06-03_18-04-43_094959634447_rgbf000151-resize_2/002905_2014-06-03_18-04-43_094959634447_rgbf000151-resize_2-target.png,125,2.0295,4,8227,126,feet,jsons/VE125_randls_37_rotated.json,1781571,1948597,35,Woman
8,342816,DepthScenes,duration_manipulation_targetAtFixation,jsons/VE125_randls_37_rotated.json,http://54.235.29.9/FacialAge/BNav_EC2/DepthDuration/v2_depth_duration_MTurk/v2_DepthDuration_HTML.html#46,46,1364,768,1364,768,8-21-2022,6-51-3,9,depth_duration_stimuli/002425_2014-06-28_20-27-29_260595134347_rgbf000031-resize_8/002425_2014-06-28_20-27-29_260595134347_rgbf000031-resize_8-target.png,125,3.8960000000000004,8,7242,123,feet,jsons/VE125_randls_37_rotated.json,1781571,1948597,35,Woman
9,342816,DepthScenes,duration_manipulation_targetAtFixation,jsons/VE125_randls_37_rotated.json,http://54.235.29.9/FacialAge/BNav_EC2/DepthDuration/v2_depth_duration_MTurk/v2_DepthDuration_HTML.html#46,46,1364,768,1364,768,8-21-2022,6-51-3,10,depth_duration_stimuli/000642_2014-06-08_16-59-25_260595134347_rgbf000098-resize_2/000642_2014-06-08_16-59-25_260595134347_rgbf000098-resize_2-target.png,125,2.8815,4,4114,123,feet,jsons/VE125_randls_37_rotated.json,1781571,1948597,35,Woman
10,342816,DepthScenes,duration_manipulation_targetAtFixation,jsons/VE125_randls_37_rotated.json,http://54.235.29.9/FacialAge/BNav_EC2/DepthDuration/v2_depth_duration_MTurk/v2_DepthDuration_HTML.html#46,46,1364,768,1364,768,8-21-2022,6-51-3,11,depth_duration_stimuli/003010_2014-06-15_12-54-35_094959634447_rgbf000112-resize_0/003010_2014-06-15_12-54-35_094959634447_rgbf000112-resize_0-target.png,125,3.1185,5,6580,124,feet,jsons/VE125_randls_37_rotated.json,1781571,1948597,35,Woman
11,342816,DepthScenes,duration_manipulation_targetAtFixation,jsons/VE125_randls_37_rotated.json,http://54.235.29.9/FacialAge/BNav_EC2/DepthDuration/v2_depth_duration_MTurk/v2_DepthDuration_HTML.html#46,46,1364,768,1364,768,8-21-2022,6-51-3,12,depth_duration_stimuli/001810_2014-06-26_20-51-35_260595134347_rgbf000040-resize_3/001810_2014-06-26_20-51-35_260595134347_rgbf000040-resize_3-target.png,125,2.2525,3,6082,124,feet,jsons/VE125_randls_37_rotated.json,1781571,1948597,35,Woman
12,342816,DepthScenes,duration_manipulation_targetAtFixation,jsons/VE125_randls_37_rotated.json,http://54.235.29.9/FacialAge/BNav_EC2/DepthDuration/v2_depth_duration_MTurk/v2_DepthDuration_HTML.html#46,46,1364,768,1364,768,8-21-2022,6-51-3,13,depth_duration_stimuli/001132_2014-06-17_14-48-54_260595134347_rgbf000100-resize_2/001132_2014-06-17_14-48-54_260595134347_rgbf000100-resize_2-target.png,125,3.753,5,7219,123,feet,jsons/VE125_randls_37_rotated.json,1781571,1948597,35,Woman
13,342816,DepthScenes,duration_manipulation_targetAtFixation,jsons/VE125_randls_37_rotated.json,http://54.235.29.9/FacialAge/BNav_EC2/DepthDuration/v2_depth_duration_MTurk/v2_DepthDuration_HTML.html#46,46,1364,768,1364,768,8-21-2022,6-51-3,14,depth_duration_stimuli/001133_2014-06-17_14-49-16_260595134347_rgbf000100-resize_0/001133_2014-06-17_14-49-16_260595134347_rgbf000100-resize_0-target.png,125,4.2115,6,8666,124,feet,jsons/VE125_randls_37_rotated.json,1781571,1948597,35,Woman
14,342816,DepthScenes,duration_manipulation_targetAtFixation,jsons/VE125_randls_37_rotated.json,http://54.235.29.9/FacialAge/BNav_EC2/DepthDuration/v2_depth_duration_MTurk/v2_DepthDuration_HTML.html#46,46,1364,768,1364,768,8-21-2022,6-51-3,15,depth_duration_stimuli/000943_2014-06-09_19-31-07_260595134347_rgbf000128-resize_1/000943_2014-06-09_19-31-07_260595134347_rgbf000128-resize_1-target.png,125,1.9765,4,12699,124,feet,jsons/VE125_randls_37_rotated.json,1781571,1948597,35,Woman
15,342816,DepthScenes,duration_manipulation_targetAtFixation,jsons/VE125_randls_37_rotated.json,http://54.235.29.9/FacialAge/BNav_EC2/DepthDuration/v2_depth_duration_MTurk/v2_DepthDuration_HTML.html#46,46,1364,768,1364,768,8-21-2022,6-51-3,16,depth_duration_stimuli/003070_2014-06-15_14-58-27_094959634447_rgbf000150-resize_3/003070_2014-06-15_14-58-27_094959634447_rgbf000150-resize_3-target.png,125,2.9415,4,8913,124,feet,jsons/VE125_randls_37_rotated.json,1781571,1948597,35,Woman
16,342816,DepthScenes,duration_manipulation_targetAtFixation,jsons/VE125_randls_37_rotated.json,http://54.235.29.9/FacialAge/BNav_EC2/DepthDuration/v2_depth_duration_MTurk/v2_DepthDuration_HTML.html#46,46,1364,768,1364,768,8-21-2022,6-51-3,17,depth_duration_stimuli/003490_2014-05-21_15-50-11_094959634447_rgbf000101-resize_3/003490_2014-05-21_15-50-11_094959634447_rgbf000101-resize_3-target.png,125,3.6445,4,17190,125,feet,jsons/VE125_randls_37_rotated.json,1781571,1948597,35,Woman
17,342816,DepthScenes,duration_manipulation_targetAtFixation,jsons/VE125_randls_37_rotated.json,http://54.235.29.9/FacialAge/BNav_EC2/DepthDuration/v2_depth_duration_MTurk/v2_DepthDuration_HTML.html#46,46,1364,768,1364,768,8-21-2022,6-51-3,18,depth_duration_stimuli/001175_2014-06-17_15-45-55_260595134347_rgbf000129-resize_4/001175_2014-06-17_15-45-55_260595134347_rgbf000129-resize_4-target.png,125,4.255,5,7328,125,feet,jsons/VE125_randls_37_rotated.json,1781571,1948597,35,Woman
18,342816,DepthScenes,duration_manipulation_targetAtFixation,jsons/VE125_randls_37_rotated.json,http://54.235.29.9/FacialAge/BNav_EC2/DepthDuration/v2_depth_duration_MTurk/v2_DepthDuration_HTML.html#46,46,1364,768,1364,768,8-21-2022,6-51-3,19,depth_duration_stimuli/001498_2014-06-19_17-45-14_260595134347_rgbf000129-resize_4/001498_2014-06-19_17-45-14_260595134347_rgbf000129-resize-original.jpg,125,1.4075,0,11972,125,feet,jsons/VE125_randls_37_rotated.json,1781571,1948597,35,Woman
19,342816,DepthScenes,duration_manipulation_targetAtFixation,jsons/VE125_randls_37_rotated.json,http://54.235.29.9/FacialAge/BNav_EC2/DepthDuration/v2_depth_duration_MTurk/v2_DepthDuration_HTML.html#46,46,1364,768,1364,768,8-21-2022,6-51-3,20,depth_duration_stimuli/000780_2014-06-08_22-28-29_260595134347_rgbf000126-resize_1/000780_2014-06-08_22-28-29_260595134347_rgbf000126-resize_1-target.png,125,3.3825,4,8353,124,feet,jsons/VE125_randls_37_rotated.json,1781571,1948597,35,Woman
20,342816,DepthScenes,duration_manipulation_targetAtFixation,jsons/VE125_randls_37_rotated.json,http://54.235.29.9/FacialAge/BNav_EC2/DepthDuration/v2_depth_duration_MTurk/v2_DepthDuration_HTML.html#46,46,1364,768,1364,768,8-21-2022,6-51-3,21,depth_duration_stimuli/002445_2014-06-28_20-32-16_260595134347_rgbf000029-resize_4/002445_2014-06-28_20-32-16_260595134347_rgbf000029-resize_4-target.png,125,2.5315,4,5386,124,feet,jsons/VE125_randls_37_rotated.json,1781571,1948597,35,Woman
21,342816,DepthScenes,duration_manipulation_targetAtFixation,jsons/VE125_randls_37_rotated.json,http://54.235.29.9/FacialAge/BNav_EC2/DepthDuration/v2_depth_duration_MTurk/v2_DepthDuration_HTML.html#46,46,1364,768,1364,768,8-21-2022,6-51-3,22,depth_duration_stimuli/000457_2014-06-08_16-52-43_260595134347_rgbf000199-resize_1/000457_2014-06-08_16-52-43_260595134347_rgbf000199-resize_1-target.png,125,3.6489999999999996,4,15594,123,feet,jsons/VE125_randls_37_rotated.json,1781571,1948597,35,Woman
22,342816,DepthScenes,duration_manipulation_targetAtFixation,jsons/VE125_randls_37_rotated.json,http://54.235.29.9/FacialAge/BNav_EC2/DepthDuration/v2_depth_duration_MTurk/v2_DepthDuration_HTML.html#46,46,1364,768,1364,768,8-21-2022,6-51-3,23,depth_duration_stimuli/000929_2014-06-09_16-33-19_260595134347_rgbf000139-resize_0/000929_2014-06-09_16-33-19_260595134347_rgbf000139-resize_0-target.png,125,2.8680000000000003,4,4562,123,feet,jsons/VE125_randls_37_rotated.json,1781571,1948597,35,Woman
23,342816,DepthScenes,duration_manipulation_targetAtFixation,jsons/VE125_randls_37_rotated.json,http://54.235.29.9/FacialAge/BNav_EC2/DepthDuration/v2_depth_duration_MTurk/v2_DepthDuration_HTML.html#46,46,1364,768,1364,768,8-21-2022,6-51-3,24,depth_duration_stimuli/002344_2014-06-28_20-06-29_260595134347_rgbf000030-resize_1/002344_2014-06-28_20-06-29_260595134347_rgbf000030-resize_1-target.png,125,1.5795,4,53819,126,feet,jsons/VE125_randls_37_rotated.json,1781571,1948597,35,Woman
24,342816,DepthScenes,duration_manipulation_targetAtFixation,jsons/VE125_randls_37_rotated.json,http://54.235.29.9/FacialAge/BNav_EC2/DepthDuration/v2_depth_duration_MTurk/v2_DepthDuration_HTML.html#46,46,1364,768,1364,768,8-21-2022,6-51-3,25,depth_duration_stimuli/002725_2014-06-22_11-47-51_094959634447_rgbf000070-resize_1/002725_2014-06-22_11-47-51_094959634447_rgbf000070-resize_1-target.png,125,2.195,3,22042,125,feet,jsons/VE125_randls_37_rotated.json,1781571,1948597,35,Woman
25,342816,DepthScenes,duration_manipulation_targetAtFixation,jsons/VE125_randls_37_rotated.json,http://54.235.29.9/FacialAge/BNav_EC2/DepthDuration/v2_depth_duration_MTurk/v2_DepthDuration_HTML.html#46,46,1364,768,1364,768,8-21-2022,6-51-3,26,depth_duration_stimuli/001136_2014-06-17_15-19-41_260595134347_rgbf000076-resize_3/001136_2014-06-17_15-19-41_260595134347_rgbf000076-resize_3-target.png,125,1.8655,4,13857,124,feet,jsons/VE125_randls_37_rotated.json,1781571,1948597,35,Woman
26,342816,DepthScenes,duration_manipulation_targetAtFixation,jsons/VE125_randls_37_rotated.json,http://54.235.29.9/FacialAge/BNav_EC2/DepthDuration/v2_depth_duration_MTurk/v2_DepthDuration_HTML.html#46,46,1364,768,1364,768,8-21-2022,6-51-3,27,depth_duration_stimuli/001164_2014-06-17_15-35-46_260595134347_rgbf000085-resize_3/001164_2014-06-17_15-35-46_260595134347_rgbf000085-resize_3-target.png,125,2.354,3,12339,124,feet,jsons/VE125_randls_37_rotated.json,1781571,1948597,35,Woman
27,342816,DepthScenes,duration_manipulation_targetAtFixation,jsons/VE125_randls_37_rotated.json,http://54.235.29.9/FacialAge/BNav_EC2/DepthDuration/v2_depth_duration_MTurk/v2_DepthDuration_HTML.html#46,46,1364,768,1364,768,8-21-2022,6-51-3,28,depth_duration_stimuli/001094_2014-06-15_17-36-00_260595134347_rgbf000205-resize_0/001094_2014-06-15_17-36-00_260595134347_rgbf000205-resize_0-target.png,125,4.2175,5,9578,124,feet,jsons/VE125_randls_37_rotated.json,1781571,1948597,35,Woman
28,342816,DepthScenes,duration_manipulation_targetAtFixation,jsons/VE125_randls_37_rotated.json,http://54.235.29.9/FacialAge/BNav_EC2/DepthDuration/v2_depth_duration_MTurk/v2_DepthDuration_HTML.html#46,46,1364,768,1364,768,8-21-2022,6-51-3,29,depth_duration_stimuli/000692_2014-06-08_13-09-42_260595134347_rgbf000199-resize_2/000692_2014-06-08_13-09-42_260595134347_rgbf000199-resize_2-target.png,125,3.661,4,13259,123,feet,jsons/VE125_randls_37_rotated.json,1781571,1948597,35,Woman
29,342816,DepthScenes,duration_manipulation_targetAtFixation,jsons/VE125_randls_37_rotated.json,http://54.235.29.9/FacialAge/BNav_EC2/DepthDuration/v2_depth_duration_MTurk/v2_DepthDuration_HTML.html#46,46,1364,768,1364,768,8-21-2022,6-51-3,30,depth_duration_stimuli/002072_2014-06-24_21-48-06_260595134347_rgbf000115-resize_0/002072_2014-06-24_21-48-06_260595134347_rgbf000115-resize-original.jpg,125,4.702,0,14281,125,feet,jsons/VE125_randls_37_rotated.json,1781571,1948597,35,Woman
30,342816,DepthScenes,duration_manipulation_targetAtFixation,jsons/VE125_randls_37_rotated.json,http://54.235.29.9/FacialAge/BNav_EC2/DepthDuration/v2_depth_duration_MTurk/v2_DepthDuration_HTML.html#46,46,1364,768,1364,768,8-21-2022,6-51-3,31,depth_duration_stimuli/002568_2014-06-24_13-59-21_094959634447_rgbf000062-resize_4/002568_2014-06-24_13-59-21_094959634447_rgbf000062-resize_4-target.png,125,3.015,4,7163,125,feet,jsons/VE125_randls_37_rotated.json,1781571,1948597,35,Woman
31,342816,DepthScenes,duration_manipulation_targetAtFixation,jsons/VE125_randls_37_rotated.json,http://54.235.29.9/FacialAge/BNav_EC2/DepthDuration/v2_depth_duration_MTurk/v2_DepthDuration_HTML.html#46,46,1364,768,1364,768,8-21-2022,6-51-3,32,depth_duration_stimuli/003492_2014-05-21_15-50-55_094959634447_rgbf000828-resize_1/003492_2014-05-21_15-50-55_094959634447_rgbf000828-resize_1-target.png,125,4.06875,4,5922,125,feet,jsons/VE125_randls_37_rotated.json,1781571,1948597,35,Woman
32,342816,DepthScenes,duration_manipulation_targetAtFixation,jsons/VE125_randls_37_rotated.json,http://54.235.29.9/FacialAge/BNav_EC2/DepthDuration/v2_depth_duration_MTurk/v2_DepthDuration_HTML.html#46,46,1364,768,1364,768,8-21-2022,6-51-3,33,depth_duration_stimuli/000109_2014-05-14_23-41-52_260595134347_rgbf000035-resize_9/000109_2014-05-14_23-41-52_260595134347_rgbf000035-resize_9-target.png,125,1.3545,3,6403,125,feet,jsons/VE125_randls_37_rotated.json,1781571,1948597,35,Woman
33,342816,DepthScenes,duration_manipulation_targetAtFixation,jsons/VE125_randls_37_rotated.json,http://54.235.29.9/FacialAge/BNav_EC2/DepthDuration/v2_depth_duration_MTurk/v2_DepthDuration_HTML.html#46,46,1364,768,1364,768,8-21-2022,6-51-3,34,depth_duration_stimuli/000470_2014-06-09_19-42-40_260595134347_rgbf000094-resize_1/000470_2014-06-09_19-42-40_260595134347_rgbf000094-resize_1-target.png,125,1.831,3,4490,123,feet,jsons/VE125_randls_37_rotated.json,1781571,1948597,35,Woman
34,342816,DepthScenes,duration_manipulation_targetAtFixation,jsons/VE125_randls_37_rotated.json,http://54.235.29.9/FacialAge/BNav_EC2/DepthDuration/v2_depth_duration_MTurk/v2_DepthDuration_HTML.html#46,46,1364,768,1364,768,8-21-2022,6-51-3,35,depth_duration_stimuli/000927_2014-06-09_16-32-30_260595134347_rgbf000123-resize_3/000927_2014-06-09_16-32-30_260595134347_rgbf000123-resize_3-target.png,125,2.6785,3,5219,125,feet,jsons/VE125_randls_37_rotated.json,1781571,1948597,35,Woman
35,342816,DepthScenes,duration_manipulation_targetAtFixation,jsons/VE125_randls_37_rotated.json,http://54.235.29.9/FacialAge/BNav_EC2/DepthDuration/v2_depth_duration_MTurk/v2_DepthDuration_HTML.html#46,46,1364,768,1364,768,8-21-2022,6-51-3,36,depth_duration_stimuli/001110_2014-06-15_17-25-28_260595134347_rgbf000150-resize_1/001110_2014-06-15_17-25-28_260595134347_rgbf000150-resize_1-target.png,125,1.7115,4,5380,124,feet,jsons/VE125_randls_37_rotated.json,1781571,1948597,35,Woman
36,342816,DepthScenes,duration_manipulation_targetAtFixation,jsons/VE125_randls_37_rotated.json,http://54.235.29.9/FacialAge/BNav_EC2/DepthDuration/v2_depth_duration_MTurk/v2_DepthDuration_HTML.html#46,46,1364,768,1364,768,8-21-2022,6-51-3,37,depth_duration_stimuli/002758_2014-06-22_19-11-20_094959634447_rgbf000128-resize_1/002758_2014-06-22_19-11-20_094959634447_rgbf000128-resize_1-target.png,125,2.555,4,21338,123,feet,jsons/VE125_randls_37_rotated.json,1781571,1948597,35,Woman
37,342816,DepthScenes,duration_manipulation_targetAtFixation,jsons/VE125_randls_37_rotated.json,http://54.235.29.9/FacialAge/BNav_EC2/DepthDuration/v2_depth_duration_MTurk/v2_DepthDuration_HTML.html#46,46,1364,768,1364,768,8-21-2022,6-51-3,38,depth_duration_stimuli/002630_2014-06-24_14-47-50_094959634447_rgbf000055-resize_1/002630_2014-06-24_14-47-50_094959634447_rgbf000055-resize_1-target.png,125,3.0095,5,8588,116,feet,jsons/VE125_randls_37_rotated.json,1781571,1948597,35,Woman
38,342816,DepthScenes,duration_manipulation_targetAtFixation,jsons/VE125_randls_37_rotated.json,http://54.235.29.9/FacialAge/BNav_EC2/DepthDuration/v2_depth_duration_MTurk/v2_DepthDuration_HTML.html#46,46,1364,768,1364,768,8-21-2022,6-51-3,39,depth_duration_stimuli/000103_2014-05-14_22-01-17_260595134347_rgbf000152-resize_5/000103_2014-05-14_22-01-17_260595134347_rgbf000152-resize_5-target.png,125,1.993,4,6287,123,feet,jsons/VE125_randls_37_rotated.json,1781571,1948597,35,Woman
39,342816,DepthScenes,duration_manipulation_targetAtFixation,jsons/VE125_randls_37_rotated.json,http://54.235.29.9/FacialAge/BNav_EC2/DepthDuration/v2_depth_duration_MTurk/v2_DepthDuration_HTML.html#46,46,1364,768,1364,768,8-21-2022,6-51-3,40,depth_duration_stimuli/001555_2014-06-20_17-12-10_260595134347_rgbf000065-resize_4/001555_2014-06-20_17-12-10_260595134347_rgbf000065-resize_4-target.png,125,1.633,4,6747,119,feet,jsons/VE125_randls_37_rotated.json,1781571,1948597,35,Woman
40,342816,DepthScenes,duration_manipulation_targetAtFixation,jsons/VE125_randls_37_rotated.json,http://54.235.29.9/FacialAge/BNav_EC2/DepthDuration/v2_depth_duration_MTurk/v2_DepthDuration_HTML.html#46,46,1364,768,1364,768,8-21-2022,6-51-3,41,depth_duration_stimuli/001584_2014-06-20_11-07-43_260595134347_rgbf000002-resize_1/001584_2014-06-20_11-07-43_260595134347_rgbf000002-resize_1-target.png,125,3.53,3,7803,123,feet,jsons/VE125_randls_37_rotated.json,1781571,1948597,35,Woman
41,342816,DepthScenes,duration_manipulation_targetAtFixation,jsons/VE125_randls_37_rotated.json,http://54.235.29.9/FacialAge/BNav_EC2/DepthDuration/v2_depth_duration_MTurk/v2_DepthDuration_HTML.html#46,46,1364,768,1364,768,8-21-2022,6-51-3,42,depth_duration_stimuli/003621_2014-05-23_18-06-08_094959634447_rgbf000101-resize_1/003621_2014-05-23_18-06-08_094959634447_rgbf000101-resize_1-target.png,125,3.9835,3,6768,123,feet,jsons/VE125_randls_37_rotated.json,1781571,1948597,35,Woman
42,342816,DepthScenes,duration_manipulation_targetAtFixation,jsons/VE125_randls_37_rotated.json,http://54.235.29.9/FacialAge/BNav_EC2/DepthDuration/v2_depth_duration_MTurk/v2_DepthDuration_HTML.html#46,46,1364,768,1364,768,8-21-2022,6-51-3,43,depth_duration_stimuli/002467_2014-06-28_20-38-07_260595134347_rgbf000026-resize_2/002467_2014-06-28_20-38-07_260595134347_rgbf000026-resize_2-target.png,125,4.742,4,9854,123,feet,jsons/VE125_randls_37_rotated.json,1781571,1948597,35,Woman
43,342816,DepthScenes,duration_manipulation_targetAtFixation,jsons/VE125_randls_37_rotated.json,http://54.235.29.9/FacialAge/BNav_EC2/DepthDuration/v2_depth_duration_MTurk/v2_DepthDuration_HTML.html#46,46,1364,768,1364,768,8-21-2022,6-51-3,44,depth_duration_stimuli/002570_2014-06-24_13-59-54_094959634447_rgbf000059-resize_0/002570_2014-06-24_13-59-54_094959634447_rgbf000059-resize_0-target.png,125,4.037,4,6471,123,feet,jsons/VE125_randls_37_rotated.json,1781571,1948597,35,Woman
44,342816,DepthScenes,duration_manipulation_targetAtFixation,jsons/VE125_randls_37_rotated.json,http://54.235.29.9/FacialAge/BNav_EC2/DepthDuration/v2_depth_duration_MTurk/v2_DepthDuration_HTML.html#46,46,1364,768,1364,768,8-21-2022,6-51-3,45,depth_duration_stimuli/002444_2014-06-28_20-32-08_260595134347_rgbf000027-resize_0/002444_2014-06-28_20-32-08_260595134347_rgbf000027-resize_0-target.png,125,4.388999999999999,6,6182,113,feet,jsons/VE125_randls_37_rotated.json,1781571,1948597,35,Woman
45,342816,DepthScenes,duration_manipulation_targetAtFixation,jsons/VE125_randls_37_rotated.json,http://54.235.29.9/FacialAge/BNav_EC2/DepthDuration/v2_depth_duration_MTurk/v2_DepthDuration_HTML.html#46,46,1364,768,1364,768,8-21-2022,6-51-3,46,depth_duration_stimuli/000436_2014-06-09_22-25-11_260595134347_rgbf000137-resize_1/000436_2014-06-09_22-25-11_260595134347_rgbf000137-resize_1-target.png,125,4.0705,4,3726,122,feet,jsons/VE125_randls_37_rotated.json,1781571,1948597,35,Woman
46,342816,DepthScenes,duration_manipulation_targetAtFixation,jsons/VE125_randls_37_rotated.json,http://54.235.29.9/FacialAge/BNav_EC2/DepthDuration/v2_depth_duration_MTurk/v2_DepthDuration_HTML.html#46,46,1364,768,1364,768,8-21-2022,6-51-3,47,depth_duration_stimuli/002209_2014-06-28_18-36-10_260595134347_rgbf000051-resize_1/002209_2014-06-28_18-36-10_260595134347_rgbf000051-resize_1-target.png,125,2.057,3,4708,116,feet,jsons/VE125_randls_37_rotated.json,1781571,1948597,35,Woman
47,342816,DepthScenes,duration_manipulation_targetAtFixation,jsons/VE125_randls_37_rotated.json,http://54.235.29.9/FacialAge/BNav_EC2/DepthDuration/v2_depth_duration_MTurk/v2_DepthDuration_HTML.html#46,46,1364,768,1364,768,8-21-2022,6-51-3,48,depth_duration_stimuli/002763_2014-06-22_19-13-10_094959634447_rgbf000075-resize_4/002763_2014-06-22_19-13-10_094959634447_rgbf000075-resize_4-target.png,125,1.68375,3,9915,123,feet,jsons/VE125_randls_37_rotated.json,1781571,1948597,35,Woman
48,342816,DepthScenes,duration_manipulation_targetAtFixation,jsons/VE125_randls_37_rotated.json,http://54.235.29.9/FacialAge/BNav_EC2/DepthDuration/v2_depth_duration_MTurk/v2_DepthDuration_HTML.html#46,46,1364,768,1364,768,8-21-2022,6-51-3,49,depth_duration_stimuli/001170_2014-06-17_15-43-44_260595134347_rgbf000096-resize_6/001170_2014-06-17_15-43-44_260595134347_rgbf000096-resize-original.jpg,125,1.1909999999999998,0,8045,126,feet,jsons/VE125_randls_37_rotated.json,1781571,1948597,35,Woman
49,342816,DepthScenes,duration_manipulation_targetAtFixation,jsons/VE125_randls_37_rotated.json,http://54.235.29.9/FacialAge/BNav_EC2/DepthDuration/v2_depth_duration_MTurk/v2_DepthDuration_HTML.html#46,46,1364,768,1364,768,8-21-2022,6-51-3,50,depth_duration_stimuli/003129_2014-05-12_10-48-10_094959634447_rgbf000100-resize_0/003129_2014-05-12_10-48-10_094959634447_rgbf000100-resize_0-target.png,125,4.9305,5,8119,126,feet,jsons/VE125_randls_37_rotated.json,1781571,1948597,35,Woman
50,342816,DepthScenes,duration_manipulation_targetAtFixation,jsons/VE125_randls_37_rotated.json,http://54.235.29.9/FacialAge/BNav_EC2/DepthDuration/v2_depth_duration_MTurk/v2_DepthDuration_HTML.html#46,46,1364,768,1364,768,8-21-2022,6-51-3,51,depth_duration_stimuli/000414_2014-06-04_19-49-13_260595134347_rgbf000044-resize_0/000414_2014-06-04_19-49-13_260595134347_rgbf000044-resize_0-target.png,125,4.329,7,74502,120,feet,jsons/VE125_randls_37_rotated.json,1781571,1948597,35,Woman
51,342816,DepthScenes,duration_manipulation_targetAtFixation,jsons/VE125_randls_37_rotated.json,http://54.235.29.9/FacialAge/BNav_EC2/DepthDuration/v2_depth_duration_MTurk/v2_DepthDuration_HTML.html#46,46,1364,768,1364,768,8-21-2022,6-51-3,52,depth_duration_stimuli/000749_2014-06-08_21-55-06_260595134347_rgbf000070-resize_2/000749_2014-06-08_21-55-06_260595134347_rgbf000070-resize_2-target.png,125,2.331,4,8728,114,feet,jsons/VE125_randls_37_rotated.json,1781571,1948597,35,Woman
52,342816,DepthScenes,duration_manipulation_targetAtFixation,jsons/VE125_randls_37_rotated.json,http://54.235.29.9/FacialAge/BNav_EC2/DepthDuration/v2_depth_duration_MTurk/v2_DepthDuration_HTML.html#46,46,1364,768,1364,768,8-21-2022,6-51-3,53,depth_duration_stimuli/002788_2014-06-22_19-36-03_094959634447_rgbf000088-resize_2/002788_2014-06-22_19-36-03_094959634447_rgbf000088-resize_2-target.png,125,1.6465,5,8551,125,feet,jsons/VE125_randls_37_rotated.json,1781571,1948597,35,Woman
53,342816,DepthScenes,duration_manipulation_targetAtFixation,jsons/VE125_randls_37_rotated.json,http://54.235.29.9/FacialAge/BNav_EC2/DepthDuration/v2_depth_duration_MTurk/v2_DepthDuration_HTML.html#46,46,1364,768,1364,768,8-21-2022,6-51-3,54,depth_duration_stimuli/003083_2014-06-15_15-21-03_094959634447_rgbf000063-resize_1/003083_2014-06-15_15-21-03_094959634447_rgbf000063-resize_1-target.png,125,4.1405,3,9991,121,feet,jsons/VE125_randls_37_rotated.json,1781571,1948597,35,Woman
54,342816,DepthScenes,duration_manipulation_targetAtFixation,jsons/VE125_randls_37_rotated.json,http://54.235.29.9/FacialAge/BNav_EC2/DepthDuration/v2_depth_duration_MTurk/v2_DepthDuration_HTML.html#46,46,1364,768,1364,768,8-21-2022,6-51-3,55,depth_duration_stimuli/000486_2014-06-09_20-47-20_260595134347_rgbf000143-resize_2/000486_2014-06-09_20-47-20_260595134347_rgbf000143-resize_2-target.png,125,4.8325,3,9989,123,feet,jsons/VE125_randls_37_rotated.json,1781571,1948597,35,Woman
55,342816,DepthScenes,duration_manipulation_targetAtFixation,jsons/VE125_randls_37_rotated.json,http://54.235.29.9/FacialAge/BNav_EC2/DepthDuration/v2_depth_duration_MTurk/v2_DepthDuration_HTML.html#46,46,1364,768,1364,768,8-21-2022,6-51-3,56,depth_duration_stimuli/000549_2014-06-08_22-10-24_260595134347_rgbf000247-resize_3/000549_2014-06-08_22-10-24_260595134347_rgbf000247-resize_3-target.png,125,1.841,4,8411,124,feet,jsons/VE125_randls_37_rotated.json,1781571,1948597,35,Woman
56,342816,DepthScenes,duration_manipulation_targetAtFixation,jsons/VE125_randls_37_rotated.json,http://54.235.29.9/FacialAge/BNav_EC2/DepthDuration/v2_depth_duration_MTurk/v2_DepthDuration_HTML.html#46,46,1364,768,1364,768,8-21-2022,6-51-3,57,depth_duration_stimuli/001055_2014-06-08_18-45-35_260595134347_rgbf000111-resize_4/001055_2014-06-08_18-45-35_260595134347_rgbf000111-resize_4-target.png,125,2.4290000000000003,5,8657,124,feet,jsons/VE125_randls_37_rotated.json,1781571,1948597,35,Woman
57,342816,DepthScenes,duration_manipulation_targetAtFixation,jsons/VE125_randls_37_rotated.json,http://54.235.29.9/FacialAge/BNav_EC2/DepthDuration/v2_depth_duration_MTurk/v2_DepthDuration_HTML.html#46,46,1364,768,1364,768,8-21-2022,6-51-3,58,depth_duration_stimuli/000137_2014-05-20_17-04-49_260595134347_rgbf000120-resize_1/000137_2014-05-20_17-04-49_260595134347_rgbf000120-resize_1-target.png,125,3.786,5,17636,123,feet,jsons/VE125_randls_37_rotated.json,1781571,1948597,35,Woman
58,342816,DepthScenes,duration_manipulation_targetAtFixation,jsons/VE125_randls_37_rotated.json,http://54.235.29.9/FacialAge/BNav_EC2/DepthDuration/v2_depth_duration_MTurk/v2_DepthDuration_HTML.html#46,46,1364,768,1364,768,8-21-2022,6-51-3,59,depth_duration_stimuli/000736_2014-06-08_18-24-15_260595134347_rgbf000206-resize_3/000736_2014-06-08_18-24-15_260595134347_rgbf000206-resize_3-target.png,125,3.515,3,12069,124,feet,jsons/VE125_randls_37_rotated.json,1781571,1948597,35,Woman
59,342816,DepthScenes,duration_manipulation_targetAtFixation,jsons/VE125_randls_37_rotated.json,http://54.235.29.9/FacialAge/BNav_EC2/DepthDuration/v2_depth_duration_MTurk/v2_DepthDuration_HTML.html#46,46,1364,768,1364,768,8-21-2022,6-51-3,60,depth_duration_stimuli/002953_2014-06-08_17-32-18_094959634447_rgbf000059-resize_5/002953_2014-06-08_17-32-18_094959634447_rgbf000059-resize_5-target.png,125,1.551,5,303875,121,feet,jsons/VE125_randls_37_rotated.json,1781571,1948597,35,Woman
60,342816,DepthScenes,duration_manipulation_targetAtFixation,jsons/VE125_randls_37_rotated.json,http://54.235.29.9/FacialAge/BNav_EC2/DepthDuration/v2_depth_duration_MTurk/v2_DepthDuration_HTML.html#46,46,1364,768,1364,768,8-21-2022,6-51-3,61,depth_duration_stimuli/000878_2014-06-08_22-52-45_260595134347_rgbf000045-resize_2/000878_2014-06-08_22-52-45_260595134347_rgbf000045-resize_2-target.png,125,2.092,3,98347,123,feet,jsons/VE125_randls_37_rotated.json,1781571,1948597,35,Woman
61,342816,DepthScenes,duration_manipulation_targetAtFixation,jsons/VE125_randls_37_rotated.json,http://54.235.29.9/FacialAge/BNav_EC2/DepthDuration/v2_depth_duration_MTurk/v2_DepthDuration_HTML.html#46,46,1364,768,1364,768,8-21-2022,6-51-3,62,depth_duration_stimuli/003081_2014-06-15_15-19-16_094959634447_rgbf000150-resize_1/003081_2014-06-15_15-19-16_094959634447_rgbf000150-resize_1-target.png,125,3.9125,5,9753,123,feet,jsons/VE125_randls_37_rotated.json,1781571,1948597,35,Woman
62,342816,DepthScenes,duration_manipulation_targetAtFixation,jsons/VE125_randls_37_rotated.json,http://54.235.29.9/FacialAge/BNav_EC2/DepthDuration/v2_depth_duration_MTurk/v2_DepthDuration_HTML.html#46,46,1364,768,1364,768,8-21-2022,6-51-3,63,depth_duration_stimuli/001417_2014-06-19_16-25-36_260595134347_rgbf000115-resize_5/001417_2014-06-19_16-25-36_260595134347_rgbf000115-resize_5-target.png,125,4.6255,6,14747,125,feet,jsons/VE125_randls_37_rotated.json,1781571,1948597,35,Woman
63,342816,DepthScenes,duration_manipulation_targetAtFixation,jsons/VE125_randls_37_rotated.json,http://54.235.29.9/FacialAge/BNav_EC2/DepthDuration/v2_depth_duration_MTurk/v2_DepthDuration_HTML.html#46,46,1364,768,1364,768,8-21-2022,6-51-3,64,depth_duration_stimuli/001235_2014-06-17_16-37-36_260595134347_rgbf000084-resize_4/001235_2014-06-17_16-37-36_260595134347_rgbf000084-resize_4-target.png,125,3.6605,5,6698,123,feet,jsons/VE125_randls_37_rotated.json,1781571,1948597,35,Woman
64,342816,DepthScenes,duration_manipulation_targetAtFixation,jsons/VE125_randls_37_rotated.json,http://54.235.29.9/FacialAge/BNav_EC2/DepthDuration/v2_depth_duration_MTurk/v2_DepthDuration_HTML.html#46,46,1364,768,1364,768,8-21-2022,6-51-3,65,depth_duration_stimuli/000788_2014-06-08_22-34-36_260595134347_rgbf000131-resize_1/000788_2014-06-08_22-34-36_260595134347_rgbf000131-resize_1-target.png,125,3.359,4,3866,124,feet,jsons/VE125_randls_37_rotated.json,1781571,1948597,35,Woman
65,342816,DepthScenes,duration_manipulation_targetAtFixation,jsons/VE125_randls_37_rotated.json,http://54.235.29.9/FacialAge/BNav_EC2/DepthDuration/v2_depth_duration_MTurk/v2_DepthDuration_HTML.html#46,46,1364,768,1364,768,8-21-2022,6-51-3,66,depth_duration_stimuli/001540_2014-06-20_17-01-05_260595134347_rgbf000086-resize_2/001540_2014-06-20_17-01-05_260595134347_rgbf000086-resize-original.jpg,125,1.459,0,5524,124,feet,jsons/VE125_randls_37_rotated.json,1781571,1948597,35,Woman
66,342816,DepthScenes,duration_manipulation_targetAtFixation,jsons/VE125_randls_37_rotated.json,http://54.235.29.9/FacialAge/BNav_EC2/DepthDuration/v2_depth_duration_MTurk/v2_DepthDuration_HTML.html#46,46,1364,768,1364,768,8-21-2022,6-51-3,67,depth_duration_stimuli/001450_2014-06-19_17-02-03_260595134347_rgbf000203-resize_4/001450_2014-06-19_17-02-03_260595134347_rgbf000203-resize_4-target.png,125,4.0106666666667,4,5595,125,feet,jsons/VE125_randls_37_rotated.json,1781571,1948597,35,Woman
67,342816,DepthScenes,duration_manipulation_targetAtFixation,jsons/VE125_randls_37_rotated.json,http://54.235.29.9/FacialAge/BNav_EC2/DepthDuration/v2_depth_duration_MTurk/v2_DepthDuration_HTML.html#46,46,1364,768,1364,768,8-21-2022,6-51-3,68,depth_duration_stimuli/001449_2014-06-19_17-01-27_260595134347_rgbf000116-resize_2/001449_2014-06-19_17-01-27_260595134347_rgbf000116-resize_2-target.png,125,3.452,4,3715,124,feet,jsons/VE125_randls_37_rotated.json,1781571,1948597,35,Woman
68,342816,DepthScenes,duration_manipulation_targetAtFixation,jsons/VE125_randls_37_rotated.json,http://54.235.29.9/FacialAge/BNav_EC2/DepthDuration/v2_depth_duration_MTurk/v2_DepthDuration_HTML.html#46,46,1364,768,1364,768,8-21-2022,6-51-3,69,depth_duration_stimuli/002637_2014-06-24_14-51-13_094959634447_rgbf000066-resize_4/002637_2014-06-24_14-51-13_094959634447_rgbf000066-resize_4-target.png,125,1.9955,4,4250,124,feet,jsons/VE125_randls_37_rotated.json,1781571,1948597,35,Woman
69,342816,DepthScenes,duration_manipulation_targetAtFixation,jsons/VE125_randls_37_rotated.json,http://54.235.29.9/FacialAge/BNav_EC2/DepthDuration/v2_depth_duration_MTurk/v2_DepthDuration_HTML.html#46,46,1364,768,1364,768,8-21-2022,6-51-3,70,depth_duration_stimuli/003534_2014-05-22_15-06-10_094959634447_rgbf000102-resize_4/003534_2014-05-22_15-06-10_094959634447_rgbf000102-resize_4-target.png,125,1.426,3,8403,125,feet,jsons/VE125_randls_37_rotated.json,1781571,1948597,35,Woman
70,342816,DepthScenes,duration_manipulation_targetAtFixation,jsons/VE125_randls_37_rotated.json,http://54.235.29.9/FacialAge/BNav_EC2/DepthDuration/v2_depth_duration_MTurk/v2_DepthDuration_HTML.html#46,46,1364,768,1364,768,8-21-2022,6-51-3,71,depth_duration_stimuli/002657_2014-06-13_15-29-54_094959634447_rgbf000150-resize_1/002657_2014-06-13_15-29-54_094959634447_rgbf000150-resize_1-target.png,125,4.919,6,14131,124,feet,jsons/VE125_randls_37_rotated.json,1781571,1948597,35,Woman
71,342816,DepthScenes,duration_manipulation_targetAtFixation,jsons/VE125_randls_37_rotated.json,http://54.235.29.9/FacialAge/BNav_EC2/DepthDuration/v2_depth_duration_MTurk/v2_DepthDuration_HTML.html#46,46,1364,768,1364,768,8-21-2022,6-51-3,72,depth_duration_stimuli/002375_2014-06-28_20-13-44_260595134347_rgbf000032-resize_1/002375_2014-06-28_20-13-44_260595134347_rgbf000032-resize_1-target.png,125,4.0175,4,5882,126,feet,jsons/VE125_randls_37_rotated.json,1781571,1948597,35,Woman
72,342816,DepthScenes,duration_manipulation_targetAtFixation,jsons/VE125_randls_37_rotated.json,http://54.235.29.9/FacialAge/BNav_EC2/DepthDuration/v2_depth_duration_MTurk/v2_DepthDuration_HTML.html#46,46,1364,768,1364,768,8-21-2022,6-51-3,73,depth_duration_stimuli/003495_2014-05-21_16-01-51_094959634447_rgbf000100-resize_3/003495_2014-05-21_16-01-51_094959634447_rgbf000100-resize_3-target.png,125,1.6255,2,9130,124,feet,jsons/VE125_randls_37_rotated.json,1781571,1948597,35,Woman
73,342816,DepthScenes,duration_manipulation_targetAtFixation,jsons/VE125_randls_37_rotated.json,http://54.235.29.9/FacialAge/BNav_EC2/DepthDuration/v2_depth_duration_MTurk/v2_DepthDuration_HTML.html#46,46,1364,768,1364,768,8-21-2022,6-51-3,74,depth_duration_stimuli/001244_2014-06-17_16-47-45_260595134347_rgbf000030-resize_4/001244_2014-06-17_16-47-45_260595134347_rgbf000030-resize_4-target.png,125,2.0425,3,7739,125,feet,jsons/VE125_randls_37_rotated.json,1781571,1948597,35,Woman
74,342816,DepthScenes,duration_manipulation_targetAtFixation,jsons/VE125_randls_37_rotated.json,http://54.235.29.9/FacialAge/BNav_EC2/DepthDuration/v2_depth_duration_MTurk/v2_DepthDuration_HTML.html#46,46,1364,768,1364,768,8-21-2022,6-51-3,75,depth_duration_stimuli/002136_2014-06-25_21-18-03_260595134347_rgbf000109-resize_3/002136_2014-06-25_21-18-03_260595134347_rgbf000109-resize_3-target.png,125,1.9569999999999999,4,7945,123,feet,jsons/VE125_randls_37_rotated.json,1781571,1948597,35,Woman
75,342816,DepthScenes,duration_manipulation_targetAtFixation,jsons/VE125_randls_37_rotated.json,http://54.235.29.9/FacialAge/BNav_EC2/DepthDuration/v2_depth_duration_MTurk/v2_DepthDuration_HTML.html#46,46,1364,768,1364,768,8-21-2022,6-51-3,76,depth_duration_stimuli/002964_2014-06-08_17-46-11_094959634447_rgbf000091-resize_4/002964_2014-06-08_17-46-11_094959634447_rgbf000091-resize_4-target.png,125,1.6909999999999998,5,3667,123,feet,jsons/VE125_randls_37_rotated.json,1781571,1948597,35,Woman
76,342816,DepthScenes,duration_manipulation_targetAtFixation,jsons/VE125_randls_37_rotated.json,http://54.235.29.9/FacialAge/BNav_EC2/DepthDuration/v2_depth_duration_MTurk/v2_DepthDuration_HTML.html#46,46,1364,768,1364,768,8-21-2022,6-51-3,77,depth_duration_stimuli/002678_2014-06-13_16-15-32_094959634447_rgbf000151-resize_6/002678_2014-06-13_16-15-32_094959634447_rgbf000151-resize_6-target.png,125,2.1830000000000003,5,5676,124,feet,jsons/VE125_randls_37_rotated.json,1781571,1948597,35,Woman
77,342816,DepthScenes,duration_manipulation_targetAtFixation,jsons/VE125_randls_37_rotated.json,http://54.235.29.9/FacialAge/BNav_EC2/DepthDuration/v2_depth_duration_MTurk/v2_DepthDuration_HTML.html#46,46,1364,768,1364,768,8-21-2022,6-51-3,78,depth_duration_stimuli/000368_2014-06-09_15-53-01_260595134347_rgbf000155-resize_2/000368_2014-06-09_15-53-01_260595134347_rgbf000155-resize_2-target.png,125,2.4859999999999998,2,3730,124,feet,jsons/VE125_randls_37_rotated.json,1781571,1948597,35,Woman
78,342816,DepthScenes,duration_manipulation_targetAtFixation,jsons/VE125_randls_37_rotated.json,http://54.235.29.9/FacialAge/BNav_EC2/DepthDuration/v2_depth_duration_MTurk/v2_DepthDuration_HTML.html#46,46,1364,768,1364,768,8-21-2022,6-51-3,79,depth_duration_stimuli/000556_2014-06-09_22-42-56_260595134347_rgbf000214-resize_1/000556_2014-06-09_22-42-56_260595134347_rgbf000214-resize_1-target.png,125,4.8415,4,5010,123,feet,jsons/VE125_randls_37_rotated.json,1781571,1948597,35,Woman
79,342816,DepthScenes,duration_manipulation_targetAtFixation,jsons/VE125_randls_37_rotated.json,http://54.235.29.9/FacialAge/BNav_EC2/DepthDuration/v2_depth_duration_MTurk/v2_DepthDuration_HTML.html#46,46,1364,768,1364,768,8-21-2022,6-51-3,80,depth_duration_stimuli/001158_2014-06-17_15-32-16_260595134347_rgbf000138-resize_2/001158_2014-06-17_15-32-16_260595134347_rgbf000138-resize_2-target.png,125,4.5315,2,3483,123,feet,jsons/VE125_randls_37_rotated.json,1781571,1948597,35,Woman
80,342816,DepthScenes,duration_manipulation_targetAtFixation,jsons/VE125_randls_37_rotated.json,http://54.235.29.9/FacialAge/BNav_EC2/DepthDuration/v2_depth_duration_MTurk/v2_DepthDuration_HTML.html#46,46,1364,768,1364,768,8-21-2022,6-51-3,81,depth_duration_stimuli/000665_2014-06-09_20-42-35_260595134347_rgbf000110-resize_1/000665_2014-06-09_20-42-35_260595134347_rgbf000110-resize_1-target.png,125,3.057,5,4519,122,feet,jsons/VE125_randls_37_rotated.json,1781571,1948597,35,Woman
81,342816,DepthScenes,duration_manipulation_targetAtFixation,jsons/VE125_randls_37_rotated.json,http://54.235.29.9/FacialAge/BNav_EC2/DepthDuration/v2_depth_duration_MTurk/v2_DepthDuration_HTML.html#46,46,1364,768,1364,768,8-21-2022,6-51-3,82,depth_duration_stimuli/001150_2014-06-17_15-27-34_260595134347_rgbf000108-resize_2/001150_2014-06-17_15-27-34_260595134347_rgbf000108-resize_2-target.png,125,4.0325,2,3530,123,feet,jsons/VE125_randls_37_rotated.json,1781571,1948597,35,Woman
82,342816,DepthScenes,duration_manipulation_targetAtFixation,jsons/VE125_randls_37_rotated.json,http://54.235.29.9/FacialAge/BNav_EC2/DepthDuration/v2_depth_duration_MTurk/v2_DepthDuration_HTML.html#46,46,1364,768,1364,768,8-21-2022,6-51-3,83,depth_duration_stimuli/001617_2014-06-20_11-35-32_260595134347_rgbf000066-resize_1/001617_2014-06-20_11-35-32_260595134347_rgbf000066-resize_1-target.png,125,3.7910000000000004,5,3987,124,feet,jsons/VE125_randls_37_rotated.json,1781571,1948597,35,Woman
83,342816,DepthScenes,duration_manipulation_targetAtFixation,jsons/VE125_randls_37_rotated.json,http://54.235.29.9/FacialAge/BNav_EC2/DepthDuration/v2_depth_duration_MTurk/v2_DepthDuration_HTML.html#46,46,1364,768,1364,768,8-21-2022,6-51-3,84,depth_duration_stimuli/001806_2014-06-26_20-50-20_260595134347_rgbf000091-resize_1/001806_2014-06-26_20-50-20_260595134347_rgbf000091-resize_1-target.png,125,2.7305,5,4643,125,feet,jsons/VE125_randls_37_rotated.json,1781571,1948597,35,Woman
84,342816,DepthScenes,duration_manipulation_targetAtFixation,jsons/VE125_randls_37_rotated.json,http://54.235.29.9/FacialAge/BNav_EC2/DepthDuration/v2_depth_duration_MTurk/v2_DepthDuration_HTML.html#46,46,1364,768,1364,768,8-21-2022,6-51-3,85,depth_duration_stimuli/001100_2014-06-15_17-46-26_260595134347_rgbf000225-resize_2/001100_2014-06-15_17-46-26_260595134347_rgbf000225-resize_2-target.png,125,2.24,3,5314,126,feet,jsons/VE125_randls_37_rotated.json,1781571,1948597,35,Woman
85,342816,DepthScenes,duration_manipulation_targetAtFixation,jsons/VE125_randls_37_rotated.json,http://54.235.29.9/FacialAge/BNav_EC2/DepthDuration/v2_depth_duration_MTurk/v2_DepthDuration_HTML.html#46,46,1364,768,1364,768,8-21-2022,6-51-3,86,depth_duration_stimuli/002784_2014-06-22_19-26-30_094959634447_rgbf000083-resize_3/002784_2014-06-22_19-26-30_094959634447_rgbf000083-resize_3-target.png,125,1.8046666666667,3,5515,125,feet,jsons/VE125_randls_37_rotated.json,1781571,1948597,35,Woman
86,342816,DepthScenes,duration_manipulation_targetAtFixation,jsons/VE125_randls_37_rotated.json,http://54.235.29.9/FacialAge/BNav_EC2/DepthDuration/v2_depth_duration_MTurk/v2_DepthDuration_HTML.html#46,46,1364,768,1364,768,8-21-2022,6-51-3,87,depth_duration_stimuli/003587_2014-05-23_16-48-02_094959634447_rgbf002384-resize_2/003587_2014-05-23_16-48-02_094959634447_rgbf002384-resize_2-target.png,125,1.357,2,3914,123,feet,jsons/VE125_randls_37_rotated.json,1781571,1948597,35,Woman
87,342816,DepthScenes,duration_manipulation_targetAtFixation,jsons/VE125_randls_37_rotated.json,http://54.235.29.9/FacialAge/BNav_EC2/DepthDuration/v2_depth_duration_MTurk/v2_DepthDuration_HTML.html#46,46,1364,768,1364,768,8-21-2022,6-51-3,88,depth_duration_stimuli/001167_2014-06-17_15-38-07_260595134347_rgbf000108-resize_0/001167_2014-06-17_15-38-07_260595134347_rgbf000108-resize_0-target.png,125,1.8505,2,2826,125,feet,jsons/VE125_randls_37_rotated.json,1781571,1948597,35,Woman
88,342816,DepthScenes,duration_manipulation_targetAtFixation,jsons/VE125_randls_37_rotated.json,http://54.235.29.9/FacialAge/BNav_EC2/DepthDuration/v2_depth_duration_MTurk/v2_DepthDuration_HTML.html#46,46,1364,768,1364,768,8-21-2022,6-51-3,89,depth_duration_stimuli/000502_2014-06-08_23-02-32_260595134347_rgbf000063-resize_4/000502_2014-06-08_23-02-32_260595134347_rgbf000063-resize_4-target.png,125,2.431,3,3987,125,feet,jsons/VE125_randls_37_rotated.json,1781571,1948597,35,Woman
89,342816,DepthScenes,duration_manipulation_targetAtFixation,jsons/VE125_randls_37_rotated.json,http://54.235.29.9/FacialAge/BNav_EC2/DepthDuration/v2_depth_duration_MTurk/v2_DepthDuration_HTML.html#46,46,1364,768,1364,768,8-21-2022,6-51-3,90,depth_duration_stimuli/001199_2014-06-17_16-03-48_260595134347_rgbf000077-resize_0/001199_2014-06-17_16-03-48_260595134347_rgbf000077-resize_0-target.png,125,3.4375,4,8645,126,feet,jsons/VE125_randls_37_rotated.json,1781571,1948597,35,Woman
90,342816,DepthScenes,duration_manipulation_targetAtFixation,jsons/VE125_randls_37_rotated.json,http://54.235.29.9/FacialAge/BNav_EC2/DepthDuration/v2_depth_duration_MTurk/v2_DepthDuration_HTML.html#46,46,1364,768,1364,768,8-21-2022,6-51-3,91,depth_duration_stimuli/001815_2014-06-26_20-52-55_260595134347_rgbf000020-resize_0/001815_2014-06-26_20-52-55_260595134347_rgbf000020-resize_0-target.png,125,3.3865,5,4634,124,feet,jsons/VE125_randls_37_rotated.json,1781571,1948597,35,Woman
91,342816,DepthScenes,duration_manipulation_targetAtFixation,jsons/VE125_randls_37_rotated.json,http://54.235.29.9/FacialAge/BNav_EC2/DepthDuration/v2_depth_duration_MTurk/v2_DepthDuration_HTML.html#46,46,1364,768,1364,768,8-21-2022,6-51-3,92,depth_duration_stimuli/001808_2014-06-26_20-50-58_260595134347_rgbf000029-resize_1/001808_2014-06-26_20-50-58_260595134347_rgbf000029-resize_1-target.png,125,4.249,4,7411,125,feet,jsons/VE125_randls_37_rotated.json,1781571,1948597,35,Woman
92,342816,DepthScenes,duration_manipulation_targetAtFixation,jsons/VE125_randls_37_rotated.json,http://54.235.29.9/FacialAge/BNav_EC2/DepthDuration/v2_depth_duration_MTurk/v2_DepthDuration_HTML.html#46,46,1364,768,1364,768,8-21-2022,6-51-3,93,depth_duration_stimuli/000734_2014-06-08_17-39-11_260595134347_rgbf000128-resize_2/000734_2014-06-08_17-39-11_260595134347_rgbf000128-resize_2-target.png,125,4.098,3,5316,132,feet,jsons/VE125_randls_37_rotated.json,1781571,1948597,35,Woman
93,342816,DepthScenes,duration_manipulation_targetAtFixation,jsons/VE125_randls_37_rotated.json,http://54.235.29.9/FacialAge/BNav_EC2/DepthDuration/v2_depth_duration_MTurk/v2_DepthDuration_HTML.html#46,46,1364,768,1364,768,8-21-2022,6-51-3,94,depth_duration_stimuli/000739_2014-06-08_18-45-58_260595134347_rgbf000068-resize_1/000739_2014-06-08_18-45-58_260595134347_rgbf000068-resize_1-target.png,125,3.534,4,3129,124,feet,jsons/VE125_randls_37_rotated.json,1781571,1948597,35,Woman
94,342816,DepthScenes,duration_manipulation_targetAtFixation,jsons/VE125_randls_37_rotated.json,http://54.235.29.9/FacialAge/BNav_EC2/DepthDuration/v2_depth_duration_MTurk/v2_DepthDuration_HTML.html#46,46,1364,768,1364,768,8-21-2022,6-51-3,95,depth_duration_stimuli/000677_2014-06-08_23-10-32_260595134347_rgbf000158-resize_6/000677_2014-06-08_23-10-32_260595134347_rgbf000158-resize_6-target.png,125,3.556,4,5538,123,feet,jsons/VE125_randls_37_rotated.json,1781571,1948597,35,Woman
95,342816,DepthScenes,duration_manipulation_targetAtFixation,jsons/VE125_randls_37_rotated.json,http://54.235.29.9/FacialAge/BNav_EC2/DepthDuration/v2_depth_duration_MTurk/v2_DepthDuration_HTML.html#46,46,1364,768,1364,768,8-21-2022,6-51-3,96,depth_duration_stimuli/001029_2014-06-08_13-17-57_260595134347_rgbf000065-resize_1/001029_2014-06-08_13-17-57_260595134347_rgbf000065-resize_1-target.png,125,3.0835,5,8219,123,feet,jsons/VE125_randls_37_rotated.json,1781571,1948597,35,Woman
96,342816,DepthScenes,duration_manipulation_targetAtFixation,jsons/VE125_randls_37_rotated.json,http://54.235.29.9/FacialAge/BNav_EC2/DepthDuration/v2_depth_duration_MTurk/v2_DepthDuration_HTML.html#46,46,1364,768,1364,768,8-21-2022,6-51-3,97,depth_duration_stimuli/002323_2014-06-28_20-01-54_260595134347_rgbf000051-resize_4/002323_2014-06-28_20-01-54_260595134347_rgbf000051-resize_4-target.png,125,3.7310000000000003,7,7052,129,feet,jsons/VE125_randls_37_rotated.json,1781571,1948597,35,Woman
97,342816,DepthScenes,duration_manipulation_targetAtFixation,jsons/VE125_randls_37_rotated.json,http://54.235.29.9/FacialAge/BNav_EC2/DepthDuration/v2_depth_duration_MTurk/v2_DepthDuration_HTML.html#46,46,1364,768,1364,768,8-21-2022,6-51-3,98,depth_duration_stimuli/000917_2014-06-09_22-45-29_260595134347_rgbf000149-resize_3/000917_2014-06-09_22-45-29_260595134347_rgbf000149-resize_3-target.png,125,4.1865,6,8856,114,feet,jsons/VE125_randls_37_rotated.json,1781571,1948597,35,Woman
98,342816,DepthScenes,duration_manipulation_targetAtFixation,jsons/VE125_randls_37_rotated.json,http://54.235.29.9/FacialAge/BNav_EC2/DepthDuration/v2_depth_duration_MTurk/v2_DepthDuration_HTML.html#46,46,1364,768,1364,768,8-21-2022,6-51-3,99,depth_duration_stimuli/001222_2014-06-17_16-24-06_260595134347_rgbf000073-resize_0/001222_2014-06-17_16-24-06_260595134347_rgbf000073-resize-original.jpg,125,1.4385,0,9136,122,feet,jsons/VE125_randls_37_rotated.json,1781571,1948597,35,Woman
99,342816,DepthScenes,duration_manipulation_targetAtFixation,jsons/VE125_randls_37_rotated.json,http://54.235.29.9/FacialAge/BNav_EC2/DepthDuration/v2_depth_duration_MTurk/v2_DepthDuration_HTML.html#46,46,1364,768,1364,768,8-21-2022,6-51-3,100,depth_duration_stimuli/001650_2014-06-20_12-09-00_260595134347_rgbf000087-resize_3/001650_2014-06-20_12-09-00_260595134347_rgbf000087-resize_3-target.png,125,1.9505,3,7466,123,feet,jsons/VE125_randls_37_rotated.json,1781571,1948597,35,Woman
100,342816,DepthScenes,duration_manipulation_targetAtFixation,jsons/VE125_randls_37_rotated.json,http://54.235.29.9/FacialAge/BNav_EC2/DepthDuration/v2_depth_duration_MTurk/v2_DepthDuration_HTML.html#46,46,1364,768,1364,768,8-21-2022,6-51-3,101,depth_duration_stimuli/000682_2014-06-08_23-14-58_260595134347_rgbf000041-resize_5/000682_2014-06-08_23-14-58_260595134347_rgbf000041-resize_5-target.png,125,2.7239999999999998,4,7384,122,feet,jsons/VE125_randls_37_rotated.json,1781571,1948597,35,Woman
101,342816,DepthScenes,duration_manipulation_targetAtFixation,jsons/VE125_randls_37_rotated.json,http://54.235.29.9/FacialAge/BNav_EC2/DepthDuration/v2_depth_duration_MTurk/v2_DepthDuration_HTML.html#46,46,1364,768,1364,768,8-21-2022,6-51-3,102,depth_duration_stimuli/001392_2014-06-19_16-07-59_260595134347_rgbf000046-resize_1/001392_2014-06-19_16-07-59_260595134347_rgbf000046-resize_1-target.png,125,4.135,4,8482,122,feet,jsons/VE125_randls_37_rotated.json,1781571,1948597,35,Woman
102,342816,DepthScenes,duration_manipulation_targetAtFixation,jsons/VE125_randls_37_rotated.json,http://54.235.29.9/FacialAge/BNav_EC2/DepthDuration/v2_depth_duration_MTurk/v2_DepthDuration_HTML.html#46,46,1364,768,1364,768,8-21-2022,6-51-3,103,depth_duration_stimuli/001570_2014-06-20_17-21-09_260595134347_rgbf000135-resize_4/001570_2014-06-20_17-21-09_260595134347_rgbf000135-resize_4-target.png,125,4.467,3,5140,124,feet,jsons/VE125_randls_37_rotated.json,1781571,1948597,35,Woman
103,342816,DepthScenes,duration_manipulation_targetAtFixation,jsons/VE125_randls_37_rotated.json,http://54.235.29.9/FacialAge/BNav_EC2/DepthDuration/v2_depth_duration_MTurk/v2_DepthDuration_HTML.html#46,46,1364,768,1364,768,8-21-2022,6-51-3,104,depth_duration_stimuli/003338_2014-05-20_11-01-23_094959634447_rgbf000051-resize_6/003338_2014-05-20_11-01-23_094959634447_rgbf000051-resize_6-target.png,125,1.693,2,5197,118,feet,jsons/VE125_randls_37_rotated.json,1781571,1948597,35,Woman
104,342816,DepthScenes,duration_manipulation_targetAtFixation,jsons/VE125_randls_37_rotated.json,http://54.235.29.9/FacialAge/BNav_EC2/DepthDuration/v2_depth_duration_MTurk/v2_DepthDuration_HTML.html#46,46,1364,768,1364,768,8-21-2022,6-51-3,105,depth_duration_stimuli/002509_2014-06-24_13-19-22_094959634447_rgbf000077-resize_0/002509_2014-06-24_13-19-22_094959634447_rgbf000077-resize_0-target.png,125,1.3065,2,6453,118,feet,jsons/VE125_randls_37_rotated.json,1781571,1948597,35,Woman
105,342816,DepthScenes,duration_manipulation_targetAtFixation,jsons/VE125_randls_37_rotated.json,http://54.235.29.9/FacialAge/BNav_EC2/DepthDuration/v2_depth_duration_MTurk/v2_DepthDuration_HTML.html#46,46,1364,768,1364,768,8-21-2022,6-51-3,106,depth_duration_stimuli/000409_2014-06-04_19-23-33_260595134347_rgbf000067-resize_0/000409_2014-06-04_19-23-33_260595134347_rgbf000067-resize_0-target.png,125,3.7335,4,6052,123,feet,jsons/VE125_randls_37_rotated.json,1781571,1948597,35,Woman
106,342816,DepthScenes,duration_manipulation_targetAtFixation,jsons/VE125_randls_37_rotated.json,http://54.235.29.9/FacialAge/BNav_EC2/DepthDuration/v2_depth_duration_MTurk/v2_DepthDuration_HTML.html#46,46,1364,768,1364,768,8-21-2022,6-51-3,107,depth_duration_stimuli/002663_2014-06-13_15-50-26_094959634447_rgbf000075-resize_1/002663_2014-06-13_15-50-26_094959634447_rgbf000075-resize_1-target.png,125,4.7495,6,5458,123,feet,jsons/VE125_randls_37_rotated.json,1781571,1948597,35,Woman
107,342816,DepthScenes,duration_manipulation_targetAtFixation,jsons/VE125_randls_37_rotated.json,http://54.235.29.9/FacialAge/BNav_EC2/DepthDuration/v2_depth_duration_MTurk/v2_DepthDuration_HTML.html#46,46,1364,768,1364,768,8-21-2022,6-51-3,108,depth_duration_stimuli/001516_2014-06-20_16-25-09_260595134347_rgbf000076-resize_2/001516_2014-06-20_16-25-09_260595134347_rgbf000076-resize_2-target.png,125,1.7445,5,5836,126,feet,jsons/VE125_randls_37_rotated.json,1781571,1948597,35,Woman
108,342816,DepthScenes,duration_manipulation_targetAtFixation,jsons/VE125_randls_37_rotated.json,http://54.235.29.9/FacialAge/BNav_EC2/DepthDuration/v2_depth_duration_MTurk/v2_DepthDuration_HTML.html#46,46,1364,768,1364,768,8-21-2022,6-51-3,109,depth_duration_stimuli/002118_2014-06-25_20-32-08_260595134347_rgbf000078-resize_1/002118_2014-06-25_20-32-08_260595134347_rgbf000078-resize_1-target.png,125,2.6460000000000004,3,3257,125,feet,jsons/VE125_randls_37_rotated.json,1781571,1948597,35,Woman
109,342816,DepthScenes,duration_manipulation_targetAtFixation,jsons/VE125_randls_37_rotated.json,http://54.235.29.9/FacialAge/BNav_EC2/DepthDuration/v2_depth_duration_MTurk/v2_DepthDuration_HTML.html#46,46,1364,768,1364,768,8-21-2022,6-51-3,110,depth_duration_stimuli/000483_2014-06-09_20-41-45_260595134347_rgbf000116-resize_4/000483_2014-06-09_20-41-45_260595134347_rgbf000116-resize_4-target.png,125,1.337,3,5107,127,feet,jsons/VE125_randls_37_rotated.json,1781571,1948597,35,Woman
110,342816,DepthScenes,duration_manipulation_targetAtFixation,jsons/VE125_randls_37_rotated.json,http://54.235.29.9/FacialAge/BNav_EC2/DepthDuration/v2_depth_duration_MTurk/v2_DepthDuration_HTML.html#46,46,1364,768,1364,768,8-21-2022,6-51-3,111,depth_duration_stimuli/000469_2014-06-09_19-42-10_260595134347_rgbf000081-resize_1/000469_2014-06-09_19-42-10_260595134347_rgbf000081-resize_1-target.png,125,1.652,4,3579,127,feet,jsons/VE125_randls_37_rotated.json,1781571,1948597,35,Woman
111,342816,DepthScenes,duration_manipulation_targetAtFixation,jsons/VE125_randls_37_rotated.json,http://54.235.29.9/FacialAge/BNav_EC2/DepthDuration/v2_depth_duration_MTurk/v2_DepthDuration_HTML.html#46,46,1364,768,1364,768,8-21-2022,6-51-3,112,depth_duration_stimuli/002340_2014-06-28_20-05-46_260595134347_rgbf000113-resize_0/002340_2014-06-28_20-05-46_260595134347_rgbf000113-resize_0-target.png,125,2.4735,4,4162,123,feet,jsons/VE125_randls_37_rotated.json,1781571,1948597,35,Woman
112,342816,DepthScenes,duration_manipulation_targetAtFixation,jsons/VE125_randls_37_rotated.json,http://54.235.29.9/FacialAge/BNav_EC2/DepthDuration/v2_depth_duration_MTurk/v2_DepthDuration_HTML.html#46,46,1364,768,1364,768,8-21-2022,6-51-3,113,depth_duration_stimuli/001016_2014-06-09_16-16-10_260595134347_rgbf000112-resize_5/001016_2014-06-09_16-16-10_260595134347_rgbf000112-resize_5-target.png,125,1.6565,4,2572,128,feet,jsons/VE125_randls_37_rotated.json,1781571,1948597,35,Woman
113,342816,DepthScenes,duration_manipulation_targetAtFixation,jsons/VE125_randls_37_rotated.json,http://54.235.29.9/FacialAge/BNav_EC2/DepthDuration/v2_depth_duration_MTurk/v2_DepthDuration_HTML.html#46,46,1364,768,1364,768,8-21-2022,6-51-3,114,depth_duration_stimuli/002750_2014-06-22_19-08-03_094959634447_rgbf000094-resize_4/002750_2014-06-22_19-08-03_094959634447_rgbf000094-resize_4-target.png,125,2.354,4,3819,125,feet,jsons/VE125_randls_37_rotated.json,1781571,1948597,35,Woman
114,342816,DepthScenes,duration_manipulation_targetAtFixation,jsons/VE125_randls_37_rotated.json,http://54.235.29.9/FacialAge/BNav_EC2/DepthDuration/v2_depth_duration_MTurk/v2_DepthDuration_HTML.html#46,46,1364,768,1364,768,8-21-2022,6-51-3,115,depth_duration_stimuli/002549_2014-06-24_13-41-39_094959634447_rgbf000022-resize_3/002549_2014-06-24_13-41-39_094959634447_rgbf000022-resize_3-target.png,125,1.476,2,4087,124,feet,jsons/VE125_randls_37_rotated.json,1781571,1948597,35,Woman
115,342816,DepthScenes,duration_manipulation_targetAtFixation,jsons/VE125_randls_37_rotated.json,http://54.235.29.9/FacialAge/BNav_EC2/DepthDuration/v2_depth_duration_MTurk/v2_DepthDuration_HTML.html#46,46,1364,768,1364,768,8-21-2022,6-51-3,116,depth_duration_stimuli/000866_2014-06-09_20-45-42_260595134347_rgbf000139-resize_1/000866_2014-06-09_20-45-42_260595134347_rgbf000139-resize_1-target.png,125,3.2155,3,4370,115,feet,jsons/VE125_randls_37_rotated.json,1781571,1948597,35,Woman
116,342816,DepthScenes,duration_manipulation_targetAtFixation,jsons/VE125_randls_37_rotated.json,http://54.235.29.9/FacialAge/BNav_EC2/DepthDuration/v2_depth_duration_MTurk/v2_DepthDuration_HTML.html#46,46,1364,768,1364,768,8-21-2022,6-51-3,117,depth_duration_stimuli/002989_2014-06-15_12-25-03_094959634447_rgbf000150-resize_3/002989_2014-06-15_12-25-03_094959634447_rgbf000150-resize_3-target.png,125,4.1975,5,6040,121,feet,jsons/VE125_randls_37_rotated.json,1781571,1948597,35,Woman
117,342816,DepthScenes,duration_manipulation_targetAtFixation,jsons/VE125_randls_37_rotated.json,http://54.235.29.9/FacialAge/BNav_EC2/DepthDuration/v2_depth_duration_MTurk/v2_DepthDuration_HTML.html#46,46,1364,768,1364,768,8-21-2022,6-51-3,118,depth_duration_stimuli/001571_2014-06-20_17-21-32_260595134347_rgbf000089-resize_1/001571_2014-06-20_17-21-32_260595134347_rgbf000089-resize_1-target.png,125,1.86,3,5517,123,feet,jsons/VE125_randls_37_rotated.json,1781571,1948597,35,Woman
118,342816,DepthScenes,duration_manipulation_targetAtFixation,jsons/VE125_randls_37_rotated.json,http://54.235.29.9/FacialAge/BNav_EC2/DepthDuration/v2_depth_duration_MTurk/v2_DepthDuration_HTML.html#46,46,1364,768,1364,768,8-21-2022,6-51-3,119,depth_duration_stimuli/002272_2014-06-28_18-53-56_260595134347_rgbf000067-resize_2/002272_2014-06-28_18-53-56_260595134347_rgbf000067-resize_2-target.png,125,1.138,4,3479,113,feet,jsons/VE125_randls_37_rotated.json,1781571,1948597,35,Woman
119,342816,DepthScenes,duration_manipulation_targetAtFixation,jsons/VE125_randls_37_rotated.json,http://54.235.29.9/FacialAge/BNav_EC2/DepthDuration/v2_depth_duration_MTurk/v2_DepthDuration_HTML.html#46,46,1364,768,1364,768,8-21-2022,6-51-3,120,depth_duration_stimuli/000787_2014-06-08_22-33-53_260595134347_rgbf000175-resize_1/000787_2014-06-08_22-33-53_260595134347_rgbf000175-resize-original.jpg,125,4.784,0,3935,126,feet,jsons/VE125_randls_37_rotated.json,1781571,1948597,35,Woman
120,342816,DepthScenes,duration_manipulation_targetAtFixation,jsons/VE125_randls_37_rotated.json,http://54.235.29.9/FacialAge/BNav_EC2/DepthDuration/v2_depth_duration_MTurk/v2_DepthDuration_HTML.html#46,46,1364,768,1364,768,8-21-2022,6-51-3,121,depth_duration_stimuli/002875_2014-06-01_15-19-00_094959634447_rgbf000151-resize_1/002875_2014-06-01_15-19-00_094959634447_rgbf000151-resize_1-target.png,125,1.9675,3,4032,122,feet,jsons/VE125_randls_37_rotated.json,1781571,1948597,35,Woman
121,342816,DepthScenes,duration_manipulation_targetAtFixation,jsons/VE125_randls_37_rotated.json,http://54.235.29.9/FacialAge/BNav_EC2/DepthDuration/v2_depth_duration_MTurk/v2_DepthDuration_HTML.html#46,46,1364,768,1364,768,8-21-2022,6-51-3,122,depth_duration_stimuli/001011_2014-06-08_23-18-54_260595134347_rgbf000044-resize_4/001011_2014-06-08_23-18-54_260595134347_rgbf000044-resize_4-target.png,125,2.4730000000000003,3,3026,130,feet,jsons/VE125_randls_37_rotated.json,1781571,1948597,35,Woman
122,342816,DepthScenes,duration_manipulation_targetAtFixation,jsons/VE125_randls_37_rotated.json,http://54.235.29.9/FacialAge/BNav_EC2/DepthDuration/v2_depth_duration_MTurk/v2_DepthDuration_HTML.html#46,46,1364,768,1364,768,8-21-2022,6-51-3,123,depth_duration_stimuli/002103_2014-06-25_20-00-40_260595134347_rgbf000049-resize_0/002103_2014-06-25_20-00-40_260595134347_rgbf000049-resize_0-target.png,125,4.105,4,3866,123,feet,jsons/VE125_randls_37_rotated.json,1781571,1948597,35,Woman
123,342816,DepthScenes,duration_manipulation_targetAtFixation,jsons/VE125_randls_37_rotated.json,http://54.235.29.9/FacialAge/BNav_EC2/DepthDuration/v2_depth_duration_MTurk/v2_DepthDuration_HTML.html#46,46,1364,768,1364,768,8-21-2022,6-51-3,124,depth_duration_stimuli/002039_2014-06-24_20-22-38_260595134347_rgbf000084-resize_1/002039_2014-06-24_20-22-38_260595134347_rgbf000084-resize_1-target.png,125,4.408,2,3299,126,feet,jsons/VE125_randls_37_rotated.json,1781571,1948597,35,Woman
124,342816,DepthScenes,duration_manipulation_targetAtFixation,jsons/VE125_randls_37_rotated.json,http://54.235.29.9/FacialAge/BNav_EC2/DepthDuration/v2_depth_duration_MTurk/v2_DepthDuration_HTML.html#46,46,1364,768,1364,768,8-21-2022,6-51-3,125,depth_duration_stimuli/001214_2014-06-17_16-13-55_260595134347_rgbf000111-resize_0/001214_2014-06-17_16-13-55_260595134347_rgbf000111-resize_0-target.png,125,2.6505,4,3622,124,feet,jsons/VE125_randls_37_rotated.json,1781571,1948597,35,Woman
125,342816,DepthScenes,duration_manipulation_targetAtFixation,jsons/VE125_randls_37_rotated.json,http://54.235.29.9/FacialAge/BNav_EC2/DepthDuration/v2_depth_duration_MTurk/v2_DepthDuration_HTML.html#46,46,1364,768,1364,768,8-21-2022,6-51-3,126,depth_duration_stimuli/000810_2014-06-08_17-20-01_260595134347_rgbf000105-resize_0/000810_2014-06-08_17-20-01_260595134347_rgbf000105-resize_0-target.png,125,1.4865,0,5890,124,feet,jsons/VE125_randls_37_rotated.json,1781571,1948597,35,Woman
126,342816,DepthScenes,duration_manipulation_targetAtFixation,jsons/VE125_randls_37_rotated.json,http://54.235.29.9/FacialAge/BNav_EC2/DepthDuration/v2_depth_duration_MTurk/v2_DepthDuration_HTML.html#46,46,1364,768,1364,768,8-21-2022,6-51-3,127,depth_duration_stimuli/002995_2014-06-15_12-31-26_094959634447_rgbf000150-resize_1/002995_2014-06-15_12-31-26_094959634447_rgbf000150-resize_1-target.png,125,3.8360000000000003,4,5955,124,feet,jsons/VE125_randls_37_rotated.json,1781571,1948597,35,Woman
127,342816,DepthScenes,duration_manipulation_targetAtFixation,jsons/VE125_randls_37_rotated.json,http://54.235.29.9/FacialAge/BNav_EC2/DepthDuration/v2_depth_duration_MTurk/v2_DepthDuration_HTML.html#46,46,1364,768,1364,768,8-21-2022,6-51-3,128,depth_duration_stimuli/002748_2014-06-22_19-07-22_094959634447_rgbf000078-resize_1/002748_2014-06-22_19-07-22_094959634447_rgbf000078-resize_1-target.png,125,4.6705,4,2982,110,feet,jsons/VE125_randls_37_rotated.json,1781571,1948597,35,Woman
128,342816,DepthScenes,duration_manipulation_targetAtFixation,jsons/VE125_randls_37_rotated.json,http://54.235.29.9/FacialAge/BNav_EC2/DepthDuration/v2_depth_duration_MTurk/v2_DepthDuration_HTML.html#46,46,1364,768,1364,768,8-21-2022,6-51-3,129,depth_duration_stimuli/000691_2014-06-08_13-08-50_260595134347_rgbf000132-resize_3/000691_2014-06-08_13-08-50_260595134347_rgbf000132-resize_3-target.png,125,4.1530000000000005,4,4042,125,feet,jsons/VE125_randls_37_rotated.json,1781571,1948597,35,Woman
129,342816,DepthScenes,duration_manipulation_targetAtFixation,jsons/VE125_randls_37_rotated.json,http://54.235.29.9/FacialAge/BNav_EC2/DepthDuration/v2_depth_duration_MTurk/v2_DepthDuration_HTML.html#46,46,1364,768,1364,768,8-21-2022,6-51-3,130,depth_duration_stimuli/002213_2014-06-28_18-37-58_260595134347_rgbf000055-resize_1/002213_2014-06-28_18-37-58_260595134347_rgbf000055-resize_1-target.png,125,3.62,2,2856,119,feet,jsons/VE125_randls_37_rotated.json,1781571,1948597,35,Woman
130,342816,DepthScenes,duration_manipulation_targetAtFixation,jsons/VE125_randls_37_rotated.json,http://54.235.29.9/FacialAge/BNav_EC2/DepthDuration/v2_depth_duration_MTurk/v2_DepthDuration_HTML.html#46,46,1364,768,1364,768,8-21-2022,6-51-3,131,depth_duration_stimuli/002639_2014-06-24_14-51-37_094959634447_rgbf000074-resize_4/002639_2014-06-24_14-51-37_094959634447_rgbf000074-resize_4-target.png,125,4.0375,3,3328,133,feet,jsons/VE125_randls_37_rotated.json,1781571,1948597,35,Woman
131,342816,DepthScenes,duration_manipulation_targetAtFixation,jsons/VE125_randls_37_rotated.json,http://54.235.29.9/FacialAge/BNav_EC2/DepthDuration/v2_depth_duration_MTurk/v2_DepthDuration_HTML.html#46,46,1364,768,1364,768,8-21-2022,6-51-3,132,depth_duration_stimuli/003292_2014-05-14_21-53-49_094959634447_rgbf000100-resize_2/003292_2014-05-14_21-53-49_094959634447_rgbf000100-resize_2-target.png,125,3.4815,3,2643,130,feet,jsons/VE125_randls_37_rotated.json,1781571,1948597,35,Woman
132,342816,DepthScenes,duration_manipulation_targetAtFixation,jsons/VE125_randls_37_rotated.json,http://54.235.29.9/FacialAge/BNav_EC2/DepthDuration/v2_depth_duration_MTurk/v2_DepthDuration_HTML.html#46,46,1364,768,1364,768,8-21-2022,6-51-3,133,depth_duration_stimuli/003079_2014-06-15_15-18-20_094959634447_rgbf000152-resize_8/003079_2014-06-15_15-18-20_094959634447_rgbf000152-resize_8-target.png,125,2.8775,5,3518,113,feet,jsons/VE125_randls_37_rotated.json,1781571,1948597,35,Woman
133,342816,DepthScenes,duration_manipulation_targetAtFixation,jsons/VE125_randls_37_rotated.json,http://54.235.29.9/FacialAge/BNav_EC2/DepthDuration/v2_depth_duration_MTurk/v2_DepthDuration_HTML.html#46,46,1364,768,1364,768,8-21-2022,6-51-3,134,depth_duration_stimuli/000506_2014-06-08_23-21-00_260595134347_rgbf000070-resize_7/000506_2014-06-08_23-21-00_260595134347_rgbf000070-resize_7-target.png,125,4.0585,3,104321,122,feet,jsons/VE125_randls_37_rotated.json,1781571,1948597,35,Woman
134,342816,DepthScenes,duration_manipulation_targetAtFixation,jsons/VE125_randls_37_rotated.json,http://54.235.29.9/FacialAge/BNav_EC2/DepthDuration/v2_depth_duration_MTurk/v2_DepthDuration_HTML.html#46,46,1364,768,1364,768,8-21-2022,6-51-3,135,depth_duration_stimuli/000375_2014-06-08_11-17-29_260595134347_rgbf000133-resize_2/000375_2014-06-08_11-17-29_260595134347_rgbf000133-resize-original.jpg,125,4.718,0,7673,125,feet,jsons/VE125_randls_37_rotated.json,1781571,1948597,35,Woman
135,342816,DepthScenes,duration_manipulation_targetAtFixation,jsons/VE125_randls_37_rotated.json,http://54.235.29.9/FacialAge/BNav_EC2/DepthDuration/v2_depth_duration_MTurk/v2_DepthDuration_HTML.html#46,46,1364,768,1364,768,8-21-2022,6-51-3,136,depth_duration_stimuli/000854_2014-06-09_19-43-13_260595134347_rgbf000066-resize_0/000854_2014-06-09_19-43-13_260595134347_rgbf000066-resize_0-target.png,125,3.068,4,6087,120,feet,jsons/VE125_randls_37_rotated.json,1781571,1948597,35,Woman
136,342816,DepthScenes,duration_manipulation_targetAtFixation,jsons/VE125_randls_37_rotated.json,http://54.235.29.9/FacialAge/BNav_EC2/DepthDuration/v2_depth_duration_MTurk/v2_DepthDuration_HTML.html#46,46,1364,768,1364,768,8-21-2022,6-51-3,137,depth_duration_stimuli/000758_2014-06-08_22-05-08_260595134347_rgbf000085-resize_0/000758_2014-06-08_22-05-08_260595134347_rgbf000085-resize_0-target.png,125,3.3810000000000002,4,3067,125,feet,jsons/VE125_randls_37_rotated.json,1781571,1948597,35,Woman
137,342816,DepthScenes,duration_manipulation_targetAtFixation,jsons/VE125_randls_37_rotated.json,http://54.235.29.9/FacialAge/BNav_EC2/DepthDuration/v2_depth_duration_MTurk/v2_DepthDuration_HTML.html#46,46,1364,768,1364,768,8-21-2022,6-51-3,138,depth_duration_stimuli/001447_2014-06-19_17-00-32_260595134347_rgbf000082-resize_5/001447_2014-06-19_17-00-32_260595134347_rgbf000082-resize_5-target.png,125,4.13775,5,5163,125,feet,jsons/VE125_randls_37_rotated.json,1781571,1948597,35,Woman
138,342816,DepthScenes,duration_manipulation_targetAtFixation,jsons/VE125_randls_37_rotated.json,http://54.235.29.9/FacialAge/BNav_EC2/DepthDuration/v2_depth_duration_MTurk/v2_DepthDuration_HTML.html#46,46,1364,768,1364,768,8-21-2022,6-51-3,139,depth_duration_stimuli/000447_2014-06-08_16-15-46_260595134347_rgbf000130-resize_1/000447_2014-06-08_16-15-46_260595134347_rgbf000130-resize_1-target.png,125,4.479,5,5000,122,feet,jsons/VE125_randls_37_rotated.json,1781571,1948597,35,Woman
139,342816,DepthScenes,duration_manipulation_targetAtFixation,jsons/VE125_randls_37_rotated.json,http://54.235.29.9/FacialAge/BNav_EC2/DepthDuration/v2_depth_duration_MTurk/v2_DepthDuration_HTML.html#46,46,1364,768,1364,768,8-21-2022,6-51-3,140,depth_duration_stimuli/002414_2014-06-28_20-24-58_260595134347_rgbf000067-resize_4/002414_2014-06-28_20-24-58_260595134347_rgbf000067-resize_4-target.png,125,4.363,6,5602,125,feet,jsons/VE125_randls_37_rotated.json,1781571,1948597,35,Woman
140,342816,DepthScenes,duration_manipulation_targetAtFixation,jsons/VE125_randls_37_rotated.json,http://54.235.29.9/FacialAge/BNav_EC2/DepthDuration/v2_depth_duration_MTurk/v2_DepthDuration_HTML.html#46,46,1364,768,1364,768,8-21-2022,6-51-3,141,depth_duration_stimuli/000773_2014-06-08_22-24-54_260595134347_rgbf000093-resize_1/000773_2014-06-08_22-24-54_260595134347_rgbf000093-resize_1-target.png,125,4.973,6,5931,125,feet,jsons/VE125_randls_37_rotated.json,1781571,1948597,35,Woman
141,342816,DepthScenes,duration_manipulation_targetAtFixation,jsons/VE125_randls_37_rotated.json,http://54.235.29.9/FacialAge/BNav_EC2/DepthDuration/v2_depth_duration_MTurk/v2_DepthDuration_HTML.html#46,46,1364,768,1364,768,8-21-2022,6-51-3,142,depth_duration_stimuli/002660_2014-06-13_15-44-18_094959634447_rgbf001878-resize_2/002660_2014-06-13_15-44-18_094959634447_rgbf001878-resize_2-target.png,125,3.576,5,5963,129,feet,jsons/VE125_randls_37_rotated.json,1781571,1948597,35,Woman
142,342816,DepthScenes,duration_manipulation_targetAtFixation,jsons/VE125_randls_37_rotated.json,http://54.235.29.9/FacialAge/BNav_EC2/DepthDuration/v2_depth_duration_MTurk/v2_DepthDuration_HTML.html#46,46,1364,768,1364,768,8-21-2022,6-51-3,143,depth_duration_stimuli/002153_2014-06-25_21-27-18_260595134347_rgbf000038-resize_5/002153_2014-06-25_21-27-18_260595134347_rgbf000038-resize_5-target.png,125,2.505,5,3666,125,feet,jsons/VE125_randls_37_rotated.json,1781571,1948597,35,Woman
143,342816,DepthScenes,duration_manipulation_targetAtFixation,jsons/VE125_randls_37_rotated.json,http://54.235.29.9/FacialAge/BNav_EC2/DepthDuration/v2_depth_duration_MTurk/v2_DepthDuration_HTML.html#46,46,1364,768,1364,768,8-21-2022,6-51-3,144,depth_duration_stimuli/002949_2014-06-26_15-57-42_094959634447_rgbf000079-resize_1/002949_2014-06-26_15-57-42_094959634447_rgbf000079-resize_1-target.png,125,1.8915,4,3819,125,feet,jsons/VE125_randls_37_rotated.json,1781571,1948597,35,Woman
144,342816,DepthScenes,duration_manipulation_targetAtFixation,jsons/VE125_randls_37_rotated.json,http://54.235.29.9/FacialAge/BNav_EC2/DepthDuration/v2_depth_duration_MTurk/v2_DepthDuration_HTML.html#46,46,1364,768,1364,768,8-21-2022,6-51-3,145,depth_duration_stimuli/000522_2014-06-08_13-35-06_260595134347_rgbf000244-resize_1/000522_2014-06-08_13-35-06_260595134347_rgbf000244-resize_1-target.png,125,2.3715,2,4731,124,feet,jsons/VE125_randls_37_rotated.json,1781571,1948597,35,Woman
145,342816,DepthScenes,duration_manipulation_targetAtFixation,jsons/VE125_randls_37_rotated.json,http://54.235.29.9/FacialAge/BNav_EC2/DepthDuration/v2_depth_duration_MTurk/v2_DepthDuration_HTML.html#46,46,1364,768,1364,768,8-21-2022,6-51-3,146,depth_duration_stimuli/001828_2014-06-26_21-40-03_260595134347_rgbf000024-resize_0/001828_2014-06-26_21-40-03_260595134347_rgbf000024-resize_0-target.png,125,4.8260000000000005,4,4739,125,feet,jsons/VE125_randls_37_rotated.json,1781571,1948597,35,Woman
146,342816,DepthScenes,duration_manipulation_targetAtFixation,jsons/VE125_randls_37_rotated.json,http://54.235.29.9/FacialAge/BNav_EC2/DepthDuration/v2_depth_duration_MTurk/v2_DepthDuration_HTML.html#46,46,1364,768,1364,768,8-21-2022,6-51-3,147,depth_duration_stimuli/000009_2014-05-26_14-32-05_260595134347_rgbf000034-resize_3/000009_2014-05-26_14-32-05_260595134347_rgbf000034-resize_3-target.png,125,3.8715,7,8786,123,feet,jsons/VE125_randls_37_rotated.json,1781571,1948597,35,Woman
147,342816,DepthScenes,duration_manipulation_targetAtFixation,jsons/VE125_randls_37_rotated.json,http://54.235.29.9/FacialAge/BNav_EC2/DepthDuration/v2_depth_duration_MTurk/v2_DepthDuration_HTML.html#46,46,1364,768,1364,768,8-21-2022,6-51-3,148,depth_duration_stimuli/001032_2014-06-08_13-23-17_260595134347_rgbf000021-resize_3/001032_2014-06-08_13-23-17_260595134347_rgbf000021-resize_3-target.png,125,3.2725,5,11683,123,feet,jsons/VE125_randls_37_rotated.json,1781571,1948597,35,Woman
148,342816,DepthScenes,duration_manipulation_targetAtFixation,jsons/VE125_randls_37_rotated.json,http://54.235.29.9/FacialAge/BNav_EC2/DepthDuration/v2_depth_duration_MTurk/v2_DepthDuration_HTML.html#46,46,1364,768,1364,768,8-21-2022,6-51-3,149,depth_duration_stimuli/001059_2014-06-08_21-53-27_260595134347_rgbf000061-resize_4/001059_2014-06-08_21-53-27_260595134347_rgbf000061-resize_4-target.png,125,2.4185,5,9050,126,feet,jsons/VE125_randls_37_rotated.json,1781571,1948597,35,Woman
149,342816,DepthScenes,duration_manipulation_targetAtFixation,jsons/VE125_randls_37_rotated.json,http://54.235.29.9/FacialAge/BNav_EC2/DepthDuration/v2_depth_duration_MTurk/v2_DepthDuration_HTML.html#46,46,1364,768,1364,768,8-21-2022,6-51-3,150,depth_duration_stimuli/000742_2014-06-08_18-48-09_260595134347_rgbf000164-resize_4/000742_2014-06-08_18-48-09_260595134347_rgbf000164-resize_4-target.png,125,4.632,6,9018,124,feet,jsons/VE125_randls_37_rotated.json,1781571,1948597,35,Woman
150,342816,DepthScenes,duration_manipulation_targetAtFixation,jsons/VE125_randls_37_rotated.json,http://54.235.29.9/FacialAge/BNav_EC2/DepthDuration/v2_depth_duration_MTurk/v2_DepthDuration_HTML.html#46,46,1364,768,1364,768,8-21-2022,6-51-3,151,depth_duration_stimuli/001066_2014-06-08_22-03-20_260595134347_rgbf000066-resize_4/001066_2014-06-08_22-03-20_260595134347_rgbf000066-resize_4-target.png,125,4.2330000000000005,6,3532,128,feet,jsons/VE125_randls_37_rotated.json,1781571,1948597,35,Woman
151,342816,DepthScenes,duration_manipulation_targetAtFixation,jsons/VE125_randls_37_rotated.json,http://54.235.29.9/FacialAge/BNav_EC2/DepthDuration/v2_depth_duration_MTurk/v2_DepthDuration_HTML.html#46,46,1364,768,1364,768,8-21-2022,6-51-3,152,depth_duration_stimuli/000569_2014-06-09_22-51-47_260595134347_rgbf000141-resize_3/000569_2014-06-09_22-51-47_260595134347_rgbf000141-resize-original.jpg,125,4.512,5,6081,124,feet,jsons/VE125_randls_37_rotated.json,1781571,1948597,35,Woman
152,342816,DepthScenes,duration_manipulation_targetAtFixation,jsons/VE125_randls_37_rotated.json,http://54.235.29.9/FacialAge/BNav_EC2/DepthDuration/v2_depth_duration_MTurk/v2_DepthDuration_HTML.html#46,46,1364,768,1364,768,8-21-2022,6-51-3,153,depth_duration_stimuli/000709_2014-06-08_13-51-55_260595134347_rgbf000068-resize_3/000709_2014-06-08_13-51-55_260595134347_rgbf000068-resize_3-target.png,125,1.8030000000000002,5,14948,125,feet,jsons/VE125_randls_37_rotated.json,1781571,1948597,35,Woman
153,342816,DepthScenes,duration_manipulation_targetAtFixation,jsons/VE125_randls_37_rotated.json,http://54.235.29.9/FacialAge/BNav_EC2/DepthDuration/v2_depth_duration_MTurk/v2_DepthDuration_HTML.html#46,46,1364,768,1364,768,8-21-2022,6-51-3,154,depth_duration_stimuli/002057_2014-06-24_21-00-13_260595134347_rgbf000120-resize_1/002057_2014-06-24_21-00-13_260595134347_rgbf000120-resize_1-target.png,125,2.967,3,2745,124,feet,jsons/VE125_randls_37_rotated.json,1781571,1948597,35,Woman
154,342816,DepthScenes,duration_manipulation_targetAtFixation,jsons/VE125_randls_37_rotated.json,http://54.235.29.9/FacialAge/BNav_EC2/DepthDuration/v2_depth_duration_MTurk/v2_DepthDuration_HTML.html#46,46,1364,768,1364,768,8-21-2022,6-51-3,155,depth_duration_stimuli/003228_2014-05-14_13-42-35_094959634447_rgbf000101-resize_1/003228_2014-05-14_13-42-35_094959634447_rgbf000101-resize_1-target.png,125,1.9680000000000002,2,5051,125,feet,jsons/VE125_randls_37_rotated.json,1781571,1948597,35,Woman
155,342816,DepthScenes,duration_manipulation_targetAtFixation,jsons/VE125_randls_37_rotated.json,http://54.235.29.9/FacialAge/BNav_EC2/DepthDuration/v2_depth_duration_MTurk/v2_DepthDuration_HTML.html#46,46,1364,768,1364,768,8-21-2022,6-51-3,156,depth_duration_stimuli/002600_2014-06-24_14-27-04_094959634447_rgbf000074-resize_2/002600_2014-06-24_14-27-04_094959634447_rgbf000074-resize_2-target.png,125,2.7575,2,3379,125,feet,jsons/VE125_randls_37_rotated.json,1781571,1948597,35,Woman
156,342816,DepthScenes,duration_manipulation_targetAtFixation,jsons/VE125_randls_37_rotated.json,http://54.235.29.9/FacialAge/BNav_EC2/DepthDuration/v2_depth_duration_MTurk/v2_DepthDuration_HTML.html#46,46,1364,768,1364,768,8-21-2022,6-51-3,157,depth_duration_stimuli/002805_2014-06-22_19-54-03_094959634447_rgbf000079-resize_1/002805_2014-06-22_19-54-03_094959634447_rgbf000079-resize_1-target.png,125,3.1439999999999997,5,3788,125,feet,jsons/VE125_randls_37_rotated.json,1781571,1948597,35,Woman
157,342816,DepthScenes,duration_manipulation_targetAtFixation,jsons/VE125_randls_37_rotated.json,http://54.235.29.9/FacialAge/BNav_EC2/DepthDuration/v2_depth_duration_MTurk/v2_DepthDuration_HTML.html#46,46,1364,768,1364,768,8-21-2022,6-51-3,158,depth_duration_stimuli/000906_2014-06-08_13-35-43_260595134347_rgbf000155-resize_1/000906_2014-06-08_13-35-43_260595134347_rgbf000155-resize_1-target.png,125,2.8489999999999998,5,2379,124,feet,jsons/VE125_randls_37_rotated.json,1781571,1948597,35,Woman
158,342816,DepthScenes,duration_manipulation_targetAtFixation,jsons/VE125_randls_37_rotated.json,http://54.235.29.9/FacialAge/BNav_EC2/DepthDuration/v2_depth_duration_MTurk/v2_DepthDuration_HTML.html#46,46,1364,768,1364,768,8-21-2022,6-51-3,159,depth_duration_stimuli/002545_2014-06-24_13-38-53_094959634447_rgbf000080-resize_4/002545_2014-06-24_13-38-53_094959634447_rgbf000080-resize_4-target.png,125,1.9205,3,4146,124,feet,jsons/VE125_randls_37_rotated.json,1781571,1948597,35,Woman
159,342816,DepthScenes,duration_manipulation_targetAtFixation,jsons/VE125_randls_37_rotated.json,http://54.235.29.9/FacialAge/BNav_EC2/DepthDuration/v2_depth_duration_MTurk/v2_DepthDuration_HTML.html#46,46,1364,768,1364,768,8-21-2022,6-51-3,160,depth_duration_stimuli/001092_2014-06-15_17-34-58_260595134347_rgbf000171-resize_3/001092_2014-06-15_17-34-58_260595134347_rgbf000171-resize_3-target.png,125,2.6935,3,3811,124,feet,jsons/VE125_randls_37_rotated.json,1781571,1948597,35,Woman
160,342816,DepthScenes,duration_manipulation_targetAtFixation,jsons/VE125_randls_37_rotated.json,http://54.235.29.9/FacialAge/BNav_EC2/DepthDuration/v2_depth_duration_MTurk/v2_DepthDuration_HTML.html#46,46,1364,768,1364,768,8-21-2022,6-51-3,161,depth_duration_stimuli/001052_2014-06-08_18-24-54_260595134347_rgbf000130-resize_1/001052_2014-06-08_18-24-54_260595134347_rgbf000130-resize_1-target.png,125,4.1045,6,6331,124,feet,jsons/VE125_randls_37_rotated.json,1781571,1948597,35,Woman
161,342816,DepthScenes,duration_manipulation_targetAtFixation,jsons/VE125_randls_37_rotated.json,http://54.235.29.9/FacialAge/BNav_EC2/DepthDuration/v2_depth_duration_MTurk/v2_DepthDuration_HTML.html#46,46,1364,768,1364,768,8-21-2022,6-51-3,162,depth_duration_stimuli/002988_2014-06-15_12-24-20_094959634447_rgbf000150-resize_1/002988_2014-06-15_12-24-20_094959634447_rgbf000150-resize_1-target.png,125,4.7669999999999995,6,3442,125,feet,jsons/VE125_randls_37_rotated.json,1781571,1948597,35,Woman
162,342816,DepthScenes,duration_manipulation_targetAtFixation,jsons/VE125_randls_37_rotated.json,http://54.235.29.9/FacialAge/BNav_EC2/DepthDuration/v2_depth_duration_MTurk/v2_DepthDuration_HTML.html#46,46,1364,768,1364,768,8-21-2022,6-51-3,163,depth_duration_stimuli/000635_2014-06-08_16-38-42_260595134347_rgbf000106-resize_1/000635_2014-06-08_16-38-42_260595134347_rgbf000106-resize_1-target.png,125,2.074,4,5123,125,feet,jsons/VE125_randls_37_rotated.json,1781571,1948597,35,Woman
163,342816,DepthScenes,duration_manipulation_targetAtFixation,jsons/VE125_randls_37_rotated.json,http://54.235.29.9/FacialAge/BNav_EC2/DepthDuration/v2_depth_duration_MTurk/v2_DepthDuration_HTML.html#46,46,1364,768,1364,768,8-21-2022,6-51-3,164,depth_duration_stimuli/002279_2014-06-28_18-55-32_260595134347_rgbf000040-resize_5/002279_2014-06-28_18-55-32_260595134347_rgbf000040-resize_5-target.png,125,1.5043333333333,3,3578,123,feet,jsons/VE125_randls_37_rotated.json,1781571,1948597,35,Woman
