,subjID,experimentName,versionName,sequenceName,url,selected_row,windowWidth,windowHeight,screenWidth,screenHeight,startDate,startTime,trial,stimulus,duration,actual_depth,depth_estimate,trial_RT,log_sceneDuration,unitSelection,seq_filepath,experimentTime,totalTime,age,gender
0,344034,DepthScenes,duration_manipulation_targetAtFixation,jsons/VE125_randls_74.json,http://54.235.29.9/FacialAge/BNav_EC2/DepthDuration/v2_depth_duration_MTurk/v2_DepthDuration_HTML.html#11,11,1536,864,1536,864,8-21-2022,9-39-17,1,depth_duration_stimuli/002630_2014-06-24_14-47-50_094959634447_rgbf000055-resize_1/002630_2014-06-24_14-47-50_094959634447_rgbf000055-resize_1-target.png,125,3.0095,5,4826,129,feet,jsons/VE125_randls_74.json,1472918,1743360,23,Woman
1,344034,DepthScenes,duration_manipulation_targetAtFixation,jsons/VE125_randls_74.json,http://54.235.29.9/FacialAge/BNav_EC2/DepthDuration/v2_depth_duration_MTurk/v2_DepthDuration_HTML.html#11,11,1536,864,1536,864,8-21-2022,9-39-17,2,depth_duration_stimuli/002758_2014-06-22_19-11-20_094959634447_rgbf000128-resize_1/002758_2014-06-22_19-11-20_094959634447_rgbf000128-resize_1-target.png,125,2.555,3,3635,109,feet,jsons/VE125_randls_74.json,1472918,1743360,23,Woman
2,344034,DepthScenes,duration_manipulation_targetAtFixation,jsons/VE125_randls_74.json,http://54.235.29.9/FacialAge/BNav_EC2/DepthDuration/v2_depth_duration_MTurk/v2_DepthDuration_HTML.html#11,11,1536,864,1536,864,8-21-2022,9-39-17,3,depth_duration_stimuli/000493_2014-06-09_21-01-18_260595134347_rgbf000196-resize_3/000493_2014-06-09_21-01-18_260595134347_rgbf000196-resize_3-target.png,125,3.44,3,5892,129,feet,jsons/VE125_randls_74.json,1472918,1743360,23,Woman
3,344034,DepthScenes,duration_manipulation_targetAtFixation,jsons/VE125_randls_74.json,http://54.235.29.9/FacialAge/BNav_EC2/DepthDuration/v2_depth_duration_MTurk/v2_DepthDuration_HTML.html#11,11,1536,864,1536,864,8-21-2022,9-39-17,4,depth_duration_stimuli/000191_2014-05-12_17-07-38_260595134347_rgbf000199-resize_0/000191_2014-05-12_17-07-38_260595134347_rgbf000199-resize_0-target.png,125,3.7995,5,8872,126,feet,jsons/VE125_randls_74.json,1472918,1743360,23,Woman
4,344034,DepthScenes,duration_manipulation_targetAtFixation,jsons/VE125_randls_74.json,http://54.235.29.9/FacialAge/BNav_EC2/DepthDuration/v2_depth_duration_MTurk/v2_DepthDuration_HTML.html#11,11,1536,864,1536,864,8-21-2022,9-39-17,5,depth_duration_stimuli/003534_2014-05-22_15-06-10_094959634447_rgbf000102-resize_4/003534_2014-05-22_15-06-10_094959634447_rgbf000102-resize_4-target.png,125,1.426,2,3135,121,feet,jsons/VE125_randls_74.json,1472918,1743360,23,Woman
5,344034,DepthScenes,duration_manipulation_targetAtFixation,jsons/VE125_randls_74.json,http://54.235.29.9/FacialAge/BNav_EC2/DepthDuration/v2_depth_duration_MTurk/v2_DepthDuration_HTML.html#11,11,1536,864,1536,864,8-21-2022,9-39-17,6,depth_duration_stimuli/002637_2014-06-24_14-51-13_094959634447_rgbf000066-resize_4/002637_2014-06-24_14-51-13_094959634447_rgbf000066-resize_4-target.png,125,1.9955,2,3465,143,feet,jsons/VE125_randls_74.json,1472918,1743360,23,Woman
6,344034,DepthScenes,duration_manipulation_targetAtFixation,jsons/VE125_randls_74.json,http://54.235.29.9/FacialAge/BNav_EC2/DepthDuration/v2_depth_duration_MTurk/v2_DepthDuration_HTML.html#11,11,1536,864,1536,864,8-21-2022,9-39-17,7,depth_duration_stimuli/000929_2014-06-09_16-33-19_260595134347_rgbf000139-resize_0/000929_2014-06-09_16-33-19_260595134347_rgbf000139-resize_0-target.png,125,2.8680000000000003,3,3792,123,feet,jsons/VE125_randls_74.json,1472918,1743360,23,Woman
7,344034,DepthScenes,duration_manipulation_targetAtFixation,jsons/VE125_randls_74.json,http://54.235.29.9/FacialAge/BNav_EC2/DepthDuration/v2_depth_duration_MTurk/v2_DepthDuration_HTML.html#11,11,1536,864,1536,864,8-21-2022,9-39-17,8,depth_duration_stimuli/000457_2014-06-08_16-52-43_260595134347_rgbf000199-resize_1/000457_2014-06-08_16-52-43_260595134347_rgbf000199-resize_1-target.png,125,3.6489999999999996,4,5090,129,feet,jsons/VE125_randls_74.json,1472918,1743360,23,Woman
8,344034,DepthScenes,duration_manipulation_targetAtFixation,jsons/VE125_randls_74.json,http://54.235.29.9/FacialAge/BNav_EC2/DepthDuration/v2_depth_duration_MTurk/v2_DepthDuration_HTML.html#11,11,1536,864,1536,864,8-21-2022,9-39-17,9,depth_duration_stimuli/002788_2014-06-22_19-36-03_094959634447_rgbf000088-resize_2/002788_2014-06-22_19-36-03_094959634447_rgbf000088-resize_2-target.png,125,1.6465,3,6041,122,feet,jsons/VE125_randls_74.json,1472918,1743360,23,Woman
9,344034,DepthScenes,duration_manipulation_targetAtFixation,jsons/VE125_randls_74.json,http://54.235.29.9/FacialAge/BNav_EC2/DepthDuration/v2_depth_duration_MTurk/v2_DepthDuration_HTML.html#11,11,1536,864,1536,864,8-21-2022,9-39-17,10,depth_duration_stimuli/000749_2014-06-08_21-55-06_260595134347_rgbf000070-resize_2/000749_2014-06-08_21-55-06_260595134347_rgbf000070-resize_2-target.png,125,2.331,2,3544,100,feet,jsons/VE125_randls_74.json,1472918,1743360,23,Woman
10,344034,DepthScenes,duration_manipulation_targetAtFixation,jsons/VE125_randls_74.json,http://54.235.29.9/FacialAge/BNav_EC2/DepthDuration/v2_depth_duration_MTurk/v2_DepthDuration_HTML.html#11,11,1536,864,1536,864,8-21-2022,9-39-17,11,depth_duration_stimuli/002153_2014-06-25_21-27-18_260595134347_rgbf000038-resize_5/002153_2014-06-25_21-27-18_260595134347_rgbf000038-resize_5-target.png,125,2.505,2,3233,131,feet,jsons/VE125_randls_74.json,1472918,1743360,23,Woman
11,344034,DepthScenes,duration_manipulation_targetAtFixation,jsons/VE125_randls_74.json,http://54.235.29.9/FacialAge/BNav_EC2/DepthDuration/v2_depth_duration_MTurk/v2_DepthDuration_HTML.html#11,11,1536,864,1536,864,8-21-2022,9-39-17,12,depth_duration_stimuli/002660_2014-06-13_15-44-18_094959634447_rgbf001878-resize_2/002660_2014-06-13_15-44-18_094959634447_rgbf001878-resize_2-target.png,125,3.576,4,5021,127,feet,jsons/VE125_randls_74.json,1472918,1743360,23,Woman
12,344034,DepthScenes,duration_manipulation_targetAtFixation,jsons/VE125_randls_74.json,http://54.235.29.9/FacialAge/BNav_EC2/DepthDuration/v2_depth_duration_MTurk/v2_DepthDuration_HTML.html#11,11,1536,864,1536,864,8-21-2022,9-39-17,13,depth_duration_stimuli/000569_2014-06-09_22-51-47_260595134347_rgbf000141-resize_3/000569_2014-06-09_22-51-47_260595134347_rgbf000141-resize-original.jpg,125,4.512,0,3275,113,feet,jsons/VE125_randls_74.json,1472918,1743360,23,Woman
13,344034,DepthScenes,duration_manipulation_targetAtFixation,jsons/VE125_randls_74.json,http://54.235.29.9/FacialAge/BNav_EC2/DepthDuration/v2_depth_duration_MTurk/v2_DepthDuration_HTML.html#11,11,1536,864,1536,864,8-21-2022,9-39-17,14,depth_duration_stimuli/000506_2014-06-08_23-21-00_260595134347_rgbf000070-resize_7/000506_2014-06-08_23-21-00_260595134347_rgbf000070-resize_7-target.png,125,4.0585,7,7786,111,feet,jsons/VE125_randls_74.json,1472918,1743360,23,Woman
14,344034,DepthScenes,duration_manipulation_targetAtFixation,jsons/VE125_randls_74.json,http://54.235.29.9/FacialAge/BNav_EC2/DepthDuration/v2_depth_duration_MTurk/v2_DepthDuration_HTML.html#11,11,1536,864,1536,864,8-21-2022,9-39-17,15,depth_duration_stimuli/003079_2014-06-15_15-18-20_094959634447_rgbf000152-resize_8/003079_2014-06-15_15-18-20_094959634447_rgbf000152-resize_8-target.png,125,2.8775,7,3322,134,feet,jsons/VE125_randls_74.json,1472918,1743360,23,Woman
15,344034,DepthScenes,duration_manipulation_targetAtFixation,jsons/VE125_randls_74.json,http://54.235.29.9/FacialAge/BNav_EC2/DepthDuration/v2_depth_duration_MTurk/v2_DepthDuration_HTML.html#11,11,1536,864,1536,864,8-21-2022,9-39-17,16,depth_duration_stimuli/002549_2014-06-24_13-41-39_094959634447_rgbf000022-resize_3/002549_2014-06-24_13-41-39_094959634447_rgbf000022-resize_3-target.png,125,1.476,2,3670,126,feet,jsons/VE125_randls_74.json,1472918,1743360,23,Woman
16,344034,DepthScenes,duration_manipulation_targetAtFixation,jsons/VE125_randls_74.json,http://54.235.29.9/FacialAge/BNav_EC2/DepthDuration/v2_depth_duration_MTurk/v2_DepthDuration_HTML.html#11,11,1536,864,1536,864,8-21-2022,9-39-17,17,depth_duration_stimuli/002750_2014-06-22_19-08-03_094959634447_rgbf000094-resize_4/002750_2014-06-22_19-08-03_094959634447_rgbf000094-resize_4-target.png,125,2.354,4,4248,118,feet,jsons/VE125_randls_74.json,1472918,1743360,23,Woman
17,344034,DepthScenes,duration_manipulation_targetAtFixation,jsons/VE125_randls_74.json,http://54.235.29.9/FacialAge/BNav_EC2/DepthDuration/v2_depth_duration_MTurk/v2_DepthDuration_HTML.html#11,11,1536,864,1536,864,8-21-2022,9-39-17,18,depth_duration_stimuli/002989_2014-06-15_12-25-03_094959634447_rgbf000150-resize_3/002989_2014-06-15_12-25-03_094959634447_rgbf000150-resize_3-target.png,125,4.1975,5,5030,108,feet,jsons/VE125_randls_74.json,1472918,1743360,23,Woman
18,344034,DepthScenes,duration_manipulation_targetAtFixation,jsons/VE125_randls_74.json,http://54.235.29.9/FacialAge/BNav_EC2/DepthDuration/v2_depth_duration_MTurk/v2_DepthDuration_HTML.html#11,11,1536,864,1536,864,8-21-2022,9-39-17,19,depth_duration_stimuli/000866_2014-06-09_20-45-42_260595134347_rgbf000139-resize_1/000866_2014-06-09_20-45-42_260595134347_rgbf000139-resize_1-target.png,125,3.2155,4,5596,113,feet,jsons/VE125_randls_74.json,1472918,1743360,23,Woman
19,344034,DepthScenes,duration_manipulation_targetAtFixation,jsons/VE125_randls_74.json,http://54.235.29.9/FacialAge/BNav_EC2/DepthDuration/v2_depth_duration_MTurk/v2_DepthDuration_HTML.html#11,11,1536,864,1536,864,8-21-2022,9-39-17,20,depth_duration_stimuli/003070_2014-06-15_14-58-27_094959634447_rgbf000150-resize_3/003070_2014-06-15_14-58-27_094959634447_rgbf000150-resize_3-target.png,125,2.9415,4,6827,139,feet,jsons/VE125_randls_74.json,1472918,1743360,23,Woman
20,344034,DepthScenes,duration_manipulation_targetAtFixation,jsons/VE125_randls_74.json,http://54.235.29.9/FacialAge/BNav_EC2/DepthDuration/v2_depth_duration_MTurk/v2_DepthDuration_HTML.html#11,11,1536,864,1536,864,8-21-2022,9-39-17,21,depth_duration_stimuli/000943_2014-06-09_19-31-07_260595134347_rgbf000128-resize_1/000943_2014-06-09_19-31-07_260595134347_rgbf000128-resize_1-target.png,125,1.9765,3,4300,122,feet,jsons/VE125_randls_74.json,1472918,1743360,23,Woman
21,344034,DepthScenes,duration_manipulation_targetAtFixation,jsons/VE125_randls_74.json,http://54.235.29.9/FacialAge/BNav_EC2/DepthDuration/v2_depth_duration_MTurk/v2_DepthDuration_HTML.html#11,11,1536,864,1536,864,8-21-2022,9-39-17,22,depth_duration_stimuli/000682_2014-06-08_23-14-58_260595134347_rgbf000041-resize_5/000682_2014-06-08_23-14-58_260595134347_rgbf000041-resize_5-target.png,125,2.7239999999999998,3,3277,131,feet,jsons/VE125_randls_74.json,1472918,1743360,23,Woman
22,344034,DepthScenes,duration_manipulation_targetAtFixation,jsons/VE125_randls_74.json,http://54.235.29.9/FacialAge/BNav_EC2/DepthDuration/v2_depth_duration_MTurk/v2_DepthDuration_HTML.html#11,11,1536,864,1536,864,8-21-2022,9-39-17,23,depth_duration_stimuli/001650_2014-06-20_12-09-00_260595134347_rgbf000087-resize_3/001650_2014-06-20_12-09-00_260595134347_rgbf000087-resize_3-target.png,125,1.9505,2,3683,132,feet,jsons/VE125_randls_74.json,1472918,1743360,23,Woman
23,344034,DepthScenes,duration_manipulation_targetAtFixation,jsons/VE125_randls_74.json,http://54.235.29.9/FacialAge/BNav_EC2/DepthDuration/v2_depth_duration_MTurk/v2_DepthDuration_HTML.html#11,11,1536,864,1536,864,8-21-2022,9-39-17,24,depth_duration_stimuli/001417_2014-06-19_16-25-36_260595134347_rgbf000115-resize_5/001417_2014-06-19_16-25-36_260595134347_rgbf000115-resize_5-target.png,125,4.6255,7,3133,102,feet,jsons/VE125_randls_74.json,1472918,1743360,23,Woman
24,344034,DepthScenes,duration_manipulation_targetAtFixation,jsons/VE125_randls_74.json,http://54.235.29.9/FacialAge/BNav_EC2/DepthDuration/v2_depth_duration_MTurk/v2_DepthDuration_HTML.html#11,11,1536,864,1536,864,8-21-2022,9-39-17,25,depth_duration_stimuli/003081_2014-06-15_15-19-16_094959634447_rgbf000150-resize_1/003081_2014-06-15_15-19-16_094959634447_rgbf000150-resize_1-target.png,125,3.9125,7,4103,132,feet,jsons/VE125_randls_74.json,1472918,1743360,23,Woman
25,344034,DepthScenes,duration_manipulation_targetAtFixation,jsons/VE125_randls_74.json,http://54.235.29.9/FacialAge/BNav_EC2/DepthDuration/v2_depth_duration_MTurk/v2_DepthDuration_HTML.html#11,11,1536,864,1536,864,8-21-2022,9-39-17,26,depth_duration_stimuli/001570_2014-06-20_17-21-09_260595134347_rgbf000135-resize_4/001570_2014-06-20_17-21-09_260595134347_rgbf000135-resize_4-target.png,125,4.467,6,5526,128,feet,jsons/VE125_randls_74.json,1472918,1743360,23,Woman
26,344034,DepthScenes,duration_manipulation_targetAtFixation,jsons/VE125_randls_74.json,http://54.235.29.9/FacialAge/BNav_EC2/DepthDuration/v2_depth_duration_MTurk/v2_DepthDuration_HTML.html#11,11,1536,864,1536,864,8-21-2022,9-39-17,27,depth_duration_stimuli/001392_2014-06-19_16-07-59_260595134347_rgbf000046-resize_1/001392_2014-06-19_16-07-59_260595134347_rgbf000046-resize_1-target.png,125,4.135,6,5436,127,feet,jsons/VE125_randls_74.json,1472918,1743360,23,Woman
27,344034,DepthScenes,duration_manipulation_targetAtFixation,jsons/VE125_randls_74.json,http://54.235.29.9/FacialAge/BNav_EC2/DepthDuration/v2_depth_duration_MTurk/v2_DepthDuration_HTML.html#11,11,1536,864,1536,864,8-21-2022,9-39-17,28,depth_duration_stimuli/003621_2014-05-23_18-06-08_094959634447_rgbf000101-resize_1/003621_2014-05-23_18-06-08_094959634447_rgbf000101-resize_1-target.png,125,3.9835,7,3624,124,feet,jsons/VE125_randls_74.json,1472918,1743360,23,Woman
28,344034,DepthScenes,duration_manipulation_targetAtFixation,jsons/VE125_randls_74.json,http://54.235.29.9/FacialAge/BNav_EC2/DepthDuration/v2_depth_duration_MTurk/v2_DepthDuration_HTML.html#11,11,1536,864,1536,864,8-21-2022,9-39-17,29,depth_duration_stimuli/001584_2014-06-20_11-07-43_260595134347_rgbf000002-resize_1/001584_2014-06-20_11-07-43_260595134347_rgbf000002-resize_1-target.png,125,3.53,6,4129,129,feet,jsons/VE125_randls_74.json,1472918,1743360,23,Woman
29,344034,DepthScenes,duration_manipulation_targetAtFixation,jsons/VE125_randls_74.json,http://54.235.29.9/FacialAge/BNav_EC2/DepthDuration/v2_depth_duration_MTurk/v2_DepthDuration_HTML.html#11,11,1536,864,1536,864,8-21-2022,9-39-17,30,depth_duration_stimuli/000375_2014-06-08_11-17-29_260595134347_rgbf000133-resize_2/000375_2014-06-08_11-17-29_260595134347_rgbf000133-resize-original.jpg,125,4.718,0,3110,132,feet,jsons/VE125_randls_74.json,1472918,1743360,23,Woman
30,344034,DepthScenes,duration_manipulation_targetAtFixation,jsons/VE125_randls_74.json,http://54.235.29.9/FacialAge/BNav_EC2/DepthDuration/v2_depth_duration_MTurk/v2_DepthDuration_HTML.html#11,11,1536,864,1536,864,8-21-2022,9-39-17,31,depth_duration_stimuli/001810_2014-06-26_20-51-35_260595134347_rgbf000040-resize_3/001810_2014-06-26_20-51-35_260595134347_rgbf000040-resize_3-target.png,125,2.2525,3,6350,124,feet,jsons/VE125_randls_74.json,1472918,1743360,23,Woman
31,344034,DepthScenes,duration_manipulation_targetAtFixation,jsons/VE125_randls_74.json,http://54.235.29.9/FacialAge/BNav_EC2/DepthDuration/v2_depth_duration_MTurk/v2_DepthDuration_HTML.html#11,11,1536,864,1536,864,8-21-2022,9-39-17,32,depth_duration_stimuli/003010_2014-06-15_12-54-35_094959634447_rgbf000112-resize_0/003010_2014-06-15_12-54-35_094959634447_rgbf000112-resize_0-target.png,125,3.1185,7,3758,128,feet,jsons/VE125_randls_74.json,1472918,1743360,23,Woman
32,344034,DepthScenes,duration_manipulation_targetAtFixation,jsons/VE125_randls_74.json,http://54.235.29.9/FacialAge/BNav_EC2/DepthDuration/v2_depth_duration_MTurk/v2_DepthDuration_HTML.html#11,11,1536,864,1536,864,8-21-2022,9-39-17,33,depth_duration_stimuli/000739_2014-06-08_18-45-58_260595134347_rgbf000068-resize_1/000739_2014-06-08_18-45-58_260595134347_rgbf000068-resize_1-target.png,125,3.534,8,4323,115,feet,jsons/VE125_randls_74.json,1472918,1743360,23,Woman
33,344034,DepthScenes,duration_manipulation_targetAtFixation,jsons/VE125_randls_74.json,http://54.235.29.9/FacialAge/BNav_EC2/DepthDuration/v2_depth_duration_MTurk/v2_DepthDuration_HTML.html#11,11,1536,864,1536,864,8-21-2022,9-39-17,34,depth_duration_stimuli/000734_2014-06-08_17-39-11_260595134347_rgbf000128-resize_2/000734_2014-06-08_17-39-11_260595134347_rgbf000128-resize_2-target.png,125,4.098,7,3876,133,feet,jsons/VE125_randls_74.json,1472918,1743360,23,Woman
34,344034,DepthScenes,duration_manipulation_targetAtFixation,jsons/VE125_randls_74.json,http://54.235.29.9/FacialAge/BNav_EC2/DepthDuration/v2_depth_duration_MTurk/v2_DepthDuration_HTML.html#11,11,1536,864,1536,864,8-21-2022,9-39-17,35,depth_duration_stimuli/002600_2014-06-24_14-27-04_094959634447_rgbf000074-resize_2/002600_2014-06-24_14-27-04_094959634447_rgbf000074-resize_2-target.png,125,2.7575,6,3985,110,feet,jsons/VE125_randls_74.json,1472918,1743360,23,Woman
35,344034,DepthScenes,duration_manipulation_targetAtFixation,jsons/VE125_randls_74.json,http://54.235.29.9/FacialAge/BNav_EC2/DepthDuration/v2_depth_duration_MTurk/v2_DepthDuration_HTML.html#11,11,1536,864,1536,864,8-21-2022,9-39-17,36,depth_duration_stimuli/003228_2014-05-14_13-42-35_094959634447_rgbf000101-resize_1/003228_2014-05-14_13-42-35_094959634447_rgbf000101-resize_1-target.png,125,1.9680000000000002,3,4085,120,feet,jsons/VE125_randls_74.json,1472918,1743360,23,Woman
36,344034,DepthScenes,duration_manipulation_targetAtFixation,jsons/VE125_randls_74.json,http://54.235.29.9/FacialAge/BNav_EC2/DepthDuration/v2_depth_duration_MTurk/v2_DepthDuration_HTML.html#11,11,1536,864,1536,864,8-21-2022,9-39-17,37,depth_duration_stimuli/000486_2014-06-09_20-47-20_260595134347_rgbf000143-resize_2/000486_2014-06-09_20-47-20_260595134347_rgbf000143-resize_2-target.png,125,4.8325,7,3794,134,feet,jsons/VE125_randls_74.json,1472918,1743360,23,Woman
37,344034,DepthScenes,duration_manipulation_targetAtFixation,jsons/VE125_randls_74.json,http://54.235.29.9/FacialAge/BNav_EC2/DepthDuration/v2_depth_duration_MTurk/v2_DepthDuration_HTML.html#11,11,1536,864,1536,864,8-21-2022,9-39-17,38,depth_duration_stimuli/003083_2014-06-15_15-21-03_094959634447_rgbf000063-resize_1/003083_2014-06-15_15-21-03_094959634447_rgbf000063-resize_1-target.png,125,4.1405,6,4490,124,feet,jsons/VE125_randls_74.json,1472918,1743360,23,Woman
38,344034,DepthScenes,duration_manipulation_targetAtFixation,jsons/VE125_randls_74.json,http://54.235.29.9/FacialAge/BNav_EC2/DepthDuration/v2_depth_duration_MTurk/v2_DepthDuration_HTML.html#11,11,1536,864,1536,864,8-21-2022,9-39-17,39,depth_duration_stimuli/001029_2014-06-08_13-17-57_260595134347_rgbf000065-resize_1/001029_2014-06-08_13-17-57_260595134347_rgbf000065-resize_1-target.png,125,3.0835,5,3361,118,feet,jsons/VE125_randls_74.json,1472918,1743360,23,Woman
39,344034,DepthScenes,duration_manipulation_targetAtFixation,jsons/VE125_randls_74.json,http://54.235.29.9/FacialAge/BNav_EC2/DepthDuration/v2_depth_duration_MTurk/v2_DepthDuration_HTML.html#11,11,1536,864,1536,864,8-21-2022,9-39-17,40,depth_duration_stimuli/000677_2014-06-08_23-10-32_260595134347_rgbf000158-resize_6/000677_2014-06-08_23-10-32_260595134347_rgbf000158-resize_6-target.png,125,3.556,5,27697,122,feet,jsons/VE125_randls_74.json,1472918,1743360,23,Woman
40,344034,DepthScenes,duration_manipulation_targetAtFixation,jsons/VE125_randls_74.json,http://54.235.29.9/FacialAge/BNav_EC2/DepthDuration/v2_depth_duration_MTurk/v2_DepthDuration_HTML.html#11,11,1536,864,1536,864,8-21-2022,9-39-17,41,depth_duration_stimuli/001066_2014-06-08_22-03-20_260595134347_rgbf000066-resize_4/001066_2014-06-08_22-03-20_260595134347_rgbf000066-resize_4-target.png,125,4.2330000000000005,7,3772,110,feet,jsons/VE125_randls_74.json,1472918,1743360,23,Woman
41,344034,DepthScenes,duration_manipulation_targetAtFixation,jsons/VE125_randls_74.json,http://54.235.29.9/FacialAge/BNav_EC2/DepthDuration/v2_depth_duration_MTurk/v2_DepthDuration_HTML.html#11,11,1536,864,1536,864,8-21-2022,9-39-17,42,depth_duration_stimuli/000742_2014-06-08_18-48-09_260595134347_rgbf000164-resize_4/000742_2014-06-08_18-48-09_260595134347_rgbf000164-resize_4-target.png,125,4.632,8,4048,121,feet,jsons/VE125_randls_74.json,1472918,1743360,23,Woman
42,344034,DepthScenes,duration_manipulation_targetAtFixation,jsons/VE125_randls_74.json,http://54.235.29.9/FacialAge/BNav_EC2/DepthDuration/v2_depth_duration_MTurk/v2_DepthDuration_HTML.html#11,11,1536,864,1536,864,8-21-2022,9-39-17,43,depth_duration_stimuli/001175_2014-06-17_15-45-55_260595134347_rgbf000129-resize_4/001175_2014-06-17_15-45-55_260595134347_rgbf000129-resize_4-target.png,125,4.255,5,15202,137,feet,jsons/VE125_randls_74.json,1472918,1743360,23,Woman
43,344034,DepthScenes,duration_manipulation_targetAtFixation,jsons/VE125_randls_74.json,http://54.235.29.9/FacialAge/BNav_EC2/DepthDuration/v2_depth_duration_MTurk/v2_DepthDuration_HTML.html#11,11,1536,864,1536,864,8-21-2022,9-39-17,44,depth_duration_stimuli/003490_2014-05-21_15-50-11_094959634447_rgbf000101-resize_3/003490_2014-05-21_15-50-11_094959634447_rgbf000101-resize_3-target.png,125,3.6445,6,4929,94,feet,jsons/VE125_randls_74.json,1472918,1743360,23,Woman
44,344034,DepthScenes,duration_manipulation_targetAtFixation,jsons/VE125_randls_74.json,http://54.235.29.9/FacialAge/BNav_EC2/DepthDuration/v2_depth_duration_MTurk/v2_DepthDuration_HTML.html#11,11,1536,864,1536,864,8-21-2022,9-39-17,45,depth_duration_stimuli/000787_2014-06-08_22-33-53_260595134347_rgbf000175-resize_1/000787_2014-06-08_22-33-53_260595134347_rgbf000175-resize-original.jpg,125,4.784,0,4730,133,feet,jsons/VE125_randls_74.json,1472918,1743360,23,Woman
45,344034,DepthScenes,duration_manipulation_targetAtFixation,jsons/VE125_randls_74.json,http://54.235.29.9/FacialAge/BNav_EC2/DepthDuration/v2_depth_duration_MTurk/v2_DepthDuration_HTML.html#11,11,1536,864,1536,864,8-21-2022,9-39-17,46,depth_duration_stimuli/001150_2014-06-17_15-27-34_260595134347_rgbf000108-resize_2/001150_2014-06-17_15-27-34_260595134347_rgbf000108-resize_2-target.png,125,4.0325,7,4158,107,feet,jsons/VE125_randls_74.json,1472918,1743360,23,Woman
46,344034,DepthScenes,duration_manipulation_targetAtFixation,jsons/VE125_randls_74.json,http://54.235.29.9/FacialAge/BNav_EC2/DepthDuration/v2_depth_duration_MTurk/v2_DepthDuration_HTML.html#11,11,1536,864,1536,864,8-21-2022,9-39-17,47,depth_duration_stimuli/000665_2014-06-09_20-42-35_260595134347_rgbf000110-resize_1/000665_2014-06-09_20-42-35_260595134347_rgbf000110-resize_1-target.png,125,3.057,2,4722,142,feet,jsons/VE125_randls_74.json,1472918,1743360,23,Woman
47,344034,DepthScenes,duration_manipulation_targetAtFixation,jsons/VE125_randls_74.json,http://54.235.29.9/FacialAge/BNav_EC2/DepthDuration/v2_depth_duration_MTurk/v2_DepthDuration_HTML.html#11,11,1536,864,1536,864,8-21-2022,9-39-17,48,depth_duration_stimuli/002057_2014-06-24_21-00-13_260595134347_rgbf000120-resize_1/002057_2014-06-24_21-00-13_260595134347_rgbf000120-resize_1-target.png,125,2.967,8,5241,121,feet,jsons/VE125_randls_74.json,1472918,1743360,23,Woman
48,344034,DepthScenes,duration_manipulation_targetAtFixation,jsons/VE125_randls_74.json,http://54.235.29.9/FacialAge/BNav_EC2/DepthDuration/v2_depth_duration_MTurk/v2_DepthDuration_HTML.html#11,11,1536,864,1536,864,8-21-2022,9-39-17,49,depth_duration_stimuli/000709_2014-06-08_13-51-55_260595134347_rgbf000068-resize_3/000709_2014-06-08_13-51-55_260595134347_rgbf000068-resize_3-target.png,125,1.8030000000000002,3,4119,111,feet,jsons/VE125_randls_74.json,1472918,1743360,23,Woman
49,344034,DepthScenes,duration_manipulation_targetAtFixation,jsons/VE125_randls_74.json,http://54.235.29.9/FacialAge/BNav_EC2/DepthDuration/v2_depth_duration_MTurk/v2_DepthDuration_HTML.html#11,11,1536,864,1536,864,8-21-2022,9-39-17,50,depth_duration_stimuli/000736_2014-06-08_18-24-15_260595134347_rgbf000206-resize_3/000736_2014-06-08_18-24-15_260595134347_rgbf000206-resize_3-target.png,125,3.515,6,4362,120,feet,jsons/VE125_randls_74.json,1472918,1743360,23,Woman
50,344034,DepthScenes,duration_manipulation_targetAtFixation,jsons/VE125_randls_74.json,http://54.235.29.9/FacialAge/BNav_EC2/DepthDuration/v2_depth_duration_MTurk/v2_DepthDuration_HTML.html#11,11,1536,864,1536,864,8-21-2022,9-39-17,51,depth_duration_stimuli/000137_2014-05-20_17-04-49_260595134347_rgbf000120-resize_1/000137_2014-05-20_17-04-49_260595134347_rgbf000120-resize_1-target.png,125,3.786,8,5635,135,feet,jsons/VE125_randls_74.json,1472918,1743360,23,Woman
51,344034,DepthScenes,duration_manipulation_targetAtFixation,jsons/VE125_randls_74.json,http://54.235.29.9/FacialAge/BNav_EC2/DepthDuration/v2_depth_duration_MTurk/v2_DepthDuration_HTML.html#11,11,1536,864,1536,864,8-21-2022,9-39-17,52,depth_duration_stimuli/000878_2014-06-08_22-52-45_260595134347_rgbf000045-resize_2/000878_2014-06-08_22-52-45_260595134347_rgbf000045-resize_2-target.png,125,2.092,2,3586,91,feet,jsons/VE125_randls_74.json,1472918,1743360,23,Woman
52,344034,DepthScenes,duration_manipulation_targetAtFixation,jsons/VE125_randls_74.json,http://54.235.29.9/FacialAge/BNav_EC2/DepthDuration/v2_depth_duration_MTurk/v2_DepthDuration_HTML.html#11,11,1536,864,1536,864,8-21-2022,9-39-17,53,depth_duration_stimuli/002953_2014-06-08_17-32-18_094959634447_rgbf000059-resize_5/002953_2014-06-08_17-32-18_094959634447_rgbf000059-resize_5-target.png,125,1.551,1,3233,126,feet,jsons/VE125_randls_74.json,1472918,1743360,23,Woman
53,344034,DepthScenes,duration_manipulation_targetAtFixation,jsons/VE125_randls_74.json,http://54.235.29.9/FacialAge/BNav_EC2/DepthDuration/v2_depth_duration_MTurk/v2_DepthDuration_HTML.html#11,11,1536,864,1536,864,8-21-2022,9-39-17,54,depth_duration_stimuli/002375_2014-06-28_20-13-44_260595134347_rgbf000032-resize_1/002375_2014-06-28_20-13-44_260595134347_rgbf000032-resize_1-target.png,125,4.0175,4,4041,112,feet,jsons/VE125_randls_74.json,1472918,1743360,23,Woman
54,344034,DepthScenes,duration_manipulation_targetAtFixation,jsons/VE125_randls_74.json,http://54.235.29.9/FacialAge/BNav_EC2/DepthDuration/v2_depth_duration_MTurk/v2_DepthDuration_HTML.html#11,11,1536,864,1536,864,8-21-2022,9-39-17,55,depth_duration_stimuli/002657_2014-06-13_15-29-54_094959634447_rgbf000150-resize_1/002657_2014-06-13_15-29-54_094959634447_rgbf000150-resize_1-target.png,125,4.919,4,3796,121,feet,jsons/VE125_randls_74.json,1472918,1743360,23,Woman
55,344034,DepthScenes,duration_manipulation_targetAtFixation,jsons/VE125_randls_74.json,http://54.235.29.9/FacialAge/BNav_EC2/DepthDuration/v2_depth_duration_MTurk/v2_DepthDuration_HTML.html#11,11,1536,864,1536,864,8-21-2022,9-39-17,56,depth_duration_stimuli/001016_2014-06-09_16-16-10_260595134347_rgbf000112-resize_5/001016_2014-06-09_16-16-10_260595134347_rgbf000112-resize_5-target.png,125,1.6565,5,3115,129,feet,jsons/VE125_randls_74.json,1472918,1743360,23,Woman
56,344034,DepthScenes,duration_manipulation_targetAtFixation,jsons/VE125_randls_74.json,http://54.235.29.9/FacialAge/BNav_EC2/DepthDuration/v2_depth_duration_MTurk/v2_DepthDuration_HTML.html#11,11,1536,864,1536,864,8-21-2022,9-39-17,57,depth_duration_stimuli/002340_2014-06-28_20-05-46_260595134347_rgbf000113-resize_0/002340_2014-06-28_20-05-46_260595134347_rgbf000113-resize_0-target.png,125,2.4735,5,4246,126,feet,jsons/VE125_randls_74.json,1472918,1743360,23,Woman
57,344034,DepthScenes,duration_manipulation_targetAtFixation,jsons/VE125_randls_74.json,http://54.235.29.9/FacialAge/BNav_EC2/DepthDuration/v2_depth_duration_MTurk/v2_DepthDuration_HTML.html#11,11,1536,864,1536,864,8-21-2022,9-39-17,58,depth_duration_stimuli/001011_2014-06-08_23-18-54_260595134347_rgbf000044-resize_4/001011_2014-06-08_23-18-54_260595134347_rgbf000044-resize_4-target.png,125,2.4730000000000003,5,108773,125,feet,jsons/VE125_randls_74.json,1472918,1743360,23,Woman
58,344034,DepthScenes,duration_manipulation_targetAtFixation,jsons/VE125_randls_74.json,http://54.235.29.9/FacialAge/BNav_EC2/DepthDuration/v2_depth_duration_MTurk/v2_DepthDuration_HTML.html#11,11,1536,864,1536,864,8-21-2022,9-39-17,59,depth_duration_stimuli/002875_2014-06-01_15-19-00_094959634447_rgbf000151-resize_1/002875_2014-06-01_15-19-00_094959634447_rgbf000151-resize_1-target.png,125,1.9675,4,4993,122,feet,jsons/VE125_randls_74.json,1472918,1743360,23,Woman
59,344034,DepthScenes,duration_manipulation_targetAtFixation,jsons/VE125_randls_74.json,http://54.235.29.9/FacialAge/BNav_EC2/DepthDuration/v2_depth_duration_MTurk/v2_DepthDuration_HTML.html#11,11,1536,864,1536,864,8-21-2022,9-39-17,60,depth_duration_stimuli/000758_2014-06-08_22-05-08_260595134347_rgbf000085-resize_0/000758_2014-06-08_22-05-08_260595134347_rgbf000085-resize_0-target.png,125,3.3810000000000002,8,6525,137,feet,jsons/VE125_randls_74.json,1472918,1743360,23,Woman
60,344034,DepthScenes,duration_manipulation_targetAtFixation,jsons/VE125_randls_74.json,http://54.235.29.9/FacialAge/BNav_EC2/DepthDuration/v2_depth_duration_MTurk/v2_DepthDuration_HTML.html#11,11,1536,864,1536,864,8-21-2022,9-39-17,61,depth_duration_stimuli/000854_2014-06-09_19-43-13_260595134347_rgbf000066-resize_0/000854_2014-06-09_19-43-13_260595134347_rgbf000066-resize_0-target.png,125,3.068,3,3452,119,feet,jsons/VE125_randls_74.json,1472918,1743360,23,Woman
61,344034,DepthScenes,duration_manipulation_targetAtFixation,jsons/VE125_randls_74.json,http://54.235.29.9/FacialAge/BNav_EC2/DepthDuration/v2_depth_duration_MTurk/v2_DepthDuration_HTML.html#11,11,1536,864,1536,864,8-21-2022,9-39-17,62,depth_duration_stimuli/001199_2014-06-17_16-03-48_260595134347_rgbf000077-resize_0/001199_2014-06-17_16-03-48_260595134347_rgbf000077-resize_0-target.png,125,3.4375,2,3639,127,feet,jsons/VE125_randls_74.json,1472918,1743360,23,Woman
62,344034,DepthScenes,duration_manipulation_targetAtFixation,jsons/VE125_randls_74.json,http://54.235.29.9/FacialAge/BNav_EC2/DepthDuration/v2_depth_duration_MTurk/v2_DepthDuration_HTML.html#11,11,1536,864,1536,864,8-21-2022,9-39-17,63,depth_duration_stimuli/000502_2014-06-08_23-02-32_260595134347_rgbf000063-resize_4/000502_2014-06-08_23-02-32_260595134347_rgbf000063-resize_4-target.png,125,2.431,3,4018,110,feet,jsons/VE125_randls_74.json,1472918,1743360,23,Woman
63,344034,DepthScenes,duration_manipulation_targetAtFixation,jsons/VE125_randls_74.json,http://54.235.29.9/FacialAge/BNav_EC2/DepthDuration/v2_depth_duration_MTurk/v2_DepthDuration_HTML.html#11,11,1536,864,1536,864,8-21-2022,9-39-17,64,depth_duration_stimuli/001806_2014-06-26_20-50-20_260595134347_rgbf000091-resize_1/001806_2014-06-26_20-50-20_260595134347_rgbf000091-resize_1-target.png,125,2.7305,2,7571,120,feet,jsons/VE125_randls_74.json,1472918,1743360,23,Woman
64,344034,DepthScenes,duration_manipulation_targetAtFixation,jsons/VE125_randls_74.json,http://54.235.29.9/FacialAge/BNav_EC2/DepthDuration/v2_depth_duration_MTurk/v2_DepthDuration_HTML.html#11,11,1536,864,1536,864,8-21-2022,9-39-17,65,depth_duration_stimuli/001617_2014-06-20_11-35-32_260595134347_rgbf000066-resize_1/001617_2014-06-20_11-35-32_260595134347_rgbf000066-resize_1-target.png,125,3.7910000000000004,8,4752,123,feet,jsons/VE125_randls_74.json,1472918,1743360,23,Woman
65,344034,DepthScenes,duration_manipulation_targetAtFixation,jsons/VE125_randls_74.json,http://54.235.29.9/FacialAge/BNav_EC2/DepthDuration/v2_depth_duration_MTurk/v2_DepthDuration_HTML.html#11,11,1536,864,1536,864,8-21-2022,9-39-17,66,depth_duration_stimuli/001222_2014-06-17_16-24-06_260595134347_rgbf000073-resize_0/001222_2014-06-17_16-24-06_260595134347_rgbf000073-resize-original.jpg,125,1.4385,0,5425,130,feet,jsons/VE125_randls_74.json,1472918,1743360,23,Woman
66,344034,DepthScenes,duration_manipulation_targetAtFixation,jsons/VE125_randls_74.json,http://54.235.29.9/FacialAge/BNav_EC2/DepthDuration/v2_depth_duration_MTurk/v2_DepthDuration_HTML.html#11,11,1536,864,1536,864,8-21-2022,9-39-17,67,depth_duration_stimuli/001167_2014-06-17_15-38-07_260595134347_rgbf000108-resize_0/001167_2014-06-17_15-38-07_260595134347_rgbf000108-resize_0-target.png,125,1.8505,3,5886,144,feet,jsons/VE125_randls_74.json,1472918,1743360,23,Woman
67,344034,DepthScenes,duration_manipulation_targetAtFixation,jsons/VE125_randls_74.json,http://54.235.29.9/FacialAge/BNav_EC2/DepthDuration/v2_depth_duration_MTurk/v2_DepthDuration_HTML.html#11,11,1536,864,1536,864,8-21-2022,9-39-17,68,depth_duration_stimuli/003587_2014-05-23_16-48-02_094959634447_rgbf002384-resize_2/003587_2014-05-23_16-48-02_094959634447_rgbf002384-resize_2-target.png,125,1.357,2,3588,132,feet,jsons/VE125_randls_74.json,1472918,1743360,23,Woman
68,344034,DepthScenes,duration_manipulation_targetAtFixation,jsons/VE125_randls_74.json,http://54.235.29.9/FacialAge/BNav_EC2/DepthDuration/v2_depth_duration_MTurk/v2_DepthDuration_HTML.html#11,11,1536,864,1536,864,8-21-2022,9-39-17,69,depth_duration_stimuli/002663_2014-06-13_15-50-26_094959634447_rgbf000075-resize_1/002663_2014-06-13_15-50-26_094959634447_rgbf000075-resize_1-target.png,125,4.7495,9,3621,121,feet,jsons/VE125_randls_74.json,1472918,1743360,23,Woman
69,344034,DepthScenes,duration_manipulation_targetAtFixation,jsons/VE125_randls_74.json,http://54.235.29.9/FacialAge/BNav_EC2/DepthDuration/v2_depth_duration_MTurk/v2_DepthDuration_HTML.html#11,11,1536,864,1536,864,8-21-2022,9-39-17,70,depth_duration_stimuli/000409_2014-06-04_19-23-33_260595134347_rgbf000067-resize_0/000409_2014-06-04_19-23-33_260595134347_rgbf000067-resize_0-target.png,125,3.7335,7,3432,132,feet,jsons/VE125_randls_74.json,1472918,1743360,23,Woman
70,344034,DepthScenes,duration_manipulation_targetAtFixation,jsons/VE125_randls_74.json,http://54.235.29.9/FacialAge/BNav_EC2/DepthDuration/v2_depth_duration_MTurk/v2_DepthDuration_HTML.html#11,11,1536,864,1536,864,8-21-2022,9-39-17,71,depth_duration_stimuli/002043_2014-06-24_20-29-38_260595134347_rgbf000039-resize_4/002043_2014-06-24_20-29-38_260595134347_rgbf000039-resize_4-target.png,125,2.8435,7,3588,143,feet,jsons/VE125_randls_74.json,1472918,1743360,23,Woman
71,344034,DepthScenes,duration_manipulation_targetAtFixation,jsons/VE125_randls_74.json,http://54.235.29.9/FacialAge/BNav_EC2/DepthDuration/v2_depth_duration_MTurk/v2_DepthDuration_HTML.html#11,11,1536,864,1536,864,8-21-2022,9-39-17,72,depth_duration_stimuli/003048_2014-06-15_13-49-43_094959634447_rgbf000150-resize_1/003048_2014-06-15_13-49-43_094959634447_rgbf000150-resize_1-target.png,125,4.0035,6,2909,121,feet,jsons/VE125_randls_74.json,1472918,1743360,23,Woman
72,344034,DepthScenes,duration_manipulation_targetAtFixation,jsons/VE125_randls_74.json,http://54.235.29.9/FacialAge/BNav_EC2/DepthDuration/v2_depth_duration_MTurk/v2_DepthDuration_HTML.html#11,11,1536,864,1536,864,8-21-2022,9-39-17,73,depth_duration_stimuli/002272_2014-06-28_18-53-56_260595134347_rgbf000067-resize_2/002272_2014-06-28_18-53-56_260595134347_rgbf000067-resize_2-target.png,125,1.138,3,3972,125,feet,jsons/VE125_randls_74.json,1472918,1743360,23,Woman
73,344034,DepthScenes,duration_manipulation_targetAtFixation,jsons/VE125_randls_74.json,http://54.235.29.9/FacialAge/BNav_EC2/DepthDuration/v2_depth_duration_MTurk/v2_DepthDuration_HTML.html#11,11,1536,864,1536,864,8-21-2022,9-39-17,74,depth_duration_stimuli/001571_2014-06-20_17-21-32_260595134347_rgbf000089-resize_1/001571_2014-06-20_17-21-32_260595134347_rgbf000089-resize_1-target.png,125,1.86,4,5503,126,feet,jsons/VE125_randls_74.json,1472918,1743360,23,Woman
74,344034,DepthScenes,duration_manipulation_targetAtFixation,jsons/VE125_randls_74.json,http://54.235.29.9/FacialAge/BNav_EC2/DepthDuration/v2_depth_duration_MTurk/v2_DepthDuration_HTML.html#11,11,1536,864,1536,864,8-21-2022,9-39-17,75,depth_duration_stimuli/002748_2014-06-22_19-07-22_094959634447_rgbf000078-resize_1/002748_2014-06-22_19-07-22_094959634447_rgbf000078-resize_1-target.png,125,4.6705,10,8781,128,feet,jsons/VE125_randls_74.json,1472918,1743360,23,Woman
75,344034,DepthScenes,duration_manipulation_targetAtFixation,jsons/VE125_randls_74.json,http://54.235.29.9/FacialAge/BNav_EC2/DepthDuration/v2_depth_duration_MTurk/v2_DepthDuration_HTML.html#11,11,1536,864,1536,864,8-21-2022,9-39-17,76,depth_duration_stimuli/002995_2014-06-15_12-31-26_094959634447_rgbf000150-resize_1/002995_2014-06-15_12-31-26_094959634447_rgbf000150-resize_1-target.png,125,3.8360000000000003,5,3605,130,feet,jsons/VE125_randls_74.json,1472918,1743360,23,Woman
76,344034,DepthScenes,duration_manipulation_targetAtFixation,jsons/VE125_randls_74.json,http://54.235.29.9/FacialAge/BNav_EC2/DepthDuration/v2_depth_duration_MTurk/v2_DepthDuration_HTML.html#11,11,1536,864,1536,864,8-21-2022,9-39-17,77,depth_duration_stimuli/002509_2014-06-24_13-19-22_094959634447_rgbf000077-resize_0/002509_2014-06-24_13-19-22_094959634447_rgbf000077-resize_0-target.png,125,1.3065,1,3081,122,feet,jsons/VE125_randls_74.json,1472918,1743360,23,Woman
77,344034,DepthScenes,duration_manipulation_targetAtFixation,jsons/VE125_randls_74.json,http://54.235.29.9/FacialAge/BNav_EC2/DepthDuration/v2_depth_duration_MTurk/v2_DepthDuration_HTML.html#11,11,1536,864,1536,864,8-21-2022,9-39-17,78,depth_duration_stimuli/003338_2014-05-20_11-01-23_094959634447_rgbf000051-resize_6/003338_2014-05-20_11-01-23_094959634447_rgbf000051-resize_6-target.png,125,1.693,2,3516,115,feet,jsons/VE125_randls_74.json,1472918,1743360,23,Woman
78,344034,DepthScenes,duration_manipulation_targetAtFixation,jsons/VE125_randls_74.json,http://54.235.29.9/FacialAge/BNav_EC2/DepthDuration/v2_depth_duration_MTurk/v2_DepthDuration_HTML.html#11,11,1536,864,1536,864,8-21-2022,9-39-17,79,depth_duration_stimuli/002039_2014-06-24_20-22-38_260595134347_rgbf000084-resize_1/002039_2014-06-24_20-22-38_260595134347_rgbf000084-resize_1-target.png,125,4.408,8,2966,120,feet,jsons/VE125_randls_74.json,1472918,1743360,23,Woman
79,344034,DepthScenes,duration_manipulation_targetAtFixation,jsons/VE125_randls_74.json,http://54.235.29.9/FacialAge/BNav_EC2/DepthDuration/v2_depth_duration_MTurk/v2_DepthDuration_HTML.html#11,11,1536,864,1536,864,8-21-2022,9-39-17,80,depth_duration_stimuli/002103_2014-06-25_20-00-40_260595134347_rgbf000049-resize_0/002103_2014-06-25_20-00-40_260595134347_rgbf000049-resize_0-target.png,125,4.105,5,8396,146,feet,jsons/VE125_randls_74.json,1472918,1743360,23,Woman
80,344034,DepthScenes,duration_manipulation_targetAtFixation,jsons/VE125_randls_74.json,http://54.235.29.9/FacialAge/BNav_EC2/DepthDuration/v2_depth_duration_MTurk/v2_DepthDuration_HTML.html#11,11,1536,864,1536,864,8-21-2022,9-39-17,81,depth_duration_stimuli/001110_2014-06-15_17-25-28_260595134347_rgbf000150-resize_1/001110_2014-06-15_17-25-28_260595134347_rgbf000150-resize_1-target.png,125,1.7115,5,4721,124,feet,jsons/VE125_randls_74.json,1472918,1743360,23,Woman
81,344034,DepthScenes,duration_manipulation_targetAtFixation,jsons/VE125_randls_74.json,http://54.235.29.9/FacialAge/BNav_EC2/DepthDuration/v2_depth_duration_MTurk/v2_DepthDuration_HTML.html#11,11,1536,864,1536,864,8-21-2022,9-39-17,82,depth_duration_stimuli/000927_2014-06-09_16-32-30_260595134347_rgbf000123-resize_3/000927_2014-06-09_16-32-30_260595134347_rgbf000123-resize_3-target.png,125,2.6785,6,4370,136,feet,jsons/VE125_randls_74.json,1472918,1743360,23,Woman
82,344034,DepthScenes,duration_manipulation_targetAtFixation,jsons/VE125_randls_74.json,http://54.235.29.9/FacialAge/BNav_EC2/DepthDuration/v2_depth_duration_MTurk/v2_DepthDuration_HTML.html#11,11,1536,864,1536,864,8-21-2022,9-39-17,83,depth_duration_stimuli/000906_2014-06-08_13-35-43_260595134347_rgbf000155-resize_1/000906_2014-06-08_13-35-43_260595134347_rgbf000155-resize_1-target.png,125,2.8489999999999998,8,7315,149,feet,jsons/VE125_randls_74.json,1472918,1743360,23,Woman
83,344034,DepthScenes,duration_manipulation_targetAtFixation,jsons/VE125_randls_74.json,http://54.235.29.9/FacialAge/BNav_EC2/DepthDuration/v2_depth_duration_MTurk/v2_DepthDuration_HTML.html#11,11,1536,864,1536,864,8-21-2022,9-39-17,84,depth_duration_stimuli/002805_2014-06-22_19-54-03_094959634447_rgbf000079-resize_1/002805_2014-06-22_19-54-03_094959634447_rgbf000079-resize_1-target.png,125,3.1439999999999997,8,205161,116,feet,jsons/VE125_randls_74.json,1472918,1743360,23,Woman
84,344034,DepthScenes,duration_manipulation_targetAtFixation,jsons/VE125_randls_74.json,http://54.235.29.9/FacialAge/BNav_EC2/DepthDuration/v2_depth_duration_MTurk/v2_DepthDuration_HTML.html#11,11,1536,864,1536,864,8-21-2022,9-39-17,85,depth_duration_stimuli/001059_2014-06-08_21-53-27_260595134347_rgbf000061-resize_4/001059_2014-06-08_21-53-27_260595134347_rgbf000061-resize_4-target.png,125,2.4185,3,3627,129,feet,jsons/VE125_randls_74.json,1472918,1743360,23,Woman
85,344034,DepthScenes,duration_manipulation_targetAtFixation,jsons/VE125_randls_74.json,http://54.235.29.9/FacialAge/BNav_EC2/DepthDuration/v2_depth_duration_MTurk/v2_DepthDuration_HTML.html#11,11,1536,864,1536,864,8-21-2022,9-39-17,86,depth_duration_stimuli/001032_2014-06-08_13-23-17_260595134347_rgbf000021-resize_3/001032_2014-06-08_13-23-17_260595134347_rgbf000021-resize_3-target.png,125,3.2725,5,3714,129,feet,jsons/VE125_randls_74.json,1472918,1743360,23,Woman
86,344034,DepthScenes,duration_manipulation_targetAtFixation,jsons/VE125_randls_74.json,http://54.235.29.9/FacialAge/BNav_EC2/DepthDuration/v2_depth_duration_MTurk/v2_DepthDuration_HTML.html#11,11,1536,864,1536,864,8-21-2022,9-39-17,87,depth_duration_stimuli/002784_2014-06-22_19-26-30_094959634447_rgbf000083-resize_3/002784_2014-06-22_19-26-30_094959634447_rgbf000083-resize_3-target.png,125,1.8046666666667,1,3239,130,feet,jsons/VE125_randls_74.json,1472918,1743360,23,Woman
87,344034,DepthScenes,duration_manipulation_targetAtFixation,jsons/VE125_randls_74.json,http://54.235.29.9/FacialAge/BNav_EC2/DepthDuration/v2_depth_duration_MTurk/v2_DepthDuration_HTML.html#11,11,1536,864,1536,864,8-21-2022,9-39-17,88,depth_duration_stimuli/001100_2014-06-15_17-46-26_260595134347_rgbf000225-resize_2/001100_2014-06-15_17-46-26_260595134347_rgbf000225-resize_2-target.png,125,2.24,4,3727,114,feet,jsons/VE125_randls_74.json,1472918,1743360,23,Woman
88,344034,DepthScenes,duration_manipulation_targetAtFixation,jsons/VE125_randls_74.json,http://54.235.29.9/FacialAge/BNav_EC2/DepthDuration/v2_depth_duration_MTurk/v2_DepthDuration_HTML.html#11,11,1536,864,1536,864,8-21-2022,9-39-17,89,depth_duration_stimuli/001555_2014-06-20_17-12-10_260595134347_rgbf000065-resize_4/001555_2014-06-20_17-12-10_260595134347_rgbf000065-resize_4-target.png,125,1.633,4,3528,118,feet,jsons/VE125_randls_74.json,1472918,1743360,23,Woman
89,344034,DepthScenes,duration_manipulation_targetAtFixation,jsons/VE125_randls_74.json,http://54.235.29.9/FacialAge/BNav_EC2/DepthDuration/v2_depth_duration_MTurk/v2_DepthDuration_HTML.html#11,11,1536,864,1536,864,8-21-2022,9-39-17,90,depth_duration_stimuli/000103_2014-05-14_22-01-17_260595134347_rgbf000152-resize_5/000103_2014-05-14_22-01-17_260595134347_rgbf000152-resize_5-target.png,125,1.993,4,7149,140,feet,jsons/VE125_randls_74.json,1472918,1743360,23,Woman
90,344034,DepthScenes,duration_manipulation_targetAtFixation,jsons/VE125_randls_74.json,http://54.235.29.9/FacialAge/BNav_EC2/DepthDuration/v2_depth_duration_MTurk/v2_DepthDuration_HTML.html#11,11,1536,864,1536,864,8-21-2022,9-39-17,91,depth_duration_stimuli/000447_2014-06-08_16-15-46_260595134347_rgbf000130-resize_1/000447_2014-06-08_16-15-46_260595134347_rgbf000130-resize_1-target.png,125,4.479,4,11323,139,feet,jsons/VE125_randls_74.json,1472918,1743360,23,Woman
91,344034,DepthScenes,duration_manipulation_targetAtFixation,jsons/VE125_randls_74.json,http://54.235.29.9/FacialAge/BNav_EC2/DepthDuration/v2_depth_duration_MTurk/v2_DepthDuration_HTML.html#11,11,1536,864,1536,864,8-21-2022,9-39-17,92,depth_duration_stimuli/001447_2014-06-19_17-00-32_260595134347_rgbf000082-resize_5/001447_2014-06-19_17-00-32_260595134347_rgbf000082-resize_5-target.png,125,4.13775,5,5928,116,feet,jsons/VE125_randls_74.json,1472918,1743360,23,Woman
92,344034,DepthScenes,duration_manipulation_targetAtFixation,jsons/VE125_randls_74.json,http://54.235.29.9/FacialAge/BNav_EC2/DepthDuration/v2_depth_duration_MTurk/v2_DepthDuration_HTML.html#11,11,1536,864,1536,864,8-21-2022,9-39-17,93,depth_duration_stimuli/002445_2014-06-28_20-32-16_260595134347_rgbf000029-resize_4/002445_2014-06-28_20-32-16_260595134347_rgbf000029-resize_4-target.png,125,2.5315,2,3008,128,feet,jsons/VE125_randls_74.json,1472918,1743360,23,Woman
93,344034,DepthScenes,duration_manipulation_targetAtFixation,jsons/VE125_randls_74.json,http://54.235.29.9/FacialAge/BNav_EC2/DepthDuration/v2_depth_duration_MTurk/v2_DepthDuration_HTML.html#11,11,1536,864,1536,864,8-21-2022,9-39-17,94,depth_duration_stimuli/000780_2014-06-08_22-28-29_260595134347_rgbf000126-resize_1/000780_2014-06-08_22-28-29_260595134347_rgbf000126-resize_1-target.png,125,3.3825,3,3492,113,feet,jsons/VE125_randls_74.json,1472918,1743360,23,Woman
94,344034,DepthScenes,duration_manipulation_targetAtFixation,jsons/VE125_randls_74.json,http://54.235.29.9/FacialAge/BNav_EC2/DepthDuration/v2_depth_duration_MTurk/v2_DepthDuration_HTML.html#11,11,1536,864,1536,864,8-21-2022,9-39-17,95,depth_duration_stimuli/002570_2014-06-24_13-59-54_094959634447_rgbf000059-resize_0/002570_2014-06-24_13-59-54_094959634447_rgbf000059-resize_0-target.png,125,4.037,6,16313,124,feet,jsons/VE125_randls_74.json,1472918,1743360,23,Woman
95,344034,DepthScenes,duration_manipulation_targetAtFixation,jsons/VE125_randls_74.json,http://54.235.29.9/FacialAge/BNav_EC2/DepthDuration/v2_depth_duration_MTurk/v2_DepthDuration_HTML.html#11,11,1536,864,1536,864,8-21-2022,9-39-17,96,depth_duration_stimuli/002467_2014-06-28_20-38-07_260595134347_rgbf000026-resize_2/002467_2014-06-28_20-38-07_260595134347_rgbf000026-resize_2-target.png,125,4.742,2,3571,140,feet,jsons/VE125_randls_74.json,1472918,1743360,23,Woman
96,344034,DepthScenes,duration_manipulation_targetAtFixation,jsons/VE125_randls_74.json,http://54.235.29.9/FacialAge/BNav_EC2/DepthDuration/v2_depth_duration_MTurk/v2_DepthDuration_HTML.html#11,11,1536,864,1536,864,8-21-2022,9-39-17,97,depth_duration_stimuli/003292_2014-05-14_21-53-49_094959634447_rgbf000100-resize_2/003292_2014-05-14_21-53-49_094959634447_rgbf000100-resize_2-target.png,125,3.4815,4,4435,112,feet,jsons/VE125_randls_74.json,1472918,1743360,23,Woman
97,344034,DepthScenes,duration_manipulation_targetAtFixation,jsons/VE125_randls_74.json,http://54.235.29.9/FacialAge/BNav_EC2/DepthDuration/v2_depth_duration_MTurk/v2_DepthDuration_HTML.html#11,11,1536,864,1536,864,8-21-2022,9-39-17,98,depth_duration_stimuli/002639_2014-06-24_14-51-37_094959634447_rgbf000074-resize_4/002639_2014-06-24_14-51-37_094959634447_rgbf000074-resize_4-target.png,125,4.0375,5,3714,117,feet,jsons/VE125_randls_74.json,1472918,1743360,23,Woman
98,344034,DepthScenes,duration_manipulation_targetAtFixation,jsons/VE125_randls_74.json,http://54.235.29.9/FacialAge/BNav_EC2/DepthDuration/v2_depth_duration_MTurk/v2_DepthDuration_HTML.html#11,11,1536,864,1536,864,8-21-2022,9-39-17,99,depth_duration_stimuli/001540_2014-06-20_17-01-05_260595134347_rgbf000086-resize_2/001540_2014-06-20_17-01-05_260595134347_rgbf000086-resize-original.jpg,125,1.459,0,3572,135,feet,jsons/VE125_randls_74.json,1472918,1743360,23,Woman
99,344034,DepthScenes,duration_manipulation_targetAtFixation,jsons/VE125_randls_74.json,http://54.235.29.9/FacialAge/BNav_EC2/DepthDuration/v2_depth_duration_MTurk/v2_DepthDuration_HTML.html#11,11,1536,864,1536,864,8-21-2022,9-39-17,100,depth_duration_stimuli/001449_2014-06-19_17-01-27_260595134347_rgbf000116-resize_2/001449_2014-06-19_17-01-27_260595134347_rgbf000116-resize_2-target.png,125,3.452,4,3052,128,feet,jsons/VE125_randls_74.json,1472918,1743360,23,Woman
100,344034,DepthScenes,duration_manipulation_targetAtFixation,jsons/VE125_randls_74.json,http://54.235.29.9/FacialAge/BNav_EC2/DepthDuration/v2_depth_duration_MTurk/v2_DepthDuration_HTML.html#11,11,1536,864,1536,864,8-21-2022,9-39-17,101,depth_duration_stimuli/001450_2014-06-19_17-02-03_260595134347_rgbf000203-resize_4/001450_2014-06-19_17-02-03_260595134347_rgbf000203-resize_4-target.png,125,4.0106666666667,6,3795,115,feet,jsons/VE125_randls_74.json,1472918,1743360,23,Woman
101,344034,DepthScenes,duration_manipulation_targetAtFixation,jsons/VE125_randls_74.json,http://54.235.29.9/FacialAge/BNav_EC2/DepthDuration/v2_depth_duration_MTurk/v2_DepthDuration_HTML.html#11,11,1536,864,1536,864,8-21-2022,9-39-17,102,depth_duration_stimuli/002988_2014-06-15_12-24-20_094959634447_rgbf000150-resize_1/002988_2014-06-15_12-24-20_094959634447_rgbf000150-resize_1-target.png,125,4.7669999999999995,9,5032,124,feet,jsons/VE125_randls_74.json,1472918,1743360,23,Woman
102,344034,DepthScenes,duration_manipulation_targetAtFixation,jsons/VE125_randls_74.json,http://54.235.29.9/FacialAge/BNav_EC2/DepthDuration/v2_depth_duration_MTurk/v2_DepthDuration_HTML.html#11,11,1536,864,1536,864,8-21-2022,9-39-17,103,depth_duration_stimuli/001052_2014-06-08_18-24-54_260595134347_rgbf000130-resize_1/001052_2014-06-08_18-24-54_260595134347_rgbf000130-resize_1-target.png,125,4.1045,8,3247,130,feet,jsons/VE125_randls_74.json,1472918,1743360,23,Woman
103,344034,DepthScenes,duration_manipulation_targetAtFixation,jsons/VE125_randls_74.json,http://54.235.29.9/FacialAge/BNav_EC2/DepthDuration/v2_depth_duration_MTurk/v2_DepthDuration_HTML.html#11,11,1536,864,1536,864,8-21-2022,9-39-17,104,depth_duration_stimuli/002964_2014-06-08_17-46-11_094959634447_rgbf000091-resize_4/002964_2014-06-08_17-46-11_094959634447_rgbf000091-resize_4-target.png,125,1.6909999999999998,3,3719,118,feet,jsons/VE125_randls_74.json,1472918,1743360,23,Woman
104,344034,DepthScenes,duration_manipulation_targetAtFixation,jsons/VE125_randls_74.json,http://54.235.29.9/FacialAge/BNav_EC2/DepthDuration/v2_depth_duration_MTurk/v2_DepthDuration_HTML.html#11,11,1536,864,1536,864,8-21-2022,9-39-17,105,depth_duration_stimuli/002136_2014-06-25_21-18-03_260595134347_rgbf000109-resize_3/002136_2014-06-25_21-18-03_260595134347_rgbf000109-resize_3-target.png,125,1.9569999999999999,5,2725,129,feet,jsons/VE125_randls_74.json,1472918,1743360,23,Woman
105,344034,DepthScenes,duration_manipulation_targetAtFixation,jsons/VE125_randls_74.json,http://54.235.29.9/FacialAge/BNav_EC2/DepthDuration/v2_depth_duration_MTurk/v2_DepthDuration_HTML.html#11,11,1536,864,1536,864,8-21-2022,9-39-17,106,depth_duration_stimuli/000788_2014-06-08_22-34-36_260595134347_rgbf000131-resize_1/000788_2014-06-08_22-34-36_260595134347_rgbf000131-resize_1-target.png,125,3.359,6,3064,131,feet,jsons/VE125_randls_74.json,1472918,1743360,23,Woman
106,344034,DepthScenes,duration_manipulation_targetAtFixation,jsons/VE125_randls_74.json,http://54.235.29.9/FacialAge/BNav_EC2/DepthDuration/v2_depth_duration_MTurk/v2_DepthDuration_HTML.html#11,11,1536,864,1536,864,8-21-2022,9-39-17,107,depth_duration_stimuli/001235_2014-06-17_16-37-36_260595134347_rgbf000084-resize_4/001235_2014-06-17_16-37-36_260595134347_rgbf000084-resize_4-target.png,125,3.6605,8,3089,117,feet,jsons/VE125_randls_74.json,1472918,1743360,23,Woman
107,344034,DepthScenes,duration_manipulation_targetAtFixation,jsons/VE125_randls_74.json,http://54.235.29.9/FacialAge/BNav_EC2/DepthDuration/v2_depth_duration_MTurk/v2_DepthDuration_HTML.html#11,11,1536,864,1536,864,8-21-2022,9-39-17,108,depth_duration_stimuli/001056_2014-06-08_18-46-44_260595134347_rgbf000068-resize_0/001056_2014-06-08_18-46-44_260595134347_rgbf000068-resize_0-target.png,125,2.6625,6,3644,126,feet,jsons/VE125_randls_74.json,1472918,1743360,23,Woman
108,344034,DepthScenes,duration_manipulation_targetAtFixation,jsons/VE125_randls_74.json,http://54.235.29.9/FacialAge/BNav_EC2/DepthDuration/v2_depth_duration_MTurk/v2_DepthDuration_HTML.html#11,11,1536,864,1536,864,8-21-2022,9-39-17,109,depth_duration_stimuli/002199_2014-06-28_18-33-56_260595134347_rgbf000074-resize_0/002199_2014-06-28_18-33-56_260595134347_rgbf000074-resize_0-target.png,125,1.996,4,276065,133,feet,jsons/VE125_randls_74.json,1472918,1743360,23,Woman
109,344034,DepthScenes,duration_manipulation_targetAtFixation,jsons/VE125_randls_74.json,http://54.235.29.9/FacialAge/BNav_EC2/DepthDuration/v2_depth_duration_MTurk/v2_DepthDuration_HTML.html#11,11,1536,864,1536,864,8-21-2022,9-39-17,110,depth_duration_stimuli/000692_2014-06-08_13-09-42_260595134347_rgbf000199-resize_2/000692_2014-06-08_13-09-42_260595134347_rgbf000199-resize_2-target.png,125,3.661,12,8520,137,feet,jsons/VE125_randls_74.json,1472918,1743360,23,Woman
110,344034,DepthScenes,duration_manipulation_targetAtFixation,jsons/VE125_randls_74.json,http://54.235.29.9/FacialAge/BNav_EC2/DepthDuration/v2_depth_duration_MTurk/v2_DepthDuration_HTML.html#11,11,1536,864,1536,864,8-21-2022,9-39-17,111,depth_duration_stimuli/001094_2014-06-15_17-36-00_260595134347_rgbf000205-resize_0/001094_2014-06-15_17-36-00_260595134347_rgbf000205-resize_0-target.png,125,4.2175,8,4760,135,feet,jsons/VE125_randls_74.json,1472918,1743360,23,Woman
111,344034,DepthScenes,duration_manipulation_targetAtFixation,jsons/VE125_randls_74.json,http://54.235.29.9/FacialAge/BNav_EC2/DepthDuration/v2_depth_duration_MTurk/v2_DepthDuration_HTML.html#11,11,1536,864,1536,864,8-21-2022,9-39-17,112,depth_duration_stimuli/000469_2014-06-09_19-42-10_260595134347_rgbf000081-resize_1/000469_2014-06-09_19-42-10_260595134347_rgbf000081-resize_1-target.png,125,1.652,5,4334,125,feet,jsons/VE125_randls_74.json,1472918,1743360,23,Woman
112,344034,DepthScenes,duration_manipulation_targetAtFixation,jsons/VE125_randls_74.json,http://54.235.29.9/FacialAge/BNav_EC2/DepthDuration/v2_depth_duration_MTurk/v2_DepthDuration_HTML.html#11,11,1536,864,1536,864,8-21-2022,9-39-17,113,depth_duration_stimuli/000483_2014-06-09_20-41-45_260595134347_rgbf000116-resize_4/000483_2014-06-09_20-41-45_260595134347_rgbf000116-resize_4-target.png,125,1.337,4,3814,100,feet,jsons/VE125_randls_74.json,1472918,1743360,23,Woman
113,344034,DepthScenes,duration_manipulation_targetAtFixation,jsons/VE125_randls_74.json,http://54.235.29.9/FacialAge/BNav_EC2/DepthDuration/v2_depth_duration_MTurk/v2_DepthDuration_HTML.html#11,11,1536,864,1536,864,8-21-2022,9-39-17,114,depth_duration_stimuli/000470_2014-06-09_19-42-40_260595134347_rgbf000094-resize_1/000470_2014-06-09_19-42-40_260595134347_rgbf000094-resize_1-target.png,125,1.831,4,4647,123,feet,jsons/VE125_randls_74.json,1472918,1743360,23,Woman
114,344034,DepthScenes,duration_manipulation_targetAtFixation,jsons/VE125_randls_74.json,http://54.235.29.9/FacialAge/BNav_EC2/DepthDuration/v2_depth_duration_MTurk/v2_DepthDuration_HTML.html#11,11,1536,864,1536,864,8-21-2022,9-39-17,115,depth_duration_stimuli/000109_2014-05-14_23-41-52_260595134347_rgbf000035-resize_9/000109_2014-05-14_23-41-52_260595134347_rgbf000035-resize_9-target.png,125,1.3545,3,14686,113,feet,jsons/VE125_randls_74.json,1472918,1743360,23,Woman
115,344034,DepthScenes,duration_manipulation_targetAtFixation,jsons/VE125_randls_74.json,http://54.235.29.9/FacialAge/BNav_EC2/DepthDuration/v2_depth_duration_MTurk/v2_DepthDuration_HTML.html#11,11,1536,864,1536,864,8-21-2022,9-39-17,116,depth_duration_stimuli/001170_2014-06-17_15-43-44_260595134347_rgbf000096-resize_6/001170_2014-06-17_15-43-44_260595134347_rgbf000096-resize-original.jpg,125,1.1909999999999998,0,2939,122,feet,jsons/VE125_randls_74.json,1472918,1743360,23,Woman
116,344034,DepthScenes,duration_manipulation_targetAtFixation,jsons/VE125_randls_74.json,http://54.235.29.9/FacialAge/BNav_EC2/DepthDuration/v2_depth_duration_MTurk/v2_DepthDuration_HTML.html#11,11,1536,864,1536,864,8-21-2022,9-39-17,117,depth_duration_stimuli/000009_2014-05-26_14-32-05_260595134347_rgbf000034-resize_3/000009_2014-05-26_14-32-05_260595134347_rgbf000034-resize_3-target.png,125,3.8715,12,5659,133,feet,jsons/VE125_randls_74.json,1472918,1743360,23,Woman
117,344034,DepthScenes,duration_manipulation_targetAtFixation,jsons/VE125_randls_74.json,http://54.235.29.9/FacialAge/BNav_EC2/DepthDuration/v2_depth_duration_MTurk/v2_DepthDuration_HTML.html#11,11,1536,864,1536,864,8-21-2022,9-39-17,118,depth_duration_stimuli/001828_2014-06-26_21-40-03_260595134347_rgbf000024-resize_0/001828_2014-06-26_21-40-03_260595134347_rgbf000024-resize_0-target.png,125,4.8260000000000005,9,4675,128,feet,jsons/VE125_randls_74.json,1472918,1743360,23,Woman
118,344034,DepthScenes,duration_manipulation_targetAtFixation,jsons/VE125_randls_74.json,http://54.235.29.9/FacialAge/BNav_EC2/DepthDuration/v2_depth_duration_MTurk/v2_DepthDuration_HTML.html#11,11,1536,864,1536,864,8-21-2022,9-39-17,119,depth_duration_stimuli/000642_2014-06-08_16-59-25_260595134347_rgbf000098-resize_2/000642_2014-06-08_16-59-25_260595134347_rgbf000098-resize_2-target.png,125,2.8815,3,7467,115,feet,jsons/VE125_randls_74.json,1472918,1743360,23,Woman
119,344034,DepthScenes,duration_manipulation_targetAtFixation,jsons/VE125_randls_74.json,http://54.235.29.9/FacialAge/BNav_EC2/DepthDuration/v2_depth_duration_MTurk/v2_DepthDuration_HTML.html#11,11,1536,864,1536,864,8-21-2022,9-39-17,120,depth_duration_stimuli/002425_2014-06-28_20-27-29_260595134347_rgbf000031-resize_8/002425_2014-06-28_20-27-29_260595134347_rgbf000031-resize_8-target.png,125,3.8960000000000004,7,5695,128,feet,jsons/VE125_randls_74.json,1472918,1743360,23,Woman
120,344034,DepthScenes,duration_manipulation_targetAtFixation,jsons/VE125_randls_74.json,http://54.235.29.9/FacialAge/BNav_EC2/DepthDuration/v2_depth_duration_MTurk/v2_DepthDuration_HTML.html#11,11,1536,864,1536,864,8-21-2022,9-39-17,121,depth_duration_stimuli/002763_2014-06-22_19-13-10_094959634447_rgbf000075-resize_4/002763_2014-06-22_19-13-10_094959634447_rgbf000075-resize_4-target.png,125,1.68375,3,3234,125,feet,jsons/VE125_randls_74.json,1472918,1743360,23,Woman
121,344034,DepthScenes,duration_manipulation_targetAtFixation,jsons/VE125_randls_74.json,http://54.235.29.9/FacialAge/BNav_EC2/DepthDuration/v2_depth_duration_MTurk/v2_DepthDuration_HTML.html#11,11,1536,864,1536,864,8-21-2022,9-39-17,122,depth_duration_stimuli/002209_2014-06-28_18-36-10_260595134347_rgbf000051-resize_1/002209_2014-06-28_18-36-10_260595134347_rgbf000051-resize_1-target.png,125,2.057,4,4772,116,feet,jsons/VE125_randls_74.json,1472918,1743360,23,Woman
122,344034,DepthScenes,duration_manipulation_targetAtFixation,jsons/VE125_randls_74.json,http://54.235.29.9/FacialAge/BNav_EC2/DepthDuration/v2_depth_duration_MTurk/v2_DepthDuration_HTML.html#11,11,1536,864,1536,864,8-21-2022,9-39-17,123,depth_duration_stimuli/002905_2014-06-03_18-04-43_094959634447_rgbf000151-resize_2/002905_2014-06-03_18-04-43_094959634447_rgbf000151-resize_2-target.png,125,2.0295,5,3456,127,feet,jsons/VE125_randls_74.json,1472918,1743360,23,Woman
123,344034,DepthScenes,duration_manipulation_targetAtFixation,jsons/VE125_randls_74.json,http://54.235.29.9/FacialAge/BNav_EC2/DepthDuration/v2_depth_duration_MTurk/v2_DepthDuration_HTML.html#11,11,1536,864,1536,864,8-21-2022,9-39-17,124,depth_duration_stimuli/003423_2014-05-21_10-23-26_094959634447_rgbf002665-resize_2/003423_2014-05-21_10-23-26_094959634447_rgbf002665-resize_2-target.png,125,3.2575,8,5147,125,feet,jsons/VE125_randls_74.json,1472918,1743360,23,Woman
124,344034,DepthScenes,duration_manipulation_targetAtFixation,jsons/VE125_randls_74.json,http://54.235.29.9/FacialAge/BNav_EC2/DepthDuration/v2_depth_duration_MTurk/v2_DepthDuration_HTML.html#11,11,1536,864,1536,864,8-21-2022,9-39-17,125,depth_duration_stimuli/002118_2014-06-25_20-32-08_260595134347_rgbf000078-resize_1/002118_2014-06-25_20-32-08_260595134347_rgbf000078-resize_1-target.png,125,2.6460000000000004,8,4705,123,feet,jsons/VE125_randls_74.json,1472918,1743360,23,Woman
125,344034,DepthScenes,duration_manipulation_targetAtFixation,jsons/VE125_randls_74.json,http://54.235.29.9/FacialAge/BNav_EC2/DepthDuration/v2_depth_duration_MTurk/v2_DepthDuration_HTML.html#11,11,1536,864,1536,864,8-21-2022,9-39-17,126,depth_duration_stimuli/001516_2014-06-20_16-25-09_260595134347_rgbf000076-resize_2/001516_2014-06-20_16-25-09_260595134347_rgbf000076-resize_2-target.png,125,1.7445,6,3490,126,feet,jsons/VE125_randls_74.json,1472918,1743360,23,Woman
126,344034,DepthScenes,duration_manipulation_targetAtFixation,jsons/VE125_randls_74.json,http://54.235.29.9/FacialAge/BNav_EC2/DepthDuration/v2_depth_duration_MTurk/v2_DepthDuration_HTML.html#11,11,1536,864,1536,864,8-21-2022,9-39-17,127,depth_duration_stimuli/000436_2014-06-09_22-25-11_260595134347_rgbf000137-resize_1/000436_2014-06-09_22-25-11_260595134347_rgbf000137-resize_1-target.png,125,4.0705,6,2813,125,feet,jsons/VE125_randls_74.json,1472918,1743360,23,Woman
127,344034,DepthScenes,duration_manipulation_targetAtFixation,jsons/VE125_randls_74.json,http://54.235.29.9/FacialAge/BNav_EC2/DepthDuration/v2_depth_duration_MTurk/v2_DepthDuration_HTML.html#11,11,1536,864,1536,864,8-21-2022,9-39-17,128,depth_duration_stimuli/002444_2014-06-28_20-32-08_260595134347_rgbf000027-resize_0/002444_2014-06-28_20-32-08_260595134347_rgbf000027-resize_0-target.png,125,4.388999999999999,4,3255,128,feet,jsons/VE125_randls_74.json,1472918,1743360,23,Woman
128,344034,DepthScenes,duration_manipulation_targetAtFixation,jsons/VE125_randls_74.json,http://54.235.29.9/FacialAge/BNav_EC2/DepthDuration/v2_depth_duration_MTurk/v2_DepthDuration_HTML.html#11,11,1536,864,1536,864,8-21-2022,9-39-17,129,depth_duration_stimuli/000810_2014-06-08_17-20-01_260595134347_rgbf000105-resize_0/000810_2014-06-08_17-20-01_260595134347_rgbf000105-resize_0-target.png,125,1.4865,5,5442,129,feet,jsons/VE125_randls_74.json,1472918,1743360,23,Woman
129,344034,DepthScenes,duration_manipulation_targetAtFixation,jsons/VE125_randls_74.json,http://54.235.29.9/FacialAge/BNav_EC2/DepthDuration/v2_depth_duration_MTurk/v2_DepthDuration_HTML.html#11,11,1536,864,1536,864,8-21-2022,9-39-17,130,depth_duration_stimuli/001214_2014-06-17_16-13-55_260595134347_rgbf000111-resize_0/001214_2014-06-17_16-13-55_260595134347_rgbf000111-resize_0-target.png,125,2.6505,4,4544,133,feet,jsons/VE125_randls_74.json,1472918,1743360,23,Woman
130,344034,DepthScenes,duration_manipulation_targetAtFixation,jsons/VE125_randls_74.json,http://54.235.29.9/FacialAge/BNav_EC2/DepthDuration/v2_depth_duration_MTurk/v2_DepthDuration_HTML.html#11,11,1536,864,1536,864,8-21-2022,9-39-17,131,depth_duration_stimuli/000773_2014-06-08_22-24-54_260595134347_rgbf000093-resize_1/000773_2014-06-08_22-24-54_260595134347_rgbf000093-resize_1-target.png,125,4.973,5,33616,123,feet,jsons/VE125_randls_74.json,1472918,1743360,23,Woman
131,344034,DepthScenes,duration_manipulation_targetAtFixation,jsons/VE125_randls_74.json,http://54.235.29.9/FacialAge/BNav_EC2/DepthDuration/v2_depth_duration_MTurk/v2_DepthDuration_HTML.html#11,11,1536,864,1536,864,8-21-2022,9-39-17,132,depth_duration_stimuli/002414_2014-06-28_20-24-58_260595134347_rgbf000067-resize_4/002414_2014-06-28_20-24-58_260595134347_rgbf000067-resize_4-target.png,125,4.363,9,4515,115,feet,jsons/VE125_randls_74.json,1472918,1743360,23,Woman
132,344034,DepthScenes,duration_manipulation_targetAtFixation,jsons/VE125_randls_74.json,http://54.235.29.9/FacialAge/BNav_EC2/DepthDuration/v2_depth_duration_MTurk/v2_DepthDuration_HTML.html#11,11,1536,864,1536,864,8-21-2022,9-39-17,133,depth_duration_stimuli/000368_2014-06-09_15-53-01_260595134347_rgbf000155-resize_2/000368_2014-06-09_15-53-01_260595134347_rgbf000155-resize_2-target.png,125,2.4859999999999998,4,3671,114,feet,jsons/VE125_randls_74.json,1472918,1743360,23,Woman
133,344034,DepthScenes,duration_manipulation_targetAtFixation,jsons/VE125_randls_74.json,http://54.235.29.9/FacialAge/BNav_EC2/DepthDuration/v2_depth_duration_MTurk/v2_DepthDuration_HTML.html#11,11,1536,864,1536,864,8-21-2022,9-39-17,134,depth_duration_stimuli/002678_2014-06-13_16-15-32_094959634447_rgbf000151-resize_6/002678_2014-06-13_16-15-32_094959634447_rgbf000151-resize_6-target.png,125,2.1830000000000003,13,7634,120,feet,jsons/VE125_randls_74.json,1472918,1743360,23,Woman
134,344034,DepthScenes,duration_manipulation_targetAtFixation,jsons/VE125_randls_74.json,http://54.235.29.9/FacialAge/BNav_EC2/DepthDuration/v2_depth_duration_MTurk/v2_DepthDuration_HTML.html#11,11,1536,864,1536,864,8-21-2022,9-39-17,135,depth_duration_stimuli/002072_2014-06-24_21-48-06_260595134347_rgbf000115-resize_0/002072_2014-06-24_21-48-06_260595134347_rgbf000115-resize-original.jpg,125,4.702,0,2859,125,feet,jsons/VE125_randls_74.json,1472918,1743360,23,Woman
135,344034,DepthScenes,duration_manipulation_targetAtFixation,jsons/VE125_randls_74.json,http://54.235.29.9/FacialAge/BNav_EC2/DepthDuration/v2_depth_duration_MTurk/v2_DepthDuration_HTML.html#11,11,1536,864,1536,864,8-21-2022,9-39-17,136,depth_duration_stimuli/001808_2014-06-26_20-50-58_260595134347_rgbf000029-resize_1/001808_2014-06-26_20-50-58_260595134347_rgbf000029-resize_1-target.png,125,4.249,9,4467,123,feet,jsons/VE125_randls_74.json,1472918,1743360,23,Woman
136,344034,DepthScenes,duration_manipulation_targetAtFixation,jsons/VE125_randls_74.json,http://54.235.29.9/FacialAge/BNav_EC2/DepthDuration/v2_depth_duration_MTurk/v2_DepthDuration_HTML.html#11,11,1536,864,1536,864,8-21-2022,9-39-17,137,depth_duration_stimuli/001815_2014-06-26_20-52-55_260595134347_rgbf000020-resize_0/001815_2014-06-26_20-52-55_260595134347_rgbf000020-resize_0-target.png,125,3.3865,5,3887,128,feet,jsons/VE125_randls_74.json,1472918,1743360,23,Woman
137,344034,DepthScenes,duration_manipulation_targetAtFixation,jsons/VE125_randls_74.json,http://54.235.29.9/FacialAge/BNav_EC2/DepthDuration/v2_depth_duration_MTurk/v2_DepthDuration_HTML.html#11,11,1536,864,1536,864,8-21-2022,9-39-17,138,depth_duration_stimuli/001158_2014-06-17_15-32-16_260595134347_rgbf000138-resize_2/001158_2014-06-17_15-32-16_260595134347_rgbf000138-resize_2-target.png,125,4.5315,5,4392,117,feet,jsons/VE125_randls_74.json,1472918,1743360,23,Woman
138,344034,DepthScenes,duration_manipulation_targetAtFixation,jsons/VE125_randls_74.json,http://54.235.29.9/FacialAge/BNav_EC2/DepthDuration/v2_depth_duration_MTurk/v2_DepthDuration_HTML.html#11,11,1536,864,1536,864,8-21-2022,9-39-17,139,depth_duration_stimuli/000556_2014-06-09_22-42-56_260595134347_rgbf000214-resize_1/000556_2014-06-09_22-42-56_260595134347_rgbf000214-resize_1-target.png,125,4.8415,13,4158,129,feet,jsons/VE125_randls_74.json,1472918,1743360,23,Woman
139,344034,DepthScenes,duration_manipulation_targetAtFixation,jsons/VE125_randls_74.json,http://54.235.29.9/FacialAge/BNav_EC2/DepthDuration/v2_depth_duration_MTurk/v2_DepthDuration_HTML.html#11,11,1536,864,1536,864,8-21-2022,9-39-17,140,depth_duration_stimuli/000522_2014-06-08_13-35-06_260595134347_rgbf000244-resize_1/000522_2014-06-08_13-35-06_260595134347_rgbf000244-resize_1-target.png,125,2.3715,4,3930,122,feet,jsons/VE125_randls_74.json,1472918,1743360,23,Woman
140,344034,DepthScenes,duration_manipulation_targetAtFixation,jsons/VE125_randls_74.json,http://54.235.29.9/FacialAge/BNav_EC2/DepthDuration/v2_depth_duration_MTurk/v2_DepthDuration_HTML.html#11,11,1536,864,1536,864,8-21-2022,9-39-17,141,depth_duration_stimuli/002949_2014-06-26_15-57-42_094959634447_rgbf000079-resize_1/002949_2014-06-26_15-57-42_094959634447_rgbf000079-resize_1-target.png,125,1.8915,3,3079,126,feet,jsons/VE125_randls_74.json,1472918,1743360,23,Woman
141,344034,DepthScenes,duration_manipulation_targetAtFixation,jsons/VE125_randls_74.json,http://54.235.29.9/FacialAge/BNav_EC2/DepthDuration/v2_depth_duration_MTurk/v2_DepthDuration_HTML.html#11,11,1536,864,1536,864,8-21-2022,9-39-17,142,depth_duration_stimuli/000917_2014-06-09_22-45-29_260595134347_rgbf000149-resize_3/000917_2014-06-09_22-45-29_260595134347_rgbf000149-resize_3-target.png,125,4.1865,4,8007,129,feet,jsons/VE125_randls_74.json,1472918,1743360,23,Woman
142,344034,DepthScenes,duration_manipulation_targetAtFixation,jsons/VE125_randls_74.json,http://54.235.29.9/FacialAge/BNav_EC2/DepthDuration/v2_depth_duration_MTurk/v2_DepthDuration_HTML.html#11,11,1536,864,1536,864,8-21-2022,9-39-17,143,depth_duration_stimuli/002323_2014-06-28_20-01-54_260595134347_rgbf000051-resize_4/002323_2014-06-28_20-01-54_260595134347_rgbf000051-resize_4-target.png,125,3.7310000000000003,9,6236,93,feet,jsons/VE125_randls_74.json,1472918,1743360,23,Woman
143,344034,DepthScenes,duration_manipulation_targetAtFixation,jsons/VE125_randls_74.json,http://54.235.29.9/FacialAge/BNav_EC2/DepthDuration/v2_depth_duration_MTurk/v2_DepthDuration_HTML.html#11,11,1536,864,1536,864,8-21-2022,9-39-17,144,depth_duration_stimuli/002725_2014-06-22_11-47-51_094959634447_rgbf000070-resize_1/002725_2014-06-22_11-47-51_094959634447_rgbf000070-resize_1-target.png,125,2.195,2,3550,113,feet,jsons/VE125_randls_74.json,1472918,1743360,23,Woman
144,344034,DepthScenes,duration_manipulation_targetAtFixation,jsons/VE125_randls_74.json,http://54.235.29.9/FacialAge/BNav_EC2/DepthDuration/v2_depth_duration_MTurk/v2_DepthDuration_HTML.html#11,11,1536,864,1536,864,8-21-2022,9-39-17,145,depth_duration_stimuli/002344_2014-06-28_20-06-29_260595134347_rgbf000030-resize_1/002344_2014-06-28_20-06-29_260595134347_rgbf000030-resize_1-target.png,125,1.5795,1,7477,115,feet,jsons/VE125_randls_74.json,1472918,1743360,23,Woman
145,344034,DepthScenes,duration_manipulation_targetAtFixation,jsons/VE125_randls_74.json,http://54.235.29.9/FacialAge/BNav_EC2/DepthDuration/v2_depth_duration_MTurk/v2_DepthDuration_HTML.html#11,11,1536,864,1536,864,8-21-2022,9-39-17,146,depth_duration_stimuli/001498_2014-06-19_17-45-14_260595134347_rgbf000129-resize_4/001498_2014-06-19_17-45-14_260595134347_rgbf000129-resize-original.jpg,125,1.4075,3,5516,125,feet,jsons/VE125_randls_74.json,1472918,1743360,23,Woman
146,344034,DepthScenes,duration_manipulation_targetAtFixation,jsons/VE125_randls_74.json,http://54.235.29.9/FacialAge/BNav_EC2/DepthDuration/v2_depth_duration_MTurk/v2_DepthDuration_HTML.html#11,11,1536,864,1536,864,8-21-2022,9-39-17,147,depth_duration_stimuli/001164_2014-06-17_15-35-46_260595134347_rgbf000085-resize_3/001164_2014-06-17_15-35-46_260595134347_rgbf000085-resize_3-target.png,125,2.354,5,3272,123,feet,jsons/VE125_randls_74.json,1472918,1743360,23,Woman
147,344034,DepthScenes,duration_manipulation_targetAtFixation,jsons/VE125_randls_74.json,http://54.235.29.9/FacialAge/BNav_EC2/DepthDuration/v2_depth_duration_MTurk/v2_DepthDuration_HTML.html#11,11,1536,864,1536,864,8-21-2022,9-39-17,148,depth_duration_stimuli/001136_2014-06-17_15-19-41_260595134347_rgbf000076-resize_3/001136_2014-06-17_15-19-41_260595134347_rgbf000076-resize_3-target.png,125,1.8655,6,3032,120,feet,jsons/VE125_randls_74.json,1472918,1743360,23,Woman
148,344034,DepthScenes,duration_manipulation_targetAtFixation,jsons/VE125_randls_74.json,http://54.235.29.9/FacialAge/BNav_EC2/DepthDuration/v2_depth_duration_MTurk/v2_DepthDuration_HTML.html#11,11,1536,864,1536,864,8-21-2022,9-39-17,149,depth_duration_stimuli/001244_2014-06-17_16-47-45_260595134347_rgbf000030-resize_4/001244_2014-06-17_16-47-45_260595134347_rgbf000030-resize_4-target.png,125,2.0425,6,2703,126,feet,jsons/VE125_randls_74.json,1472918,1743360,23,Woman
149,344034,DepthScenes,duration_manipulation_targetAtFixation,jsons/VE125_randls_74.json,http://54.235.29.9/FacialAge/BNav_EC2/DepthDuration/v2_depth_duration_MTurk/v2_DepthDuration_HTML.html#11,11,1536,864,1536,864,8-21-2022,9-39-17,150,depth_duration_stimuli/003495_2014-05-21_16-01-51_094959634447_rgbf000100-resize_3/003495_2014-05-21_16-01-51_094959634447_rgbf000100-resize_3-target.png,125,1.6255,3,4902,124,feet,jsons/VE125_randls_74.json,1472918,1743360,23,Woman
150,344034,DepthScenes,duration_manipulation_targetAtFixation,jsons/VE125_randls_74.json,http://54.235.29.9/FacialAge/BNav_EC2/DepthDuration/v2_depth_duration_MTurk/v2_DepthDuration_HTML.html#11,11,1536,864,1536,864,8-21-2022,9-39-17,151,depth_duration_stimuli/002279_2014-06-28_18-55-32_260595134347_rgbf000040-resize_5/002279_2014-06-28_18-55-32_260595134347_rgbf000040-resize_5-target.png,125,1.5043333333333,3,2512,120,feet,jsons/VE125_randls_74.json,1472918,1743360,23,Woman
151,344034,DepthScenes,duration_manipulation_targetAtFixation,jsons/VE125_randls_74.json,http://54.235.29.9/FacialAge/BNav_EC2/DepthDuration/v2_depth_duration_MTurk/v2_DepthDuration_HTML.html#11,11,1536,864,1536,864,8-21-2022,9-39-17,152,depth_duration_stimuli/000635_2014-06-08_16-38-42_260595134347_rgbf000106-resize_1/000635_2014-06-08_16-38-42_260595134347_rgbf000106-resize_1-target.png,125,2.074,5,2599,109,feet,jsons/VE125_randls_74.json,1472918,1743360,23,Woman
152,344034,DepthScenes,duration_manipulation_targetAtFixation,jsons/VE125_randls_74.json,http://54.235.29.9/FacialAge/BNav_EC2/DepthDuration/v2_depth_duration_MTurk/v2_DepthDuration_HTML.html#11,11,1536,864,1536,864,8-21-2022,9-39-17,153,depth_duration_stimuli/001092_2014-06-15_17-34-58_260595134347_rgbf000171-resize_3/001092_2014-06-15_17-34-58_260595134347_rgbf000171-resize_3-target.png,125,2.6935,2,2913,119,feet,jsons/VE125_randls_74.json,1472918,1743360,23,Woman
153,344034,DepthScenes,duration_manipulation_targetAtFixation,jsons/VE125_randls_74.json,http://54.235.29.9/FacialAge/BNav_EC2/DepthDuration/v2_depth_duration_MTurk/v2_DepthDuration_HTML.html#11,11,1536,864,1536,864,8-21-2022,9-39-17,154,depth_duration_stimuli/002545_2014-06-24_13-38-53_094959634447_rgbf000080-resize_4/002545_2014-06-24_13-38-53_094959634447_rgbf000080-resize_4-target.png,125,1.9205,3,2614,113,feet,jsons/VE125_randls_74.json,1472918,1743360,23,Woman
154,344034,DepthScenes,duration_manipulation_targetAtFixation,jsons/VE125_randls_74.json,http://54.235.29.9/FacialAge/BNav_EC2/DepthDuration/v2_depth_duration_MTurk/v2_DepthDuration_HTML.html#11,11,1536,864,1536,864,8-21-2022,9-39-17,155,depth_duration_stimuli/001133_2014-06-17_14-49-16_260595134347_rgbf000100-resize_0/001133_2014-06-17_14-49-16_260595134347_rgbf000100-resize_0-target.png,125,4.2115,6,5667,116,feet,jsons/VE125_randls_74.json,1472918,1743360,23,Woman
155,344034,DepthScenes,duration_manipulation_targetAtFixation,jsons/VE125_randls_74.json,http://54.235.29.9/FacialAge/BNav_EC2/DepthDuration/v2_depth_duration_MTurk/v2_DepthDuration_HTML.html#11,11,1536,864,1536,864,8-21-2022,9-39-17,156,depth_duration_stimuli/001132_2014-06-17_14-48-54_260595134347_rgbf000100-resize_2/001132_2014-06-17_14-48-54_260595134347_rgbf000100-resize_2-target.png,125,3.753,6,2926,109,feet,jsons/VE125_randls_74.json,1472918,1743360,23,Woman
156,344034,DepthScenes,duration_manipulation_targetAtFixation,jsons/VE125_randls_74.json,http://54.235.29.9/FacialAge/BNav_EC2/DepthDuration/v2_depth_duration_MTurk/v2_DepthDuration_HTML.html#11,11,1536,864,1536,864,8-21-2022,9-39-17,157,depth_duration_stimuli/000414_2014-06-04_19-49-13_260595134347_rgbf000044-resize_0/000414_2014-06-04_19-49-13_260595134347_rgbf000044-resize_0-target.png,125,4.329,8,6205,115,feet,jsons/VE125_randls_74.json,1472918,1743360,23,Woman
157,344034,DepthScenes,duration_manipulation_targetAtFixation,jsons/VE125_randls_74.json,http://54.235.29.9/FacialAge/BNav_EC2/DepthDuration/v2_depth_duration_MTurk/v2_DepthDuration_HTML.html#11,11,1536,864,1536,864,8-21-2022,9-39-17,158,depth_duration_stimuli/003129_2014-05-12_10-48-10_094959634447_rgbf000100-resize_0/003129_2014-05-12_10-48-10_094959634447_rgbf000100-resize_0-target.png,125,4.9305,8,3484,129,feet,jsons/VE125_randls_74.json,1472918,1743360,23,Woman
158,344034,DepthScenes,duration_manipulation_targetAtFixation,jsons/VE125_randls_74.json,http://54.235.29.9/FacialAge/BNav_EC2/DepthDuration/v2_depth_duration_MTurk/v2_DepthDuration_HTML.html#11,11,1536,864,1536,864,8-21-2022,9-39-17,159,depth_duration_stimuli/001055_2014-06-08_18-45-35_260595134347_rgbf000111-resize_4/001055_2014-06-08_18-45-35_260595134347_rgbf000111-resize_4-target.png,125,2.4290000000000003,9,5375,122,feet,jsons/VE125_randls_74.json,1472918,1743360,23,Woman
159,344034,DepthScenes,duration_manipulation_targetAtFixation,jsons/VE125_randls_74.json,http://54.235.29.9/FacialAge/BNav_EC2/DepthDuration/v2_depth_duration_MTurk/v2_DepthDuration_HTML.html#11,11,1536,864,1536,864,8-21-2022,9-39-17,160,depth_duration_stimuli/000549_2014-06-08_22-10-24_260595134347_rgbf000247-resize_3/000549_2014-06-08_22-10-24_260595134347_rgbf000247-resize_3-target.png,125,1.841,3,4199,112,feet,jsons/VE125_randls_74.json,1472918,1743360,23,Woman
160,344034,DepthScenes,duration_manipulation_targetAtFixation,jsons/VE125_randls_74.json,http://54.235.29.9/FacialAge/BNav_EC2/DepthDuration/v2_depth_duration_MTurk/v2_DepthDuration_HTML.html#11,11,1536,864,1536,864,8-21-2022,9-39-17,161,depth_duration_stimuli/003492_2014-05-21_15-50-55_094959634447_rgbf000828-resize_1/003492_2014-05-21_15-50-55_094959634447_rgbf000828-resize_1-target.png,125,4.06875,5,3569,125,feet,jsons/VE125_randls_74.json,1472918,1743360,23,Woman
161,344034,DepthScenes,duration_manipulation_targetAtFixation,jsons/VE125_randls_74.json,http://54.235.29.9/FacialAge/BNav_EC2/DepthDuration/v2_depth_duration_MTurk/v2_DepthDuration_HTML.html#11,11,1536,864,1536,864,8-21-2022,9-39-17,162,depth_duration_stimuli/002568_2014-06-24_13-59-21_094959634447_rgbf000062-resize_4/002568_2014-06-24_13-59-21_094959634447_rgbf000062-resize_4-target.png,125,3.015,4,3511,136,feet,jsons/VE125_randls_74.json,1472918,1743360,23,Woman
162,344034,DepthScenes,duration_manipulation_targetAtFixation,jsons/VE125_randls_74.json,http://54.235.29.9/FacialAge/BNav_EC2/DepthDuration/v2_depth_duration_MTurk/v2_DepthDuration_HTML.html#11,11,1536,864,1536,864,8-21-2022,9-39-17,163,depth_duration_stimuli/002213_2014-06-28_18-37-58_260595134347_rgbf000055-resize_1/002213_2014-06-28_18-37-58_260595134347_rgbf000055-resize_1-target.png,125,3.62,9,3297,126,feet,jsons/VE125_randls_74.json,1472918,1743360,23,Woman
163,344034,DepthScenes,duration_manipulation_targetAtFixation,jsons/VE125_randls_74.json,http://54.235.29.9/FacialAge/BNav_EC2/DepthDuration/v2_depth_duration_MTurk/v2_DepthDuration_HTML.html#11,11,1536,864,1536,864,8-21-2022,9-39-17,164,depth_duration_stimuli/000691_2014-06-08_13-08-50_260595134347_rgbf000132-resize_3/000691_2014-06-08_13-08-50_260595134347_rgbf000132-resize_3-target.png,125,4.1530000000000005,7,4737,120,feet,jsons/VE125_randls_74.json,1472918,1743360,23,Woman
