,subjID,experimentName,versionName,sequenceName,url,selected_row,windowWidth,windowHeight,screenWidth,screenHeight,startDate,startTime,trial,stimulus,duration,actual_depth,depth_estimate,trial_RT,log_sceneDuration,unitSelection,seq_filepath,experimentTime,totalTime,age,gender
0,344496,DepthScenes,duration_manipulation_targetAtFixation,jsons/VE125_randls_57.json,http://54.235.29.9/FacialAge/BNav_EC2/DepthDuration/v2_depth_duration_MTurk/v2_DepthDuration_HTML.html#454,454,1364,625,1364,768,8-29-2022,12-3-11,1,depth_duration_stimuli/002118_2014-06-25_20-32-08_260595134347_rgbf000078-resize_1/002118_2014-06-25_20-32-08_260595134347_rgbf000078-resize_1-target.png,125,2.6460000000000004,7,3873,126,feet,jsons/VE125_randls_57.json,1096294,1436692,35,Man
1,344496,DepthScenes,duration_manipulation_targetAtFixation,jsons/VE125_randls_57.json,http://54.235.29.9/FacialAge/BNav_EC2/DepthDuration/v2_depth_duration_MTurk/v2_DepthDuration_HTML.html#454,454,1364,625,1364,768,8-29-2022,12-3-11,2,depth_duration_stimuli/001516_2014-06-20_16-25-09_260595134347_rgbf000076-resize_2/001516_2014-06-20_16-25-09_260595134347_rgbf000076-resize_2-target.png,125,1.7445,0,3483,125,feet,jsons/VE125_randls_57.json,1096294,1436692,35,Man
2,344496,DepthScenes,duration_manipulation_targetAtFixation,jsons/VE125_randls_57.json,http://54.235.29.9/FacialAge/BNav_EC2/DepthDuration/v2_depth_duration_MTurk/v2_DepthDuration_HTML.html#454,454,1364,625,1364,768,8-29-2022,12-3-11,3,depth_duration_stimuli/001150_2014-06-17_15-27-34_260595134347_rgbf000108-resize_2/001150_2014-06-17_15-27-34_260595134347_rgbf000108-resize_2-target.png,125,4.0325,10,3439,125,feet,jsons/VE125_randls_57.json,1096294,1436692,35,Man
3,344496,DepthScenes,duration_manipulation_targetAtFixation,jsons/VE125_randls_57.json,http://54.235.29.9/FacialAge/BNav_EC2/DepthDuration/v2_depth_duration_MTurk/v2_DepthDuration_HTML.html#454,454,1364,625,1364,768,8-29-2022,12-3-11,4,depth_duration_stimuli/000665_2014-06-09_20-42-35_260595134347_rgbf000110-resize_1/000665_2014-06-09_20-42-35_260595134347_rgbf000110-resize_1-target.png,125,3.057,0,2696,125,feet,jsons/VE125_randls_57.json,1096294,1436692,35,Man
4,344496,DepthScenes,duration_manipulation_targetAtFixation,jsons/VE125_randls_57.json,http://54.235.29.9/FacialAge/BNav_EC2/DepthDuration/v2_depth_duration_MTurk/v2_DepthDuration_HTML.html#454,454,1364,625,1364,768,8-29-2022,12-3-11,5,depth_duration_stimuli/000447_2014-06-08_16-15-46_260595134347_rgbf000130-resize_1/000447_2014-06-08_16-15-46_260595134347_rgbf000130-resize_1-target.png,125,4.479,12,3842,126,feet,jsons/VE125_randls_57.json,1096294,1436692,35,Man
5,344496,DepthScenes,duration_manipulation_targetAtFixation,jsons/VE125_randls_57.json,http://54.235.29.9/FacialAge/BNav_EC2/DepthDuration/v2_depth_duration_MTurk/v2_DepthDuration_HTML.html#454,454,1364,625,1364,768,8-29-2022,12-3-11,6,depth_duration_stimuli/001447_2014-06-19_17-00-32_260595134347_rgbf000082-resize_5/001447_2014-06-19_17-00-32_260595134347_rgbf000082-resize_5-target.png,125,4.13775,6,12804,124,feet,jsons/VE125_randls_57.json,1096294,1436692,35,Man
6,344496,DepthScenes,duration_manipulation_targetAtFixation,jsons/VE125_randls_57.json,http://54.235.29.9/FacialAge/BNav_EC2/DepthDuration/v2_depth_duration_MTurk/v2_DepthDuration_HTML.html#454,454,1364,625,1364,768,8-29-2022,12-3-11,7,depth_duration_stimuli/002763_2014-06-22_19-13-10_094959634447_rgbf000075-resize_4/002763_2014-06-22_19-13-10_094959634447_rgbf000075-resize_4-target.png,125,1.68375,0,14617,124,feet,jsons/VE125_randls_57.json,1096294,1436692,35,Man
7,344496,DepthScenes,duration_manipulation_targetAtFixation,jsons/VE125_randls_57.json,http://54.235.29.9/FacialAge/BNav_EC2/DepthDuration/v2_depth_duration_MTurk/v2_DepthDuration_HTML.html#454,454,1364,625,1364,768,8-29-2022,12-3-11,8,depth_duration_stimuli/002209_2014-06-28_18-36-10_260595134347_rgbf000051-resize_1/002209_2014-06-28_18-36-10_260595134347_rgbf000051-resize_1-target.png,125,2.057,0,4043,125,feet,jsons/VE125_randls_57.json,1096294,1436692,35,Man
8,344496,DepthScenes,duration_manipulation_targetAtFixation,jsons/VE125_randls_57.json,http://54.235.29.9/FacialAge/BNav_EC2/DepthDuration/v2_depth_duration_MTurk/v2_DepthDuration_HTML.html#454,454,1364,625,1364,768,8-29-2022,12-3-11,9,depth_duration_stimuli/002988_2014-06-15_12-24-20_094959634447_rgbf000150-resize_1/002988_2014-06-15_12-24-20_094959634447_rgbf000150-resize_1-target.png,125,4.7669999999999995,12,5241,124,feet,jsons/VE125_randls_57.json,1096294,1436692,35,Man
9,344496,DepthScenes,duration_manipulation_targetAtFixation,jsons/VE125_randls_57.json,http://54.235.29.9/FacialAge/BNav_EC2/DepthDuration/v2_depth_duration_MTurk/v2_DepthDuration_HTML.html#454,454,1364,625,1364,768,8-29-2022,12-3-11,10,depth_duration_stimuli/001052_2014-06-08_18-24-54_260595134347_rgbf000130-resize_1/001052_2014-06-08_18-24-54_260595134347_rgbf000130-resize_1-target.png,125,4.1045,0,4588,125,feet,jsons/VE125_randls_57.json,1096294,1436692,35,Man
10,344496,DepthScenes,duration_manipulation_targetAtFixation,jsons/VE125_randls_57.json,http://54.235.29.9/FacialAge/BNav_EC2/DepthDuration/v2_depth_duration_MTurk/v2_DepthDuration_HTML.html#454,454,1364,625,1364,768,8-29-2022,12-3-11,11,depth_duration_stimuli/003292_2014-05-14_21-53-49_094959634447_rgbf000100-resize_2/003292_2014-05-14_21-53-49_094959634447_rgbf000100-resize_2-target.png,125,3.4815,7,5362,125,feet,jsons/VE125_randls_57.json,1096294,1436692,35,Man
11,344496,DepthScenes,duration_manipulation_targetAtFixation,jsons/VE125_randls_57.json,http://54.235.29.9/FacialAge/BNav_EC2/DepthDuration/v2_depth_duration_MTurk/v2_DepthDuration_HTML.html#454,454,1364,625,1364,768,8-29-2022,12-3-11,12,depth_duration_stimuli/002639_2014-06-24_14-51-37_094959634447_rgbf000074-resize_4/002639_2014-06-24_14-51-37_094959634447_rgbf000074-resize_4-target.png,125,4.0375,8,5489,124,feet,jsons/VE125_randls_57.json,1096294,1436692,35,Man
12,344496,DepthScenes,duration_manipulation_targetAtFixation,jsons/VE125_randls_57.json,http://54.235.29.9/FacialAge/BNav_EC2/DepthDuration/v2_depth_duration_MTurk/v2_DepthDuration_HTML.html#454,454,1364,625,1364,768,8-29-2022,12-3-11,13,depth_duration_stimuli/000569_2014-06-09_22-51-47_260595134347_rgbf000141-resize_3/000569_2014-06-09_22-51-47_260595134347_rgbf000141-resize-original.jpg,125,4.512,0,8388,126,feet,jsons/VE125_randls_57.json,1096294,1436692,35,Man
13,344496,DepthScenes,duration_manipulation_targetAtFixation,jsons/VE125_randls_57.json,http://54.235.29.9/FacialAge/BNav_EC2/DepthDuration/v2_depth_duration_MTurk/v2_DepthDuration_HTML.html#454,454,1364,625,1364,768,8-29-2022,12-3-11,14,depth_duration_stimuli/001570_2014-06-20_17-21-09_260595134347_rgbf000135-resize_4/001570_2014-06-20_17-21-09_260595134347_rgbf000135-resize_4-target.png,125,4.467,12,11771,124,feet,jsons/VE125_randls_57.json,1096294,1436692,35,Man
14,344496,DepthScenes,duration_manipulation_targetAtFixation,jsons/VE125_randls_57.json,http://54.235.29.9/FacialAge/BNav_EC2/DepthDuration/v2_depth_duration_MTurk/v2_DepthDuration_HTML.html#454,454,1364,625,1364,768,8-29-2022,12-3-11,15,depth_duration_stimuli/001392_2014-06-19_16-07-59_260595134347_rgbf000046-resize_1/001392_2014-06-19_16-07-59_260595134347_rgbf000046-resize_1-target.png,125,4.135,0,30105,126,feet,jsons/VE125_randls_57.json,1096294,1436692,35,Man
15,344496,DepthScenes,duration_manipulation_targetAtFixation,jsons/VE125_randls_57.json,http://54.235.29.9/FacialAge/BNav_EC2/DepthDuration/v2_depth_duration_MTurk/v2_DepthDuration_HTML.html#454,454,1364,625,1364,768,8-29-2022,12-3-11,16,depth_duration_stimuli/000506_2014-06-08_23-21-00_260595134347_rgbf000070-resize_7/000506_2014-06-08_23-21-00_260595134347_rgbf000070-resize_7-target.png,125,4.0585,8,6340,125,feet,jsons/VE125_randls_57.json,1096294,1436692,35,Man
16,344496,DepthScenes,duration_manipulation_targetAtFixation,jsons/VE125_randls_57.json,http://54.235.29.9/FacialAge/BNav_EC2/DepthDuration/v2_depth_duration_MTurk/v2_DepthDuration_HTML.html#454,454,1364,625,1364,768,8-29-2022,12-3-11,17,depth_duration_stimuli/003079_2014-06-15_15-18-20_094959634447_rgbf000152-resize_8/003079_2014-06-15_15-18-20_094959634447_rgbf000152-resize_8-target.png,125,2.8775,5,8890,125,feet,jsons/VE125_randls_57.json,1096294,1436692,35,Man
17,344496,DepthScenes,duration_manipulation_targetAtFixation,jsons/VE125_randls_57.json,http://54.235.29.9/FacialAge/BNav_EC2/DepthDuration/v2_depth_duration_MTurk/v2_DepthDuration_HTML.html#454,454,1364,625,1364,768,8-29-2022,12-3-11,18,depth_duration_stimuli/002784_2014-06-22_19-26-30_094959634447_rgbf000083-resize_3/002784_2014-06-22_19-26-30_094959634447_rgbf000083-resize_3-target.png,125,1.8046666666667,7,5581,124,feet,jsons/VE125_randls_57.json,1096294,1436692,35,Man
18,344496,DepthScenes,duration_manipulation_targetAtFixation,jsons/VE125_randls_57.json,http://54.235.29.9/FacialAge/BNav_EC2/DepthDuration/v2_depth_duration_MTurk/v2_DepthDuration_HTML.html#454,454,1364,625,1364,768,8-29-2022,12-3-11,19,depth_duration_stimuli/001100_2014-06-15_17-46-26_260595134347_rgbf000225-resize_2/001100_2014-06-15_17-46-26_260595134347_rgbf000225-resize_2-target.png,125,2.24,5,3970,126,feet,jsons/VE125_randls_57.json,1096294,1436692,35,Man
19,344496,DepthScenes,duration_manipulation_targetAtFixation,jsons/VE125_randls_57.json,http://54.235.29.9/FacialAge/BNav_EC2/DepthDuration/v2_depth_duration_MTurk/v2_DepthDuration_HTML.html#454,454,1364,625,1364,768,8-29-2022,12-3-11,20,depth_duration_stimuli/000906_2014-06-08_13-35-43_260595134347_rgbf000155-resize_1/000906_2014-06-08_13-35-43_260595134347_rgbf000155-resize_1-target.png,125,2.8489999999999998,8,4712,125,feet,jsons/VE125_randls_57.json,1096294,1436692,35,Man
20,344496,DepthScenes,duration_manipulation_targetAtFixation,jsons/VE125_randls_57.json,http://54.235.29.9/FacialAge/BNav_EC2/DepthDuration/v2_depth_duration_MTurk/v2_DepthDuration_HTML.html#454,454,1364,625,1364,768,8-29-2022,12-3-11,21,depth_duration_stimuli/002805_2014-06-22_19-54-03_094959634447_rgbf000079-resize_1/002805_2014-06-22_19-54-03_094959634447_rgbf000079-resize_1-target.png,125,3.1439999999999997,0,2942,124,feet,jsons/VE125_randls_57.json,1096294,1436692,35,Man
21,344496,DepthScenes,duration_manipulation_targetAtFixation,jsons/VE125_randls_57.json,http://54.235.29.9/FacialAge/BNav_EC2/DepthDuration/v2_depth_duration_MTurk/v2_DepthDuration_HTML.html#454,454,1364,625,1364,768,8-29-2022,12-3-11,22,depth_duration_stimuli/001806_2014-06-26_20-50-20_260595134347_rgbf000091-resize_1/001806_2014-06-26_20-50-20_260595134347_rgbf000091-resize_1-target.png,125,2.7305,6,4840,126,feet,jsons/VE125_randls_57.json,1096294,1436692,35,Man
22,344496,DepthScenes,duration_manipulation_targetAtFixation,jsons/VE125_randls_57.json,http://54.235.29.9/FacialAge/BNav_EC2/DepthDuration/v2_depth_duration_MTurk/v2_DepthDuration_HTML.html#454,454,1364,625,1364,768,8-29-2022,12-3-11,23,depth_duration_stimuli/001617_2014-06-20_11-35-32_260595134347_rgbf000066-resize_1/001617_2014-06-20_11-35-32_260595134347_rgbf000066-resize_1-target.png,125,3.7910000000000004,0,2930,124,feet,jsons/VE125_randls_57.json,1096294,1436692,35,Man
23,344496,DepthScenes,duration_manipulation_targetAtFixation,jsons/VE125_randls_57.json,http://54.235.29.9/FacialAge/BNav_EC2/DepthDuration/v2_depth_duration_MTurk/v2_DepthDuration_HTML.html#454,454,1364,625,1364,768,8-29-2022,12-3-11,24,depth_duration_stimuli/000009_2014-05-26_14-32-05_260595134347_rgbf000034-resize_3/000009_2014-05-26_14-32-05_260595134347_rgbf000034-resize_3-target.png,125,3.8715,14,4308,124,feet,jsons/VE125_randls_57.json,1096294,1436692,35,Man
24,344496,DepthScenes,duration_manipulation_targetAtFixation,jsons/VE125_randls_57.json,http://54.235.29.9/FacialAge/BNav_EC2/DepthDuration/v2_depth_duration_MTurk/v2_DepthDuration_HTML.html#454,454,1364,625,1364,768,8-29-2022,12-3-11,25,depth_duration_stimuli/001828_2014-06-26_21-40-03_260595134347_rgbf000024-resize_0/001828_2014-06-26_21-40-03_260595134347_rgbf000024-resize_0-target.png,125,4.8260000000000005,10,3424,126,feet,jsons/VE125_randls_57.json,1096294,1436692,35,Man
25,344496,DepthScenes,duration_manipulation_targetAtFixation,jsons/VE125_randls_57.json,http://54.235.29.9/FacialAge/BNav_EC2/DepthDuration/v2_depth_duration_MTurk/v2_DepthDuration_HTML.html#454,454,1364,625,1364,768,8-29-2022,12-3-11,26,depth_duration_stimuli/002272_2014-06-28_18-53-56_260595134347_rgbf000067-resize_2/002272_2014-06-28_18-53-56_260595134347_rgbf000067-resize_2-target.png,125,1.138,4,4334,125,feet,jsons/VE125_randls_57.json,1096294,1436692,35,Man
26,344496,DepthScenes,duration_manipulation_targetAtFixation,jsons/VE125_randls_57.json,http://54.235.29.9/FacialAge/BNav_EC2/DepthDuration/v2_depth_duration_MTurk/v2_DepthDuration_HTML.html#454,454,1364,625,1364,768,8-29-2022,12-3-11,27,depth_duration_stimuli/001571_2014-06-20_17-21-32_260595134347_rgbf000089-resize_1/001571_2014-06-20_17-21-32_260595134347_rgbf000089-resize_1-target.png,125,1.86,6,3419,124,feet,jsons/VE125_randls_57.json,1096294,1436692,35,Man
27,344496,DepthScenes,duration_manipulation_targetAtFixation,jsons/VE125_randls_57.json,http://54.235.29.9/FacialAge/BNav_EC2/DepthDuration/v2_depth_duration_MTurk/v2_DepthDuration_HTML.html#454,454,1364,625,1364,768,8-29-2022,12-3-11,28,depth_duration_stimuli/000773_2014-06-08_22-24-54_260595134347_rgbf000093-resize_1/000773_2014-06-08_22-24-54_260595134347_rgbf000093-resize_1-target.png,125,4.973,12,50530,123,feet,jsons/VE125_randls_57.json,1096294,1436692,35,Man
28,344496,DepthScenes,duration_manipulation_targetAtFixation,jsons/VE125_randls_57.json,http://54.235.29.9/FacialAge/BNav_EC2/DepthDuration/v2_depth_duration_MTurk/v2_DepthDuration_HTML.html#454,454,1364,625,1364,768,8-29-2022,12-3-11,29,depth_duration_stimuli/002414_2014-06-28_20-24-58_260595134347_rgbf000067-resize_4/002414_2014-06-28_20-24-58_260595134347_rgbf000067-resize_4-target.png,125,4.363,9,4977,126,feet,jsons/VE125_randls_57.json,1096294,1436692,35,Man
29,344496,DepthScenes,duration_manipulation_targetAtFixation,jsons/VE125_randls_57.json,http://54.235.29.9/FacialAge/BNav_EC2/DepthDuration/v2_depth_duration_MTurk/v2_DepthDuration_HTML.html#454,454,1364,625,1364,768,8-29-2022,12-3-11,30,depth_duration_stimuli/000375_2014-06-08_11-17-29_260595134347_rgbf000133-resize_2/000375_2014-06-08_11-17-29_260595134347_rgbf000133-resize-original.jpg,125,4.718,0,6019,124,feet,jsons/VE125_randls_57.json,1096294,1436692,35,Man
30,344496,DepthScenes,duration_manipulation_targetAtFixation,jsons/VE125_randls_57.json,http://54.235.29.9/FacialAge/BNav_EC2/DepthDuration/v2_depth_duration_MTurk/v2_DepthDuration_HTML.html#454,454,1364,625,1364,768,8-29-2022,12-3-11,31,depth_duration_stimuli/001158_2014-06-17_15-32-16_260595134347_rgbf000138-resize_2/001158_2014-06-17_15-32-16_260595134347_rgbf000138-resize_2-target.png,125,4.5315,12,6049,124,feet,jsons/VE125_randls_57.json,1096294,1436692,35,Man
31,344496,DepthScenes,duration_manipulation_targetAtFixation,jsons/VE125_randls_57.json,http://54.235.29.9/FacialAge/BNav_EC2/DepthDuration/v2_depth_duration_MTurk/v2_DepthDuration_HTML.html#454,454,1364,625,1364,768,8-29-2022,12-3-11,32,depth_duration_stimuli/000556_2014-06-09_22-42-56_260595134347_rgbf000214-resize_1/000556_2014-06-09_22-42-56_260595134347_rgbf000214-resize_1-target.png,125,4.8415,10,5597,125,feet,jsons/VE125_randls_57.json,1096294,1436692,35,Man
32,344496,DepthScenes,duration_manipulation_targetAtFixation,jsons/VE125_randls_57.json,http://54.235.29.9/FacialAge/BNav_EC2/DepthDuration/v2_depth_duration_MTurk/v2_DepthDuration_HTML.html#454,454,1364,625,1364,768,8-29-2022,12-3-11,33,depth_duration_stimuli/002375_2014-06-28_20-13-44_260595134347_rgbf000032-resize_1/002375_2014-06-28_20-13-44_260595134347_rgbf000032-resize_1-target.png,125,4.0175,8,6922,124,feet,jsons/VE125_randls_57.json,1096294,1436692,35,Man
33,344496,DepthScenes,duration_manipulation_targetAtFixation,jsons/VE125_randls_57.json,http://54.235.29.9/FacialAge/BNav_EC2/DepthDuration/v2_depth_duration_MTurk/v2_DepthDuration_HTML.html#454,454,1364,625,1364,768,8-29-2022,12-3-11,34,depth_duration_stimuli/002657_2014-06-13_15-29-54_094959634447_rgbf000150-resize_1/002657_2014-06-13_15-29-54_094959634447_rgbf000150-resize_1-target.png,125,4.919,8,4834,125,feet,jsons/VE125_randls_57.json,1096294,1436692,35,Man
34,344496,DepthScenes,duration_manipulation_targetAtFixation,jsons/VE125_randls_57.json,http://54.235.29.9/FacialAge/BNav_EC2/DepthDuration/v2_depth_duration_MTurk/v2_DepthDuration_HTML.html#454,454,1364,625,1364,768,8-29-2022,12-3-11,35,depth_duration_stimuli/000470_2014-06-09_19-42-40_260595134347_rgbf000094-resize_1/000470_2014-06-09_19-42-40_260595134347_rgbf000094-resize_1-target.png,125,1.831,6,5639,124,feet,jsons/VE125_randls_57.json,1096294,1436692,35,Man
35,344496,DepthScenes,duration_manipulation_targetAtFixation,jsons/VE125_randls_57.json,http://54.235.29.9/FacialAge/BNav_EC2/DepthDuration/v2_depth_duration_MTurk/v2_DepthDuration_HTML.html#454,454,1364,625,1364,768,8-29-2022,12-3-11,36,depth_duration_stimuli/000109_2014-05-14_23-41-52_260595134347_rgbf000035-resize_9/000109_2014-05-14_23-41-52_260595134347_rgbf000035-resize_9-target.png,125,1.3545,5,5935,125,feet,jsons/VE125_randls_57.json,1096294,1436692,35,Man
36,344496,DepthScenes,duration_manipulation_targetAtFixation,jsons/VE125_randls_57.json,http://54.235.29.9/FacialAge/BNav_EC2/DepthDuration/v2_depth_duration_MTurk/v2_DepthDuration_HTML.html#454,454,1364,625,1364,768,8-29-2022,12-3-11,37,depth_duration_stimuli/002663_2014-06-13_15-50-26_094959634447_rgbf000075-resize_1/002663_2014-06-13_15-50-26_094959634447_rgbf000075-resize_1-target.png,125,4.7495,9,6023,125,feet,jsons/VE125_randls_57.json,1096294,1436692,35,Man
37,344496,DepthScenes,duration_manipulation_targetAtFixation,jsons/VE125_randls_57.json,http://54.235.29.9/FacialAge/BNav_EC2/DepthDuration/v2_depth_duration_MTurk/v2_DepthDuration_HTML.html#454,454,1364,625,1364,768,8-29-2022,12-3-11,38,depth_duration_stimuli/000409_2014-06-04_19-23-33_260595134347_rgbf000067-resize_0/000409_2014-06-04_19-23-33_260595134347_rgbf000067-resize_0-target.png,125,3.7335,10,3829,124,feet,jsons/VE125_randls_57.json,1096294,1436692,35,Man
38,344496,DepthScenes,duration_manipulation_targetAtFixation,jsons/VE125_randls_57.json,http://54.235.29.9/FacialAge/BNav_EC2/DepthDuration/v2_depth_duration_MTurk/v2_DepthDuration_HTML.html#454,454,1364,625,1364,768,8-29-2022,12-3-11,39,depth_duration_stimuli/002630_2014-06-24_14-47-50_094959634447_rgbf000055-resize_1/002630_2014-06-24_14-47-50_094959634447_rgbf000055-resize_1-target.png,125,3.0095,12,7132,124,feet,jsons/VE125_randls_57.json,1096294,1436692,35,Man
39,344496,DepthScenes,duration_manipulation_targetAtFixation,jsons/VE125_randls_57.json,http://54.235.29.9/FacialAge/BNav_EC2/DepthDuration/v2_depth_duration_MTurk/v2_DepthDuration_HTML.html#454,454,1364,625,1364,768,8-29-2022,12-3-11,40,depth_duration_stimuli/002758_2014-06-22_19-11-20_094959634447_rgbf000128-resize_1/002758_2014-06-22_19-11-20_094959634447_rgbf000128-resize_1-target.png,125,2.555,8,5284,124,feet,jsons/VE125_randls_57.json,1096294,1436692,35,Man
40,344496,DepthScenes,duration_manipulation_targetAtFixation,jsons/VE125_randls_57.json,http://54.235.29.9/FacialAge/BNav_EC2/DepthDuration/v2_depth_duration_MTurk/v2_DepthDuration_HTML.html#454,454,1364,625,1364,768,8-29-2022,12-3-11,41,depth_duration_stimuli/000436_2014-06-09_22-25-11_260595134347_rgbf000137-resize_1/000436_2014-06-09_22-25-11_260595134347_rgbf000137-resize_1-target.png,125,4.0705,10,14343,124,feet,jsons/VE125_randls_57.json,1096294,1436692,35,Man
41,344496,DepthScenes,duration_manipulation_targetAtFixation,jsons/VE125_randls_57.json,http://54.235.29.9/FacialAge/BNav_EC2/DepthDuration/v2_depth_duration_MTurk/v2_DepthDuration_HTML.html#454,454,1364,625,1364,768,8-29-2022,12-3-11,42,depth_duration_stimuli/002444_2014-06-28_20-32-08_260595134347_rgbf000027-resize_0/002444_2014-06-28_20-32-08_260595134347_rgbf000027-resize_0-target.png,125,4.388999999999999,0,4300,124,feet,jsons/VE125_randls_57.json,1096294,1436692,35,Man
42,344496,DepthScenes,duration_manipulation_targetAtFixation,jsons/VE125_randls_57.json,http://54.235.29.9/FacialAge/BNav_EC2/DepthDuration/v2_depth_duration_MTurk/v2_DepthDuration_HTML.html#454,454,1364,625,1364,768,8-29-2022,12-3-11,43,depth_duration_stimuli/002039_2014-06-24_20-22-38_260595134347_rgbf000084-resize_1/002039_2014-06-24_20-22-38_260595134347_rgbf000084-resize_1-target.png,125,4.408,10,11060,126,feet,jsons/VE125_randls_57.json,1096294,1436692,35,Man
43,344496,DepthScenes,duration_manipulation_targetAtFixation,jsons/VE125_randls_57.json,http://54.235.29.9/FacialAge/BNav_EC2/DepthDuration/v2_depth_duration_MTurk/v2_DepthDuration_HTML.html#454,454,1364,625,1364,768,8-29-2022,12-3-11,44,depth_duration_stimuli/002103_2014-06-25_20-00-40_260595134347_rgbf000049-resize_0/002103_2014-06-25_20-00-40_260595134347_rgbf000049-resize_0-target.png,125,4.105,10,4954,125,feet,jsons/VE125_randls_57.json,1096294,1436692,35,Man
44,344496,DepthScenes,duration_manipulation_targetAtFixation,jsons/VE125_randls_57.json,http://54.235.29.9/FacialAge/BNav_EC2/DepthDuration/v2_depth_duration_MTurk/v2_DepthDuration_HTML.html#454,454,1364,625,1364,768,8-29-2022,12-3-11,45,depth_duration_stimuli/000787_2014-06-08_22-33-53_260595134347_rgbf000175-resize_1/000787_2014-06-08_22-33-53_260595134347_rgbf000175-resize-original.jpg,125,4.784,0,6329,124,feet,jsons/VE125_randls_57.json,1096294,1436692,35,Man
45,344496,DepthScenes,duration_manipulation_targetAtFixation,jsons/VE125_randls_57.json,http://54.235.29.9/FacialAge/BNav_EC2/DepthDuration/v2_depth_duration_MTurk/v2_DepthDuration_HTML.html#454,454,1364,625,1364,768,8-29-2022,12-3-11,46,depth_duration_stimuli/000739_2014-06-08_18-45-58_260595134347_rgbf000068-resize_1/000739_2014-06-08_18-45-58_260595134347_rgbf000068-resize_1-target.png,125,3.534,10,6293,126,feet,jsons/VE125_randls_57.json,1096294,1436692,35,Man
46,344496,DepthScenes,duration_manipulation_targetAtFixation,jsons/VE125_randls_57.json,http://54.235.29.9/FacialAge/BNav_EC2/DepthDuration/v2_depth_duration_MTurk/v2_DepthDuration_HTML.html#454,454,1364,625,1364,768,8-29-2022,12-3-11,47,depth_duration_stimuli/000734_2014-06-08_17-39-11_260595134347_rgbf000128-resize_2/000734_2014-06-08_17-39-11_260595134347_rgbf000128-resize_2-target.png,125,4.098,10,4075,126,feet,jsons/VE125_randls_57.json,1096294,1436692,35,Man
47,344496,DepthScenes,duration_manipulation_targetAtFixation,jsons/VE125_randls_57.json,http://54.235.29.9/FacialAge/BNav_EC2/DepthDuration/v2_depth_duration_MTurk/v2_DepthDuration_HTML.html#454,454,1364,625,1364,768,8-29-2022,12-3-11,48,depth_duration_stimuli/000878_2014-06-08_22-52-45_260595134347_rgbf000045-resize_2/000878_2014-06-08_22-52-45_260595134347_rgbf000045-resize_2-target.png,125,2.092,10,6423,126,feet,jsons/VE125_randls_57.json,1096294,1436692,35,Man
48,344496,DepthScenes,duration_manipulation_targetAtFixation,jsons/VE125_randls_57.json,http://54.235.29.9/FacialAge/BNav_EC2/DepthDuration/v2_depth_duration_MTurk/v2_DepthDuration_HTML.html#454,454,1364,625,1364,768,8-29-2022,12-3-11,49,depth_duration_stimuli/002953_2014-06-08_17-32-18_094959634447_rgbf000059-resize_5/002953_2014-06-08_17-32-18_094959634447_rgbf000059-resize_5-target.png,125,1.551,9,5076,133,feet,jsons/VE125_randls_57.json,1096294,1436692,35,Man
49,344496,DepthScenes,duration_manipulation_targetAtFixation,jsons/VE125_randls_57.json,http://54.235.29.9/FacialAge/BNav_EC2/DepthDuration/v2_depth_duration_MTurk/v2_DepthDuration_HTML.html#454,454,1364,625,1364,768,8-29-2022,12-3-11,50,depth_duration_stimuli/001055_2014-06-08_18-45-35_260595134347_rgbf000111-resize_4/001055_2014-06-08_18-45-35_260595134347_rgbf000111-resize_4-target.png,125,2.4290000000000003,12,8615,125,feet,jsons/VE125_randls_57.json,1096294,1436692,35,Man
50,344496,DepthScenes,duration_manipulation_targetAtFixation,jsons/VE125_randls_57.json,http://54.235.29.9/FacialAge/BNav_EC2/DepthDuration/v2_depth_duration_MTurk/v2_DepthDuration_HTML.html#454,454,1364,625,1364,768,8-29-2022,12-3-11,51,depth_duration_stimuli/000549_2014-06-08_22-10-24_260595134347_rgbf000247-resize_3/000549_2014-06-08_22-10-24_260595134347_rgbf000247-resize_3-target.png,125,1.841,0,4575,124,feet,jsons/VE125_randls_57.json,1096294,1436692,35,Man
51,344496,DepthScenes,duration_manipulation_targetAtFixation,jsons/VE125_randls_57.json,http://54.235.29.9/FacialAge/BNav_EC2/DepthDuration/v2_depth_duration_MTurk/v2_DepthDuration_HTML.html#454,454,1364,625,1364,768,8-29-2022,12-3-11,52,depth_duration_stimuli/002279_2014-06-28_18-55-32_260595134347_rgbf000040-resize_5/002279_2014-06-28_18-55-32_260595134347_rgbf000040-resize_5-target.png,125,1.5043333333333,5,6103,124,feet,jsons/VE125_randls_57.json,1096294,1436692,35,Man
52,344496,DepthScenes,duration_manipulation_targetAtFixation,jsons/VE125_randls_57.json,http://54.235.29.9/FacialAge/BNav_EC2/DepthDuration/v2_depth_duration_MTurk/v2_DepthDuration_HTML.html#454,454,1364,625,1364,768,8-29-2022,12-3-11,53,depth_duration_stimuli/000635_2014-06-08_16-38-42_260595134347_rgbf000106-resize_1/000635_2014-06-08_16-38-42_260595134347_rgbf000106-resize_1-target.png,125,2.074,8,4681,126,feet,jsons/VE125_randls_57.json,1096294,1436692,35,Man
53,344496,DepthScenes,duration_manipulation_targetAtFixation,jsons/VE125_randls_57.json,http://54.235.29.9/FacialAge/BNav_EC2/DepthDuration/v2_depth_duration_MTurk/v2_DepthDuration_HTML.html#454,454,1364,625,1364,768,8-29-2022,12-3-11,54,depth_duration_stimuli/000368_2014-06-09_15-53-01_260595134347_rgbf000155-resize_2/000368_2014-06-09_15-53-01_260595134347_rgbf000155-resize_2-target.png,125,2.4859999999999998,8,5634,124,feet,jsons/VE125_randls_57.json,1096294,1436692,35,Man
54,344496,DepthScenes,duration_manipulation_targetAtFixation,jsons/VE125_randls_57.json,http://54.235.29.9/FacialAge/BNav_EC2/DepthDuration/v2_depth_duration_MTurk/v2_DepthDuration_HTML.html#454,454,1364,625,1364,768,8-29-2022,12-3-11,55,depth_duration_stimuli/002678_2014-06-13_16-15-32_094959634447_rgbf000151-resize_6/002678_2014-06-13_16-15-32_094959634447_rgbf000151-resize_6-target.png,125,2.1830000000000003,9,10253,125,feet,jsons/VE125_randls_57.json,1096294,1436692,35,Man
55,344496,DepthScenes,duration_manipulation_targetAtFixation,jsons/VE125_randls_57.json,http://54.235.29.9/FacialAge/BNav_EC2/DepthDuration/v2_depth_duration_MTurk/v2_DepthDuration_HTML.html#454,454,1364,625,1364,768,8-29-2022,12-3-11,56,depth_duration_stimuli/001555_2014-06-20_17-12-10_260595134347_rgbf000065-resize_4/001555_2014-06-20_17-12-10_260595134347_rgbf000065-resize_4-target.png,125,1.633,0,6333,126,feet,jsons/VE125_randls_57.json,1096294,1436692,35,Man
56,344496,DepthScenes,duration_manipulation_targetAtFixation,jsons/VE125_randls_57.json,http://54.235.29.9/FacialAge/BNav_EC2/DepthDuration/v2_depth_duration_MTurk/v2_DepthDuration_HTML.html#454,454,1364,625,1364,768,8-29-2022,12-3-11,57,depth_duration_stimuli/000103_2014-05-14_22-01-17_260595134347_rgbf000152-resize_5/000103_2014-05-14_22-01-17_260595134347_rgbf000152-resize_5-target.png,125,1.993,12,4481,124,feet,jsons/VE125_randls_57.json,1096294,1436692,35,Man
57,344496,DepthScenes,duration_manipulation_targetAtFixation,jsons/VE125_randls_57.json,http://54.235.29.9/FacialAge/BNav_EC2/DepthDuration/v2_depth_duration_MTurk/v2_DepthDuration_HTML.html#454,454,1364,625,1364,768,8-29-2022,12-3-11,58,depth_duration_stimuli/002748_2014-06-22_19-07-22_094959634447_rgbf000078-resize_1/002748_2014-06-22_19-07-22_094959634447_rgbf000078-resize_1-target.png,125,4.6705,14,7881,124,feet,jsons/VE125_randls_57.json,1096294,1436692,35,Man
58,344496,DepthScenes,duration_manipulation_targetAtFixation,jsons/VE125_randls_57.json,http://54.235.29.9/FacialAge/BNav_EC2/DepthDuration/v2_depth_duration_MTurk/v2_DepthDuration_HTML.html#454,454,1364,625,1364,768,8-29-2022,12-3-11,59,depth_duration_stimuli/002995_2014-06-15_12-31-26_094959634447_rgbf000150-resize_1/002995_2014-06-15_12-31-26_094959634447_rgbf000150-resize_1-target.png,125,3.8360000000000003,0,60150,125,feet,jsons/VE125_randls_57.json,1096294,1436692,35,Man
59,344496,DepthScenes,duration_manipulation_targetAtFixation,jsons/VE125_randls_57.json,http://54.235.29.9/FacialAge/BNav_EC2/DepthDuration/v2_depth_duration_MTurk/v2_DepthDuration_HTML.html#454,454,1364,625,1364,768,8-29-2022,12-3-11,60,depth_duration_stimuli/000414_2014-06-04_19-49-13_260595134347_rgbf000044-resize_0/000414_2014-06-04_19-49-13_260595134347_rgbf000044-resize_0-target.png,125,4.329,9,4433,126,feet,jsons/VE125_randls_57.json,1096294,1436692,35,Man
60,344496,DepthScenes,duration_manipulation_targetAtFixation,jsons/VE125_randls_57.json,http://54.235.29.9/FacialAge/BNav_EC2/DepthDuration/v2_depth_duration_MTurk/v2_DepthDuration_HTML.html#454,454,1364,625,1364,768,8-29-2022,12-3-11,61,depth_duration_stimuli/003129_2014-05-12_10-48-10_094959634447_rgbf000100-resize_0/003129_2014-05-12_10-48-10_094959634447_rgbf000100-resize_0-target.png,125,4.9305,0,3131,125,feet,jsons/VE125_randls_57.json,1096294,1436692,35,Man
61,344496,DepthScenes,duration_manipulation_targetAtFixation,jsons/VE125_randls_57.json,http://54.235.29.9/FacialAge/BNav_EC2/DepthDuration/v2_depth_duration_MTurk/v2_DepthDuration_HTML.html#454,454,1364,625,1364,768,8-29-2022,12-3-11,62,depth_duration_stimuli/003492_2014-05-21_15-50-55_094959634447_rgbf000828-resize_1/003492_2014-05-21_15-50-55_094959634447_rgbf000828-resize_1-target.png,125,4.06875,12,3724,124,feet,jsons/VE125_randls_57.json,1096294,1436692,35,Man
62,344496,DepthScenes,duration_manipulation_targetAtFixation,jsons/VE125_randls_57.json,http://54.235.29.9/FacialAge/BNav_EC2/DepthDuration/v2_depth_duration_MTurk/v2_DepthDuration_HTML.html#454,454,1364,625,1364,768,8-29-2022,12-3-11,63,depth_duration_stimuli/002568_2014-06-24_13-59-21_094959634447_rgbf000062-resize_4/002568_2014-06-24_13-59-21_094959634447_rgbf000062-resize_4-target.png,125,3.015,8,3364,126,feet,jsons/VE125_randls_57.json,1096294,1436692,35,Man
63,344496,DepthScenes,duration_manipulation_targetAtFixation,jsons/VE125_randls_57.json,http://54.235.29.9/FacialAge/BNav_EC2/DepthDuration/v2_depth_duration_MTurk/v2_DepthDuration_HTML.html#454,454,1364,625,1364,768,8-29-2022,12-3-11,64,depth_duration_stimuli/000486_2014-06-09_20-47-20_260595134347_rgbf000143-resize_2/000486_2014-06-09_20-47-20_260595134347_rgbf000143-resize_2-target.png,125,4.8325,13,4730,125,feet,jsons/VE125_randls_57.json,1096294,1436692,35,Man
64,344496,DepthScenes,duration_manipulation_targetAtFixation,jsons/VE125_randls_57.json,http://54.235.29.9/FacialAge/BNav_EC2/DepthDuration/v2_depth_duration_MTurk/v2_DepthDuration_HTML.html#454,454,1364,625,1364,768,8-29-2022,12-3-11,65,depth_duration_stimuli/003083_2014-06-15_15-21-03_094959634447_rgbf000063-resize_1/003083_2014-06-15_15-21-03_094959634447_rgbf000063-resize_1-target.png,125,4.1405,0,2986,124,feet,jsons/VE125_randls_57.json,1096294,1436692,35,Man
65,344496,DepthScenes,duration_manipulation_targetAtFixation,jsons/VE125_randls_57.json,http://54.235.29.9/FacialAge/BNav_EC2/DepthDuration/v2_depth_duration_MTurk/v2_DepthDuration_HTML.html#454,454,1364,625,1364,768,8-29-2022,12-3-11,66,depth_duration_stimuli/001222_2014-06-17_16-24-06_260595134347_rgbf000073-resize_0/001222_2014-06-17_16-24-06_260595134347_rgbf000073-resize-original.jpg,125,1.4385,0,3597,126,feet,jsons/VE125_randls_57.json,1096294,1436692,35,Man
66,344496,DepthScenes,duration_manipulation_targetAtFixation,jsons/VE125_randls_57.json,http://54.235.29.9/FacialAge/BNav_EC2/DepthDuration/v2_depth_duration_MTurk/v2_DepthDuration_HTML.html#454,454,1364,625,1364,768,8-29-2022,12-3-11,67,depth_duration_stimuli/001199_2014-06-17_16-03-48_260595134347_rgbf000077-resize_0/001199_2014-06-17_16-03-48_260595134347_rgbf000077-resize_0-target.png,125,3.4375,12,3970,125,feet,jsons/VE125_randls_57.json,1096294,1436692,35,Man
67,344496,DepthScenes,duration_manipulation_targetAtFixation,jsons/VE125_randls_57.json,http://54.235.29.9/FacialAge/BNav_EC2/DepthDuration/v2_depth_duration_MTurk/v2_DepthDuration_HTML.html#454,454,1364,625,1364,768,8-29-2022,12-3-11,68,depth_duration_stimuli/000502_2014-06-08_23-02-32_260595134347_rgbf000063-resize_4/000502_2014-06-08_23-02-32_260595134347_rgbf000063-resize_4-target.png,125,2.431,0,3562,126,feet,jsons/VE125_randls_57.json,1096294,1436692,35,Man
68,344496,DepthScenes,duration_manipulation_targetAtFixation,jsons/VE125_randls_57.json,http://54.235.29.9/FacialAge/BNav_EC2/DepthDuration/v2_depth_duration_MTurk/v2_DepthDuration_HTML.html#454,454,1364,625,1364,768,8-29-2022,12-3-11,69,depth_duration_stimuli/000810_2014-06-08_17-20-01_260595134347_rgbf000105-resize_0/000810_2014-06-08_17-20-01_260595134347_rgbf000105-resize_0-target.png,125,1.4865,8,4258,125,feet,jsons/VE125_randls_57.json,1096294,1436692,35,Man
69,344496,DepthScenes,duration_manipulation_targetAtFixation,jsons/VE125_randls_57.json,http://54.235.29.9/FacialAge/BNav_EC2/DepthDuration/v2_depth_duration_MTurk/v2_DepthDuration_HTML.html#454,454,1364,625,1364,768,8-29-2022,12-3-11,70,depth_duration_stimuli/001214_2014-06-17_16-13-55_260595134347_rgbf000111-resize_0/001214_2014-06-17_16-13-55_260595134347_rgbf000111-resize_0-target.png,125,2.6505,0,4588,125,feet,jsons/VE125_randls_57.json,1096294,1436692,35,Man
70,344496,DepthScenes,duration_manipulation_targetAtFixation,jsons/VE125_randls_57.json,http://54.235.29.9/FacialAge/BNav_EC2/DepthDuration/v2_depth_duration_MTurk/v2_DepthDuration_HTML.html#454,454,1364,625,1364,768,8-29-2022,12-3-11,71,depth_duration_stimuli/002509_2014-06-24_13-19-22_094959634447_rgbf000077-resize_0/002509_2014-06-24_13-19-22_094959634447_rgbf000077-resize_0-target.png,125,1.3065,4,4243,126,feet,jsons/VE125_randls_57.json,1096294,1436692,35,Man
71,344496,DepthScenes,duration_manipulation_targetAtFixation,jsons/VE125_randls_57.json,http://54.235.29.9/FacialAge/BNav_EC2/DepthDuration/v2_depth_duration_MTurk/v2_DepthDuration_HTML.html#454,454,1364,625,1364,768,8-29-2022,12-3-11,72,depth_duration_stimuli/003338_2014-05-20_11-01-23_094959634447_rgbf000051-resize_6/003338_2014-05-20_11-01-23_094959634447_rgbf000051-resize_6-target.png,125,1.693,6,6062,124,feet,jsons/VE125_randls_57.json,1096294,1436692,35,Man
72,344496,DepthScenes,duration_manipulation_targetAtFixation,jsons/VE125_randls_57.json,http://54.235.29.9/FacialAge/BNav_EC2/DepthDuration/v2_depth_duration_MTurk/v2_DepthDuration_HTML.html#454,454,1364,625,1364,768,8-29-2022,12-3-11,73,depth_duration_stimuli/000682_2014-06-08_23-14-58_260595134347_rgbf000041-resize_5/000682_2014-06-08_23-14-58_260595134347_rgbf000041-resize_5-target.png,125,2.7239999999999998,6,4808,125,feet,jsons/VE125_randls_57.json,1096294,1436692,35,Man
73,344496,DepthScenes,duration_manipulation_targetAtFixation,jsons/VE125_randls_57.json,http://54.235.29.9/FacialAge/BNav_EC2/DepthDuration/v2_depth_duration_MTurk/v2_DepthDuration_HTML.html#454,454,1364,625,1364,768,8-29-2022,12-3-11,74,depth_duration_stimuli/001650_2014-06-20_12-09-00_260595134347_rgbf000087-resize_3/001650_2014-06-20_12-09-00_260595134347_rgbf000087-resize_3-target.png,125,1.9505,0,3241,124,feet,jsons/VE125_randls_57.json,1096294,1436692,35,Man
74,344496,DepthScenes,duration_manipulation_targetAtFixation,jsons/VE125_randls_57.json,http://54.235.29.9/FacialAge/BNav_EC2/DepthDuration/v2_depth_duration_MTurk/v2_DepthDuration_HTML.html#454,454,1364,625,1364,768,8-29-2022,12-3-11,75,depth_duration_stimuli/001059_2014-06-08_21-53-27_260595134347_rgbf000061-resize_4/001059_2014-06-08_21-53-27_260595134347_rgbf000061-resize_4-target.png,125,2.4185,8,3798,124,feet,jsons/VE125_randls_57.json,1096294,1436692,35,Man
75,344496,DepthScenes,duration_manipulation_targetAtFixation,jsons/VE125_randls_57.json,http://54.235.29.9/FacialAge/BNav_EC2/DepthDuration/v2_depth_duration_MTurk/v2_DepthDuration_HTML.html#454,454,1364,625,1364,768,8-29-2022,12-3-11,76,depth_duration_stimuli/001032_2014-06-08_13-23-17_260595134347_rgbf000021-resize_3/001032_2014-06-08_13-23-17_260595134347_rgbf000021-resize_3-target.png,125,3.2725,0,3401,124,feet,jsons/VE125_randls_57.json,1096294,1436692,35,Man
76,344496,DepthScenes,duration_manipulation_targetAtFixation,jsons/VE125_randls_57.json,http://54.235.29.9/FacialAge/BNav_EC2/DepthDuration/v2_depth_duration_MTurk/v2_DepthDuration_HTML.html#454,454,1364,625,1364,768,8-29-2022,12-3-11,77,depth_duration_stimuli/000522_2014-06-08_13-35-06_260595134347_rgbf000244-resize_1/000522_2014-06-08_13-35-06_260595134347_rgbf000244-resize_1-target.png,125,2.3715,3,3634,125,feet,jsons/VE125_randls_57.json,1096294,1436692,35,Man
77,344496,DepthScenes,duration_manipulation_targetAtFixation,jsons/VE125_randls_57.json,http://54.235.29.9/FacialAge/BNav_EC2/DepthDuration/v2_depth_duration_MTurk/v2_DepthDuration_HTML.html#454,454,1364,625,1364,768,8-29-2022,12-3-11,78,depth_duration_stimuli/002949_2014-06-26_15-57-42_094959634447_rgbf000079-resize_1/002949_2014-06-26_15-57-42_094959634447_rgbf000079-resize_1-target.png,125,1.8915,0,4707,125,feet,jsons/VE125_randls_57.json,1096294,1436692,35,Man
78,344496,DepthScenes,duration_manipulation_targetAtFixation,jsons/VE125_randls_57.json,http://54.235.29.9/FacialAge/BNav_EC2/DepthDuration/v2_depth_duration_MTurk/v2_DepthDuration_HTML.html#454,454,1364,625,1364,768,8-29-2022,12-3-11,79,depth_duration_stimuli/001110_2014-06-15_17-25-28_260595134347_rgbf000150-resize_1/001110_2014-06-15_17-25-28_260595134347_rgbf000150-resize_1-target.png,125,1.7115,6,4716,124,feet,jsons/VE125_randls_57.json,1096294,1436692,35,Man
79,344496,DepthScenes,duration_manipulation_targetAtFixation,jsons/VE125_randls_57.json,http://54.235.29.9/FacialAge/BNav_EC2/DepthDuration/v2_depth_duration_MTurk/v2_DepthDuration_HTML.html#454,454,1364,625,1364,768,8-29-2022,12-3-11,80,depth_duration_stimuli/000927_2014-06-09_16-32-30_260595134347_rgbf000123-resize_3/000927_2014-06-09_16-32-30_260595134347_rgbf000123-resize_3-target.png,125,2.6785,0,2744,125,feet,jsons/VE125_randls_57.json,1096294,1436692,35,Man
80,344496,DepthScenes,duration_manipulation_targetAtFixation,jsons/VE125_randls_57.json,http://54.235.29.9/FacialAge/BNav_EC2/DepthDuration/v2_depth_duration_MTurk/v2_DepthDuration_HTML.html#454,454,1364,625,1364,768,8-29-2022,12-3-11,81,depth_duration_stimuli/001810_2014-06-26_20-51-35_260595134347_rgbf000040-resize_3/001810_2014-06-26_20-51-35_260595134347_rgbf000040-resize_3-target.png,125,2.2525,6,5214,124,feet,jsons/VE125_randls_57.json,1096294,1436692,35,Man
81,344496,DepthScenes,duration_manipulation_targetAtFixation,jsons/VE125_randls_57.json,http://54.235.29.9/FacialAge/BNav_EC2/DepthDuration/v2_depth_duration_MTurk/v2_DepthDuration_HTML.html#454,454,1364,625,1364,768,8-29-2022,12-3-11,82,depth_duration_stimuli/003010_2014-06-15_12-54-35_094959634447_rgbf000112-resize_0/003010_2014-06-15_12-54-35_094959634447_rgbf000112-resize_0-target.png,125,3.1185,0,3586,125,feet,jsons/VE125_randls_57.json,1096294,1436692,35,Man
82,344496,DepthScenes,duration_manipulation_targetAtFixation,jsons/VE125_randls_57.json,http://54.235.29.9/FacialAge/BNav_EC2/DepthDuration/v2_depth_duration_MTurk/v2_DepthDuration_HTML.html#454,454,1364,625,1364,768,8-29-2022,12-3-11,83,depth_duration_stimuli/000929_2014-06-09_16-33-19_260595134347_rgbf000139-resize_0/000929_2014-06-09_16-33-19_260595134347_rgbf000139-resize_0-target.png,125,2.8680000000000003,10,3858,126,feet,jsons/VE125_randls_57.json,1096294,1436692,35,Man
83,344496,DepthScenes,duration_manipulation_targetAtFixation,jsons/VE125_randls_57.json,http://54.235.29.9/FacialAge/BNav_EC2/DepthDuration/v2_depth_duration_MTurk/v2_DepthDuration_HTML.html#454,454,1364,625,1364,768,8-29-2022,12-3-11,84,depth_duration_stimuli/000457_2014-06-08_16-52-43_260595134347_rgbf000199-resize_1/000457_2014-06-08_16-52-43_260595134347_rgbf000199-resize_1-target.png,125,3.6489999999999996,0,3043,125,feet,jsons/VE125_randls_57.json,1096294,1436692,35,Man
84,344496,DepthScenes,duration_manipulation_targetAtFixation,jsons/VE125_randls_57.json,http://54.235.29.9/FacialAge/BNav_EC2/DepthDuration/v2_depth_duration_MTurk/v2_DepthDuration_HTML.html#454,454,1364,625,1364,768,8-29-2022,12-3-11,85,depth_duration_stimuli/002057_2014-06-24_21-00-13_260595134347_rgbf000120-resize_1/002057_2014-06-24_21-00-13_260595134347_rgbf000120-resize_1-target.png,125,2.967,13,5147,126,feet,jsons/VE125_randls_57.json,1096294,1436692,35,Man
85,344496,DepthScenes,duration_manipulation_targetAtFixation,jsons/VE125_randls_57.json,http://54.235.29.9/FacialAge/BNav_EC2/DepthDuration/v2_depth_duration_MTurk/v2_DepthDuration_HTML.html#454,454,1364,625,1364,768,8-29-2022,12-3-11,86,depth_duration_stimuli/000709_2014-06-08_13-51-55_260595134347_rgbf000068-resize_3/000709_2014-06-08_13-51-55_260595134347_rgbf000068-resize_3-target.png,125,1.8030000000000002,0,3347,124,feet,jsons/VE125_randls_57.json,1096294,1436692,35,Man
86,344496,DepthScenes,duration_manipulation_targetAtFixation,jsons/VE125_randls_57.json,http://54.235.29.9/FacialAge/BNav_EC2/DepthDuration/v2_depth_duration_MTurk/v2_DepthDuration_HTML.html#454,454,1364,625,1364,768,8-29-2022,12-3-11,87,depth_duration_stimuli/001175_2014-06-17_15-45-55_260595134347_rgbf000129-resize_4/001175_2014-06-17_15-45-55_260595134347_rgbf000129-resize_4-target.png,125,4.255,14,3555,125,feet,jsons/VE125_randls_57.json,1096294,1436692,35,Man
87,344496,DepthScenes,duration_manipulation_targetAtFixation,jsons/VE125_randls_57.json,http://54.235.29.9/FacialAge/BNav_EC2/DepthDuration/v2_depth_duration_MTurk/v2_DepthDuration_HTML.html#454,454,1364,625,1364,768,8-29-2022,12-3-11,88,depth_duration_stimuli/003490_2014-05-21_15-50-11_094959634447_rgbf000101-resize_3/003490_2014-05-21_15-50-11_094959634447_rgbf000101-resize_3-target.png,125,3.6445,0,2889,124,feet,jsons/VE125_randls_57.json,1096294,1436692,35,Man
88,344496,DepthScenes,duration_manipulation_targetAtFixation,jsons/VE125_randls_57.json,http://54.235.29.9/FacialAge/BNav_EC2/DepthDuration/v2_depth_duration_MTurk/v2_DepthDuration_HTML.html#454,454,1364,625,1364,768,8-29-2022,12-3-11,89,depth_duration_stimuli/001808_2014-06-26_20-50-58_260595134347_rgbf000029-resize_1/001808_2014-06-26_20-50-58_260595134347_rgbf000029-resize_1-target.png,125,4.249,12,3894,125,feet,jsons/VE125_randls_57.json,1096294,1436692,35,Man
89,344496,DepthScenes,duration_manipulation_targetAtFixation,jsons/VE125_randls_57.json,http://54.235.29.9/FacialAge/BNav_EC2/DepthDuration/v2_depth_duration_MTurk/v2_DepthDuration_HTML.html#454,454,1364,625,1364,768,8-29-2022,12-3-11,90,depth_duration_stimuli/001815_2014-06-26_20-52-55_260595134347_rgbf000020-resize_0/001815_2014-06-26_20-52-55_260595134347_rgbf000020-resize_0-target.png,125,3.3865,0,3049,125,feet,jsons/VE125_randls_57.json,1096294,1436692,35,Man
90,344496,DepthScenes,duration_manipulation_targetAtFixation,jsons/VE125_randls_57.json,http://54.235.29.9/FacialAge/BNav_EC2/DepthDuration/v2_depth_duration_MTurk/v2_DepthDuration_HTML.html#454,454,1364,625,1364,768,8-29-2022,12-3-11,91,depth_duration_stimuli/002905_2014-06-03_18-04-43_094959634447_rgbf000151-resize_2/002905_2014-06-03_18-04-43_094959634447_rgbf000151-resize_2-target.png,125,2.0295,6,3422,125,feet,jsons/VE125_randls_57.json,1096294,1436692,35,Man
91,344496,DepthScenes,duration_manipulation_targetAtFixation,jsons/VE125_randls_57.json,http://54.235.29.9/FacialAge/BNav_EC2/DepthDuration/v2_depth_duration_MTurk/v2_DepthDuration_HTML.html#454,454,1364,625,1364,768,8-29-2022,12-3-11,92,depth_duration_stimuli/003423_2014-05-21_10-23-26_094959634447_rgbf002665-resize_2/003423_2014-05-21_10-23-26_094959634447_rgbf002665-resize_2-target.png,125,3.2575,0,2882,126,feet,jsons/VE125_randls_57.json,1096294,1436692,35,Man
92,344496,DepthScenes,duration_manipulation_targetAtFixation,jsons/VE125_randls_57.json,http://54.235.29.9/FacialAge/BNav_EC2/DepthDuration/v2_depth_duration_MTurk/v2_DepthDuration_HTML.html#454,454,1364,625,1364,768,8-29-2022,12-3-11,93,depth_duration_stimuli/000493_2014-06-09_21-01-18_260595134347_rgbf000196-resize_3/000493_2014-06-09_21-01-18_260595134347_rgbf000196-resize_3-target.png,125,3.44,10,6427,126,feet,jsons/VE125_randls_57.json,1096294,1436692,35,Man
93,344496,DepthScenes,duration_manipulation_targetAtFixation,jsons/VE125_randls_57.json,http://54.235.29.9/FacialAge/BNav_EC2/DepthDuration/v2_depth_duration_MTurk/v2_DepthDuration_HTML.html#454,454,1364,625,1364,768,8-29-2022,12-3-11,94,depth_duration_stimuli/000191_2014-05-12_17-07-38_260595134347_rgbf000199-resize_0/000191_2014-05-12_17-07-38_260595134347_rgbf000199-resize_0-target.png,125,3.7995,12,3365,125,feet,jsons/VE125_randls_57.json,1096294,1436692,35,Man
94,344496,DepthScenes,duration_manipulation_targetAtFixation,jsons/VE125_randls_57.json,http://54.235.29.9/FacialAge/BNav_EC2/DepthDuration/v2_depth_duration_MTurk/v2_DepthDuration_HTML.html#454,454,1364,625,1364,768,8-29-2022,12-3-11,95,depth_duration_stimuli/001016_2014-06-09_16-16-10_260595134347_rgbf000112-resize_5/001016_2014-06-09_16-16-10_260595134347_rgbf000112-resize_5-target.png,125,1.6565,8,5347,124,feet,jsons/VE125_randls_57.json,1096294,1436692,35,Man
95,344496,DepthScenes,duration_manipulation_targetAtFixation,jsons/VE125_randls_57.json,http://54.235.29.9/FacialAge/BNav_EC2/DepthDuration/v2_depth_duration_MTurk/v2_DepthDuration_HTML.html#454,454,1364,625,1364,768,8-29-2022,12-3-11,96,depth_duration_stimuli/002340_2014-06-28_20-05-46_260595134347_rgbf000113-resize_0/002340_2014-06-28_20-05-46_260595134347_rgbf000113-resize_0-target.png,125,2.4735,0,2780,124,feet,jsons/VE125_randls_57.json,1096294,1436692,35,Man
96,344496,DepthScenes,duration_manipulation_targetAtFixation,jsons/VE125_randls_57.json,http://54.235.29.9/FacialAge/BNav_EC2/DepthDuration/v2_depth_duration_MTurk/v2_DepthDuration_HTML.html#454,454,1364,625,1364,768,8-29-2022,12-3-11,97,depth_duration_stimuli/001029_2014-06-08_13-17-57_260595134347_rgbf000065-resize_1/001029_2014-06-08_13-17-57_260595134347_rgbf000065-resize_1-target.png,125,3.0835,9,4522,124,feet,jsons/VE125_randls_57.json,1096294,1436692,35,Man
97,344496,DepthScenes,duration_manipulation_targetAtFixation,jsons/VE125_randls_57.json,http://54.235.29.9/FacialAge/BNav_EC2/DepthDuration/v2_depth_duration_MTurk/v2_DepthDuration_HTML.html#454,454,1364,625,1364,768,8-29-2022,12-3-11,98,depth_duration_stimuli/000677_2014-06-08_23-10-32_260595134347_rgbf000158-resize_6/000677_2014-06-08_23-10-32_260595134347_rgbf000158-resize_6-target.png,125,3.556,0,2700,125,feet,jsons/VE125_randls_57.json,1096294,1436692,35,Man
98,344496,DepthScenes,duration_manipulation_targetAtFixation,jsons/VE125_randls_57.json,http://54.235.29.9/FacialAge/BNav_EC2/DepthDuration/v2_depth_duration_MTurk/v2_DepthDuration_HTML.html#454,454,1364,625,1364,768,8-29-2022,12-3-11,99,depth_duration_stimuli/001540_2014-06-20_17-01-05_260595134347_rgbf000086-resize_2/001540_2014-06-20_17-01-05_260595134347_rgbf000086-resize-original.jpg,125,1.459,0,3007,124,feet,jsons/VE125_randls_57.json,1096294,1436692,35,Man
99,344496,DepthScenes,duration_manipulation_targetAtFixation,jsons/VE125_randls_57.json,http://54.235.29.9/FacialAge/BNav_EC2/DepthDuration/v2_depth_duration_MTurk/v2_DepthDuration_HTML.html#454,454,1364,625,1364,768,8-29-2022,12-3-11,100,depth_duration_stimuli/003534_2014-05-22_15-06-10_094959634447_rgbf000102-resize_4/003534_2014-05-22_15-06-10_094959634447_rgbf000102-resize_4-target.png,125,1.426,3,3438,126,feet,jsons/VE125_randls_57.json,1096294,1436692,35,Man
100,344496,DepthScenes,duration_manipulation_targetAtFixation,jsons/VE125_randls_57.json,http://54.235.29.9/FacialAge/BNav_EC2/DepthDuration/v2_depth_duration_MTurk/v2_DepthDuration_HTML.html#454,454,1364,625,1364,768,8-29-2022,12-3-11,101,depth_duration_stimuli/002637_2014-06-24_14-51-13_094959634447_rgbf000066-resize_4/002637_2014-06-24_14-51-13_094959634447_rgbf000066-resize_4-target.png,125,1.9955,0,2587,125,feet,jsons/VE125_randls_57.json,1096294,1436692,35,Man
101,344496,DepthScenes,duration_manipulation_targetAtFixation,jsons/VE125_randls_57.json,http://54.235.29.9/FacialAge/BNav_EC2/DepthDuration/v2_depth_duration_MTurk/v2_DepthDuration_HTML.html#454,454,1364,625,1364,768,8-29-2022,12-3-11,102,depth_duration_stimuli/002153_2014-06-25_21-27-18_260595134347_rgbf000038-resize_5/002153_2014-06-25_21-27-18_260595134347_rgbf000038-resize_5-target.png,125,2.505,6,3330,124,feet,jsons/VE125_randls_57.json,1096294,1436692,35,Man
102,344496,DepthScenes,duration_manipulation_targetAtFixation,jsons/VE125_randls_57.json,http://54.235.29.9/FacialAge/BNav_EC2/DepthDuration/v2_depth_duration_MTurk/v2_DepthDuration_HTML.html#454,454,1364,625,1364,768,8-29-2022,12-3-11,103,depth_duration_stimuli/002660_2014-06-13_15-44-18_094959634447_rgbf001878-resize_2/002660_2014-06-13_15-44-18_094959634447_rgbf001878-resize_2-target.png,125,3.576,0,2833,126,feet,jsons/VE125_randls_57.json,1096294,1436692,35,Man
103,344496,DepthScenes,duration_manipulation_targetAtFixation,jsons/VE125_randls_57.json,http://54.235.29.9/FacialAge/BNav_EC2/DepthDuration/v2_depth_duration_MTurk/v2_DepthDuration_HTML.html#454,454,1364,625,1364,768,8-29-2022,12-3-11,104,depth_duration_stimuli/002600_2014-06-24_14-27-04_094959634447_rgbf000074-resize_2/002600_2014-06-24_14-27-04_094959634447_rgbf000074-resize_2-target.png,125,2.7575,10,4175,125,feet,jsons/VE125_randls_57.json,1096294,1436692,35,Man
104,344496,DepthScenes,duration_manipulation_targetAtFixation,jsons/VE125_randls_57.json,http://54.235.29.9/FacialAge/BNav_EC2/DepthDuration/v2_depth_duration_MTurk/v2_DepthDuration_HTML.html#454,454,1364,625,1364,768,8-29-2022,12-3-11,105,depth_duration_stimuli/003228_2014-05-14_13-42-35_094959634447_rgbf000101-resize_1/003228_2014-05-14_13-42-35_094959634447_rgbf000101-resize_1-target.png,125,1.9680000000000002,0,3353,124,feet,jsons/VE125_randls_57.json,1096294,1436692,35,Man
105,344496,DepthScenes,duration_manipulation_targetAtFixation,jsons/VE125_randls_57.json,http://54.235.29.9/FacialAge/BNav_EC2/DepthDuration/v2_depth_duration_MTurk/v2_DepthDuration_HTML.html#454,454,1364,625,1364,768,8-29-2022,12-3-11,106,depth_duration_stimuli/001011_2014-06-08_23-18-54_260595134347_rgbf000044-resize_4/001011_2014-06-08_23-18-54_260595134347_rgbf000044-resize_4-target.png,125,2.4730000000000003,12,3964,126,feet,jsons/VE125_randls_57.json,1096294,1436692,35,Man
106,344496,DepthScenes,duration_manipulation_targetAtFixation,jsons/VE125_randls_57.json,http://54.235.29.9/FacialAge/BNav_EC2/DepthDuration/v2_depth_duration_MTurk/v2_DepthDuration_HTML.html#454,454,1364,625,1364,768,8-29-2022,12-3-11,107,depth_duration_stimuli/002875_2014-06-01_15-19-00_094959634447_rgbf000151-resize_1/002875_2014-06-01_15-19-00_094959634447_rgbf000151-resize_1-target.png,125,1.9675,0,2515,124,feet,jsons/VE125_randls_57.json,1096294,1436692,35,Man
107,344496,DepthScenes,duration_manipulation_targetAtFixation,jsons/VE125_randls_57.json,http://54.235.29.9/FacialAge/BNav_EC2/DepthDuration/v2_depth_duration_MTurk/v2_DepthDuration_HTML.html#454,454,1364,625,1364,768,8-29-2022,12-3-11,108,depth_duration_stimuli/001417_2014-06-19_16-25-36_260595134347_rgbf000115-resize_5/001417_2014-06-19_16-25-36_260595134347_rgbf000115-resize_5-target.png,125,4.6255,10,3868,126,feet,jsons/VE125_randls_57.json,1096294,1436692,35,Man
108,344496,DepthScenes,duration_manipulation_targetAtFixation,jsons/VE125_randls_57.json,http://54.235.29.9/FacialAge/BNav_EC2/DepthDuration/v2_depth_duration_MTurk/v2_DepthDuration_HTML.html#454,454,1364,625,1364,768,8-29-2022,12-3-11,109,depth_duration_stimuli/003081_2014-06-15_15-19-16_094959634447_rgbf000150-resize_1/003081_2014-06-15_15-19-16_094959634447_rgbf000150-resize_1-target.png,125,3.9125,0,2796,125,feet,jsons/VE125_randls_57.json,1096294,1436692,35,Man
109,344496,DepthScenes,duration_manipulation_targetAtFixation,jsons/VE125_randls_57.json,http://54.235.29.9/FacialAge/BNav_EC2/DepthDuration/v2_depth_duration_MTurk/v2_DepthDuration_HTML.html#454,454,1364,625,1364,768,8-29-2022,12-3-11,110,depth_duration_stimuli/003070_2014-06-15_14-58-27_094959634447_rgbf000150-resize_3/003070_2014-06-15_14-58-27_094959634447_rgbf000150-resize_3-target.png,125,2.9415,10,3723,126,feet,jsons/VE125_randls_57.json,1096294,1436692,35,Man
110,344496,DepthScenes,duration_manipulation_targetAtFixation,jsons/VE125_randls_57.json,http://54.235.29.9/FacialAge/BNav_EC2/DepthDuration/v2_depth_duration_MTurk/v2_DepthDuration_HTML.html#454,454,1364,625,1364,768,8-29-2022,12-3-11,111,depth_duration_stimuli/000943_2014-06-09_19-31-07_260595134347_rgbf000128-resize_1/000943_2014-06-09_19-31-07_260595134347_rgbf000128-resize_1-target.png,125,1.9765,0,2707,126,feet,jsons/VE125_randls_57.json,1096294,1436692,35,Man
111,344496,DepthScenes,duration_manipulation_targetAtFixation,jsons/VE125_randls_57.json,http://54.235.29.9/FacialAge/BNav_EC2/DepthDuration/v2_depth_duration_MTurk/v2_DepthDuration_HTML.html#454,454,1364,625,1364,768,8-29-2022,12-3-11,112,depth_duration_stimuli/000788_2014-06-08_22-34-36_260595134347_rgbf000131-resize_1/000788_2014-06-08_22-34-36_260595134347_rgbf000131-resize_1-target.png,125,3.359,12,3099,125,feet,jsons/VE125_randls_57.json,1096294,1436692,35,Man
112,344496,DepthScenes,duration_manipulation_targetAtFixation,jsons/VE125_randls_57.json,http://54.235.29.9/FacialAge/BNav_EC2/DepthDuration/v2_depth_duration_MTurk/v2_DepthDuration_HTML.html#454,454,1364,625,1364,768,8-29-2022,12-3-11,113,depth_duration_stimuli/001235_2014-06-17_16-37-36_260595134347_rgbf000084-resize_4/001235_2014-06-17_16-37-36_260595134347_rgbf000084-resize_4-target.png,125,3.6605,0,2820,118,feet,jsons/VE125_randls_57.json,1096294,1436692,35,Man
113,344496,DepthScenes,duration_manipulation_targetAtFixation,jsons/VE125_randls_57.json,http://54.235.29.9/FacialAge/BNav_EC2/DepthDuration/v2_depth_duration_MTurk/v2_DepthDuration_HTML.html#454,454,1364,625,1364,768,8-29-2022,12-3-11,114,depth_duration_stimuli/002445_2014-06-28_20-32-16_260595134347_rgbf000029-resize_4/002445_2014-06-28_20-32-16_260595134347_rgbf000029-resize_4-target.png,125,2.5315,8,3650,125,feet,jsons/VE125_randls_57.json,1096294,1436692,35,Man
114,344496,DepthScenes,duration_manipulation_targetAtFixation,jsons/VE125_randls_57.json,http://54.235.29.9/FacialAge/BNav_EC2/DepthDuration/v2_depth_duration_MTurk/v2_DepthDuration_HTML.html#454,454,1364,625,1364,768,8-29-2022,12-3-11,115,depth_duration_stimuli/000780_2014-06-08_22-28-29_260595134347_rgbf000126-resize_1/000780_2014-06-08_22-28-29_260595134347_rgbf000126-resize_1-target.png,125,3.3825,0,13500,125,feet,jsons/VE125_randls_57.json,1096294,1436692,35,Man
115,344496,DepthScenes,duration_manipulation_targetAtFixation,jsons/VE125_randls_57.json,http://54.235.29.9/FacialAge/BNav_EC2/DepthDuration/v2_depth_duration_MTurk/v2_DepthDuration_HTML.html#454,454,1364,625,1364,768,8-29-2022,12-3-11,116,depth_duration_stimuli/001170_2014-06-17_15-43-44_260595134347_rgbf000096-resize_6/001170_2014-06-17_15-43-44_260595134347_rgbf000096-resize-original.jpg,125,1.1909999999999998,0,2678,125,feet,jsons/VE125_randls_57.json,1096294,1436692,35,Man
116,344496,DepthScenes,duration_manipulation_targetAtFixation,jsons/VE125_randls_57.json,http://54.235.29.9/FacialAge/BNav_EC2/DepthDuration/v2_depth_duration_MTurk/v2_DepthDuration_HTML.html#454,454,1364,625,1364,768,8-29-2022,12-3-11,117,depth_duration_stimuli/002570_2014-06-24_13-59-54_094959634447_rgbf000059-resize_0/002570_2014-06-24_13-59-54_094959634447_rgbf000059-resize_0-target.png,125,4.037,8,3436,124,feet,jsons/VE125_randls_57.json,1096294,1436692,35,Man
117,344496,DepthScenes,duration_manipulation_targetAtFixation,jsons/VE125_randls_57.json,http://54.235.29.9/FacialAge/BNav_EC2/DepthDuration/v2_depth_duration_MTurk/v2_DepthDuration_HTML.html#454,454,1364,625,1364,768,8-29-2022,12-3-11,118,depth_duration_stimuli/002467_2014-06-28_20-38-07_260595134347_rgbf000026-resize_2/002467_2014-06-28_20-38-07_260595134347_rgbf000026-resize_2-target.png,125,4.742,0,2628,124,feet,jsons/VE125_randls_57.json,1096294,1436692,35,Man
118,344496,DepthScenes,duration_manipulation_targetAtFixation,jsons/VE125_randls_57.json,http://54.235.29.9/FacialAge/BNav_EC2/DepthDuration/v2_depth_duration_MTurk/v2_DepthDuration_HTML.html#454,454,1364,625,1364,768,8-29-2022,12-3-11,119,depth_duration_stimuli/002549_2014-06-24_13-41-39_094959634447_rgbf000022-resize_3/002549_2014-06-24_13-41-39_094959634447_rgbf000022-resize_3-target.png,125,1.476,3,3555,125,feet,jsons/VE125_randls_57.json,1096294,1436692,35,Man
119,344496,DepthScenes,duration_manipulation_targetAtFixation,jsons/VE125_randls_57.json,http://54.235.29.9/FacialAge/BNav_EC2/DepthDuration/v2_depth_duration_MTurk/v2_DepthDuration_HTML.html#454,454,1364,625,1364,768,8-29-2022,12-3-11,120,depth_duration_stimuli/002750_2014-06-22_19-08-03_094959634447_rgbf000094-resize_4/002750_2014-06-22_19-08-03_094959634447_rgbf000094-resize_4-target.png,125,2.354,0,22913,124,feet,jsons/VE125_randls_57.json,1096294,1436692,35,Man
120,344496,DepthScenes,duration_manipulation_targetAtFixation,jsons/VE125_randls_57.json,http://54.235.29.9/FacialAge/BNav_EC2/DepthDuration/v2_depth_duration_MTurk/v2_DepthDuration_HTML.html#454,454,1364,625,1364,768,8-29-2022,12-3-11,121,depth_duration_stimuli/000469_2014-06-09_19-42-10_260595134347_rgbf000081-resize_1/000469_2014-06-09_19-42-10_260595134347_rgbf000081-resize_1-target.png,125,1.652,3,3913,125,feet,jsons/VE125_randls_57.json,1096294,1436692,35,Man
121,344496,DepthScenes,duration_manipulation_targetAtFixation,jsons/VE125_randls_57.json,http://54.235.29.9/FacialAge/BNav_EC2/DepthDuration/v2_depth_duration_MTurk/v2_DepthDuration_HTML.html#454,454,1364,625,1364,768,8-29-2022,12-3-11,122,depth_duration_stimuli/000483_2014-06-09_20-41-45_260595134347_rgbf000116-resize_4/000483_2014-06-09_20-41-45_260595134347_rgbf000116-resize_4-target.png,125,1.337,0,3940,125,feet,jsons/VE125_randls_57.json,1096294,1436692,35,Man
122,344496,DepthScenes,duration_manipulation_targetAtFixation,jsons/VE125_randls_57.json,http://54.235.29.9/FacialAge/BNav_EC2/DepthDuration/v2_depth_duration_MTurk/v2_DepthDuration_HTML.html#454,454,1364,625,1364,768,8-29-2022,12-3-11,123,depth_duration_stimuli/001244_2014-06-17_16-47-45_260595134347_rgbf000030-resize_4/001244_2014-06-17_16-47-45_260595134347_rgbf000030-resize_4-target.png,125,2.0425,5,3872,124,feet,jsons/VE125_randls_57.json,1096294,1436692,35,Man
123,344496,DepthScenes,duration_manipulation_targetAtFixation,jsons/VE125_randls_57.json,http://54.235.29.9/FacialAge/BNav_EC2/DepthDuration/v2_depth_duration_MTurk/v2_DepthDuration_HTML.html#454,454,1364,625,1364,768,8-29-2022,12-3-11,124,depth_duration_stimuli/003495_2014-05-21_16-01-51_094959634447_rgbf000100-resize_3/003495_2014-05-21_16-01-51_094959634447_rgbf000100-resize_3-target.png,125,1.6255,0,4453,124,feet,jsons/VE125_randls_57.json,1096294,1436692,35,Man
124,344496,DepthScenes,duration_manipulation_targetAtFixation,jsons/VE125_randls_57.json,http://54.235.29.9/FacialAge/BNav_EC2/DepthDuration/v2_depth_duration_MTurk/v2_DepthDuration_HTML.html#454,454,1364,625,1364,768,8-29-2022,12-3-11,125,depth_duration_stimuli/001056_2014-06-08_18-46-44_260595134347_rgbf000068-resize_0/001056_2014-06-08_18-46-44_260595134347_rgbf000068-resize_0-target.png,125,2.6625,12,3675,124,feet,jsons/VE125_randls_57.json,1096294,1436692,35,Man
125,344496,DepthScenes,duration_manipulation_targetAtFixation,jsons/VE125_randls_57.json,http://54.235.29.9/FacialAge/BNav_EC2/DepthDuration/v2_depth_duration_MTurk/v2_DepthDuration_HTML.html#454,454,1364,625,1364,768,8-29-2022,12-3-11,126,depth_duration_stimuli/002199_2014-06-28_18-33-56_260595134347_rgbf000074-resize_0/002199_2014-06-28_18-33-56_260595134347_rgbf000074-resize_0-target.png,125,1.996,0,2692,125,feet,jsons/VE125_randls_57.json,1096294,1436692,35,Man
126,344496,DepthScenes,duration_manipulation_targetAtFixation,jsons/VE125_randls_57.json,http://54.235.29.9/FacialAge/BNav_EC2/DepthDuration/v2_depth_duration_MTurk/v2_DepthDuration_HTML.html#454,454,1364,625,1364,768,8-29-2022,12-3-11,127,depth_duration_stimuli/001092_2014-06-15_17-34-58_260595134347_rgbf000171-resize_3/001092_2014-06-15_17-34-58_260595134347_rgbf000171-resize_3-target.png,125,2.6935,6,4868,125,feet,jsons/VE125_randls_57.json,1096294,1436692,35,Man
127,344496,DepthScenes,duration_manipulation_targetAtFixation,jsons/VE125_randls_57.json,http://54.235.29.9/FacialAge/BNav_EC2/DepthDuration/v2_depth_duration_MTurk/v2_DepthDuration_HTML.html#454,454,1364,625,1364,768,8-29-2022,12-3-11,128,depth_duration_stimuli/002545_2014-06-24_13-38-53_094959634447_rgbf000080-resize_4/002545_2014-06-24_13-38-53_094959634447_rgbf000080-resize_4-target.png,125,1.9205,0,2546,125,feet,jsons/VE125_randls_57.json,1096294,1436692,35,Man
128,344496,DepthScenes,duration_manipulation_targetAtFixation,jsons/VE125_randls_57.json,http://54.235.29.9/FacialAge/BNav_EC2/DepthDuration/v2_depth_duration_MTurk/v2_DepthDuration_HTML.html#454,454,1364,625,1364,768,8-29-2022,12-3-11,129,depth_duration_stimuli/002788_2014-06-22_19-36-03_094959634447_rgbf000088-resize_2/002788_2014-06-22_19-36-03_094959634447_rgbf000088-resize_2-target.png,125,1.6465,10,4173,124,feet,jsons/VE125_randls_57.json,1096294,1436692,35,Man
129,344496,DepthScenes,duration_manipulation_targetAtFixation,jsons/VE125_randls_57.json,http://54.235.29.9/FacialAge/BNav_EC2/DepthDuration/v2_depth_duration_MTurk/v2_DepthDuration_HTML.html#454,454,1364,625,1364,768,8-29-2022,12-3-11,130,depth_duration_stimuli/000749_2014-06-08_21-55-06_260595134347_rgbf000070-resize_2/000749_2014-06-08_21-55-06_260595134347_rgbf000070-resize_2-target.png,125,2.331,0,2981,125,feet,jsons/VE125_randls_57.json,1096294,1436692,35,Man
130,344496,DepthScenes,duration_manipulation_targetAtFixation,jsons/VE125_randls_57.json,http://54.235.29.9/FacialAge/BNav_EC2/DepthDuration/v2_depth_duration_MTurk/v2_DepthDuration_HTML.html#454,454,1364,625,1364,768,8-29-2022,12-3-11,131,depth_duration_stimuli/002725_2014-06-22_11-47-51_094959634447_rgbf000070-resize_1/002725_2014-06-22_11-47-51_094959634447_rgbf000070-resize_1-target.png,125,2.195,10,3368,125,feet,jsons/VE125_randls_57.json,1096294,1436692,35,Man
131,344496,DepthScenes,duration_manipulation_targetAtFixation,jsons/VE125_randls_57.json,http://54.235.29.9/FacialAge/BNav_EC2/DepthDuration/v2_depth_duration_MTurk/v2_DepthDuration_HTML.html#454,454,1364,625,1364,768,8-29-2022,12-3-11,132,depth_duration_stimuli/002344_2014-06-28_20-06-29_260595134347_rgbf000030-resize_1/002344_2014-06-28_20-06-29_260595134347_rgbf000030-resize_1-target.png,125,1.5795,0,2632,125,feet,jsons/VE125_randls_57.json,1096294,1436692,35,Man
132,344496,DepthScenes,duration_manipulation_targetAtFixation,jsons/VE125_randls_57.json,http://54.235.29.9/FacialAge/BNav_EC2/DepthDuration/v2_depth_duration_MTurk/v2_DepthDuration_HTML.html#454,454,1364,625,1364,768,8-29-2022,12-3-11,133,depth_duration_stimuli/001167_2014-06-17_15-38-07_260595134347_rgbf000108-resize_0/001167_2014-06-17_15-38-07_260595134347_rgbf000108-resize_0-target.png,125,1.8505,3,3390,126,feet,jsons/VE125_randls_57.json,1096294,1436692,35,Man
133,344496,DepthScenes,duration_manipulation_targetAtFixation,jsons/VE125_randls_57.json,http://54.235.29.9/FacialAge/BNav_EC2/DepthDuration/v2_depth_duration_MTurk/v2_DepthDuration_HTML.html#454,454,1364,625,1364,768,8-29-2022,12-3-11,134,depth_duration_stimuli/003587_2014-05-23_16-48-02_094959634447_rgbf002384-resize_2/003587_2014-05-23_16-48-02_094959634447_rgbf002384-resize_2-target.png,125,1.357,0,2571,124,feet,jsons/VE125_randls_57.json,1096294,1436692,35,Man
134,344496,DepthScenes,duration_manipulation_targetAtFixation,jsons/VE125_randls_57.json,http://54.235.29.9/FacialAge/BNav_EC2/DepthDuration/v2_depth_duration_MTurk/v2_DepthDuration_HTML.html#454,454,1364,625,1364,768,8-29-2022,12-3-11,135,depth_duration_stimuli/002072_2014-06-24_21-48-06_260595134347_rgbf000115-resize_0/002072_2014-06-24_21-48-06_260595134347_rgbf000115-resize-original.jpg,125,4.702,0,4202,126,feet,jsons/VE125_randls_57.json,1096294,1436692,35,Man
135,344496,DepthScenes,duration_manipulation_targetAtFixation,jsons/VE125_randls_57.json,http://54.235.29.9/FacialAge/BNav_EC2/DepthDuration/v2_depth_duration_MTurk/v2_DepthDuration_HTML.html#454,454,1364,625,1364,768,8-29-2022,12-3-11,136,depth_duration_stimuli/001164_2014-06-17_15-35-46_260595134347_rgbf000085-resize_3/001164_2014-06-17_15-35-46_260595134347_rgbf000085-resize_3-target.png,125,2.354,9,7627,126,feet,jsons/VE125_randls_57.json,1096294,1436692,35,Man
136,344496,DepthScenes,duration_manipulation_targetAtFixation,jsons/VE125_randls_57.json,http://54.235.29.9/FacialAge/BNav_EC2/DepthDuration/v2_depth_duration_MTurk/v2_DepthDuration_HTML.html#454,454,1364,625,1364,768,8-29-2022,12-3-11,137,depth_duration_stimuli/001136_2014-06-17_15-19-41_260595134347_rgbf000076-resize_3/001136_2014-06-17_15-19-41_260595134347_rgbf000076-resize_3-target.png,125,1.8655,0,11468,125,feet,jsons/VE125_randls_57.json,1096294,1436692,35,Man
137,344496,DepthScenes,duration_manipulation_targetAtFixation,jsons/VE125_randls_57.json,http://54.235.29.9/FacialAge/BNav_EC2/DepthDuration/v2_depth_duration_MTurk/v2_DepthDuration_HTML.html#454,454,1364,625,1364,768,8-29-2022,12-3-11,138,depth_duration_stimuli/001066_2014-06-08_22-03-20_260595134347_rgbf000066-resize_4/001066_2014-06-08_22-03-20_260595134347_rgbf000066-resize_4-target.png,125,4.2330000000000005,12,4018,125,feet,jsons/VE125_randls_57.json,1096294,1436692,35,Man
138,344496,DepthScenes,duration_manipulation_targetAtFixation,jsons/VE125_randls_57.json,http://54.235.29.9/FacialAge/BNav_EC2/DepthDuration/v2_depth_duration_MTurk/v2_DepthDuration_HTML.html#454,454,1364,625,1364,768,8-29-2022,12-3-11,139,depth_duration_stimuli/000742_2014-06-08_18-48-09_260595134347_rgbf000164-resize_4/000742_2014-06-08_18-48-09_260595134347_rgbf000164-resize_4-target.png,125,4.632,13,3763,125,feet,jsons/VE125_randls_57.json,1096294,1436692,35,Man
139,344496,DepthScenes,duration_manipulation_targetAtFixation,jsons/VE125_randls_57.json,http://54.235.29.9/FacialAge/BNav_EC2/DepthDuration/v2_depth_duration_MTurk/v2_DepthDuration_HTML.html#454,454,1364,625,1364,768,8-29-2022,12-3-11,140,depth_duration_stimuli/003621_2014-05-23_18-06-08_094959634447_rgbf000101-resize_1/003621_2014-05-23_18-06-08_094959634447_rgbf000101-resize_1-target.png,125,3.9835,10,3299,126,feet,jsons/VE125_randls_57.json,1096294,1436692,35,Man
140,344496,DepthScenes,duration_manipulation_targetAtFixation,jsons/VE125_randls_57.json,http://54.235.29.9/FacialAge/BNav_EC2/DepthDuration/v2_depth_duration_MTurk/v2_DepthDuration_HTML.html#454,454,1364,625,1364,768,8-29-2022,12-3-11,141,depth_duration_stimuli/001584_2014-06-20_11-07-43_260595134347_rgbf000002-resize_1/001584_2014-06-20_11-07-43_260595134347_rgbf000002-resize_1-target.png,125,3.53,0,3586,124,feet,jsons/VE125_randls_57.json,1096294,1436692,35,Man
141,344496,DepthScenes,duration_manipulation_targetAtFixation,jsons/VE125_randls_57.json,http://54.235.29.9/FacialAge/BNav_EC2/DepthDuration/v2_depth_duration_MTurk/v2_DepthDuration_HTML.html#454,454,1364,625,1364,768,8-29-2022,12-3-11,142,depth_duration_stimuli/001449_2014-06-19_17-01-27_260595134347_rgbf000116-resize_2/001449_2014-06-19_17-01-27_260595134347_rgbf000116-resize_2-target.png,125,3.452,11,22893,125,feet,jsons/VE125_randls_57.json,1096294,1436692,35,Man
142,344496,DepthScenes,duration_manipulation_targetAtFixation,jsons/VE125_randls_57.json,http://54.235.29.9/FacialAge/BNav_EC2/DepthDuration/v2_depth_duration_MTurk/v2_DepthDuration_HTML.html#454,454,1364,625,1364,768,8-29-2022,12-3-11,143,depth_duration_stimuli/001450_2014-06-19_17-02-03_260595134347_rgbf000203-resize_4/001450_2014-06-19_17-02-03_260595134347_rgbf000203-resize_4-target.png,125,4.0106666666667,0,4361,124,feet,jsons/VE125_randls_57.json,1096294,1436692,35,Man
143,344496,DepthScenes,duration_manipulation_targetAtFixation,jsons/VE125_randls_57.json,http://54.235.29.9/FacialAge/BNav_EC2/DepthDuration/v2_depth_duration_MTurk/v2_DepthDuration_HTML.html#454,454,1364,625,1364,768,8-29-2022,12-3-11,144,depth_duration_stimuli/001133_2014-06-17_14-49-16_260595134347_rgbf000100-resize_0/001133_2014-06-17_14-49-16_260595134347_rgbf000100-resize_0-target.png,125,4.2115,12,5290,124,feet,jsons/VE125_randls_57.json,1096294,1436692,35,Man
144,344496,DepthScenes,duration_manipulation_targetAtFixation,jsons/VE125_randls_57.json,http://54.235.29.9/FacialAge/BNav_EC2/DepthDuration/v2_depth_duration_MTurk/v2_DepthDuration_HTML.html#454,454,1364,625,1364,768,8-29-2022,12-3-11,145,depth_duration_stimuli/001132_2014-06-17_14-48-54_260595134347_rgbf000100-resize_2/001132_2014-06-17_14-48-54_260595134347_rgbf000100-resize_2-target.png,125,3.753,0,3338,124,feet,jsons/VE125_randls_57.json,1096294,1436692,35,Man
145,344496,DepthScenes,duration_manipulation_targetAtFixation,jsons/VE125_randls_57.json,http://54.235.29.9/FacialAge/BNav_EC2/DepthDuration/v2_depth_duration_MTurk/v2_DepthDuration_HTML.html#454,454,1364,625,1364,768,8-29-2022,12-3-11,146,depth_duration_stimuli/001498_2014-06-19_17-45-14_260595134347_rgbf000129-resize_4/001498_2014-06-19_17-45-14_260595134347_rgbf000129-resize-original.jpg,125,1.4075,0,2728,125,feet,jsons/VE125_randls_57.json,1096294,1436692,35,Man
146,344496,DepthScenes,duration_manipulation_targetAtFixation,jsons/VE125_randls_57.json,http://54.235.29.9/FacialAge/BNav_EC2/DepthDuration/v2_depth_duration_MTurk/v2_DepthDuration_HTML.html#454,454,1364,625,1364,768,8-29-2022,12-3-11,147,depth_duration_stimuli/000692_2014-06-08_13-09-42_260595134347_rgbf000199-resize_2/000692_2014-06-08_13-09-42_260595134347_rgbf000199-resize_2-target.png,125,3.661,14,4134,120,feet,jsons/VE125_randls_57.json,1096294,1436692,35,Man
147,344496,DepthScenes,duration_manipulation_targetAtFixation,jsons/VE125_randls_57.json,http://54.235.29.9/FacialAge/BNav_EC2/DepthDuration/v2_depth_duration_MTurk/v2_DepthDuration_HTML.html#454,454,1364,625,1364,768,8-29-2022,12-3-11,148,depth_duration_stimuli/001094_2014-06-15_17-36-00_260595134347_rgbf000205-resize_0/001094_2014-06-15_17-36-00_260595134347_rgbf000205-resize_0-target.png,125,4.2175,0,11503,112,feet,jsons/VE125_randls_57.json,1096294,1436692,35,Man
148,344496,DepthScenes,duration_manipulation_targetAtFixation,jsons/VE125_randls_57.json,http://54.235.29.9/FacialAge/BNav_EC2/DepthDuration/v2_depth_duration_MTurk/v2_DepthDuration_HTML.html#454,454,1364,625,1364,768,8-29-2022,12-3-11,149,depth_duration_stimuli/000642_2014-06-08_16-59-25_260595134347_rgbf000098-resize_2/000642_2014-06-08_16-59-25_260595134347_rgbf000098-resize_2-target.png,125,2.8815,10,3530,124,feet,jsons/VE125_randls_57.json,1096294,1436692,35,Man
149,344496,DepthScenes,duration_manipulation_targetAtFixation,jsons/VE125_randls_57.json,http://54.235.29.9/FacialAge/BNav_EC2/DepthDuration/v2_depth_duration_MTurk/v2_DepthDuration_HTML.html#454,454,1364,625,1364,768,8-29-2022,12-3-11,150,depth_duration_stimuli/002425_2014-06-28_20-27-29_260595134347_rgbf000031-resize_8/002425_2014-06-28_20-27-29_260595134347_rgbf000031-resize_8-target.png,125,3.8960000000000004,10,29857,125,feet,jsons/VE125_randls_57.json,1096294,1436692,35,Man
150,344496,DepthScenes,duration_manipulation_targetAtFixation,jsons/VE125_randls_57.json,http://54.235.29.9/FacialAge/BNav_EC2/DepthDuration/v2_depth_duration_MTurk/v2_DepthDuration_HTML.html#454,454,1364,625,1364,768,8-29-2022,12-3-11,151,depth_duration_stimuli/002989_2014-06-15_12-25-03_094959634447_rgbf000150-resize_3/002989_2014-06-15_12-25-03_094959634447_rgbf000150-resize_3-target.png,125,4.1975,14,3804,126,feet,jsons/VE125_randls_57.json,1096294,1436692,35,Man
151,344496,DepthScenes,duration_manipulation_targetAtFixation,jsons/VE125_randls_57.json,http://54.235.29.9/FacialAge/BNav_EC2/DepthDuration/v2_depth_duration_MTurk/v2_DepthDuration_HTML.html#454,454,1364,625,1364,768,8-29-2022,12-3-11,152,depth_duration_stimuli/000866_2014-06-09_20-45-42_260595134347_rgbf000139-resize_1/000866_2014-06-09_20-45-42_260595134347_rgbf000139-resize_1-target.png,125,3.2155,0,2633,124,feet,jsons/VE125_randls_57.json,1096294,1436692,35,Man
152,344496,DepthScenes,duration_manipulation_targetAtFixation,jsons/VE125_randls_57.json,http://54.235.29.9/FacialAge/BNav_EC2/DepthDuration/v2_depth_duration_MTurk/v2_DepthDuration_HTML.html#454,454,1364,625,1364,768,8-29-2022,12-3-11,153,depth_duration_stimuli/000758_2014-06-08_22-05-08_260595134347_rgbf000085-resize_0/000758_2014-06-08_22-05-08_260595134347_rgbf000085-resize_0-target.png,125,3.3810000000000002,12,3388,124,feet,jsons/VE125_randls_57.json,1096294,1436692,35,Man
153,344496,DepthScenes,duration_manipulation_targetAtFixation,jsons/VE125_randls_57.json,http://54.235.29.9/FacialAge/BNav_EC2/DepthDuration/v2_depth_duration_MTurk/v2_DepthDuration_HTML.html#454,454,1364,625,1364,768,8-29-2022,12-3-11,154,depth_duration_stimuli/000854_2014-06-09_19-43-13_260595134347_rgbf000066-resize_0/000854_2014-06-09_19-43-13_260595134347_rgbf000066-resize_0-target.png,125,3.068,0,2449,125,feet,jsons/VE125_randls_57.json,1096294,1436692,35,Man
154,344496,DepthScenes,duration_manipulation_targetAtFixation,jsons/VE125_randls_57.json,http://54.235.29.9/FacialAge/BNav_EC2/DepthDuration/v2_depth_duration_MTurk/v2_DepthDuration_HTML.html#454,454,1364,625,1364,768,8-29-2022,12-3-11,155,depth_duration_stimuli/000736_2014-06-08_18-24-15_260595134347_rgbf000206-resize_3/000736_2014-06-08_18-24-15_260595134347_rgbf000206-resize_3-target.png,125,3.515,7,3526,124,feet,jsons/VE125_randls_57.json,1096294,1436692,35,Man
155,344496,DepthScenes,duration_manipulation_targetAtFixation,jsons/VE125_randls_57.json,http://54.235.29.9/FacialAge/BNav_EC2/DepthDuration/v2_depth_duration_MTurk/v2_DepthDuration_HTML.html#454,454,1364,625,1364,768,8-29-2022,12-3-11,156,depth_duration_stimuli/000137_2014-05-20_17-04-49_260595134347_rgbf000120-resize_1/000137_2014-05-20_17-04-49_260595134347_rgbf000120-resize_1-target.png,125,3.786,0,2526,124,feet,jsons/VE125_randls_57.json,1096294,1436692,35,Man
156,344496,DepthScenes,duration_manipulation_targetAtFixation,jsons/VE125_randls_57.json,http://54.235.29.9/FacialAge/BNav_EC2/DepthDuration/v2_depth_duration_MTurk/v2_DepthDuration_HTML.html#454,454,1364,625,1364,768,8-29-2022,12-3-11,157,depth_duration_stimuli/002213_2014-06-28_18-37-58_260595134347_rgbf000055-resize_1/002213_2014-06-28_18-37-58_260595134347_rgbf000055-resize_1-target.png,125,3.62,12,3070,126,feet,jsons/VE125_randls_57.json,1096294,1436692,35,Man
157,344496,DepthScenes,duration_manipulation_targetAtFixation,jsons/VE125_randls_57.json,http://54.235.29.9/FacialAge/BNav_EC2/DepthDuration/v2_depth_duration_MTurk/v2_DepthDuration_HTML.html#454,454,1364,625,1364,768,8-29-2022,12-3-11,158,depth_duration_stimuli/000691_2014-06-08_13-08-50_260595134347_rgbf000132-resize_3/000691_2014-06-08_13-08-50_260595134347_rgbf000132-resize_3-target.png,125,4.1530000000000005,0,8160,124,feet,jsons/VE125_randls_57.json,1096294,1436692,35,Man
158,344496,DepthScenes,duration_manipulation_targetAtFixation,jsons/VE125_randls_57.json,http://54.235.29.9/FacialAge/BNav_EC2/DepthDuration/v2_depth_duration_MTurk/v2_DepthDuration_HTML.html#454,454,1364,625,1364,768,8-29-2022,12-3-11,159,depth_duration_stimuli/002964_2014-06-08_17-46-11_094959634447_rgbf000091-resize_4/002964_2014-06-08_17-46-11_094959634447_rgbf000091-resize_4-target.png,125,1.6909999999999998,6,19964,125,feet,jsons/VE125_randls_57.json,1096294,1436692,35,Man
159,344496,DepthScenes,duration_manipulation_targetAtFixation,jsons/VE125_randls_57.json,http://54.235.29.9/FacialAge/BNav_EC2/DepthDuration/v2_depth_duration_MTurk/v2_DepthDuration_HTML.html#454,454,1364,625,1364,768,8-29-2022,12-3-11,160,depth_duration_stimuli/002136_2014-06-25_21-18-03_260595134347_rgbf000109-resize_3/002136_2014-06-25_21-18-03_260595134347_rgbf000109-resize_3-target.png,125,1.9569999999999999,0,3686,125,feet,jsons/VE125_randls_57.json,1096294,1436692,35,Man
160,344496,DepthScenes,duration_manipulation_targetAtFixation,jsons/VE125_randls_57.json,http://54.235.29.9/FacialAge/BNav_EC2/DepthDuration/v2_depth_duration_MTurk/v2_DepthDuration_HTML.html#454,454,1364,625,1364,768,8-29-2022,12-3-11,161,depth_duration_stimuli/000917_2014-06-09_22-45-29_260595134347_rgbf000149-resize_3/000917_2014-06-09_22-45-29_260595134347_rgbf000149-resize_3-target.png,125,4.1865,12,37639,122,feet,jsons/VE125_randls_57.json,1096294,1436692,35,Man
161,344496,DepthScenes,duration_manipulation_targetAtFixation,jsons/VE125_randls_57.json,http://54.235.29.9/FacialAge/BNav_EC2/DepthDuration/v2_depth_duration_MTurk/v2_DepthDuration_HTML.html#454,454,1364,625,1364,768,8-29-2022,12-3-11,162,depth_duration_stimuli/002323_2014-06-28_20-01-54_260595134347_rgbf000051-resize_4/002323_2014-06-28_20-01-54_260595134347_rgbf000051-resize_4-target.png,125,3.7310000000000003,0,12949,125,feet,jsons/VE125_randls_57.json,1096294,1436692,35,Man
162,344496,DepthScenes,duration_manipulation_targetAtFixation,jsons/VE125_randls_57.json,http://54.235.29.9/FacialAge/BNav_EC2/DepthDuration/v2_depth_duration_MTurk/v2_DepthDuration_HTML.html#454,454,1364,625,1364,768,8-29-2022,12-3-11,163,depth_duration_stimuli/002043_2014-06-24_20-29-38_260595134347_rgbf000039-resize_4/002043_2014-06-24_20-29-38_260595134347_rgbf000039-resize_4-target.png,125,2.8435,10,3946,125,feet,jsons/VE125_randls_57.json,1096294,1436692,35,Man
163,344496,DepthScenes,duration_manipulation_targetAtFixation,jsons/VE125_randls_57.json,http://54.235.29.9/FacialAge/BNav_EC2/DepthDuration/v2_depth_duration_MTurk/v2_DepthDuration_HTML.html#454,454,1364,625,1364,768,8-29-2022,12-3-11,164,depth_duration_stimuli/003048_2014-06-15_13-49-43_094959634447_rgbf000150-resize_1/003048_2014-06-15_13-49-43_094959634447_rgbf000150-resize_1-target.png,125,4.0035,12,2628,125,feet,jsons/VE125_randls_57.json,1096294,1436692,35,Man
