,subjID,experimentName,versionName,sequenceName,url,selected_row,windowWidth,windowHeight,screenWidth,screenHeight,startDate,startTime,trial,stimulus,duration,actual_depth,depth_estimate,trial_RT,log_sceneDuration,unitSelection,seq_filepath,experimentTime,totalTime,age,gender
0,348412,DepthScenes,duration_manipulation_targetAtFixation,jsons/v1_VE250_randls_27_rotated.json,http://54.235.29.9/FacialAge/BNav_EC2/DepthDuration/v2_depth_duration_MTurk/v2_DepthDuration_HTML.html#109,109,1440,789,1440,900,8-20-2022,11-31-12,1,depth_duration_stimuli/003079_2014-06-15_15-18-20_094959634447_rgbf000152-resize_8/003079_2014-06-15_15-18-20_094959634447_rgbf000152-resize_8-target.png,250,2.8775,12,2953,248,feet,jsons/v1_VE250_randls_27_rotated.json,483996,553690,49,Woman
1,348412,DepthScenes,duration_manipulation_targetAtFixation,jsons/v1_VE250_randls_27_rotated.json,http://54.235.29.9/FacialAge/BNav_EC2/DepthDuration/v2_depth_duration_MTurk/v2_DepthDuration_HTML.html#109,109,1440,789,1440,900,8-20-2022,11-31-12,2,depth_duration_stimuli/000506_2014-06-08_23-21-00_260595134347_rgbf000070-resize_7/000506_2014-06-08_23-21-00_260595134347_rgbf000070-resize_7-target.png,250,4.0585,5,2546,248,feet,jsons/v1_VE250_randls_27_rotated.json,483996,553690,49,Woman
2,348412,DepthScenes,duration_manipulation_targetAtFixation,jsons/v1_VE250_randls_27_rotated.json,http://54.235.29.9/FacialAge/BNav_EC2/DepthDuration/v2_depth_duration_MTurk/v2_DepthDuration_HTML.html#109,109,1440,789,1440,900,8-20-2022,11-31-12,3,depth_duration_stimuli/003081_2014-06-15_15-19-16_094959634447_rgbf000150-resize_1/003081_2014-06-15_15-19-16_094959634447_rgbf000150-resize_1-target.png,250,3.9125,6,2396,250,feet,jsons/v1_VE250_randls_27_rotated.json,483996,553690,49,Woman
3,348412,DepthScenes,duration_manipulation_targetAtFixation,jsons/v1_VE250_randls_27_rotated.json,http://54.235.29.9/FacialAge/BNav_EC2/DepthDuration/v2_depth_duration_MTurk/v2_DepthDuration_HTML.html#109,109,1440,789,1440,900,8-20-2022,11-31-12,4,depth_duration_stimuli/001417_2014-06-19_16-25-36_260595134347_rgbf000115-resize_5/001417_2014-06-19_16-25-36_260595134347_rgbf000115-resize_5-target.png,250,4.6255,4,2139,250,feet,jsons/v1_VE250_randls_27_rotated.json,483996,553690,49,Woman
4,348412,DepthScenes,duration_manipulation_targetAtFixation,jsons/v1_VE250_randls_27_rotated.json,http://54.235.29.9/FacialAge/BNav_EC2/DepthDuration/v2_depth_duration_MTurk/v2_DepthDuration_HTML.html#109,109,1440,789,1440,900,8-20-2022,11-31-12,5,depth_duration_stimuli/001094_2014-06-15_17-36-00_260595134347_rgbf000205-resize_0/001094_2014-06-15_17-36-00_260595134347_rgbf000205-resize_0-target.png,250,4.2175,8,2314,250,feet,jsons/v1_VE250_randls_27_rotated.json,483996,553690,49,Woman
5,348412,DepthScenes,duration_manipulation_targetAtFixation,jsons/v1_VE250_randls_27_rotated.json,http://54.235.29.9/FacialAge/BNav_EC2/DepthDuration/v2_depth_duration_MTurk/v2_DepthDuration_HTML.html#109,109,1440,789,1440,900,8-20-2022,11-31-12,6,depth_duration_stimuli/000692_2014-06-08_13-09-42_260595134347_rgbf000199-resize_2/000692_2014-06-08_13-09-42_260595134347_rgbf000199-resize_2-target.png,250,3.661,5,2186,249,feet,jsons/v1_VE250_randls_27_rotated.json,483996,553690,49,Woman
6,348412,DepthScenes,duration_manipulation_targetAtFixation,jsons/v1_VE250_randls_27_rotated.json,http://54.235.29.9/FacialAge/BNav_EC2/DepthDuration/v2_depth_duration_MTurk/v2_DepthDuration_HTML.html#109,109,1440,789,1440,900,8-20-2022,11-31-12,7,depth_duration_stimuli/002209_2014-06-28_18-36-10_260595134347_rgbf000051-resize_1/002209_2014-06-28_18-36-10_260595134347_rgbf000051-resize_1-target.png,250,2.057,6,2259,250,feet,jsons/v1_VE250_randls_27_rotated.json,483996,553690,49,Woman
7,348412,DepthScenes,duration_manipulation_targetAtFixation,jsons/v1_VE250_randls_27_rotated.json,http://54.235.29.9/FacialAge/BNav_EC2/DepthDuration/v2_depth_duration_MTurk/v2_DepthDuration_HTML.html#109,109,1440,789,1440,900,8-20-2022,11-31-12,8,depth_duration_stimuli/002763_2014-06-22_19-13-10_094959634447_rgbf000075-resize_4/002763_2014-06-22_19-13-10_094959634447_rgbf000075-resize_4-target.png,250,1.68375,5,4333,251,feet,jsons/v1_VE250_randls_27_rotated.json,483996,553690,49,Woman
8,348412,DepthScenes,duration_manipulation_targetAtFixation,jsons/v1_VE250_randls_27_rotated.json,http://54.235.29.9/FacialAge/BNav_EC2/DepthDuration/v2_depth_duration_MTurk/v2_DepthDuration_HTML.html#109,109,1440,789,1440,900,8-20-2022,11-31-12,9,depth_duration_stimuli/000866_2014-06-09_20-45-42_260595134347_rgbf000139-resize_1/000866_2014-06-09_20-45-42_260595134347_rgbf000139-resize_1-target.png,250,3.2155,12,2458,249,feet,jsons/v1_VE250_randls_27_rotated.json,483996,553690,49,Woman
9,348412,DepthScenes,duration_manipulation_targetAtFixation,jsons/v1_VE250_randls_27_rotated.json,http://54.235.29.9/FacialAge/BNav_EC2/DepthDuration/v2_depth_duration_MTurk/v2_DepthDuration_HTML.html#109,109,1440,789,1440,900,8-20-2022,11-31-12,10,depth_duration_stimuli/002989_2014-06-15_12-25-03_094959634447_rgbf000150-resize_3/002989_2014-06-15_12-25-03_094959634447_rgbf000150-resize_3-target.png,250,4.1975,15,2217,249,feet,jsons/v1_VE250_randls_27_rotated.json,483996,553690,49,Woman
10,348412,DepthScenes,duration_manipulation_targetAtFixation,jsons/v1_VE250_randls_27_rotated.json,http://54.235.29.9/FacialAge/BNav_EC2/DepthDuration/v2_depth_duration_MTurk/v2_DepthDuration_HTML.html#109,109,1440,789,1440,900,8-20-2022,11-31-12,11,depth_duration_stimuli/002660_2014-06-13_15-44-18_094959634447_rgbf001878-resize_2/002660_2014-06-13_15-44-18_094959634447_rgbf001878-resize_2-target.png,250,3.576,6,2858,250,feet,jsons/v1_VE250_randls_27_rotated.json,483996,553690,49,Woman
11,348412,DepthScenes,duration_manipulation_targetAtFixation,jsons/v1_VE250_randls_27_rotated.json,http://54.235.29.9/FacialAge/BNav_EC2/DepthDuration/v2_depth_duration_MTurk/v2_DepthDuration_HTML.html#109,109,1440,789,1440,900,8-20-2022,11-31-12,12,depth_duration_stimuli/002153_2014-06-25_21-27-18_260595134347_rgbf000038-resize_5/002153_2014-06-25_21-27-18_260595134347_rgbf000038-resize_5-target.png,250,2.505,7,2491,251,feet,jsons/v1_VE250_randls_27_rotated.json,483996,553690,49,Woman
12,348412,DepthScenes,duration_manipulation_targetAtFixation,jsons/v1_VE250_randls_27_rotated.json,http://54.235.29.9/FacialAge/BNav_EC2/DepthDuration/v2_depth_duration_MTurk/v2_DepthDuration_HTML.html#109,109,1440,789,1440,900,8-20-2022,11-31-12,13,depth_duration_stimuli/002425_2014-06-28_20-27-29_260595134347_rgbf000031-resize_8/002425_2014-06-28_20-27-29_260595134347_rgbf000031-resize_8-target.png,250,3.8960000000000004,8,2323,250,feet,jsons/v1_VE250_randls_27_rotated.json,483996,553690,49,Woman
13,348412,DepthScenes,duration_manipulation_targetAtFixation,jsons/v1_VE250_randls_27_rotated.json,http://54.235.29.9/FacialAge/BNav_EC2/DepthDuration/v2_depth_duration_MTurk/v2_DepthDuration_HTML.html#109,109,1440,789,1440,900,8-20-2022,11-31-12,14,depth_duration_stimuli/000642_2014-06-08_16-59-25_260595134347_rgbf000098-resize_2/000642_2014-06-08_16-59-25_260595134347_rgbf000098-resize_2-target.png,250,2.8815,4,2218,250,feet,jsons/v1_VE250_randls_27_rotated.json,483996,553690,49,Woman
14,348412,DepthScenes,duration_manipulation_targetAtFixation,jsons/v1_VE250_randls_27_rotated.json,http://54.235.29.9/FacialAge/BNav_EC2/DepthDuration/v2_depth_duration_MTurk/v2_DepthDuration_HTML.html#109,109,1440,789,1440,900,8-20-2022,11-31-12,15,depth_duration_stimuli/002875_2014-06-01_15-19-00_094959634447_rgbf000151-resize_1/002875_2014-06-01_15-19-00_094959634447_rgbf000151-resize_1-target.png,250,1.9675,5,2491,249,feet,jsons/v1_VE250_randls_27_rotated.json,483996,553690,49,Woman
15,348412,DepthScenes,duration_manipulation_targetAtFixation,jsons/v1_VE250_randls_27_rotated.json,http://54.235.29.9/FacialAge/BNav_EC2/DepthDuration/v2_depth_duration_MTurk/v2_DepthDuration_HTML.html#109,109,1440,789,1440,900,8-20-2022,11-31-12,16,depth_duration_stimuli/001011_2014-06-08_23-18-54_260595134347_rgbf000044-resize_4/001011_2014-06-08_23-18-54_260595134347_rgbf000044-resize_4-target.png,250,2.4730000000000003,6,2125,236,feet,jsons/v1_VE250_randls_27_rotated.json,483996,553690,49,Woman
16,348412,DepthScenes,duration_manipulation_targetAtFixation,jsons/v1_VE250_randls_27_rotated.json,http://54.235.29.9/FacialAge/BNav_EC2/DepthDuration/v2_depth_duration_MTurk/v2_DepthDuration_HTML.html#109,109,1440,789,1440,900,8-20-2022,11-31-12,17,depth_duration_stimuli/002568_2014-06-24_13-59-21_094959634447_rgbf000062-resize_4/002568_2014-06-24_13-59-21_094959634447_rgbf000062-resize_4-target.png,250,3.015,8,2203,251,feet,jsons/v1_VE250_randls_27_rotated.json,483996,553690,49,Woman
17,348412,DepthScenes,duration_manipulation_targetAtFixation,jsons/v1_VE250_randls_27_rotated.json,http://54.235.29.9/FacialAge/BNav_EC2/DepthDuration/v2_depth_duration_MTurk/v2_DepthDuration_HTML.html#109,109,1440,789,1440,900,8-20-2022,11-31-12,18,depth_duration_stimuli/003492_2014-05-21_15-50-55_094959634447_rgbf000828-resize_1/003492_2014-05-21_15-50-55_094959634447_rgbf000828-resize_1-target.png,250,4.06875,9,2467,250,feet,jsons/v1_VE250_randls_27_rotated.json,483996,553690,49,Woman
18,348412,DepthScenes,duration_manipulation_targetAtFixation,jsons/v1_VE250_randls_27_rotated.json,http://54.235.29.9/FacialAge/BNav_EC2/DepthDuration/v2_depth_duration_MTurk/v2_DepthDuration_HTML.html#109,109,1440,789,1440,900,8-20-2022,11-31-12,19,depth_duration_stimuli/001498_2014-06-19_17-45-14_260595134347_rgbf000129-resize_4/001498_2014-06-19_17-45-14_260595134347_rgbf000129-resize-original.jpg,250,1.4075,0,2723,250,feet,jsons/v1_VE250_randls_27_rotated.json,483996,553690,49,Woman
19,348412,DepthScenes,duration_manipulation_targetAtFixation,jsons/v1_VE250_randls_27_rotated.json,http://54.235.29.9/FacialAge/BNav_EC2/DepthDuration/v2_depth_duration_MTurk/v2_DepthDuration_HTML.html#109,109,1440,789,1440,900,8-20-2022,11-31-12,20,depth_duration_stimuli/002467_2014-06-28_20-38-07_260595134347_rgbf000026-resize_2/002467_2014-06-28_20-38-07_260595134347_rgbf000026-resize_2-target.png,250,4.742,7,2203,251,feet,jsons/v1_VE250_randls_27_rotated.json,483996,553690,49,Woman
20,348412,DepthScenes,duration_manipulation_targetAtFixation,jsons/v1_VE250_randls_27_rotated.json,http://54.235.29.9/FacialAge/BNav_EC2/DepthDuration/v2_depth_duration_MTurk/v2_DepthDuration_HTML.html#109,109,1440,789,1440,900,8-20-2022,11-31-12,21,depth_duration_stimuli/002570_2014-06-24_13-59-54_094959634447_rgbf000059-resize_0/002570_2014-06-24_13-59-54_094959634447_rgbf000059-resize_0-target.png,250,4.037,5,2105,241,feet,jsons/v1_VE250_randls_27_rotated.json,483996,553690,49,Woman
21,348412,DepthScenes,duration_manipulation_targetAtFixation,jsons/v1_VE250_randls_27_rotated.json,http://54.235.29.9/FacialAge/BNav_EC2/DepthDuration/v2_depth_duration_MTurk/v2_DepthDuration_HTML.html#109,109,1440,789,1440,900,8-20-2022,11-31-12,22,depth_duration_stimuli/000734_2014-06-08_17-39-11_260595134347_rgbf000128-resize_2/000734_2014-06-08_17-39-11_260595134347_rgbf000128-resize_2-target.png,250,4.098,6,2258,249,feet,jsons/v1_VE250_randls_27_rotated.json,483996,553690,49,Woman
22,348412,DepthScenes,duration_manipulation_targetAtFixation,jsons/v1_VE250_randls_27_rotated.json,http://54.235.29.9/FacialAge/BNav_EC2/DepthDuration/v2_depth_duration_MTurk/v2_DepthDuration_HTML.html#109,109,1440,789,1440,900,8-20-2022,11-31-12,23,depth_duration_stimuli/000739_2014-06-08_18-45-58_260595134347_rgbf000068-resize_1/000739_2014-06-08_18-45-58_260595134347_rgbf000068-resize_1-target.png,250,3.534,6,2340,249,feet,jsons/v1_VE250_randls_27_rotated.json,483996,553690,49,Woman
23,348412,DepthScenes,duration_manipulation_targetAtFixation,jsons/v1_VE250_randls_27_rotated.json,http://54.235.29.9/FacialAge/BNav_EC2/DepthDuration/v2_depth_duration_MTurk/v2_DepthDuration_HTML.html#109,109,1440,789,1440,900,8-20-2022,11-31-12,24,depth_duration_stimuli/002199_2014-06-28_18-33-56_260595134347_rgbf000074-resize_0/002199_2014-06-28_18-33-56_260595134347_rgbf000074-resize_0-target.png,250,1.996,2,2148,244,feet,jsons/v1_VE250_randls_27_rotated.json,483996,553690,49,Woman
24,348412,DepthScenes,duration_manipulation_targetAtFixation,jsons/v1_VE250_randls_27_rotated.json,http://54.235.29.9/FacialAge/BNav_EC2/DepthDuration/v2_depth_duration_MTurk/v2_DepthDuration_HTML.html#109,109,1440,789,1440,900,8-20-2022,11-31-12,25,depth_duration_stimuli/001056_2014-06-08_18-46-44_260595134347_rgbf000068-resize_0/001056_2014-06-08_18-46-44_260595134347_rgbf000068-resize_0-target.png,250,2.6625,3,2245,250,feet,jsons/v1_VE250_randls_27_rotated.json,483996,553690,49,Woman
25,348412,DepthScenes,duration_manipulation_targetAtFixation,jsons/v1_VE250_randls_27_rotated.json,http://54.235.29.9/FacialAge/BNav_EC2/DepthDuration/v2_depth_duration_MTurk/v2_DepthDuration_HTML.html#109,109,1440,789,1440,900,8-20-2022,11-31-12,26,depth_duration_stimuli/000943_2014-06-09_19-31-07_260595134347_rgbf000128-resize_1/000943_2014-06-09_19-31-07_260595134347_rgbf000128-resize_1-target.png,250,1.9765,4,2171,251,feet,jsons/v1_VE250_randls_27_rotated.json,483996,553690,49,Woman
26,348412,DepthScenes,duration_manipulation_targetAtFixation,jsons/v1_VE250_randls_27_rotated.json,http://54.235.29.9/FacialAge/BNav_EC2/DepthDuration/v2_depth_duration_MTurk/v2_DepthDuration_HTML.html#109,109,1440,789,1440,900,8-20-2022,11-31-12,27,depth_duration_stimuli/003070_2014-06-15_14-58-27_094959634447_rgbf000150-resize_3/003070_2014-06-15_14-58-27_094959634447_rgbf000150-resize_3-target.png,250,2.9415,5,2161,249,feet,jsons/v1_VE250_randls_27_rotated.json,483996,553690,49,Woman
27,348412,DepthScenes,duration_manipulation_targetAtFixation,jsons/v1_VE250_randls_27_rotated.json,http://54.235.29.9/FacialAge/BNav_EC2/DepthDuration/v2_depth_duration_MTurk/v2_DepthDuration_HTML.html#109,109,1440,789,1440,900,8-20-2022,11-31-12,28,depth_duration_stimuli/002750_2014-06-22_19-08-03_094959634447_rgbf000094-resize_4/002750_2014-06-22_19-08-03_094959634447_rgbf000094-resize_4-target.png,250,2.354,6,2204,251,feet,jsons/v1_VE250_randls_27_rotated.json,483996,553690,49,Woman
28,348412,DepthScenes,duration_manipulation_targetAtFixation,jsons/v1_VE250_randls_27_rotated.json,http://54.235.29.9/FacialAge/BNav_EC2/DepthDuration/v2_depth_duration_MTurk/v2_DepthDuration_HTML.html#109,109,1440,789,1440,900,8-20-2022,11-31-12,29,depth_duration_stimuli/002549_2014-06-24_13-41-39_094959634447_rgbf000022-resize_3/002549_2014-06-24_13-41-39_094959634447_rgbf000022-resize_3-target.png,250,1.476,8,2499,251,feet,jsons/v1_VE250_randls_27_rotated.json,483996,553690,49,Woman
29,348412,DepthScenes,duration_manipulation_targetAtFixation,jsons/v1_VE250_randls_27_rotated.json,http://54.235.29.9/FacialAge/BNav_EC2/DepthDuration/v2_depth_duration_MTurk/v2_DepthDuration_HTML.html#109,109,1440,789,1440,900,8-20-2022,11-31-12,30,depth_duration_stimuli/002072_2014-06-24_21-48-06_260595134347_rgbf000115-resize_0/002072_2014-06-24_21-48-06_260595134347_rgbf000115-resize-original.jpg,250,4.702,0,2555,251,feet,jsons/v1_VE250_randls_27_rotated.json,483996,553690,49,Woman
30,348412,DepthScenes,duration_manipulation_targetAtFixation,jsons/v1_VE250_randls_27_rotated.json,http://54.235.29.9/FacialAge/BNav_EC2/DepthDuration/v2_depth_duration_MTurk/v2_DepthDuration_HTML.html#109,109,1440,789,1440,900,8-20-2022,11-31-12,31,depth_duration_stimuli/003083_2014-06-15_15-21-03_094959634447_rgbf000063-resize_1/003083_2014-06-15_15-21-03_094959634447_rgbf000063-resize_1-target.png,250,4.1405,8,4532,250,feet,jsons/v1_VE250_randls_27_rotated.json,483996,553690,49,Woman
31,348412,DepthScenes,duration_manipulation_targetAtFixation,jsons/v1_VE250_randls_27_rotated.json,http://54.235.29.9/FacialAge/BNav_EC2/DepthDuration/v2_depth_duration_MTurk/v2_DepthDuration_HTML.html#109,109,1440,789,1440,900,8-20-2022,11-31-12,32,depth_duration_stimuli/000486_2014-06-09_20-47-20_260595134347_rgbf000143-resize_2/000486_2014-06-09_20-47-20_260595134347_rgbf000143-resize_2-target.png,250,4.8325,6,3370,251,feet,jsons/v1_VE250_randls_27_rotated.json,483996,553690,49,Woman
32,348412,DepthScenes,duration_manipulation_targetAtFixation,jsons/v1_VE250_randls_27_rotated.json,http://54.235.29.9/FacialAge/BNav_EC2/DepthDuration/v2_depth_duration_MTurk/v2_DepthDuration_HTML.html#109,109,1440,789,1440,900,8-20-2022,11-31-12,33,depth_duration_stimuli/002444_2014-06-28_20-32-08_260595134347_rgbf000027-resize_0/002444_2014-06-28_20-32-08_260595134347_rgbf000027-resize_0-target.png,250,4.388999999999999,8,2220,249,feet,jsons/v1_VE250_randls_27_rotated.json,483996,553690,49,Woman
33,348412,DepthScenes,duration_manipulation_targetAtFixation,jsons/v1_VE250_randls_27_rotated.json,http://54.235.29.9/FacialAge/BNav_EC2/DepthDuration/v2_depth_duration_MTurk/v2_DepthDuration_HTML.html#109,109,1440,789,1440,900,8-20-2022,11-31-12,34,depth_duration_stimuli/000436_2014-06-09_22-25-11_260595134347_rgbf000137-resize_1/000436_2014-06-09_22-25-11_260595134347_rgbf000137-resize_1-target.png,250,4.0705,4,2331,252,feet,jsons/v1_VE250_randls_27_rotated.json,483996,553690,49,Woman
34,348412,DepthScenes,duration_manipulation_targetAtFixation,jsons/v1_VE250_randls_27_rotated.json,http://54.235.29.9/FacialAge/BNav_EC2/DepthDuration/v2_depth_duration_MTurk/v2_DepthDuration_HTML.html#109,109,1440,789,1440,900,8-20-2022,11-31-12,35,depth_duration_stimuli/000502_2014-06-08_23-02-32_260595134347_rgbf000063-resize_4/000502_2014-06-08_23-02-32_260595134347_rgbf000063-resize_4-target.png,250,2.431,6,2266,251,feet,jsons/v1_VE250_randls_27_rotated.json,483996,553690,49,Woman
35,348412,DepthScenes,duration_manipulation_targetAtFixation,jsons/v1_VE250_randls_27_rotated.json,http://54.235.29.9/FacialAge/BNav_EC2/DepthDuration/v2_depth_duration_MTurk/v2_DepthDuration_HTML.html#109,109,1440,789,1440,900,8-20-2022,11-31-12,36,depth_duration_stimuli/001199_2014-06-17_16-03-48_260595134347_rgbf000077-resize_0/001199_2014-06-17_16-03-48_260595134347_rgbf000077-resize_0-target.png,250,3.4375,8,2140,251,feet,jsons/v1_VE250_randls_27_rotated.json,483996,553690,49,Woman
36,348412,DepthScenes,duration_manipulation_targetAtFixation,jsons/v1_VE250_randls_27_rotated.json,http://54.235.29.9/FacialAge/BNav_EC2/DepthDuration/v2_depth_duration_MTurk/v2_DepthDuration_HTML.html#109,109,1440,789,1440,900,8-20-2022,11-31-12,37,depth_duration_stimuli/001136_2014-06-17_15-19-41_260595134347_rgbf000076-resize_3/001136_2014-06-17_15-19-41_260595134347_rgbf000076-resize_3-target.png,250,1.8655,9,2187,250,feet,jsons/v1_VE250_randls_27_rotated.json,483996,553690,49,Woman
37,348412,DepthScenes,duration_manipulation_targetAtFixation,jsons/v1_VE250_randls_27_rotated.json,http://54.235.29.9/FacialAge/BNav_EC2/DepthDuration/v2_depth_duration_MTurk/v2_DepthDuration_HTML.html#109,109,1440,789,1440,900,8-20-2022,11-31-12,38,depth_duration_stimuli/001164_2014-06-17_15-35-46_260595134347_rgbf000085-resize_3/001164_2014-06-17_15-35-46_260595134347_rgbf000085-resize_3-target.png,250,2.354,6,2300,265,feet,jsons/v1_VE250_randls_27_rotated.json,483996,553690,49,Woman
38,348412,DepthScenes,duration_manipulation_targetAtFixation,jsons/v1_VE250_randls_27_rotated.json,http://54.235.29.9/FacialAge/BNav_EC2/DepthDuration/v2_depth_duration_MTurk/v2_DepthDuration_HTML.html#109,109,1440,789,1440,900,8-20-2022,11-31-12,39,depth_duration_stimuli/003129_2014-05-12_10-48-10_094959634447_rgbf000100-resize_0/003129_2014-05-12_10-48-10_094959634447_rgbf000100-resize_0-target.png,250,4.9305,7,2539,249,feet,jsons/v1_VE250_randls_27_rotated.json,483996,553690,49,Woman
39,348412,DepthScenes,duration_manipulation_targetAtFixation,jsons/v1_VE250_randls_27_rotated.json,http://54.235.29.9/FacialAge/BNav_EC2/DepthDuration/v2_depth_duration_MTurk/v2_DepthDuration_HTML.html#109,109,1440,789,1440,900,8-20-2022,11-31-12,40,depth_duration_stimuli/000414_2014-06-04_19-49-13_260595134347_rgbf000044-resize_0/000414_2014-06-04_19-49-13_260595134347_rgbf000044-resize_0-target.png,250,4.329,4,2137,250,feet,jsons/v1_VE250_randls_27_rotated.json,483996,553690,49,Woman
40,348412,DepthScenes,duration_manipulation_targetAtFixation,jsons/v1_VE250_randls_27_rotated.json,http://54.235.29.9/FacialAge/BNav_EC2/DepthDuration/v2_depth_duration_MTurk/v2_DepthDuration_HTML.html#109,109,1440,789,1440,900,8-20-2022,11-31-12,41,depth_duration_stimuli/000191_2014-05-12_17-07-38_260595134347_rgbf000199-resize_0/000191_2014-05-12_17-07-38_260595134347_rgbf000199-resize_0-target.png,250,3.7995,5,2348,250,feet,jsons/v1_VE250_randls_27_rotated.json,483996,553690,49,Woman
41,348412,DepthScenes,duration_manipulation_targetAtFixation,jsons/v1_VE250_randls_27_rotated.json,http://54.235.29.9/FacialAge/BNav_EC2/DepthDuration/v2_depth_duration_MTurk/v2_DepthDuration_HTML.html#109,109,1440,789,1440,900,8-20-2022,11-31-12,42,depth_duration_stimuli/000493_2014-06-09_21-01-18_260595134347_rgbf000196-resize_3/000493_2014-06-09_21-01-18_260595134347_rgbf000196-resize_3-target.png,250,3.44,8,2171,250,feet,jsons/v1_VE250_randls_27_rotated.json,483996,553690,49,Woman
42,348412,DepthScenes,duration_manipulation_targetAtFixation,jsons/v1_VE250_randls_27_rotated.json,http://54.235.29.9/FacialAge/BNav_EC2/DepthDuration/v2_depth_duration_MTurk/v2_DepthDuration_HTML.html#109,109,1440,789,1440,900,8-20-2022,11-31-12,43,depth_duration_stimuli/001828_2014-06-26_21-40-03_260595134347_rgbf000024-resize_0/001828_2014-06-26_21-40-03_260595134347_rgbf000024-resize_0-target.png,250,4.8260000000000005,6,2154,250,feet,jsons/v1_VE250_randls_27_rotated.json,483996,553690,49,Woman
43,348412,DepthScenes,duration_manipulation_targetAtFixation,jsons/v1_VE250_randls_27_rotated.json,http://54.235.29.9/FacialAge/BNav_EC2/DepthDuration/v2_depth_duration_MTurk/v2_DepthDuration_HTML.html#109,109,1440,789,1440,900,8-20-2022,11-31-12,44,depth_duration_stimuli/000009_2014-05-26_14-32-05_260595134347_rgbf000034-resize_3/000009_2014-05-26_14-32-05_260595134347_rgbf000034-resize_3-target.png,250,3.8715,8,3129,249,feet,jsons/v1_VE250_randls_27_rotated.json,483996,553690,49,Woman
44,348412,DepthScenes,duration_manipulation_targetAtFixation,jsons/v1_VE250_randls_27_rotated.json,http://54.235.29.9/FacialAge/BNav_EC2/DepthDuration/v2_depth_duration_MTurk/v2_DepthDuration_HTML.html#109,109,1440,789,1440,900,8-20-2022,11-31-12,45,depth_duration_stimuli/002995_2014-06-15_12-31-26_094959634447_rgbf000150-resize_1/002995_2014-06-15_12-31-26_094959634447_rgbf000150-resize_1-target.png,250,3.8360000000000003,8,2948,251,feet,jsons/v1_VE250_randls_27_rotated.json,483996,553690,49,Woman
45,348412,DepthScenes,duration_manipulation_targetAtFixation,jsons/v1_VE250_randls_27_rotated.json,http://54.235.29.9/FacialAge/BNav_EC2/DepthDuration/v2_depth_duration_MTurk/v2_DepthDuration_HTML.html#109,109,1440,789,1440,900,8-20-2022,11-31-12,46,depth_duration_stimuli/002748_2014-06-22_19-07-22_094959634447_rgbf000078-resize_1/002748_2014-06-22_19-07-22_094959634447_rgbf000078-resize_1-target.png,250,4.6705,6,2425,249,feet,jsons/v1_VE250_randls_27_rotated.json,483996,553690,49,Woman
46,348412,DepthScenes,duration_manipulation_targetAtFixation,jsons/v1_VE250_randls_27_rotated.json,http://54.235.29.9/FacialAge/BNav_EC2/DepthDuration/v2_depth_duration_MTurk/v2_DepthDuration_HTML.html#109,109,1440,789,1440,900,8-20-2022,11-31-12,47,depth_duration_stimuli/000780_2014-06-08_22-28-29_260595134347_rgbf000126-resize_1/000780_2014-06-08_22-28-29_260595134347_rgbf000126-resize_1-target.png,250,3.3825,12,2602,251,feet,jsons/v1_VE250_randls_27_rotated.json,483996,553690,49,Woman
47,348412,DepthScenes,duration_manipulation_targetAtFixation,jsons/v1_VE250_randls_27_rotated.json,http://54.235.29.9/FacialAge/BNav_EC2/DepthDuration/v2_depth_duration_MTurk/v2_DepthDuration_HTML.html#109,109,1440,789,1440,900,8-20-2022,11-31-12,48,depth_duration_stimuli/002445_2014-06-28_20-32-16_260595134347_rgbf000029-resize_4/002445_2014-06-28_20-32-16_260595134347_rgbf000029-resize_4-target.png,250,2.5315,5,2211,251,feet,jsons/v1_VE250_randls_27_rotated.json,483996,553690,49,Woman
48,348412,DepthScenes,duration_manipulation_targetAtFixation,jsons/v1_VE250_randls_27_rotated.json,http://54.235.29.9/FacialAge/BNav_EC2/DepthDuration/v2_depth_duration_MTurk/v2_DepthDuration_HTML.html#109,109,1440,789,1440,900,8-20-2022,11-31-12,49,depth_duration_stimuli/001170_2014-06-17_15-43-44_260595134347_rgbf000096-resize_6/001170_2014-06-17_15-43-44_260595134347_rgbf000096-resize-original.jpg,250,1.1909999999999998,0,2362,250,feet,jsons/v1_VE250_randls_27_rotated.json,483996,553690,49,Woman
49,348412,DepthScenes,duration_manipulation_targetAtFixation,jsons/v1_VE250_randls_27_rotated.json,http://54.235.29.9/FacialAge/BNav_EC2/DepthDuration/v2_depth_duration_MTurk/v2_DepthDuration_HTML.html#109,109,1440,789,1440,900,8-20-2022,11-31-12,50,depth_duration_stimuli/003423_2014-05-21_10-23-26_094959634447_rgbf002665-resize_2/003423_2014-05-21_10-23-26_094959634447_rgbf002665-resize_2-target.png,250,3.2575,5,3564,250,feet,jsons/v1_VE250_randls_27_rotated.json,483996,553690,49,Woman
50,348412,DepthScenes,duration_manipulation_targetAtFixation,jsons/v1_VE250_randls_27_rotated.json,http://54.235.29.9/FacialAge/BNav_EC2/DepthDuration/v2_depth_duration_MTurk/v2_DepthDuration_HTML.html#109,109,1440,789,1440,900,8-20-2022,11-31-12,51,depth_duration_stimuli/002905_2014-06-03_18-04-43_094959634447_rgbf000151-resize_2/002905_2014-06-03_18-04-43_094959634447_rgbf000151-resize_2-target.png,250,2.0295,7,2242,250,feet,jsons/v1_VE250_randls_27_rotated.json,483996,553690,49,Woman
51,348412,DepthScenes,duration_manipulation_targetAtFixation,jsons/v1_VE250_randls_27_rotated.json,http://54.235.29.9/FacialAge/BNav_EC2/DepthDuration/v2_depth_duration_MTurk/v2_DepthDuration_HTML.html#109,109,1440,789,1440,900,8-20-2022,11-31-12,52,depth_duration_stimuli/000137_2014-05-20_17-04-49_260595134347_rgbf000120-resize_1/000137_2014-05-20_17-04-49_260595134347_rgbf000120-resize_1-target.png,250,3.786,6,2754,250,feet,jsons/v1_VE250_randls_27_rotated.json,483996,553690,49,Woman
52,348412,DepthScenes,duration_manipulation_targetAtFixation,jsons/v1_VE250_randls_27_rotated.json,http://54.235.29.9/FacialAge/BNav_EC2/DepthDuration/v2_depth_duration_MTurk/v2_DepthDuration_HTML.html#109,109,1440,789,1440,900,8-20-2022,11-31-12,53,depth_duration_stimuli/000736_2014-06-08_18-24-15_260595134347_rgbf000206-resize_3/000736_2014-06-08_18-24-15_260595134347_rgbf000206-resize_3-target.png,250,3.515,8,2443,250,feet,jsons/v1_VE250_randls_27_rotated.json,483996,553690,49,Woman
53,348412,DepthScenes,duration_manipulation_targetAtFixation,jsons/v1_VE250_randls_27_rotated.json,http://54.235.29.9/FacialAge/BNav_EC2/DepthDuration/v2_depth_duration_MTurk/v2_DepthDuration_HTML.html#109,109,1440,789,1440,900,8-20-2022,11-31-12,54,depth_duration_stimuli/002758_2014-06-22_19-11-20_094959634447_rgbf000128-resize_1/002758_2014-06-22_19-11-20_094959634447_rgbf000128-resize_1-target.png,250,2.555,8,2736,250,feet,jsons/v1_VE250_randls_27_rotated.json,483996,553690,49,Woman
54,348412,DepthScenes,duration_manipulation_targetAtFixation,jsons/v1_VE250_randls_27_rotated.json,http://54.235.29.9/FacialAge/BNav_EC2/DepthDuration/v2_depth_duration_MTurk/v2_DepthDuration_HTML.html#109,109,1440,789,1440,900,8-20-2022,11-31-12,55,depth_duration_stimuli/002630_2014-06-24_14-47-50_094959634447_rgbf000055-resize_1/002630_2014-06-24_14-47-50_094959634447_rgbf000055-resize_1-target.png,250,3.0095,5,2514,251,feet,jsons/v1_VE250_randls_27_rotated.json,483996,553690,49,Woman
55,348412,DepthScenes,duration_manipulation_targetAtFixation,jsons/v1_VE250_randls_27_rotated.json,http://54.235.29.9/FacialAge/BNav_EC2/DepthDuration/v2_depth_duration_MTurk/v2_DepthDuration_HTML.html#109,109,1440,789,1440,900,8-20-2022,11-31-12,56,depth_duration_stimuli/000742_2014-06-08_18-48-09_260595134347_rgbf000164-resize_4/000742_2014-06-08_18-48-09_260595134347_rgbf000164-resize_4-target.png,250,4.632,6,2195,251,feet,jsons/v1_VE250_randls_27_rotated.json,483996,553690,49,Woman
56,348412,DepthScenes,duration_manipulation_targetAtFixation,jsons/v1_VE250_randls_27_rotated.json,http://54.235.29.9/FacialAge/BNav_EC2/DepthDuration/v2_depth_duration_MTurk/v2_DepthDuration_HTML.html#109,109,1440,789,1440,900,8-20-2022,11-31-12,57,depth_duration_stimuli/001066_2014-06-08_22-03-20_260595134347_rgbf000066-resize_4/001066_2014-06-08_22-03-20_260595134347_rgbf000066-resize_4-target.png,250,4.2330000000000005,4,2379,258,feet,jsons/v1_VE250_randls_27_rotated.json,483996,553690,49,Woman
57,348412,DepthScenes,duration_manipulation_targetAtFixation,jsons/v1_VE250_randls_27_rotated.json,http://54.235.29.9/FacialAge/BNav_EC2/DepthDuration/v2_depth_duration_MTurk/v2_DepthDuration_HTML.html#109,109,1440,789,1440,900,8-20-2022,11-31-12,58,depth_duration_stimuli/002678_2014-06-13_16-15-32_094959634447_rgbf000151-resize_6/002678_2014-06-13_16-15-32_094959634447_rgbf000151-resize_6-target.png,250,2.1830000000000003,8,2675,249,feet,jsons/v1_VE250_randls_27_rotated.json,483996,553690,49,Woman
58,348412,DepthScenes,duration_manipulation_targetAtFixation,jsons/v1_VE250_randls_27_rotated.json,http://54.235.29.9/FacialAge/BNav_EC2/DepthDuration/v2_depth_duration_MTurk/v2_DepthDuration_HTML.html#109,109,1440,789,1440,900,8-20-2022,11-31-12,59,depth_duration_stimuli/000368_2014-06-09_15-53-01_260595134347_rgbf000155-resize_2/000368_2014-06-09_15-53-01_260595134347_rgbf000155-resize_2-target.png,250,2.4859999999999998,6,2385,249,feet,jsons/v1_VE250_randls_27_rotated.json,483996,553690,49,Woman
59,348412,DepthScenes,duration_manipulation_targetAtFixation,jsons/v1_VE250_randls_27_rotated.json,http://54.235.29.9/FacialAge/BNav_EC2/DepthDuration/v2_depth_duration_MTurk/v2_DepthDuration_HTML.html#109,109,1440,789,1440,900,8-20-2022,11-31-12,60,depth_duration_stimuli/003495_2014-05-21_16-01-51_094959634447_rgbf000100-resize_3/003495_2014-05-21_16-01-51_094959634447_rgbf000100-resize_3-target.png,250,1.6255,8,2074,251,feet,jsons/v1_VE250_randls_27_rotated.json,483996,553690,49,Woman
60,348412,DepthScenes,duration_manipulation_targetAtFixation,jsons/v1_VE250_randls_27_rotated.json,http://54.235.29.9/FacialAge/BNav_EC2/DepthDuration/v2_depth_duration_MTurk/v2_DepthDuration_HTML.html#109,109,1440,789,1440,900,8-20-2022,11-31-12,61,depth_duration_stimuli/001244_2014-06-17_16-47-45_260595134347_rgbf000030-resize_4/001244_2014-06-17_16-47-45_260595134347_rgbf000030-resize_4-target.png,250,2.0425,4,2211,250,feet,jsons/v1_VE250_randls_27_rotated.json,483996,553690,49,Woman
61,348412,DepthScenes,duration_manipulation_targetAtFixation,jsons/v1_VE250_randls_27_rotated.json,http://54.235.29.9/FacialAge/BNav_EC2/DepthDuration/v2_depth_duration_MTurk/v2_DepthDuration_HTML.html#109,109,1440,789,1440,900,8-20-2022,11-31-12,62,depth_duration_stimuli/000854_2014-06-09_19-43-13_260595134347_rgbf000066-resize_0/000854_2014-06-09_19-43-13_260595134347_rgbf000066-resize_0-target.png,250,3.068,6,2187,250,feet,jsons/v1_VE250_randls_27_rotated.json,483996,553690,49,Woman
62,348412,DepthScenes,duration_manipulation_targetAtFixation,jsons/v1_VE250_randls_27_rotated.json,http://54.235.29.9/FacialAge/BNav_EC2/DepthDuration/v2_depth_duration_MTurk/v2_DepthDuration_HTML.html#109,109,1440,789,1440,900,8-20-2022,11-31-12,63,depth_duration_stimuli/000758_2014-06-08_22-05-08_260595134347_rgbf000085-resize_0/000758_2014-06-08_22-05-08_260595134347_rgbf000085-resize_0-target.png,250,3.3810000000000002,7,2282,250,feet,jsons/v1_VE250_randls_27_rotated.json,483996,553690,49,Woman
63,348412,DepthScenes,duration_manipulation_targetAtFixation,jsons/v1_VE250_randls_27_rotated.json,http://54.235.29.9/FacialAge/BNav_EC2/DepthDuration/v2_depth_duration_MTurk/v2_DepthDuration_HTML.html#109,109,1440,789,1440,900,8-20-2022,11-31-12,64,depth_duration_stimuli/001584_2014-06-20_11-07-43_260595134347_rgbf000002-resize_1/001584_2014-06-20_11-07-43_260595134347_rgbf000002-resize_1-target.png,250,3.53,9,2283,250,feet,jsons/v1_VE250_randls_27_rotated.json,483996,553690,49,Woman
64,348412,DepthScenes,duration_manipulation_targetAtFixation,jsons/v1_VE250_randls_27_rotated.json,http://54.235.29.9/FacialAge/BNav_EC2/DepthDuration/v2_depth_duration_MTurk/v2_DepthDuration_HTML.html#109,109,1440,789,1440,900,8-20-2022,11-31-12,65,depth_duration_stimuli/003621_2014-05-23_18-06-08_094959634447_rgbf000101-resize_1/003621_2014-05-23_18-06-08_094959634447_rgbf000101-resize_1-target.png,250,3.9835,8,2170,250,feet,jsons/v1_VE250_randls_27_rotated.json,483996,553690,49,Woman
65,348412,DepthScenes,duration_manipulation_targetAtFixation,jsons/v1_VE250_randls_27_rotated.json,http://54.235.29.9/FacialAge/BNav_EC2/DepthDuration/v2_depth_duration_MTurk/v2_DepthDuration_HTML.html#109,109,1440,789,1440,900,8-20-2022,11-31-12,66,depth_duration_stimuli/001540_2014-06-20_17-01-05_260595134347_rgbf000086-resize_2/001540_2014-06-20_17-01-05_260595134347_rgbf000086-resize-original.jpg,250,1.459,0,2244,251,feet,jsons/v1_VE250_randls_27_rotated.json,483996,553690,49,Woman
66,348412,DepthScenes,duration_manipulation_targetAtFixation,jsons/v1_VE250_randls_27_rotated.json,http://54.235.29.9/FacialAge/BNav_EC2/DepthDuration/v2_depth_duration_MTurk/v2_DepthDuration_HTML.html#109,109,1440,789,1440,900,8-20-2022,11-31-12,67,depth_duration_stimuli/001617_2014-06-20_11-35-32_260595134347_rgbf000066-resize_1/001617_2014-06-20_11-35-32_260595134347_rgbf000066-resize_1-target.png,250,3.7910000000000004,6,2074,251,feet,jsons/v1_VE250_randls_27_rotated.json,483996,553690,49,Woman
67,348412,DepthScenes,duration_manipulation_targetAtFixation,jsons/v1_VE250_randls_27_rotated.json,http://54.235.29.9/FacialAge/BNav_EC2/DepthDuration/v2_depth_duration_MTurk/v2_DepthDuration_HTML.html#109,109,1440,789,1440,900,8-20-2022,11-31-12,68,depth_duration_stimuli/001806_2014-06-26_20-50-20_260595134347_rgbf000091-resize_1/001806_2014-06-26_20-50-20_260595134347_rgbf000091-resize_1-target.png,250,2.7305,7,2278,245,feet,jsons/v1_VE250_randls_27_rotated.json,483996,553690,49,Woman
68,348412,DepthScenes,duration_manipulation_targetAtFixation,jsons/v1_VE250_randls_27_rotated.json,http://54.235.29.9/FacialAge/BNav_EC2/DepthDuration/v2_depth_duration_MTurk/v2_DepthDuration_HTML.html#109,109,1440,789,1440,900,8-20-2022,11-31-12,69,depth_duration_stimuli/000556_2014-06-09_22-42-56_260595134347_rgbf000214-resize_1/000556_2014-06-09_22-42-56_260595134347_rgbf000214-resize_1-target.png,250,4.8415,8,2106,241,feet,jsons/v1_VE250_randls_27_rotated.json,483996,553690,49,Woman
69,348412,DepthScenes,duration_manipulation_targetAtFixation,jsons/v1_VE250_randls_27_rotated.json,http://54.235.29.9/FacialAge/BNav_EC2/DepthDuration/v2_depth_duration_MTurk/v2_DepthDuration_HTML.html#109,109,1440,789,1440,900,8-20-2022,11-31-12,70,depth_duration_stimuli/001158_2014-06-17_15-32-16_260595134347_rgbf000138-resize_2/001158_2014-06-17_15-32-16_260595134347_rgbf000138-resize_2-target.png,250,4.5315,6,2146,243,feet,jsons/v1_VE250_randls_27_rotated.json,483996,553690,49,Woman
70,348412,DepthScenes,duration_manipulation_targetAtFixation,jsons/v1_VE250_randls_27_rotated.json,http://54.235.29.9/FacialAge/BNav_EC2/DepthDuration/v2_depth_duration_MTurk/v2_DepthDuration_HTML.html#109,109,1440,789,1440,900,8-20-2022,11-31-12,71,depth_duration_stimuli/000635_2014-06-08_16-38-42_260595134347_rgbf000106-resize_1/000635_2014-06-08_16-38-42_260595134347_rgbf000106-resize_1-target.png,250,2.074,8,2163,251,feet,jsons/v1_VE250_randls_27_rotated.json,483996,553690,49,Woman
71,348412,DepthScenes,duration_manipulation_targetAtFixation,jsons/v1_VE250_randls_27_rotated.json,http://54.235.29.9/FacialAge/BNav_EC2/DepthDuration/v2_depth_duration_MTurk/v2_DepthDuration_HTML.html#109,109,1440,789,1440,900,8-20-2022,11-31-12,72,depth_duration_stimuli/002279_2014-06-28_18-55-32_260595134347_rgbf000040-resize_5/002279_2014-06-28_18-55-32_260595134347_rgbf000040-resize_5-target.png,250,1.5043333333333,6,2142,245,feet,jsons/v1_VE250_randls_27_rotated.json,483996,553690,49,Woman
72,348412,DepthScenes,duration_manipulation_targetAtFixation,jsons/v1_VE250_randls_27_rotated.json,http://54.235.29.9/FacialAge/BNav_EC2/DepthDuration/v2_depth_duration_MTurk/v2_DepthDuration_HTML.html#109,109,1440,789,1440,900,8-20-2022,11-31-12,73,depth_duration_stimuli/002637_2014-06-24_14-51-13_094959634447_rgbf000066-resize_4/002637_2014-06-24_14-51-13_094959634447_rgbf000066-resize_4-target.png,250,1.9955,7,2306,250,feet,jsons/v1_VE250_randls_27_rotated.json,483996,553690,49,Woman
73,348412,DepthScenes,duration_manipulation_targetAtFixation,jsons/v1_VE250_randls_27_rotated.json,http://54.235.29.9/FacialAge/BNav_EC2/DepthDuration/v2_depth_duration_MTurk/v2_DepthDuration_HTML.html#109,109,1440,789,1440,900,8-20-2022,11-31-12,74,depth_duration_stimuli/003534_2014-05-22_15-06-10_094959634447_rgbf000102-resize_4/003534_2014-05-22_15-06-10_094959634447_rgbf000102-resize_4-target.png,250,1.426,8,2075,251,feet,jsons/v1_VE250_randls_27_rotated.json,483996,553690,49,Woman
74,348412,DepthScenes,duration_manipulation_targetAtFixation,jsons/v1_VE250_randls_27_rotated.json,http://54.235.29.9/FacialAge/BNav_EC2/DepthDuration/v2_depth_duration_MTurk/v2_DepthDuration_HTML.html#109,109,1440,789,1440,900,8-20-2022,11-31-12,75,depth_duration_stimuli/000409_2014-06-04_19-23-33_260595134347_rgbf000067-resize_0/000409_2014-06-04_19-23-33_260595134347_rgbf000067-resize_0-target.png,250,3.7335,6,2356,250,feet,jsons/v1_VE250_randls_27_rotated.json,483996,553690,49,Woman
75,348412,DepthScenes,duration_manipulation_targetAtFixation,jsons/v1_VE250_randls_27_rotated.json,http://54.235.29.9/FacialAge/BNav_EC2/DepthDuration/v2_depth_duration_MTurk/v2_DepthDuration_HTML.html#109,109,1440,789,1440,900,8-20-2022,11-31-12,76,depth_duration_stimuli/002663_2014-06-13_15-50-26_094959634447_rgbf000075-resize_1/002663_2014-06-13_15-50-26_094959634447_rgbf000075-resize_1-target.png,250,4.7495,12,2187,251,feet,jsons/v1_VE250_randls_27_rotated.json,483996,553690,49,Woman
76,348412,DepthScenes,duration_manipulation_targetAtFixation,jsons/v1_VE250_randls_27_rotated.json,http://54.235.29.9/FacialAge/BNav_EC2/DepthDuration/v2_depth_duration_MTurk/v2_DepthDuration_HTML.html#109,109,1440,789,1440,900,8-20-2022,11-31-12,77,depth_duration_stimuli/003010_2014-06-15_12-54-35_094959634447_rgbf000112-resize_0/003010_2014-06-15_12-54-35_094959634447_rgbf000112-resize_0-target.png,250,3.1185,18,2370,249,feet,jsons/v1_VE250_randls_27_rotated.json,483996,553690,49,Woman
77,348412,DepthScenes,duration_manipulation_targetAtFixation,jsons/v1_VE250_randls_27_rotated.json,http://54.235.29.9/FacialAge/BNav_EC2/DepthDuration/v2_depth_duration_MTurk/v2_DepthDuration_HTML.html#109,109,1440,789,1440,900,8-20-2022,11-31-12,78,depth_duration_stimuli/001810_2014-06-26_20-51-35_260595134347_rgbf000040-resize_3/001810_2014-06-26_20-51-35_260595134347_rgbf000040-resize_3-target.png,250,2.2525,4,2164,250,feet,jsons/v1_VE250_randls_27_rotated.json,483996,553690,49,Woman
78,348412,DepthScenes,duration_manipulation_targetAtFixation,jsons/v1_VE250_randls_27_rotated.json,http://54.235.29.9/FacialAge/BNav_EC2/DepthDuration/v2_depth_duration_MTurk/v2_DepthDuration_HTML.html#109,109,1440,789,1440,900,8-20-2022,11-31-12,79,depth_duration_stimuli/001214_2014-06-17_16-13-55_260595134347_rgbf000111-resize_0/001214_2014-06-17_16-13-55_260595134347_rgbf000111-resize_0-target.png,250,2.6505,6,2588,235,feet,jsons/v1_VE250_randls_27_rotated.json,483996,553690,49,Woman
79,348412,DepthScenes,duration_manipulation_targetAtFixation,jsons/v1_VE250_randls_27_rotated.json,http://54.235.29.9/FacialAge/BNav_EC2/DepthDuration/v2_depth_duration_MTurk/v2_DepthDuration_HTML.html#109,109,1440,789,1440,900,8-20-2022,11-31-12,80,depth_duration_stimuli/000810_2014-06-08_17-20-01_260595134347_rgbf000105-resize_0/000810_2014-06-08_17-20-01_260595134347_rgbf000105-resize_0-target.png,250,1.4865,8,3857,240,feet,jsons/v1_VE250_randls_27_rotated.json,483996,553690,49,Woman
80,348412,DepthScenes,duration_manipulation_targetAtFixation,jsons/v1_VE250_randls_27_rotated.json,http://54.235.29.9/FacialAge/BNav_EC2/DepthDuration/v2_depth_duration_MTurk/v2_DepthDuration_HTML.html#109,109,1440,789,1440,900,8-20-2022,11-31-12,81,depth_duration_stimuli/000103_2014-05-14_22-01-17_260595134347_rgbf000152-resize_5/000103_2014-05-14_22-01-17_260595134347_rgbf000152-resize_5-target.png,250,1.993,7,2155,257,feet,jsons/v1_VE250_randls_27_rotated.json,483996,553690,49,Woman
81,348412,DepthScenes,duration_manipulation_targetAtFixation,jsons/v1_VE250_randls_27_rotated.json,http://54.235.29.9/FacialAge/BNav_EC2/DepthDuration/v2_depth_duration_MTurk/v2_DepthDuration_HTML.html#109,109,1440,789,1440,900,8-20-2022,11-31-12,82,depth_duration_stimuli/001555_2014-06-20_17-12-10_260595134347_rgbf000065-resize_4/001555_2014-06-20_17-12-10_260595134347_rgbf000065-resize_4-target.png,250,1.633,6,2452,254,feet,jsons/v1_VE250_randls_27_rotated.json,483996,553690,49,Woman
82,348412,DepthScenes,duration_manipulation_targetAtFixation,jsons/v1_VE250_randls_27_rotated.json,http://54.235.29.9/FacialAge/BNav_EC2/DepthDuration/v2_depth_duration_MTurk/v2_DepthDuration_HTML.html#109,109,1440,789,1440,900,8-20-2022,11-31-12,83,depth_duration_stimuli/001132_2014-06-17_14-48-54_260595134347_rgbf000100-resize_2/001132_2014-06-17_14-48-54_260595134347_rgbf000100-resize_2-target.png,250,3.753,4,2268,251,feet,jsons/v1_VE250_randls_27_rotated.json,483996,553690,49,Woman
83,348412,DepthScenes,duration_manipulation_targetAtFixation,jsons/v1_VE250_randls_27_rotated.json,http://54.235.29.9/FacialAge/BNav_EC2/DepthDuration/v2_depth_duration_MTurk/v2_DepthDuration_HTML.html#109,109,1440,789,1440,900,8-20-2022,11-31-12,84,depth_duration_stimuli/001133_2014-06-17_14-49-16_260595134347_rgbf000100-resize_0/001133_2014-06-17_14-49-16_260595134347_rgbf000100-resize_0-target.png,250,4.2115,8,2302,245,feet,jsons/v1_VE250_randls_27_rotated.json,483996,553690,49,Woman
84,348412,DepthScenes,duration_manipulation_targetAtFixation,jsons/v1_VE250_randls_27_rotated.json,http://54.235.29.9/FacialAge/BNav_EC2/DepthDuration/v2_depth_duration_MTurk/v2_DepthDuration_HTML.html#109,109,1440,789,1440,900,8-20-2022,11-31-12,85,depth_duration_stimuli/002323_2014-06-28_20-01-54_260595134347_rgbf000051-resize_4/002323_2014-06-28_20-01-54_260595134347_rgbf000051-resize_4-target.png,250,3.7310000000000003,6,2333,247,feet,jsons/v1_VE250_randls_27_rotated.json,483996,553690,49,Woman
85,348412,DepthScenes,duration_manipulation_targetAtFixation,jsons/v1_VE250_randls_27_rotated.json,http://54.235.29.9/FacialAge/BNav_EC2/DepthDuration/v2_depth_duration_MTurk/v2_DepthDuration_HTML.html#109,109,1440,789,1440,900,8-20-2022,11-31-12,86,depth_duration_stimuli/000917_2014-06-09_22-45-29_260595134347_rgbf000149-resize_3/000917_2014-06-09_22-45-29_260595134347_rgbf000149-resize_3-target.png,250,4.1865,5,2267,251,feet,jsons/v1_VE250_randls_27_rotated.json,483996,553690,49,Woman
86,348412,DepthScenes,duration_manipulation_targetAtFixation,jsons/v1_VE250_randls_27_rotated.json,http://54.235.29.9/FacialAge/BNav_EC2/DepthDuration/v2_depth_duration_MTurk/v2_DepthDuration_HTML.html#109,109,1440,789,1440,900,8-20-2022,11-31-12,87,depth_duration_stimuli/002545_2014-06-24_13-38-53_094959634447_rgbf000080-resize_4/002545_2014-06-24_13-38-53_094959634447_rgbf000080-resize_4-target.png,250,1.9205,7,2333,251,feet,jsons/v1_VE250_randls_27_rotated.json,483996,553690,49,Woman
87,348412,DepthScenes,duration_manipulation_targetAtFixation,jsons/v1_VE250_randls_27_rotated.json,http://54.235.29.9/FacialAge/BNav_EC2/DepthDuration/v2_depth_duration_MTurk/v2_DepthDuration_HTML.html#109,109,1440,789,1440,900,8-20-2022,11-31-12,88,depth_duration_stimuli/001092_2014-06-15_17-34-58_260595134347_rgbf000171-resize_3/001092_2014-06-15_17-34-58_260595134347_rgbf000171-resize_3-target.png,250,2.6935,8,2138,250,feet,jsons/v1_VE250_randls_27_rotated.json,483996,553690,49,Woman
88,348412,DepthScenes,duration_manipulation_targetAtFixation,jsons/v1_VE250_randls_27_rotated.json,http://54.235.29.9/FacialAge/BNav_EC2/DepthDuration/v2_depth_duration_MTurk/v2_DepthDuration_HTML.html#109,109,1440,789,1440,900,8-20-2022,11-31-12,89,depth_duration_stimuli/002344_2014-06-28_20-06-29_260595134347_rgbf000030-resize_1/002344_2014-06-28_20-06-29_260595134347_rgbf000030-resize_1-target.png,250,1.5795,3,2251,249,feet,jsons/v1_VE250_randls_27_rotated.json,483996,553690,49,Woman
89,348412,DepthScenes,duration_manipulation_targetAtFixation,jsons/v1_VE250_randls_27_rotated.json,http://54.235.29.9/FacialAge/BNav_EC2/DepthDuration/v2_depth_duration_MTurk/v2_DepthDuration_HTML.html#109,109,1440,789,1440,900,8-20-2022,11-31-12,90,depth_duration_stimuli/002725_2014-06-22_11-47-51_094959634447_rgbf000070-resize_1/002725_2014-06-22_11-47-51_094959634447_rgbf000070-resize_1-target.png,250,2.195,6,2082,241,feet,jsons/v1_VE250_randls_27_rotated.json,483996,553690,49,Woman
90,348412,DepthScenes,duration_manipulation_targetAtFixation,jsons/v1_VE250_randls_27_rotated.json,http://54.235.29.9/FacialAge/BNav_EC2/DepthDuration/v2_depth_duration_MTurk/v2_DepthDuration_HTML.html#109,109,1440,789,1440,900,8-20-2022,11-31-12,91,depth_duration_stimuli/001450_2014-06-19_17-02-03_260595134347_rgbf000203-resize_4/001450_2014-06-19_17-02-03_260595134347_rgbf000203-resize_4-target.png,250,4.0106666666667,8,2418,260,feet,jsons/v1_VE250_randls_27_rotated.json,483996,553690,49,Woman
91,348412,DepthScenes,duration_manipulation_targetAtFixation,jsons/v1_VE250_randls_27_rotated.json,http://54.235.29.9/FacialAge/BNav_EC2/DepthDuration/v2_depth_duration_MTurk/v2_DepthDuration_HTML.html#109,109,1440,789,1440,900,8-20-2022,11-31-12,92,depth_duration_stimuli/001449_2014-06-19_17-01-27_260595134347_rgbf000116-resize_2/001449_2014-06-19_17-01-27_260595134347_rgbf000116-resize_2-target.png,250,3.452,7,2299,251,feet,jsons/v1_VE250_randls_27_rotated.json,483996,553690,49,Woman
92,348412,DepthScenes,duration_manipulation_targetAtFixation,jsons/v1_VE250_randls_27_rotated.json,http://54.235.29.9/FacialAge/BNav_EC2/DepthDuration/v2_depth_duration_MTurk/v2_DepthDuration_HTML.html#109,109,1440,789,1440,900,8-20-2022,11-31-12,93,depth_duration_stimuli/000457_2014-06-08_16-52-43_260595134347_rgbf000199-resize_1/000457_2014-06-08_16-52-43_260595134347_rgbf000199-resize_1-target.png,250,3.6489999999999996,8,2201,251,feet,jsons/v1_VE250_randls_27_rotated.json,483996,553690,49,Woman
93,348412,DepthScenes,duration_manipulation_targetAtFixation,jsons/v1_VE250_randls_27_rotated.json,http://54.235.29.9/FacialAge/BNav_EC2/DepthDuration/v2_depth_duration_MTurk/v2_DepthDuration_HTML.html#109,109,1440,789,1440,900,8-20-2022,11-31-12,94,depth_duration_stimuli/000929_2014-06-09_16-33-19_260595134347_rgbf000139-resize_0/000929_2014-06-09_16-33-19_260595134347_rgbf000139-resize_0-target.png,250,2.8680000000000003,9,2091,250,feet,jsons/v1_VE250_randls_27_rotated.json,483996,553690,49,Woman
94,348412,DepthScenes,duration_manipulation_targetAtFixation,jsons/v1_VE250_randls_27_rotated.json,http://54.235.29.9/FacialAge/BNav_EC2/DepthDuration/v2_depth_duration_MTurk/v2_DepthDuration_HTML.html#109,109,1440,789,1440,900,8-20-2022,11-31-12,95,depth_duration_stimuli/001235_2014-06-17_16-37-36_260595134347_rgbf000084-resize_4/001235_2014-06-17_16-37-36_260595134347_rgbf000084-resize_4-target.png,250,3.6605,7,2059,251,feet,jsons/v1_VE250_randls_27_rotated.json,483996,553690,49,Woman
95,348412,DepthScenes,duration_manipulation_targetAtFixation,jsons/v1_VE250_randls_27_rotated.json,http://54.235.29.9/FacialAge/BNav_EC2/DepthDuration/v2_depth_duration_MTurk/v2_DepthDuration_HTML.html#109,109,1440,789,1440,900,8-20-2022,11-31-12,96,depth_duration_stimuli/000788_2014-06-08_22-34-36_260595134347_rgbf000131-resize_1/000788_2014-06-08_22-34-36_260595134347_rgbf000131-resize_1-target.png,250,3.359,8,2011,251,feet,jsons/v1_VE250_randls_27_rotated.json,483996,553690,49,Woman
96,348412,DepthScenes,duration_manipulation_targetAtFixation,jsons/v1_VE250_randls_27_rotated.json,http://54.235.29.9/FacialAge/BNav_EC2/DepthDuration/v2_depth_duration_MTurk/v2_DepthDuration_HTML.html#109,109,1440,789,1440,900,8-20-2022,11-31-12,97,depth_duration_stimuli/000927_2014-06-09_16-32-30_260595134347_rgbf000123-resize_3/000927_2014-06-09_16-32-30_260595134347_rgbf000123-resize_3-target.png,250,2.6785,9,2850,250,feet,jsons/v1_VE250_randls_27_rotated.json,483996,553690,49,Woman
97,348412,DepthScenes,duration_manipulation_targetAtFixation,jsons/v1_VE250_randls_27_rotated.json,http://54.235.29.9/FacialAge/BNav_EC2/DepthDuration/v2_depth_duration_MTurk/v2_DepthDuration_HTML.html#109,109,1440,789,1440,900,8-20-2022,11-31-12,98,depth_duration_stimuli/001110_2014-06-15_17-25-28_260595134347_rgbf000150-resize_1/001110_2014-06-15_17-25-28_260595134347_rgbf000150-resize_1-target.png,250,1.7115,7,2140,250,feet,jsons/v1_VE250_randls_27_rotated.json,483996,553690,49,Woman
98,348412,DepthScenes,duration_manipulation_targetAtFixation,jsons/v1_VE250_randls_27_rotated.json,http://54.235.29.9/FacialAge/BNav_EC2/DepthDuration/v2_depth_duration_MTurk/v2_DepthDuration_HTML.html#109,109,1440,789,1440,900,8-20-2022,11-31-12,99,depth_duration_stimuli/001222_2014-06-17_16-24-06_260595134347_rgbf000073-resize_0/001222_2014-06-17_16-24-06_260595134347_rgbf000073-resize-original.jpg,250,1.4385,0,2515,263,feet,jsons/v1_VE250_randls_27_rotated.json,483996,553690,49,Woman
99,348412,DepthScenes,duration_manipulation_targetAtFixation,jsons/v1_VE250_randls_27_rotated.json,http://54.235.29.9/FacialAge/BNav_EC2/DepthDuration/v2_depth_duration_MTurk/v2_DepthDuration_HTML.html#109,109,1440,789,1440,900,8-20-2022,11-31-12,100,depth_duration_stimuli/003587_2014-05-23_16-48-02_094959634447_rgbf002384-resize_2/003587_2014-05-23_16-48-02_094959634447_rgbf002384-resize_2-target.png,250,1.357,8,2745,251,feet,jsons/v1_VE250_randls_27_rotated.json,483996,553690,49,Woman
100,348412,DepthScenes,duration_manipulation_targetAtFixation,jsons/v1_VE250_randls_27_rotated.json,http://54.235.29.9/FacialAge/BNav_EC2/DepthDuration/v2_depth_duration_MTurk/v2_DepthDuration_HTML.html#109,109,1440,789,1440,900,8-20-2022,11-31-12,101,depth_duration_stimuli/001167_2014-06-17_15-38-07_260595134347_rgbf000108-resize_0/001167_2014-06-17_15-38-07_260595134347_rgbf000108-resize_0-target.png,250,1.8505,8,2174,252,feet,jsons/v1_VE250_randls_27_rotated.json,483996,553690,49,Woman
101,348412,DepthScenes,duration_manipulation_targetAtFixation,jsons/v1_VE250_randls_27_rotated.json,http://54.235.29.9/FacialAge/BNav_EC2/DepthDuration/v2_depth_duration_MTurk/v2_DepthDuration_HTML.html#109,109,1440,789,1440,900,8-20-2022,11-31-12,102,depth_duration_stimuli/001571_2014-06-20_17-21-32_260595134347_rgbf000089-resize_1/001571_2014-06-20_17-21-32_260595134347_rgbf000089-resize_1-target.png,250,1.86,9,2477,236,feet,jsons/v1_VE250_randls_27_rotated.json,483996,553690,49,Woman
102,348412,DepthScenes,duration_manipulation_targetAtFixation,jsons/v1_VE250_randls_27_rotated.json,http://54.235.29.9/FacialAge/BNav_EC2/DepthDuration/v2_depth_duration_MTurk/v2_DepthDuration_HTML.html#109,109,1440,789,1440,900,8-20-2022,11-31-12,103,depth_duration_stimuli/002272_2014-06-28_18-53-56_260595134347_rgbf000067-resize_2/002272_2014-06-28_18-53-56_260595134347_rgbf000067-resize_2-target.png,250,1.138,7,2475,262,feet,jsons/v1_VE250_randls_27_rotated.json,483996,553690,49,Woman
103,348412,DepthScenes,duration_manipulation_targetAtFixation,jsons/v1_VE250_randls_27_rotated.json,http://54.235.29.9/FacialAge/BNav_EC2/DepthDuration/v2_depth_duration_MTurk/v2_DepthDuration_HTML.html#109,109,1440,789,1440,900,8-20-2022,11-31-12,104,depth_duration_stimuli/000665_2014-06-09_20-42-35_260595134347_rgbf000110-resize_1/000665_2014-06-09_20-42-35_260595134347_rgbf000110-resize_1-target.png,250,3.057,8,2396,250,feet,jsons/v1_VE250_randls_27_rotated.json,483996,553690,49,Woman
104,348412,DepthScenes,duration_manipulation_targetAtFixation,jsons/v1_VE250_randls_27_rotated.json,http://54.235.29.9/FacialAge/BNav_EC2/DepthDuration/v2_depth_duration_MTurk/v2_DepthDuration_HTML.html#109,109,1440,789,1440,900,8-20-2022,11-31-12,105,depth_duration_stimuli/001150_2014-06-17_15-27-34_260595134347_rgbf000108-resize_2/001150_2014-06-17_15-27-34_260595134347_rgbf000108-resize_2-target.png,250,4.0325,9,2284,245,feet,jsons/v1_VE250_randls_27_rotated.json,483996,553690,49,Woman
105,348412,DepthScenes,duration_manipulation_targetAtFixation,jsons/v1_VE250_randls_27_rotated.json,http://54.235.29.9/FacialAge/BNav_EC2/DepthDuration/v2_depth_duration_MTurk/v2_DepthDuration_HTML.html#109,109,1440,789,1440,900,8-20-2022,11-31-12,106,depth_duration_stimuli/000109_2014-05-14_23-41-52_260595134347_rgbf000035-resize_9/000109_2014-05-14_23-41-52_260595134347_rgbf000035-resize_9-target.png,250,1.3545,8,2150,244,feet,jsons/v1_VE250_randls_27_rotated.json,483996,553690,49,Woman
106,348412,DepthScenes,duration_manipulation_targetAtFixation,jsons/v1_VE250_randls_27_rotated.json,http://54.235.29.9/FacialAge/BNav_EC2/DepthDuration/v2_depth_duration_MTurk/v2_DepthDuration_HTML.html#109,109,1440,789,1440,900,8-20-2022,11-31-12,107,depth_duration_stimuli/000470_2014-06-09_19-42-40_260595134347_rgbf000094-resize_1/000470_2014-06-09_19-42-40_260595134347_rgbf000094-resize_1-target.png,250,1.831,52,2779,263,feet,jsons/v1_VE250_randls_27_rotated.json,483996,553690,49,Woman
107,348412,DepthScenes,duration_manipulation_targetAtFixation,jsons/v1_VE250_randls_27_rotated.json,http://54.235.29.9/FacialAge/BNav_EC2/DepthDuration/v2_depth_duration_MTurk/v2_DepthDuration_HTML.html#109,109,1440,789,1440,900,8-20-2022,11-31-12,108,depth_duration_stimuli/002953_2014-06-08_17-32-18_094959634447_rgbf000059-resize_5/002953_2014-06-08_17-32-18_094959634447_rgbf000059-resize_5-target.png,250,1.551,5,2008,239,feet,jsons/v1_VE250_randls_27_rotated.json,483996,553690,49,Woman
108,348412,DepthScenes,duration_manipulation_targetAtFixation,jsons/v1_VE250_randls_27_rotated.json,http://54.235.29.9/FacialAge/BNav_EC2/DepthDuration/v2_depth_duration_MTurk/v2_DepthDuration_HTML.html#109,109,1440,789,1440,900,8-20-2022,11-31-12,109,depth_duration_stimuli/000878_2014-06-08_22-52-45_260595134347_rgbf000045-resize_2/000878_2014-06-08_22-52-45_260595134347_rgbf000045-resize_2-target.png,250,2.092,4,2132,250,feet,jsons/v1_VE250_randls_27_rotated.json,483996,553690,49,Woman
109,348412,DepthScenes,duration_manipulation_targetAtFixation,jsons/v1_VE250_randls_27_rotated.json,http://54.235.29.9/FacialAge/BNav_EC2/DepthDuration/v2_depth_duration_MTurk/v2_DepthDuration_HTML.html#109,109,1440,789,1440,900,8-20-2022,11-31-12,110,depth_duration_stimuli/000677_2014-06-08_23-10-32_260595134347_rgbf000158-resize_6/000677_2014-06-08_23-10-32_260595134347_rgbf000158-resize_6-target.png,250,3.556,9,2251,251,feet,jsons/v1_VE250_randls_27_rotated.json,483996,553690,49,Woman
110,348412,DepthScenes,duration_manipulation_targetAtFixation,jsons/v1_VE250_randls_27_rotated.json,http://54.235.29.9/FacialAge/BNav_EC2/DepthDuration/v2_depth_duration_MTurk/v2_DepthDuration_HTML.html#109,109,1440,789,1440,900,8-20-2022,11-31-12,111,depth_duration_stimuli/001029_2014-06-08_13-17-57_260595134347_rgbf000065-resize_1/001029_2014-06-08_13-17-57_260595134347_rgbf000065-resize_1-target.png,250,3.0835,7,2410,249,feet,jsons/v1_VE250_randls_27_rotated.json,483996,553690,49,Woman
111,348412,DepthScenes,duration_manipulation_targetAtFixation,jsons/v1_VE250_randls_27_rotated.json,http://54.235.29.9/FacialAge/BNav_EC2/DepthDuration/v2_depth_duration_MTurk/v2_DepthDuration_HTML.html#109,109,1440,789,1440,900,8-20-2022,11-31-12,112,depth_duration_stimuli/001100_2014-06-15_17-46-26_260595134347_rgbf000225-resize_2/001100_2014-06-15_17-46-26_260595134347_rgbf000225-resize_2-target.png,250,2.24,6,2225,249,feet,jsons/v1_VE250_randls_27_rotated.json,483996,553690,49,Woman
112,348412,DepthScenes,duration_manipulation_targetAtFixation,jsons/v1_VE250_randls_27_rotated.json,http://54.235.29.9/FacialAge/BNav_EC2/DepthDuration/v2_depth_duration_MTurk/v2_DepthDuration_HTML.html#109,109,1440,789,1440,900,8-20-2022,11-31-12,113,depth_duration_stimuli/002784_2014-06-22_19-26-30_094959634447_rgbf000083-resize_3/002784_2014-06-22_19-26-30_094959634447_rgbf000083-resize_3-target.png,250,1.8046666666667,4,2099,251,feet,jsons/v1_VE250_randls_27_rotated.json,483996,553690,49,Woman
113,348412,DepthScenes,duration_manipulation_targetAtFixation,jsons/v1_VE250_randls_27_rotated.json,http://54.235.29.9/FacialAge/BNav_EC2/DepthDuration/v2_depth_duration_MTurk/v2_DepthDuration_HTML.html#109,109,1440,789,1440,900,8-20-2022,11-31-12,114,depth_duration_stimuli/003228_2014-05-14_13-42-35_094959634447_rgbf000101-resize_1/003228_2014-05-14_13-42-35_094959634447_rgbf000101-resize_1-target.png,250,1.9680000000000002,5,2035,250,feet,jsons/v1_VE250_randls_27_rotated.json,483996,553690,49,Woman
114,348412,DepthScenes,duration_manipulation_targetAtFixation,jsons/v1_VE250_randls_27_rotated.json,http://54.235.29.9/FacialAge/BNav_EC2/DepthDuration/v2_depth_duration_MTurk/v2_DepthDuration_HTML.html#109,109,1440,789,1440,900,8-20-2022,11-31-12,115,depth_duration_stimuli/002600_2014-06-24_14-27-04_094959634447_rgbf000074-resize_2/002600_2014-06-24_14-27-04_094959634447_rgbf000074-resize_2-target.png,250,2.7575,3,2227,248,feet,jsons/v1_VE250_randls_27_rotated.json,483996,553690,49,Woman
115,348412,DepthScenes,duration_manipulation_targetAtFixation,jsons/v1_VE250_randls_27_rotated.json,http://54.235.29.9/FacialAge/BNav_EC2/DepthDuration/v2_depth_duration_MTurk/v2_DepthDuration_HTML.html#109,109,1440,789,1440,900,8-20-2022,11-31-12,116,depth_duration_stimuli/003048_2014-06-15_13-49-43_094959634447_rgbf000150-resize_1/003048_2014-06-15_13-49-43_094959634447_rgbf000150-resize_1-target.png,250,4.0035,7,2243,249,feet,jsons/v1_VE250_randls_27_rotated.json,483996,553690,49,Woman
116,348412,DepthScenes,duration_manipulation_targetAtFixation,jsons/v1_VE250_randls_27_rotated.json,http://54.235.29.9/FacialAge/BNav_EC2/DepthDuration/v2_depth_duration_MTurk/v2_DepthDuration_HTML.html#109,109,1440,789,1440,900,8-20-2022,11-31-12,117,depth_duration_stimuli/002043_2014-06-24_20-29-38_260595134347_rgbf000039-resize_4/002043_2014-06-24_20-29-38_260595134347_rgbf000039-resize_4-target.png,250,2.8435,8,7609,250,feet,jsons/v1_VE250_randls_27_rotated.json,483996,553690,49,Woman
117,348412,DepthScenes,duration_manipulation_targetAtFixation,jsons/v1_VE250_randls_27_rotated.json,http://54.235.29.9/FacialAge/BNav_EC2/DepthDuration/v2_depth_duration_MTurk/v2_DepthDuration_HTML.html#109,109,1440,789,1440,900,8-20-2022,11-31-12,118,depth_duration_stimuli/002103_2014-06-25_20-00-40_260595134347_rgbf000049-resize_0/002103_2014-06-25_20-00-40_260595134347_rgbf000049-resize_0-target.png,250,4.105,8,2468,251,feet,jsons/v1_VE250_randls_27_rotated.json,483996,553690,49,Woman
118,348412,DepthScenes,duration_manipulation_targetAtFixation,jsons/v1_VE250_randls_27_rotated.json,http://54.235.29.9/FacialAge/BNav_EC2/DepthDuration/v2_depth_duration_MTurk/v2_DepthDuration_HTML.html#109,109,1440,789,1440,900,8-20-2022,11-31-12,119,depth_duration_stimuli/002039_2014-06-24_20-22-38_260595134347_rgbf000084-resize_1/002039_2014-06-24_20-22-38_260595134347_rgbf000084-resize_1-target.png,250,4.408,9,2369,250,feet,jsons/v1_VE250_randls_27_rotated.json,483996,553690,49,Woman
119,348412,DepthScenes,duration_manipulation_targetAtFixation,jsons/v1_VE250_randls_27_rotated.json,http://54.235.29.9/FacialAge/BNav_EC2/DepthDuration/v2_depth_duration_MTurk/v2_DepthDuration_HTML.html#109,109,1440,789,1440,900,8-20-2022,11-31-12,120,depth_duration_stimuli/000787_2014-06-08_22-33-53_260595134347_rgbf000175-resize_1/000787_2014-06-08_22-33-53_260595134347_rgbf000175-resize-original.jpg,250,4.784,0,2146,250,feet,jsons/v1_VE250_randls_27_rotated.json,483996,553690,49,Woman
120,348412,DepthScenes,duration_manipulation_targetAtFixation,jsons/v1_VE250_randls_27_rotated.json,http://54.235.29.9/FacialAge/BNav_EC2/DepthDuration/v2_depth_duration_MTurk/v2_DepthDuration_HTML.html#109,109,1440,789,1440,900,8-20-2022,11-31-12,121,depth_duration_stimuli/000709_2014-06-08_13-51-55_260595134347_rgbf000068-resize_3/000709_2014-06-08_13-51-55_260595134347_rgbf000068-resize_3-target.png,250,1.8030000000000002,4,2100,250,feet,jsons/v1_VE250_randls_27_rotated.json,483996,553690,49,Woman
121,348412,DepthScenes,duration_manipulation_targetAtFixation,jsons/v1_VE250_randls_27_rotated.json,http://54.235.29.9/FacialAge/BNav_EC2/DepthDuration/v2_depth_duration_MTurk/v2_DepthDuration_HTML.html#109,109,1440,789,1440,900,8-20-2022,11-31-12,122,depth_duration_stimuli/002057_2014-06-24_21-00-13_260595134347_rgbf000120-resize_1/002057_2014-06-24_21-00-13_260595134347_rgbf000120-resize_1-target.png,250,2.967,3,2706,251,feet,jsons/v1_VE250_randls_27_rotated.json,483996,553690,49,Woman
122,348412,DepthScenes,duration_manipulation_targetAtFixation,jsons/v1_VE250_randls_27_rotated.json,http://54.235.29.9/FacialAge/BNav_EC2/DepthDuration/v2_depth_duration_MTurk/v2_DepthDuration_HTML.html#109,109,1440,789,1440,900,8-20-2022,11-31-12,123,depth_duration_stimuli/002949_2014-06-26_15-57-42_094959634447_rgbf000079-resize_1/002949_2014-06-26_15-57-42_094959634447_rgbf000079-resize_1-target.png,250,1.8915,7,2371,250,feet,jsons/v1_VE250_randls_27_rotated.json,483996,553690,49,Woman
123,348412,DepthScenes,duration_manipulation_targetAtFixation,jsons/v1_VE250_randls_27_rotated.json,http://54.235.29.9/FacialAge/BNav_EC2/DepthDuration/v2_depth_duration_MTurk/v2_DepthDuration_HTML.html#109,109,1440,789,1440,900,8-20-2022,11-31-12,124,depth_duration_stimuli/000522_2014-06-08_13-35-06_260595134347_rgbf000244-resize_1/000522_2014-06-08_13-35-06_260595134347_rgbf000244-resize_1-target.png,250,2.3715,8,2842,251,feet,jsons/v1_VE250_randls_27_rotated.json,483996,553690,49,Woman
124,348412,DepthScenes,duration_manipulation_targetAtFixation,jsons/v1_VE250_randls_27_rotated.json,http://54.235.29.9/FacialAge/BNav_EC2/DepthDuration/v2_depth_duration_MTurk/v2_DepthDuration_HTML.html#109,109,1440,789,1440,900,8-20-2022,11-31-12,125,depth_duration_stimuli/001516_2014-06-20_16-25-09_260595134347_rgbf000076-resize_2/001516_2014-06-20_16-25-09_260595134347_rgbf000076-resize_2-target.png,250,1.7445,9,2236,251,feet,jsons/v1_VE250_randls_27_rotated.json,483996,553690,49,Woman
125,348412,DepthScenes,duration_manipulation_targetAtFixation,jsons/v1_VE250_randls_27_rotated.json,http://54.235.29.9/FacialAge/BNav_EC2/DepthDuration/v2_depth_duration_MTurk/v2_DepthDuration_HTML.html#109,109,1440,789,1440,900,8-20-2022,11-31-12,126,depth_duration_stimuli/002118_2014-06-25_20-32-08_260595134347_rgbf000078-resize_1/002118_2014-06-25_20-32-08_260595134347_rgbf000078-resize_1-target.png,250,2.6460000000000004,8,2939,251,feet,jsons/v1_VE250_randls_27_rotated.json,483996,553690,49,Woman
126,348412,DepthScenes,duration_manipulation_targetAtFixation,jsons/v1_VE250_randls_27_rotated.json,http://54.235.29.9/FacialAge/BNav_EC2/DepthDuration/v2_depth_duration_MTurk/v2_DepthDuration_HTML.html#109,109,1440,789,1440,900,8-20-2022,11-31-12,127,depth_duration_stimuli/002657_2014-06-13_15-29-54_094959634447_rgbf000150-resize_1/002657_2014-06-13_15-29-54_094959634447_rgbf000150-resize_1-target.png,250,4.919,6,2914,251,feet,jsons/v1_VE250_randls_27_rotated.json,483996,553690,49,Woman
127,348412,DepthScenes,duration_manipulation_targetAtFixation,jsons/v1_VE250_randls_27_rotated.json,http://54.235.29.9/FacialAge/BNav_EC2/DepthDuration/v2_depth_duration_MTurk/v2_DepthDuration_HTML.html#109,109,1440,789,1440,900,8-20-2022,11-31-12,128,depth_duration_stimuli/002375_2014-06-28_20-13-44_260595134347_rgbf000032-resize_1/002375_2014-06-28_20-13-44_260595134347_rgbf000032-resize_1-target.png,250,4.0175,3,2403,251,feet,jsons/v1_VE250_randls_27_rotated.json,483996,553690,49,Woman
128,348412,DepthScenes,duration_manipulation_targetAtFixation,jsons/v1_VE250_randls_27_rotated.json,http://54.235.29.9/FacialAge/BNav_EC2/DepthDuration/v2_depth_duration_MTurk/v2_DepthDuration_HTML.html#109,109,1440,789,1440,900,8-20-2022,11-31-12,129,depth_duration_stimuli/002414_2014-06-28_20-24-58_260595134347_rgbf000067-resize_4/002414_2014-06-28_20-24-58_260595134347_rgbf000067-resize_4-target.png,250,4.363,7,2569,250,feet,jsons/v1_VE250_randls_27_rotated.json,483996,553690,49,Woman
129,348412,DepthScenes,duration_manipulation_targetAtFixation,jsons/v1_VE250_randls_27_rotated.json,http://54.235.29.9/FacialAge/BNav_EC2/DepthDuration/v2_depth_duration_MTurk/v2_DepthDuration_HTML.html#109,109,1440,789,1440,900,8-20-2022,11-31-12,130,depth_duration_stimuli/000773_2014-06-08_22-24-54_260595134347_rgbf000093-resize_1/000773_2014-06-08_22-24-54_260595134347_rgbf000093-resize_1-target.png,250,4.973,8,2387,251,feet,jsons/v1_VE250_randls_27_rotated.json,483996,553690,49,Woman
130,348412,DepthScenes,duration_manipulation_targetAtFixation,jsons/v1_VE250_randls_27_rotated.json,http://54.235.29.9/FacialAge/BNav_EC2/DepthDuration/v2_depth_duration_MTurk/v2_DepthDuration_HTML.html#109,109,1440,789,1440,900,8-20-2022,11-31-12,131,depth_duration_stimuli/001650_2014-06-20_12-09-00_260595134347_rgbf000087-resize_3/001650_2014-06-20_12-09-00_260595134347_rgbf000087-resize_3-target.png,250,1.9505,8,2338,250,feet,jsons/v1_VE250_randls_27_rotated.json,483996,553690,49,Woman
131,348412,DepthScenes,duration_manipulation_targetAtFixation,jsons/v1_VE250_randls_27_rotated.json,http://54.235.29.9/FacialAge/BNav_EC2/DepthDuration/v2_depth_duration_MTurk/v2_DepthDuration_HTML.html#109,109,1440,789,1440,900,8-20-2022,11-31-12,132,depth_duration_stimuli/000682_2014-06-08_23-14-58_260595134347_rgbf000041-resize_5/000682_2014-06-08_23-14-58_260595134347_rgbf000041-resize_5-target.png,250,2.7239999999999998,6,2403,251,feet,jsons/v1_VE250_randls_27_rotated.json,483996,553690,49,Woman
132,348412,DepthScenes,duration_manipulation_targetAtFixation,jsons/v1_VE250_randls_27_rotated.json,http://54.235.29.9/FacialAge/BNav_EC2/DepthDuration/v2_depth_duration_MTurk/v2_DepthDuration_HTML.html#109,109,1440,789,1440,900,8-20-2022,11-31-12,133,depth_duration_stimuli/000691_2014-06-08_13-08-50_260595134347_rgbf000132-resize_3/000691_2014-06-08_13-08-50_260595134347_rgbf000132-resize_3-target.png,250,4.1530000000000005,8,2619,251,feet,jsons/v1_VE250_randls_27_rotated.json,483996,553690,49,Woman
133,348412,DepthScenes,duration_manipulation_targetAtFixation,jsons/v1_VE250_randls_27_rotated.json,http://54.235.29.9/FacialAge/BNav_EC2/DepthDuration/v2_depth_duration_MTurk/v2_DepthDuration_HTML.html#109,109,1440,789,1440,900,8-20-2022,11-31-12,134,depth_duration_stimuli/002213_2014-06-28_18-37-58_260595134347_rgbf000055-resize_1/002213_2014-06-28_18-37-58_260595134347_rgbf000055-resize_1-target.png,250,3.62,6,2403,251,feet,jsons/v1_VE250_randls_27_rotated.json,483996,553690,49,Woman
134,348412,DepthScenes,duration_manipulation_targetAtFixation,jsons/v1_VE250_randls_27_rotated.json,http://54.235.29.9/FacialAge/BNav_EC2/DepthDuration/v2_depth_duration_MTurk/v2_DepthDuration_HTML.html#109,109,1440,789,1440,900,8-20-2022,11-31-12,135,depth_duration_stimuli/000375_2014-06-08_11-17-29_260595134347_rgbf000133-resize_2/000375_2014-06-08_11-17-29_260595134347_rgbf000133-resize-original.jpg,250,4.718,0,2276,250,feet,jsons/v1_VE250_randls_27_rotated.json,483996,553690,49,Woman
135,348412,DepthScenes,duration_manipulation_targetAtFixation,jsons/v1_VE250_randls_27_rotated.json,http://54.235.29.9/FacialAge/BNav_EC2/DepthDuration/v2_depth_duration_MTurk/v2_DepthDuration_HTML.html#109,109,1440,789,1440,900,8-20-2022,11-31-12,136,depth_duration_stimuli/002805_2014-06-22_19-54-03_094959634447_rgbf000079-resize_1/002805_2014-06-22_19-54-03_094959634447_rgbf000079-resize_1-target.png,250,3.1439999999999997,4,3188,250,feet,jsons/v1_VE250_randls_27_rotated.json,483996,553690,49,Woman
136,348412,DepthScenes,duration_manipulation_targetAtFixation,jsons/v1_VE250_randls_27_rotated.json,http://54.235.29.9/FacialAge/BNav_EC2/DepthDuration/v2_depth_duration_MTurk/v2_DepthDuration_HTML.html#109,109,1440,789,1440,900,8-20-2022,11-31-12,137,depth_duration_stimuli/000906_2014-06-08_13-35-43_260595134347_rgbf000155-resize_1/000906_2014-06-08_13-35-43_260595134347_rgbf000155-resize_1-target.png,250,2.8489999999999998,8,2434,250,feet,jsons/v1_VE250_randls_27_rotated.json,483996,553690,49,Woman
137,348412,DepthScenes,duration_manipulation_targetAtFixation,jsons/v1_VE250_randls_27_rotated.json,http://54.235.29.9/FacialAge/BNav_EC2/DepthDuration/v2_depth_duration_MTurk/v2_DepthDuration_HTML.html#109,109,1440,789,1440,900,8-20-2022,11-31-12,138,depth_duration_stimuli/001032_2014-06-08_13-23-17_260595134347_rgbf000021-resize_3/001032_2014-06-08_13-23-17_260595134347_rgbf000021-resize_3-target.png,250,3.2725,9,2795,250,feet,jsons/v1_VE250_randls_27_rotated.json,483996,553690,49,Woman
138,348412,DepthScenes,duration_manipulation_targetAtFixation,jsons/v1_VE250_randls_27_rotated.json,http://54.235.29.9/FacialAge/BNav_EC2/DepthDuration/v2_depth_duration_MTurk/v2_DepthDuration_HTML.html#109,109,1440,789,1440,900,8-20-2022,11-31-12,139,depth_duration_stimuli/001059_2014-06-08_21-53-27_260595134347_rgbf000061-resize_4/001059_2014-06-08_21-53-27_260595134347_rgbf000061-resize_4-target.png,250,2.4185,4,2057,249,feet,jsons/v1_VE250_randls_27_rotated.json,483996,553690,49,Woman
139,348412,DepthScenes,duration_manipulation_targetAtFixation,jsons/v1_VE250_randls_27_rotated.json,http://54.235.29.9/FacialAge/BNav_EC2/DepthDuration/v2_depth_duration_MTurk/v2_DepthDuration_HTML.html#109,109,1440,789,1440,900,8-20-2022,11-31-12,140,depth_duration_stimuli/001815_2014-06-26_20-52-55_260595134347_rgbf000020-resize_0/001815_2014-06-26_20-52-55_260595134347_rgbf000020-resize_0-target.png,250,3.3865,7,2371,250,feet,jsons/v1_VE250_randls_27_rotated.json,483996,553690,49,Woman
140,348412,DepthScenes,duration_manipulation_targetAtFixation,jsons/v1_VE250_randls_27_rotated.json,http://54.235.29.9/FacialAge/BNav_EC2/DepthDuration/v2_depth_duration_MTurk/v2_DepthDuration_HTML.html#109,109,1440,789,1440,900,8-20-2022,11-31-12,141,depth_duration_stimuli/001808_2014-06-26_20-50-58_260595134347_rgbf000029-resize_1/001808_2014-06-26_20-50-58_260595134347_rgbf000029-resize_1-target.png,250,4.249,5,2642,250,feet,jsons/v1_VE250_randls_27_rotated.json,483996,553690,49,Woman
141,348412,DepthScenes,duration_manipulation_targetAtFixation,jsons/v1_VE250_randls_27_rotated.json,http://54.235.29.9/FacialAge/BNav_EC2/DepthDuration/v2_depth_duration_MTurk/v2_DepthDuration_HTML.html#109,109,1440,789,1440,900,8-20-2022,11-31-12,142,depth_duration_stimuli/002136_2014-06-25_21-18-03_260595134347_rgbf000109-resize_3/002136_2014-06-25_21-18-03_260595134347_rgbf000109-resize_3-target.png,250,1.9569999999999999,6,4060,255,feet,jsons/v1_VE250_randls_27_rotated.json,483996,553690,49,Woman
142,348412,DepthScenes,duration_manipulation_targetAtFixation,jsons/v1_VE250_randls_27_rotated.json,http://54.235.29.9/FacialAge/BNav_EC2/DepthDuration/v2_depth_duration_MTurk/v2_DepthDuration_HTML.html#109,109,1440,789,1440,900,8-20-2022,11-31-12,143,depth_duration_stimuli/002964_2014-06-08_17-46-11_094959634447_rgbf000091-resize_4/002964_2014-06-08_17-46-11_094959634447_rgbf000091-resize_4-target.png,250,1.6909999999999998,8,2209,247,feet,jsons/v1_VE250_randls_27_rotated.json,483996,553690,49,Woman
143,348412,DepthScenes,duration_manipulation_targetAtFixation,jsons/v1_VE250_randls_27_rotated.json,http://54.235.29.9/FacialAge/BNav_EC2/DepthDuration/v2_depth_duration_MTurk/v2_DepthDuration_HTML.html#109,109,1440,789,1440,900,8-20-2022,11-31-12,144,depth_duration_stimuli/002639_2014-06-24_14-51-37_094959634447_rgbf000074-resize_4/002639_2014-06-24_14-51-37_094959634447_rgbf000074-resize_4-target.png,250,4.0375,4,2275,250,feet,jsons/v1_VE250_randls_27_rotated.json,483996,553690,49,Woman
144,348412,DepthScenes,duration_manipulation_targetAtFixation,jsons/v1_VE250_randls_27_rotated.json,http://54.235.29.9/FacialAge/BNav_EC2/DepthDuration/v2_depth_duration_MTurk/v2_DepthDuration_HTML.html#109,109,1440,789,1440,900,8-20-2022,11-31-12,145,depth_duration_stimuli/003292_2014-05-14_21-53-49_094959634447_rgbf000100-resize_2/003292_2014-05-14_21-53-49_094959634447_rgbf000100-resize_2-target.png,250,3.4815,6,2290,251,feet,jsons/v1_VE250_randls_27_rotated.json,483996,553690,49,Woman
145,348412,DepthScenes,duration_manipulation_targetAtFixation,jsons/v1_VE250_randls_27_rotated.json,http://54.235.29.9/FacialAge/BNav_EC2/DepthDuration/v2_depth_duration_MTurk/v2_DepthDuration_HTML.html#109,109,1440,789,1440,900,8-20-2022,11-31-12,146,depth_duration_stimuli/003338_2014-05-20_11-01-23_094959634447_rgbf000051-resize_6/003338_2014-05-20_11-01-23_094959634447_rgbf000051-resize_6-target.png,250,1.693,8,2380,250,feet,jsons/v1_VE250_randls_27_rotated.json,483996,553690,49,Woman
146,348412,DepthScenes,duration_manipulation_targetAtFixation,jsons/v1_VE250_randls_27_rotated.json,http://54.235.29.9/FacialAge/BNav_EC2/DepthDuration/v2_depth_duration_MTurk/v2_DepthDuration_HTML.html#109,109,1440,789,1440,900,8-20-2022,11-31-12,147,depth_duration_stimuli/002509_2014-06-24_13-19-22_094959634447_rgbf000077-resize_0/002509_2014-06-24_13-19-22_094959634447_rgbf000077-resize_0-target.png,250,1.3065,3,2458,250,feet,jsons/v1_VE250_randls_27_rotated.json,483996,553690,49,Woman
147,348412,DepthScenes,duration_manipulation_targetAtFixation,jsons/v1_VE250_randls_27_rotated.json,http://54.235.29.9/FacialAge/BNav_EC2/DepthDuration/v2_depth_duration_MTurk/v2_DepthDuration_HTML.html#109,109,1440,789,1440,900,8-20-2022,11-31-12,148,depth_duration_stimuli/000549_2014-06-08_22-10-24_260595134347_rgbf000247-resize_3/000549_2014-06-08_22-10-24_260595134347_rgbf000247-resize_3-target.png,250,1.841,8,2219,250,feet,jsons/v1_VE250_randls_27_rotated.json,483996,553690,49,Woman
148,348412,DepthScenes,duration_manipulation_targetAtFixation,jsons/v1_VE250_randls_27_rotated.json,http://54.235.29.9/FacialAge/BNav_EC2/DepthDuration/v2_depth_duration_MTurk/v2_DepthDuration_HTML.html#109,109,1440,789,1440,900,8-20-2022,11-31-12,149,depth_duration_stimuli/001055_2014-06-08_18-45-35_260595134347_rgbf000111-resize_4/001055_2014-06-08_18-45-35_260595134347_rgbf000111-resize_4-target.png,250,2.4290000000000003,4,2312,250,feet,jsons/v1_VE250_randls_27_rotated.json,483996,553690,49,Woman
149,348412,DepthScenes,duration_manipulation_targetAtFixation,jsons/v1_VE250_randls_27_rotated.json,http://54.235.29.9/FacialAge/BNav_EC2/DepthDuration/v2_depth_duration_MTurk/v2_DepthDuration_HTML.html#109,109,1440,789,1440,900,8-20-2022,11-31-12,150,depth_duration_stimuli/001052_2014-06-08_18-24-54_260595134347_rgbf000130-resize_1/001052_2014-06-08_18-24-54_260595134347_rgbf000130-resize_1-target.png,250,4.1045,7,2347,251,feet,jsons/v1_VE250_randls_27_rotated.json,483996,553690,49,Woman
150,348412,DepthScenes,duration_manipulation_targetAtFixation,jsons/v1_VE250_randls_27_rotated.json,http://54.235.29.9/FacialAge/BNav_EC2/DepthDuration/v2_depth_duration_MTurk/v2_DepthDuration_HTML.html#109,109,1440,789,1440,900,8-20-2022,11-31-12,151,depth_duration_stimuli/002988_2014-06-15_12-24-20_094959634447_rgbf000150-resize_1/002988_2014-06-15_12-24-20_094959634447_rgbf000150-resize_1-target.png,250,4.7669999999999995,6,2412,251,feet,jsons/v1_VE250_randls_27_rotated.json,483996,553690,49,Woman
151,348412,DepthScenes,duration_manipulation_targetAtFixation,jsons/v1_VE250_randls_27_rotated.json,http://54.235.29.9/FacialAge/BNav_EC2/DepthDuration/v2_depth_duration_MTurk/v2_DepthDuration_HTML.html#109,109,1440,789,1440,900,8-20-2022,11-31-12,152,depth_duration_stimuli/000569_2014-06-09_22-51-47_260595134347_rgbf000141-resize_3/000569_2014-06-09_22-51-47_260595134347_rgbf000141-resize-original.jpg,250,4.512,0,2450,251,feet,jsons/v1_VE250_randls_27_rotated.json,483996,553690,49,Woman
152,348412,DepthScenes,duration_manipulation_targetAtFixation,jsons/v1_VE250_randls_27_rotated.json,http://54.235.29.9/FacialAge/BNav_EC2/DepthDuration/v2_depth_duration_MTurk/v2_DepthDuration_HTML.html#109,109,1440,789,1440,900,8-20-2022,11-31-12,153,depth_duration_stimuli/001392_2014-06-19_16-07-59_260595134347_rgbf000046-resize_1/001392_2014-06-19_16-07-59_260595134347_rgbf000046-resize_1-target.png,250,4.135,4,2219,250,feet,jsons/v1_VE250_randls_27_rotated.json,483996,553690,49,Woman
153,348412,DepthScenes,duration_manipulation_targetAtFixation,jsons/v1_VE250_randls_27_rotated.json,http://54.235.29.9/FacialAge/BNav_EC2/DepthDuration/v2_depth_duration_MTurk/v2_DepthDuration_HTML.html#109,109,1440,789,1440,900,8-20-2022,11-31-12,154,depth_duration_stimuli/001570_2014-06-20_17-21-09_260595134347_rgbf000135-resize_4/001570_2014-06-20_17-21-09_260595134347_rgbf000135-resize_4-target.png,250,4.467,7,3963,250,feet,jsons/v1_VE250_randls_27_rotated.json,483996,553690,49,Woman
154,348412,DepthScenes,duration_manipulation_targetAtFixation,jsons/v1_VE250_randls_27_rotated.json,http://54.235.29.9/FacialAge/BNav_EC2/DepthDuration/v2_depth_duration_MTurk/v2_DepthDuration_HTML.html#109,109,1440,789,1440,900,8-20-2022,11-31-12,155,depth_duration_stimuli/001447_2014-06-19_17-00-32_260595134347_rgbf000082-resize_5/001447_2014-06-19_17-00-32_260595134347_rgbf000082-resize_5-target.png,250,4.13775,8,2210,250,feet,jsons/v1_VE250_randls_27_rotated.json,483996,553690,49,Woman
155,348412,DepthScenes,duration_manipulation_targetAtFixation,jsons/v1_VE250_randls_27_rotated.json,http://54.235.29.9/FacialAge/BNav_EC2/DepthDuration/v2_depth_duration_MTurk/v2_DepthDuration_HTML.html#109,109,1440,789,1440,900,8-20-2022,11-31-12,156,depth_duration_stimuli/000447_2014-06-08_16-15-46_260595134347_rgbf000130-resize_1/000447_2014-06-08_16-15-46_260595134347_rgbf000130-resize_1-target.png,250,4.479,6,2267,251,feet,jsons/v1_VE250_randls_27_rotated.json,483996,553690,49,Woman
156,348412,DepthScenes,duration_manipulation_targetAtFixation,jsons/v1_VE250_randls_27_rotated.json,http://54.235.29.9/FacialAge/BNav_EC2/DepthDuration/v2_depth_duration_MTurk/v2_DepthDuration_HTML.html#109,109,1440,789,1440,900,8-20-2022,11-31-12,157,depth_duration_stimuli/002340_2014-06-28_20-05-46_260595134347_rgbf000113-resize_0/002340_2014-06-28_20-05-46_260595134347_rgbf000113-resize_0-target.png,250,2.4735,8,2198,248,feet,jsons/v1_VE250_randls_27_rotated.json,483996,553690,49,Woman
157,348412,DepthScenes,duration_manipulation_targetAtFixation,jsons/v1_VE250_randls_27_rotated.json,http://54.235.29.9/FacialAge/BNav_EC2/DepthDuration/v2_depth_duration_MTurk/v2_DepthDuration_HTML.html#109,109,1440,789,1440,900,8-20-2022,11-31-12,158,depth_duration_stimuli/001016_2014-06-09_16-16-10_260595134347_rgbf000112-resize_5/001016_2014-06-09_16-16-10_260595134347_rgbf000112-resize_5-target.png,250,1.6565,4,2110,236,feet,jsons/v1_VE250_randls_27_rotated.json,483996,553690,49,Woman
158,348412,DepthScenes,duration_manipulation_targetAtFixation,jsons/v1_VE250_randls_27_rotated.json,http://54.235.29.9/FacialAge/BNav_EC2/DepthDuration/v2_depth_duration_MTurk/v2_DepthDuration_HTML.html#109,109,1440,789,1440,900,8-20-2022,11-31-12,159,depth_duration_stimuli/003490_2014-05-21_15-50-11_094959634447_rgbf000101-resize_3/003490_2014-05-21_15-50-11_094959634447_rgbf000101-resize_3-target.png,250,3.6445,7,2073,241,feet,jsons/v1_VE250_randls_27_rotated.json,483996,553690,49,Woman
159,348412,DepthScenes,duration_manipulation_targetAtFixation,jsons/v1_VE250_randls_27_rotated.json,http://54.235.29.9/FacialAge/BNav_EC2/DepthDuration/v2_depth_duration_MTurk/v2_DepthDuration_HTML.html#109,109,1440,789,1440,900,8-20-2022,11-31-12,160,depth_duration_stimuli/001175_2014-06-17_15-45-55_260595134347_rgbf000129-resize_4/001175_2014-06-17_15-45-55_260595134347_rgbf000129-resize_4-target.png,250,4.255,6,2547,253,feet,jsons/v1_VE250_randls_27_rotated.json,483996,553690,49,Woman
160,348412,DepthScenes,duration_manipulation_targetAtFixation,jsons/v1_VE250_randls_27_rotated.json,http://54.235.29.9/FacialAge/BNav_EC2/DepthDuration/v2_depth_duration_MTurk/v2_DepthDuration_HTML.html#109,109,1440,789,1440,900,8-20-2022,11-31-12,161,depth_duration_stimuli/000749_2014-06-08_21-55-06_260595134347_rgbf000070-resize_2/000749_2014-06-08_21-55-06_260595134347_rgbf000070-resize_2-target.png,250,2.331,8,2434,248,feet,jsons/v1_VE250_randls_27_rotated.json,483996,553690,49,Woman
161,348412,DepthScenes,duration_manipulation_targetAtFixation,jsons/v1_VE250_randls_27_rotated.json,http://54.235.29.9/FacialAge/BNav_EC2/DepthDuration/v2_depth_duration_MTurk/v2_DepthDuration_HTML.html#109,109,1440,789,1440,900,8-20-2022,11-31-12,162,depth_duration_stimuli/002788_2014-06-22_19-36-03_094959634447_rgbf000088-resize_2/002788_2014-06-22_19-36-03_094959634447_rgbf000088-resize_2-target.png,250,1.6465,7,2500,263,feet,jsons/v1_VE250_randls_27_rotated.json,483996,553690,49,Woman
162,348412,DepthScenes,duration_manipulation_targetAtFixation,jsons/v1_VE250_randls_27_rotated.json,http://54.235.29.9/FacialAge/BNav_EC2/DepthDuration/v2_depth_duration_MTurk/v2_DepthDuration_HTML.html#109,109,1440,789,1440,900,8-20-2022,11-31-12,163,depth_duration_stimuli/000483_2014-06-09_20-41-45_260595134347_rgbf000116-resize_4/000483_2014-06-09_20-41-45_260595134347_rgbf000116-resize_4-target.png,250,1.337,6,2347,250,feet,jsons/v1_VE250_randls_27_rotated.json,483996,553690,49,Woman
163,348412,DepthScenes,duration_manipulation_targetAtFixation,jsons/v1_VE250_randls_27_rotated.json,http://54.235.29.9/FacialAge/BNav_EC2/DepthDuration/v2_depth_duration_MTurk/v2_DepthDuration_HTML.html#109,109,1440,789,1440,900,8-20-2022,11-31-12,164,depth_duration_stimuli/000469_2014-06-09_19-42-10_260595134347_rgbf000081-resize_1/000469_2014-06-09_19-42-10_260595134347_rgbf000081-resize_1-target.png,250,1.652,8,2370,250,feet,jsons/v1_VE250_randls_27_rotated.json,483996,553690,49,Woman
