,subjID,experimentName,versionName,sequenceName,url,selected_row,windowWidth,windowHeight,screenWidth,screenHeight,startDate,startTime,trial,stimulus,duration,actual_depth,depth_estimate,trial_RT,log_sceneDuration,unitSelection,seq_filepath,experimentTime,totalTime,age,gender
0,349357,DepthScenes,duration_manipulation_targetAtFixation,jsons/v1_VE1000_randls_65.json,http://54.235.29.9/FacialAge/BNav_EC2/DepthDuration/v2_depth_duration_MTurk/v2_DepthDuration_HTML.html#351,351,1366,657,1366,768,9-3-2022,10-10-52,1,depth_duration_stimuli/001055_2014-06-08_18-45-35_260595134347_rgbf000111-resize_4/001055_2014-06-08_18-45-35_260595134347_rgbf000111-resize_4-target.png,1000,2.4290000000000003,9,4145,1000,feet,jsons/v1_VE1000_randls_65.json,726504,1016071,36,Man
1,349357,DepthScenes,duration_manipulation_targetAtFixation,jsons/v1_VE1000_randls_65.json,http://54.235.29.9/FacialAge/BNav_EC2/DepthDuration/v2_depth_duration_MTurk/v2_DepthDuration_HTML.html#351,351,1366,657,1366,768,9-3-2022,10-10-52,2,depth_duration_stimuli/000549_2014-06-08_22-10-24_260595134347_rgbf000247-resize_3/000549_2014-06-08_22-10-24_260595134347_rgbf000247-resize_3-target.png,1000,1.841,2,4043,998,feet,jsons/v1_VE1000_randls_65.json,726504,1016071,36,Man
2,349357,DepthScenes,duration_manipulation_targetAtFixation,jsons/v1_VE1000_randls_65.json,http://54.235.29.9/FacialAge/BNav_EC2/DepthDuration/v2_depth_duration_MTurk/v2_DepthDuration_HTML.html#351,351,1366,657,1366,768,9-3-2022,10-10-52,3,depth_duration_stimuli/002057_2014-06-24_21-00-13_260595134347_rgbf000120-resize_1/002057_2014-06-24_21-00-13_260595134347_rgbf000120-resize_1-target.png,1000,2.967,8,3928,1014,feet,jsons/v1_VE1000_randls_65.json,726504,1016071,36,Man
3,349357,DepthScenes,duration_manipulation_targetAtFixation,jsons/v1_VE1000_randls_65.json,http://54.235.29.9/FacialAge/BNav_EC2/DepthDuration/v2_depth_duration_MTurk/v2_DepthDuration_HTML.html#351,351,1366,657,1366,768,9-3-2022,10-10-52,4,depth_duration_stimuli/000709_2014-06-08_13-51-55_260595134347_rgbf000068-resize_3/000709_2014-06-08_13-51-55_260595134347_rgbf000068-resize_3-target.png,1000,1.8030000000000002,2,3649,994,feet,jsons/v1_VE1000_randls_65.json,726504,1016071,36,Man
4,349357,DepthScenes,duration_manipulation_targetAtFixation,jsons/v1_VE1000_randls_65.json,http://54.235.29.9/FacialAge/BNav_EC2/DepthDuration/v2_depth_duration_MTurk/v2_DepthDuration_HTML.html#351,351,1366,657,1366,768,9-3-2022,10-10-52,5,depth_duration_stimuli/002039_2014-06-24_20-22-38_260595134347_rgbf000084-resize_1/002039_2014-06-24_20-22-38_260595134347_rgbf000084-resize_1-target.png,1000,4.408,6,4961,1007,feet,jsons/v1_VE1000_randls_65.json,726504,1016071,36,Man
5,349357,DepthScenes,duration_manipulation_targetAtFixation,jsons/v1_VE1000_randls_65.json,http://54.235.29.9/FacialAge/BNav_EC2/DepthDuration/v2_depth_duration_MTurk/v2_DepthDuration_HTML.html#351,351,1366,657,1366,768,9-3-2022,10-10-52,6,depth_duration_stimuli/002103_2014-06-25_20-00-40_260595134347_rgbf000049-resize_0/002103_2014-06-25_20-00-40_260595134347_rgbf000049-resize_0-target.png,1000,4.105,5,3482,998,feet,jsons/v1_VE1000_randls_65.json,726504,1016071,36,Man
6,349357,DepthScenes,duration_manipulation_targetAtFixation,jsons/v1_VE1000_randls_65.json,http://54.235.29.9/FacialAge/BNav_EC2/DepthDuration/v2_depth_duration_MTurk/v2_DepthDuration_HTML.html#351,351,1366,657,1366,768,9-3-2022,10-10-52,7,depth_duration_stimuli/001570_2014-06-20_17-21-09_260595134347_rgbf000135-resize_4/001570_2014-06-20_17-21-09_260595134347_rgbf000135-resize_4-target.png,1000,4.467,6,4281,999,feet,jsons/v1_VE1000_randls_65.json,726504,1016071,36,Man
7,349357,DepthScenes,duration_manipulation_targetAtFixation,jsons/v1_VE1000_randls_65.json,http://54.235.29.9/FacialAge/BNav_EC2/DepthDuration/v2_depth_duration_MTurk/v2_DepthDuration_HTML.html#351,351,1366,657,1366,768,9-3-2022,10-10-52,8,depth_duration_stimuli/001392_2014-06-19_16-07-59_260595134347_rgbf000046-resize_1/001392_2014-06-19_16-07-59_260595134347_rgbf000046-resize_1-target.png,1000,4.135,9,4020,937,feet,jsons/v1_VE1000_randls_65.json,726504,1016071,36,Man
8,349357,DepthScenes,duration_manipulation_targetAtFixation,jsons/v1_VE1000_randls_65.json,http://54.235.29.9/FacialAge/BNav_EC2/DepthDuration/v2_depth_duration_MTurk/v2_DepthDuration_HTML.html#351,351,1366,657,1366,768,9-3-2022,10-10-52,9,depth_duration_stimuli/000414_2014-06-04_19-49-13_260595134347_rgbf000044-resize_0/000414_2014-06-04_19-49-13_260595134347_rgbf000044-resize_0-target.png,1000,4.329,9,4337,1001,feet,jsons/v1_VE1000_randls_65.json,726504,1016071,36,Man
9,349357,DepthScenes,duration_manipulation_targetAtFixation,jsons/v1_VE1000_randls_65.json,http://54.235.29.9/FacialAge/BNav_EC2/DepthDuration/v2_depth_duration_MTurk/v2_DepthDuration_HTML.html#351,351,1366,657,1366,768,9-3-2022,10-10-52,10,depth_duration_stimuli/003129_2014-05-12_10-48-10_094959634447_rgbf000100-resize_0/003129_2014-05-12_10-48-10_094959634447_rgbf000100-resize_0-target.png,1000,4.9305,7,3485,993,feet,jsons/v1_VE1000_randls_65.json,726504,1016071,36,Man
10,349357,DepthScenes,duration_manipulation_targetAtFixation,jsons/v1_VE1000_randls_65.json,http://54.235.29.9/FacialAge/BNav_EC2/DepthDuration/v2_depth_duration_MTurk/v2_DepthDuration_HTML.html#351,351,1366,657,1366,768,9-3-2022,10-10-52,11,depth_duration_stimuli/002272_2014-06-28_18-53-56_260595134347_rgbf000067-resize_2/002272_2014-06-28_18-53-56_260595134347_rgbf000067-resize_2-target.png,1000,1.138,1,3950,1007,feet,jsons/v1_VE1000_randls_65.json,726504,1016071,36,Man
11,349357,DepthScenes,duration_manipulation_targetAtFixation,jsons/v1_VE1000_randls_65.json,http://54.235.29.9/FacialAge/BNav_EC2/DepthDuration/v2_depth_duration_MTurk/v2_DepthDuration_HTML.html#351,351,1366,657,1366,768,9-3-2022,10-10-52,12,depth_duration_stimuli/001571_2014-06-20_17-21-32_260595134347_rgbf000089-resize_1/001571_2014-06-20_17-21-32_260595134347_rgbf000089-resize_1-target.png,1000,1.86,1,3503,990,feet,jsons/v1_VE1000_randls_65.json,726504,1016071,36,Man
12,349357,DepthScenes,duration_manipulation_targetAtFixation,jsons/v1_VE1000_randls_65.json,http://54.235.29.9/FacialAge/BNav_EC2/DepthDuration/v2_depth_duration_MTurk/v2_DepthDuration_HTML.html#351,351,1366,657,1366,768,9-3-2022,10-10-52,13,depth_duration_stimuli/000569_2014-06-09_22-51-47_260595134347_rgbf000141-resize_3/000569_2014-06-09_22-51-47_260595134347_rgbf000141-resize-original.jpg,1000,4.512,0,3729,1011,feet,jsons/v1_VE1000_randls_65.json,726504,1016071,36,Man
13,349357,DepthScenes,duration_manipulation_targetAtFixation,jsons/v1_VE1000_randls_65.json,http://54.235.29.9/FacialAge/BNav_EC2/DepthDuration/v2_depth_duration_MTurk/v2_DepthDuration_HTML.html#351,351,1366,657,1366,768,9-3-2022,10-10-52,14,depth_duration_stimuli/002153_2014-06-25_21-27-18_260595134347_rgbf000038-resize_5/002153_2014-06-25_21-27-18_260595134347_rgbf000038-resize_5-target.png,1000,2.505,2,4069,980,feet,jsons/v1_VE1000_randls_65.json,726504,1016071,36,Man
14,349357,DepthScenes,duration_manipulation_targetAtFixation,jsons/v1_VE1000_randls_65.json,http://54.235.29.9/FacialAge/BNav_EC2/DepthDuration/v2_depth_duration_MTurk/v2_DepthDuration_HTML.html#351,351,1366,657,1366,768,9-3-2022,10-10-52,15,depth_duration_stimuli/002660_2014-06-13_15-44-18_094959634447_rgbf001878-resize_2/002660_2014-06-13_15-44-18_094959634447_rgbf001878-resize_2-target.png,1000,3.576,4,3362,1001,feet,jsons/v1_VE1000_randls_65.json,726504,1016071,36,Man
15,349357,DepthScenes,duration_manipulation_targetAtFixation,jsons/v1_VE1000_randls_65.json,http://54.235.29.9/FacialAge/BNav_EC2/DepthDuration/v2_depth_duration_MTurk/v2_DepthDuration_HTML.html#351,351,1366,657,1366,768,9-3-2022,10-10-52,16,depth_duration_stimuli/001056_2014-06-08_18-46-44_260595134347_rgbf000068-resize_0/001056_2014-06-08_18-46-44_260595134347_rgbf000068-resize_0-target.png,1000,2.6625,4,3278,998,feet,jsons/v1_VE1000_randls_65.json,726504,1016071,36,Man
16,349357,DepthScenes,duration_manipulation_targetAtFixation,jsons/v1_VE1000_randls_65.json,http://54.235.29.9/FacialAge/BNav_EC2/DepthDuration/v2_depth_duration_MTurk/v2_DepthDuration_HTML.html#351,351,1366,657,1366,768,9-3-2022,10-10-52,17,depth_duration_stimuli/002199_2014-06-28_18-33-56_260595134347_rgbf000074-resize_0/002199_2014-06-28_18-33-56_260595134347_rgbf000074-resize_0-target.png,1000,1.996,2,3938,991,feet,jsons/v1_VE1000_randls_65.json,726504,1016071,36,Man
17,349357,DepthScenes,duration_manipulation_targetAtFixation,jsons/v1_VE1000_randls_65.json,http://54.235.29.9/FacialAge/BNav_EC2/DepthDuration/v2_depth_duration_MTurk/v2_DepthDuration_HTML.html#351,351,1366,657,1366,768,9-3-2022,10-10-52,18,depth_duration_stimuli/000506_2014-06-08_23-21-00_260595134347_rgbf000070-resize_7/000506_2014-06-08_23-21-00_260595134347_rgbf000070-resize_7-target.png,1000,4.0585,5,3520,991,feet,jsons/v1_VE1000_randls_65.json,726504,1016071,36,Man
18,349357,DepthScenes,duration_manipulation_targetAtFixation,jsons/v1_VE1000_randls_65.json,http://54.235.29.9/FacialAge/BNav_EC2/DepthDuration/v2_depth_duration_MTurk/v2_DepthDuration_HTML.html#351,351,1366,657,1366,768,9-3-2022,10-10-52,19,depth_duration_stimuli/003079_2014-06-15_15-18-20_094959634447_rgbf000152-resize_8/003079_2014-06-15_15-18-20_094959634447_rgbf000152-resize_8-target.png,1000,2.8775,7,3592,981,feet,jsons/v1_VE1000_randls_65.json,726504,1016071,36,Man
19,349357,DepthScenes,duration_manipulation_targetAtFixation,jsons/v1_VE1000_randls_65.json,http://54.235.29.9/FacialAge/BNav_EC2/DepthDuration/v2_depth_duration_MTurk/v2_DepthDuration_HTML.html#351,351,1366,657,1366,768,9-3-2022,10-10-52,20,depth_duration_stimuli/001417_2014-06-19_16-25-36_260595134347_rgbf000115-resize_5/001417_2014-06-19_16-25-36_260595134347_rgbf000115-resize_5-target.png,1000,4.6255,6,3607,996,feet,jsons/v1_VE1000_randls_65.json,726504,1016071,36,Man
20,349357,DepthScenes,duration_manipulation_targetAtFixation,jsons/v1_VE1000_randls_65.json,http://54.235.29.9/FacialAge/BNav_EC2/DepthDuration/v2_depth_duration_MTurk/v2_DepthDuration_HTML.html#351,351,1366,657,1366,768,9-3-2022,10-10-52,21,depth_duration_stimuli/003081_2014-06-15_15-19-16_094959634447_rgbf000150-resize_1/003081_2014-06-15_15-19-16_094959634447_rgbf000150-resize_1-target.png,1000,3.9125,4,3717,984,feet,jsons/v1_VE1000_randls_65.json,726504,1016071,36,Man
21,349357,DepthScenes,duration_manipulation_targetAtFixation,jsons/v1_VE1000_randls_65.json,http://54.235.29.9/FacialAge/BNav_EC2/DepthDuration/v2_depth_duration_MTurk/v2_DepthDuration_HTML.html#351,351,1366,657,1366,768,9-3-2022,10-10-52,22,depth_duration_stimuli/001199_2014-06-17_16-03-48_260595134347_rgbf000077-resize_0/001199_2014-06-17_16-03-48_260595134347_rgbf000077-resize_0-target.png,1000,3.4375,4,3533,1001,feet,jsons/v1_VE1000_randls_65.json,726504,1016071,36,Man
22,349357,DepthScenes,duration_manipulation_targetAtFixation,jsons/v1_VE1000_randls_65.json,http://54.235.29.9/FacialAge/BNav_EC2/DepthDuration/v2_depth_duration_MTurk/v2_DepthDuration_HTML.html#351,351,1366,657,1366,768,9-3-2022,10-10-52,23,depth_duration_stimuli/000502_2014-06-08_23-02-32_260595134347_rgbf000063-resize_4/000502_2014-06-08_23-02-32_260595134347_rgbf000063-resize_4-target.png,1000,2.431,3,2989,1003,feet,jsons/v1_VE1000_randls_65.json,726504,1016071,36,Man
23,349357,DepthScenes,duration_manipulation_targetAtFixation,jsons/v1_VE1000_randls_65.json,http://54.235.29.9/FacialAge/BNav_EC2/DepthDuration/v2_depth_duration_MTurk/v2_DepthDuration_HTML.html#351,351,1366,657,1366,768,9-3-2022,10-10-52,24,depth_duration_stimuli/001175_2014-06-17_15-45-55_260595134347_rgbf000129-resize_4/001175_2014-06-17_15-45-55_260595134347_rgbf000129-resize_4-target.png,1000,4.255,8,3545,1026,feet,jsons/v1_VE1000_randls_65.json,726504,1016071,36,Man
24,349357,DepthScenes,duration_manipulation_targetAtFixation,jsons/v1_VE1000_randls_65.json,http://54.235.29.9/FacialAge/BNav_EC2/DepthDuration/v2_depth_duration_MTurk/v2_DepthDuration_HTML.html#351,351,1366,657,1366,768,9-3-2022,10-10-52,25,depth_duration_stimuli/003490_2014-05-21_15-50-11_094959634447_rgbf000101-resize_3/003490_2014-05-21_15-50-11_094959634447_rgbf000101-resize_3-target.png,1000,3.6445,5,3855,1005,feet,jsons/v1_VE1000_randls_65.json,726504,1016071,36,Man
25,349357,DepthScenes,duration_manipulation_targetAtFixation,jsons/v1_VE1000_randls_65.json,http://54.235.29.9/FacialAge/BNav_EC2/DepthDuration/v2_depth_duration_MTurk/v2_DepthDuration_HTML.html#351,351,1366,657,1366,768,9-3-2022,10-10-52,26,depth_duration_stimuli/002663_2014-06-13_15-50-26_094959634447_rgbf000075-resize_1/002663_2014-06-13_15-50-26_094959634447_rgbf000075-resize_1-target.png,1000,4.7495,5,3174,998,feet,jsons/v1_VE1000_randls_65.json,726504,1016071,36,Man
26,349357,DepthScenes,duration_manipulation_targetAtFixation,jsons/v1_VE1000_randls_65.json,http://54.235.29.9/FacialAge/BNav_EC2/DepthDuration/v2_depth_duration_MTurk/v2_DepthDuration_HTML.html#351,351,1366,657,1366,768,9-3-2022,10-10-52,27,depth_duration_stimuli/000409_2014-06-04_19-23-33_260595134347_rgbf000067-resize_0/000409_2014-06-04_19-23-33_260595134347_rgbf000067-resize_0-target.png,1000,3.7335,4,3987,977,feet,jsons/v1_VE1000_randls_65.json,726504,1016071,36,Man
27,349357,DepthScenes,duration_manipulation_targetAtFixation,jsons/v1_VE1000_randls_65.json,http://54.235.29.9/FacialAge/BNav_EC2/DepthDuration/v2_depth_duration_MTurk/v2_DepthDuration_HTML.html#351,351,1366,657,1366,768,9-3-2022,10-10-52,28,depth_duration_stimuli/000642_2014-06-08_16-59-25_260595134347_rgbf000098-resize_2/000642_2014-06-08_16-59-25_260595134347_rgbf000098-resize_2-target.png,1000,2.8815,3,4562,993,feet,jsons/v1_VE1000_randls_65.json,726504,1016071,36,Man
28,349357,DepthScenes,duration_manipulation_targetAtFixation,jsons/v1_VE1000_randls_65.json,http://54.235.29.9/FacialAge/BNav_EC2/DepthDuration/v2_depth_duration_MTurk/v2_DepthDuration_HTML.html#351,351,1366,657,1366,768,9-3-2022,10-10-52,29,depth_duration_stimuli/002425_2014-06-28_20-27-29_260595134347_rgbf000031-resize_8/002425_2014-06-28_20-27-29_260595134347_rgbf000031-resize_8-target.png,1000,3.8960000000000004,8,3405,995,feet,jsons/v1_VE1000_randls_65.json,726504,1016071,36,Man
29,349357,DepthScenes,duration_manipulation_targetAtFixation,jsons/v1_VE1000_randls_65.json,http://54.235.29.9/FacialAge/BNav_EC2/DepthDuration/v2_depth_duration_MTurk/v2_DepthDuration_HTML.html#351,351,1366,657,1366,768,9-3-2022,10-10-52,30,depth_duration_stimuli/000375_2014-06-08_11-17-29_260595134347_rgbf000133-resize_2/000375_2014-06-08_11-17-29_260595134347_rgbf000133-resize-original.jpg,1000,4.718,0,3512,999,feet,jsons/v1_VE1000_randls_65.json,726504,1016071,36,Man
30,349357,DepthScenes,duration_manipulation_targetAtFixation,jsons/v1_VE1000_randls_65.json,http://54.235.29.9/FacialAge/BNav_EC2/DepthDuration/v2_depth_duration_MTurk/v2_DepthDuration_HTML.html#351,351,1366,657,1366,768,9-3-2022,10-10-52,31,depth_duration_stimuli/001167_2014-06-17_15-38-07_260595134347_rgbf000108-resize_0/001167_2014-06-17_15-38-07_260595134347_rgbf000108-resize_0-target.png,1000,1.8505,3,7120,997,feet,jsons/v1_VE1000_randls_65.json,726504,1016071,36,Man
31,349357,DepthScenes,duration_manipulation_targetAtFixation,jsons/v1_VE1000_randls_65.json,http://54.235.29.9/FacialAge/BNav_EC2/DepthDuration/v2_depth_duration_MTurk/v2_DepthDuration_HTML.html#351,351,1366,657,1366,768,9-3-2022,10-10-52,32,depth_duration_stimuli/003587_2014-05-23_16-48-02_094959634447_rgbf002384-resize_2/003587_2014-05-23_16-48-02_094959634447_rgbf002384-resize_2-target.png,1000,1.357,1,4246,1000,feet,jsons/v1_VE1000_randls_65.json,726504,1016071,36,Man
32,349357,DepthScenes,duration_manipulation_targetAtFixation,jsons/v1_VE1000_randls_65.json,http://54.235.29.9/FacialAge/BNav_EC2/DepthDuration/v2_depth_duration_MTurk/v2_DepthDuration_HTML.html#351,351,1366,657,1366,768,9-3-2022,10-10-52,33,depth_duration_stimuli/002279_2014-06-28_18-55-32_260595134347_rgbf000040-resize_5/002279_2014-06-28_18-55-32_260595134347_rgbf000040-resize_5-target.png,1000,1.5043333333333,1,4069,989,feet,jsons/v1_VE1000_randls_65.json,726504,1016071,36,Man
33,349357,DepthScenes,duration_manipulation_targetAtFixation,jsons/v1_VE1000_randls_65.json,http://54.235.29.9/FacialAge/BNav_EC2/DepthDuration/v2_depth_duration_MTurk/v2_DepthDuration_HTML.html#351,351,1366,657,1366,768,9-3-2022,10-10-52,34,depth_duration_stimuli/000635_2014-06-08_16-38-42_260595134347_rgbf000106-resize_1/000635_2014-06-08_16-38-42_260595134347_rgbf000106-resize_1-target.png,1000,2.074,4,3624,998,feet,jsons/v1_VE1000_randls_65.json,726504,1016071,36,Man
34,349357,DepthScenes,duration_manipulation_targetAtFixation,jsons/v1_VE1000_randls_65.json,http://54.235.29.9/FacialAge/BNav_EC2/DepthDuration/v2_depth_duration_MTurk/v2_DepthDuration_HTML.html#351,351,1366,657,1366,768,9-3-2022,10-10-52,35,depth_duration_stimuli/001164_2014-06-17_15-35-46_260595134347_rgbf000085-resize_3/001164_2014-06-17_15-35-46_260595134347_rgbf000085-resize_3-target.png,1000,2.354,3,2784,1013,feet,jsons/v1_VE1000_randls_65.json,726504,1016071,36,Man
35,349357,DepthScenes,duration_manipulation_targetAtFixation,jsons/v1_VE1000_randls_65.json,http://54.235.29.9/FacialAge/BNav_EC2/DepthDuration/v2_depth_duration_MTurk/v2_DepthDuration_HTML.html#351,351,1366,657,1366,768,9-3-2022,10-10-52,36,depth_duration_stimuli/001136_2014-06-17_15-19-41_260595134347_rgbf000076-resize_3/001136_2014-06-17_15-19-41_260595134347_rgbf000076-resize_3-target.png,1000,1.8655,4,3411,1004,feet,jsons/v1_VE1000_randls_65.json,726504,1016071,36,Man
36,349357,DepthScenes,duration_manipulation_targetAtFixation,jsons/v1_VE1000_randls_65.json,http://54.235.29.9/FacialAge/BNav_EC2/DepthDuration/v2_depth_duration_MTurk/v2_DepthDuration_HTML.html#351,351,1366,657,1366,768,9-3-2022,10-10-52,37,depth_duration_stimuli/002509_2014-06-24_13-19-22_094959634447_rgbf000077-resize_0/002509_2014-06-24_13-19-22_094959634447_rgbf000077-resize_0-target.png,1000,1.3065,2,3092,991,feet,jsons/v1_VE1000_randls_65.json,726504,1016071,36,Man
37,349357,DepthScenes,duration_manipulation_targetAtFixation,jsons/v1_VE1000_randls_65.json,http://54.235.29.9/FacialAge/BNav_EC2/DepthDuration/v2_depth_duration_MTurk/v2_DepthDuration_HTML.html#351,351,1366,657,1366,768,9-3-2022,10-10-52,38,depth_duration_stimuli/003338_2014-05-20_11-01-23_094959634447_rgbf000051-resize_6/003338_2014-05-20_11-01-23_094959634447_rgbf000051-resize_6-target.png,1000,1.693,2,3124,1000,feet,jsons/v1_VE1000_randls_65.json,726504,1016071,36,Man
38,349357,DepthScenes,duration_manipulation_targetAtFixation,jsons/v1_VE1000_randls_65.json,http://54.235.29.9/FacialAge/BNav_EC2/DepthDuration/v2_depth_duration_MTurk/v2_DepthDuration_HTML.html#351,351,1366,657,1366,768,9-3-2022,10-10-52,39,depth_duration_stimuli/003070_2014-06-15_14-58-27_094959634447_rgbf000150-resize_3/003070_2014-06-15_14-58-27_094959634447_rgbf000150-resize_3-target.png,1000,2.9415,4,3362,1005,feet,jsons/v1_VE1000_randls_65.json,726504,1016071,36,Man
39,349357,DepthScenes,duration_manipulation_targetAtFixation,jsons/v1_VE1000_randls_65.json,http://54.235.29.9/FacialAge/BNav_EC2/DepthDuration/v2_depth_duration_MTurk/v2_DepthDuration_HTML.html#351,351,1366,657,1366,768,9-3-2022,10-10-52,40,depth_duration_stimuli/000943_2014-06-09_19-31-07_260595134347_rgbf000128-resize_1/000943_2014-06-09_19-31-07_260595134347_rgbf000128-resize_1-target.png,1000,1.9765,5,4884,1025,feet,jsons/v1_VE1000_randls_65.json,726504,1016071,36,Man
40,349357,DepthScenes,duration_manipulation_targetAtFixation,jsons/v1_VE1000_randls_65.json,http://54.235.29.9/FacialAge/BNav_EC2/DepthDuration/v2_depth_duration_MTurk/v2_DepthDuration_HTML.html#351,351,1366,657,1366,768,9-3-2022,10-10-52,41,depth_duration_stimuli/003292_2014-05-14_21-53-49_094959634447_rgbf000100-resize_2/003292_2014-05-14_21-53-49_094959634447_rgbf000100-resize_2-target.png,1000,3.4815,4,2971,987,feet,jsons/v1_VE1000_randls_65.json,726504,1016071,36,Man
41,349357,DepthScenes,duration_manipulation_targetAtFixation,jsons/v1_VE1000_randls_65.json,http://54.235.29.9/FacialAge/BNav_EC2/DepthDuration/v2_depth_duration_MTurk/v2_DepthDuration_HTML.html#351,351,1366,657,1366,768,9-3-2022,10-10-52,42,depth_duration_stimuli/002639_2014-06-24_14-51-37_094959634447_rgbf000074-resize_4/002639_2014-06-24_14-51-37_094959634447_rgbf000074-resize_4-target.png,1000,4.0375,5,3171,1014,feet,jsons/v1_VE1000_randls_65.json,726504,1016071,36,Man
42,349357,DepthScenes,duration_manipulation_targetAtFixation,jsons/v1_VE1000_randls_65.json,http://54.235.29.9/FacialAge/BNav_EC2/DepthDuration/v2_depth_duration_MTurk/v2_DepthDuration_HTML.html#351,351,1366,657,1366,768,9-3-2022,10-10-52,43,depth_duration_stimuli/001449_2014-06-19_17-01-27_260595134347_rgbf000116-resize_2/001449_2014-06-19_17-01-27_260595134347_rgbf000116-resize_2-target.png,1000,3.452,5,3188,993,feet,jsons/v1_VE1000_randls_65.json,726504,1016071,36,Man
43,349357,DepthScenes,duration_manipulation_targetAtFixation,jsons/v1_VE1000_randls_65.json,http://54.235.29.9/FacialAge/BNav_EC2/DepthDuration/v2_depth_duration_MTurk/v2_DepthDuration_HTML.html#351,351,1366,657,1366,768,9-3-2022,10-10-52,44,depth_duration_stimuli/001450_2014-06-19_17-02-03_260595134347_rgbf000203-resize_4/001450_2014-06-19_17-02-03_260595134347_rgbf000203-resize_4-target.png,1000,4.0106666666667,6,2788,987,feet,jsons/v1_VE1000_randls_65.json,726504,1016071,36,Man
44,349357,DepthScenes,duration_manipulation_targetAtFixation,jsons/v1_VE1000_randls_65.json,http://54.235.29.9/FacialAge/BNav_EC2/DepthDuration/v2_depth_duration_MTurk/v2_DepthDuration_HTML.html#351,351,1366,657,1366,768,9-3-2022,10-10-52,45,depth_duration_stimuli/000787_2014-06-08_22-33-53_260595134347_rgbf000175-resize_1/000787_2014-06-08_22-33-53_260595134347_rgbf000175-resize-original.jpg,1000,4.784,0,3762,983,feet,jsons/v1_VE1000_randls_65.json,726504,1016071,36,Man
45,349357,DepthScenes,duration_manipulation_targetAtFixation,jsons/v1_VE1000_randls_65.json,http://54.235.29.9/FacialAge/BNav_EC2/DepthDuration/v2_depth_duration_MTurk/v2_DepthDuration_HTML.html#351,351,1366,657,1366,768,9-3-2022,10-10-52,46,depth_duration_stimuli/000368_2014-06-09_15-53-01_260595134347_rgbf000155-resize_2/000368_2014-06-09_15-53-01_260595134347_rgbf000155-resize_2-target.png,1000,2.4859999999999998,3,4712,1035,feet,jsons/v1_VE1000_randls_65.json,726504,1016071,36,Man
46,349357,DepthScenes,duration_manipulation_targetAtFixation,jsons/v1_VE1000_randls_65.json,http://54.235.29.9/FacialAge/BNav_EC2/DepthDuration/v2_depth_duration_MTurk/v2_DepthDuration_HTML.html#351,351,1366,657,1366,768,9-3-2022,10-10-52,47,depth_duration_stimuli/002678_2014-06-13_16-15-32_094959634447_rgbf000151-resize_6/002678_2014-06-13_16-15-32_094959634447_rgbf000151-resize_6-target.png,1000,2.1830000000000003,4,2993,991,feet,jsons/v1_VE1000_randls_65.json,726504,1016071,36,Man
47,349357,DepthScenes,duration_manipulation_targetAtFixation,jsons/v1_VE1000_randls_65.json,http://54.235.29.9/FacialAge/BNav_EC2/DepthDuration/v2_depth_duration_MTurk/v2_DepthDuration_HTML.html#351,351,1366,657,1366,768,9-3-2022,10-10-52,48,depth_duration_stimuli/002213_2014-06-28_18-37-58_260595134347_rgbf000055-resize_1/002213_2014-06-28_18-37-58_260595134347_rgbf000055-resize_1-target.png,1000,3.62,9,3701,1004,feet,jsons/v1_VE1000_randls_65.json,726504,1016071,36,Man
48,349357,DepthScenes,duration_manipulation_targetAtFixation,jsons/v1_VE1000_randls_65.json,http://54.235.29.9/FacialAge/BNav_EC2/DepthDuration/v2_depth_duration_MTurk/v2_DepthDuration_HTML.html#351,351,1366,657,1366,768,9-3-2022,10-10-52,49,depth_duration_stimuli/000691_2014-06-08_13-08-50_260595134347_rgbf000132-resize_3/000691_2014-06-08_13-08-50_260595134347_rgbf000132-resize_3-target.png,1000,4.1530000000000005,5,4050,979,feet,jsons/v1_VE1000_randls_65.json,726504,1016071,36,Man
49,349357,DepthScenes,duration_manipulation_targetAtFixation,jsons/v1_VE1000_randls_65.json,http://54.235.29.9/FacialAge/BNav_EC2/DepthDuration/v2_depth_duration_MTurk/v2_DepthDuration_HTML.html#351,351,1366,657,1366,768,9-3-2022,10-10-52,50,depth_duration_stimuli/002043_2014-06-24_20-29-38_260595134347_rgbf000039-resize_4/002043_2014-06-24_20-29-38_260595134347_rgbf000039-resize_4-target.png,1000,2.8435,5,3286,995,feet,jsons/v1_VE1000_randls_65.json,726504,1016071,36,Man
50,349357,DepthScenes,duration_manipulation_targetAtFixation,jsons/v1_VE1000_randls_65.json,http://54.235.29.9/FacialAge/BNav_EC2/DepthDuration/v2_depth_duration_MTurk/v2_DepthDuration_HTML.html#351,351,1366,657,1366,768,9-3-2022,10-10-52,51,depth_duration_stimuli/003048_2014-06-15_13-49-43_094959634447_rgbf000150-resize_1/003048_2014-06-15_13-49-43_094959634447_rgbf000150-resize_1-target.png,1000,4.0035,8,4008,1003,feet,jsons/v1_VE1000_randls_65.json,726504,1016071,36,Man
51,349357,DepthScenes,duration_manipulation_targetAtFixation,jsons/v1_VE1000_randls_65.json,http://54.235.29.9/FacialAge/BNav_EC2/DepthDuration/v2_depth_duration_MTurk/v2_DepthDuration_HTML.html#351,351,1366,657,1366,768,9-3-2022,10-10-52,52,depth_duration_stimuli/001092_2014-06-15_17-34-58_260595134347_rgbf000171-resize_3/001092_2014-06-15_17-34-58_260595134347_rgbf000171-resize_3-target.png,1000,2.6935,4,4621,1004,feet,jsons/v1_VE1000_randls_65.json,726504,1016071,36,Man
52,349357,DepthScenes,duration_manipulation_targetAtFixation,jsons/v1_VE1000_randls_65.json,http://54.235.29.9/FacialAge/BNav_EC2/DepthDuration/v2_depth_duration_MTurk/v2_DepthDuration_HTML.html#351,351,1366,657,1366,768,9-3-2022,10-10-52,53,depth_duration_stimuli/002545_2014-06-24_13-38-53_094959634447_rgbf000080-resize_4/002545_2014-06-24_13-38-53_094959634447_rgbf000080-resize_4-target.png,1000,1.9205,4,3316,943,feet,jsons/v1_VE1000_randls_65.json,726504,1016071,36,Man
53,349357,DepthScenes,duration_manipulation_targetAtFixation,jsons/v1_VE1000_randls_65.json,http://54.235.29.9/FacialAge/BNav_EC2/DepthDuration/v2_depth_duration_MTurk/v2_DepthDuration_HTML.html#351,351,1366,657,1366,768,9-3-2022,10-10-52,54,depth_duration_stimuli/002784_2014-06-22_19-26-30_094959634447_rgbf000083-resize_3/002784_2014-06-22_19-26-30_094959634447_rgbf000083-resize_3-target.png,1000,1.8046666666667,3,3667,997,feet,jsons/v1_VE1000_randls_65.json,726504,1016071,36,Man
54,349357,DepthScenes,duration_manipulation_targetAtFixation,jsons/v1_VE1000_randls_65.json,http://54.235.29.9/FacialAge/BNav_EC2/DepthDuration/v2_depth_duration_MTurk/v2_DepthDuration_HTML.html#351,351,1366,657,1366,768,9-3-2022,10-10-52,55,depth_duration_stimuli/001100_2014-06-15_17-46-26_260595134347_rgbf000225-resize_2/001100_2014-06-15_17-46-26_260595134347_rgbf000225-resize_2-target.png,1000,2.24,2,3207,1028,feet,jsons/v1_VE1000_randls_65.json,726504,1016071,36,Man
55,349357,DepthScenes,duration_manipulation_targetAtFixation,jsons/v1_VE1000_randls_65.json,http://54.235.29.9/FacialAge/BNav_EC2/DepthDuration/v2_depth_duration_MTurk/v2_DepthDuration_HTML.html#351,351,1366,657,1366,768,9-3-2022,10-10-52,56,depth_duration_stimuli/000493_2014-06-09_21-01-18_260595134347_rgbf000196-resize_3/000493_2014-06-09_21-01-18_260595134347_rgbf000196-resize_3-target.png,1000,3.44,4,3612,998,feet,jsons/v1_VE1000_randls_65.json,726504,1016071,36,Man
56,349357,DepthScenes,duration_manipulation_targetAtFixation,jsons/v1_VE1000_randls_65.json,http://54.235.29.9/FacialAge/BNav_EC2/DepthDuration/v2_depth_duration_MTurk/v2_DepthDuration_HTML.html#351,351,1366,657,1366,768,9-3-2022,10-10-52,57,depth_duration_stimuli/000191_2014-05-12_17-07-38_260595134347_rgbf000199-resize_0/000191_2014-05-12_17-07-38_260595134347_rgbf000199-resize_0-target.png,1000,3.7995,6,3746,997,feet,jsons/v1_VE1000_randls_65.json,726504,1016071,36,Man
57,349357,DepthScenes,duration_manipulation_targetAtFixation,jsons/v1_VE1000_randls_65.json,http://54.235.29.9/FacialAge/BNav_EC2/DepthDuration/v2_depth_duration_MTurk/v2_DepthDuration_HTML.html#351,351,1366,657,1366,768,9-3-2022,10-10-52,58,depth_duration_stimuli/002964_2014-06-08_17-46-11_094959634447_rgbf000091-resize_4/002964_2014-06-08_17-46-11_094959634447_rgbf000091-resize_4-target.png,1000,1.6909999999999998,4,4421,980,feet,jsons/v1_VE1000_randls_65.json,726504,1016071,36,Man
58,349357,DepthScenes,duration_manipulation_targetAtFixation,jsons/v1_VE1000_randls_65.json,http://54.235.29.9/FacialAge/BNav_EC2/DepthDuration/v2_depth_duration_MTurk/v2_DepthDuration_HTML.html#351,351,1366,657,1366,768,9-3-2022,10-10-52,59,depth_duration_stimuli/002136_2014-06-25_21-18-03_260595134347_rgbf000109-resize_3/002136_2014-06-25_21-18-03_260595134347_rgbf000109-resize_3-target.png,1000,1.9569999999999999,3,2946,991,feet,jsons/v1_VE1000_randls_65.json,726504,1016071,36,Man
59,349357,DepthScenes,duration_manipulation_targetAtFixation,jsons/v1_VE1000_randls_65.json,http://54.235.29.9/FacialAge/BNav_EC2/DepthDuration/v2_depth_duration_MTurk/v2_DepthDuration_HTML.html#351,351,1366,657,1366,768,9-3-2022,10-10-52,60,depth_duration_stimuli/000009_2014-05-26_14-32-05_260595134347_rgbf000034-resize_3/000009_2014-05-26_14-32-05_260595134347_rgbf000034-resize_3-target.png,1000,3.8715,7,3421,982,feet,jsons/v1_VE1000_randls_65.json,726504,1016071,36,Man
60,349357,DepthScenes,duration_manipulation_targetAtFixation,jsons/v1_VE1000_randls_65.json,http://54.235.29.9/FacialAge/BNav_EC2/DepthDuration/v2_depth_duration_MTurk/v2_DepthDuration_HTML.html#351,351,1366,657,1366,768,9-3-2022,10-10-52,61,depth_duration_stimuli/001828_2014-06-26_21-40-03_260595134347_rgbf000024-resize_0/001828_2014-06-26_21-40-03_260595134347_rgbf000024-resize_0-target.png,1000,4.8260000000000005,6,3068,999,feet,jsons/v1_VE1000_randls_65.json,726504,1016071,36,Man
61,349357,DepthScenes,duration_manipulation_targetAtFixation,jsons/v1_VE1000_randls_65.json,http://54.235.29.9/FacialAge/BNav_EC2/DepthDuration/v2_depth_duration_MTurk/v2_DepthDuration_HTML.html#351,351,1366,657,1366,768,9-3-2022,10-10-52,62,depth_duration_stimuli/000736_2014-06-08_18-24-15_260595134347_rgbf000206-resize_3/000736_2014-06-08_18-24-15_260595134347_rgbf000206-resize_3-target.png,1000,3.515,4,4026,1005,feet,jsons/v1_VE1000_randls_65.json,726504,1016071,36,Man
62,349357,DepthScenes,duration_manipulation_targetAtFixation,jsons/v1_VE1000_randls_65.json,http://54.235.29.9/FacialAge/BNav_EC2/DepthDuration/v2_depth_duration_MTurk/v2_DepthDuration_HTML.html#351,351,1366,657,1366,768,9-3-2022,10-10-52,63,depth_duration_stimuli/000137_2014-05-20_17-04-49_260595134347_rgbf000120-resize_1/000137_2014-05-20_17-04-49_260595134347_rgbf000120-resize_1-target.png,1000,3.786,5,3581,999,feet,jsons/v1_VE1000_randls_65.json,726504,1016071,36,Man
63,349357,DepthScenes,duration_manipulation_targetAtFixation,jsons/v1_VE1000_randls_65.json,http://54.235.29.9/FacialAge/BNav_EC2/DepthDuration/v2_depth_duration_MTurk/v2_DepthDuration_HTML.html#351,351,1366,657,1366,768,9-3-2022,10-10-52,64,depth_duration_stimuli/001244_2014-06-17_16-47-45_260595134347_rgbf000030-resize_4/001244_2014-06-17_16-47-45_260595134347_rgbf000030-resize_4-target.png,1000,2.0425,4,3657,1004,feet,jsons/v1_VE1000_randls_65.json,726504,1016071,36,Man
64,349357,DepthScenes,duration_manipulation_targetAtFixation,jsons/v1_VE1000_randls_65.json,http://54.235.29.9/FacialAge/BNav_EC2/DepthDuration/v2_depth_duration_MTurk/v2_DepthDuration_HTML.html#351,351,1366,657,1366,768,9-3-2022,10-10-52,65,depth_duration_stimuli/003495_2014-05-21_16-01-51_094959634447_rgbf000100-resize_3/003495_2014-05-21_16-01-51_094959634447_rgbf000100-resize_3-target.png,1000,1.6255,3,3868,986,feet,jsons/v1_VE1000_randls_65.json,726504,1016071,36,Man
65,349357,DepthScenes,duration_manipulation_targetAtFixation,jsons/v1_VE1000_randls_65.json,http://54.235.29.9/FacialAge/BNav_EC2/DepthDuration/v2_depth_duration_MTurk/v2_DepthDuration_HTML.html#351,351,1366,657,1366,768,9-3-2022,10-10-52,66,depth_duration_stimuli/001222_2014-06-17_16-24-06_260595134347_rgbf000073-resize_0/001222_2014-06-17_16-24-06_260595134347_rgbf000073-resize-original.jpg,1000,1.4385,0,4715,976,feet,jsons/v1_VE1000_randls_65.json,726504,1016071,36,Man
66,349357,DepthScenes,duration_manipulation_targetAtFixation,jsons/v1_VE1000_randls_65.json,http://54.235.29.9/FacialAge/BNav_EC2/DepthDuration/v2_depth_duration_MTurk/v2_DepthDuration_HTML.html#351,351,1366,657,1366,768,9-3-2022,10-10-52,67,depth_duration_stimuli/002570_2014-06-24_13-59-54_094959634447_rgbf000059-resize_0/002570_2014-06-24_13-59-54_094959634447_rgbf000059-resize_0-target.png,1000,4.037,3,3942,994,feet,jsons/v1_VE1000_randls_65.json,726504,1016071,36,Man
67,349357,DepthScenes,duration_manipulation_targetAtFixation,jsons/v1_VE1000_randls_65.json,http://54.235.29.9/FacialAge/BNav_EC2/DepthDuration/v2_depth_duration_MTurk/v2_DepthDuration_HTML.html#351,351,1366,657,1366,768,9-3-2022,10-10-52,68,depth_duration_stimuli/002467_2014-06-28_20-38-07_260595134347_rgbf000026-resize_2/002467_2014-06-28_20-38-07_260595134347_rgbf000026-resize_2-target.png,1000,4.742,4,3681,1029,feet,jsons/v1_VE1000_randls_65.json,726504,1016071,36,Man
68,349357,DepthScenes,duration_manipulation_targetAtFixation,jsons/v1_VE1000_randls_65.json,http://54.235.29.9/FacialAge/BNav_EC2/DepthDuration/v2_depth_duration_MTurk/v2_DepthDuration_HTML.html#351,351,1366,657,1366,768,9-3-2022,10-10-52,69,depth_duration_stimuli/002748_2014-06-22_19-07-22_094959634447_rgbf000078-resize_1/002748_2014-06-22_19-07-22_094959634447_rgbf000078-resize_1-target.png,1000,4.6705,7,4679,997,feet,jsons/v1_VE1000_randls_65.json,726504,1016071,36,Man
69,349357,DepthScenes,duration_manipulation_targetAtFixation,jsons/v1_VE1000_randls_65.json,http://54.235.29.9/FacialAge/BNav_EC2/DepthDuration/v2_depth_duration_MTurk/v2_DepthDuration_HTML.html#351,351,1366,657,1366,768,9-3-2022,10-10-52,70,depth_duration_stimuli/002995_2014-06-15_12-31-26_094959634447_rgbf000150-resize_1/002995_2014-06-15_12-31-26_094959634447_rgbf000150-resize_1-target.png,1000,3.8360000000000003,8,3542,993,feet,jsons/v1_VE1000_randls_65.json,726504,1016071,36,Man
70,349357,DepthScenes,duration_manipulation_targetAtFixation,jsons/v1_VE1000_randls_65.json,http://54.235.29.9/FacialAge/BNav_EC2/DepthDuration/v2_depth_duration_MTurk/v2_DepthDuration_HTML.html#351,351,1366,657,1366,768,9-3-2022,10-10-52,71,depth_duration_stimuli/001810_2014-06-26_20-51-35_260595134347_rgbf000040-resize_3/001810_2014-06-26_20-51-35_260595134347_rgbf000040-resize_3-target.png,1000,2.2525,3,3648,998,feet,jsons/v1_VE1000_randls_65.json,726504,1016071,36,Man
71,349357,DepthScenes,duration_manipulation_targetAtFixation,jsons/v1_VE1000_randls_65.json,http://54.235.29.9/FacialAge/BNav_EC2/DepthDuration/v2_depth_duration_MTurk/v2_DepthDuration_HTML.html#351,351,1366,657,1366,768,9-3-2022,10-10-52,72,depth_duration_stimuli/003010_2014-06-15_12-54-35_094959634447_rgbf000112-resize_0/003010_2014-06-15_12-54-35_094959634447_rgbf000112-resize_0-target.png,1000,3.1185,6,3292,995,feet,jsons/v1_VE1000_randls_65.json,726504,1016071,36,Man
72,349357,DepthScenes,duration_manipulation_targetAtFixation,jsons/v1_VE1000_randls_65.json,http://54.235.29.9/FacialAge/BNav_EC2/DepthDuration/v2_depth_duration_MTurk/v2_DepthDuration_HTML.html#351,351,1366,657,1366,768,9-3-2022,10-10-52,73,depth_duration_stimuli/002600_2014-06-24_14-27-04_094959634447_rgbf000074-resize_2/002600_2014-06-24_14-27-04_094959634447_rgbf000074-resize_2-target.png,1000,2.7575,4,5891,998,feet,jsons/v1_VE1000_randls_65.json,726504,1016071,36,Man
73,349357,DepthScenes,duration_manipulation_targetAtFixation,jsons/v1_VE1000_randls_65.json,http://54.235.29.9/FacialAge/BNav_EC2/DepthDuration/v2_depth_duration_MTurk/v2_DepthDuration_HTML.html#351,351,1366,657,1366,768,9-3-2022,10-10-52,74,depth_duration_stimuli/003228_2014-05-14_13-42-35_094959634447_rgbf000101-resize_1/003228_2014-05-14_13-42-35_094959634447_rgbf000101-resize_1-target.png,1000,1.9680000000000002,3,3840,987,feet,jsons/v1_VE1000_randls_65.json,726504,1016071,36,Man
74,349357,DepthScenes,duration_manipulation_targetAtFixation,jsons/v1_VE1000_randls_65.json,http://54.235.29.9/FacialAge/BNav_EC2/DepthDuration/v2_depth_duration_MTurk/v2_DepthDuration_HTML.html#351,351,1366,657,1366,768,9-3-2022,10-10-52,75,depth_duration_stimuli/001011_2014-06-08_23-18-54_260595134347_rgbf000044-resize_4/001011_2014-06-08_23-18-54_260595134347_rgbf000044-resize_4-target.png,1000,2.4730000000000003,5,3681,1006,feet,jsons/v1_VE1000_randls_65.json,726504,1016071,36,Man
75,349357,DepthScenes,duration_manipulation_targetAtFixation,jsons/v1_VE1000_randls_65.json,http://54.235.29.9/FacialAge/BNav_EC2/DepthDuration/v2_depth_duration_MTurk/v2_DepthDuration_HTML.html#351,351,1366,657,1366,768,9-3-2022,10-10-52,76,depth_duration_stimuli/002875_2014-06-01_15-19-00_094959634447_rgbf000151-resize_1/002875_2014-06-01_15-19-00_094959634447_rgbf000151-resize_1-target.png,1000,1.9675,4,3585,998,feet,jsons/v1_VE1000_randls_65.json,726504,1016071,36,Man
76,349357,DepthScenes,duration_manipulation_targetAtFixation,jsons/v1_VE1000_randls_65.json,http://54.235.29.9/FacialAge/BNav_EC2/DepthDuration/v2_depth_duration_MTurk/v2_DepthDuration_HTML.html#351,351,1366,657,1366,768,9-3-2022,10-10-52,77,depth_duration_stimuli/000917_2014-06-09_22-45-29_260595134347_rgbf000149-resize_3/000917_2014-06-09_22-45-29_260595134347_rgbf000149-resize_3-target.png,1000,4.1865,7,3241,983,feet,jsons/v1_VE1000_randls_65.json,726504,1016071,36,Man
77,349357,DepthScenes,duration_manipulation_targetAtFixation,jsons/v1_VE1000_randls_65.json,http://54.235.29.9/FacialAge/BNav_EC2/DepthDuration/v2_depth_duration_MTurk/v2_DepthDuration_HTML.html#351,351,1366,657,1366,768,9-3-2022,10-10-52,78,depth_duration_stimuli/002323_2014-06-28_20-01-54_260595134347_rgbf000051-resize_4/002323_2014-06-28_20-01-54_260595134347_rgbf000051-resize_4-target.png,1000,3.7310000000000003,6,3411,996,feet,jsons/v1_VE1000_randls_65.json,726504,1016071,36,Man
78,349357,DepthScenes,duration_manipulation_targetAtFixation,jsons/v1_VE1000_randls_65.json,http://54.235.29.9/FacialAge/BNav_EC2/DepthDuration/v2_depth_duration_MTurk/v2_DepthDuration_HTML.html#351,351,1366,657,1366,768,9-3-2022,10-10-52,79,depth_duration_stimuli/001016_2014-06-09_16-16-10_260595134347_rgbf000112-resize_5/001016_2014-06-09_16-16-10_260595134347_rgbf000112-resize_5-target.png,1000,1.6565,5,3084,955,feet,jsons/v1_VE1000_randls_65.json,726504,1016071,36,Man
79,349357,DepthScenes,duration_manipulation_targetAtFixation,jsons/v1_VE1000_randls_65.json,http://54.235.29.9/FacialAge/BNav_EC2/DepthDuration/v2_depth_duration_MTurk/v2_DepthDuration_HTML.html#351,351,1366,657,1366,768,9-3-2022,10-10-52,80,depth_duration_stimuli/002340_2014-06-28_20-05-46_260595134347_rgbf000113-resize_0/002340_2014-06-28_20-05-46_260595134347_rgbf000113-resize_0-target.png,1000,2.4735,5,5428,993,feet,jsons/v1_VE1000_randls_65.json,726504,1016071,36,Man
80,349357,DepthScenes,duration_manipulation_targetAtFixation,jsons/v1_VE1000_randls_65.json,http://54.235.29.9/FacialAge/BNav_EC2/DepthDuration/v2_depth_duration_MTurk/v2_DepthDuration_HTML.html#351,351,1366,657,1366,768,9-3-2022,10-10-52,81,depth_duration_stimuli/000929_2014-06-09_16-33-19_260595134347_rgbf000139-resize_0/000929_2014-06-09_16-33-19_260595134347_rgbf000139-resize_0-target.png,1000,2.8680000000000003,4,3447,998,feet,jsons/v1_VE1000_randls_65.json,726504,1016071,36,Man
81,349357,DepthScenes,duration_manipulation_targetAtFixation,jsons/v1_VE1000_randls_65.json,http://54.235.29.9/FacialAge/BNav_EC2/DepthDuration/v2_depth_duration_MTurk/v2_DepthDuration_HTML.html#351,351,1366,657,1366,768,9-3-2022,10-10-52,82,depth_duration_stimuli/000457_2014-06-08_16-52-43_260595134347_rgbf000199-resize_1/000457_2014-06-08_16-52-43_260595134347_rgbf000199-resize_1-target.png,1000,3.6489999999999996,4,3349,996,feet,jsons/v1_VE1000_randls_65.json,726504,1016071,36,Man
82,349357,DepthScenes,duration_manipulation_targetAtFixation,jsons/v1_VE1000_randls_65.json,http://54.235.29.9/FacialAge/BNav_EC2/DepthDuration/v2_depth_duration_MTurk/v2_DepthDuration_HTML.html#351,351,1366,657,1366,768,9-3-2022,10-10-52,83,depth_duration_stimuli/001066_2014-06-08_22-03-20_260595134347_rgbf000066-resize_4/001066_2014-06-08_22-03-20_260595134347_rgbf000066-resize_4-target.png,1000,4.2330000000000005,4,3521,994,feet,jsons/v1_VE1000_randls_65.json,726504,1016071,36,Man
83,349357,DepthScenes,duration_manipulation_targetAtFixation,jsons/v1_VE1000_randls_65.json,http://54.235.29.9/FacialAge/BNav_EC2/DepthDuration/v2_depth_duration_MTurk/v2_DepthDuration_HTML.html#351,351,1366,657,1366,768,9-3-2022,10-10-52,84,depth_duration_stimuli/000742_2014-06-08_18-48-09_260595134347_rgbf000164-resize_4/000742_2014-06-08_18-48-09_260595134347_rgbf000164-resize_4-target.png,1000,4.632,7,3291,986,feet,jsons/v1_VE1000_randls_65.json,726504,1016071,36,Man
84,349357,DepthScenes,duration_manipulation_targetAtFixation,jsons/v1_VE1000_randls_65.json,http://54.235.29.9/FacialAge/BNav_EC2/DepthDuration/v2_depth_duration_MTurk/v2_DepthDuration_HTML.html#351,351,1366,657,1366,768,9-3-2022,10-10-52,85,depth_duration_stimuli/001555_2014-06-20_17-12-10_260595134347_rgbf000065-resize_4/001555_2014-06-20_17-12-10_260595134347_rgbf000065-resize_4-target.png,1000,1.633,2,3869,999,feet,jsons/v1_VE1000_randls_65.json,726504,1016071,36,Man
85,349357,DepthScenes,duration_manipulation_targetAtFixation,jsons/v1_VE1000_randls_65.json,http://54.235.29.9/FacialAge/BNav_EC2/DepthDuration/v2_depth_duration_MTurk/v2_DepthDuration_HTML.html#351,351,1366,657,1366,768,9-3-2022,10-10-52,86,depth_duration_stimuli/000103_2014-05-14_22-01-17_260595134347_rgbf000152-resize_5/000103_2014-05-14_22-01-17_260595134347_rgbf000152-resize_5-target.png,1000,1.993,4,3389,999,feet,jsons/v1_VE1000_randls_65.json,726504,1016071,36,Man
86,349357,DepthScenes,duration_manipulation_targetAtFixation,jsons/v1_VE1000_randls_65.json,http://54.235.29.9/FacialAge/BNav_EC2/DepthDuration/v2_depth_duration_MTurk/v2_DepthDuration_HTML.html#351,351,1366,657,1366,768,9-3-2022,10-10-52,87,depth_duration_stimuli/002788_2014-06-22_19-36-03_094959634447_rgbf000088-resize_2/002788_2014-06-22_19-36-03_094959634447_rgbf000088-resize_2-target.png,1000,1.6465,5,3077,1006,feet,jsons/v1_VE1000_randls_65.json,726504,1016071,36,Man
87,349357,DepthScenes,duration_manipulation_targetAtFixation,jsons/v1_VE1000_randls_65.json,http://54.235.29.9/FacialAge/BNav_EC2/DepthDuration/v2_depth_duration_MTurk/v2_DepthDuration_HTML.html#351,351,1366,657,1366,768,9-3-2022,10-10-52,88,depth_duration_stimuli/000749_2014-06-08_21-55-06_260595134347_rgbf000070-resize_2/000749_2014-06-08_21-55-06_260595134347_rgbf000070-resize_2-target.png,1000,2.331,5,2995,985,feet,jsons/v1_VE1000_randls_65.json,726504,1016071,36,Man
88,349357,DepthScenes,duration_manipulation_targetAtFixation,jsons/v1_VE1000_randls_65.json,http://54.235.29.9/FacialAge/BNav_EC2/DepthDuration/v2_depth_duration_MTurk/v2_DepthDuration_HTML.html#351,351,1366,657,1366,768,9-3-2022,10-10-52,89,depth_duration_stimuli/001029_2014-06-08_13-17-57_260595134347_rgbf000065-resize_1/001029_2014-06-08_13-17-57_260595134347_rgbf000065-resize_1-target.png,1000,3.0835,5,2952,982,feet,jsons/v1_VE1000_randls_65.json,726504,1016071,36,Man
89,349357,DepthScenes,duration_manipulation_targetAtFixation,jsons/v1_VE1000_randls_65.json,http://54.235.29.9/FacialAge/BNav_EC2/DepthDuration/v2_depth_duration_MTurk/v2_DepthDuration_HTML.html#351,351,1366,657,1366,768,9-3-2022,10-10-52,90,depth_duration_stimuli/000677_2014-06-08_23-10-32_260595134347_rgbf000158-resize_6/000677_2014-06-08_23-10-32_260595134347_rgbf000158-resize_6-target.png,1000,3.556,6,3551,988,feet,jsons/v1_VE1000_randls_65.json,726504,1016071,36,Man
90,349357,DepthScenes,duration_manipulation_targetAtFixation,jsons/v1_VE1000_randls_65.json,http://54.235.29.9/FacialAge/BNav_EC2/DepthDuration/v2_depth_duration_MTurk/v2_DepthDuration_HTML.html#351,351,1366,657,1366,768,9-3-2022,10-10-52,91,depth_duration_stimuli/001150_2014-06-17_15-27-34_260595134347_rgbf000108-resize_2/001150_2014-06-17_15-27-34_260595134347_rgbf000108-resize_2-target.png,1000,4.0325,6,2958,983,feet,jsons/v1_VE1000_randls_65.json,726504,1016071,36,Man
91,349357,DepthScenes,duration_manipulation_targetAtFixation,jsons/v1_VE1000_randls_65.json,http://54.235.29.9/FacialAge/BNav_EC2/DepthDuration/v2_depth_duration_MTurk/v2_DepthDuration_HTML.html#351,351,1366,657,1366,768,9-3-2022,10-10-52,92,depth_duration_stimuli/000665_2014-06-09_20-42-35_260595134347_rgbf000110-resize_1/000665_2014-06-09_20-42-35_260595134347_rgbf000110-resize_1-target.png,1000,3.057,5,2742,1005,feet,jsons/v1_VE1000_randls_65.json,726504,1016071,36,Man
92,349357,DepthScenes,duration_manipulation_targetAtFixation,jsons/v1_VE1000_randls_65.json,http://54.235.29.9/FacialAge/BNav_EC2/DepthDuration/v2_depth_duration_MTurk/v2_DepthDuration_HTML.html#351,351,1366,657,1366,768,9-3-2022,10-10-52,93,depth_duration_stimuli/000758_2014-06-08_22-05-08_260595134347_rgbf000085-resize_0/000758_2014-06-08_22-05-08_260595134347_rgbf000085-resize_0-target.png,1000,3.3810000000000002,6,2861,1004,feet,jsons/v1_VE1000_randls_65.json,726504,1016071,36,Man
93,349357,DepthScenes,duration_manipulation_targetAtFixation,jsons/v1_VE1000_randls_65.json,http://54.235.29.9/FacialAge/BNav_EC2/DepthDuration/v2_depth_duration_MTurk/v2_DepthDuration_HTML.html#351,351,1366,657,1366,768,9-3-2022,10-10-52,94,depth_duration_stimuli/000854_2014-06-09_19-43-13_260595134347_rgbf000066-resize_0/000854_2014-06-09_19-43-13_260595134347_rgbf000066-resize_0-target.png,1000,3.068,4,2971,993,feet,jsons/v1_VE1000_randls_65.json,726504,1016071,36,Man
94,349357,DepthScenes,duration_manipulation_targetAtFixation,jsons/v1_VE1000_randls_65.json,http://54.235.29.9/FacialAge/BNav_EC2/DepthDuration/v2_depth_duration_MTurk/v2_DepthDuration_HTML.html#351,351,1366,657,1366,768,9-3-2022,10-10-52,95,depth_duration_stimuli/001133_2014-06-17_14-49-16_260595134347_rgbf000100-resize_0/001133_2014-06-17_14-49-16_260595134347_rgbf000100-resize_0-target.png,1000,4.2115,7,3457,997,feet,jsons/v1_VE1000_randls_65.json,726504,1016071,36,Man
95,349357,DepthScenes,duration_manipulation_targetAtFixation,jsons/v1_VE1000_randls_65.json,http://54.235.29.9/FacialAge/BNav_EC2/DepthDuration/v2_depth_duration_MTurk/v2_DepthDuration_HTML.html#351,351,1366,657,1366,768,9-3-2022,10-10-52,96,depth_duration_stimuli/001132_2014-06-17_14-48-54_260595134347_rgbf000100-resize_2/001132_2014-06-17_14-48-54_260595134347_rgbf000100-resize_2-target.png,1000,3.753,6,3803,990,feet,jsons/v1_VE1000_randls_65.json,726504,1016071,36,Man
96,349357,DepthScenes,duration_manipulation_targetAtFixation,jsons/v1_VE1000_randls_65.json,http://54.235.29.9/FacialAge/BNav_EC2/DepthDuration/v2_depth_duration_MTurk/v2_DepthDuration_HTML.html#351,351,1366,657,1366,768,9-3-2022,10-10-52,97,depth_duration_stimuli/000878_2014-06-08_22-52-45_260595134347_rgbf000045-resize_2/000878_2014-06-08_22-52-45_260595134347_rgbf000045-resize_2-target.png,1000,2.092,4,2969,1000,feet,jsons/v1_VE1000_randls_65.json,726504,1016071,36,Man
97,349357,DepthScenes,duration_manipulation_targetAtFixation,jsons/v1_VE1000_randls_65.json,http://54.235.29.9/FacialAge/BNav_EC2/DepthDuration/v2_depth_duration_MTurk/v2_DepthDuration_HTML.html#351,351,1366,657,1366,768,9-3-2022,10-10-52,98,depth_duration_stimuli/002953_2014-06-08_17-32-18_094959634447_rgbf000059-resize_5/002953_2014-06-08_17-32-18_094959634447_rgbf000059-resize_5-target.png,1000,1.551,2,3342,989,feet,jsons/v1_VE1000_randls_65.json,726504,1016071,36,Man
98,349357,DepthScenes,duration_manipulation_targetAtFixation,jsons/v1_VE1000_randls_65.json,http://54.235.29.9/FacialAge/BNav_EC2/DepthDuration/v2_depth_duration_MTurk/v2_DepthDuration_HTML.html#351,351,1366,657,1366,768,9-3-2022,10-10-52,99,depth_duration_stimuli/001540_2014-06-20_17-01-05_260595134347_rgbf000086-resize_2/001540_2014-06-20_17-01-05_260595134347_rgbf000086-resize-original.jpg,1000,1.459,0,5239,1013,feet,jsons/v1_VE1000_randls_65.json,726504,1016071,36,Man
99,349357,DepthScenes,duration_manipulation_targetAtFixation,jsons/v1_VE1000_randls_65.json,http://54.235.29.9/FacialAge/BNav_EC2/DepthDuration/v2_depth_duration_MTurk/v2_DepthDuration_HTML.html#351,351,1366,657,1366,768,9-3-2022,10-10-52,100,depth_duration_stimuli/000810_2014-06-08_17-20-01_260595134347_rgbf000105-resize_0/000810_2014-06-08_17-20-01_260595134347_rgbf000105-resize_0-target.png,1000,1.4865,3,3571,946,feet,jsons/v1_VE1000_randls_65.json,726504,1016071,36,Man
100,349357,DepthScenes,duration_manipulation_targetAtFixation,jsons/v1_VE1000_randls_65.json,http://54.235.29.9/FacialAge/BNav_EC2/DepthDuration/v2_depth_duration_MTurk/v2_DepthDuration_HTML.html#351,351,1366,657,1366,768,9-3-2022,10-10-52,101,depth_duration_stimuli/001214_2014-06-17_16-13-55_260595134347_rgbf000111-resize_0/001214_2014-06-17_16-13-55_260595134347_rgbf000111-resize_0-target.png,1000,2.6505,3,3961,980,feet,jsons/v1_VE1000_randls_65.json,726504,1016071,36,Man
101,349357,DepthScenes,duration_manipulation_targetAtFixation,jsons/v1_VE1000_randls_65.json,http://54.235.29.9/FacialAge/BNav_EC2/DepthDuration/v2_depth_duration_MTurk/v2_DepthDuration_HTML.html#351,351,1366,657,1366,768,9-3-2022,10-10-52,102,depth_duration_stimuli/001059_2014-06-08_21-53-27_260595134347_rgbf000061-resize_4/001059_2014-06-08_21-53-27_260595134347_rgbf000061-resize_4-target.png,1000,2.4185,5,3602,985,feet,jsons/v1_VE1000_randls_65.json,726504,1016071,36,Man
102,349357,DepthScenes,duration_manipulation_targetAtFixation,jsons/v1_VE1000_randls_65.json,http://54.235.29.9/FacialAge/BNav_EC2/DepthDuration/v2_depth_duration_MTurk/v2_DepthDuration_HTML.html#351,351,1366,657,1366,768,9-3-2022,10-10-52,103,depth_duration_stimuli/001032_2014-06-08_13-23-17_260595134347_rgbf000021-resize_3/001032_2014-06-08_13-23-17_260595134347_rgbf000021-resize_3-target.png,1000,3.2725,5,7978,1022,feet,jsons/v1_VE1000_randls_65.json,726504,1016071,36,Man
103,349357,DepthScenes,duration_manipulation_targetAtFixation,jsons/v1_VE1000_randls_65.json,http://54.235.29.9/FacialAge/BNav_EC2/DepthDuration/v2_depth_duration_MTurk/v2_DepthDuration_HTML.html#351,351,1366,657,1366,768,9-3-2022,10-10-52,104,depth_duration_stimuli/000906_2014-06-08_13-35-43_260595134347_rgbf000155-resize_1/000906_2014-06-08_13-35-43_260595134347_rgbf000155-resize_1-target.png,1000,2.8489999999999998,6,6527,989,feet,jsons/v1_VE1000_randls_65.json,726504,1016071,36,Man
104,349357,DepthScenes,duration_manipulation_targetAtFixation,jsons/v1_VE1000_randls_65.json,http://54.235.29.9/FacialAge/BNav_EC2/DepthDuration/v2_depth_duration_MTurk/v2_DepthDuration_HTML.html#351,351,1366,657,1366,768,9-3-2022,10-10-52,105,depth_duration_stimuli/002805_2014-06-22_19-54-03_094959634447_rgbf000079-resize_1/002805_2014-06-22_19-54-03_094959634447_rgbf000079-resize_1-target.png,1000,3.1439999999999997,6,3407,998,feet,jsons/v1_VE1000_randls_65.json,726504,1016071,36,Man
105,349357,DepthScenes,duration_manipulation_targetAtFixation,jsons/v1_VE1000_randls_65.json,http://54.235.29.9/FacialAge/BNav_EC2/DepthDuration/v2_depth_duration_MTurk/v2_DepthDuration_HTML.html#351,351,1366,657,1366,768,9-3-2022,10-10-52,106,depth_duration_stimuli/001806_2014-06-26_20-50-20_260595134347_rgbf000091-resize_1/001806_2014-06-26_20-50-20_260595134347_rgbf000091-resize_1-target.png,1000,2.7305,4,3922,999,feet,jsons/v1_VE1000_randls_65.json,726504,1016071,36,Man
106,349357,DepthScenes,duration_manipulation_targetAtFixation,jsons/v1_VE1000_randls_65.json,http://54.235.29.9/FacialAge/BNav_EC2/DepthDuration/v2_depth_duration_MTurk/v2_DepthDuration_HTML.html#351,351,1366,657,1366,768,9-3-2022,10-10-52,107,depth_duration_stimuli/001617_2014-06-20_11-35-32_260595134347_rgbf000066-resize_1/001617_2014-06-20_11-35-32_260595134347_rgbf000066-resize_1-target.png,1000,3.7910000000000004,6,3838,994,feet,jsons/v1_VE1000_randls_65.json,726504,1016071,36,Man
107,349357,DepthScenes,duration_manipulation_targetAtFixation,jsons/v1_VE1000_randls_65.json,http://54.235.29.9/FacialAge/BNav_EC2/DepthDuration/v2_depth_duration_MTurk/v2_DepthDuration_HTML.html#351,351,1366,657,1366,768,9-3-2022,10-10-52,108,depth_duration_stimuli/003621_2014-05-23_18-06-08_094959634447_rgbf000101-resize_1/003621_2014-05-23_18-06-08_094959634447_rgbf000101-resize_1-target.png,1000,3.9835,7,3440,1000,feet,jsons/v1_VE1000_randls_65.json,726504,1016071,36,Man
108,349357,DepthScenes,duration_manipulation_targetAtFixation,jsons/v1_VE1000_randls_65.json,http://54.235.29.9/FacialAge/BNav_EC2/DepthDuration/v2_depth_duration_MTurk/v2_DepthDuration_HTML.html#351,351,1366,657,1366,768,9-3-2022,10-10-52,109,depth_duration_stimuli/001584_2014-06-20_11-07-43_260595134347_rgbf000002-resize_1/001584_2014-06-20_11-07-43_260595134347_rgbf000002-resize_1-target.png,1000,3.53,5,2914,1018,feet,jsons/v1_VE1000_randls_65.json,726504,1016071,36,Man
109,349357,DepthScenes,duration_manipulation_targetAtFixation,jsons/v1_VE1000_randls_65.json,http://54.235.29.9/FacialAge/BNav_EC2/DepthDuration/v2_depth_duration_MTurk/v2_DepthDuration_HTML.html#351,351,1366,657,1366,768,9-3-2022,10-10-52,110,depth_duration_stimuli/000447_2014-06-08_16-15-46_260595134347_rgbf000130-resize_1/000447_2014-06-08_16-15-46_260595134347_rgbf000130-resize_1-target.png,1000,4.479,7,3538,993,feet,jsons/v1_VE1000_randls_65.json,726504,1016071,36,Man
110,349357,DepthScenes,duration_manipulation_targetAtFixation,jsons/v1_VE1000_randls_65.json,http://54.235.29.9/FacialAge/BNav_EC2/DepthDuration/v2_depth_duration_MTurk/v2_DepthDuration_HTML.html#351,351,1366,657,1366,768,9-3-2022,10-10-52,111,depth_duration_stimuli/001447_2014-06-19_17-00-32_260595134347_rgbf000082-resize_5/001447_2014-06-19_17-00-32_260595134347_rgbf000082-resize_5-target.png,1000,4.13775,4,3632,990,feet,jsons/v1_VE1000_randls_65.json,726504,1016071,36,Man
111,349357,DepthScenes,duration_manipulation_targetAtFixation,jsons/v1_VE1000_randls_65.json,http://54.235.29.9/FacialAge/BNav_EC2/DepthDuration/v2_depth_duration_MTurk/v2_DepthDuration_HTML.html#351,351,1366,657,1366,768,9-3-2022,10-10-52,112,depth_duration_stimuli/002988_2014-06-15_12-24-20_094959634447_rgbf000150-resize_1/002988_2014-06-15_12-24-20_094959634447_rgbf000150-resize_1-target.png,1000,4.7669999999999995,8,6096,1023,feet,jsons/v1_VE1000_randls_65.json,726504,1016071,36,Man
112,349357,DepthScenes,duration_manipulation_targetAtFixation,jsons/v1_VE1000_randls_65.json,http://54.235.29.9/FacialAge/BNav_EC2/DepthDuration/v2_depth_duration_MTurk/v2_DepthDuration_HTML.html#351,351,1366,657,1366,768,9-3-2022,10-10-52,113,depth_duration_stimuli/001052_2014-06-08_18-24-54_260595134347_rgbf000130-resize_1/001052_2014-06-08_18-24-54_260595134347_rgbf000130-resize_1-target.png,1000,4.1045,6,3837,991,feet,jsons/v1_VE1000_randls_65.json,726504,1016071,36,Man
113,349357,DepthScenes,duration_manipulation_targetAtFixation,jsons/v1_VE1000_randls_65.json,http://54.235.29.9/FacialAge/BNav_EC2/DepthDuration/v2_depth_duration_MTurk/v2_DepthDuration_HTML.html#351,351,1366,657,1366,768,9-3-2022,10-10-52,114,depth_duration_stimuli/001158_2014-06-17_15-32-16_260595134347_rgbf000138-resize_2/001158_2014-06-17_15-32-16_260595134347_rgbf000138-resize_2-target.png,1000,4.5315,9,3776,1009,feet,jsons/v1_VE1000_randls_65.json,726504,1016071,36,Man
114,349357,DepthScenes,duration_manipulation_targetAtFixation,jsons/v1_VE1000_randls_65.json,http://54.235.29.9/FacialAge/BNav_EC2/DepthDuration/v2_depth_duration_MTurk/v2_DepthDuration_HTML.html#351,351,1366,657,1366,768,9-3-2022,10-10-52,115,depth_duration_stimuli/000556_2014-06-09_22-42-56_260595134347_rgbf000214-resize_1/000556_2014-06-09_22-42-56_260595134347_rgbf000214-resize_1-target.png,1000,4.8415,7,3295,990,feet,jsons/v1_VE1000_randls_65.json,726504,1016071,36,Man
115,349357,DepthScenes,duration_manipulation_targetAtFixation,jsons/v1_VE1000_randls_65.json,http://54.235.29.9/FacialAge/BNav_EC2/DepthDuration/v2_depth_duration_MTurk/v2_DepthDuration_HTML.html#351,351,1366,657,1366,768,9-3-2022,10-10-52,116,depth_duration_stimuli/001170_2014-06-17_15-43-44_260595134347_rgbf000096-resize_6/001170_2014-06-17_15-43-44_260595134347_rgbf000096-resize-original.jpg,1000,1.1909999999999998,0,9069,1003,feet,jsons/v1_VE1000_randls_65.json,726504,1016071,36,Man
116,349357,DepthScenes,duration_manipulation_targetAtFixation,jsons/v1_VE1000_randls_65.json,http://54.235.29.9/FacialAge/BNav_EC2/DepthDuration/v2_depth_duration_MTurk/v2_DepthDuration_HTML.html#351,351,1366,657,1366,768,9-3-2022,10-10-52,117,depth_duration_stimuli/000773_2014-06-08_22-24-54_260595134347_rgbf000093-resize_1/000773_2014-06-08_22-24-54_260595134347_rgbf000093-resize_1-target.png,1000,4.973,5,4496,994,feet,jsons/v1_VE1000_randls_65.json,726504,1016071,36,Man
117,349357,DepthScenes,duration_manipulation_targetAtFixation,jsons/v1_VE1000_randls_65.json,http://54.235.29.9/FacialAge/BNav_EC2/DepthDuration/v2_depth_duration_MTurk/v2_DepthDuration_HTML.html#351,351,1366,657,1366,768,9-3-2022,10-10-52,118,depth_duration_stimuli/002414_2014-06-28_20-24-58_260595134347_rgbf000067-resize_4/002414_2014-06-28_20-24-58_260595134347_rgbf000067-resize_4-target.png,1000,4.363,7,4772,997,feet,jsons/v1_VE1000_randls_65.json,726504,1016071,36,Man
118,349357,DepthScenes,duration_manipulation_targetAtFixation,jsons/v1_VE1000_randls_65.json,http://54.235.29.9/FacialAge/BNav_EC2/DepthDuration/v2_depth_duration_MTurk/v2_DepthDuration_HTML.html#351,351,1366,657,1366,768,9-3-2022,10-10-52,119,depth_duration_stimuli/003534_2014-05-22_15-06-10_094959634447_rgbf000102-resize_4/003534_2014-05-22_15-06-10_094959634447_rgbf000102-resize_4-target.png,1000,1.426,1,3678,981,feet,jsons/v1_VE1000_randls_65.json,726504,1016071,36,Man
119,349357,DepthScenes,duration_manipulation_targetAtFixation,jsons/v1_VE1000_randls_65.json,http://54.235.29.9/FacialAge/BNav_EC2/DepthDuration/v2_depth_duration_MTurk/v2_DepthDuration_HTML.html#351,351,1366,657,1366,768,9-3-2022,10-10-52,120,depth_duration_stimuli/002637_2014-06-24_14-51-13_094959634447_rgbf000066-resize_4/002637_2014-06-24_14-51-13_094959634447_rgbf000066-resize_4-target.png,1000,1.9955,4,3467,988,feet,jsons/v1_VE1000_randls_65.json,726504,1016071,36,Man
120,349357,DepthScenes,duration_manipulation_targetAtFixation,jsons/v1_VE1000_randls_65.json,http://54.235.29.9/FacialAge/BNav_EC2/DepthDuration/v2_depth_duration_MTurk/v2_DepthDuration_HTML.html#351,351,1366,657,1366,768,9-3-2022,10-10-52,121,depth_duration_stimuli/002630_2014-06-24_14-47-50_094959634447_rgbf000055-resize_1/002630_2014-06-24_14-47-50_094959634447_rgbf000055-resize_1-target.png,1000,3.0095,5,4164,1002,feet,jsons/v1_VE1000_randls_65.json,726504,1016071,36,Man
121,349357,DepthScenes,duration_manipulation_targetAtFixation,jsons/v1_VE1000_randls_65.json,http://54.235.29.9/FacialAge/BNav_EC2/DepthDuration/v2_depth_duration_MTurk/v2_DepthDuration_HTML.html#351,351,1366,657,1366,768,9-3-2022,10-10-52,122,depth_duration_stimuli/002758_2014-06-22_19-11-20_094959634447_rgbf000128-resize_1/002758_2014-06-22_19-11-20_094959634447_rgbf000128-resize_1-target.png,1000,2.555,5,3424,998,feet,jsons/v1_VE1000_randls_65.json,726504,1016071,36,Man
122,349357,DepthScenes,duration_manipulation_targetAtFixation,jsons/v1_VE1000_randls_65.json,http://54.235.29.9/FacialAge/BNav_EC2/DepthDuration/v2_depth_duration_MTurk/v2_DepthDuration_HTML.html#351,351,1366,657,1366,768,9-3-2022,10-10-52,123,depth_duration_stimuli/002118_2014-06-25_20-32-08_260595134347_rgbf000078-resize_1/002118_2014-06-25_20-32-08_260595134347_rgbf000078-resize_1-target.png,1000,2.6460000000000004,5,5192,1022,feet,jsons/v1_VE1000_randls_65.json,726504,1016071,36,Man
123,349357,DepthScenes,duration_manipulation_targetAtFixation,jsons/v1_VE1000_randls_65.json,http://54.235.29.9/FacialAge/BNav_EC2/DepthDuration/v2_depth_duration_MTurk/v2_DepthDuration_HTML.html#351,351,1366,657,1366,768,9-3-2022,10-10-52,124,depth_duration_stimuli/001516_2014-06-20_16-25-09_260595134347_rgbf000076-resize_2/001516_2014-06-20_16-25-09_260595134347_rgbf000076-resize_2-target.png,1000,1.7445,3,3485,963,feet,jsons/v1_VE1000_randls_65.json,726504,1016071,36,Man
124,349357,DepthScenes,duration_manipulation_targetAtFixation,jsons/v1_VE1000_randls_65.json,http://54.235.29.9/FacialAge/BNav_EC2/DepthDuration/v2_depth_duration_MTurk/v2_DepthDuration_HTML.html#351,351,1366,657,1366,768,9-3-2022,10-10-52,125,depth_duration_stimuli/000739_2014-06-08_18-45-58_260595134347_rgbf000068-resize_1/000739_2014-06-08_18-45-58_260595134347_rgbf000068-resize_1-target.png,1000,3.534,6,9196,1024,feet,jsons/v1_VE1000_randls_65.json,726504,1016071,36,Man
125,349357,DepthScenes,duration_manipulation_targetAtFixation,jsons/v1_VE1000_randls_65.json,http://54.235.29.9/FacialAge/BNav_EC2/DepthDuration/v2_depth_duration_MTurk/v2_DepthDuration_HTML.html#351,351,1366,657,1366,768,9-3-2022,10-10-52,126,depth_duration_stimuli/000734_2014-06-08_17-39-11_260595134347_rgbf000128-resize_2/000734_2014-06-08_17-39-11_260595134347_rgbf000128-resize_2-target.png,1000,4.098,5,6235,985,feet,jsons/v1_VE1000_randls_65.json,726504,1016071,36,Man
126,349357,DepthScenes,duration_manipulation_targetAtFixation,jsons/v1_VE1000_randls_65.json,http://54.235.29.9/FacialAge/BNav_EC2/DepthDuration/v2_depth_duration_MTurk/v2_DepthDuration_HTML.html#351,351,1366,657,1366,768,9-3-2022,10-10-52,127,depth_duration_stimuli/000692_2014-06-08_13-09-42_260595134347_rgbf000199-resize_2/000692_2014-06-08_13-09-42_260595134347_rgbf000199-resize_2-target.png,1000,3.661,5,2952,1007,feet,jsons/v1_VE1000_randls_65.json,726504,1016071,36,Man
127,349357,DepthScenes,duration_manipulation_targetAtFixation,jsons/v1_VE1000_randls_65.json,http://54.235.29.9/FacialAge/BNav_EC2/DepthDuration/v2_depth_duration_MTurk/v2_DepthDuration_HTML.html#351,351,1366,657,1366,768,9-3-2022,10-10-52,128,depth_duration_stimuli/001094_2014-06-15_17-36-00_260595134347_rgbf000205-resize_0/001094_2014-06-15_17-36-00_260595134347_rgbf000205-resize_0-target.png,1000,4.2175,7,4217,988,feet,jsons/v1_VE1000_randls_65.json,726504,1016071,36,Man
128,349357,DepthScenes,duration_manipulation_targetAtFixation,jsons/v1_VE1000_randls_65.json,http://54.235.29.9/FacialAge/BNav_EC2/DepthDuration/v2_depth_duration_MTurk/v2_DepthDuration_HTML.html#351,351,1366,657,1366,768,9-3-2022,10-10-52,129,depth_duration_stimuli/000436_2014-06-09_22-25-11_260595134347_rgbf000137-resize_1/000436_2014-06-09_22-25-11_260595134347_rgbf000137-resize_1-target.png,1000,4.0705,9,3606,999,feet,jsons/v1_VE1000_randls_65.json,726504,1016071,36,Man
129,349357,DepthScenes,duration_manipulation_targetAtFixation,jsons/v1_VE1000_randls_65.json,http://54.235.29.9/FacialAge/BNav_EC2/DepthDuration/v2_depth_duration_MTurk/v2_DepthDuration_HTML.html#351,351,1366,657,1366,768,9-3-2022,10-10-52,130,depth_duration_stimuli/002444_2014-06-28_20-32-08_260595134347_rgbf000027-resize_0/002444_2014-06-28_20-32-08_260595134347_rgbf000027-resize_0-target.png,1000,4.388999999999999,7,2875,985,feet,jsons/v1_VE1000_randls_65.json,726504,1016071,36,Man
130,349357,DepthScenes,duration_manipulation_targetAtFixation,jsons/v1_VE1000_randls_65.json,http://54.235.29.9/FacialAge/BNav_EC2/DepthDuration/v2_depth_duration_MTurk/v2_DepthDuration_HTML.html#351,351,1366,657,1366,768,9-3-2022,10-10-52,131,depth_duration_stimuli/000486_2014-06-09_20-47-20_260595134347_rgbf000143-resize_2/000486_2014-06-09_20-47-20_260595134347_rgbf000143-resize_2-target.png,1000,4.8325,7,2746,1011,feet,jsons/v1_VE1000_randls_65.json,726504,1016071,36,Man
131,349357,DepthScenes,duration_manipulation_targetAtFixation,jsons/v1_VE1000_randls_65.json,http://54.235.29.9/FacialAge/BNav_EC2/DepthDuration/v2_depth_duration_MTurk/v2_DepthDuration_HTML.html#351,351,1366,657,1366,768,9-3-2022,10-10-52,132,depth_duration_stimuli/003083_2014-06-15_15-21-03_094959634447_rgbf000063-resize_1/003083_2014-06-15_15-21-03_094959634447_rgbf000063-resize_1-target.png,1000,4.1405,9,3461,992,feet,jsons/v1_VE1000_randls_65.json,726504,1016071,36,Man
132,349357,DepthScenes,duration_manipulation_targetAtFixation,jsons/v1_VE1000_randls_65.json,http://54.235.29.9/FacialAge/BNav_EC2/DepthDuration/v2_depth_duration_MTurk/v2_DepthDuration_HTML.html#351,351,1366,657,1366,768,9-3-2022,10-10-52,133,depth_duration_stimuli/002549_2014-06-24_13-41-39_094959634447_rgbf000022-resize_3/002549_2014-06-24_13-41-39_094959634447_rgbf000022-resize_3-target.png,1000,1.476,3,3555,1002,feet,jsons/v1_VE1000_randls_65.json,726504,1016071,36,Man
133,349357,DepthScenes,duration_manipulation_targetAtFixation,jsons/v1_VE1000_randls_65.json,http://54.235.29.9/FacialAge/BNav_EC2/DepthDuration/v2_depth_duration_MTurk/v2_DepthDuration_HTML.html#351,351,1366,657,1366,768,9-3-2022,10-10-52,134,depth_duration_stimuli/002750_2014-06-22_19-08-03_094959634447_rgbf000094-resize_4/002750_2014-06-22_19-08-03_094959634447_rgbf000094-resize_4-target.png,1000,2.354,5,4252,995,feet,jsons/v1_VE1000_randls_65.json,726504,1016071,36,Man
134,349357,DepthScenes,duration_manipulation_targetAtFixation,jsons/v1_VE1000_randls_65.json,http://54.235.29.9/FacialAge/BNav_EC2/DepthDuration/v2_depth_duration_MTurk/v2_DepthDuration_HTML.html#351,351,1366,657,1366,768,9-3-2022,10-10-52,135,depth_duration_stimuli/002072_2014-06-24_21-48-06_260595134347_rgbf000115-resize_0/002072_2014-06-24_21-48-06_260595134347_rgbf000115-resize-original.jpg,1000,4.702,0,3945,1009,feet,jsons/v1_VE1000_randls_65.json,726504,1016071,36,Man
135,349357,DepthScenes,duration_manipulation_targetAtFixation,jsons/v1_VE1000_randls_65.json,http://54.235.29.9/FacialAge/BNav_EC2/DepthDuration/v2_depth_duration_MTurk/v2_DepthDuration_HTML.html#351,351,1366,657,1366,768,9-3-2022,10-10-52,136,depth_duration_stimuli/002989_2014-06-15_12-25-03_094959634447_rgbf000150-resize_3/002989_2014-06-15_12-25-03_094959634447_rgbf000150-resize_3-target.png,1000,4.1975,9,3826,986,feet,jsons/v1_VE1000_randls_65.json,726504,1016071,36,Man
136,349357,DepthScenes,duration_manipulation_targetAtFixation,jsons/v1_VE1000_randls_65.json,http://54.235.29.9/FacialAge/BNav_EC2/DepthDuration/v2_depth_duration_MTurk/v2_DepthDuration_HTML.html#351,351,1366,657,1366,768,9-3-2022,10-10-52,137,depth_duration_stimuli/000866_2014-06-09_20-45-42_260595134347_rgbf000139-resize_1/000866_2014-06-09_20-45-42_260595134347_rgbf000139-resize_1-target.png,1000,3.2155,8,3482,991,feet,jsons/v1_VE1000_randls_65.json,726504,1016071,36,Man
137,349357,DepthScenes,duration_manipulation_targetAtFixation,jsons/v1_VE1000_randls_65.json,http://54.235.29.9/FacialAge/BNav_EC2/DepthDuration/v2_depth_duration_MTurk/v2_DepthDuration_HTML.html#351,351,1366,657,1366,768,9-3-2022,10-10-52,138,depth_duration_stimuli/000788_2014-06-08_22-34-36_260595134347_rgbf000131-resize_1/000788_2014-06-08_22-34-36_260595134347_rgbf000131-resize_1-target.png,1000,3.359,6,3391,923,feet,jsons/v1_VE1000_randls_65.json,726504,1016071,36,Man
138,349357,DepthScenes,duration_manipulation_targetAtFixation,jsons/v1_VE1000_randls_65.json,http://54.235.29.9/FacialAge/BNav_EC2/DepthDuration/v2_depth_duration_MTurk/v2_DepthDuration_HTML.html#351,351,1366,657,1366,768,9-3-2022,10-10-52,139,depth_duration_stimuli/001235_2014-06-17_16-37-36_260595134347_rgbf000084-resize_4/001235_2014-06-17_16-37-36_260595134347_rgbf000084-resize_4-target.png,1000,3.6605,6,3602,995,feet,jsons/v1_VE1000_randls_65.json,726504,1016071,36,Man
139,349357,DepthScenes,duration_manipulation_targetAtFixation,jsons/v1_VE1000_randls_65.json,http://54.235.29.9/FacialAge/BNav_EC2/DepthDuration/v2_depth_duration_MTurk/v2_DepthDuration_HTML.html#351,351,1366,657,1366,768,9-3-2022,10-10-52,140,depth_duration_stimuli/002445_2014-06-28_20-32-16_260595134347_rgbf000029-resize_4/002445_2014-06-28_20-32-16_260595134347_rgbf000029-resize_4-target.png,1000,2.5315,4,3402,993,feet,jsons/v1_VE1000_randls_65.json,726504,1016071,36,Man
140,349357,DepthScenes,duration_manipulation_targetAtFixation,jsons/v1_VE1000_randls_65.json,http://54.235.29.9/FacialAge/BNav_EC2/DepthDuration/v2_depth_duration_MTurk/v2_DepthDuration_HTML.html#351,351,1366,657,1366,768,9-3-2022,10-10-52,141,depth_duration_stimuli/000780_2014-06-08_22-28-29_260595134347_rgbf000126-resize_1/000780_2014-06-08_22-28-29_260595134347_rgbf000126-resize_1-target.png,1000,3.3825,6,6157,947,feet,jsons/v1_VE1000_randls_65.json,726504,1016071,36,Man
141,349357,DepthScenes,duration_manipulation_targetAtFixation,jsons/v1_VE1000_randls_65.json,http://54.235.29.9/FacialAge/BNav_EC2/DepthDuration/v2_depth_duration_MTurk/v2_DepthDuration_HTML.html#351,351,1366,657,1366,768,9-3-2022,10-10-52,142,depth_duration_stimuli/002905_2014-06-03_18-04-43_094959634447_rgbf000151-resize_2/002905_2014-06-03_18-04-43_094959634447_rgbf000151-resize_2-target.png,1000,2.0295,4,4297,999,feet,jsons/v1_VE1000_randls_65.json,726504,1016071,36,Man
142,349357,DepthScenes,duration_manipulation_targetAtFixation,jsons/v1_VE1000_randls_65.json,http://54.235.29.9/FacialAge/BNav_EC2/DepthDuration/v2_depth_duration_MTurk/v2_DepthDuration_HTML.html#351,351,1366,657,1366,768,9-3-2022,10-10-52,143,depth_duration_stimuli/003423_2014-05-21_10-23-26_094959634447_rgbf002665-resize_2/003423_2014-05-21_10-23-26_094959634447_rgbf002665-resize_2-target.png,1000,3.2575,7,3813,996,feet,jsons/v1_VE1000_randls_65.json,726504,1016071,36,Man
143,349357,DepthScenes,duration_manipulation_targetAtFixation,jsons/v1_VE1000_randls_65.json,http://54.235.29.9/FacialAge/BNav_EC2/DepthDuration/v2_depth_duration_MTurk/v2_DepthDuration_HTML.html#351,351,1366,657,1366,768,9-3-2022,10-10-52,144,depth_duration_stimuli/000469_2014-06-09_19-42-10_260595134347_rgbf000081-resize_1/000469_2014-06-09_19-42-10_260595134347_rgbf000081-resize_1-target.png,1000,1.652,3,4547,990,feet,jsons/v1_VE1000_randls_65.json,726504,1016071,36,Man
144,349357,DepthScenes,duration_manipulation_targetAtFixation,jsons/v1_VE1000_randls_65.json,http://54.235.29.9/FacialAge/BNav_EC2/DepthDuration/v2_depth_duration_MTurk/v2_DepthDuration_HTML.html#351,351,1366,657,1366,768,9-3-2022,10-10-52,145,depth_duration_stimuli/000483_2014-06-09_20-41-45_260595134347_rgbf000116-resize_4/000483_2014-06-09_20-41-45_260595134347_rgbf000116-resize_4-target.png,1000,1.337,2,3074,1010,feet,jsons/v1_VE1000_randls_65.json,726504,1016071,36,Man
145,349357,DepthScenes,duration_manipulation_targetAtFixation,jsons/v1_VE1000_randls_65.json,http://54.235.29.9/FacialAge/BNav_EC2/DepthDuration/v2_depth_duration_MTurk/v2_DepthDuration_HTML.html#351,351,1366,657,1366,768,9-3-2022,10-10-52,146,depth_duration_stimuli/001498_2014-06-19_17-45-14_260595134347_rgbf000129-resize_4/001498_2014-06-19_17-45-14_260595134347_rgbf000129-resize-original.jpg,1000,1.4075,0,4728,984,feet,jsons/v1_VE1000_randls_65.json,726504,1016071,36,Man
146,349357,DepthScenes,duration_manipulation_targetAtFixation,jsons/v1_VE1000_randls_65.json,http://54.235.29.9/FacialAge/BNav_EC2/DepthDuration/v2_depth_duration_MTurk/v2_DepthDuration_HTML.html#351,351,1366,657,1366,768,9-3-2022,10-10-52,147,depth_duration_stimuli/001110_2014-06-15_17-25-28_260595134347_rgbf000150-resize_1/001110_2014-06-15_17-25-28_260595134347_rgbf000150-resize_1-target.png,1000,1.7115,4,4698,1015,feet,jsons/v1_VE1000_randls_65.json,726504,1016071,36,Man
147,349357,DepthScenes,duration_manipulation_targetAtFixation,jsons/v1_VE1000_randls_65.json,http://54.235.29.9/FacialAge/BNav_EC2/DepthDuration/v2_depth_duration_MTurk/v2_DepthDuration_HTML.html#351,351,1366,657,1366,768,9-3-2022,10-10-52,148,depth_duration_stimuli/000927_2014-06-09_16-32-30_260595134347_rgbf000123-resize_3/000927_2014-06-09_16-32-30_260595134347_rgbf000123-resize_3-target.png,1000,2.6785,5,4380,996,feet,jsons/v1_VE1000_randls_65.json,726504,1016071,36,Man
148,349357,DepthScenes,duration_manipulation_targetAtFixation,jsons/v1_VE1000_randls_65.json,http://54.235.29.9/FacialAge/BNav_EC2/DepthDuration/v2_depth_duration_MTurk/v2_DepthDuration_HTML.html#351,351,1366,657,1366,768,9-3-2022,10-10-52,149,depth_duration_stimuli/000470_2014-06-09_19-42-40_260595134347_rgbf000094-resize_1/000470_2014-06-09_19-42-40_260595134347_rgbf000094-resize_1-target.png,1000,1.831,3,7099,978,feet,jsons/v1_VE1000_randls_65.json,726504,1016071,36,Man
149,349357,DepthScenes,duration_manipulation_targetAtFixation,jsons/v1_VE1000_randls_65.json,http://54.235.29.9/FacialAge/BNav_EC2/DepthDuration/v2_depth_duration_MTurk/v2_DepthDuration_HTML.html#351,351,1366,657,1366,768,9-3-2022,10-10-52,150,depth_duration_stimuli/000109_2014-05-14_23-41-52_260595134347_rgbf000035-resize_9/000109_2014-05-14_23-41-52_260595134347_rgbf000035-resize_9-target.png,1000,1.3545,2,4436,992,feet,jsons/v1_VE1000_randls_65.json,726504,1016071,36,Man
150,349357,DepthScenes,duration_manipulation_targetAtFixation,jsons/v1_VE1000_randls_65.json,http://54.235.29.9/FacialAge/BNav_EC2/DepthDuration/v2_depth_duration_MTurk/v2_DepthDuration_HTML.html#351,351,1366,657,1366,768,9-3-2022,10-10-52,151,depth_duration_stimuli/001808_2014-06-26_20-50-58_260595134347_rgbf000029-resize_1/001808_2014-06-26_20-50-58_260595134347_rgbf000029-resize_1-target.png,1000,4.249,9,4570,999,feet,jsons/v1_VE1000_randls_65.json,726504,1016071,36,Man
151,349357,DepthScenes,duration_manipulation_targetAtFixation,jsons/v1_VE1000_randls_65.json,http://54.235.29.9/FacialAge/BNav_EC2/DepthDuration/v2_depth_duration_MTurk/v2_DepthDuration_HTML.html#351,351,1366,657,1366,768,9-3-2022,10-10-52,152,depth_duration_stimuli/001815_2014-06-26_20-52-55_260595134347_rgbf000020-resize_0/001815_2014-06-26_20-52-55_260595134347_rgbf000020-resize_0-target.png,1000,3.3865,8,3967,1005,feet,jsons/v1_VE1000_randls_65.json,726504,1016071,36,Man
152,349357,DepthScenes,duration_manipulation_targetAtFixation,jsons/v1_VE1000_randls_65.json,http://54.235.29.9/FacialAge/BNav_EC2/DepthDuration/v2_depth_duration_MTurk/v2_DepthDuration_HTML.html#351,351,1366,657,1366,768,9-3-2022,10-10-52,153,depth_duration_stimuli/002763_2014-06-22_19-13-10_094959634447_rgbf000075-resize_4/002763_2014-06-22_19-13-10_094959634447_rgbf000075-resize_4-target.png,1000,1.68375,5,3705,1034,feet,jsons/v1_VE1000_randls_65.json,726504,1016071,36,Man
153,349357,DepthScenes,duration_manipulation_targetAtFixation,jsons/v1_VE1000_randls_65.json,http://54.235.29.9/FacialAge/BNav_EC2/DepthDuration/v2_depth_duration_MTurk/v2_DepthDuration_HTML.html#351,351,1366,657,1366,768,9-3-2022,10-10-52,154,depth_duration_stimuli/002209_2014-06-28_18-36-10_260595134347_rgbf000051-resize_1/002209_2014-06-28_18-36-10_260595134347_rgbf000051-resize_1-target.png,1000,2.057,3,4666,1049,feet,jsons/v1_VE1000_randls_65.json,726504,1016071,36,Man
154,349357,DepthScenes,duration_manipulation_targetAtFixation,jsons/v1_VE1000_randls_65.json,http://54.235.29.9/FacialAge/BNav_EC2/DepthDuration/v2_depth_duration_MTurk/v2_DepthDuration_HTML.html#351,351,1366,657,1366,768,9-3-2022,10-10-52,155,depth_duration_stimuli/002725_2014-06-22_11-47-51_094959634447_rgbf000070-resize_1/002725_2014-06-22_11-47-51_094959634447_rgbf000070-resize_1-target.png,1000,2.195,6,5753,1001,feet,jsons/v1_VE1000_randls_65.json,726504,1016071,36,Man
155,349357,DepthScenes,duration_manipulation_targetAtFixation,jsons/v1_VE1000_randls_65.json,http://54.235.29.9/FacialAge/BNav_EC2/DepthDuration/v2_depth_duration_MTurk/v2_DepthDuration_HTML.html#351,351,1366,657,1366,768,9-3-2022,10-10-52,156,depth_duration_stimuli/002344_2014-06-28_20-06-29_260595134347_rgbf000030-resize_1/002344_2014-06-28_20-06-29_260595134347_rgbf000030-resize_1-target.png,1000,1.5795,2,3989,963,feet,jsons/v1_VE1000_randls_65.json,726504,1016071,36,Man
156,349357,DepthScenes,duration_manipulation_targetAtFixation,jsons/v1_VE1000_randls_65.json,http://54.235.29.9/FacialAge/BNav_EC2/DepthDuration/v2_depth_duration_MTurk/v2_DepthDuration_HTML.html#351,351,1366,657,1366,768,9-3-2022,10-10-52,157,depth_duration_stimuli/000682_2014-06-08_23-14-58_260595134347_rgbf000041-resize_5/000682_2014-06-08_23-14-58_260595134347_rgbf000041-resize_5-target.png,1000,2.7239999999999998,4,3607,1006,feet,jsons/v1_VE1000_randls_65.json,726504,1016071,36,Man
157,349357,DepthScenes,duration_manipulation_targetAtFixation,jsons/v1_VE1000_randls_65.json,http://54.235.29.9/FacialAge/BNav_EC2/DepthDuration/v2_depth_duration_MTurk/v2_DepthDuration_HTML.html#351,351,1366,657,1366,768,9-3-2022,10-10-52,158,depth_duration_stimuli/001650_2014-06-20_12-09-00_260595134347_rgbf000087-resize_3/001650_2014-06-20_12-09-00_260595134347_rgbf000087-resize_3-target.png,1000,1.9505,1,3889,1000,feet,jsons/v1_VE1000_randls_65.json,726504,1016071,36,Man
158,349357,DepthScenes,duration_manipulation_targetAtFixation,jsons/v1_VE1000_randls_65.json,http://54.235.29.9/FacialAge/BNav_EC2/DepthDuration/v2_depth_duration_MTurk/v2_DepthDuration_HTML.html#351,351,1366,657,1366,768,9-3-2022,10-10-52,159,depth_duration_stimuli/000522_2014-06-08_13-35-06_260595134347_rgbf000244-resize_1/000522_2014-06-08_13-35-06_260595134347_rgbf000244-resize_1-target.png,1000,2.3715,2,3148,985,feet,jsons/v1_VE1000_randls_65.json,726504,1016071,36,Man
159,349357,DepthScenes,duration_manipulation_targetAtFixation,jsons/v1_VE1000_randls_65.json,http://54.235.29.9/FacialAge/BNav_EC2/DepthDuration/v2_depth_duration_MTurk/v2_DepthDuration_HTML.html#351,351,1366,657,1366,768,9-3-2022,10-10-52,160,depth_duration_stimuli/002949_2014-06-26_15-57-42_094959634447_rgbf000079-resize_1/002949_2014-06-26_15-57-42_094959634447_rgbf000079-resize_1-target.png,1000,1.8915,4,3954,984,feet,jsons/v1_VE1000_randls_65.json,726504,1016071,36,Man
160,349357,DepthScenes,duration_manipulation_targetAtFixation,jsons/v1_VE1000_randls_65.json,http://54.235.29.9/FacialAge/BNav_EC2/DepthDuration/v2_depth_duration_MTurk/v2_DepthDuration_HTML.html#351,351,1366,657,1366,768,9-3-2022,10-10-52,161,depth_duration_stimuli/002375_2014-06-28_20-13-44_260595134347_rgbf000032-resize_1/002375_2014-06-28_20-13-44_260595134347_rgbf000032-resize_1-target.png,1000,4.0175,4,2870,974,feet,jsons/v1_VE1000_randls_65.json,726504,1016071,36,Man
161,349357,DepthScenes,duration_manipulation_targetAtFixation,jsons/v1_VE1000_randls_65.json,http://54.235.29.9/FacialAge/BNav_EC2/DepthDuration/v2_depth_duration_MTurk/v2_DepthDuration_HTML.html#351,351,1366,657,1366,768,9-3-2022,10-10-52,162,depth_duration_stimuli/002657_2014-06-13_15-29-54_094959634447_rgbf000150-resize_1/002657_2014-06-13_15-29-54_094959634447_rgbf000150-resize_1-target.png,1000,4.919,8,3496,1001,feet,jsons/v1_VE1000_randls_65.json,726504,1016071,36,Man
162,349357,DepthScenes,duration_manipulation_targetAtFixation,jsons/v1_VE1000_randls_65.json,http://54.235.29.9/FacialAge/BNav_EC2/DepthDuration/v2_depth_duration_MTurk/v2_DepthDuration_HTML.html#351,351,1366,657,1366,768,9-3-2022,10-10-52,163,depth_duration_stimuli/003492_2014-05-21_15-50-55_094959634447_rgbf000828-resize_1/003492_2014-05-21_15-50-55_094959634447_rgbf000828-resize_1-target.png,1000,4.06875,9,4177,996,feet,jsons/v1_VE1000_randls_65.json,726504,1016071,36,Man
163,349357,DepthScenes,duration_manipulation_targetAtFixation,jsons/v1_VE1000_randls_65.json,http://54.235.29.9/FacialAge/BNav_EC2/DepthDuration/v2_depth_duration_MTurk/v2_DepthDuration_HTML.html#351,351,1366,657,1366,768,9-3-2022,10-10-52,164,depth_duration_stimuli/002568_2014-06-24_13-59-21_094959634447_rgbf000062-resize_4/002568_2014-06-24_13-59-21_094959634447_rgbf000062-resize_4-target.png,1000,3.015,7,3303,988,feet,jsons/v1_VE1000_randls_65.json,726504,1016071,36,Man
