,subjID,experimentName,versionName,sequenceName,url,selected_row,windowWidth,windowHeight,screenWidth,screenHeight,startDate,startTime,trial,stimulus,duration,actual_depth,depth_estimate,trial_RT,log_sceneDuration,unitSelection,seq_filepath,experimentTime,totalTime,age,gender
0,349604,DepthScenes,duration_manipulation_targetAtFixation,jsons/v1_VE250_randls_75_rotated.json,http://54.235.29.9/FacialAge/BNav_EC2/DepthDuration/v2_depth_duration_MTurk/v2_DepthDuration_HTML.html#378,378,1366,625,1366,768,8-29-2022,11-56-4,1,depth_duration_stimuli/001516_2014-06-20_16-25-09_260595134347_rgbf000076-resize_2/001516_2014-06-20_16-25-09_260595134347_rgbf000076-resize_2-target.png,250,1.7445,6.0,5610,249,meters,jsons/v1_VE250_randls_75_rotated.json,654467,747960,34,Man
1,349604,DepthScenes,duration_manipulation_targetAtFixation,jsons/v1_VE250_randls_75_rotated.json,http://54.235.29.9/FacialAge/BNav_EC2/DepthDuration/v2_depth_duration_MTurk/v2_DepthDuration_HTML.html#378,378,1366,625,1366,768,8-29-2022,11-56-4,2,depth_duration_stimuli/002118_2014-06-25_20-32-08_260595134347_rgbf000078-resize_1/002118_2014-06-25_20-32-08_260595134347_rgbf000078-resize_1-target.png,250,2.6460000000000004,5.0,2478,261,meters,jsons/v1_VE250_randls_75_rotated.json,654467,747960,34,Man
2,349604,DepthScenes,duration_manipulation_targetAtFixation,jsons/v1_VE250_randls_75_rotated.json,http://54.235.29.9/FacialAge/BNav_EC2/DepthDuration/v2_depth_duration_MTurk/v2_DepthDuration_HTML.html#378,378,1366,625,1366,768,8-29-2022,11-56-4,3,depth_duration_stimuli/002414_2014-06-28_20-24-58_260595134347_rgbf000067-resize_4/002414_2014-06-28_20-24-58_260595134347_rgbf000067-resize_4-target.png,250,4.363,6.0,3266,243,meters,jsons/v1_VE250_randls_75_rotated.json,654467,747960,34,Man
3,349604,DepthScenes,duration_manipulation_targetAtFixation,jsons/v1_VE250_randls_75_rotated.json,http://54.235.29.9/FacialAge/BNav_EC2/DepthDuration/v2_depth_duration_MTurk/v2_DepthDuration_HTML.html#378,378,1366,625,1366,768,8-29-2022,11-56-4,4,depth_duration_stimuli/000773_2014-06-08_22-24-54_260595134347_rgbf000093-resize_1/000773_2014-06-08_22-24-54_260595134347_rgbf000093-resize_1-target.png,250,4.973,6.0,3046,232,meters,jsons/v1_VE250_randls_75_rotated.json,654467,747960,34,Man
4,349604,DepthScenes,duration_manipulation_targetAtFixation,jsons/v1_VE250_randls_75_rotated.json,http://54.235.29.9/FacialAge/BNav_EC2/DepthDuration/v2_depth_duration_MTurk/v2_DepthDuration_HTML.html#378,378,1366,625,1366,768,8-29-2022,11-56-4,5,depth_duration_stimuli/001617_2014-06-20_11-35-32_260595134347_rgbf000066-resize_1/001617_2014-06-20_11-35-32_260595134347_rgbf000066-resize_1-target.png,250,3.7910000000000004,0.0,6438,259,meters,jsons/v1_VE250_randls_75_rotated.json,654467,747960,34,Man
5,349604,DepthScenes,duration_manipulation_targetAtFixation,jsons/v1_VE250_randls_75_rotated.json,http://54.235.29.9/FacialAge/BNav_EC2/DepthDuration/v2_depth_duration_MTurk/v2_DepthDuration_HTML.html#378,378,1366,625,1366,768,8-29-2022,11-56-4,6,depth_duration_stimuli/001806_2014-06-26_20-50-20_260595134347_rgbf000091-resize_1/001806_2014-06-26_20-50-20_260595134347_rgbf000091-resize_1-target.png,250,2.7305,5.0,3142,247,meters,jsons/v1_VE250_randls_75_rotated.json,654467,747960,34,Man
6,349604,DepthScenes,duration_manipulation_targetAtFixation,jsons/v1_VE250_randls_75_rotated.json,http://54.235.29.9/FacialAge/BNav_EC2/DepthDuration/v2_depth_duration_MTurk/v2_DepthDuration_HTML.html#378,378,1366,625,1366,768,8-29-2022,11-56-4,7,depth_duration_stimuli/000854_2014-06-09_19-43-13_260595134347_rgbf000066-resize_0/000854_2014-06-09_19-43-13_260595134347_rgbf000066-resize_0-target.png,250,3.068,5.0,3412,235,meters,jsons/v1_VE250_randls_75_rotated.json,654467,747960,34,Man
7,349604,DepthScenes,duration_manipulation_targetAtFixation,jsons/v1_VE250_randls_75_rotated.json,http://54.235.29.9/FacialAge/BNav_EC2/DepthDuration/v2_depth_duration_MTurk/v2_DepthDuration_HTML.html#378,378,1366,625,1366,768,8-29-2022,11-56-4,8,depth_duration_stimuli/000758_2014-06-08_22-05-08_260595134347_rgbf000085-resize_0/000758_2014-06-08_22-05-08_260595134347_rgbf000085-resize_0-target.png,250,3.3810000000000002,6.0,4293,237,meters,jsons/v1_VE250_randls_75_rotated.json,654467,747960,34,Man
8,349604,DepthScenes,duration_manipulation_targetAtFixation,jsons/v1_VE250_randls_75_rotated.json,http://54.235.29.9/FacialAge/BNav_EC2/DepthDuration/v2_depth_duration_MTurk/v2_DepthDuration_HTML.html#378,378,1366,625,1366,768,8-29-2022,11-56-4,9,depth_duration_stimuli/002953_2014-06-08_17-32-18_094959634447_rgbf000059-resize_5/002953_2014-06-08_17-32-18_094959634447_rgbf000059-resize_5-target.png,250,1.551,5.0,3548,258,meters,jsons/v1_VE250_randls_75_rotated.json,654467,747960,34,Man
9,349604,DepthScenes,duration_manipulation_targetAtFixation,jsons/v1_VE250_randls_75_rotated.json,http://54.235.29.9/FacialAge/BNav_EC2/DepthDuration/v2_depth_duration_MTurk/v2_DepthDuration_HTML.html#378,378,1366,625,1366,768,8-29-2022,11-56-4,10,depth_duration_stimuli/000878_2014-06-08_22-52-45_260595134347_rgbf000045-resize_2/000878_2014-06-08_22-52-45_260595134347_rgbf000045-resize_2-target.png,250,2.092,6.0,2806,241,meters,jsons/v1_VE250_randls_75_rotated.json,654467,747960,34,Man
10,349604,DepthScenes,duration_manipulation_targetAtFixation,jsons/v1_VE250_randls_75_rotated.json,http://54.235.29.9/FacialAge/BNav_EC2/DepthDuration/v2_depth_duration_MTurk/v2_DepthDuration_HTML.html#378,378,1366,625,1366,768,8-29-2022,11-56-4,11,depth_duration_stimuli/000749_2014-06-08_21-55-06_260595134347_rgbf000070-resize_2/000749_2014-06-08_21-55-06_260595134347_rgbf000070-resize_2-target.png,250,2.331,5.0,7409,257,meters,jsons/v1_VE250_randls_75_rotated.json,654467,747960,34,Man
11,349604,DepthScenes,duration_manipulation_targetAtFixation,jsons/v1_VE250_randls_75_rotated.json,http://54.235.29.9/FacialAge/BNav_EC2/DepthDuration/v2_depth_duration_MTurk/v2_DepthDuration_HTML.html#378,378,1366,625,1366,768,8-29-2022,11-56-4,12,depth_duration_stimuli/002788_2014-06-22_19-36-03_094959634447_rgbf000088-resize_2/002788_2014-06-22_19-36-03_094959634447_rgbf000088-resize_2-target.png,250,1.6465,6.0,5160,249,meters,jsons/v1_VE250_randls_75_rotated.json,654467,747960,34,Man
12,349604,DepthScenes,duration_manipulation_targetAtFixation,jsons/v1_VE250_randls_75_rotated.json,http://54.235.29.9/FacialAge/BNav_EC2/DepthDuration/v2_depth_duration_MTurk/v2_DepthDuration_HTML.html#378,378,1366,625,1366,768,8-29-2022,11-56-4,13,depth_duration_stimuli/003129_2014-05-12_10-48-10_094959634447_rgbf000100-resize_0/003129_2014-05-12_10-48-10_094959634447_rgbf000100-resize_0-target.png,250,4.9305,6.0,3002,240,meters,jsons/v1_VE250_randls_75_rotated.json,654467,747960,34,Man
13,349604,DepthScenes,duration_manipulation_targetAtFixation,jsons/v1_VE250_randls_75_rotated.json,http://54.235.29.9/FacialAge/BNav_EC2/DepthDuration/v2_depth_duration_MTurk/v2_DepthDuration_HTML.html#378,378,1366,625,1366,768,8-29-2022,11-56-4,14,depth_duration_stimuli/000414_2014-06-04_19-49-13_260595134347_rgbf000044-resize_0/000414_2014-06-04_19-49-13_260595134347_rgbf000044-resize_0-target.png,250,4.329,5.0,8736,257,meters,jsons/v1_VE250_randls_75_rotated.json,654467,747960,34,Man
14,349604,DepthScenes,duration_manipulation_targetAtFixation,jsons/v1_VE250_randls_75_rotated.json,http://54.235.29.9/FacialAge/BNav_EC2/DepthDuration/v2_depth_duration_MTurk/v2_DepthDuration_HTML.html#378,378,1366,625,1366,768,8-29-2022,11-56-4,15,depth_duration_stimuli/000502_2014-06-08_23-02-32_260595134347_rgbf000063-resize_4/000502_2014-06-08_23-02-32_260595134347_rgbf000063-resize_4-target.png,250,2.431,5.0,16321,249,meters,jsons/v1_VE250_randls_75_rotated.json,654467,747960,34,Man
15,349604,DepthScenes,duration_manipulation_targetAtFixation,jsons/v1_VE250_randls_75_rotated.json,http://54.235.29.9/FacialAge/BNav_EC2/DepthDuration/v2_depth_duration_MTurk/v2_DepthDuration_HTML.html#378,378,1366,625,1366,768,8-29-2022,11-56-4,16,depth_duration_stimuli/001199_2014-06-17_16-03-48_260595134347_rgbf000077-resize_0/001199_2014-06-17_16-03-48_260595134347_rgbf000077-resize_0-target.png,250,3.4375,5.0,4679,255,meters,jsons/v1_VE250_randls_75_rotated.json,654467,747960,34,Man
16,349604,DepthScenes,duration_manipulation_targetAtFixation,jsons/v1_VE250_randls_75_rotated.json,http://54.235.29.9/FacialAge/BNav_EC2/DepthDuration/v2_depth_duration_MTurk/v2_DepthDuration_HTML.html#378,378,1366,625,1366,768,8-29-2022,11-56-4,17,depth_duration_stimuli/002545_2014-06-24_13-38-53_094959634447_rgbf000080-resize_4/002545_2014-06-24_13-38-53_094959634447_rgbf000080-resize_4-target.png,250,1.9205,6.0,3292,242,meters,jsons/v1_VE250_randls_75_rotated.json,654467,747960,34,Man
17,349604,DepthScenes,duration_manipulation_targetAtFixation,jsons/v1_VE250_randls_75_rotated.json,http://54.235.29.9/FacialAge/BNav_EC2/DepthDuration/v2_depth_duration_MTurk/v2_DepthDuration_HTML.html#378,378,1366,625,1366,768,8-29-2022,11-56-4,18,depth_duration_stimuli/001092_2014-06-15_17-34-58_260595134347_rgbf000171-resize_3/001092_2014-06-15_17-34-58_260595134347_rgbf000171-resize_3-target.png,250,2.6935,0.0,12695,247,meters,jsons/v1_VE250_randls_75_rotated.json,654467,747960,34,Man
18,349604,DepthScenes,duration_manipulation_targetAtFixation,jsons/v1_VE250_randls_75_rotated.json,http://54.235.29.9/FacialAge/BNav_EC2/DepthDuration/v2_depth_duration_MTurk/v2_DepthDuration_HTML.html#378,378,1366,625,1366,768,8-29-2022,11-56-4,19,depth_duration_stimuli/001498_2014-06-19_17-45-14_260595134347_rgbf000129-resize_4/001498_2014-06-19_17-45-14_260595134347_rgbf000129-resize-original.jpg,250,1.4075,0.0,2873,246,meters,jsons/v1_VE250_randls_75_rotated.json,654467,747960,34,Man
19,349604,DepthScenes,duration_manipulation_targetAtFixation,jsons/v1_VE250_randls_75_rotated.json,http://54.235.29.9/FacialAge/BNav_EC2/DepthDuration/v2_depth_duration_MTurk/v2_DepthDuration_HTML.html#378,378,1366,625,1366,768,8-29-2022,11-56-4,20,depth_duration_stimuli/003490_2014-05-21_15-50-11_094959634447_rgbf000101-resize_3/003490_2014-05-21_15-50-11_094959634447_rgbf000101-resize_3-target.png,250,3.6445,6.0,3380,256,meters,jsons/v1_VE250_randls_75_rotated.json,654467,747960,34,Man
20,349604,DepthScenes,duration_manipulation_targetAtFixation,jsons/v1_VE250_randls_75_rotated.json,http://54.235.29.9/FacialAge/BNav_EC2/DepthDuration/v2_depth_duration_MTurk/v2_DepthDuration_HTML.html#378,378,1366,625,1366,768,8-29-2022,11-56-4,21,depth_duration_stimuli/001175_2014-06-17_15-45-55_260595134347_rgbf000129-resize_4/001175_2014-06-17_15-45-55_260595134347_rgbf000129-resize_4-target.png,250,4.255,5.0,2916,250,meters,jsons/v1_VE250_randls_75_rotated.json,654467,747960,34,Man
21,349604,DepthScenes,duration_manipulation_targetAtFixation,jsons/v1_VE250_randls_75_rotated.json,http://54.235.29.9/FacialAge/BNav_EC2/DepthDuration/v2_depth_duration_MTurk/v2_DepthDuration_HTML.html#378,378,1366,625,1366,768,8-29-2022,11-56-4,22,depth_duration_stimuli/002805_2014-06-22_19-54-03_094959634447_rgbf000079-resize_1/002805_2014-06-22_19-54-03_094959634447_rgbf000079-resize_1-target.png,250,3.1439999999999997,6.0,7028,249,meters,jsons/v1_VE250_randls_75_rotated.json,654467,747960,34,Man
22,349604,DepthScenes,duration_manipulation_targetAtFixation,jsons/v1_VE250_randls_75_rotated.json,http://54.235.29.9/FacialAge/BNav_EC2/DepthDuration/v2_depth_duration_MTurk/v2_DepthDuration_HTML.html#378,378,1366,625,1366,768,8-29-2022,11-56-4,23,depth_duration_stimuli/000906_2014-06-08_13-35-43_260595134347_rgbf000155-resize_1/000906_2014-06-08_13-35-43_260595134347_rgbf000155-resize_1-target.png,250,2.8489999999999998,4.0,3447,248,meters,jsons/v1_VE250_randls_75_rotated.json,654467,747960,34,Man
23,349604,DepthScenes,duration_manipulation_targetAtFixation,jsons/v1_VE250_randls_75_rotated.json,http://54.235.29.9/FacialAge/BNav_EC2/DepthDuration/v2_depth_duration_MTurk/v2_DepthDuration_HTML.html#378,378,1366,625,1366,768,8-29-2022,11-56-4,24,depth_duration_stimuli/002340_2014-06-28_20-05-46_260595134347_rgbf000113-resize_0/002340_2014-06-28_20-05-46_260595134347_rgbf000113-resize_0-target.png,250,2.4735,6.0,3413,254,meters,jsons/v1_VE250_randls_75_rotated.json,654467,747960,34,Man
24,349604,DepthScenes,duration_manipulation_targetAtFixation,jsons/v1_VE250_randls_75_rotated.json,http://54.235.29.9/FacialAge/BNav_EC2/DepthDuration/v2_depth_duration_MTurk/v2_DepthDuration_HTML.html#378,378,1366,625,1366,768,8-29-2022,11-56-4,25,depth_duration_stimuli/001016_2014-06-09_16-16-10_260595134347_rgbf000112-resize_5/001016_2014-06-09_16-16-10_260595134347_rgbf000112-resize_5-target.png,250,1.6565,5.0,2531,248,meters,jsons/v1_VE250_randls_75_rotated.json,654467,747960,34,Man
25,349604,DepthScenes,duration_manipulation_targetAtFixation,jsons/v1_VE250_randls_75_rotated.json,http://54.235.29.9/FacialAge/BNav_EC2/DepthDuration/v2_depth_duration_MTurk/v2_DepthDuration_HTML.html#378,378,1366,625,1366,768,8-29-2022,11-56-4,26,depth_duration_stimuli/002323_2014-06-28_20-01-54_260595134347_rgbf000051-resize_4/002323_2014-06-28_20-01-54_260595134347_rgbf000051-resize_4-target.png,250,3.7310000000000003,6.0,3032,244,meters,jsons/v1_VE250_randls_75_rotated.json,654467,747960,34,Man
26,349604,DepthScenes,duration_manipulation_targetAtFixation,jsons/v1_VE250_randls_75_rotated.json,http://54.235.29.9/FacialAge/BNav_EC2/DepthDuration/v2_depth_duration_MTurk/v2_DepthDuration_HTML.html#378,378,1366,625,1366,768,8-29-2022,11-56-4,27,depth_duration_stimuli/000917_2014-06-09_22-45-29_260595134347_rgbf000149-resize_3/000917_2014-06-09_22-45-29_260595134347_rgbf000149-resize_3-target.png,250,4.1865,5.0,2592,244,meters,jsons/v1_VE250_randls_75_rotated.json,654467,747960,34,Man
27,349604,DepthScenes,duration_manipulation_targetAtFixation,jsons/v1_VE250_randls_75_rotated.json,http://54.235.29.9/FacialAge/BNav_EC2/DepthDuration/v2_depth_duration_MTurk/v2_DepthDuration_HTML.html#378,378,1366,625,1366,768,8-29-2022,11-56-4,28,depth_duration_stimuli/002425_2014-06-28_20-27-29_260595134347_rgbf000031-resize_8/002425_2014-06-28_20-27-29_260595134347_rgbf000031-resize_8-target.png,250,3.8960000000000004,5.0,2626,237,meters,jsons/v1_VE250_randls_75_rotated.json,654467,747960,34,Man
28,349604,DepthScenes,duration_manipulation_targetAtFixation,jsons/v1_VE250_randls_75_rotated.json,http://54.235.29.9/FacialAge/BNav_EC2/DepthDuration/v2_depth_duration_MTurk/v2_DepthDuration_HTML.html#378,378,1366,625,1366,768,8-29-2022,11-56-4,29,depth_duration_stimuli/000642_2014-06-08_16-59-25_260595134347_rgbf000098-resize_2/000642_2014-06-08_16-59-25_260595134347_rgbf000098-resize_2-target.png,250,2.8815,5.0,3233,251,meters,jsons/v1_VE250_randls_75_rotated.json,654467,747960,34,Man
29,349604,DepthScenes,duration_manipulation_targetAtFixation,jsons/v1_VE250_randls_75_rotated.json,http://54.235.29.9/FacialAge/BNav_EC2/DepthDuration/v2_depth_duration_MTurk/v2_DepthDuration_HTML.html#378,378,1366,625,1366,768,8-29-2022,11-56-4,30,depth_duration_stimuli/002072_2014-06-24_21-48-06_260595134347_rgbf000115-resize_0/002072_2014-06-24_21-48-06_260595134347_rgbf000115-resize-original.jpg,250,4.702,0.0,5185,251,meters,jsons/v1_VE250_randls_75_rotated.json,654467,747960,34,Man
30,349604,DepthScenes,duration_manipulation_targetAtFixation,jsons/v1_VE250_randls_75_rotated.json,http://54.235.29.9/FacialAge/BNav_EC2/DepthDuration/v2_depth_duration_MTurk/v2_DepthDuration_HTML.html#378,378,1366,625,1366,768,8-29-2022,11-56-4,31,depth_duration_stimuli/001447_2014-06-19_17-00-32_260595134347_rgbf000082-resize_5/001447_2014-06-19_17-00-32_260595134347_rgbf000082-resize_5-target.png,250,4.13775,5.0,3094,247,meters,jsons/v1_VE250_randls_75_rotated.json,654467,747960,34,Man
31,349604,DepthScenes,duration_manipulation_targetAtFixation,jsons/v1_VE250_randls_75_rotated.json,http://54.235.29.9/FacialAge/BNav_EC2/DepthDuration/v2_depth_duration_MTurk/v2_DepthDuration_HTML.html#378,378,1366,625,1366,768,8-29-2022,11-56-4,32,depth_duration_stimuli/000447_2014-06-08_16-15-46_260595134347_rgbf000130-resize_1/000447_2014-06-08_16-15-46_260595134347_rgbf000130-resize_1-target.png,250,4.479,6.0,4545,237,meters,jsons/v1_VE250_randls_75_rotated.json,654467,747960,34,Man
32,349604,DepthScenes,duration_manipulation_targetAtFixation,jsons/v1_VE250_randls_75_rotated.json,http://54.235.29.9/FacialAge/BNav_EC2/DepthDuration/v2_depth_duration_MTurk/v2_DepthDuration_HTML.html#378,378,1366,625,1366,768,8-29-2022,11-56-4,33,depth_duration_stimuli/002949_2014-06-26_15-57-42_094959634447_rgbf000079-resize_1/002949_2014-06-26_15-57-42_094959634447_rgbf000079-resize_1-target.png,250,1.8915,5.0,3289,251,meters,jsons/v1_VE250_randls_75_rotated.json,654467,747960,34,Man
33,349604,DepthScenes,duration_manipulation_targetAtFixation,jsons/v1_VE250_randls_75_rotated.json,http://54.235.29.9/FacialAge/BNav_EC2/DepthDuration/v2_depth_duration_MTurk/v2_DepthDuration_HTML.html#378,378,1366,625,1366,768,8-29-2022,11-56-4,34,depth_duration_stimuli/000522_2014-06-08_13-35-06_260595134347_rgbf000244-resize_1/000522_2014-06-08_13-35-06_260595134347_rgbf000244-resize_1-target.png,250,2.3715,5.0,2393,237,meters,jsons/v1_VE250_randls_75_rotated.json,654467,747960,34,Man
34,349604,DepthScenes,duration_manipulation_targetAtFixation,jsons/v1_VE250_randls_75_rotated.json,http://54.235.29.9/FacialAge/BNav_EC2/DepthDuration/v2_depth_duration_MTurk/v2_DepthDuration_HTML.html#378,378,1366,625,1366,768,8-29-2022,11-56-4,35,depth_duration_stimuli/001828_2014-06-26_21-40-03_260595134347_rgbf000024-resize_0/001828_2014-06-26_21-40-03_260595134347_rgbf000024-resize_0-target.png,250,4.8260000000000005,6.0,4168,241,meters,jsons/v1_VE250_randls_75_rotated.json,654467,747960,34,Man
35,349604,DepthScenes,duration_manipulation_targetAtFixation,jsons/v1_VE250_randls_75_rotated.json,http://54.235.29.9/FacialAge/BNav_EC2/DepthDuration/v2_depth_duration_MTurk/v2_DepthDuration_HTML.html#378,378,1366,625,1366,768,8-29-2022,11-56-4,36,depth_duration_stimuli/000009_2014-05-26_14-32-05_260595134347_rgbf000034-resize_3/000009_2014-05-26_14-32-05_260595134347_rgbf000034-resize_3-target.png,250,3.8715,6.0,4164,258,meters,jsons/v1_VE250_randls_75_rotated.json,654467,747960,34,Man
36,349604,DepthScenes,duration_manipulation_targetAtFixation,jsons/v1_VE250_randls_75_rotated.json,http://54.235.29.9/FacialAge/BNav_EC2/DepthDuration/v2_depth_duration_MTurk/v2_DepthDuration_HTML.html#378,378,1366,625,1366,768,8-29-2022,11-56-4,37,depth_duration_stimuli/003338_2014-05-20_11-01-23_094959634447_rgbf000051-resize_6/003338_2014-05-20_11-01-23_094959634447_rgbf000051-resize_6-target.png,250,1.693,6.0,3454,242,meters,jsons/v1_VE250_randls_75_rotated.json,654467,747960,34,Man
37,349604,DepthScenes,duration_manipulation_targetAtFixation,jsons/v1_VE250_randls_75_rotated.json,http://54.235.29.9/FacialAge/BNav_EC2/DepthDuration/v2_depth_duration_MTurk/v2_DepthDuration_HTML.html#378,378,1366,625,1366,768,8-29-2022,11-56-4,38,depth_duration_stimuli/002509_2014-06-24_13-19-22_094959634447_rgbf000077-resize_0/002509_2014-06-24_13-19-22_094959634447_rgbf000077-resize_0-target.png,250,1.3065,5.0,2666,248,meters,jsons/v1_VE250_randls_75_rotated.json,654467,747960,34,Man
38,349604,DepthScenes,duration_manipulation_targetAtFixation,jsons/v1_VE250_randls_75_rotated.json,http://54.235.29.9/FacialAge/BNav_EC2/DepthDuration/v2_depth_duration_MTurk/v2_DepthDuration_HTML.html#378,378,1366,625,1366,768,8-29-2022,11-56-4,39,depth_duration_stimuli/001450_2014-06-19_17-02-03_260595134347_rgbf000203-resize_4/001450_2014-06-19_17-02-03_260595134347_rgbf000203-resize_4-target.png,250,4.0106666666667,6.0,2585,239,meters,jsons/v1_VE250_randls_75_rotated.json,654467,747960,34,Man
39,349604,DepthScenes,duration_manipulation_targetAtFixation,jsons/v1_VE250_randls_75_rotated.json,http://54.235.29.9/FacialAge/BNav_EC2/DepthDuration/v2_depth_duration_MTurk/v2_DepthDuration_HTML.html#378,378,1366,625,1366,768,8-29-2022,11-56-4,40,depth_duration_stimuli/001449_2014-06-19_17-01-27_260595134347_rgbf000116-resize_2/001449_2014-06-19_17-01-27_260595134347_rgbf000116-resize_2-target.png,250,3.452,5.0,2421,239,meters,jsons/v1_VE250_randls_75_rotated.json,654467,747960,34,Man
40,349604,DepthScenes,duration_manipulation_targetAtFixation,jsons/v1_VE250_randls_75_rotated.json,http://54.235.29.9/FacialAge/BNav_EC2/DepthDuration/v2_depth_duration_MTurk/v2_DepthDuration_HTML.html#378,378,1366,625,1366,768,8-29-2022,11-56-4,41,depth_duration_stimuli/000549_2014-06-08_22-10-24_260595134347_rgbf000247-resize_3/000549_2014-06-08_22-10-24_260595134347_rgbf000247-resize_3-target.png,250,1.841,5.0,2973,253,meters,jsons/v1_VE250_randls_75_rotated.json,654467,747960,34,Man
41,349604,DepthScenes,duration_manipulation_targetAtFixation,jsons/v1_VE250_randls_75_rotated.json,http://54.235.29.9/FacialAge/BNav_EC2/DepthDuration/v2_depth_duration_MTurk/v2_DepthDuration_HTML.html#378,378,1366,625,1366,768,8-29-2022,11-56-4,42,depth_duration_stimuli/001055_2014-06-08_18-45-35_260595134347_rgbf000111-resize_4/001055_2014-06-08_18-45-35_260595134347_rgbf000111-resize_4-target.png,250,2.4290000000000003,6.0,2754,247,meters,jsons/v1_VE250_randls_75_rotated.json,654467,747960,34,Man
42,349604,DepthScenes,duration_manipulation_targetAtFixation,jsons/v1_VE250_randls_75_rotated.json,http://54.235.29.9/FacialAge/BNav_EC2/DepthDuration/v2_depth_duration_MTurk/v2_DepthDuration_HTML.html#378,378,1366,625,1366,768,8-29-2022,11-56-4,43,depth_duration_stimuli/000780_2014-06-08_22-28-29_260595134347_rgbf000126-resize_1/000780_2014-06-08_22-28-29_260595134347_rgbf000126-resize_1-target.png,250,3.3825,5.0,2891,245,meters,jsons/v1_VE250_randls_75_rotated.json,654467,747960,34,Man
43,349604,DepthScenes,duration_manipulation_targetAtFixation,jsons/v1_VE250_randls_75_rotated.json,http://54.235.29.9/FacialAge/BNav_EC2/DepthDuration/v2_depth_duration_MTurk/v2_DepthDuration_HTML.html#378,378,1366,625,1366,768,8-29-2022,11-56-4,44,depth_duration_stimuli/002445_2014-06-28_20-32-16_260595134347_rgbf000029-resize_4/002445_2014-06-28_20-32-16_260595134347_rgbf000029-resize_4-target.png,250,2.5315,5.0,2486,249,meters,jsons/v1_VE250_randls_75_rotated.json,654467,747960,34,Man
44,349604,DepthScenes,duration_manipulation_targetAtFixation,jsons/v1_VE250_randls_75_rotated.json,http://54.235.29.9/FacialAge/BNav_EC2/DepthDuration/v2_depth_duration_MTurk/v2_DepthDuration_HTML.html#378,378,1366,625,1366,768,8-29-2022,11-56-4,45,depth_duration_stimuli/003048_2014-06-15_13-49-43_094959634447_rgbf000150-resize_1/003048_2014-06-15_13-49-43_094959634447_rgbf000150-resize_1-target.png,250,4.0035,6.0,2914,240,meters,jsons/v1_VE250_randls_75_rotated.json,654467,747960,34,Man
45,349604,DepthScenes,duration_manipulation_targetAtFixation,jsons/v1_VE250_randls_75_rotated.json,http://54.235.29.9/FacialAge/BNav_EC2/DepthDuration/v2_depth_duration_MTurk/v2_DepthDuration_HTML.html#378,378,1366,625,1366,768,8-29-2022,11-56-4,46,depth_duration_stimuli/002043_2014-06-24_20-29-38_260595134347_rgbf000039-resize_4/002043_2014-06-24_20-29-38_260595134347_rgbf000039-resize_4-target.png,250,2.8435,4.0,4844,246,meters,jsons/v1_VE250_randls_75_rotated.json,654467,747960,34,Man
46,349604,DepthScenes,duration_manipulation_targetAtFixation,jsons/v1_VE250_randls_75_rotated.json,http://54.235.29.9/FacialAge/BNav_EC2/DepthDuration/v2_depth_duration_MTurk/v2_DepthDuration_HTML.html#378,378,1366,625,1366,768,8-29-2022,11-56-4,47,depth_duration_stimuli/001235_2014-06-17_16-37-36_260595134347_rgbf000084-resize_4/001235_2014-06-17_16-37-36_260595134347_rgbf000084-resize_4-target.png,250,3.6605,5.0,3013,240,meters,jsons/v1_VE250_randls_75_rotated.json,654467,747960,34,Man
47,349604,DepthScenes,duration_manipulation_targetAtFixation,jsons/v1_VE250_randls_75_rotated.json,http://54.235.29.9/FacialAge/BNav_EC2/DepthDuration/v2_depth_duration_MTurk/v2_DepthDuration_HTML.html#378,378,1366,625,1366,768,8-29-2022,11-56-4,48,depth_duration_stimuli/000788_2014-06-08_22-34-36_260595134347_rgbf000131-resize_1/000788_2014-06-08_22-34-36_260595134347_rgbf000131-resize_1-target.png,250,3.359,6.0,2712,265,meters,jsons/v1_VE250_randls_75_rotated.json,654467,747960,34,Man
48,349604,DepthScenes,duration_manipulation_targetAtFixation,jsons/v1_VE250_randls_75_rotated.json,http://54.235.29.9/FacialAge/BNav_EC2/DepthDuration/v2_depth_duration_MTurk/v2_DepthDuration_HTML.html#378,378,1366,625,1366,768,8-29-2022,11-56-4,49,depth_duration_stimuli/001170_2014-06-17_15-43-44_260595134347_rgbf000096-resize_6/001170_2014-06-17_15-43-44_260595134347_rgbf000096-resize-original.jpg,250,1.1909999999999998,0.0,2475,241,meters,jsons/v1_VE250_randls_75_rotated.json,654467,747960,34,Man
49,349604,DepthScenes,duration_manipulation_targetAtFixation,jsons/v1_VE250_randls_75_rotated.json,http://54.235.29.9/FacialAge/BNav_EC2/DepthDuration/v2_depth_duration_MTurk/v2_DepthDuration_HTML.html#378,378,1366,625,1366,768,8-29-2022,11-56-4,50,depth_duration_stimuli/000943_2014-06-09_19-31-07_260595134347_rgbf000128-resize_1/000943_2014-06-09_19-31-07_260595134347_rgbf000128-resize_1-target.png,250,1.9765,5.0,3101,254,meters,jsons/v1_VE250_randls_75_rotated.json,654467,747960,34,Man
50,349604,DepthScenes,duration_manipulation_targetAtFixation,jsons/v1_VE250_randls_75_rotated.json,http://54.235.29.9/FacialAge/BNav_EC2/DepthDuration/v2_depth_duration_MTurk/v2_DepthDuration_HTML.html#378,378,1366,625,1366,768,8-29-2022,11-56-4,51,depth_duration_stimuli/003070_2014-06-15_14-58-27_094959634447_rgbf000150-resize_3/003070_2014-06-15_14-58-27_094959634447_rgbf000150-resize_3-target.png,250,2.9415,5.0,3227,250,meters,jsons/v1_VE250_randls_75_rotated.json,654467,747960,34,Man
51,349604,DepthScenes,duration_manipulation_targetAtFixation,jsons/v1_VE250_randls_75_rotated.json,http://54.235.29.9/FacialAge/BNav_EC2/DepthDuration/v2_depth_duration_MTurk/v2_DepthDuration_HTML.html#378,378,1366,625,1366,768,8-29-2022,11-56-4,52,depth_duration_stimuli/001094_2014-06-15_17-36-00_260595134347_rgbf000205-resize_0/001094_2014-06-15_17-36-00_260595134347_rgbf000205-resize_0-target.png,250,4.2175,6.0,3082,236,meters,jsons/v1_VE250_randls_75_rotated.json,654467,747960,34,Man
52,349604,DepthScenes,duration_manipulation_targetAtFixation,jsons/v1_VE250_randls_75_rotated.json,http://54.235.29.9/FacialAge/BNav_EC2/DepthDuration/v2_depth_duration_MTurk/v2_DepthDuration_HTML.html#378,378,1366,625,1366,768,8-29-2022,11-56-4,53,depth_duration_stimuli/000692_2014-06-08_13-09-42_260595134347_rgbf000199-resize_2/000692_2014-06-08_13-09-42_260595134347_rgbf000199-resize_2-target.png,250,3.661,5.0,2305,249,meters,jsons/v1_VE250_randls_75_rotated.json,654467,747960,34,Man
53,349604,DepthScenes,duration_manipulation_targetAtFixation,jsons/v1_VE250_randls_75_rotated.json,http://54.235.29.9/FacialAge/BNav_EC2/DepthDuration/v2_depth_duration_MTurk/v2_DepthDuration_HTML.html#378,378,1366,625,1366,768,8-29-2022,11-56-4,54,depth_duration_stimuli/001815_2014-06-26_20-52-55_260595134347_rgbf000020-resize_0/001815_2014-06-26_20-52-55_260595134347_rgbf000020-resize_0-target.png,250,3.3865,6.0,3203,251,meters,jsons/v1_VE250_randls_75_rotated.json,654467,747960,34,Man
54,349604,DepthScenes,duration_manipulation_targetAtFixation,jsons/v1_VE250_randls_75_rotated.json,http://54.235.29.9/FacialAge/BNav_EC2/DepthDuration/v2_depth_duration_MTurk/v2_DepthDuration_HTML.html#378,378,1366,625,1366,768,8-29-2022,11-56-4,55,depth_duration_stimuli/001808_2014-06-26_20-50-58_260595134347_rgbf000029-resize_1/001808_2014-06-26_20-50-58_260595134347_rgbf000029-resize_1-target.png,250,4.249,6.0,2637,251,meters,jsons/v1_VE250_randls_75_rotated.json,654467,747960,34,Man
55,349604,DepthScenes,duration_manipulation_targetAtFixation,jsons/v1_VE250_randls_75_rotated.json,http://54.235.29.9/FacialAge/BNav_EC2/DepthDuration/v2_depth_duration_MTurk/v2_DepthDuration_HTML.html#378,378,1366,625,1366,768,8-29-2022,11-56-4,56,depth_duration_stimuli/000191_2014-05-12_17-07-38_260595134347_rgbf000199-resize_0/000191_2014-05-12_17-07-38_260595134347_rgbf000199-resize_0-target.png,250,3.7995,6.0,2616,250,meters,jsons/v1_VE250_randls_75_rotated.json,654467,747960,34,Man
56,349604,DepthScenes,duration_manipulation_targetAtFixation,jsons/v1_VE250_randls_75_rotated.json,http://54.235.29.9/FacialAge/BNav_EC2/DepthDuration/v2_depth_duration_MTurk/v2_DepthDuration_HTML.html#378,378,1366,625,1366,768,8-29-2022,11-56-4,57,depth_duration_stimuli/000493_2014-06-09_21-01-18_260595134347_rgbf000196-resize_3/000493_2014-06-09_21-01-18_260595134347_rgbf000196-resize_3-target.png,250,3.44,5.0,2433,256,meters,jsons/v1_VE250_randls_75_rotated.json,654467,747960,34,Man
57,349604,DepthScenes,duration_manipulation_targetAtFixation,jsons/v1_VE250_randls_75_rotated.json,http://54.235.29.9/FacialAge/BNav_EC2/DepthDuration/v2_depth_duration_MTurk/v2_DepthDuration_HTML.html#378,378,1366,625,1366,768,8-29-2022,11-56-4,58,depth_duration_stimuli/000742_2014-06-08_18-48-09_260595134347_rgbf000164-resize_4/000742_2014-06-08_18-48-09_260595134347_rgbf000164-resize_4-target.png,250,4.632,6.0,3261,251,meters,jsons/v1_VE250_randls_75_rotated.json,654467,747960,34,Man
58,349604,DepthScenes,duration_manipulation_targetAtFixation,jsons/v1_VE250_randls_75_rotated.json,http://54.235.29.9/FacialAge/BNav_EC2/DepthDuration/v2_depth_duration_MTurk/v2_DepthDuration_HTML.html#378,378,1366,625,1366,768,8-29-2022,11-56-4,59,depth_duration_stimuli/001066_2014-06-08_22-03-20_260595134347_rgbf000066-resize_4/001066_2014-06-08_22-03-20_260595134347_rgbf000066-resize_4-target.png,250,4.2330000000000005,5.0,2658,245,meters,jsons/v1_VE250_randls_75_rotated.json,654467,747960,34,Man
59,349604,DepthScenes,duration_manipulation_targetAtFixation,jsons/v1_VE250_randls_75_rotated.json,http://54.235.29.9/FacialAge/BNav_EC2/DepthDuration/v2_depth_duration_MTurk/v2_DepthDuration_HTML.html#378,378,1366,625,1366,768,8-29-2022,11-56-4,60,depth_duration_stimuli/002209_2014-06-28_18-36-10_260595134347_rgbf000051-resize_1/002209_2014-06-28_18-36-10_260595134347_rgbf000051-resize_1-target.png,250,2.057,6.0,4235,248,meters,jsons/v1_VE250_randls_75_rotated.json,654467,747960,34,Man
60,349604,DepthScenes,duration_manipulation_targetAtFixation,jsons/v1_VE250_randls_75_rotated.json,http://54.235.29.9/FacialAge/BNav_EC2/DepthDuration/v2_depth_duration_MTurk/v2_DepthDuration_HTML.html#378,378,1366,625,1366,768,8-29-2022,11-56-4,61,depth_duration_stimuli/002763_2014-06-22_19-13-10_094959634447_rgbf000075-resize_4/002763_2014-06-22_19-13-10_094959634447_rgbf000075-resize_4-target.png,250,1.68375,5.0,2638,247,meters,jsons/v1_VE250_randls_75_rotated.json,654467,747960,34,Man
61,349604,DepthScenes,duration_manipulation_targetAtFixation,jsons/v1_VE250_randls_75_rotated.json,http://54.235.29.9/FacialAge/BNav_EC2/DepthDuration/v2_depth_duration_MTurk/v2_DepthDuration_HTML.html#378,378,1366,625,1366,768,8-29-2022,11-56-4,62,depth_duration_stimuli/000709_2014-06-08_13-51-55_260595134347_rgbf000068-resize_3/000709_2014-06-08_13-51-55_260595134347_rgbf000068-resize_3-target.png,250,1.8030000000000002,5.0,2952,242,meters,jsons/v1_VE250_randls_75_rotated.json,654467,747960,34,Man
62,349604,DepthScenes,duration_manipulation_targetAtFixation,jsons/v1_VE250_randls_75_rotated.json,http://54.235.29.9/FacialAge/BNav_EC2/DepthDuration/v2_depth_duration_MTurk/v2_DepthDuration_HTML.html#378,378,1366,625,1366,768,8-29-2022,11-56-4,63,depth_duration_stimuli/002057_2014-06-24_21-00-13_260595134347_rgbf000120-resize_1/002057_2014-06-24_21-00-13_260595134347_rgbf000120-resize_1-target.png,250,2.967,0.0,2797,245,meters,jsons/v1_VE250_randls_75_rotated.json,654467,747960,34,Man
63,349604,DepthScenes,duration_manipulation_targetAtFixation,jsons/v1_VE250_randls_75_rotated.json,http://54.235.29.9/FacialAge/BNav_EC2/DepthDuration/v2_depth_duration_MTurk/v2_DepthDuration_HTML.html#378,378,1366,625,1366,768,8-29-2022,11-56-4,64,depth_duration_stimuli/001650_2014-06-20_12-09-00_260595134347_rgbf000087-resize_3/001650_2014-06-20_12-09-00_260595134347_rgbf000087-resize_3-target.png,250,1.9505,3.0,3207,239,meters,jsons/v1_VE250_randls_75_rotated.json,654467,747960,34,Man
64,349604,DepthScenes,duration_manipulation_targetAtFixation,jsons/v1_VE250_randls_75_rotated.json,http://54.235.29.9/FacialAge/BNav_EC2/DepthDuration/v2_depth_duration_MTurk/v2_DepthDuration_HTML.html#378,378,1366,625,1366,768,8-29-2022,11-56-4,65,depth_duration_stimuli/000682_2014-06-08_23-14-58_260595134347_rgbf000041-resize_5/000682_2014-06-08_23-14-58_260595134347_rgbf000041-resize_5-target.png,250,2.7239999999999998,5.0,2312,250,meters,jsons/v1_VE250_randls_75_rotated.json,654467,747960,34,Man
65,349604,DepthScenes,duration_manipulation_targetAtFixation,jsons/v1_VE250_randls_75_rotated.json,http://54.235.29.9/FacialAge/BNav_EC2/DepthDuration/v2_depth_duration_MTurk/v2_DepthDuration_HTML.html#378,378,1366,625,1366,768,8-29-2022,11-56-4,66,depth_duration_stimuli/001540_2014-06-20_17-01-05_260595134347_rgbf000086-resize_2/001540_2014-06-20_17-01-05_260595134347_rgbf000086-resize-original.jpg,250,1.459,0.0,2597,247,meters,jsons/v1_VE250_randls_75_rotated.json,654467,747960,34,Man
66,349604,DepthScenes,duration_manipulation_targetAtFixation,jsons/v1_VE250_randls_75_rotated.json,http://54.235.29.9/FacialAge/BNav_EC2/DepthDuration/v2_depth_duration_MTurk/v2_DepthDuration_HTML.html#378,378,1366,625,1366,768,8-29-2022,11-56-4,67,depth_duration_stimuli/000103_2014-05-14_22-01-17_260595134347_rgbf000152-resize_5/000103_2014-05-14_22-01-17_260595134347_rgbf000152-resize_5-target.png,250,1.993,5.0,3983,251,meters,jsons/v1_VE250_randls_75_rotated.json,654467,747960,34,Man
67,349604,DepthScenes,duration_manipulation_targetAtFixation,jsons/v1_VE250_randls_75_rotated.json,http://54.235.29.9/FacialAge/BNav_EC2/DepthDuration/v2_depth_duration_MTurk/v2_DepthDuration_HTML.html#378,378,1366,625,1366,768,8-29-2022,11-56-4,68,depth_duration_stimuli/001555_2014-06-20_17-12-10_260595134347_rgbf000065-resize_4/001555_2014-06-20_17-12-10_260595134347_rgbf000065-resize_4-target.png,250,1.633,5.0,2336,256,meters,jsons/v1_VE250_randls_75_rotated.json,654467,747960,34,Man
68,349604,DepthScenes,duration_manipulation_targetAtFixation,jsons/v1_VE250_randls_75_rotated.json,http://54.235.29.9/FacialAge/BNav_EC2/DepthDuration/v2_depth_duration_MTurk/v2_DepthDuration_HTML.html#378,378,1366,625,1366,768,8-29-2022,11-56-4,69,depth_duration_stimuli/003587_2014-05-23_16-48-02_094959634447_rgbf002384-resize_2/003587_2014-05-23_16-48-02_094959634447_rgbf002384-resize_2-target.png,250,1.357,5.0,2778,239,meters,jsons/v1_VE250_randls_75_rotated.json,654467,747960,34,Man
69,349604,DepthScenes,duration_manipulation_targetAtFixation,jsons/v1_VE250_randls_75_rotated.json,http://54.235.29.9/FacialAge/BNav_EC2/DepthDuration/v2_depth_duration_MTurk/v2_DepthDuration_HTML.html#378,378,1366,625,1366,768,8-29-2022,11-56-4,70,depth_duration_stimuli/001167_2014-06-17_15-38-07_260595134347_rgbf000108-resize_0/001167_2014-06-17_15-38-07_260595134347_rgbf000108-resize_0-target.png,250,1.8505,5.0,9996,245,meters,jsons/v1_VE250_randls_75_rotated.json,654467,747960,34,Man
70,349604,DepthScenes,duration_manipulation_targetAtFixation,jsons/v1_VE250_randls_75_rotated.json,http://54.235.29.9/FacialAge/BNav_EC2/DepthDuration/v2_depth_duration_MTurk/v2_DepthDuration_HTML.html#378,378,1366,625,1366,768,8-29-2022,11-56-4,71,depth_duration_stimuli/000457_2014-06-08_16-52-43_260595134347_rgbf000199-resize_1/000457_2014-06-08_16-52-43_260595134347_rgbf000199-resize_1-target.png,250,3.6489999999999996,5.0,5073,262,meters,jsons/v1_VE250_randls_75_rotated.json,654467,747960,34,Man
71,349604,DepthScenes,duration_manipulation_targetAtFixation,jsons/v1_VE250_randls_75_rotated.json,http://54.235.29.9/FacialAge/BNav_EC2/DepthDuration/v2_depth_duration_MTurk/v2_DepthDuration_HTML.html#378,378,1366,625,1366,768,8-29-2022,11-56-4,72,depth_duration_stimuli/000929_2014-06-09_16-33-19_260595134347_rgbf000139-resize_0/000929_2014-06-09_16-33-19_260595134347_rgbf000139-resize_0-target.png,250,2.8680000000000003,6.0,3756,248,meters,jsons/v1_VE250_randls_75_rotated.json,654467,747960,34,Man
72,349604,DepthScenes,duration_manipulation_targetAtFixation,jsons/v1_VE250_randls_75_rotated.json,http://54.235.29.9/FacialAge/BNav_EC2/DepthDuration/v2_depth_duration_MTurk/v2_DepthDuration_HTML.html#378,378,1366,625,1366,768,8-29-2022,11-56-4,73,depth_duration_stimuli/002444_2014-06-28_20-32-08_260595134347_rgbf000027-resize_0/002444_2014-06-28_20-32-08_260595134347_rgbf000027-resize_0-target.png,250,4.388999999999999,5.0,14130,253,meters,jsons/v1_VE250_randls_75_rotated.json,654467,747960,34,Man
73,349604,DepthScenes,duration_manipulation_targetAtFixation,jsons/v1_VE250_randls_75_rotated.json,http://54.235.29.9/FacialAge/BNav_EC2/DepthDuration/v2_depth_duration_MTurk/v2_DepthDuration_HTML.html#378,378,1366,625,1366,768,8-29-2022,11-56-4,74,depth_duration_stimuli/000436_2014-06-09_22-25-11_260595134347_rgbf000137-resize_1/000436_2014-06-09_22-25-11_260595134347_rgbf000137-resize_1-target.png,250,4.0705,6.0,3364,251,meters,jsons/v1_VE250_randls_75_rotated.json,654467,747960,34,Man
74,349604,DepthScenes,duration_manipulation_targetAtFixation,jsons/v1_VE250_randls_75_rotated.json,http://54.235.29.9/FacialAge/BNav_EC2/DepthDuration/v2_depth_duration_MTurk/v2_DepthDuration_HTML.html#378,378,1366,625,1366,768,8-29-2022,11-56-4,75,depth_duration_stimuli/002639_2014-06-24_14-51-37_094959634447_rgbf000074-resize_4/002639_2014-06-24_14-51-37_094959634447_rgbf000074-resize_4-target.png,250,4.0375,5.0,3243,248,meters,jsons/v1_VE250_randls_75_rotated.json,654467,747960,34,Man
75,349604,DepthScenes,duration_manipulation_targetAtFixation,jsons/v1_VE250_randls_75_rotated.json,http://54.235.29.9/FacialAge/BNav_EC2/DepthDuration/v2_depth_duration_MTurk/v2_DepthDuration_HTML.html#378,378,1366,625,1366,768,8-29-2022,11-56-4,76,depth_duration_stimuli/003292_2014-05-14_21-53-49_094959634447_rgbf000100-resize_2/003292_2014-05-14_21-53-49_094959634447_rgbf000100-resize_2-target.png,250,3.4815,5.0,2819,251,meters,jsons/v1_VE250_randls_75_rotated.json,654467,747960,34,Man
76,349604,DepthScenes,duration_manipulation_targetAtFixation,jsons/v1_VE250_randls_75_rotated.json,http://54.235.29.9/FacialAge/BNav_EC2/DepthDuration/v2_depth_duration_MTurk/v2_DepthDuration_HTML.html#378,378,1366,625,1366,768,8-29-2022,11-56-4,77,depth_duration_stimuli/002103_2014-06-25_20-00-40_260595134347_rgbf000049-resize_0/002103_2014-06-25_20-00-40_260595134347_rgbf000049-resize_0-target.png,250,4.105,5.0,2601,251,meters,jsons/v1_VE250_randls_75_rotated.json,654467,747960,34,Man
77,349604,DepthScenes,duration_manipulation_targetAtFixation,jsons/v1_VE250_randls_75_rotated.json,http://54.235.29.9/FacialAge/BNav_EC2/DepthDuration/v2_depth_duration_MTurk/v2_DepthDuration_HTML.html#378,378,1366,625,1366,768,8-29-2022,11-56-4,78,depth_duration_stimuli/002039_2014-06-24_20-22-38_260595134347_rgbf000084-resize_1/002039_2014-06-24_20-22-38_260595134347_rgbf000084-resize_1-target.png,250,4.408,6.0,2522,252,meters,jsons/v1_VE250_randls_75_rotated.json,654467,747960,34,Man
78,349604,DepthScenes,duration_manipulation_targetAtFixation,jsons/v1_VE250_randls_75_rotated.json,http://54.235.29.9/FacialAge/BNav_EC2/DepthDuration/v2_depth_duration_MTurk/v2_DepthDuration_HTML.html#378,378,1366,625,1366,768,8-29-2022,11-56-4,79,depth_duration_stimuli/002660_2014-06-13_15-44-18_094959634447_rgbf001878-resize_2/002660_2014-06-13_15-44-18_094959634447_rgbf001878-resize_2-target.png,250,3.576,5.0,2774,248,meters,jsons/v1_VE250_randls_75_rotated.json,654467,747960,34,Man
79,349604,DepthScenes,duration_manipulation_targetAtFixation,jsons/v1_VE250_randls_75_rotated.json,http://54.235.29.9/FacialAge/BNav_EC2/DepthDuration/v2_depth_duration_MTurk/v2_DepthDuration_HTML.html#378,378,1366,625,1366,768,8-29-2022,11-56-4,80,depth_duration_stimuli/002153_2014-06-25_21-27-18_260595134347_rgbf000038-resize_5/002153_2014-06-25_21-27-18_260595134347_rgbf000038-resize_5-target.png,250,2.505,5.0,2961,238,meters,jsons/v1_VE250_randls_75_rotated.json,654467,747960,34,Man
80,349604,DepthScenes,duration_manipulation_targetAtFixation,jsons/v1_VE250_randls_75_rotated.json,http://54.235.29.9/FacialAge/BNav_EC2/DepthDuration/v2_depth_duration_MTurk/v2_DepthDuration_HTML.html#378,378,1366,625,1366,768,8-29-2022,11-56-4,81,depth_duration_stimuli/000691_2014-06-08_13-08-50_260595134347_rgbf000132-resize_3/000691_2014-06-08_13-08-50_260595134347_rgbf000132-resize_3-target.png,250,4.1530000000000005,6.0,2807,243,meters,jsons/v1_VE250_randls_75_rotated.json,654467,747960,34,Man
81,349604,DepthScenes,duration_manipulation_targetAtFixation,jsons/v1_VE250_randls_75_rotated.json,http://54.235.29.9/FacialAge/BNav_EC2/DepthDuration/v2_depth_duration_MTurk/v2_DepthDuration_HTML.html#378,378,1366,625,1366,768,8-29-2022,11-56-4,82,depth_duration_stimuli/002213_2014-06-28_18-37-58_260595134347_rgbf000055-resize_1/002213_2014-06-28_18-37-58_260595134347_rgbf000055-resize_1-target.png,250,3.62,5.0,3178,245,meters,jsons/v1_VE250_randls_75_rotated.json,654467,747960,34,Man
82,349604,DepthScenes,duration_manipulation_targetAtFixation,jsons/v1_VE250_randls_75_rotated.json,http://54.235.29.9/FacialAge/BNav_EC2/DepthDuration/v2_depth_duration_MTurk/v2_DepthDuration_HTML.html#378,378,1366,625,1366,768,8-29-2022,11-56-4,83,depth_duration_stimuli/002467_2014-06-28_20-38-07_260595134347_rgbf000026-resize_2/002467_2014-06-28_20-38-07_260595134347_rgbf000026-resize_2-target.png,250,4.742,6.0,2713,249,meters,jsons/v1_VE250_randls_75_rotated.json,654467,747960,34,Man
83,349604,DepthScenes,duration_manipulation_targetAtFixation,jsons/v1_VE250_randls_75_rotated.json,http://54.235.29.9/FacialAge/BNav_EC2/DepthDuration/v2_depth_duration_MTurk/v2_DepthDuration_HTML.html#378,378,1366,625,1366,768,8-29-2022,11-56-4,84,depth_duration_stimuli/002570_2014-06-24_13-59-54_094959634447_rgbf000059-resize_0/002570_2014-06-24_13-59-54_094959634447_rgbf000059-resize_0-target.png,250,4.037,5.0,2683,239,meters,jsons/v1_VE250_randls_75_rotated.json,654467,747960,34,Man
84,349604,DepthScenes,duration_manipulation_targetAtFixation,jsons/v1_VE250_randls_75_rotated.json,http://54.235.29.9/FacialAge/BNav_EC2/DepthDuration/v2_depth_duration_MTurk/v2_DepthDuration_HTML.html#378,378,1366,625,1366,768,8-29-2022,11-56-4,85,depth_duration_stimuli/000734_2014-06-08_17-39-11_260595134347_rgbf000128-resize_2/000734_2014-06-08_17-39-11_260595134347_rgbf000128-resize_2-target.png,250,4.098,6.0,3016,247,meters,jsons/v1_VE250_randls_75_rotated.json,654467,747960,34,Man
85,349604,DepthScenes,duration_manipulation_targetAtFixation,jsons/v1_VE250_randls_75_rotated.json,http://54.235.29.9/FacialAge/BNav_EC2/DepthDuration/v2_depth_duration_MTurk/v2_DepthDuration_HTML.html#378,378,1366,625,1366,768,8-29-2022,11-56-4,86,depth_duration_stimuli/000739_2014-06-08_18-45-58_260595134347_rgbf000068-resize_1/000739_2014-06-08_18-45-58_260595134347_rgbf000068-resize_1-target.png,250,3.534,6.0,5935,258,meters,jsons/v1_VE250_randls_75_rotated.json,654467,747960,34,Man
86,349604,DepthScenes,duration_manipulation_targetAtFixation,jsons/v1_VE250_randls_75_rotated.json,http://54.235.29.9/FacialAge/BNav_EC2/DepthDuration/v2_depth_duration_MTurk/v2_DepthDuration_HTML.html#378,378,1366,625,1366,768,8-29-2022,11-56-4,87,depth_duration_stimuli/001032_2014-06-08_13-23-17_260595134347_rgbf000021-resize_3/001032_2014-06-08_13-23-17_260595134347_rgbf000021-resize_3-target.png,250,3.2725,5.0,10727,247,meters,jsons/v1_VE250_randls_75_rotated.json,654467,747960,34,Man
87,349604,DepthScenes,duration_manipulation_targetAtFixation,jsons/v1_VE250_randls_75_rotated.json,http://54.235.29.9/FacialAge/BNav_EC2/DepthDuration/v2_depth_duration_MTurk/v2_DepthDuration_HTML.html#378,378,1366,625,1366,768,8-29-2022,11-56-4,88,depth_duration_stimuli/001059_2014-06-08_21-53-27_260595134347_rgbf000061-resize_4/001059_2014-06-08_21-53-27_260595134347_rgbf000061-resize_4-target.png,250,2.4185,6.0,3244,249,meters,jsons/v1_VE250_randls_75_rotated.json,654467,747960,34,Man
88,349604,DepthScenes,duration_manipulation_targetAtFixation,jsons/v1_VE250_randls_75_rotated.json,http://54.235.29.9/FacialAge/BNav_EC2/DepthDuration/v2_depth_duration_MTurk/v2_DepthDuration_HTML.html#378,378,1366,625,1366,768,8-29-2022,11-56-4,89,depth_duration_stimuli/003495_2014-05-21_16-01-51_094959634447_rgbf000100-resize_3/003495_2014-05-21_16-01-51_094959634447_rgbf000100-resize_3-target.png,250,1.6255,4.0,2879,248,meters,jsons/v1_VE250_randls_75_rotated.json,654467,747960,34,Man
89,349604,DepthScenes,duration_manipulation_targetAtFixation,jsons/v1_VE250_randls_75_rotated.json,http://54.235.29.9/FacialAge/BNav_EC2/DepthDuration/v2_depth_duration_MTurk/v2_DepthDuration_HTML.html#378,378,1366,625,1366,768,8-29-2022,11-56-4,90,depth_duration_stimuli/001244_2014-06-17_16-47-45_260595134347_rgbf000030-resize_4/001244_2014-06-17_16-47-45_260595134347_rgbf000030-resize_4-target.png,250,2.0425,5.0,2737,238,meters,jsons/v1_VE250_randls_75_rotated.json,654467,747960,34,Man
90,349604,DepthScenes,duration_manipulation_targetAtFixation,jsons/v1_VE250_randls_75_rotated.json,http://54.235.29.9/FacialAge/BNav_EC2/DepthDuration/v2_depth_duration_MTurk/v2_DepthDuration_HTML.html#378,378,1366,625,1366,768,8-29-2022,11-56-4,91,depth_duration_stimuli/003010_2014-06-15_12-54-35_094959634447_rgbf000112-resize_0/003010_2014-06-15_12-54-35_094959634447_rgbf000112-resize_0-target.png,250,3.1185,6.0,2757,241,meters,jsons/v1_VE250_randls_75_rotated.json,654467,747960,34,Man
91,349604,DepthScenes,duration_manipulation_targetAtFixation,jsons/v1_VE250_randls_75_rotated.json,http://54.235.29.9/FacialAge/BNav_EC2/DepthDuration/v2_depth_duration_MTurk/v2_DepthDuration_HTML.html#378,378,1366,625,1366,768,8-29-2022,11-56-4,92,depth_duration_stimuli/001810_2014-06-26_20-51-35_260595134347_rgbf000040-resize_3/001810_2014-06-26_20-51-35_260595134347_rgbf000040-resize_3-target.png,250,2.2525,5.0,2533,251,meters,jsons/v1_VE250_randls_75_rotated.json,654467,747960,34,Man
92,349604,DepthScenes,duration_manipulation_targetAtFixation,jsons/v1_VE250_randls_75_rotated.json,http://54.235.29.9/FacialAge/BNav_EC2/DepthDuration/v2_depth_duration_MTurk/v2_DepthDuration_HTML.html#378,378,1366,625,1366,768,8-29-2022,11-56-4,93,depth_duration_stimuli/001584_2014-06-20_11-07-43_260595134347_rgbf000002-resize_1/001584_2014-06-20_11-07-43_260595134347_rgbf000002-resize_1-target.png,250,3.53,6.0,2406,249,meters,jsons/v1_VE250_randls_75_rotated.json,654467,747960,34,Man
93,349604,DepthScenes,duration_manipulation_targetAtFixation,jsons/v1_VE250_randls_75_rotated.json,http://54.235.29.9/FacialAge/BNav_EC2/DepthDuration/v2_depth_duration_MTurk/v2_DepthDuration_HTML.html#378,378,1366,625,1366,768,8-29-2022,11-56-4,94,depth_duration_stimuli/003621_2014-05-23_18-06-08_094959634447_rgbf000101-resize_1/003621_2014-05-23_18-06-08_094959634447_rgbf000101-resize_1-target.png,250,3.9835,5.0,2409,250,meters,jsons/v1_VE250_randls_75_rotated.json,654467,747960,34,Man
94,349604,DepthScenes,duration_manipulation_targetAtFixation,jsons/v1_VE250_randls_75_rotated.json,http://54.235.29.9/FacialAge/BNav_EC2/DepthDuration/v2_depth_duration_MTurk/v2_DepthDuration_HTML.html#378,378,1366,625,1366,768,8-29-2022,11-56-4,95,depth_duration_stimuli/002637_2014-06-24_14-51-13_094959634447_rgbf000066-resize_4/002637_2014-06-24_14-51-13_094959634447_rgbf000066-resize_4-target.png,250,1.9955,5.0,2878,250,meters,jsons/v1_VE250_randls_75_rotated.json,654467,747960,34,Man
95,349604,DepthScenes,duration_manipulation_targetAtFixation,jsons/v1_VE250_randls_75_rotated.json,http://54.235.29.9/FacialAge/BNav_EC2/DepthDuration/v2_depth_duration_MTurk/v2_DepthDuration_HTML.html#378,378,1366,625,1366,768,8-29-2022,11-56-4,96,depth_duration_stimuli/003534_2014-05-22_15-06-10_094959634447_rgbf000102-resize_4/003534_2014-05-22_15-06-10_094959634447_rgbf000102-resize_4-target.png,250,1.426,3.0,2468,252,meters,jsons/v1_VE250_randls_75_rotated.json,654467,747960,34,Man
96,349604,DepthScenes,duration_manipulation_targetAtFixation,jsons/v1_VE250_randls_75_rotated.json,http://54.235.29.9/FacialAge/BNav_EC2/DepthDuration/v2_depth_duration_MTurk/v2_DepthDuration_HTML.html#378,378,1366,625,1366,768,8-29-2022,11-56-4,97,depth_duration_stimuli/002199_2014-06-28_18-33-56_260595134347_rgbf000074-resize_0/002199_2014-06-28_18-33-56_260595134347_rgbf000074-resize_0-target.png,250,1.996,4.0,3118,250,meters,jsons/v1_VE250_randls_75_rotated.json,654467,747960,34,Man
97,349604,DepthScenes,duration_manipulation_targetAtFixation,jsons/v1_VE250_randls_75_rotated.json,http://54.235.29.9/FacialAge/BNav_EC2/DepthDuration/v2_depth_duration_MTurk/v2_DepthDuration_HTML.html#378,378,1366,625,1366,768,8-29-2022,11-56-4,98,depth_duration_stimuli/001056_2014-06-08_18-46-44_260595134347_rgbf000068-resize_0/001056_2014-06-08_18-46-44_260595134347_rgbf000068-resize_0-target.png,250,2.6625,4.0,2830,249,meters,jsons/v1_VE250_randls_75_rotated.json,654467,747960,34,Man
98,349604,DepthScenes,duration_manipulation_targetAtFixation,jsons/v1_VE250_randls_75_rotated.json,http://54.235.29.9/FacialAge/BNav_EC2/DepthDuration/v2_depth_duration_MTurk/v2_DepthDuration_HTML.html#378,378,1366,625,1366,768,8-29-2022,11-56-4,99,depth_duration_stimuli/001222_2014-06-17_16-24-06_260595134347_rgbf000073-resize_0/001222_2014-06-17_16-24-06_260595134347_rgbf000073-resize-original.jpg,250,1.4385,0.0,3085,261,meters,jsons/v1_VE250_randls_75_rotated.json,654467,747960,34,Man
99,349604,DepthScenes,duration_manipulation_targetAtFixation,jsons/v1_VE250_randls_75_rotated.json,http://54.235.29.9/FacialAge/BNav_EC2/DepthDuration/v2_depth_duration_MTurk/v2_DepthDuration_HTML.html#378,378,1366,625,1366,768,8-29-2022,11-56-4,100,depth_duration_stimuli/000665_2014-06-09_20-42-35_260595134347_rgbf000110-resize_1/000665_2014-06-09_20-42-35_260595134347_rgbf000110-resize_1-target.png,250,3.057,5.0,2775,252,meters,jsons/v1_VE250_randls_75_rotated.json,654467,747960,34,Man
100,349604,DepthScenes,duration_manipulation_targetAtFixation,jsons/v1_VE250_randls_75_rotated.json,http://54.235.29.9/FacialAge/BNav_EC2/DepthDuration/v2_depth_duration_MTurk/v2_DepthDuration_HTML.html#378,378,1366,625,1366,768,8-29-2022,11-56-4,101,depth_duration_stimuli/001150_2014-06-17_15-27-34_260595134347_rgbf000108-resize_2/001150_2014-06-17_15-27-34_260595134347_rgbf000108-resize_2-target.png,250,4.0325,5.0,2333,263,meters,jsons/v1_VE250_randls_75_rotated.json,654467,747960,34,Man
101,349604,DepthScenes,duration_manipulation_targetAtFixation,jsons/v1_VE250_randls_75_rotated.json,http://54.235.29.9/FacialAge/BNav_EC2/DepthDuration/v2_depth_duration_MTurk/v2_DepthDuration_HTML.html#378,378,1366,625,1366,768,8-29-2022,11-56-4,102,depth_duration_stimuli/003228_2014-05-14_13-42-35_094959634447_rgbf000101-resize_1/003228_2014-05-14_13-42-35_094959634447_rgbf000101-resize_1-target.png,250,1.9680000000000002,5.0,3065,252,meters,jsons/v1_VE250_randls_75_rotated.json,654467,747960,34,Man
102,349604,DepthScenes,duration_manipulation_targetAtFixation,jsons/v1_VE250_randls_75_rotated.json,http://54.235.29.9/FacialAge/BNav_EC2/DepthDuration/v2_depth_duration_MTurk/v2_DepthDuration_HTML.html#378,378,1366,625,1366,768,8-29-2022,11-56-4,103,depth_duration_stimuli/002600_2014-06-24_14-27-04_094959634447_rgbf000074-resize_2/002600_2014-06-24_14-27-04_094959634447_rgbf000074-resize_2-target.png,250,2.7575,6.0,2495,238,meters,jsons/v1_VE250_randls_75_rotated.json,654467,747960,34,Man
103,349604,DepthScenes,duration_manipulation_targetAtFixation,jsons/v1_VE250_randls_75_rotated.json,http://54.235.29.9/FacialAge/BNav_EC2/DepthDuration/v2_depth_duration_MTurk/v2_DepthDuration_HTML.html#378,378,1366,625,1366,768,8-29-2022,11-56-4,104,depth_duration_stimuli/001132_2014-06-17_14-48-54_260595134347_rgbf000100-resize_2/001132_2014-06-17_14-48-54_260595134347_rgbf000100-resize_2-target.png,250,3.753,6.0,3310,251,meters,jsons/v1_VE250_randls_75_rotated.json,654467,747960,34,Man
104,349604,DepthScenes,duration_manipulation_targetAtFixation,jsons/v1_VE250_randls_75_rotated.json,http://54.235.29.9/FacialAge/BNav_EC2/DepthDuration/v2_depth_duration_MTurk/v2_DepthDuration_HTML.html#378,378,1366,625,1366,768,8-29-2022,11-56-4,105,depth_duration_stimuli/001133_2014-06-17_14-49-16_260595134347_rgbf000100-resize_0/001133_2014-06-17_14-49-16_260595134347_rgbf000100-resize_0-target.png,250,4.2115,5.0,2544,260,meters,jsons/v1_VE250_randls_75_rotated.json,654467,747960,34,Man
105,349604,DepthScenes,duration_manipulation_targetAtFixation,jsons/v1_VE250_randls_75_rotated.json,http://54.235.29.9/FacialAge/BNav_EC2/DepthDuration/v2_depth_duration_MTurk/v2_DepthDuration_HTML.html#378,378,1366,625,1366,768,8-29-2022,11-56-4,106,depth_duration_stimuli/002344_2014-06-28_20-06-29_260595134347_rgbf000030-resize_1/002344_2014-06-28_20-06-29_260595134347_rgbf000030-resize_1-target.png,250,1.5795,3.0,2821,240,meters,jsons/v1_VE250_randls_75_rotated.json,654467,747960,34,Man
106,349604,DepthScenes,duration_manipulation_targetAtFixation,jsons/v1_VE250_randls_75_rotated.json,http://54.235.29.9/FacialAge/BNav_EC2/DepthDuration/v2_depth_duration_MTurk/v2_DepthDuration_HTML.html#378,378,1366,625,1366,768,8-29-2022,11-56-4,107,depth_duration_stimuli/002725_2014-06-22_11-47-51_094959634447_rgbf000070-resize_1/002725_2014-06-22_11-47-51_094959634447_rgbf000070-resize_1-target.png,250,2.195,7.0,2675,250,meters,jsons/v1_VE250_randls_75_rotated.json,654467,747960,34,Man
107,349604,DepthScenes,duration_manipulation_targetAtFixation,jsons/v1_VE250_randls_75_rotated.json,http://54.235.29.9/FacialAge/BNav_EC2/DepthDuration/v2_depth_duration_MTurk/v2_DepthDuration_HTML.html#378,378,1366,625,1366,768,8-29-2022,11-56-4,108,depth_duration_stimuli/002750_2014-06-22_19-08-03_094959634447_rgbf000094-resize_4/002750_2014-06-22_19-08-03_094959634447_rgbf000094-resize_4-target.png,250,2.354,5.0,2466,265,meters,jsons/v1_VE250_randls_75_rotated.json,654467,747960,34,Man
108,349604,DepthScenes,duration_manipulation_targetAtFixation,jsons/v1_VE250_randls_75_rotated.json,http://54.235.29.9/FacialAge/BNav_EC2/DepthDuration/v2_depth_duration_MTurk/v2_DepthDuration_HTML.html#378,378,1366,625,1366,768,8-29-2022,11-56-4,109,depth_duration_stimuli/002549_2014-06-24_13-41-39_094959634447_rgbf000022-resize_3/002549_2014-06-24_13-41-39_094959634447_rgbf000022-resize_3-target.png,250,1.476,4.0,2541,253,meters,jsons/v1_VE250_randls_75_rotated.json,654467,747960,34,Man
109,349604,DepthScenes,duration_manipulation_targetAtFixation,jsons/v1_VE250_randls_75_rotated.json,http://54.235.29.9/FacialAge/BNav_EC2/DepthDuration/v2_depth_duration_MTurk/v2_DepthDuration_HTML.html#378,378,1366,625,1366,768,8-29-2022,11-56-4,110,depth_duration_stimuli/002875_2014-06-01_15-19-00_094959634447_rgbf000151-resize_1/002875_2014-06-01_15-19-00_094959634447_rgbf000151-resize_1-target.png,250,1.9675,5.0,2614,257,meters,jsons/v1_VE250_randls_75_rotated.json,654467,747960,34,Man
110,349604,DepthScenes,duration_manipulation_targetAtFixation,jsons/v1_VE250_randls_75_rotated.json,http://54.235.29.9/FacialAge/BNav_EC2/DepthDuration/v2_depth_duration_MTurk/v2_DepthDuration_HTML.html#378,378,1366,625,1366,768,8-29-2022,11-56-4,111,depth_duration_stimuli/001011_2014-06-08_23-18-54_260595134347_rgbf000044-resize_4/001011_2014-06-08_23-18-54_260595134347_rgbf000044-resize_4-target.png,250,2.4730000000000003,5.0,3140,252,meters,jsons/v1_VE250_randls_75_rotated.json,654467,747960,34,Man
111,349604,DepthScenes,duration_manipulation_targetAtFixation,jsons/v1_VE250_randls_75_rotated.json,http://54.235.29.9/FacialAge/BNav_EC2/DepthDuration/v2_depth_duration_MTurk/v2_DepthDuration_HTML.html#378,378,1366,625,1366,768,8-29-2022,11-56-4,112,depth_duration_stimuli/002657_2014-06-13_15-29-54_094959634447_rgbf000150-resize_1/002657_2014-06-13_15-29-54_094959634447_rgbf000150-resize_1-target.png,250,4.919,6.0,2786,250,meters,jsons/v1_VE250_randls_75_rotated.json,654467,747960,34,Man
112,349604,DepthScenes,duration_manipulation_targetAtFixation,jsons/v1_VE250_randls_75_rotated.json,http://54.235.29.9/FacialAge/BNav_EC2/DepthDuration/v2_depth_duration_MTurk/v2_DepthDuration_HTML.html#378,378,1366,625,1366,768,8-29-2022,11-56-4,113,depth_duration_stimuli/002375_2014-06-28_20-13-44_260595134347_rgbf000032-resize_1/002375_2014-06-28_20-13-44_260595134347_rgbf000032-resize_1-target.png,250,4.0175,5.0,2476,251,meters,jsons/v1_VE250_randls_75_rotated.json,654467,747960,34,Man
113,349604,DepthScenes,duration_manipulation_targetAtFixation,jsons/v1_VE250_randls_75_rotated.json,http://54.235.29.9/FacialAge/BNav_EC2/DepthDuration/v2_depth_duration_MTurk/v2_DepthDuration_HTML.html#378,378,1366,625,1366,768,8-29-2022,11-56-4,114,depth_duration_stimuli/002995_2014-06-15_12-31-26_094959634447_rgbf000150-resize_1/002995_2014-06-15_12-31-26_094959634447_rgbf000150-resize_1-target.png,250,3.8360000000000003,5.0,2662,240,meters,jsons/v1_VE250_randls_75_rotated.json,654467,747960,34,Man
114,349604,DepthScenes,duration_manipulation_targetAtFixation,jsons/v1_VE250_randls_75_rotated.json,http://54.235.29.9/FacialAge/BNav_EC2/DepthDuration/v2_depth_duration_MTurk/v2_DepthDuration_HTML.html#378,378,1366,625,1366,768,8-29-2022,11-56-4,115,depth_duration_stimuli/002748_2014-06-22_19-07-22_094959634447_rgbf000078-resize_1/002748_2014-06-22_19-07-22_094959634447_rgbf000078-resize_1-target.png,250,4.6705,5.0,2747,258,meters,jsons/v1_VE250_randls_75_rotated.json,654467,747960,34,Man
115,349604,DepthScenes,duration_manipulation_targetAtFixation,jsons/v1_VE250_randls_75_rotated.json,http://54.235.29.9/FacialAge/BNav_EC2/DepthDuration/v2_depth_duration_MTurk/v2_DepthDuration_HTML.html#378,378,1366,625,1366,768,8-29-2022,11-56-4,116,depth_duration_stimuli/003081_2014-06-15_15-19-16_094959634447_rgbf000150-resize_1/003081_2014-06-15_15-19-16_094959634447_rgbf000150-resize_1-target.png,250,3.9125,5.0,2895,249,meters,jsons/v1_VE250_randls_75_rotated.json,654467,747960,34,Man
116,349604,DepthScenes,duration_manipulation_targetAtFixation,jsons/v1_VE250_randls_75_rotated.json,http://54.235.29.9/FacialAge/BNav_EC2/DepthDuration/v2_depth_duration_MTurk/v2_DepthDuration_HTML.html#378,378,1366,625,1366,768,8-29-2022,11-56-4,117,depth_duration_stimuli/001417_2014-06-19_16-25-36_260595134347_rgbf000115-resize_5/001417_2014-06-19_16-25-36_260595134347_rgbf000115-resize_5-target.png,250,4.6255,5.0,2589,247,meters,jsons/v1_VE250_randls_75_rotated.json,654467,747960,34,Man
117,349604,DepthScenes,duration_manipulation_targetAtFixation,jsons/v1_VE250_randls_75_rotated.json,http://54.235.29.9/FacialAge/BNav_EC2/DepthDuration/v2_depth_duration_MTurk/v2_DepthDuration_HTML.html#378,378,1366,625,1366,768,8-29-2022,11-56-4,118,depth_duration_stimuli/000556_2014-06-09_22-42-56_260595134347_rgbf000214-resize_1/000556_2014-06-09_22-42-56_260595134347_rgbf000214-resize_1-target.png,250,4.8415,6.0,2580,247,meters,jsons/v1_VE250_randls_75_rotated.json,654467,747960,34,Man
118,349604,DepthScenes,duration_manipulation_targetAtFixation,jsons/v1_VE250_randls_75_rotated.json,http://54.235.29.9/FacialAge/BNav_EC2/DepthDuration/v2_depth_duration_MTurk/v2_DepthDuration_HTML.html#378,378,1366,625,1366,768,8-29-2022,11-56-4,119,depth_duration_stimuli/001158_2014-06-17_15-32-16_260595134347_rgbf000138-resize_2/001158_2014-06-17_15-32-16_260595134347_rgbf000138-resize_2-target.png,250,4.5315,5.0,2664,250,meters,jsons/v1_VE250_randls_75_rotated.json,654467,747960,34,Man
119,349604,DepthScenes,duration_manipulation_targetAtFixation,jsons/v1_VE250_randls_75_rotated.json,http://54.235.29.9/FacialAge/BNav_EC2/DepthDuration/v2_depth_duration_MTurk/v2_DepthDuration_HTML.html#378,378,1366,625,1366,768,8-29-2022,11-56-4,120,depth_duration_stimuli/000787_2014-06-08_22-33-53_260595134347_rgbf000175-resize_1/000787_2014-06-08_22-33-53_260595134347_rgbf000175-resize-original.jpg,250,4.784,0.0,2655,249,meters,jsons/v1_VE250_randls_75_rotated.json,654467,747960,34,Man
120,349604,DepthScenes,duration_manipulation_targetAtFixation,jsons/v1_VE250_randls_75_rotated.json,http://54.235.29.9/FacialAge/BNav_EC2/DepthDuration/v2_depth_duration_MTurk/v2_DepthDuration_HTML.html#378,378,1366,625,1366,768,8-29-2022,11-56-4,121,depth_duration_stimuli/001214_2014-06-17_16-13-55_260595134347_rgbf000111-resize_0/001214_2014-06-17_16-13-55_260595134347_rgbf000111-resize_0-target.png,250,2.6505,5.0,2948,249,meters,jsons/v1_VE250_randls_75_rotated.json,654467,747960,34,Man
121,349604,DepthScenes,duration_manipulation_targetAtFixation,jsons/v1_VE250_randls_75_rotated.json,http://54.235.29.9/FacialAge/BNav_EC2/DepthDuration/v2_depth_duration_MTurk/v2_DepthDuration_HTML.html#378,378,1366,625,1366,768,8-29-2022,11-56-4,122,depth_duration_stimuli/000810_2014-06-08_17-20-01_260595134347_rgbf000105-resize_0/000810_2014-06-08_17-20-01_260595134347_rgbf000105-resize_0-target.png,250,1.4865,5.0,2600,251,meters,jsons/v1_VE250_randls_75_rotated.json,654467,747960,34,Man
122,349604,DepthScenes,duration_manipulation_targetAtFixation,jsons/v1_VE250_randls_75_rotated.json,http://54.235.29.9/FacialAge/BNav_EC2/DepthDuration/v2_depth_duration_MTurk/v2_DepthDuration_HTML.html#378,378,1366,625,1366,768,8-29-2022,11-56-4,123,depth_duration_stimuli/000635_2014-06-08_16-38-42_260595134347_rgbf000106-resize_1/000635_2014-06-08_16-38-42_260595134347_rgbf000106-resize_1-target.png,250,2.074,5.0,3568,252,meters,jsons/v1_VE250_randls_75_rotated.json,654467,747960,34,Man
123,349604,DepthScenes,duration_manipulation_targetAtFixation,jsons/v1_VE250_randls_75_rotated.json,http://54.235.29.9/FacialAge/BNav_EC2/DepthDuration/v2_depth_duration_MTurk/v2_DepthDuration_HTML.html#378,378,1366,625,1366,768,8-29-2022,11-56-4,124,depth_duration_stimuli/002279_2014-06-28_18-55-32_260595134347_rgbf000040-resize_5/002279_2014-06-28_18-55-32_260595134347_rgbf000040-resize_5-target.png,250,1.5043333333333,4.0,4174,250,meters,jsons/v1_VE250_randls_75_rotated.json,654467,747960,34,Man
124,349604,DepthScenes,duration_manipulation_targetAtFixation,jsons/v1_VE250_randls_75_rotated.json,http://54.235.29.9/FacialAge/BNav_EC2/DepthDuration/v2_depth_duration_MTurk/v2_DepthDuration_HTML.html#378,378,1366,625,1366,768,8-29-2022,11-56-4,125,depth_duration_stimuli/000109_2014-05-14_23-41-52_260595134347_rgbf000035-resize_9/000109_2014-05-14_23-41-52_260595134347_rgbf000035-resize_9-target.png,250,1.3545,5.0,3046,251,meters,jsons/v1_VE250_randls_75_rotated.json,654467,747960,34,Man
125,349604,DepthScenes,duration_manipulation_targetAtFixation,jsons/v1_VE250_randls_75_rotated.json,http://54.235.29.9/FacialAge/BNav_EC2/DepthDuration/v2_depth_duration_MTurk/v2_DepthDuration_HTML.html#378,378,1366,625,1366,768,8-29-2022,11-56-4,126,depth_duration_stimuli/000470_2014-06-09_19-42-40_260595134347_rgbf000094-resize_1/000470_2014-06-09_19-42-40_260595134347_rgbf000094-resize_1-target.png,250,1.831,5.0,2799,262,meters,jsons/v1_VE250_randls_75_rotated.json,654467,747960,34,Man
126,349604,DepthScenes,duration_manipulation_targetAtFixation,jsons/v1_VE250_randls_75_rotated.json,http://54.235.29.9/FacialAge/BNav_EC2/DepthDuration/v2_depth_duration_MTurk/v2_DepthDuration_HTML.html#378,378,1366,625,1366,768,8-29-2022,11-56-4,127,depth_duration_stimuli/001136_2014-06-17_15-19-41_260595134347_rgbf000076-resize_3/001136_2014-06-17_15-19-41_260595134347_rgbf000076-resize_3-target.png,250,1.8655,5.0,3917,248,meters,jsons/v1_VE250_randls_75_rotated.json,654467,747960,34,Man
127,349604,DepthScenes,duration_manipulation_targetAtFixation,jsons/v1_VE250_randls_75_rotated.json,http://54.235.29.9/FacialAge/BNav_EC2/DepthDuration/v2_depth_duration_MTurk/v2_DepthDuration_HTML.html#378,378,1366,625,1366,768,8-29-2022,11-56-4,128,depth_duration_stimuli/001164_2014-06-17_15-35-46_260595134347_rgbf000085-resize_3/001164_2014-06-17_15-35-46_260595134347_rgbf000085-resize_3-target.png,250,2.354,5.0,2668,237,meters,jsons/v1_VE250_randls_75_rotated.json,654467,747960,34,Man
128,349604,DepthScenes,duration_manipulation_targetAtFixation,jsons/v1_VE250_randls_75_rotated.json,http://54.235.29.9/FacialAge/BNav_EC2/DepthDuration/v2_depth_duration_MTurk/v2_DepthDuration_HTML.html#378,378,1366,625,1366,768,8-29-2022,11-56-4,129,depth_duration_stimuli/003423_2014-05-21_10-23-26_094959634447_rgbf002665-resize_2/003423_2014-05-21_10-23-26_094959634447_rgbf002665-resize_2-target.png,250,3.2575,5.0,3208,255,meters,jsons/v1_VE250_randls_75_rotated.json,654467,747960,34,Man
129,349604,DepthScenes,duration_manipulation_targetAtFixation,jsons/v1_VE250_randls_75_rotated.json,http://54.235.29.9/FacialAge/BNav_EC2/DepthDuration/v2_depth_duration_MTurk/v2_DepthDuration_HTML.html#378,378,1366,625,1366,768,8-29-2022,11-56-4,130,depth_duration_stimuli/002905_2014-06-03_18-04-43_094959634447_rgbf000151-resize_2/002905_2014-06-03_18-04-43_094959634447_rgbf000151-resize_2-target.png,250,2.0295,5.0,2680,252,meters,jsons/v1_VE250_randls_75_rotated.json,654467,747960,34,Man
130,349604,DepthScenes,duration_manipulation_targetAtFixation,jsons/v1_VE250_randls_75_rotated.json,http://54.235.29.9/FacialAge/BNav_EC2/DepthDuration/v2_depth_duration_MTurk/v2_DepthDuration_HTML.html#378,378,1366,625,1366,768,8-29-2022,11-56-4,131,depth_duration_stimuli/000137_2014-05-20_17-04-49_260595134347_rgbf000120-resize_1/000137_2014-05-20_17-04-49_260595134347_rgbf000120-resize_1-target.png,250,3.786,5.0,3243,251,meters,jsons/v1_VE250_randls_75_rotated.json,654467,747960,34,Man
131,349604,DepthScenes,duration_manipulation_targetAtFixation,jsons/v1_VE250_randls_75_rotated.json,http://54.235.29.9/FacialAge/BNav_EC2/DepthDuration/v2_depth_duration_MTurk/v2_DepthDuration_HTML.html#378,378,1366,625,1366,768,8-29-2022,11-56-4,132,depth_duration_stimuli/000736_2014-06-08_18-24-15_260595134347_rgbf000206-resize_3/000736_2014-06-08_18-24-15_260595134347_rgbf000206-resize_3-target.png,250,3.515,5.0,2488,248,meters,jsons/v1_VE250_randls_75_rotated.json,654467,747960,34,Man
132,349604,DepthScenes,duration_manipulation_targetAtFixation,jsons/v1_VE250_randls_75_rotated.json,http://54.235.29.9/FacialAge/BNav_EC2/DepthDuration/v2_depth_duration_MTurk/v2_DepthDuration_HTML.html#378,378,1366,625,1366,768,8-29-2022,11-56-4,133,depth_duration_stimuli/000866_2014-06-09_20-45-42_260595134347_rgbf000139-resize_1/000866_2014-06-09_20-45-42_260595134347_rgbf000139-resize_1-target.png,250,3.2155,4.0,3017,250,meters,jsons/v1_VE250_randls_75_rotated.json,654467,747960,34,Man
133,349604,DepthScenes,duration_manipulation_targetAtFixation,jsons/v1_VE250_randls_75_rotated.json,http://54.235.29.9/FacialAge/BNav_EC2/DepthDuration/v2_depth_duration_MTurk/v2_DepthDuration_HTML.html#378,378,1366,625,1366,768,8-29-2022,11-56-4,134,depth_duration_stimuli/002989_2014-06-15_12-25-03_094959634447_rgbf000150-resize_3/002989_2014-06-15_12-25-03_094959634447_rgbf000150-resize_3-target.png,250,4.1975,5.0,2945,252,meters,jsons/v1_VE250_randls_75_rotated.json,654467,747960,34,Man
134,349604,DepthScenes,duration_manipulation_targetAtFixation,jsons/v1_VE250_randls_75_rotated.json,http://54.235.29.9/FacialAge/BNav_EC2/DepthDuration/v2_depth_duration_MTurk/v2_DepthDuration_HTML.html#378,378,1366,625,1366,768,8-29-2022,11-56-4,135,depth_duration_stimuli/000375_2014-06-08_11-17-29_260595134347_rgbf000133-resize_2/000375_2014-06-08_11-17-29_260595134347_rgbf000133-resize-original.jpg,250,4.718,0.0,3984,250,meters,jsons/v1_VE250_randls_75_rotated.json,654467,747960,34,Man
135,349604,DepthScenes,duration_manipulation_targetAtFixation,jsons/v1_VE250_randls_75_rotated.json,http://54.235.29.9/FacialAge/BNav_EC2/DepthDuration/v2_depth_duration_MTurk/v2_DepthDuration_HTML.html#378,378,1366,625,1366,768,8-29-2022,11-56-4,136,depth_duration_stimuli/000483_2014-06-09_20-41-45_260595134347_rgbf000116-resize_4/000483_2014-06-09_20-41-45_260595134347_rgbf000116-resize_4-target.png,250,1.337,5.0,3491,249,meters,jsons/v1_VE250_randls_75_rotated.json,654467,747960,34,Man
136,349604,DepthScenes,duration_manipulation_targetAtFixation,jsons/v1_VE250_randls_75_rotated.json,http://54.235.29.9/FacialAge/BNav_EC2/DepthDuration/v2_depth_duration_MTurk/v2_DepthDuration_HTML.html#378,378,1366,625,1366,768,8-29-2022,11-56-4,137,depth_duration_stimuli/000469_2014-06-09_19-42-10_260595134347_rgbf000081-resize_1/000469_2014-06-09_19-42-10_260595134347_rgbf000081-resize_1-target.png,250,1.652,4.0,2783,237,meters,jsons/v1_VE250_randls_75_rotated.json,654467,747960,34,Man
137,349604,DepthScenes,duration_manipulation_targetAtFixation,jsons/v1_VE250_randls_75_rotated.json,http://54.235.29.9/FacialAge/BNav_EC2/DepthDuration/v2_depth_duration_MTurk/v2_DepthDuration_HTML.html#378,378,1366,625,1366,768,8-29-2022,11-56-4,138,depth_duration_stimuli/002758_2014-06-22_19-11-20_094959634447_rgbf000128-resize_1/002758_2014-06-22_19-11-20_094959634447_rgbf000128-resize_1-target.png,250,2.555,4.0,3339,249,meters,jsons/v1_VE250_randls_75_rotated.json,654467,747960,34,Man
138,349604,DepthScenes,duration_manipulation_targetAtFixation,jsons/v1_VE250_randls_75_rotated.json,http://54.235.29.9/FacialAge/BNav_EC2/DepthDuration/v2_depth_duration_MTurk/v2_DepthDuration_HTML.html#378,378,1366,625,1366,768,8-29-2022,11-56-4,139,depth_duration_stimuli/002630_2014-06-24_14-47-50_094959634447_rgbf000055-resize_1/002630_2014-06-24_14-47-50_094959634447_rgbf000055-resize_1-target.png,250,3.0095,5.0,2480,249,meters,jsons/v1_VE250_randls_75_rotated.json,654467,747960,34,Man
139,349604,DepthScenes,duration_manipulation_targetAtFixation,jsons/v1_VE250_randls_75_rotated.json,http://54.235.29.9/FacialAge/BNav_EC2/DepthDuration/v2_depth_duration_MTurk/v2_DepthDuration_HTML.html#378,378,1366,625,1366,768,8-29-2022,11-56-4,140,depth_duration_stimuli/001571_2014-06-20_17-21-32_260595134347_rgbf000089-resize_1/001571_2014-06-20_17-21-32_260595134347_rgbf000089-resize_1-target.png,250,1.86,5.0,2610,243,meters,jsons/v1_VE250_randls_75_rotated.json,654467,747960,34,Man
140,349604,DepthScenes,duration_manipulation_targetAtFixation,jsons/v1_VE250_randls_75_rotated.json,http://54.235.29.9/FacialAge/BNav_EC2/DepthDuration/v2_depth_duration_MTurk/v2_DepthDuration_HTML.html#378,378,1366,625,1366,768,8-29-2022,11-56-4,141,depth_duration_stimuli/002272_2014-06-28_18-53-56_260595134347_rgbf000067-resize_2/002272_2014-06-28_18-53-56_260595134347_rgbf000067-resize_2-target.png,250,1.138,4.0,2514,249,meters,jsons/v1_VE250_randls_75_rotated.json,654467,747960,34,Man
141,349604,DepthScenes,duration_manipulation_targetAtFixation,jsons/v1_VE250_randls_75_rotated.json,http://54.235.29.9/FacialAge/BNav_EC2/DepthDuration/v2_depth_duration_MTurk/v2_DepthDuration_HTML.html#378,378,1366,625,1366,768,8-29-2022,11-56-4,142,depth_duration_stimuli/000927_2014-06-09_16-32-30_260595134347_rgbf000123-resize_3/000927_2014-06-09_16-32-30_260595134347_rgbf000123-resize_3-target.png,250,2.6785,6.0,2418,249,meters,jsons/v1_VE250_randls_75_rotated.json,654467,747960,34,Man
142,349604,DepthScenes,duration_manipulation_targetAtFixation,jsons/v1_VE250_randls_75_rotated.json,http://54.235.29.9/FacialAge/BNav_EC2/DepthDuration/v2_depth_duration_MTurk/v2_DepthDuration_HTML.html#378,378,1366,625,1366,768,8-29-2022,11-56-4,143,depth_duration_stimuli/001110_2014-06-15_17-25-28_260595134347_rgbf000150-resize_1/001110_2014-06-15_17-25-28_260595134347_rgbf000150-resize_1-target.png,250,1.7115,5.0,2470,237,meters,jsons/v1_VE250_randls_75_rotated.json,654467,747960,34,Man
143,349604,DepthScenes,duration_manipulation_targetAtFixation,jsons/v1_VE250_randls_75_rotated.json,http://54.235.29.9/FacialAge/BNav_EC2/DepthDuration/v2_depth_duration_MTurk/v2_DepthDuration_HTML.html#378,378,1366,625,1366,768,8-29-2022,11-56-4,144,depth_duration_stimuli/001052_2014-06-08_18-24-54_260595134347_rgbf000130-resize_1/001052_2014-06-08_18-24-54_260595134347_rgbf000130-resize_1-target.png,250,4.1045,6.0,3138,251,meters,jsons/v1_VE250_randls_75_rotated.json,654467,747960,34,Man
144,349604,DepthScenes,duration_manipulation_targetAtFixation,jsons/v1_VE250_randls_75_rotated.json,http://54.235.29.9/FacialAge/BNav_EC2/DepthDuration/v2_depth_duration_MTurk/v2_DepthDuration_HTML.html#378,378,1366,625,1366,768,8-29-2022,11-56-4,145,depth_duration_stimuli/002988_2014-06-15_12-24-20_094959634447_rgbf000150-resize_1/002988_2014-06-15_12-24-20_094959634447_rgbf000150-resize_1-target.png,250,4.7669999999999995,7.0,2770,248,meters,jsons/v1_VE250_randls_75_rotated.json,654467,747960,34,Man
145,349604,DepthScenes,duration_manipulation_targetAtFixation,jsons/v1_VE250_randls_75_rotated.json,http://54.235.29.9/FacialAge/BNav_EC2/DepthDuration/v2_depth_duration_MTurk/v2_DepthDuration_HTML.html#378,378,1366,625,1366,768,8-29-2022,11-56-4,146,depth_duration_stimuli/000677_2014-06-08_23-10-32_260595134347_rgbf000158-resize_6/000677_2014-06-08_23-10-32_260595134347_rgbf000158-resize_6-target.png,250,3.556,5.0,2937,255,meters,jsons/v1_VE250_randls_75_rotated.json,654467,747960,34,Man
146,349604,DepthScenes,duration_manipulation_targetAtFixation,jsons/v1_VE250_randls_75_rotated.json,http://54.235.29.9/FacialAge/BNav_EC2/DepthDuration/v2_depth_duration_MTurk/v2_DepthDuration_HTML.html#378,378,1366,625,1366,768,8-29-2022,11-56-4,147,depth_duration_stimuli/001029_2014-06-08_13-17-57_260595134347_rgbf000065-resize_1/001029_2014-06-08_13-17-57_260595134347_rgbf000065-resize_1-target.png,250,3.0835,5.0,2650,249,meters,jsons/v1_VE250_randls_75_rotated.json,654467,747960,34,Man
147,349604,DepthScenes,duration_manipulation_targetAtFixation,jsons/v1_VE250_randls_75_rotated.json,http://54.235.29.9/FacialAge/BNav_EC2/DepthDuration/v2_depth_duration_MTurk/v2_DepthDuration_HTML.html#378,378,1366,625,1366,768,8-29-2022,11-56-4,148,depth_duration_stimuli/002568_2014-06-24_13-59-21_094959634447_rgbf000062-resize_4/002568_2014-06-24_13-59-21_094959634447_rgbf000062-resize_4-target.png,250,3.015,5.0,5281,254,meters,jsons/v1_VE250_randls_75_rotated.json,654467,747960,34,Man
148,349604,DepthScenes,duration_manipulation_targetAtFixation,jsons/v1_VE250_randls_75_rotated.json,http://54.235.29.9/FacialAge/BNav_EC2/DepthDuration/v2_depth_duration_MTurk/v2_DepthDuration_HTML.html#378,378,1366,625,1366,768,8-29-2022,11-56-4,149,depth_duration_stimuli/003492_2014-05-21_15-50-55_094959634447_rgbf000828-resize_1/003492_2014-05-21_15-50-55_094959634447_rgbf000828-resize_1-target.png,250,4.06875,5.0,3992,250,meters,jsons/v1_VE250_randls_75_rotated.json,654467,747960,34,Man
149,349604,DepthScenes,duration_manipulation_targetAtFixation,jsons/v1_VE250_randls_75_rotated.json,http://54.235.29.9/FacialAge/BNav_EC2/DepthDuration/v2_depth_duration_MTurk/v2_DepthDuration_HTML.html#378,378,1366,625,1366,768,8-29-2022,11-56-4,150,depth_duration_stimuli/002136_2014-06-25_21-18-03_260595134347_rgbf000109-resize_3/002136_2014-06-25_21-18-03_260595134347_rgbf000109-resize_3-target.png,250,1.9569999999999999,4.0,2730,242,meters,jsons/v1_VE250_randls_75_rotated.json,654467,747960,34,Man
150,349604,DepthScenes,duration_manipulation_targetAtFixation,jsons/v1_VE250_randls_75_rotated.json,http://54.235.29.9/FacialAge/BNav_EC2/DepthDuration/v2_depth_duration_MTurk/v2_DepthDuration_HTML.html#378,378,1366,625,1366,768,8-29-2022,11-56-4,151,depth_duration_stimuli/002964_2014-06-08_17-46-11_094959634447_rgbf000091-resize_4/002964_2014-06-08_17-46-11_094959634447_rgbf000091-resize_4-target.png,250,1.6909999999999998,5.0,4056,251,meters,jsons/v1_VE250_randls_75_rotated.json,654467,747960,34,Man
151,349604,DepthScenes,duration_manipulation_targetAtFixation,jsons/v1_VE250_randls_75_rotated.json,http://54.235.29.9/FacialAge/BNav_EC2/DepthDuration/v2_depth_duration_MTurk/v2_DepthDuration_HTML.html#378,378,1366,625,1366,768,8-29-2022,11-56-4,152,depth_duration_stimuli/000569_2014-06-09_22-51-47_260595134347_rgbf000141-resize_3/000569_2014-06-09_22-51-47_260595134347_rgbf000141-resize-original.jpg,250,4.512,0.0,2424,250,meters,jsons/v1_VE250_randls_75_rotated.json,654467,747960,34,Man
152,349604,DepthScenes,duration_manipulation_targetAtFixation,jsons/v1_VE250_randls_75_rotated.json,http://54.235.29.9/FacialAge/BNav_EC2/DepthDuration/v2_depth_duration_MTurk/v2_DepthDuration_HTML.html#378,378,1366,625,1366,768,8-29-2022,11-56-4,153,depth_duration_stimuli/000409_2014-06-04_19-23-33_260595134347_rgbf000067-resize_0/000409_2014-06-04_19-23-33_260595134347_rgbf000067-resize_0-target.png,250,3.7335,5.0,2663,248,meters,jsons/v1_VE250_randls_75_rotated.json,654467,747960,34,Man
153,349604,DepthScenes,duration_manipulation_targetAtFixation,jsons/v1_VE250_randls_75_rotated.json,http://54.235.29.9/FacialAge/BNav_EC2/DepthDuration/v2_depth_duration_MTurk/v2_DepthDuration_HTML.html#378,378,1366,625,1366,768,8-29-2022,11-56-4,154,depth_duration_stimuli/002663_2014-06-13_15-50-26_094959634447_rgbf000075-resize_1/002663_2014-06-13_15-50-26_094959634447_rgbf000075-resize_1-target.png,250,4.7495,4.0,2320,251,meters,jsons/v1_VE250_randls_75_rotated.json,654467,747960,34,Man
154,349604,DepthScenes,duration_manipulation_targetAtFixation,jsons/v1_VE250_randls_75_rotated.json,http://54.235.29.9/FacialAge/BNav_EC2/DepthDuration/v2_depth_duration_MTurk/v2_DepthDuration_HTML.html#378,378,1366,625,1366,768,8-29-2022,11-56-4,155,depth_duration_stimuli/003083_2014-06-15_15-21-03_094959634447_rgbf000063-resize_1/003083_2014-06-15_15-21-03_094959634447_rgbf000063-resize_1-target.png,250,4.1405,0.0,3931,243,meters,jsons/v1_VE250_randls_75_rotated.json,654467,747960,34,Man
155,349604,DepthScenes,duration_manipulation_targetAtFixation,jsons/v1_VE250_randls_75_rotated.json,http://54.235.29.9/FacialAge/BNav_EC2/DepthDuration/v2_depth_duration_MTurk/v2_DepthDuration_HTML.html#378,378,1366,625,1366,768,8-29-2022,11-56-4,156,depth_duration_stimuli/000486_2014-06-09_20-47-20_260595134347_rgbf000143-resize_2/000486_2014-06-09_20-47-20_260595134347_rgbf000143-resize_2-target.png,250,4.8325,5.0,5008,252,meters,jsons/v1_VE250_randls_75_rotated.json,654467,747960,34,Man
156,349604,DepthScenes,duration_manipulation_targetAtFixation,jsons/v1_VE250_randls_75_rotated.json,http://54.235.29.9/FacialAge/BNav_EC2/DepthDuration/v2_depth_duration_MTurk/v2_DepthDuration_HTML.html#378,378,1366,625,1366,768,8-29-2022,11-56-4,157,depth_duration_stimuli/002678_2014-06-13_16-15-32_094959634447_rgbf000151-resize_6/002678_2014-06-13_16-15-32_094959634447_rgbf000151-resize_6-target.png,250,2.1830000000000003,5.0,3058,260,meters,jsons/v1_VE250_randls_75_rotated.json,654467,747960,34,Man
157,349604,DepthScenes,duration_manipulation_targetAtFixation,jsons/v1_VE250_randls_75_rotated.json,http://54.235.29.9/FacialAge/BNav_EC2/DepthDuration/v2_depth_duration_MTurk/v2_DepthDuration_HTML.html#378,378,1366,625,1366,768,8-29-2022,11-56-4,158,depth_duration_stimuli/000368_2014-06-09_15-53-01_260595134347_rgbf000155-resize_2/000368_2014-06-09_15-53-01_260595134347_rgbf000155-resize_2-target.png,250,2.4859999999999998,4.0,2406,250,meters,jsons/v1_VE250_randls_75_rotated.json,654467,747960,34,Man
158,349604,DepthScenes,duration_manipulation_targetAtFixation,jsons/v1_VE250_randls_75_rotated.json,http://54.235.29.9/FacialAge/BNav_EC2/DepthDuration/v2_depth_duration_MTurk/v2_DepthDuration_HTML.html#378,378,1366,625,1366,768,8-29-2022,11-56-4,159,depth_duration_stimuli/001100_2014-06-15_17-46-26_260595134347_rgbf000225-resize_2/001100_2014-06-15_17-46-26_260595134347_rgbf000225-resize_2-target.png,250,2.24,5.0,4403,261,meters,jsons/v1_VE250_randls_75_rotated.json,654467,747960,34,Man
159,349604,DepthScenes,duration_manipulation_targetAtFixation,jsons/v1_VE250_randls_75_rotated.json,http://54.235.29.9/FacialAge/BNav_EC2/DepthDuration/v2_depth_duration_MTurk/v2_DepthDuration_HTML.html#378,378,1366,625,1366,768,8-29-2022,11-56-4,160,depth_duration_stimuli/002784_2014-06-22_19-26-30_094959634447_rgbf000083-resize_3/002784_2014-06-22_19-26-30_094959634447_rgbf000083-resize_3-target.png,250,1.8046666666667,5.0,2479,242,meters,jsons/v1_VE250_randls_75_rotated.json,654467,747960,34,Man
160,349604,DepthScenes,duration_manipulation_targetAtFixation,jsons/v1_VE250_randls_75_rotated.json,http://54.235.29.9/FacialAge/BNav_EC2/DepthDuration/v2_depth_duration_MTurk/v2_DepthDuration_HTML.html#378,378,1366,625,1366,768,8-29-2022,11-56-4,161,depth_duration_stimuli/001392_2014-06-19_16-07-59_260595134347_rgbf000046-resize_1/001392_2014-06-19_16-07-59_260595134347_rgbf000046-resize_1-target.png,250,4.135,4.0,2953,249,meters,jsons/v1_VE250_randls_75_rotated.json,654467,747960,34,Man
161,349604,DepthScenes,duration_manipulation_targetAtFixation,jsons/v1_VE250_randls_75_rotated.json,http://54.235.29.9/FacialAge/BNav_EC2/DepthDuration/v2_depth_duration_MTurk/v2_DepthDuration_HTML.html#378,378,1366,625,1366,768,8-29-2022,11-56-4,162,depth_duration_stimuli/001570_2014-06-20_17-21-09_260595134347_rgbf000135-resize_4/001570_2014-06-20_17-21-09_260595134347_rgbf000135-resize_4-target.png,250,4.467,5.0,3248,240,meters,jsons/v1_VE250_randls_75_rotated.json,654467,747960,34,Man
162,349604,DepthScenes,duration_manipulation_targetAtFixation,jsons/v1_VE250_randls_75_rotated.json,http://54.235.29.9/FacialAge/BNav_EC2/DepthDuration/v2_depth_duration_MTurk/v2_DepthDuration_HTML.html#378,378,1366,625,1366,768,8-29-2022,11-56-4,163,depth_duration_stimuli/003079_2014-06-15_15-18-20_094959634447_rgbf000152-resize_8/003079_2014-06-15_15-18-20_094959634447_rgbf000152-resize_8-target.png,250,2.8775,5.0,2906,249,meters,jsons/v1_VE250_randls_75_rotated.json,654467,747960,34,Man
163,349604,DepthScenes,duration_manipulation_targetAtFixation,jsons/v1_VE250_randls_75_rotated.json,http://54.235.29.9/FacialAge/BNav_EC2/DepthDuration/v2_depth_duration_MTurk/v2_DepthDuration_HTML.html#378,378,1366,625,1366,768,8-29-2022,11-56-4,164,depth_duration_stimuli/000506_2014-06-08_23-21-00_260595134347_rgbf000070-resize_7/000506_2014-06-08_23-21-00_260595134347_rgbf000070-resize_7-target.png,250,4.0585,5.0,2609,236,meters,jsons/v1_VE250_randls_75_rotated.json,654467,747960,34,Man
