,subjID,experimentName,versionName,sequenceName,url,selected_row,windowWidth,windowHeight,screenWidth,screenHeight,startDate,startTime,trial,stimulus,duration,actual_depth,depth_estimate,trial_RT,log_sceneDuration,unitSelection,seq_filepath,experimentTime,totalTime,age,gender
0,351649,DepthScenes,duration_manipulation_targetAtFixation,jsons/v1_VE250_randls_19.json,http://54.235.29.9/FacialAge/BNav_EC2/DepthDuration/v2_depth_duration_MTurk/v2_DepthDuration_HTML.html#51,51,1920,1080,1920,1080,8-20-2022,12-12-46,1,depth_duration_stimuli/002039_2014-06-24_20-22-38_260595134347_rgbf000084-resize_1/002039_2014-06-24_20-22-38_260595134347_rgbf000084-resize_1-target.png,250,4.408,11,5739,250,feet,jsons/v1_VE250_randls_19.json,853584,1146700,43,Woman
1,351649,DepthScenes,duration_manipulation_targetAtFixation,jsons/v1_VE250_randls_19.json,http://54.235.29.9/FacialAge/BNav_EC2/DepthDuration/v2_depth_duration_MTurk/v2_DepthDuration_HTML.html#51,51,1920,1080,1920,1080,8-20-2022,12-12-46,2,depth_duration_stimuli/002103_2014-06-25_20-00-40_260595134347_rgbf000049-resize_0/002103_2014-06-25_20-00-40_260595134347_rgbf000049-resize_0-target.png,250,4.105,8,5068,246,feet,jsons/v1_VE250_randls_19.json,853584,1146700,43,Woman
2,351649,DepthScenes,duration_manipulation_targetAtFixation,jsons/v1_VE250_randls_19.json,http://54.235.29.9/FacialAge/BNav_EC2/DepthDuration/v2_depth_duration_MTurk/v2_DepthDuration_HTML.html#51,51,1920,1080,1920,1080,8-20-2022,12-12-46,3,depth_duration_stimuli/003292_2014-05-14_21-53-49_094959634447_rgbf000100-resize_2/003292_2014-05-14_21-53-49_094959634447_rgbf000100-resize_2-target.png,250,3.4815,7,4627,255,feet,jsons/v1_VE250_randls_19.json,853584,1146700,43,Woman
3,351649,DepthScenes,duration_manipulation_targetAtFixation,jsons/v1_VE250_randls_19.json,http://54.235.29.9/FacialAge/BNav_EC2/DepthDuration/v2_depth_duration_MTurk/v2_DepthDuration_HTML.html#51,51,1920,1080,1920,1080,8-20-2022,12-12-46,4,depth_duration_stimuli/002639_2014-06-24_14-51-37_094959634447_rgbf000074-resize_4/002639_2014-06-24_14-51-37_094959634447_rgbf000074-resize_4-target.png,250,4.0375,9,5628,242,feet,jsons/v1_VE250_randls_19.json,853584,1146700,43,Woman
4,351649,DepthScenes,duration_manipulation_targetAtFixation,jsons/v1_VE250_randls_19.json,http://54.235.29.9/FacialAge/BNav_EC2/DepthDuration/v2_depth_duration_MTurk/v2_DepthDuration_HTML.html#51,51,1920,1080,1920,1080,8-20-2022,12-12-46,5,depth_duration_stimuli/002153_2014-06-25_21-27-18_260595134347_rgbf000038-resize_5/002153_2014-06-25_21-27-18_260595134347_rgbf000038-resize_5-target.png,250,2.505,5,5287,263,feet,jsons/v1_VE250_randls_19.json,853584,1146700,43,Woman
5,351649,DepthScenes,duration_manipulation_targetAtFixation,jsons/v1_VE250_randls_19.json,http://54.235.29.9/FacialAge/BNav_EC2/DepthDuration/v2_depth_duration_MTurk/v2_DepthDuration_HTML.html#51,51,1920,1080,1920,1080,8-20-2022,12-12-46,6,depth_duration_stimuli/002660_2014-06-13_15-44-18_094959634447_rgbf001878-resize_2/002660_2014-06-13_15-44-18_094959634447_rgbf001878-resize_2-target.png,250,3.576,7,3671,246,feet,jsons/v1_VE250_randls_19.json,853584,1146700,43,Woman
6,351649,DepthScenes,duration_manipulation_targetAtFixation,jsons/v1_VE250_randls_19.json,http://54.235.29.9/FacialAge/BNav_EC2/DepthDuration/v2_depth_duration_MTurk/v2_DepthDuration_HTML.html#51,51,1920,1080,1920,1080,8-20-2022,12-12-46,7,depth_duration_stimuli/000493_2014-06-09_21-01-18_260595134347_rgbf000196-resize_3/000493_2014-06-09_21-01-18_260595134347_rgbf000196-resize_3-target.png,250,3.44,8,3907,250,feet,jsons/v1_VE250_randls_19.json,853584,1146700,43,Woman
7,351649,DepthScenes,duration_manipulation_targetAtFixation,jsons/v1_VE250_randls_19.json,http://54.235.29.9/FacialAge/BNav_EC2/DepthDuration/v2_depth_duration_MTurk/v2_DepthDuration_HTML.html#51,51,1920,1080,1920,1080,8-20-2022,12-12-46,8,depth_duration_stimuli/000191_2014-05-12_17-07-38_260595134347_rgbf000199-resize_0/000191_2014-05-12_17-07-38_260595134347_rgbf000199-resize_0-target.png,250,3.7995,10,6330,251,feet,jsons/v1_VE250_randls_19.json,853584,1146700,43,Woman
8,351649,DepthScenes,duration_manipulation_targetAtFixation,jsons/v1_VE250_randls_19.json,http://54.235.29.9/FacialAge/BNav_EC2/DepthDuration/v2_depth_duration_MTurk/v2_DepthDuration_HTML.html#51,51,1920,1080,1920,1080,8-20-2022,12-12-46,9,depth_duration_stimuli/000470_2014-06-09_19-42-40_260595134347_rgbf000094-resize_1/000470_2014-06-09_19-42-40_260595134347_rgbf000094-resize_1-target.png,250,1.831,6,6200,252,feet,jsons/v1_VE250_randls_19.json,853584,1146700,43,Woman
9,351649,DepthScenes,duration_manipulation_targetAtFixation,jsons/v1_VE250_randls_19.json,http://54.235.29.9/FacialAge/BNav_EC2/DepthDuration/v2_depth_duration_MTurk/v2_DepthDuration_HTML.html#51,51,1920,1080,1920,1080,8-20-2022,12-12-46,10,depth_duration_stimuli/000109_2014-05-14_23-41-52_260595134347_rgbf000035-resize_9/000109_2014-05-14_23-41-52_260595134347_rgbf000035-resize_9-target.png,250,1.3545,3,4432,251,feet,jsons/v1_VE250_randls_19.json,853584,1146700,43,Woman
10,351649,DepthScenes,duration_manipulation_targetAtFixation,jsons/v1_VE250_randls_19.json,http://54.235.29.9/FacialAge/BNav_EC2/DepthDuration/v2_depth_duration_MTurk/v2_DepthDuration_HTML.html#51,51,1920,1080,1920,1080,8-20-2022,12-12-46,11,depth_duration_stimuli/001029_2014-06-08_13-17-57_260595134347_rgbf000065-resize_1/001029_2014-06-08_13-17-57_260595134347_rgbf000065-resize_1-target.png,250,3.0835,10,5249,275,feet,jsons/v1_VE250_randls_19.json,853584,1146700,43,Woman
11,351649,DepthScenes,duration_manipulation_targetAtFixation,jsons/v1_VE250_randls_19.json,http://54.235.29.9/FacialAge/BNav_EC2/DepthDuration/v2_depth_duration_MTurk/v2_DepthDuration_HTML.html#51,51,1920,1080,1920,1080,8-20-2022,12-12-46,12,depth_duration_stimuli/000677_2014-06-08_23-10-32_260595134347_rgbf000158-resize_6/000677_2014-06-08_23-10-32_260595134347_rgbf000158-resize_6-target.png,250,3.556,8,4456,251,feet,jsons/v1_VE250_randls_19.json,853584,1146700,43,Woman
12,351649,DepthScenes,duration_manipulation_targetAtFixation,jsons/v1_VE250_randls_19.json,http://54.235.29.9/FacialAge/BNav_EC2/DepthDuration/v2_depth_duration_MTurk/v2_DepthDuration_HTML.html#51,51,1920,1080,1920,1080,8-20-2022,12-12-46,13,depth_duration_stimuli/000569_2014-06-09_22-51-47_260595134347_rgbf000141-resize_3/000569_2014-06-09_22-51-47_260595134347_rgbf000141-resize-original.jpg,250,4.512,0,4039,249,feet,jsons/v1_VE250_randls_19.json,853584,1146700,43,Woman
13,351649,DepthScenes,duration_manipulation_targetAtFixation,jsons/v1_VE250_randls_19.json,http://54.235.29.9/FacialAge/BNav_EC2/DepthDuration/v2_depth_duration_MTurk/v2_DepthDuration_HTML.html#51,51,1920,1080,1920,1080,8-20-2022,12-12-46,14,depth_duration_stimuli/002630_2014-06-24_14-47-50_094959634447_rgbf000055-resize_1/002630_2014-06-24_14-47-50_094959634447_rgbf000055-resize_1-target.png,250,3.0095,13,5167,251,feet,jsons/v1_VE250_randls_19.json,853584,1146700,43,Woman
14,351649,DepthScenes,duration_manipulation_targetAtFixation,jsons/v1_VE250_randls_19.json,http://54.235.29.9/FacialAge/BNav_EC2/DepthDuration/v2_depth_duration_MTurk/v2_DepthDuration_HTML.html#51,51,1920,1080,1920,1080,8-20-2022,12-12-46,15,depth_duration_stimuli/002758_2014-06-22_19-11-20_094959634447_rgbf000128-resize_1/002758_2014-06-22_19-11-20_094959634447_rgbf000128-resize_1-target.png,250,2.555,7,3843,263,feet,jsons/v1_VE250_randls_19.json,853584,1146700,43,Woman
15,351649,DepthScenes,duration_manipulation_targetAtFixation,jsons/v1_VE250_randls_19.json,http://54.235.29.9/FacialAge/BNav_EC2/DepthDuration/v2_depth_duration_MTurk/v2_DepthDuration_HTML.html#51,51,1920,1080,1920,1080,8-20-2022,12-12-46,16,depth_duration_stimuli/001808_2014-06-26_20-50-58_260595134347_rgbf000029-resize_1/001808_2014-06-26_20-50-58_260595134347_rgbf000029-resize_1-target.png,250,4.249,10,4681,249,feet,jsons/v1_VE250_randls_19.json,853584,1146700,43,Woman
16,351649,DepthScenes,duration_manipulation_targetAtFixation,jsons/v1_VE250_randls_19.json,http://54.235.29.9/FacialAge/BNav_EC2/DepthDuration/v2_depth_duration_MTurk/v2_DepthDuration_HTML.html#51,51,1920,1080,1920,1080,8-20-2022,12-12-46,17,depth_duration_stimuli/001815_2014-06-26_20-52-55_260595134347_rgbf000020-resize_0/001815_2014-06-26_20-52-55_260595134347_rgbf000020-resize_0-target.png,250,3.3865,11,4381,252,feet,jsons/v1_VE250_randls_19.json,853584,1146700,43,Woman
17,351649,DepthScenes,duration_manipulation_targetAtFixation,jsons/v1_VE250_randls_19.json,http://54.235.29.9/FacialAge/BNav_EC2/DepthDuration/v2_depth_duration_MTurk/v2_DepthDuration_HTML.html#51,51,1920,1080,1920,1080,8-20-2022,12-12-46,18,depth_duration_stimuli/002272_2014-06-28_18-53-56_260595134347_rgbf000067-resize_2/002272_2014-06-28_18-53-56_260595134347_rgbf000067-resize_2-target.png,250,1.138,4,4580,251,feet,jsons/v1_VE250_randls_19.json,853584,1146700,43,Woman
18,351649,DepthScenes,duration_manipulation_targetAtFixation,jsons/v1_VE250_randls_19.json,http://54.235.29.9/FacialAge/BNav_EC2/DepthDuration/v2_depth_duration_MTurk/v2_DepthDuration_HTML.html#51,51,1920,1080,1920,1080,8-20-2022,12-12-46,19,depth_duration_stimuli/001571_2014-06-20_17-21-32_260595134347_rgbf000089-resize_1/001571_2014-06-20_17-21-32_260595134347_rgbf000089-resize_1-target.png,250,1.86,5,6060,235,feet,jsons/v1_VE250_randls_19.json,853584,1146700,43,Woman
19,351649,DepthScenes,duration_manipulation_targetAtFixation,jsons/v1_VE250_randls_19.json,http://54.235.29.9/FacialAge/BNav_EC2/DepthDuration/v2_depth_duration_MTurk/v2_DepthDuration_HTML.html#51,51,1920,1080,1920,1080,8-20-2022,12-12-46,20,depth_duration_stimuli/001150_2014-06-17_15-27-34_260595134347_rgbf000108-resize_2/001150_2014-06-17_15-27-34_260595134347_rgbf000108-resize_2-target.png,250,4.0325,7,4432,250,feet,jsons/v1_VE250_randls_19.json,853584,1146700,43,Woman
20,351649,DepthScenes,duration_manipulation_targetAtFixation,jsons/v1_VE250_randls_19.json,http://54.235.29.9/FacialAge/BNav_EC2/DepthDuration/v2_depth_duration_MTurk/v2_DepthDuration_HTML.html#51,51,1920,1080,1920,1080,8-20-2022,12-12-46,21,depth_duration_stimuli/000665_2014-06-09_20-42-35_260595134347_rgbf000110-resize_1/000665_2014-06-09_20-42-35_260595134347_rgbf000110-resize_1-target.png,250,3.057,6,6431,238,feet,jsons/v1_VE250_randls_19.json,853584,1146700,43,Woman
21,351649,DepthScenes,duration_manipulation_targetAtFixation,jsons/v1_VE250_randls_19.json,http://54.235.29.9/FacialAge/BNav_EC2/DepthDuration/v2_depth_duration_MTurk/v2_DepthDuration_HTML.html#51,51,1920,1080,1920,1080,8-20-2022,12-12-46,22,depth_duration_stimuli/000906_2014-06-08_13-35-43_260595134347_rgbf000155-resize_1/000906_2014-06-08_13-35-43_260595134347_rgbf000155-resize_1-target.png,250,2.8489999999999998,8,4479,236,feet,jsons/v1_VE250_randls_19.json,853584,1146700,43,Woman
22,351649,DepthScenes,duration_manipulation_targetAtFixation,jsons/v1_VE250_randls_19.json,http://54.235.29.9/FacialAge/BNav_EC2/DepthDuration/v2_depth_duration_MTurk/v2_DepthDuration_HTML.html#51,51,1920,1080,1920,1080,8-20-2022,12-12-46,23,depth_duration_stimuli/002805_2014-06-22_19-54-03_094959634447_rgbf000079-resize_1/002805_2014-06-22_19-54-03_094959634447_rgbf000079-resize_1-target.png,250,3.1439999999999997,9,5367,246,feet,jsons/v1_VE250_randls_19.json,853584,1146700,43,Woman
23,351649,DepthScenes,duration_manipulation_targetAtFixation,jsons/v1_VE250_randls_19.json,http://54.235.29.9/FacialAge/BNav_EC2/DepthDuration/v2_depth_duration_MTurk/v2_DepthDuration_HTML.html#51,51,1920,1080,1920,1080,8-20-2022,12-12-46,24,depth_duration_stimuli/001810_2014-06-26_20-51-35_260595134347_rgbf000040-resize_3/001810_2014-06-26_20-51-35_260595134347_rgbf000040-resize_3-target.png,250,2.2525,6,4674,254,feet,jsons/v1_VE250_randls_19.json,853584,1146700,43,Woman
24,351649,DepthScenes,duration_manipulation_targetAtFixation,jsons/v1_VE250_randls_19.json,http://54.235.29.9/FacialAge/BNav_EC2/DepthDuration/v2_depth_duration_MTurk/v2_DepthDuration_HTML.html#51,51,1920,1080,1920,1080,8-20-2022,12-12-46,25,depth_duration_stimuli/003010_2014-06-15_12-54-35_094959634447_rgbf000112-resize_0/003010_2014-06-15_12-54-35_094959634447_rgbf000112-resize_0-target.png,250,3.1185,9,4274,252,feet,jsons/v1_VE250_randls_19.json,853584,1146700,43,Woman
25,351649,DepthScenes,duration_manipulation_targetAtFixation,jsons/v1_VE250_randls_19.json,http://54.235.29.9/FacialAge/BNav_EC2/DepthDuration/v2_depth_duration_MTurk/v2_DepthDuration_HTML.html#51,51,1920,1080,1920,1080,8-20-2022,12-12-46,26,depth_duration_stimuli/003534_2014-05-22_15-06-10_094959634447_rgbf000102-resize_4/003534_2014-05-22_15-06-10_094959634447_rgbf000102-resize_4-target.png,250,1.426,3,4698,251,feet,jsons/v1_VE250_randls_19.json,853584,1146700,43,Woman
26,351649,DepthScenes,duration_manipulation_targetAtFixation,jsons/v1_VE250_randls_19.json,http://54.235.29.9/FacialAge/BNav_EC2/DepthDuration/v2_depth_duration_MTurk/v2_DepthDuration_HTML.html#51,51,1920,1080,1920,1080,8-20-2022,12-12-46,27,depth_duration_stimuli/002637_2014-06-24_14-51-13_094959634447_rgbf000066-resize_4/002637_2014-06-24_14-51-13_094959634447_rgbf000066-resize_4-target.png,250,1.9955,6,5635,250,feet,jsons/v1_VE250_randls_19.json,853584,1146700,43,Woman
27,351649,DepthScenes,duration_manipulation_targetAtFixation,jsons/v1_VE250_randls_19.json,http://54.235.29.9/FacialAge/BNav_EC2/DepthDuration/v2_depth_duration_MTurk/v2_DepthDuration_HTML.html#51,51,1920,1080,1920,1080,8-20-2022,12-12-46,28,depth_duration_stimuli/002905_2014-06-03_18-04-43_094959634447_rgbf000151-resize_2/002905_2014-06-03_18-04-43_094959634447_rgbf000151-resize_2-target.png,250,2.0295,4,4492,240,feet,jsons/v1_VE250_randls_19.json,853584,1146700,43,Woman
28,351649,DepthScenes,duration_manipulation_targetAtFixation,jsons/v1_VE250_randls_19.json,http://54.235.29.9/FacialAge/BNav_EC2/DepthDuration/v2_depth_duration_MTurk/v2_DepthDuration_HTML.html#51,51,1920,1080,1920,1080,8-20-2022,12-12-46,29,depth_duration_stimuli/003423_2014-05-21_10-23-26_094959634447_rgbf002665-resize_2/003423_2014-05-21_10-23-26_094959634447_rgbf002665-resize_2-target.png,250,3.2575,9,4224,253,feet,jsons/v1_VE250_randls_19.json,853584,1146700,43,Woman
29,351649,DepthScenes,duration_manipulation_targetAtFixation,jsons/v1_VE250_randls_19.json,http://54.235.29.9/FacialAge/BNav_EC2/DepthDuration/v2_depth_duration_MTurk/v2_DepthDuration_HTML.html#51,51,1920,1080,1920,1080,8-20-2022,12-12-46,30,depth_duration_stimuli/000375_2014-06-08_11-17-29_260595134347_rgbf000133-resize_2/000375_2014-06-08_11-17-29_260595134347_rgbf000133-resize-original.jpg,250,4.718,0,5870,250,feet,jsons/v1_VE250_randls_19.json,853584,1146700,43,Woman
30,351649,DepthScenes,duration_manipulation_targetAtFixation,jsons/v1_VE250_randls_19.json,http://54.235.29.9/FacialAge/BNav_EC2/DepthDuration/v2_depth_duration_MTurk/v2_DepthDuration_HTML.html#51,51,1920,1080,1920,1080,8-20-2022,12-12-46,31,depth_duration_stimuli/001092_2014-06-15_17-34-58_260595134347_rgbf000171-resize_3/001092_2014-06-15_17-34-58_260595134347_rgbf000171-resize_3-target.png,250,2.6935,6,4254,251,feet,jsons/v1_VE250_randls_19.json,853584,1146700,43,Woman
31,351649,DepthScenes,duration_manipulation_targetAtFixation,jsons/v1_VE250_randls_19.json,http://54.235.29.9/FacialAge/BNav_EC2/DepthDuration/v2_depth_duration_MTurk/v2_DepthDuration_HTML.html#51,51,1920,1080,1920,1080,8-20-2022,12-12-46,32,depth_duration_stimuli/002545_2014-06-24_13-38-53_094959634447_rgbf000080-resize_4/002545_2014-06-24_13-38-53_094959634447_rgbf000080-resize_4-target.png,250,1.9205,5,4520,260,feet,jsons/v1_VE250_randls_19.json,853584,1146700,43,Woman
32,351649,DepthScenes,duration_manipulation_targetAtFixation,jsons/v1_VE250_randls_19.json,http://54.235.29.9/FacialAge/BNav_EC2/DepthDuration/v2_depth_duration_MTurk/v2_DepthDuration_HTML.html#51,51,1920,1080,1920,1080,8-20-2022,12-12-46,33,depth_duration_stimuli/000469_2014-06-09_19-42-10_260595134347_rgbf000081-resize_1/000469_2014-06-09_19-42-10_260595134347_rgbf000081-resize_1-target.png,250,1.652,5,5624,250,feet,jsons/v1_VE250_randls_19.json,853584,1146700,43,Woman
33,351649,DepthScenes,duration_manipulation_targetAtFixation,jsons/v1_VE250_randls_19.json,http://54.235.29.9/FacialAge/BNav_EC2/DepthDuration/v2_depth_duration_MTurk/v2_DepthDuration_HTML.html#51,51,1920,1080,1920,1080,8-20-2022,12-12-46,34,depth_duration_stimuli/000483_2014-06-09_20-41-45_260595134347_rgbf000116-resize_4/000483_2014-06-09_20-41-45_260595134347_rgbf000116-resize_4-target.png,250,1.337,4,4375,253,feet,jsons/v1_VE250_randls_19.json,853584,1146700,43,Woman
34,351649,DepthScenes,duration_manipulation_targetAtFixation,jsons/v1_VE250_randls_19.json,http://54.235.29.9/FacialAge/BNav_EC2/DepthDuration/v2_depth_duration_MTurk/v2_DepthDuration_HTML.html#51,51,1920,1080,1920,1080,8-20-2022,12-12-46,35,depth_duration_stimuli/001806_2014-06-26_20-50-20_260595134347_rgbf000091-resize_1/001806_2014-06-26_20-50-20_260595134347_rgbf000091-resize_1-target.png,250,2.7305,4,9979,250,feet,jsons/v1_VE250_randls_19.json,853584,1146700,43,Woman
35,351649,DepthScenes,duration_manipulation_targetAtFixation,jsons/v1_VE250_randls_19.json,http://54.235.29.9/FacialAge/BNav_EC2/DepthDuration/v2_depth_duration_MTurk/v2_DepthDuration_HTML.html#51,51,1920,1080,1920,1080,8-20-2022,12-12-46,36,depth_duration_stimuli/001617_2014-06-20_11-35-32_260595134347_rgbf000066-resize_1/001617_2014-06-20_11-35-32_260595134347_rgbf000066-resize_1-target.png,250,3.7910000000000004,9,5296,251,feet,jsons/v1_VE250_randls_19.json,853584,1146700,43,Woman
36,351649,DepthScenes,duration_manipulation_targetAtFixation,jsons/v1_VE250_randls_19.json,http://54.235.29.9/FacialAge/BNav_EC2/DepthDuration/v2_depth_duration_MTurk/v2_DepthDuration_HTML.html#51,51,1920,1080,1920,1080,8-20-2022,12-12-46,37,depth_duration_stimuli/000642_2014-06-08_16-59-25_260595134347_rgbf000098-resize_2/000642_2014-06-08_16-59-25_260595134347_rgbf000098-resize_2-target.png,250,2.8815,6,5248,253,feet,jsons/v1_VE250_randls_19.json,853584,1146700,43,Woman
37,351649,DepthScenes,duration_manipulation_targetAtFixation,jsons/v1_VE250_randls_19.json,http://54.235.29.9/FacialAge/BNav_EC2/DepthDuration/v2_depth_duration_MTurk/v2_DepthDuration_HTML.html#51,51,1920,1080,1920,1080,8-20-2022,12-12-46,38,depth_duration_stimuli/002425_2014-06-28_20-27-29_260595134347_rgbf000031-resize_8/002425_2014-06-28_20-27-29_260595134347_rgbf000031-resize_8-target.png,250,3.8960000000000004,8,4752,262,feet,jsons/v1_VE250_randls_19.json,853584,1146700,43,Woman
38,351649,DepthScenes,duration_manipulation_targetAtFixation,jsons/v1_VE250_randls_19.json,http://54.235.29.9/FacialAge/BNav_EC2/DepthDuration/v2_depth_duration_MTurk/v2_DepthDuration_HTML.html#51,51,1920,1080,1920,1080,8-20-2022,12-12-46,39,depth_duration_stimuli/002375_2014-06-28_20-13-44_260595134347_rgbf000032-resize_1/002375_2014-06-28_20-13-44_260595134347_rgbf000032-resize_1-target.png,250,4.0175,8,9959,242,feet,jsons/v1_VE250_randls_19.json,853584,1146700,43,Woman
39,351649,DepthScenes,duration_manipulation_targetAtFixation,jsons/v1_VE250_randls_19.json,http://54.235.29.9/FacialAge/BNav_EC2/DepthDuration/v2_depth_duration_MTurk/v2_DepthDuration_HTML.html#51,51,1920,1080,1920,1080,8-20-2022,12-12-46,40,depth_duration_stimuli/002657_2014-06-13_15-29-54_094959634447_rgbf000150-resize_1/002657_2014-06-13_15-29-54_094959634447_rgbf000150-resize_1-target.png,250,4.919,9,7042,250,feet,jsons/v1_VE250_randls_19.json,853584,1146700,43,Woman
40,351649,DepthScenes,duration_manipulation_targetAtFixation,jsons/v1_VE250_randls_19.json,http://54.235.29.9/FacialAge/BNav_EC2/DepthDuration/v2_depth_duration_MTurk/v2_DepthDuration_HTML.html#51,51,1920,1080,1920,1080,8-20-2022,12-12-46,41,depth_duration_stimuli/002725_2014-06-22_11-47-51_094959634447_rgbf000070-resize_1/002725_2014-06-22_11-47-51_094959634447_rgbf000070-resize_1-target.png,250,2.195,11,7050,259,feet,jsons/v1_VE250_randls_19.json,853584,1146700,43,Woman
41,351649,DepthScenes,duration_manipulation_targetAtFixation,jsons/v1_VE250_randls_19.json,http://54.235.29.9/FacialAge/BNav_EC2/DepthDuration/v2_depth_duration_MTurk/v2_DepthDuration_HTML.html#51,51,1920,1080,1920,1080,8-20-2022,12-12-46,42,depth_duration_stimuli/002344_2014-06-28_20-06-29_260595134347_rgbf000030-resize_1/002344_2014-06-28_20-06-29_260595134347_rgbf000030-resize_1-target.png,250,1.5795,3,6473,259,feet,jsons/v1_VE250_randls_19.json,853584,1146700,43,Woman
42,351649,DepthScenes,duration_manipulation_targetAtFixation,jsons/v1_VE250_randls_19.json,http://54.235.29.9/FacialAge/BNav_EC2/DepthDuration/v2_depth_duration_MTurk/v2_DepthDuration_HTML.html#51,51,1920,1080,1920,1080,8-20-2022,12-12-46,43,depth_duration_stimuli/000917_2014-06-09_22-45-29_260595134347_rgbf000149-resize_3/000917_2014-06-09_22-45-29_260595134347_rgbf000149-resize_3-target.png,250,4.1865,8,4428,252,feet,jsons/v1_VE250_randls_19.json,853584,1146700,43,Woman
43,351649,DepthScenes,duration_manipulation_targetAtFixation,jsons/v1_VE250_randls_19.json,http://54.235.29.9/FacialAge/BNav_EC2/DepthDuration/v2_depth_duration_MTurk/v2_DepthDuration_HTML.html#51,51,1920,1080,1920,1080,8-20-2022,12-12-46,44,depth_duration_stimuli/002323_2014-06-28_20-01-54_260595134347_rgbf000051-resize_4/002323_2014-06-28_20-01-54_260595134347_rgbf000051-resize_4-target.png,250,3.7310000000000003,11,4779,243,feet,jsons/v1_VE250_randls_19.json,853584,1146700,43,Woman
44,351649,DepthScenes,duration_manipulation_targetAtFixation,jsons/v1_VE250_randls_19.json,http://54.235.29.9/FacialAge/BNav_EC2/DepthDuration/v2_depth_duration_MTurk/v2_DepthDuration_HTML.html#51,51,1920,1080,1920,1080,8-20-2022,12-12-46,45,depth_duration_stimuli/000787_2014-06-08_22-33-53_260595134347_rgbf000175-resize_1/000787_2014-06-08_22-33-53_260595134347_rgbf000175-resize-original.jpg,250,4.784,0,4956,250,feet,jsons/v1_VE250_randls_19.json,853584,1146700,43,Woman
45,351649,DepthScenes,duration_manipulation_targetAtFixation,jsons/v1_VE250_randls_19.json,http://54.235.29.9/FacialAge/BNav_EC2/DepthDuration/v2_depth_duration_MTurk/v2_DepthDuration_HTML.html#51,51,1920,1080,1920,1080,8-20-2022,12-12-46,46,depth_duration_stimuli/002445_2014-06-28_20-32-16_260595134347_rgbf000029-resize_4/002445_2014-06-28_20-32-16_260595134347_rgbf000029-resize_4-target.png,250,2.5315,6,4374,250,feet,jsons/v1_VE250_randls_19.json,853584,1146700,43,Woman
46,351649,DepthScenes,duration_manipulation_targetAtFixation,jsons/v1_VE250_randls_19.json,http://54.235.29.9/FacialAge/BNav_EC2/DepthDuration/v2_depth_duration_MTurk/v2_DepthDuration_HTML.html#51,51,1920,1080,1920,1080,8-20-2022,12-12-46,47,depth_duration_stimuli/000780_2014-06-08_22-28-29_260595134347_rgbf000126-resize_1/000780_2014-06-08_22-28-29_260595134347_rgbf000126-resize_1-target.png,250,3.3825,9,4500,249,feet,jsons/v1_VE250_randls_19.json,853584,1146700,43,Woman
47,351649,DepthScenes,duration_manipulation_targetAtFixation,jsons/v1_VE250_randls_19.json,http://54.235.29.9/FacialAge/BNav_EC2/DepthDuration/v2_depth_duration_MTurk/v2_DepthDuration_HTML.html#51,51,1920,1080,1920,1080,8-20-2022,12-12-46,48,depth_duration_stimuli/002988_2014-06-15_12-24-20_094959634447_rgbf000150-resize_1/002988_2014-06-15_12-24-20_094959634447_rgbf000150-resize_1-target.png,250,4.7669999999999995,11,4756,244,feet,jsons/v1_VE250_randls_19.json,853584,1146700,43,Woman
48,351649,DepthScenes,duration_manipulation_targetAtFixation,jsons/v1_VE250_randls_19.json,http://54.235.29.9/FacialAge/BNav_EC2/DepthDuration/v2_depth_duration_MTurk/v2_DepthDuration_HTML.html#51,51,1920,1080,1920,1080,8-20-2022,12-12-46,49,depth_duration_stimuli/001052_2014-06-08_18-24-54_260595134347_rgbf000130-resize_1/001052_2014-06-08_18-24-54_260595134347_rgbf000130-resize_1-target.png,250,4.1045,10,4029,253,feet,jsons/v1_VE250_randls_19.json,853584,1146700,43,Woman
49,351649,DepthScenes,duration_manipulation_targetAtFixation,jsons/v1_VE250_randls_19.json,http://54.235.29.9/FacialAge/BNav_EC2/DepthDuration/v2_depth_duration_MTurk/v2_DepthDuration_HTML.html#51,51,1920,1080,1920,1080,8-20-2022,12-12-46,50,depth_duration_stimuli/001110_2014-06-15_17-25-28_260595134347_rgbf000150-resize_1/001110_2014-06-15_17-25-28_260595134347_rgbf000150-resize_1-target.png,250,1.7115,7,4561,246,feet,jsons/v1_VE250_randls_19.json,853584,1146700,43,Woman
50,351649,DepthScenes,duration_manipulation_targetAtFixation,jsons/v1_VE250_randls_19.json,http://54.235.29.9/FacialAge/BNav_EC2/DepthDuration/v2_depth_duration_MTurk/v2_DepthDuration_HTML.html#51,51,1920,1080,1920,1080,8-20-2022,12-12-46,51,depth_duration_stimuli/000927_2014-06-09_16-32-30_260595134347_rgbf000123-resize_3/000927_2014-06-09_16-32-30_260595134347_rgbf000123-resize_3-target.png,250,2.6785,8,4694,261,feet,jsons/v1_VE250_randls_19.json,853584,1146700,43,Woman
51,351649,DepthScenes,duration_manipulation_targetAtFixation,jsons/v1_VE250_randls_19.json,http://54.235.29.9/FacialAge/BNav_EC2/DepthDuration/v2_depth_duration_MTurk/v2_DepthDuration_HTML.html#51,51,1920,1080,1920,1080,8-20-2022,12-12-46,52,depth_duration_stimuli/002118_2014-06-25_20-32-08_260595134347_rgbf000078-resize_1/002118_2014-06-25_20-32-08_260595134347_rgbf000078-resize_1-target.png,250,2.6460000000000004,8,6081,253,feet,jsons/v1_VE250_randls_19.json,853584,1146700,43,Woman
52,351649,DepthScenes,duration_manipulation_targetAtFixation,jsons/v1_VE250_randls_19.json,http://54.235.29.9/FacialAge/BNav_EC2/DepthDuration/v2_depth_duration_MTurk/v2_DepthDuration_HTML.html#51,51,1920,1080,1920,1080,8-20-2022,12-12-46,53,depth_duration_stimuli/001516_2014-06-20_16-25-09_260595134347_rgbf000076-resize_2/001516_2014-06-20_16-25-09_260595134347_rgbf000076-resize_2-target.png,250,1.7445,7,3753,265,feet,jsons/v1_VE250_randls_19.json,853584,1146700,43,Woman
53,351649,DepthScenes,duration_manipulation_targetAtFixation,jsons/v1_VE250_randls_19.json,http://54.235.29.9/FacialAge/BNav_EC2/DepthDuration/v2_depth_duration_MTurk/v2_DepthDuration_HTML.html#51,51,1920,1080,1920,1080,8-20-2022,12-12-46,54,depth_duration_stimuli/000692_2014-06-08_13-09-42_260595134347_rgbf000199-resize_2/000692_2014-06-08_13-09-42_260595134347_rgbf000199-resize_2-target.png,250,3.661,12,6226,253,feet,jsons/v1_VE250_randls_19.json,853584,1146700,43,Woman
54,351649,DepthScenes,duration_manipulation_targetAtFixation,jsons/v1_VE250_randls_19.json,http://54.235.29.9/FacialAge/BNav_EC2/DepthDuration/v2_depth_duration_MTurk/v2_DepthDuration_HTML.html#51,51,1920,1080,1920,1080,8-20-2022,12-12-46,55,depth_duration_stimuli/001094_2014-06-15_17-36-00_260595134347_rgbf000205-resize_0/001094_2014-06-15_17-36-00_260595134347_rgbf000205-resize_0-target.png,250,4.2175,11,4047,251,feet,jsons/v1_VE250_randls_19.json,853584,1146700,43,Woman
55,351649,DepthScenes,duration_manipulation_targetAtFixation,jsons/v1_VE250_randls_19.json,http://54.235.29.9/FacialAge/BNav_EC2/DepthDuration/v2_depth_duration_MTurk/v2_DepthDuration_HTML.html#51,51,1920,1080,1920,1080,8-20-2022,12-12-46,56,depth_duration_stimuli/002213_2014-06-28_18-37-58_260595134347_rgbf000055-resize_1/002213_2014-06-28_18-37-58_260595134347_rgbf000055-resize_1-target.png,250,3.62,12,4653,249,feet,jsons/v1_VE250_randls_19.json,853584,1146700,43,Woman
56,351649,DepthScenes,duration_manipulation_targetAtFixation,jsons/v1_VE250_randls_19.json,http://54.235.29.9/FacialAge/BNav_EC2/DepthDuration/v2_depth_duration_MTurk/v2_DepthDuration_HTML.html#51,51,1920,1080,1920,1080,8-20-2022,12-12-46,57,depth_duration_stimuli/000691_2014-06-08_13-08-50_260595134347_rgbf000132-resize_3/000691_2014-06-08_13-08-50_260595134347_rgbf000132-resize_3-target.png,250,4.1530000000000005,10,6982,260,feet,jsons/v1_VE250_randls_19.json,853584,1146700,43,Woman
57,351649,DepthScenes,duration_manipulation_targetAtFixation,jsons/v1_VE250_randls_19.json,http://54.235.29.9/FacialAge/BNav_EC2/DepthDuration/v2_depth_duration_MTurk/v2_DepthDuration_HTML.html#51,51,1920,1080,1920,1080,8-20-2022,12-12-46,58,depth_duration_stimuli/000929_2014-06-09_16-33-19_260595134347_rgbf000139-resize_0/000929_2014-06-09_16-33-19_260595134347_rgbf000139-resize_0-target.png,250,2.8680000000000003,7,3494,256,feet,jsons/v1_VE250_randls_19.json,853584,1146700,43,Woman
58,351649,DepthScenes,duration_manipulation_targetAtFixation,jsons/v1_VE250_randls_19.json,http://54.235.29.9/FacialAge/BNav_EC2/DepthDuration/v2_depth_duration_MTurk/v2_DepthDuration_HTML.html#51,51,1920,1080,1920,1080,8-20-2022,12-12-46,59,depth_duration_stimuli/000457_2014-06-08_16-52-43_260595134347_rgbf000199-resize_1/000457_2014-06-08_16-52-43_260595134347_rgbf000199-resize_1-target.png,250,3.6489999999999996,9,3471,259,feet,jsons/v1_VE250_randls_19.json,853584,1146700,43,Woman
59,351649,DepthScenes,duration_manipulation_targetAtFixation,jsons/v1_VE250_randls_19.json,http://54.235.29.9/FacialAge/BNav_EC2/DepthDuration/v2_depth_duration_MTurk/v2_DepthDuration_HTML.html#51,51,1920,1080,1920,1080,8-20-2022,12-12-46,60,depth_duration_stimuli/002570_2014-06-24_13-59-54_094959634447_rgbf000059-resize_0/002570_2014-06-24_13-59-54_094959634447_rgbf000059-resize_0-target.png,250,4.037,7,5949,257,feet,jsons/v1_VE250_randls_19.json,853584,1146700,43,Woman
60,351649,DepthScenes,duration_manipulation_targetAtFixation,jsons/v1_VE250_randls_19.json,http://54.235.29.9/FacialAge/BNav_EC2/DepthDuration/v2_depth_duration_MTurk/v2_DepthDuration_HTML.html#51,51,1920,1080,1920,1080,8-20-2022,12-12-46,61,depth_duration_stimuli/002467_2014-06-28_20-38-07_260595134347_rgbf000026-resize_2/002467_2014-06-28_20-38-07_260595134347_rgbf000026-resize_2-target.png,250,4.742,8,4758,241,feet,jsons/v1_VE250_randls_19.json,853584,1146700,43,Woman
61,351649,DepthScenes,duration_manipulation_targetAtFixation,jsons/v1_VE250_randls_19.json,http://54.235.29.9/FacialAge/BNav_EC2/DepthDuration/v2_depth_duration_MTurk/v2_DepthDuration_HTML.html#51,51,1920,1080,1920,1080,8-20-2022,12-12-46,62,depth_duration_stimuli/001244_2014-06-17_16-47-45_260595134347_rgbf000030-resize_4/001244_2014-06-17_16-47-45_260595134347_rgbf000030-resize_4-target.png,250,2.0425,5,4693,248,feet,jsons/v1_VE250_randls_19.json,853584,1146700,43,Woman
62,351649,DepthScenes,duration_manipulation_targetAtFixation,jsons/v1_VE250_randls_19.json,http://54.235.29.9/FacialAge/BNav_EC2/DepthDuration/v2_depth_duration_MTurk/v2_DepthDuration_HTML.html#51,51,1920,1080,1920,1080,8-20-2022,12-12-46,63,depth_duration_stimuli/003495_2014-05-21_16-01-51_094959634447_rgbf000100-resize_3/003495_2014-05-21_16-01-51_094959634447_rgbf000100-resize_3-target.png,250,1.6255,4,4280,249,feet,jsons/v1_VE250_randls_19.json,853584,1146700,43,Woman
63,351649,DepthScenes,duration_manipulation_targetAtFixation,jsons/v1_VE250_randls_19.json,http://54.235.29.9/FacialAge/BNav_EC2/DepthDuration/v2_depth_duration_MTurk/v2_DepthDuration_HTML.html#51,51,1920,1080,1920,1080,8-20-2022,12-12-46,64,depth_duration_stimuli/000878_2014-06-08_22-52-45_260595134347_rgbf000045-resize_2/000878_2014-06-08_22-52-45_260595134347_rgbf000045-resize_2-target.png,250,2.092,8,5310,251,feet,jsons/v1_VE250_randls_19.json,853584,1146700,43,Woman
64,351649,DepthScenes,duration_manipulation_targetAtFixation,jsons/v1_VE250_randls_19.json,http://54.235.29.9/FacialAge/BNav_EC2/DepthDuration/v2_depth_duration_MTurk/v2_DepthDuration_HTML.html#51,51,1920,1080,1920,1080,8-20-2022,12-12-46,65,depth_duration_stimuli/002953_2014-06-08_17-32-18_094959634447_rgbf000059-resize_5/002953_2014-06-08_17-32-18_094959634447_rgbf000059-resize_5-target.png,250,1.551,4,3826,242,feet,jsons/v1_VE250_randls_19.json,853584,1146700,43,Woman
65,351649,DepthScenes,duration_manipulation_targetAtFixation,jsons/v1_VE250_randls_19.json,http://54.235.29.9/FacialAge/BNav_EC2/DepthDuration/v2_depth_duration_MTurk/v2_DepthDuration_HTML.html#51,51,1920,1080,1920,1080,8-20-2022,12-12-46,66,depth_duration_stimuli/001222_2014-06-17_16-24-06_260595134347_rgbf000073-resize_0/001222_2014-06-17_16-24-06_260595134347_rgbf000073-resize-original.jpg,250,1.4385,0,3544,251,feet,jsons/v1_VE250_randls_19.json,853584,1146700,43,Woman
66,351649,DepthScenes,duration_manipulation_targetAtFixation,jsons/v1_VE250_randls_19.json,http://54.235.29.9/FacialAge/BNav_EC2/DepthDuration/v2_depth_duration_MTurk/v2_DepthDuration_HTML.html#51,51,1920,1080,1920,1080,8-20-2022,12-12-46,67,depth_duration_stimuli/001175_2014-06-17_15-45-55_260595134347_rgbf000129-resize_4/001175_2014-06-17_15-45-55_260595134347_rgbf000129-resize_4-target.png,250,4.255,13,4101,252,feet,jsons/v1_VE250_randls_19.json,853584,1146700,43,Woman
67,351649,DepthScenes,duration_manipulation_targetAtFixation,jsons/v1_VE250_randls_19.json,http://54.235.29.9/FacialAge/BNav_EC2/DepthDuration/v2_depth_duration_MTurk/v2_DepthDuration_HTML.html#51,51,1920,1080,1920,1080,8-20-2022,12-12-46,68,depth_duration_stimuli/003490_2014-05-21_15-50-11_094959634447_rgbf000101-resize_3/003490_2014-05-21_15-50-11_094959634447_rgbf000101-resize_3-target.png,250,3.6445,10,4531,256,feet,jsons/v1_VE250_randls_19.json,853584,1146700,43,Woman
68,351649,DepthScenes,duration_manipulation_targetAtFixation,jsons/v1_VE250_randls_19.json,http://54.235.29.9/FacialAge/BNav_EC2/DepthDuration/v2_depth_duration_MTurk/v2_DepthDuration_HTML.html#51,51,1920,1080,1920,1080,8-20-2022,12-12-46,69,depth_duration_stimuli/003492_2014-05-21_15-50-55_094959634447_rgbf000828-resize_1/003492_2014-05-21_15-50-55_094959634447_rgbf000828-resize_1-target.png,250,4.06875,9,4016,247,feet,jsons/v1_VE250_randls_19.json,853584,1146700,43,Woman
69,351649,DepthScenes,duration_manipulation_targetAtFixation,jsons/v1_VE250_randls_19.json,http://54.235.29.9/FacialAge/BNav_EC2/DepthDuration/v2_depth_duration_MTurk/v2_DepthDuration_HTML.html#51,51,1920,1080,1920,1080,8-20-2022,12-12-46,70,depth_duration_stimuli/002568_2014-06-24_13-59-21_094959634447_rgbf000062-resize_4/002568_2014-06-24_13-59-21_094959634447_rgbf000062-resize_4-target.png,250,3.015,8,3262,251,feet,jsons/v1_VE250_randls_19.json,853584,1146700,43,Woman
70,351649,DepthScenes,duration_manipulation_targetAtFixation,jsons/v1_VE250_randls_19.json,http://54.235.29.9/FacialAge/BNav_EC2/DepthDuration/v2_depth_duration_MTurk/v2_DepthDuration_HTML.html#51,51,1920,1080,1920,1080,8-20-2022,12-12-46,71,depth_duration_stimuli/000486_2014-06-09_20-47-20_260595134347_rgbf000143-resize_2/000486_2014-06-09_20-47-20_260595134347_rgbf000143-resize_2-target.png,250,4.8325,9,3276,249,feet,jsons/v1_VE250_randls_19.json,853584,1146700,43,Woman
71,351649,DepthScenes,duration_manipulation_targetAtFixation,jsons/v1_VE250_randls_19.json,http://54.235.29.9/FacialAge/BNav_EC2/DepthDuration/v2_depth_duration_MTurk/v2_DepthDuration_HTML.html#51,51,1920,1080,1920,1080,8-20-2022,12-12-46,72,depth_duration_stimuli/003083_2014-06-15_15-21-03_094959634447_rgbf000063-resize_1/003083_2014-06-15_15-21-03_094959634447_rgbf000063-resize_1-target.png,250,4.1405,12,3576,241,feet,jsons/v1_VE250_randls_19.json,853584,1146700,43,Woman
72,351649,DepthScenes,duration_manipulation_targetAtFixation,jsons/v1_VE250_randls_19.json,http://54.235.29.9/FacialAge/BNav_EC2/DepthDuration/v2_depth_duration_MTurk/v2_DepthDuration_HTML.html#51,51,1920,1080,1920,1080,8-20-2022,12-12-46,73,depth_duration_stimuli/002057_2014-06-24_21-00-13_260595134347_rgbf000120-resize_1/002057_2014-06-24_21-00-13_260595134347_rgbf000120-resize_1-target.png,250,2.967,11,3364,241,feet,jsons/v1_VE250_randls_19.json,853584,1146700,43,Woman
73,351649,DepthScenes,duration_manipulation_targetAtFixation,jsons/v1_VE250_randls_19.json,http://54.235.29.9/FacialAge/BNav_EC2/DepthDuration/v2_depth_duration_MTurk/v2_DepthDuration_HTML.html#51,51,1920,1080,1920,1080,8-20-2022,12-12-46,74,depth_duration_stimuli/000709_2014-06-08_13-51-55_260595134347_rgbf000068-resize_3/000709_2014-06-08_13-51-55_260595134347_rgbf000068-resize_3-target.png,250,1.8030000000000002,8,3309,259,feet,jsons/v1_VE250_randls_19.json,853584,1146700,43,Woman
74,351649,DepthScenes,duration_manipulation_targetAtFixation,jsons/v1_VE250_randls_19.json,http://54.235.29.9/FacialAge/BNav_EC2/DepthDuration/v2_depth_duration_MTurk/v2_DepthDuration_HTML.html#51,51,1920,1080,1920,1080,8-20-2022,12-12-46,75,depth_duration_stimuli/001570_2014-06-20_17-21-09_260595134347_rgbf000135-resize_4/001570_2014-06-20_17-21-09_260595134347_rgbf000135-resize_4-target.png,250,4.467,10,3372,253,feet,jsons/v1_VE250_randls_19.json,853584,1146700,43,Woman
75,351649,DepthScenes,duration_manipulation_targetAtFixation,jsons/v1_VE250_randls_19.json,http://54.235.29.9/FacialAge/BNav_EC2/DepthDuration/v2_depth_duration_MTurk/v2_DepthDuration_HTML.html#51,51,1920,1080,1920,1080,8-20-2022,12-12-46,76,depth_duration_stimuli/001392_2014-06-19_16-07-59_260595134347_rgbf000046-resize_1/001392_2014-06-19_16-07-59_260595134347_rgbf000046-resize_1-target.png,250,4.135,11,7982,248,feet,jsons/v1_VE250_randls_19.json,853584,1146700,43,Woman
76,351649,DepthScenes,duration_manipulation_targetAtFixation,jsons/v1_VE250_randls_19.json,http://54.235.29.9/FacialAge/BNav_EC2/DepthDuration/v2_depth_duration_MTurk/v2_DepthDuration_HTML.html#51,51,1920,1080,1920,1080,8-20-2022,12-12-46,77,depth_duration_stimuli/002663_2014-06-13_15-50-26_094959634447_rgbf000075-resize_1/002663_2014-06-13_15-50-26_094959634447_rgbf000075-resize_1-target.png,250,4.7495,14,7069,253,feet,jsons/v1_VE250_randls_19.json,853584,1146700,43,Woman
77,351649,DepthScenes,duration_manipulation_targetAtFixation,jsons/v1_VE250_randls_19.json,http://54.235.29.9/FacialAge/BNav_EC2/DepthDuration/v2_depth_duration_MTurk/v2_DepthDuration_HTML.html#51,51,1920,1080,1920,1080,8-20-2022,12-12-46,78,depth_duration_stimuli/000409_2014-06-04_19-23-33_260595134347_rgbf000067-resize_0/000409_2014-06-04_19-23-33_260595134347_rgbf000067-resize_0-target.png,250,3.7335,10,3892,254,feet,jsons/v1_VE250_randls_19.json,853584,1146700,43,Woman
78,351649,DepthScenes,duration_manipulation_targetAtFixation,jsons/v1_VE250_randls_19.json,http://54.235.29.9/FacialAge/BNav_EC2/DepthDuration/v2_depth_duration_MTurk/v2_DepthDuration_HTML.html#51,51,1920,1080,1920,1080,8-20-2022,12-12-46,79,depth_duration_stimuli/003070_2014-06-15_14-58-27_094959634447_rgbf000150-resize_3/003070_2014-06-15_14-58-27_094959634447_rgbf000150-resize_3-target.png,250,2.9415,7,6319,252,feet,jsons/v1_VE250_randls_19.json,853584,1146700,43,Woman
79,351649,DepthScenes,duration_manipulation_targetAtFixation,jsons/v1_VE250_randls_19.json,http://54.235.29.9/FacialAge/BNav_EC2/DepthDuration/v2_depth_duration_MTurk/v2_DepthDuration_HTML.html#51,51,1920,1080,1920,1080,8-20-2022,12-12-46,80,depth_duration_stimuli/000943_2014-06-09_19-31-07_260595134347_rgbf000128-resize_1/000943_2014-06-09_19-31-07_260595134347_rgbf000128-resize_1-target.png,250,1.9765,6,3725,260,feet,jsons/v1_VE250_randls_19.json,853584,1146700,43,Woman
80,351649,DepthScenes,duration_manipulation_targetAtFixation,jsons/v1_VE250_randls_19.json,http://54.235.29.9/FacialAge/BNav_EC2/DepthDuration/v2_depth_duration_MTurk/v2_DepthDuration_HTML.html#51,51,1920,1080,1920,1080,8-20-2022,12-12-46,81,depth_duration_stimuli/002600_2014-06-24_14-27-04_094959634447_rgbf000074-resize_2/002600_2014-06-24_14-27-04_094959634447_rgbf000074-resize_2-target.png,250,2.7575,8,4555,251,feet,jsons/v1_VE250_randls_19.json,853584,1146700,43,Woman
81,351649,DepthScenes,duration_manipulation_targetAtFixation,jsons/v1_VE250_randls_19.json,http://54.235.29.9/FacialAge/BNav_EC2/DepthDuration/v2_depth_duration_MTurk/v2_DepthDuration_HTML.html#51,51,1920,1080,1920,1080,8-20-2022,12-12-46,82,depth_duration_stimuli/003228_2014-05-14_13-42-35_094959634447_rgbf000101-resize_1/003228_2014-05-14_13-42-35_094959634447_rgbf000101-resize_1-target.png,250,1.9680000000000002,5,3262,248,feet,jsons/v1_VE250_randls_19.json,853584,1146700,43,Woman
82,351649,DepthScenes,duration_manipulation_targetAtFixation,jsons/v1_VE250_randls_19.json,http://54.235.29.9/FacialAge/BNav_EC2/DepthDuration/v2_depth_duration_MTurk/v2_DepthDuration_HTML.html#51,51,1920,1080,1920,1080,8-20-2022,12-12-46,83,depth_duration_stimuli/000788_2014-06-08_22-34-36_260595134347_rgbf000131-resize_1/000788_2014-06-08_22-34-36_260595134347_rgbf000131-resize_1-target.png,250,3.359,8,5566,249,feet,jsons/v1_VE250_randls_19.json,853584,1146700,43,Woman
83,351649,DepthScenes,duration_manipulation_targetAtFixation,jsons/v1_VE250_randls_19.json,http://54.235.29.9/FacialAge/BNav_EC2/DepthDuration/v2_depth_duration_MTurk/v2_DepthDuration_HTML.html#51,51,1920,1080,1920,1080,8-20-2022,12-12-46,84,depth_duration_stimuli/001235_2014-06-17_16-37-36_260595134347_rgbf000084-resize_4/001235_2014-06-17_16-37-36_260595134347_rgbf000084-resize_4-target.png,250,3.6605,7,5659,251,feet,jsons/v1_VE250_randls_19.json,853584,1146700,43,Woman
84,351649,DepthScenes,duration_manipulation_targetAtFixation,jsons/v1_VE250_randls_19.json,http://54.235.29.9/FacialAge/BNav_EC2/DepthDuration/v2_depth_duration_MTurk/v2_DepthDuration_HTML.html#51,51,1920,1080,1920,1080,8-20-2022,12-12-46,85,depth_duration_stimuli/000436_2014-06-09_22-25-11_260595134347_rgbf000137-resize_1/000436_2014-06-09_22-25-11_260595134347_rgbf000137-resize_1-target.png,250,4.0705,10,3773,246,feet,jsons/v1_VE250_randls_19.json,853584,1146700,43,Woman
85,351649,DepthScenes,duration_manipulation_targetAtFixation,jsons/v1_VE250_randls_19.json,http://54.235.29.9/FacialAge/BNav_EC2/DepthDuration/v2_depth_duration_MTurk/v2_DepthDuration_HTML.html#51,51,1920,1080,1920,1080,8-20-2022,12-12-46,86,depth_duration_stimuli/002444_2014-06-28_20-32-08_260595134347_rgbf000027-resize_0/002444_2014-06-28_20-32-08_260595134347_rgbf000027-resize_0-target.png,250,4.388999999999999,11,4210,261,feet,jsons/v1_VE250_randls_19.json,853584,1146700,43,Woman
86,351649,DepthScenes,duration_manipulation_targetAtFixation,jsons/v1_VE250_randls_19.json,http://54.235.29.9/FacialAge/BNav_EC2/DepthDuration/v2_depth_duration_MTurk/v2_DepthDuration_HTML.html#51,51,1920,1080,1920,1080,8-20-2022,12-12-46,87,depth_duration_stimuli/000773_2014-06-08_22-24-54_260595134347_rgbf000093-resize_1/000773_2014-06-08_22-24-54_260595134347_rgbf000093-resize_1-target.png,250,4.973,10,3679,250,feet,jsons/v1_VE250_randls_19.json,853584,1146700,43,Woman
87,351649,DepthScenes,duration_manipulation_targetAtFixation,jsons/v1_VE250_randls_19.json,http://54.235.29.9/FacialAge/BNav_EC2/DepthDuration/v2_depth_duration_MTurk/v2_DepthDuration_HTML.html#51,51,1920,1080,1920,1080,8-20-2022,12-12-46,88,depth_duration_stimuli/002414_2014-06-28_20-24-58_260595134347_rgbf000067-resize_4/002414_2014-06-28_20-24-58_260595134347_rgbf000067-resize_4-target.png,250,4.363,9,3469,241,feet,jsons/v1_VE250_randls_19.json,853584,1146700,43,Woman
88,351649,DepthScenes,duration_manipulation_targetAtFixation,jsons/v1_VE250_randls_19.json,http://54.235.29.9/FacialAge/BNav_EC2/DepthDuration/v2_depth_duration_MTurk/v2_DepthDuration_HTML.html#51,51,1920,1080,1920,1080,8-20-2022,12-12-46,89,depth_duration_stimuli/001133_2014-06-17_14-49-16_260595134347_rgbf000100-resize_0/001133_2014-06-17_14-49-16_260595134347_rgbf000100-resize_0-target.png,250,4.2115,12,4186,250,feet,jsons/v1_VE250_randls_19.json,853584,1146700,43,Woman
89,351649,DepthScenes,duration_manipulation_targetAtFixation,jsons/v1_VE250_randls_19.json,http://54.235.29.9/FacialAge/BNav_EC2/DepthDuration/v2_depth_duration_MTurk/v2_DepthDuration_HTML.html#51,51,1920,1080,1920,1080,8-20-2022,12-12-46,90,depth_duration_stimuli/001132_2014-06-17_14-48-54_260595134347_rgbf000100-resize_2/001132_2014-06-17_14-48-54_260595134347_rgbf000100-resize_2-target.png,250,3.753,9,3724,259,feet,jsons/v1_VE250_randls_19.json,853584,1146700,43,Woman
90,351649,DepthScenes,duration_manipulation_targetAtFixation,jsons/v1_VE250_randls_19.json,http://54.235.29.9/FacialAge/BNav_EC2/DepthDuration/v2_depth_duration_MTurk/v2_DepthDuration_HTML.html#51,51,1920,1080,1920,1080,8-20-2022,12-12-46,91,depth_duration_stimuli/001011_2014-06-08_23-18-54_260595134347_rgbf000044-resize_4/001011_2014-06-08_23-18-54_260595134347_rgbf000044-resize_4-target.png,250,2.4730000000000003,8,4121,240,feet,jsons/v1_VE250_randls_19.json,853584,1146700,43,Woman
91,351649,DepthScenes,duration_manipulation_targetAtFixation,jsons/v1_VE250_randls_19.json,http://54.235.29.9/FacialAge/BNav_EC2/DepthDuration/v2_depth_duration_MTurk/v2_DepthDuration_HTML.html#51,51,1920,1080,1920,1080,8-20-2022,12-12-46,92,depth_duration_stimuli/002875_2014-06-01_15-19-00_094959634447_rgbf000151-resize_1/002875_2014-06-01_15-19-00_094959634447_rgbf000151-resize_1-target.png,250,1.9675,8,4005,254,feet,jsons/v1_VE250_randls_19.json,853584,1146700,43,Woman
92,351649,DepthScenes,duration_manipulation_targetAtFixation,jsons/v1_VE250_randls_19.json,http://54.235.29.9/FacialAge/BNav_EC2/DepthDuration/v2_depth_duration_MTurk/v2_DepthDuration_HTML.html#51,51,1920,1080,1920,1080,8-20-2022,12-12-46,93,depth_duration_stimuli/002043_2014-06-24_20-29-38_260595134347_rgbf000039-resize_4/002043_2014-06-24_20-29-38_260595134347_rgbf000039-resize_4-target.png,250,2.8435,7,7380,251,feet,jsons/v1_VE250_randls_19.json,853584,1146700,43,Woman
93,351649,DepthScenes,duration_manipulation_targetAtFixation,jsons/v1_VE250_randls_19.json,http://54.235.29.9/FacialAge/BNav_EC2/DepthDuration/v2_depth_duration_MTurk/v2_DepthDuration_HTML.html#51,51,1920,1080,1920,1080,8-20-2022,12-12-46,94,depth_duration_stimuli/003048_2014-06-15_13-49-43_094959634447_rgbf000150-resize_1/003048_2014-06-15_13-49-43_094959634447_rgbf000150-resize_1-target.png,250,4.0035,10,5309,251,feet,jsons/v1_VE250_randls_19.json,853584,1146700,43,Woman
94,351649,DepthScenes,duration_manipulation_targetAtFixation,jsons/v1_VE250_randls_19.json,http://54.235.29.9/FacialAge/BNav_EC2/DepthDuration/v2_depth_duration_MTurk/v2_DepthDuration_HTML.html#51,51,1920,1080,1920,1080,8-20-2022,12-12-46,95,depth_duration_stimuli/001555_2014-06-20_17-12-10_260595134347_rgbf000065-resize_4/001555_2014-06-20_17-12-10_260595134347_rgbf000065-resize_4-target.png,250,1.633,4,3393,253,feet,jsons/v1_VE250_randls_19.json,853584,1146700,43,Woman
95,351649,DepthScenes,duration_manipulation_targetAtFixation,jsons/v1_VE250_randls_19.json,http://54.235.29.9/FacialAge/BNav_EC2/DepthDuration/v2_depth_duration_MTurk/v2_DepthDuration_HTML.html#51,51,1920,1080,1920,1080,8-20-2022,12-12-46,96,depth_duration_stimuli/000103_2014-05-14_22-01-17_260595134347_rgbf000152-resize_5/000103_2014-05-14_22-01-17_260595134347_rgbf000152-resize_5-target.png,250,1.993,8,3844,251,feet,jsons/v1_VE250_randls_19.json,853584,1146700,43,Woman
96,351649,DepthScenes,duration_manipulation_targetAtFixation,jsons/v1_VE250_randls_19.json,http://54.235.29.9/FacialAge/BNav_EC2/DepthDuration/v2_depth_duration_MTurk/v2_DepthDuration_HTML.html#51,51,1920,1080,1920,1080,8-20-2022,12-12-46,97,depth_duration_stimuli/003621_2014-05-23_18-06-08_094959634447_rgbf000101-resize_1/003621_2014-05-23_18-06-08_094959634447_rgbf000101-resize_1-target.png,250,3.9835,11,4813,240,feet,jsons/v1_VE250_randls_19.json,853584,1146700,43,Woman
97,351649,DepthScenes,duration_manipulation_targetAtFixation,jsons/v1_VE250_randls_19.json,http://54.235.29.9/FacialAge/BNav_EC2/DepthDuration/v2_depth_duration_MTurk/v2_DepthDuration_HTML.html#51,51,1920,1080,1920,1080,8-20-2022,12-12-46,98,depth_duration_stimuli/001584_2014-06-20_11-07-43_260595134347_rgbf000002-resize_1/001584_2014-06-20_11-07-43_260595134347_rgbf000002-resize_1-target.png,250,3.53,9,5101,255,feet,jsons/v1_VE250_randls_19.json,853584,1146700,43,Woman
98,351649,DepthScenes,duration_manipulation_targetAtFixation,jsons/v1_VE250_randls_19.json,http://54.235.29.9/FacialAge/BNav_EC2/DepthDuration/v2_depth_duration_MTurk/v2_DepthDuration_HTML.html#51,51,1920,1080,1920,1080,8-20-2022,12-12-46,99,depth_duration_stimuli/001540_2014-06-20_17-01-05_260595134347_rgbf000086-resize_2/001540_2014-06-20_17-01-05_260595134347_rgbf000086-resize-original.jpg,250,1.459,0,3605,253,feet,jsons/v1_VE250_randls_19.json,853584,1146700,43,Woman
99,351649,DepthScenes,duration_manipulation_targetAtFixation,jsons/v1_VE250_randls_19.json,http://54.235.29.9/FacialAge/BNav_EC2/DepthDuration/v2_depth_duration_MTurk/v2_DepthDuration_HTML.html#51,51,1920,1080,1920,1080,8-20-2022,12-12-46,100,depth_duration_stimuli/001066_2014-06-08_22-03-20_260595134347_rgbf000066-resize_4/001066_2014-06-08_22-03-20_260595134347_rgbf000066-resize_4-target.png,250,4.2330000000000005,12,3709,252,feet,jsons/v1_VE250_randls_19.json,853584,1146700,43,Woman
100,351649,DepthScenes,duration_manipulation_targetAtFixation,jsons/v1_VE250_randls_19.json,http://54.235.29.9/FacialAge/BNav_EC2/DepthDuration/v2_depth_duration_MTurk/v2_DepthDuration_HTML.html#51,51,1920,1080,1920,1080,8-20-2022,12-12-46,101,depth_duration_stimuli/000742_2014-06-08_18-48-09_260595134347_rgbf000164-resize_4/000742_2014-06-08_18-48-09_260595134347_rgbf000164-resize_4-target.png,250,4.632,11,3698,251,feet,jsons/v1_VE250_randls_19.json,853584,1146700,43,Woman
101,351649,DepthScenes,duration_manipulation_targetAtFixation,jsons/v1_VE250_randls_19.json,http://54.235.29.9/FacialAge/BNav_EC2/DepthDuration/v2_depth_duration_MTurk/v2_DepthDuration_HTML.html#51,51,1920,1080,1920,1080,8-20-2022,12-12-46,102,depth_duration_stimuli/000414_2014-06-04_19-49-13_260595134347_rgbf000044-resize_0/000414_2014-06-04_19-49-13_260595134347_rgbf000044-resize_0-target.png,250,4.329,13,5123,250,feet,jsons/v1_VE250_randls_19.json,853584,1146700,43,Woman
102,351649,DepthScenes,duration_manipulation_targetAtFixation,jsons/v1_VE250_randls_19.json,http://54.235.29.9/FacialAge/BNav_EC2/DepthDuration/v2_depth_duration_MTurk/v2_DepthDuration_HTML.html#51,51,1920,1080,1920,1080,8-20-2022,12-12-46,103,depth_duration_stimuli/003129_2014-05-12_10-48-10_094959634447_rgbf000100-resize_0/003129_2014-05-12_10-48-10_094959634447_rgbf000100-resize_0-target.png,250,4.9305,9,4334,254,feet,jsons/v1_VE250_randls_19.json,853584,1146700,43,Woman
103,351649,DepthScenes,duration_manipulation_targetAtFixation,jsons/v1_VE250_randls_19.json,http://54.235.29.9/FacialAge/BNav_EC2/DepthDuration/v2_depth_duration_MTurk/v2_DepthDuration_HTML.html#51,51,1920,1080,1920,1080,8-20-2022,12-12-46,104,depth_duration_stimuli/001056_2014-06-08_18-46-44_260595134347_rgbf000068-resize_0/001056_2014-06-08_18-46-44_260595134347_rgbf000068-resize_0-target.png,250,2.6625,8,6177,240,feet,jsons/v1_VE250_randls_19.json,853584,1146700,43,Woman
104,351649,DepthScenes,duration_manipulation_targetAtFixation,jsons/v1_VE250_randls_19.json,http://54.235.29.9/FacialAge/BNav_EC2/DepthDuration/v2_depth_duration_MTurk/v2_DepthDuration_HTML.html#51,51,1920,1080,1920,1080,8-20-2022,12-12-46,105,depth_duration_stimuli/002199_2014-06-28_18-33-56_260595134347_rgbf000074-resize_0/002199_2014-06-28_18-33-56_260595134347_rgbf000074-resize_0-target.png,250,1.996,5,3844,250,feet,jsons/v1_VE250_randls_19.json,853584,1146700,43,Woman
105,351649,DepthScenes,duration_manipulation_targetAtFixation,jsons/v1_VE250_randls_19.json,http://54.235.29.9/FacialAge/BNav_EC2/DepthDuration/v2_depth_duration_MTurk/v2_DepthDuration_HTML.html#51,51,1920,1080,1920,1080,8-20-2022,12-12-46,106,depth_duration_stimuli/000758_2014-06-08_22-05-08_260595134347_rgbf000085-resize_0/000758_2014-06-08_22-05-08_260595134347_rgbf000085-resize_0-target.png,250,3.3810000000000002,10,3799,251,feet,jsons/v1_VE250_randls_19.json,853584,1146700,43,Woman
106,351649,DepthScenes,duration_manipulation_targetAtFixation,jsons/v1_VE250_randls_19.json,http://54.235.29.9/FacialAge/BNav_EC2/DepthDuration/v2_depth_duration_MTurk/v2_DepthDuration_HTML.html#51,51,1920,1080,1920,1080,8-20-2022,12-12-46,107,depth_duration_stimuli/000854_2014-06-09_19-43-13_260595134347_rgbf000066-resize_0/000854_2014-06-09_19-43-13_260595134347_rgbf000066-resize_0-target.png,250,3.068,4,3986,237,feet,jsons/v1_VE250_randls_19.json,853584,1146700,43,Woman
107,351649,DepthScenes,duration_manipulation_targetAtFixation,jsons/v1_VE250_randls_19.json,http://54.235.29.9/FacialAge/BNav_EC2/DepthDuration/v2_depth_duration_MTurk/v2_DepthDuration_HTML.html#51,51,1920,1080,1920,1080,8-20-2022,12-12-46,108,depth_duration_stimuli/000506_2014-06-08_23-21-00_260595134347_rgbf000070-resize_7/000506_2014-06-08_23-21-00_260595134347_rgbf000070-resize_7-target.png,250,4.0585,8,4582,252,feet,jsons/v1_VE250_randls_19.json,853584,1146700,43,Woman
108,351649,DepthScenes,duration_manipulation_targetAtFixation,jsons/v1_VE250_randls_19.json,http://54.235.29.9/FacialAge/BNav_EC2/DepthDuration/v2_depth_duration_MTurk/v2_DepthDuration_HTML.html#51,51,1920,1080,1920,1080,8-20-2022,12-12-46,109,depth_duration_stimuli/003079_2014-06-15_15-18-20_094959634447_rgbf000152-resize_8/003079_2014-06-15_15-18-20_094959634447_rgbf000152-resize_8-target.png,250,2.8775,10,4182,248,feet,jsons/v1_VE250_randls_19.json,853584,1146700,43,Woman
109,351649,DepthScenes,duration_manipulation_targetAtFixation,jsons/v1_VE250_randls_19.json,http://54.235.29.9/FacialAge/BNav_EC2/DepthDuration/v2_depth_duration_MTurk/v2_DepthDuration_HTML.html#51,51,1920,1080,1920,1080,8-20-2022,12-12-46,110,depth_duration_stimuli/000810_2014-06-08_17-20-01_260595134347_rgbf000105-resize_0/000810_2014-06-08_17-20-01_260595134347_rgbf000105-resize_0-target.png,250,1.4865,5,5883,251,feet,jsons/v1_VE250_randls_19.json,853584,1146700,43,Woman
110,351649,DepthScenes,duration_manipulation_targetAtFixation,jsons/v1_VE250_randls_19.json,http://54.235.29.9/FacialAge/BNav_EC2/DepthDuration/v2_depth_duration_MTurk/v2_DepthDuration_HTML.html#51,51,1920,1080,1920,1080,8-20-2022,12-12-46,111,depth_duration_stimuli/001214_2014-06-17_16-13-55_260595134347_rgbf000111-resize_0/001214_2014-06-17_16-13-55_260595134347_rgbf000111-resize_0-target.png,250,2.6505,7,4184,237,feet,jsons/v1_VE250_randls_19.json,853584,1146700,43,Woman
111,351649,DepthScenes,duration_manipulation_targetAtFixation,jsons/v1_VE250_randls_19.json,http://54.235.29.9/FacialAge/BNav_EC2/DepthDuration/v2_depth_duration_MTurk/v2_DepthDuration_HTML.html#51,51,1920,1080,1920,1080,8-20-2022,12-12-46,112,depth_duration_stimuli/002549_2014-06-24_13-41-39_094959634447_rgbf000022-resize_3/002549_2014-06-24_13-41-39_094959634447_rgbf000022-resize_3-target.png,250,1.476,5,3109,251,feet,jsons/v1_VE250_randls_19.json,853584,1146700,43,Woman
112,351649,DepthScenes,duration_manipulation_targetAtFixation,jsons/v1_VE250_randls_19.json,http://54.235.29.9/FacialAge/BNav_EC2/DepthDuration/v2_depth_duration_MTurk/v2_DepthDuration_HTML.html#51,51,1920,1080,1920,1080,8-20-2022,12-12-46,113,depth_duration_stimuli/002750_2014-06-22_19-08-03_094959634447_rgbf000094-resize_4/002750_2014-06-22_19-08-03_094959634447_rgbf000094-resize_4-target.png,250,2.354,7,4039,245,feet,jsons/v1_VE250_randls_19.json,853584,1146700,43,Woman
113,351649,DepthScenes,duration_manipulation_targetAtFixation,jsons/v1_VE250_randls_19.json,http://54.235.29.9/FacialAge/BNav_EC2/DepthDuration/v2_depth_duration_MTurk/v2_DepthDuration_HTML.html#51,51,1920,1080,1920,1080,8-20-2022,12-12-46,114,depth_duration_stimuli/002784_2014-06-22_19-26-30_094959634447_rgbf000083-resize_3/002784_2014-06-22_19-26-30_094959634447_rgbf000083-resize_3-target.png,250,1.8046666666667,4,5456,246,feet,jsons/v1_VE250_randls_19.json,853584,1146700,43,Woman
114,351649,DepthScenes,duration_manipulation_targetAtFixation,jsons/v1_VE250_randls_19.json,http://54.235.29.9/FacialAge/BNav_EC2/DepthDuration/v2_depth_duration_MTurk/v2_DepthDuration_HTML.html#51,51,1920,1080,1920,1080,8-20-2022,12-12-46,115,depth_duration_stimuli/001100_2014-06-15_17-46-26_260595134347_rgbf000225-resize_2/001100_2014-06-15_17-46-26_260595134347_rgbf000225-resize_2-target.png,250,2.24,5,3504,257,feet,jsons/v1_VE250_randls_19.json,853584,1146700,43,Woman
115,351649,DepthScenes,duration_manipulation_targetAtFixation,jsons/v1_VE250_randls_19.json,http://54.235.29.9/FacialAge/BNav_EC2/DepthDuration/v2_depth_duration_MTurk/v2_DepthDuration_HTML.html#51,51,1920,1080,1920,1080,8-20-2022,12-12-46,116,depth_duration_stimuli/001170_2014-06-17_15-43-44_260595134347_rgbf000096-resize_6/001170_2014-06-17_15-43-44_260595134347_rgbf000096-resize-original.jpg,250,1.1909999999999998,0,3790,279,feet,jsons/v1_VE250_randls_19.json,853584,1146700,43,Woman
116,351649,DepthScenes,duration_manipulation_targetAtFixation,jsons/v1_VE250_randls_19.json,http://54.235.29.9/FacialAge/BNav_EC2/DepthDuration/v2_depth_duration_MTurk/v2_DepthDuration_HTML.html#51,51,1920,1080,1920,1080,8-20-2022,12-12-46,117,depth_duration_stimuli/000368_2014-06-09_15-53-01_260595134347_rgbf000155-resize_2/000368_2014-06-09_15-53-01_260595134347_rgbf000155-resize_2-target.png,250,2.4859999999999998,8,4492,257,feet,jsons/v1_VE250_randls_19.json,853584,1146700,43,Woman
117,351649,DepthScenes,duration_manipulation_targetAtFixation,jsons/v1_VE250_randls_19.json,http://54.235.29.9/FacialAge/BNav_EC2/DepthDuration/v2_depth_duration_MTurk/v2_DepthDuration_HTML.html#51,51,1920,1080,1920,1080,8-20-2022,12-12-46,118,depth_duration_stimuli/002678_2014-06-13_16-15-32_094959634447_rgbf000151-resize_6/002678_2014-06-13_16-15-32_094959634447_rgbf000151-resize_6-target.png,250,2.1830000000000003,10,6583,255,feet,jsons/v1_VE250_randls_19.json,853584,1146700,43,Woman
118,351649,DepthScenes,duration_manipulation_targetAtFixation,jsons/v1_VE250_randls_19.json,http://54.235.29.9/FacialAge/BNav_EC2/DepthDuration/v2_depth_duration_MTurk/v2_DepthDuration_HTML.html#51,51,1920,1080,1920,1080,8-20-2022,12-12-46,119,depth_duration_stimuli/002989_2014-06-15_12-25-03_094959634447_rgbf000150-resize_3/002989_2014-06-15_12-25-03_094959634447_rgbf000150-resize_3-target.png,250,4.1975,11,3561,249,feet,jsons/v1_VE250_randls_19.json,853584,1146700,43,Woman
119,351649,DepthScenes,duration_manipulation_targetAtFixation,jsons/v1_VE250_randls_19.json,http://54.235.29.9/FacialAge/BNav_EC2/DepthDuration/v2_depth_duration_MTurk/v2_DepthDuration_HTML.html#51,51,1920,1080,1920,1080,8-20-2022,12-12-46,120,depth_duration_stimuli/000866_2014-06-09_20-45-42_260595134347_rgbf000139-resize_1/000866_2014-06-09_20-45-42_260595134347_rgbf000139-resize_1-target.png,250,3.2155,9,4740,250,feet,jsons/v1_VE250_randls_19.json,853584,1146700,43,Woman
120,351649,DepthScenes,duration_manipulation_targetAtFixation,jsons/v1_VE250_randls_19.json,http://54.235.29.9/FacialAge/BNav_EC2/DepthDuration/v2_depth_duration_MTurk/v2_DepthDuration_HTML.html#51,51,1920,1080,1920,1080,8-20-2022,12-12-46,121,depth_duration_stimuli/001055_2014-06-08_18-45-35_260595134347_rgbf000111-resize_4/001055_2014-06-08_18-45-35_260595134347_rgbf000111-resize_4-target.png,250,2.4290000000000003,10,3605,255,feet,jsons/v1_VE250_randls_19.json,853584,1146700,43,Woman
121,351649,DepthScenes,duration_manipulation_targetAtFixation,jsons/v1_VE250_randls_19.json,http://54.235.29.9/FacialAge/BNav_EC2/DepthDuration/v2_depth_duration_MTurk/v2_DepthDuration_HTML.html#51,51,1920,1080,1920,1080,8-20-2022,12-12-46,122,depth_duration_stimuli/000549_2014-06-08_22-10-24_260595134347_rgbf000247-resize_3/000549_2014-06-08_22-10-24_260595134347_rgbf000247-resize_3-target.png,250,1.841,4,3790,250,feet,jsons/v1_VE250_randls_19.json,853584,1146700,43,Woman
122,351649,DepthScenes,duration_manipulation_targetAtFixation,jsons/v1_VE250_randls_19.json,http://54.235.29.9/FacialAge/BNav_EC2/DepthDuration/v2_depth_duration_MTurk/v2_DepthDuration_HTML.html#51,51,1920,1080,1920,1080,8-20-2022,12-12-46,123,depth_duration_stimuli/001016_2014-06-09_16-16-10_260595134347_rgbf000112-resize_5/001016_2014-06-09_16-16-10_260595134347_rgbf000112-resize_5-target.png,250,1.6565,6,3127,256,feet,jsons/v1_VE250_randls_19.json,853584,1146700,43,Woman
123,351649,DepthScenes,duration_manipulation_targetAtFixation,jsons/v1_VE250_randls_19.json,http://54.235.29.9/FacialAge/BNav_EC2/DepthDuration/v2_depth_duration_MTurk/v2_DepthDuration_HTML.html#51,51,1920,1080,1920,1080,8-20-2022,12-12-46,124,depth_duration_stimuli/002340_2014-06-28_20-05-46_260595134347_rgbf000113-resize_0/002340_2014-06-28_20-05-46_260595134347_rgbf000113-resize_0-target.png,250,2.4735,9,3725,252,feet,jsons/v1_VE250_randls_19.json,853584,1146700,43,Woman
124,351649,DepthScenes,duration_manipulation_targetAtFixation,jsons/v1_VE250_randls_19.json,http://54.235.29.9/FacialAge/BNav_EC2/DepthDuration/v2_depth_duration_MTurk/v2_DepthDuration_HTML.html#51,51,1920,1080,1920,1080,8-20-2022,12-12-46,125,depth_duration_stimuli/000009_2014-05-26_14-32-05_260595134347_rgbf000034-resize_3/000009_2014-05-26_14-32-05_260595134347_rgbf000034-resize_3-target.png,250,3.8715,11,4184,256,feet,jsons/v1_VE250_randls_19.json,853584,1146700,43,Woman
125,351649,DepthScenes,duration_manipulation_targetAtFixation,jsons/v1_VE250_randls_19.json,http://54.235.29.9/FacialAge/BNav_EC2/DepthDuration/v2_depth_duration_MTurk/v2_DepthDuration_HTML.html#51,51,1920,1080,1920,1080,8-20-2022,12-12-46,126,depth_duration_stimuli/001828_2014-06-26_21-40-03_260595134347_rgbf000024-resize_0/001828_2014-06-26_21-40-03_260595134347_rgbf000024-resize_0-target.png,250,4.8260000000000005,12,6110,248,feet,jsons/v1_VE250_randls_19.json,853584,1146700,43,Woman
126,351649,DepthScenes,duration_manipulation_targetAtFixation,jsons/v1_VE250_randls_19.json,http://54.235.29.9/FacialAge/BNav_EC2/DepthDuration/v2_depth_duration_MTurk/v2_DepthDuration_HTML.html#51,51,1920,1080,1920,1080,8-20-2022,12-12-46,127,depth_duration_stimuli/002279_2014-06-28_18-55-32_260595134347_rgbf000040-resize_5/002279_2014-06-28_18-55-32_260595134347_rgbf000040-resize_5-target.png,250,1.5043333333333,4,8129,237,feet,jsons/v1_VE250_randls_19.json,853584,1146700,43,Woman
127,351649,DepthScenes,duration_manipulation_targetAtFixation,jsons/v1_VE250_randls_19.json,http://54.235.29.9/FacialAge/BNav_EC2/DepthDuration/v2_depth_duration_MTurk/v2_DepthDuration_HTML.html#51,51,1920,1080,1920,1080,8-20-2022,12-12-46,128,depth_duration_stimuli/000635_2014-06-08_16-38-42_260595134347_rgbf000106-resize_1/000635_2014-06-08_16-38-42_260595134347_rgbf000106-resize_1-target.png,250,2.074,8,3753,249,feet,jsons/v1_VE250_randls_19.json,853584,1146700,43,Woman
128,351649,DepthScenes,duration_manipulation_targetAtFixation,jsons/v1_VE250_randls_19.json,http://54.235.29.9/FacialAge/BNav_EC2/DepthDuration/v2_depth_duration_MTurk/v2_DepthDuration_HTML.html#51,51,1920,1080,1920,1080,8-20-2022,12-12-46,129,depth_duration_stimuli/001164_2014-06-17_15-35-46_260595134347_rgbf000085-resize_3/001164_2014-06-17_15-35-46_260595134347_rgbf000085-resize_3-target.png,250,2.354,8,4683,253,feet,jsons/v1_VE250_randls_19.json,853584,1146700,43,Woman
129,351649,DepthScenes,duration_manipulation_targetAtFixation,jsons/v1_VE250_randls_19.json,http://54.235.29.9/FacialAge/BNav_EC2/DepthDuration/v2_depth_duration_MTurk/v2_DepthDuration_HTML.html#51,51,1920,1080,1920,1080,8-20-2022,12-12-46,130,depth_duration_stimuli/001136_2014-06-17_15-19-41_260595134347_rgbf000076-resize_3/001136_2014-06-17_15-19-41_260595134347_rgbf000076-resize_3-target.png,250,1.8655,7,7425,236,feet,jsons/v1_VE250_randls_19.json,853584,1146700,43,Woman
130,351649,DepthScenes,duration_manipulation_targetAtFixation,jsons/v1_VE250_randls_19.json,http://54.235.29.9/FacialAge/BNav_EC2/DepthDuration/v2_depth_duration_MTurk/v2_DepthDuration_HTML.html#51,51,1920,1080,1920,1080,8-20-2022,12-12-46,131,depth_duration_stimuli/000739_2014-06-08_18-45-58_260595134347_rgbf000068-resize_1/000739_2014-06-08_18-45-58_260595134347_rgbf000068-resize_1-target.png,250,3.534,8,5186,254,feet,jsons/v1_VE250_randls_19.json,853584,1146700,43,Woman
131,351649,DepthScenes,duration_manipulation_targetAtFixation,jsons/v1_VE250_randls_19.json,http://54.235.29.9/FacialAge/BNav_EC2/DepthDuration/v2_depth_duration_MTurk/v2_DepthDuration_HTML.html#51,51,1920,1080,1920,1080,8-20-2022,12-12-46,132,depth_duration_stimuli/000734_2014-06-08_17-39-11_260595134347_rgbf000128-resize_2/000734_2014-06-08_17-39-11_260595134347_rgbf000128-resize_2-target.png,250,4.098,9,7176,236,feet,jsons/v1_VE250_randls_19.json,853584,1146700,43,Woman
132,351649,DepthScenes,duration_manipulation_targetAtFixation,jsons/v1_VE250_randls_19.json,http://54.235.29.9/FacialAge/BNav_EC2/DepthDuration/v2_depth_duration_MTurk/v2_DepthDuration_HTML.html#51,51,1920,1080,1920,1080,8-20-2022,12-12-46,133,depth_duration_stimuli/001158_2014-06-17_15-32-16_260595134347_rgbf000138-resize_2/001158_2014-06-17_15-32-16_260595134347_rgbf000138-resize_2-target.png,250,4.5315,10,4155,249,feet,jsons/v1_VE250_randls_19.json,853584,1146700,43,Woman
133,351649,DepthScenes,duration_manipulation_targetAtFixation,jsons/v1_VE250_randls_19.json,http://54.235.29.9/FacialAge/BNav_EC2/DepthDuration/v2_depth_duration_MTurk/v2_DepthDuration_HTML.html#51,51,1920,1080,1920,1080,8-20-2022,12-12-46,134,depth_duration_stimuli/000556_2014-06-09_22-42-56_260595134347_rgbf000214-resize_1/000556_2014-06-09_22-42-56_260595134347_rgbf000214-resize_1-target.png,250,4.8415,13,4049,257,feet,jsons/v1_VE250_randls_19.json,853584,1146700,43,Woman
134,351649,DepthScenes,duration_manipulation_targetAtFixation,jsons/v1_VE250_randls_19.json,http://54.235.29.9/FacialAge/BNav_EC2/DepthDuration/v2_depth_duration_MTurk/v2_DepthDuration_HTML.html#51,51,1920,1080,1920,1080,8-20-2022,12-12-46,135,depth_duration_stimuli/002072_2014-06-24_21-48-06_260595134347_rgbf000115-resize_0/002072_2014-06-24_21-48-06_260595134347_rgbf000115-resize-original.jpg,250,4.702,0,3527,241,feet,jsons/v1_VE250_randls_19.json,853584,1146700,43,Woman
135,351649,DepthScenes,duration_manipulation_targetAtFixation,jsons/v1_VE250_randls_19.json,http://54.235.29.9/FacialAge/BNav_EC2/DepthDuration/v2_depth_duration_MTurk/v2_DepthDuration_HTML.html#51,51,1920,1080,1920,1080,8-20-2022,12-12-46,136,depth_duration_stimuli/001059_2014-06-08_21-53-27_260595134347_rgbf000061-resize_4/001059_2014-06-08_21-53-27_260595134347_rgbf000061-resize_4-target.png,250,2.4185,7,4424,253,feet,jsons/v1_VE250_randls_19.json,853584,1146700,43,Woman
136,351649,DepthScenes,duration_manipulation_targetAtFixation,jsons/v1_VE250_randls_19.json,http://54.235.29.9/FacialAge/BNav_EC2/DepthDuration/v2_depth_duration_MTurk/v2_DepthDuration_HTML.html#51,51,1920,1080,1920,1080,8-20-2022,12-12-46,137,depth_duration_stimuli/001032_2014-06-08_13-23-17_260595134347_rgbf000021-resize_3/001032_2014-06-08_13-23-17_260595134347_rgbf000021-resize_3-target.png,250,3.2725,5,3360,253,feet,jsons/v1_VE250_randls_19.json,853584,1146700,43,Woman
137,351649,DepthScenes,duration_manipulation_targetAtFixation,jsons/v1_VE250_randls_19.json,http://54.235.29.9/FacialAge/BNav_EC2/DepthDuration/v2_depth_duration_MTurk/v2_DepthDuration_HTML.html#51,51,1920,1080,1920,1080,8-20-2022,12-12-46,138,depth_duration_stimuli/001417_2014-06-19_16-25-36_260595134347_rgbf000115-resize_5/001417_2014-06-19_16-25-36_260595134347_rgbf000115-resize_5-target.png,250,4.6255,7,4441,251,feet,jsons/v1_VE250_randls_19.json,853584,1146700,43,Woman
138,351649,DepthScenes,duration_manipulation_targetAtFixation,jsons/v1_VE250_randls_19.json,http://54.235.29.9/FacialAge/BNav_EC2/DepthDuration/v2_depth_duration_MTurk/v2_DepthDuration_HTML.html#51,51,1920,1080,1920,1080,8-20-2022,12-12-46,139,depth_duration_stimuli/003081_2014-06-15_15-19-16_094959634447_rgbf000150-resize_1/003081_2014-06-15_15-19-16_094959634447_rgbf000150-resize_1-target.png,250,3.9125,9,3950,245,feet,jsons/v1_VE250_randls_19.json,853584,1146700,43,Woman
139,351649,DepthScenes,duration_manipulation_targetAtFixation,jsons/v1_VE250_randls_19.json,http://54.235.29.9/FacialAge/BNav_EC2/DepthDuration/v2_depth_duration_MTurk/v2_DepthDuration_HTML.html#51,51,1920,1080,1920,1080,8-20-2022,12-12-46,140,depth_duration_stimuli/001199_2014-06-17_16-03-48_260595134347_rgbf000077-resize_0/001199_2014-06-17_16-03-48_260595134347_rgbf000077-resize_0-target.png,250,3.4375,11,4093,253,feet,jsons/v1_VE250_randls_19.json,853584,1146700,43,Woman
140,351649,DepthScenes,duration_manipulation_targetAtFixation,jsons/v1_VE250_randls_19.json,http://54.235.29.9/FacialAge/BNav_EC2/DepthDuration/v2_depth_duration_MTurk/v2_DepthDuration_HTML.html#51,51,1920,1080,1920,1080,8-20-2022,12-12-46,141,depth_duration_stimuli/000502_2014-06-08_23-02-32_260595134347_rgbf000063-resize_4/000502_2014-06-08_23-02-32_260595134347_rgbf000063-resize_4-target.png,250,2.431,7,5554,256,feet,jsons/v1_VE250_randls_19.json,853584,1146700,43,Woman
141,351649,DepthScenes,duration_manipulation_targetAtFixation,jsons/v1_VE250_randls_19.json,http://54.235.29.9/FacialAge/BNav_EC2/DepthDuration/v2_depth_duration_MTurk/v2_DepthDuration_HTML.html#51,51,1920,1080,1920,1080,8-20-2022,12-12-46,142,depth_duration_stimuli/000447_2014-06-08_16-15-46_260595134347_rgbf000130-resize_1/000447_2014-06-08_16-15-46_260595134347_rgbf000130-resize_1-target.png,250,4.479,12,3868,252,feet,jsons/v1_VE250_randls_19.json,853584,1146700,43,Woman
142,351649,DepthScenes,duration_manipulation_targetAtFixation,jsons/v1_VE250_randls_19.json,http://54.235.29.9/FacialAge/BNav_EC2/DepthDuration/v2_depth_duration_MTurk/v2_DepthDuration_HTML.html#51,51,1920,1080,1920,1080,8-20-2022,12-12-46,143,depth_duration_stimuli/001447_2014-06-19_17-00-32_260595134347_rgbf000082-resize_5/001447_2014-06-19_17-00-32_260595134347_rgbf000082-resize_5-target.png,250,4.13775,8,6584,242,feet,jsons/v1_VE250_randls_19.json,853584,1146700,43,Woman
143,351649,DepthScenes,duration_manipulation_targetAtFixation,jsons/v1_VE250_randls_19.json,http://54.235.29.9/FacialAge/BNav_EC2/DepthDuration/v2_depth_duration_MTurk/v2_DepthDuration_HTML.html#51,51,1920,1080,1920,1080,8-20-2022,12-12-46,144,depth_duration_stimuli/001449_2014-06-19_17-01-27_260595134347_rgbf000116-resize_2/001449_2014-06-19_17-01-27_260595134347_rgbf000116-resize_2-target.png,250,3.452,9,3432,238,feet,jsons/v1_VE250_randls_19.json,853584,1146700,43,Woman
144,351649,DepthScenes,duration_manipulation_targetAtFixation,jsons/v1_VE250_randls_19.json,http://54.235.29.9/FacialAge/BNav_EC2/DepthDuration/v2_depth_duration_MTurk/v2_DepthDuration_HTML.html#51,51,1920,1080,1920,1080,8-20-2022,12-12-46,145,depth_duration_stimuli/001450_2014-06-19_17-02-03_260595134347_rgbf000203-resize_4/001450_2014-06-19_17-02-03_260595134347_rgbf000203-resize_4-target.png,250,4.0106666666667,12,3936,249,feet,jsons/v1_VE250_randls_19.json,853584,1146700,43,Woman
145,351649,DepthScenes,duration_manipulation_targetAtFixation,jsons/v1_VE250_randls_19.json,http://54.235.29.9/FacialAge/BNav_EC2/DepthDuration/v2_depth_duration_MTurk/v2_DepthDuration_HTML.html#51,51,1920,1080,1920,1080,8-20-2022,12-12-46,146,depth_duration_stimuli/001498_2014-06-19_17-45-14_260595134347_rgbf000129-resize_4/001498_2014-06-19_17-45-14_260595134347_rgbf000129-resize-original.jpg,250,1.4075,0,3486,253,feet,jsons/v1_VE250_randls_19.json,853584,1146700,43,Woman
146,351649,DepthScenes,duration_manipulation_targetAtFixation,jsons/v1_VE250_randls_19.json,http://54.235.29.9/FacialAge/BNav_EC2/DepthDuration/v2_depth_duration_MTurk/v2_DepthDuration_HTML.html#51,51,1920,1080,1920,1080,8-20-2022,12-12-46,147,depth_duration_stimuli/000522_2014-06-08_13-35-06_260595134347_rgbf000244-resize_1/000522_2014-06-08_13-35-06_260595134347_rgbf000244-resize_1-target.png,250,2.3715,3,3891,239,feet,jsons/v1_VE250_randls_19.json,853584,1146700,43,Woman
147,351649,DepthScenes,duration_manipulation_targetAtFixation,jsons/v1_VE250_randls_19.json,http://54.235.29.9/FacialAge/BNav_EC2/DepthDuration/v2_depth_duration_MTurk/v2_DepthDuration_HTML.html#51,51,1920,1080,1920,1080,8-20-2022,12-12-46,148,depth_duration_stimuli/002949_2014-06-26_15-57-42_094959634447_rgbf000079-resize_1/002949_2014-06-26_15-57-42_094959634447_rgbf000079-resize_1-target.png,250,1.8915,4,3781,253,feet,jsons/v1_VE250_randls_19.json,853584,1146700,43,Woman
148,351649,DepthScenes,duration_manipulation_targetAtFixation,jsons/v1_VE250_randls_19.json,http://54.235.29.9/FacialAge/BNav_EC2/DepthDuration/v2_depth_duration_MTurk/v2_DepthDuration_HTML.html#51,51,1920,1080,1920,1080,8-20-2022,12-12-46,149,depth_duration_stimuli/000682_2014-06-08_23-14-58_260595134347_rgbf000041-resize_5/000682_2014-06-08_23-14-58_260595134347_rgbf000041-resize_5-target.png,250,2.7239999999999998,6,6391,243,feet,jsons/v1_VE250_randls_19.json,853584,1146700,43,Woman
149,351649,DepthScenes,duration_manipulation_targetAtFixation,jsons/v1_VE250_randls_19.json,http://54.235.29.9/FacialAge/BNav_EC2/DepthDuration/v2_depth_duration_MTurk/v2_DepthDuration_HTML.html#51,51,1920,1080,1920,1080,8-20-2022,12-12-46,150,depth_duration_stimuli/001650_2014-06-20_12-09-00_260595134347_rgbf000087-resize_3/001650_2014-06-20_12-09-00_260595134347_rgbf000087-resize_3-target.png,250,1.9505,2,4891,238,feet,jsons/v1_VE250_randls_19.json,853584,1146700,43,Woman
150,351649,DepthScenes,duration_manipulation_targetAtFixation,jsons/v1_VE250_randls_19.json,http://54.235.29.9/FacialAge/BNav_EC2/DepthDuration/v2_depth_duration_MTurk/v2_DepthDuration_HTML.html#51,51,1920,1080,1920,1080,8-20-2022,12-12-46,151,depth_duration_stimuli/002788_2014-06-22_19-36-03_094959634447_rgbf000088-resize_2/002788_2014-06-22_19-36-03_094959634447_rgbf000088-resize_2-target.png,250,1.6465,8,4588,251,feet,jsons/v1_VE250_randls_19.json,853584,1146700,43,Woman
151,351649,DepthScenes,duration_manipulation_targetAtFixation,jsons/v1_VE250_randls_19.json,http://54.235.29.9/FacialAge/BNav_EC2/DepthDuration/v2_depth_duration_MTurk/v2_DepthDuration_HTML.html#51,51,1920,1080,1920,1080,8-20-2022,12-12-46,152,depth_duration_stimuli/000749_2014-06-08_21-55-06_260595134347_rgbf000070-resize_2/000749_2014-06-08_21-55-06_260595134347_rgbf000070-resize_2-target.png,250,2.331,6,3706,254,feet,jsons/v1_VE250_randls_19.json,853584,1146700,43,Woman
152,351649,DepthScenes,duration_manipulation_targetAtFixation,jsons/v1_VE250_randls_19.json,http://54.235.29.9/FacialAge/BNav_EC2/DepthDuration/v2_depth_duration_MTurk/v2_DepthDuration_HTML.html#51,51,1920,1080,1920,1080,8-20-2022,12-12-46,153,depth_duration_stimuli/002964_2014-06-08_17-46-11_094959634447_rgbf000091-resize_4/002964_2014-06-08_17-46-11_094959634447_rgbf000091-resize_4-target.png,250,1.6909999999999998,5,3536,251,feet,jsons/v1_VE250_randls_19.json,853584,1146700,43,Woman
153,351649,DepthScenes,duration_manipulation_targetAtFixation,jsons/v1_VE250_randls_19.json,http://54.235.29.9/FacialAge/BNav_EC2/DepthDuration/v2_depth_duration_MTurk/v2_DepthDuration_HTML.html#51,51,1920,1080,1920,1080,8-20-2022,12-12-46,154,depth_duration_stimuli/002136_2014-06-25_21-18-03_260595134347_rgbf000109-resize_3/002136_2014-06-25_21-18-03_260595134347_rgbf000109-resize_3-target.png,250,1.9569999999999999,5,4533,252,feet,jsons/v1_VE250_randls_19.json,853584,1146700,43,Woman
154,351649,DepthScenes,duration_manipulation_targetAtFixation,jsons/v1_VE250_randls_19.json,http://54.235.29.9/FacialAge/BNav_EC2/DepthDuration/v2_depth_duration_MTurk/v2_DepthDuration_HTML.html#51,51,1920,1080,1920,1080,8-20-2022,12-12-46,155,depth_duration_stimuli/002509_2014-06-24_13-19-22_094959634447_rgbf000077-resize_0/002509_2014-06-24_13-19-22_094959634447_rgbf000077-resize_0-target.png,250,1.3065,4,7116,243,feet,jsons/v1_VE250_randls_19.json,853584,1146700,43,Woman
155,351649,DepthScenes,duration_manipulation_targetAtFixation,jsons/v1_VE250_randls_19.json,http://54.235.29.9/FacialAge/BNav_EC2/DepthDuration/v2_depth_duration_MTurk/v2_DepthDuration_HTML.html#51,51,1920,1080,1920,1080,8-20-2022,12-12-46,156,depth_duration_stimuli/003338_2014-05-20_11-01-23_094959634447_rgbf000051-resize_6/003338_2014-05-20_11-01-23_094959634447_rgbf000051-resize_6-target.png,250,1.693,5,3879,254,feet,jsons/v1_VE250_randls_19.json,853584,1146700,43,Woman
156,351649,DepthScenes,duration_manipulation_targetAtFixation,jsons/v1_VE250_randls_19.json,http://54.235.29.9/FacialAge/BNav_EC2/DepthDuration/v2_depth_duration_MTurk/v2_DepthDuration_HTML.html#51,51,1920,1080,1920,1080,8-20-2022,12-12-46,157,depth_duration_stimuli/000736_2014-06-08_18-24-15_260595134347_rgbf000206-resize_3/000736_2014-06-08_18-24-15_260595134347_rgbf000206-resize_3-target.png,250,3.515,7,3217,251,feet,jsons/v1_VE250_randls_19.json,853584,1146700,43,Woman
157,351649,DepthScenes,duration_manipulation_targetAtFixation,jsons/v1_VE250_randls_19.json,http://54.235.29.9/FacialAge/BNav_EC2/DepthDuration/v2_depth_duration_MTurk/v2_DepthDuration_HTML.html#51,51,1920,1080,1920,1080,8-20-2022,12-12-46,158,depth_duration_stimuli/000137_2014-05-20_17-04-49_260595134347_rgbf000120-resize_1/000137_2014-05-20_17-04-49_260595134347_rgbf000120-resize_1-target.png,250,3.786,10,4407,235,feet,jsons/v1_VE250_randls_19.json,853584,1146700,43,Woman
158,351649,DepthScenes,duration_manipulation_targetAtFixation,jsons/v1_VE250_randls_19.json,http://54.235.29.9/FacialAge/BNav_EC2/DepthDuration/v2_depth_duration_MTurk/v2_DepthDuration_HTML.html#51,51,1920,1080,1920,1080,8-20-2022,12-12-46,159,depth_duration_stimuli/001167_2014-06-17_15-38-07_260595134347_rgbf000108-resize_0/001167_2014-06-17_15-38-07_260595134347_rgbf000108-resize_0-target.png,250,1.8505,7,3709,252,feet,jsons/v1_VE250_randls_19.json,853584,1146700,43,Woman
159,351649,DepthScenes,duration_manipulation_targetAtFixation,jsons/v1_VE250_randls_19.json,http://54.235.29.9/FacialAge/BNav_EC2/DepthDuration/v2_depth_duration_MTurk/v2_DepthDuration_HTML.html#51,51,1920,1080,1920,1080,8-20-2022,12-12-46,160,depth_duration_stimuli/003587_2014-05-23_16-48-02_094959634447_rgbf002384-resize_2/003587_2014-05-23_16-48-02_094959634447_rgbf002384-resize_2-target.png,250,1.357,3,3636,243,feet,jsons/v1_VE250_randls_19.json,853584,1146700,43,Woman
160,351649,DepthScenes,duration_manipulation_targetAtFixation,jsons/v1_VE250_randls_19.json,http://54.235.29.9/FacialAge/BNav_EC2/DepthDuration/v2_depth_duration_MTurk/v2_DepthDuration_HTML.html#51,51,1920,1080,1920,1080,8-20-2022,12-12-46,161,depth_duration_stimuli/002763_2014-06-22_19-13-10_094959634447_rgbf000075-resize_4/002763_2014-06-22_19-13-10_094959634447_rgbf000075-resize_4-target.png,250,1.68375,5,4139,241,feet,jsons/v1_VE250_randls_19.json,853584,1146700,43,Woman
161,351649,DepthScenes,duration_manipulation_targetAtFixation,jsons/v1_VE250_randls_19.json,http://54.235.29.9/FacialAge/BNav_EC2/DepthDuration/v2_depth_duration_MTurk/v2_DepthDuration_HTML.html#51,51,1920,1080,1920,1080,8-20-2022,12-12-46,162,depth_duration_stimuli/002209_2014-06-28_18-36-10_260595134347_rgbf000051-resize_1/002209_2014-06-28_18-36-10_260595134347_rgbf000051-resize_1-target.png,250,2.057,6,4387,252,feet,jsons/v1_VE250_randls_19.json,853584,1146700,43,Woman
162,351649,DepthScenes,duration_manipulation_targetAtFixation,jsons/v1_VE250_randls_19.json,http://54.235.29.9/FacialAge/BNav_EC2/DepthDuration/v2_depth_duration_MTurk/v2_DepthDuration_HTML.html#51,51,1920,1080,1920,1080,8-20-2022,12-12-46,163,depth_duration_stimuli/002748_2014-06-22_19-07-22_094959634447_rgbf000078-resize_1/002748_2014-06-22_19-07-22_094959634447_rgbf000078-resize_1-target.png,250,4.6705,13,4202,251,feet,jsons/v1_VE250_randls_19.json,853584,1146700,43,Woman
163,351649,DepthScenes,duration_manipulation_targetAtFixation,jsons/v1_VE250_randls_19.json,http://54.235.29.9/FacialAge/BNav_EC2/DepthDuration/v2_depth_duration_MTurk/v2_DepthDuration_HTML.html#51,51,1920,1080,1920,1080,8-20-2022,12-12-46,164,depth_duration_stimuli/002995_2014-06-15_12-31-26_094959634447_rgbf000150-resize_1/002995_2014-06-15_12-31-26_094959634447_rgbf000150-resize_1-target.png,250,3.8360000000000003,12,3501,259,feet,jsons/v1_VE250_randls_19.json,853584,1146700,43,Woman
