,subjID,experimentName,versionName,sequenceName,url,selected_row,windowWidth,windowHeight,screenWidth,screenHeight,startDate,startTime,trial,stimulus,duration,actual_depth,depth_estimate,trial_RT,log_sceneDuration,unitSelection,seq_filepath,experimentTime,totalTime,age,gender
0,353390,DepthScenes,duration_manipulation_targetAtFixation,jsons/v1_VE250_randls_64_rotated.json,http://54.235.29.9/FacialAge/BNav_EC2/DepthDuration/v2_depth_duration_MTurk/v2_DepthDuration_HTML.html#10,10,1366,625,1366,768,8-29-2022,10-38-21,1,depth_duration_stimuli/002758_2014-06-22_19-11-20_094959634447_rgbf000128-resize_1/002758_2014-06-22_19-11-20_094959634447_rgbf000128-resize_1-target.png,250,2.555,6,2466,250,feet,jsons/v1_VE250_randls_64_rotated.json,751826,826300,25,Man
1,353390,DepthScenes,duration_manipulation_targetAtFixation,jsons/v1_VE250_randls_64_rotated.json,http://54.235.29.9/FacialAge/BNav_EC2/DepthDuration/v2_depth_duration_MTurk/v2_DepthDuration_HTML.html#10,10,1366,625,1366,768,8-29-2022,10-38-21,2,depth_duration_stimuli/002630_2014-06-24_14-47-50_094959634447_rgbf000055-resize_1/002630_2014-06-24_14-47-50_094959634447_rgbf000055-resize_1-target.png,250,3.0095,7,2738,251,feet,jsons/v1_VE250_randls_64_rotated.json,751826,826300,25,Man
2,353390,DepthScenes,duration_manipulation_targetAtFixation,jsons/v1_VE250_randls_64_rotated.json,http://54.235.29.9/FacialAge/BNav_EC2/DepthDuration/v2_depth_duration_MTurk/v2_DepthDuration_HTML.html#10,10,1366,625,1366,768,8-29-2022,10-38-21,3,depth_duration_stimuli/000556_2014-06-09_22-42-56_260595134347_rgbf000214-resize_1/000556_2014-06-09_22-42-56_260595134347_rgbf000214-resize_1-target.png,250,4.8415,8,2569,249,feet,jsons/v1_VE250_randls_64_rotated.json,751826,826300,25,Man
3,353390,DepthScenes,duration_manipulation_targetAtFixation,jsons/v1_VE250_randls_64_rotated.json,http://54.235.29.9/FacialAge/BNav_EC2/DepthDuration/v2_depth_duration_MTurk/v2_DepthDuration_HTML.html#10,10,1366,625,1366,768,8-29-2022,10-38-21,4,depth_duration_stimuli/001158_2014-06-17_15-32-16_260595134347_rgbf000138-resize_2/001158_2014-06-17_15-32-16_260595134347_rgbf000138-resize_2-target.png,250,4.5315,8,2228,249,feet,jsons/v1_VE250_randls_64_rotated.json,751826,826300,25,Man
4,353390,DepthScenes,duration_manipulation_targetAtFixation,jsons/v1_VE250_randls_64_rotated.json,http://54.235.29.9/FacialAge/BNav_EC2/DepthDuration/v2_depth_duration_MTurk/v2_DepthDuration_HTML.html#10,10,1366,625,1366,768,8-29-2022,10-38-21,5,depth_duration_stimuli/002637_2014-06-24_14-51-13_094959634447_rgbf000066-resize_4/002637_2014-06-24_14-51-13_094959634447_rgbf000066-resize_4-target.png,250,1.9955,6,2144,249,feet,jsons/v1_VE250_randls_64_rotated.json,751826,826300,25,Man
5,353390,DepthScenes,duration_manipulation_targetAtFixation,jsons/v1_VE250_randls_64_rotated.json,http://54.235.29.9/FacialAge/BNav_EC2/DepthDuration/v2_depth_duration_MTurk/v2_DepthDuration_HTML.html#10,10,1366,625,1366,768,8-29-2022,10-38-21,6,depth_duration_stimuli/003534_2014-05-22_15-06-10_094959634447_rgbf000102-resize_4/003534_2014-05-22_15-06-10_094959634447_rgbf000102-resize_4-target.png,250,1.426,5,2906,250,feet,jsons/v1_VE250_randls_64_rotated.json,751826,826300,25,Man
6,353390,DepthScenes,duration_manipulation_targetAtFixation,jsons/v1_VE250_randls_64_rotated.json,http://54.235.29.9/FacialAge/BNav_EC2/DepthDuration/v2_depth_duration_MTurk/v2_DepthDuration_HTML.html#10,10,1366,625,1366,768,8-29-2022,10-38-21,7,depth_duration_stimuli/002444_2014-06-28_20-32-08_260595134347_rgbf000027-resize_0/002444_2014-06-28_20-32-08_260595134347_rgbf000027-resize_0-target.png,250,4.388999999999999,7,2266,249,feet,jsons/v1_VE250_randls_64_rotated.json,751826,826300,25,Man
7,353390,DepthScenes,duration_manipulation_targetAtFixation,jsons/v1_VE250_randls_64_rotated.json,http://54.235.29.9/FacialAge/BNav_EC2/DepthDuration/v2_depth_duration_MTurk/v2_DepthDuration_HTML.html#10,10,1366,625,1366,768,8-29-2022,10-38-21,8,depth_duration_stimuli/000436_2014-06-09_22-25-11_260595134347_rgbf000137-resize_1/000436_2014-06-09_22-25-11_260595134347_rgbf000137-resize_1-target.png,250,4.0705,7,2265,250,feet,jsons/v1_VE250_randls_64_rotated.json,751826,826300,25,Man
8,353390,DepthScenes,duration_manipulation_targetAtFixation,jsons/v1_VE250_randls_64_rotated.json,http://54.235.29.9/FacialAge/BNav_EC2/DepthDuration/v2_depth_duration_MTurk/v2_DepthDuration_HTML.html#10,10,1366,625,1366,768,8-29-2022,10-38-21,9,depth_duration_stimuli/003423_2014-05-21_10-23-26_094959634447_rgbf002665-resize_2/003423_2014-05-21_10-23-26_094959634447_rgbf002665-resize_2-target.png,250,3.2575,8,2146,250,feet,jsons/v1_VE250_randls_64_rotated.json,751826,826300,25,Man
9,353390,DepthScenes,duration_manipulation_targetAtFixation,jsons/v1_VE250_randls_64_rotated.json,http://54.235.29.9/FacialAge/BNav_EC2/DepthDuration/v2_depth_duration_MTurk/v2_DepthDuration_HTML.html#10,10,1366,625,1366,768,8-29-2022,10-38-21,10,depth_duration_stimuli/002905_2014-06-03_18-04-43_094959634447_rgbf000151-resize_2/002905_2014-06-03_18-04-43_094959634447_rgbf000151-resize_2-target.png,250,2.0295,7,2712,250,feet,jsons/v1_VE250_randls_64_rotated.json,751826,826300,25,Man
10,353390,DepthScenes,duration_manipulation_targetAtFixation,jsons/v1_VE250_randls_64_rotated.json,http://54.235.29.9/FacialAge/BNav_EC2/DepthDuration/v2_depth_duration_MTurk/v2_DepthDuration_HTML.html#10,10,1366,625,1366,768,8-29-2022,10-38-21,11,depth_duration_stimuli/002750_2014-06-22_19-08-03_094959634447_rgbf000094-resize_4/002750_2014-06-22_19-08-03_094959634447_rgbf000094-resize_4-target.png,250,2.354,7,2212,250,feet,jsons/v1_VE250_randls_64_rotated.json,751826,826300,25,Man
11,353390,DepthScenes,duration_manipulation_targetAtFixation,jsons/v1_VE250_randls_64_rotated.json,http://54.235.29.9/FacialAge/BNav_EC2/DepthDuration/v2_depth_duration_MTurk/v2_DepthDuration_HTML.html#10,10,1366,625,1366,768,8-29-2022,10-38-21,12,depth_duration_stimuli/002549_2014-06-24_13-41-39_094959634447_rgbf000022-resize_3/002549_2014-06-24_13-41-39_094959634447_rgbf000022-resize_3-target.png,250,1.476,6,2186,249,feet,jsons/v1_VE250_randls_64_rotated.json,751826,826300,25,Man
12,353390,DepthScenes,duration_manipulation_targetAtFixation,jsons/v1_VE250_randls_64_rotated.json,http://54.235.29.9/FacialAge/BNav_EC2/DepthDuration/v2_depth_duration_MTurk/v2_DepthDuration_HTML.html#10,10,1366,625,1366,768,8-29-2022,10-38-21,13,depth_duration_stimuli/002949_2014-06-26_15-57-42_094959634447_rgbf000079-resize_1/002949_2014-06-26_15-57-42_094959634447_rgbf000079-resize_1-target.png,250,1.8915,5,2267,249,feet,jsons/v1_VE250_randls_64_rotated.json,751826,826300,25,Man
13,353390,DepthScenes,duration_manipulation_targetAtFixation,jsons/v1_VE250_randls_64_rotated.json,http://54.235.29.9/FacialAge/BNav_EC2/DepthDuration/v2_depth_duration_MTurk/v2_DepthDuration_HTML.html#10,10,1366,625,1366,768,8-29-2022,10-38-21,14,depth_duration_stimuli/000522_2014-06-08_13-35-06_260595134347_rgbf000244-resize_1/000522_2014-06-08_13-35-06_260595134347_rgbf000244-resize_1-target.png,250,2.3715,5,2154,249,feet,jsons/v1_VE250_randls_64_rotated.json,751826,826300,25,Man
14,353390,DepthScenes,duration_manipulation_targetAtFixation,jsons/v1_VE250_randls_64_rotated.json,http://54.235.29.9/FacialAge/BNav_EC2/DepthDuration/v2_depth_duration_MTurk/v2_DepthDuration_HTML.html#10,10,1366,625,1366,768,8-29-2022,10-38-21,15,depth_duration_stimuli/001132_2014-06-17_14-48-54_260595134347_rgbf000100-resize_2/001132_2014-06-17_14-48-54_260595134347_rgbf000100-resize_2-target.png,250,3.753,8,2162,250,feet,jsons/v1_VE250_randls_64_rotated.json,751826,826300,25,Man
15,353390,DepthScenes,duration_manipulation_targetAtFixation,jsons/v1_VE250_randls_64_rotated.json,http://54.235.29.9/FacialAge/BNav_EC2/DepthDuration/v2_depth_duration_MTurk/v2_DepthDuration_HTML.html#10,10,1366,625,1366,768,8-29-2022,10-38-21,16,depth_duration_stimuli/001133_2014-06-17_14-49-16_260595134347_rgbf000100-resize_0/001133_2014-06-17_14-49-16_260595134347_rgbf000100-resize_0-target.png,250,4.2115,8,2225,250,feet,jsons/v1_VE250_randls_64_rotated.json,751826,826300,25,Man
16,353390,DepthScenes,duration_manipulation_targetAtFixation,jsons/v1_VE250_randls_64_rotated.json,http://54.235.29.9/FacialAge/BNav_EC2/DepthDuration/v2_depth_duration_MTurk/v2_DepthDuration_HTML.html#10,10,1366,625,1366,768,8-29-2022,10-38-21,17,depth_duration_stimuli/000483_2014-06-09_20-41-45_260595134347_rgbf000116-resize_4/000483_2014-06-09_20-41-45_260595134347_rgbf000116-resize_4-target.png,250,1.337,4,2892,250,feet,jsons/v1_VE250_randls_64_rotated.json,751826,826300,25,Man
17,353390,DepthScenes,duration_manipulation_targetAtFixation,jsons/v1_VE250_randls_64_rotated.json,http://54.235.29.9/FacialAge/BNav_EC2/DepthDuration/v2_depth_duration_MTurk/v2_DepthDuration_HTML.html#10,10,1366,625,1366,768,8-29-2022,10-38-21,18,depth_duration_stimuli/000469_2014-06-09_19-42-10_260595134347_rgbf000081-resize_1/000469_2014-06-09_19-42-10_260595134347_rgbf000081-resize_1-target.png,250,1.652,5,2177,249,feet,jsons/v1_VE250_randls_64_rotated.json,751826,826300,25,Man
18,353390,DepthScenes,duration_manipulation_targetAtFixation,jsons/v1_VE250_randls_64_rotated.json,http://54.235.29.9/FacialAge/BNav_EC2/DepthDuration/v2_depth_duration_MTurk/v2_DepthDuration_HTML.html#10,10,1366,625,1366,768,8-29-2022,10-38-21,19,depth_duration_stimuli/001498_2014-06-19_17-45-14_260595134347_rgbf000129-resize_4/001498_2014-06-19_17-45-14_260595134347_rgbf000129-resize-original.jpg,250,1.4075,0,2164,249,feet,jsons/v1_VE250_randls_64_rotated.json,751826,826300,25,Man
19,353390,DepthScenes,duration_manipulation_targetAtFixation,jsons/v1_VE250_randls_64_rotated.json,http://54.235.29.9/FacialAge/BNav_EC2/DepthDuration/v2_depth_duration_MTurk/v2_DepthDuration_HTML.html#10,10,1366,625,1366,768,8-29-2022,10-38-21,20,depth_duration_stimuli/001617_2014-06-20_11-35-32_260595134347_rgbf000066-resize_1/001617_2014-06-20_11-35-32_260595134347_rgbf000066-resize_1-target.png,250,3.7910000000000004,7,2563,249,feet,jsons/v1_VE250_randls_64_rotated.json,751826,826300,25,Man
20,353390,DepthScenes,duration_manipulation_targetAtFixation,jsons/v1_VE250_randls_64_rotated.json,http://54.235.29.9/FacialAge/BNav_EC2/DepthDuration/v2_depth_duration_MTurk/v2_DepthDuration_HTML.html#10,10,1366,625,1366,768,8-29-2022,10-38-21,21,depth_duration_stimuli/001806_2014-06-26_20-50-20_260595134347_rgbf000091-resize_1/001806_2014-06-26_20-50-20_260595134347_rgbf000091-resize_1-target.png,250,2.7305,5,2394,249,feet,jsons/v1_VE250_randls_64_rotated.json,751826,826300,25,Man
21,353390,DepthScenes,duration_manipulation_targetAtFixation,jsons/v1_VE250_randls_64_rotated.json,http://54.235.29.9/FacialAge/BNav_EC2/DepthDuration/v2_depth_duration_MTurk/v2_DepthDuration_HTML.html#10,10,1366,625,1366,768,8-29-2022,10-38-21,22,depth_duration_stimuli/002875_2014-06-01_15-19-00_094959634447_rgbf000151-resize_1/002875_2014-06-01_15-19-00_094959634447_rgbf000151-resize_1-target.png,250,1.9675,8,2643,249,feet,jsons/v1_VE250_randls_64_rotated.json,751826,826300,25,Man
22,353390,DepthScenes,duration_manipulation_targetAtFixation,jsons/v1_VE250_randls_64_rotated.json,http://54.235.29.9/FacialAge/BNav_EC2/DepthDuration/v2_depth_duration_MTurk/v2_DepthDuration_HTML.html#10,10,1366,625,1366,768,8-29-2022,10-38-21,23,depth_duration_stimuli/001011_2014-06-08_23-18-54_260595134347_rgbf000044-resize_4/001011_2014-06-08_23-18-54_260595134347_rgbf000044-resize_4-target.png,250,2.4730000000000003,8,2171,250,feet,jsons/v1_VE250_randls_64_rotated.json,751826,826300,25,Man
23,353390,DepthScenes,duration_manipulation_targetAtFixation,jsons/v1_VE250_randls_64_rotated.json,http://54.235.29.9/FacialAge/BNav_EC2/DepthDuration/v2_depth_duration_MTurk/v2_DepthDuration_HTML.html#10,10,1366,625,1366,768,8-29-2022,10-38-21,24,depth_duration_stimuli/001032_2014-06-08_13-23-17_260595134347_rgbf000021-resize_3/001032_2014-06-08_13-23-17_260595134347_rgbf000021-resize_3-target.png,250,3.2725,6,2345,250,feet,jsons/v1_VE250_randls_64_rotated.json,751826,826300,25,Man
24,353390,DepthScenes,duration_manipulation_targetAtFixation,jsons/v1_VE250_randls_64_rotated.json,http://54.235.29.9/FacialAge/BNav_EC2/DepthDuration/v2_depth_duration_MTurk/v2_DepthDuration_HTML.html#10,10,1366,625,1366,768,8-29-2022,10-38-21,25,depth_duration_stimuli/001059_2014-06-08_21-53-27_260595134347_rgbf000061-resize_4/001059_2014-06-08_21-53-27_260595134347_rgbf000061-resize_4-target.png,250,2.4185,8,2490,249,feet,jsons/v1_VE250_randls_64_rotated.json,751826,826300,25,Man
25,353390,DepthScenes,duration_manipulation_targetAtFixation,jsons/v1_VE250_randls_64_rotated.json,http://54.235.29.9/FacialAge/BNav_EC2/DepthDuration/v2_depth_duration_MTurk/v2_DepthDuration_HTML.html#10,10,1366,625,1366,768,8-29-2022,10-38-21,26,depth_duration_stimuli/002657_2014-06-13_15-29-54_094959634447_rgbf000150-resize_1/002657_2014-06-13_15-29-54_094959634447_rgbf000150-resize_1-target.png,250,4.919,0,3073,250,feet,jsons/v1_VE250_randls_64_rotated.json,751826,826300,25,Man
26,353390,DepthScenes,duration_manipulation_targetAtFixation,jsons/v1_VE250_randls_64_rotated.json,http://54.235.29.9/FacialAge/BNav_EC2/DepthDuration/v2_depth_duration_MTurk/v2_DepthDuration_HTML.html#10,10,1366,625,1366,768,8-29-2022,10-38-21,27,depth_duration_stimuli/002375_2014-06-28_20-13-44_260595134347_rgbf000032-resize_1/002375_2014-06-28_20-13-44_260595134347_rgbf000032-resize_1-target.png,250,4.0175,5,2362,250,feet,jsons/v1_VE250_randls_64_rotated.json,751826,826300,25,Man
27,353390,DepthScenes,duration_manipulation_targetAtFixation,jsons/v1_VE250_randls_64_rotated.json,http://54.235.29.9/FacialAge/BNav_EC2/DepthDuration/v2_depth_duration_MTurk/v2_DepthDuration_HTML.html#10,10,1366,625,1366,768,8-29-2022,10-38-21,28,depth_duration_stimuli/002414_2014-06-28_20-24-58_260595134347_rgbf000067-resize_4/002414_2014-06-28_20-24-58_260595134347_rgbf000067-resize_4-target.png,250,4.363,6,2402,250,feet,jsons/v1_VE250_randls_64_rotated.json,751826,826300,25,Man
28,353390,DepthScenes,duration_manipulation_targetAtFixation,jsons/v1_VE250_randls_64_rotated.json,http://54.235.29.9/FacialAge/BNav_EC2/DepthDuration/v2_depth_duration_MTurk/v2_DepthDuration_HTML.html#10,10,1366,625,1366,768,8-29-2022,10-38-21,29,depth_duration_stimuli/000773_2014-06-08_22-24-54_260595134347_rgbf000093-resize_1/000773_2014-06-08_22-24-54_260595134347_rgbf000093-resize_1-target.png,250,4.973,8,2283,249,feet,jsons/v1_VE250_randls_64_rotated.json,751826,826300,25,Man
29,353390,DepthScenes,duration_manipulation_targetAtFixation,jsons/v1_VE250_randls_64_rotated.json,http://54.235.29.9/FacialAge/BNav_EC2/DepthDuration/v2_depth_duration_MTurk/v2_DepthDuration_HTML.html#10,10,1366,625,1366,768,8-29-2022,10-38-21,30,depth_duration_stimuli/002072_2014-06-24_21-48-06_260595134347_rgbf000115-resize_0/002072_2014-06-24_21-48-06_260595134347_rgbf000115-resize-original.jpg,250,4.702,0,2374,250,feet,jsons/v1_VE250_randls_64_rotated.json,751826,826300,25,Man
30,353390,DepthScenes,duration_manipulation_targetAtFixation,jsons/v1_VE250_randls_64_rotated.json,http://54.235.29.9/FacialAge/BNav_EC2/DepthDuration/v2_depth_duration_MTurk/v2_DepthDuration_HTML.html#10,10,1366,625,1366,768,8-29-2022,10-38-21,31,depth_duration_stimuli/003490_2014-05-21_15-50-11_094959634447_rgbf000101-resize_3/003490_2014-05-21_15-50-11_094959634447_rgbf000101-resize_3-target.png,250,3.6445,3,3551,249,feet,jsons/v1_VE250_randls_64_rotated.json,751826,826300,25,Man
31,353390,DepthScenes,duration_manipulation_targetAtFixation,jsons/v1_VE250_randls_64_rotated.json,http://54.235.29.9/FacialAge/BNav_EC2/DepthDuration/v2_depth_duration_MTurk/v2_DepthDuration_HTML.html#10,10,1366,625,1366,768,8-29-2022,10-38-21,32,depth_duration_stimuli/001175_2014-06-17_15-45-55_260595134347_rgbf000129-resize_4/001175_2014-06-17_15-45-55_260595134347_rgbf000129-resize_4-target.png,250,4.255,3,11922,249,feet,jsons/v1_VE250_randls_64_rotated.json,751826,826300,25,Man
32,353390,DepthScenes,duration_manipulation_targetAtFixation,jsons/v1_VE250_randls_64_rotated.json,http://54.235.29.9/FacialAge/BNav_EC2/DepthDuration/v2_depth_duration_MTurk/v2_DepthDuration_HTML.html#10,10,1366,625,1366,768,8-29-2022,10-38-21,33,depth_duration_stimuli/000665_2014-06-09_20-42-35_260595134347_rgbf000110-resize_1/000665_2014-06-09_20-42-35_260595134347_rgbf000110-resize_1-target.png,250,3.057,6,2434,250,feet,jsons/v1_VE250_randls_64_rotated.json,751826,826300,25,Man
33,353390,DepthScenes,duration_manipulation_targetAtFixation,jsons/v1_VE250_randls_64_rotated.json,http://54.235.29.9/FacialAge/BNav_EC2/DepthDuration/v2_depth_duration_MTurk/v2_DepthDuration_HTML.html#10,10,1366,625,1366,768,8-29-2022,10-38-21,34,depth_duration_stimuli/001150_2014-06-17_15-27-34_260595134347_rgbf000108-resize_2/001150_2014-06-17_15-27-34_260595134347_rgbf000108-resize_2-target.png,250,4.0325,8,2227,250,feet,jsons/v1_VE250_randls_64_rotated.json,751826,826300,25,Man
34,353390,DepthScenes,duration_manipulation_targetAtFixation,jsons/v1_VE250_randls_64_rotated.json,http://54.235.29.9/FacialAge/BNav_EC2/DepthDuration/v2_depth_duration_MTurk/v2_DepthDuration_HTML.html#10,10,1366,625,1366,768,8-29-2022,10-38-21,35,depth_duration_stimuli/003228_2014-05-14_13-42-35_094959634447_rgbf000101-resize_1/003228_2014-05-14_13-42-35_094959634447_rgbf000101-resize_1-target.png,250,1.9680000000000002,6,2329,249,feet,jsons/v1_VE250_randls_64_rotated.json,751826,826300,25,Man
35,353390,DepthScenes,duration_manipulation_targetAtFixation,jsons/v1_VE250_randls_64_rotated.json,http://54.235.29.9/FacialAge/BNav_EC2/DepthDuration/v2_depth_duration_MTurk/v2_DepthDuration_HTML.html#10,10,1366,625,1366,768,8-29-2022,10-38-21,36,depth_duration_stimuli/002600_2014-06-24_14-27-04_094959634447_rgbf000074-resize_2/002600_2014-06-24_14-27-04_094959634447_rgbf000074-resize_2-target.png,250,2.7575,6,2123,250,feet,jsons/v1_VE250_randls_64_rotated.json,751826,826300,25,Man
36,353390,DepthScenes,duration_manipulation_targetAtFixation,jsons/v1_VE250_randls_64_rotated.json,http://54.235.29.9/FacialAge/BNav_EC2/DepthDuration/v2_depth_duration_MTurk/v2_DepthDuration_HTML.html#10,10,1366,625,1366,768,8-29-2022,10-38-21,37,depth_duration_stimuli/002805_2014-06-22_19-54-03_094959634447_rgbf000079-resize_1/002805_2014-06-22_19-54-03_094959634447_rgbf000079-resize_1-target.png,250,3.1439999999999997,8,2259,249,feet,jsons/v1_VE250_randls_64_rotated.json,751826,826300,25,Man
37,353390,DepthScenes,duration_manipulation_targetAtFixation,jsons/v1_VE250_randls_64_rotated.json,http://54.235.29.9/FacialAge/BNav_EC2/DepthDuration/v2_depth_duration_MTurk/v2_DepthDuration_HTML.html#10,10,1366,625,1366,768,8-29-2022,10-38-21,38,depth_duration_stimuli/000906_2014-06-08_13-35-43_260595134347_rgbf000155-resize_1/000906_2014-06-08_13-35-43_260595134347_rgbf000155-resize_1-target.png,250,2.8489999999999998,8,2137,250,feet,jsons/v1_VE250_randls_64_rotated.json,751826,826300,25,Man
38,353390,DepthScenes,duration_manipulation_targetAtFixation,jsons/v1_VE250_randls_64_rotated.json,http://54.235.29.9/FacialAge/BNav_EC2/DepthDuration/v2_depth_duration_MTurk/v2_DepthDuration_HTML.html#10,10,1366,625,1366,768,8-29-2022,10-38-21,39,depth_duration_stimuli/000709_2014-06-08_13-51-55_260595134347_rgbf000068-resize_3/000709_2014-06-08_13-51-55_260595134347_rgbf000068-resize_3-target.png,250,1.8030000000000002,8,2122,249,feet,jsons/v1_VE250_randls_64_rotated.json,751826,826300,25,Man
39,353390,DepthScenes,duration_manipulation_targetAtFixation,jsons/v1_VE250_randls_64_rotated.json,http://54.235.29.9/FacialAge/BNav_EC2/DepthDuration/v2_depth_duration_MTurk/v2_DepthDuration_HTML.html#10,10,1366,625,1366,768,8-29-2022,10-38-21,40,depth_duration_stimuli/002057_2014-06-24_21-00-13_260595134347_rgbf000120-resize_1/002057_2014-06-24_21-00-13_260595134347_rgbf000120-resize_1-target.png,250,2.967,7,4586,249,feet,jsons/v1_VE250_randls_64_rotated.json,751826,826300,25,Man
40,353390,DepthScenes,duration_manipulation_targetAtFixation,jsons/v1_VE250_randls_64_rotated.json,http://54.235.29.9/FacialAge/BNav_EC2/DepthDuration/v2_depth_duration_MTurk/v2_DepthDuration_HTML.html#10,10,1366,625,1366,768,8-29-2022,10-38-21,41,depth_duration_stimuli/003129_2014-05-12_10-48-10_094959634447_rgbf000100-resize_0/003129_2014-05-12_10-48-10_094959634447_rgbf000100-resize_0-target.png,250,4.9305,7,2361,250,feet,jsons/v1_VE250_randls_64_rotated.json,751826,826300,25,Man
41,353390,DepthScenes,duration_manipulation_targetAtFixation,jsons/v1_VE250_randls_64_rotated.json,http://54.235.29.9/FacialAge/BNav_EC2/DepthDuration/v2_depth_duration_MTurk/v2_DepthDuration_HTML.html#10,10,1366,625,1366,768,8-29-2022,10-38-21,42,depth_duration_stimuli/000414_2014-06-04_19-49-13_260595134347_rgbf000044-resize_0/000414_2014-06-04_19-49-13_260595134347_rgbf000044-resize_0-target.png,250,4.329,8,2402,250,feet,jsons/v1_VE250_randls_64_rotated.json,751826,826300,25,Man
42,353390,DepthScenes,duration_manipulation_targetAtFixation,jsons/v1_VE250_randls_64_rotated.json,http://54.235.29.9/FacialAge/BNav_EC2/DepthDuration/v2_depth_duration_MTurk/v2_DepthDuration_HTML.html#10,10,1366,625,1366,768,8-29-2022,10-38-21,43,depth_duration_stimuli/002639_2014-06-24_14-51-37_094959634447_rgbf000074-resize_4/002639_2014-06-24_14-51-37_094959634447_rgbf000074-resize_4-target.png,250,4.0375,8,2210,249,feet,jsons/v1_VE250_randls_64_rotated.json,751826,826300,25,Man
43,353390,DepthScenes,duration_manipulation_targetAtFixation,jsons/v1_VE250_randls_64_rotated.json,http://54.235.29.9/FacialAge/BNav_EC2/DepthDuration/v2_depth_duration_MTurk/v2_DepthDuration_HTML.html#10,10,1366,625,1366,768,8-29-2022,10-38-21,44,depth_duration_stimuli/003292_2014-05-14_21-53-49_094959634447_rgbf000100-resize_2/003292_2014-05-14_21-53-49_094959634447_rgbf000100-resize_2-target.png,250,3.4815,8,2259,249,feet,jsons/v1_VE250_randls_64_rotated.json,751826,826300,25,Man
44,353390,DepthScenes,duration_manipulation_targetAtFixation,jsons/v1_VE250_randls_64_rotated.json,http://54.235.29.9/FacialAge/BNav_EC2/DepthDuration/v2_depth_duration_MTurk/v2_DepthDuration_HTML.html#10,10,1366,625,1366,768,8-29-2022,10-38-21,45,depth_duration_stimuli/000927_2014-06-09_16-32-30_260595134347_rgbf000123-resize_3/000927_2014-06-09_16-32-30_260595134347_rgbf000123-resize_3-target.png,250,2.6785,6,2299,249,feet,jsons/v1_VE250_randls_64_rotated.json,751826,826300,25,Man
45,353390,DepthScenes,duration_manipulation_targetAtFixation,jsons/v1_VE250_randls_64_rotated.json,http://54.235.29.9/FacialAge/BNav_EC2/DepthDuration/v2_depth_duration_MTurk/v2_DepthDuration_HTML.html#10,10,1366,625,1366,768,8-29-2022,10-38-21,46,depth_duration_stimuli/001110_2014-06-15_17-25-28_260595134347_rgbf000150-resize_1/001110_2014-06-15_17-25-28_260595134347_rgbf000150-resize_1-target.png,250,1.7115,4,2153,249,feet,jsons/v1_VE250_randls_64_rotated.json,751826,826300,25,Man
46,353390,DepthScenes,duration_manipulation_targetAtFixation,jsons/v1_VE250_randls_64_rotated.json,http://54.235.29.9/FacialAge/BNav_EC2/DepthDuration/v2_depth_duration_MTurk/v2_DepthDuration_HTML.html#10,10,1366,625,1366,768,8-29-2022,10-38-21,47,depth_duration_stimuli/001516_2014-06-20_16-25-09_260595134347_rgbf000076-resize_2/001516_2014-06-20_16-25-09_260595134347_rgbf000076-resize_2-target.png,250,1.7445,6,2161,249,feet,jsons/v1_VE250_randls_64_rotated.json,751826,826300,25,Man
47,353390,DepthScenes,duration_manipulation_targetAtFixation,jsons/v1_VE250_randls_64_rotated.json,http://54.235.29.9/FacialAge/BNav_EC2/DepthDuration/v2_depth_duration_MTurk/v2_DepthDuration_HTML.html#10,10,1366,625,1366,768,8-29-2022,10-38-21,48,depth_duration_stimuli/002118_2014-06-25_20-32-08_260595134347_rgbf000078-resize_1/002118_2014-06-25_20-32-08_260595134347_rgbf000078-resize_1-target.png,250,2.6460000000000004,6,2122,250,feet,jsons/v1_VE250_randls_64_rotated.json,751826,826300,25,Man
48,353390,DepthScenes,duration_manipulation_targetAtFixation,jsons/v1_VE250_randls_64_rotated.json,http://54.235.29.9/FacialAge/BNav_EC2/DepthDuration/v2_depth_duration_MTurk/v2_DepthDuration_HTML.html#10,10,1366,625,1366,768,8-29-2022,10-38-21,49,depth_duration_stimuli/001170_2014-06-17_15-43-44_260595134347_rgbf000096-resize_6/001170_2014-06-17_15-43-44_260595134347_rgbf000096-resize-original.jpg,250,1.1909999999999998,0,2130,249,feet,jsons/v1_VE250_randls_64_rotated.json,751826,826300,25,Man
49,353390,DepthScenes,duration_manipulation_targetAtFixation,jsons/v1_VE250_randls_64_rotated.json,http://54.235.29.9/FacialAge/BNav_EC2/DepthDuration/v2_depth_duration_MTurk/v2_DepthDuration_HTML.html#10,10,1366,625,1366,768,8-29-2022,10-38-21,50,depth_duration_stimuli/001447_2014-06-19_17-00-32_260595134347_rgbf000082-resize_5/001447_2014-06-19_17-00-32_260595134347_rgbf000082-resize_5-target.png,250,4.13775,6,2177,249,feet,jsons/v1_VE250_randls_64_rotated.json,751826,826300,25,Man
50,353390,DepthScenes,duration_manipulation_targetAtFixation,jsons/v1_VE250_randls_64_rotated.json,http://54.235.29.9/FacialAge/BNav_EC2/DepthDuration/v2_depth_duration_MTurk/v2_DepthDuration_HTML.html#10,10,1366,625,1366,768,8-29-2022,10-38-21,51,depth_duration_stimuli/000447_2014-06-08_16-15-46_260595134347_rgbf000130-resize_1/000447_2014-06-08_16-15-46_260595134347_rgbf000130-resize_1-target.png,250,4.479,6,2234,249,feet,jsons/v1_VE250_randls_64_rotated.json,751826,826300,25,Man
51,353390,DepthScenes,duration_manipulation_targetAtFixation,jsons/v1_VE250_randls_64_rotated.json,http://54.235.29.9/FacialAge/BNav_EC2/DepthDuration/v2_depth_duration_MTurk/v2_DepthDuration_HTML.html#10,10,1366,625,1366,768,8-29-2022,10-38-21,52,depth_duration_stimuli/001828_2014-06-26_21-40-03_260595134347_rgbf000024-resize_0/001828_2014-06-26_21-40-03_260595134347_rgbf000024-resize_0-target.png,250,4.8260000000000005,8,2114,249,feet,jsons/v1_VE250_randls_64_rotated.json,751826,826300,25,Man
52,353390,DepthScenes,duration_manipulation_targetAtFixation,jsons/v1_VE250_randls_64_rotated.json,http://54.235.29.9/FacialAge/BNav_EC2/DepthDuration/v2_depth_duration_MTurk/v2_DepthDuration_HTML.html#10,10,1366,625,1366,768,8-29-2022,10-38-21,53,depth_duration_stimuli/000009_2014-05-26_14-32-05_260595134347_rgbf000034-resize_3/000009_2014-05-26_14-32-05_260595134347_rgbf000034-resize_3-target.png,250,3.8715,8,2286,249,feet,jsons/v1_VE250_randls_64_rotated.json,751826,826300,25,Man
53,353390,DepthScenes,duration_manipulation_targetAtFixation,jsons/v1_VE250_randls_64_rotated.json,http://54.235.29.9/FacialAge/BNav_EC2/DepthDuration/v2_depth_duration_MTurk/v2_DepthDuration_HTML.html#10,10,1366,625,1366,768,8-29-2022,10-38-21,54,depth_duration_stimuli/001450_2014-06-19_17-02-03_260595134347_rgbf000203-resize_4/001450_2014-06-19_17-02-03_260595134347_rgbf000203-resize_4-target.png,250,4.0106666666667,8,2692,250,feet,jsons/v1_VE250_randls_64_rotated.json,751826,826300,25,Man
54,353390,DepthScenes,duration_manipulation_targetAtFixation,jsons/v1_VE250_randls_64_rotated.json,http://54.235.29.9/FacialAge/BNav_EC2/DepthDuration/v2_depth_duration_MTurk/v2_DepthDuration_HTML.html#10,10,1366,625,1366,768,8-29-2022,10-38-21,55,depth_duration_stimuli/001449_2014-06-19_17-01-27_260595134347_rgbf000116-resize_2/001449_2014-06-19_17-01-27_260595134347_rgbf000116-resize_2-target.png,250,3.452,8,2140,251,feet,jsons/v1_VE250_randls_64_rotated.json,751826,826300,25,Man
55,353390,DepthScenes,duration_manipulation_targetAtFixation,jsons/v1_VE250_randls_64_rotated.json,http://54.235.29.9/FacialAge/BNav_EC2/DepthDuration/v2_depth_duration_MTurk/v2_DepthDuration_HTML.html#10,10,1366,625,1366,768,8-29-2022,10-38-21,56,depth_duration_stimuli/000780_2014-06-08_22-28-29_260595134347_rgbf000126-resize_1/000780_2014-06-08_22-28-29_260595134347_rgbf000126-resize_1-target.png,250,3.3825,8,2154,250,feet,jsons/v1_VE250_randls_64_rotated.json,751826,826300,25,Man
56,353390,DepthScenes,duration_manipulation_targetAtFixation,jsons/v1_VE250_randls_64_rotated.json,http://54.235.29.9/FacialAge/BNav_EC2/DepthDuration/v2_depth_duration_MTurk/v2_DepthDuration_HTML.html#10,10,1366,625,1366,768,8-29-2022,10-38-21,57,depth_duration_stimuli/002445_2014-06-28_20-32-16_260595134347_rgbf000029-resize_4/002445_2014-06-28_20-32-16_260595134347_rgbf000029-resize_4-target.png,250,2.5315,6,2242,250,feet,jsons/v1_VE250_randls_64_rotated.json,751826,826300,25,Man
57,353390,DepthScenes,duration_manipulation_targetAtFixation,jsons/v1_VE250_randls_64_rotated.json,http://54.235.29.9/FacialAge/BNav_EC2/DepthDuration/v2_depth_duration_MTurk/v2_DepthDuration_HTML.html#10,10,1366,625,1366,768,8-29-2022,10-38-21,58,depth_duration_stimuli/001392_2014-06-19_16-07-59_260595134347_rgbf000046-resize_1/001392_2014-06-19_16-07-59_260595134347_rgbf000046-resize_1-target.png,250,4.135,8,2114,250,feet,jsons/v1_VE250_randls_64_rotated.json,751826,826300,25,Man
58,353390,DepthScenes,duration_manipulation_targetAtFixation,jsons/v1_VE250_randls_64_rotated.json,http://54.235.29.9/FacialAge/BNav_EC2/DepthDuration/v2_depth_duration_MTurk/v2_DepthDuration_HTML.html#10,10,1366,625,1366,768,8-29-2022,10-38-21,59,depth_duration_stimuli/001570_2014-06-20_17-21-09_260595134347_rgbf000135-resize_4/001570_2014-06-20_17-21-09_260595134347_rgbf000135-resize_4-target.png,250,4.467,8,2106,249,feet,jsons/v1_VE250_randls_64_rotated.json,751826,826300,25,Man
59,353390,DepthScenes,duration_manipulation_targetAtFixation,jsons/v1_VE250_randls_64_rotated.json,http://54.235.29.9/FacialAge/BNav_EC2/DepthDuration/v2_depth_duration_MTurk/v2_DepthDuration_HTML.html#10,10,1366,625,1366,768,8-29-2022,10-38-21,60,depth_duration_stimuli/001100_2014-06-15_17-46-26_260595134347_rgbf000225-resize_2/001100_2014-06-15_17-46-26_260595134347_rgbf000225-resize_2-target.png,250,2.24,6,2338,248,feet,jsons/v1_VE250_randls_64_rotated.json,751826,826300,25,Man
60,353390,DepthScenes,duration_manipulation_targetAtFixation,jsons/v1_VE250_randls_64_rotated.json,http://54.235.29.9/FacialAge/BNav_EC2/DepthDuration/v2_depth_duration_MTurk/v2_DepthDuration_HTML.html#10,10,1366,625,1366,768,8-29-2022,10-38-21,61,depth_duration_stimuli/002784_2014-06-22_19-26-30_094959634447_rgbf000083-resize_3/002784_2014-06-22_19-26-30_094959634447_rgbf000083-resize_3-target.png,250,1.8046666666667,4,2383,250,feet,jsons/v1_VE250_randls_64_rotated.json,751826,826300,25,Man
61,353390,DepthScenes,duration_manipulation_targetAtFixation,jsons/v1_VE250_randls_64_rotated.json,http://54.235.29.9/FacialAge/BNav_EC2/DepthDuration/v2_depth_duration_MTurk/v2_DepthDuration_HTML.html#10,10,1366,625,1366,768,8-29-2022,10-38-21,62,depth_duration_stimuli/002344_2014-06-28_20-06-29_260595134347_rgbf000030-resize_1/002344_2014-06-28_20-06-29_260595134347_rgbf000030-resize_1-target.png,250,1.5795,3,2215,249,feet,jsons/v1_VE250_randls_64_rotated.json,751826,826300,25,Man
62,353390,DepthScenes,duration_manipulation_targetAtFixation,jsons/v1_VE250_randls_64_rotated.json,http://54.235.29.9/FacialAge/BNav_EC2/DepthDuration/v2_depth_duration_MTurk/v2_DepthDuration_HTML.html#10,10,1366,625,1366,768,8-29-2022,10-38-21,63,depth_duration_stimuli/002725_2014-06-22_11-47-51_094959634447_rgbf000070-resize_1/002725_2014-06-22_11-47-51_094959634447_rgbf000070-resize_1-target.png,250,2.195,6,2292,249,feet,jsons/v1_VE250_randls_64_rotated.json,751826,826300,25,Man
63,353390,DepthScenes,duration_manipulation_targetAtFixation,jsons/v1_VE250_randls_64_rotated.json,http://54.235.29.9/FacialAge/BNav_EC2/DepthDuration/v2_depth_duration_MTurk/v2_DepthDuration_HTML.html#10,10,1366,625,1366,768,8-29-2022,10-38-21,64,depth_duration_stimuli/002678_2014-06-13_16-15-32_094959634447_rgbf000151-resize_6/002678_2014-06-13_16-15-32_094959634447_rgbf000151-resize_6-target.png,250,2.1830000000000003,7,2352,250,feet,jsons/v1_VE250_randls_64_rotated.json,751826,826300,25,Man
64,353390,DepthScenes,duration_manipulation_targetAtFixation,jsons/v1_VE250_randls_64_rotated.json,http://54.235.29.9/FacialAge/BNav_EC2/DepthDuration/v2_depth_duration_MTurk/v2_DepthDuration_HTML.html#10,10,1366,625,1366,768,8-29-2022,10-38-21,65,depth_duration_stimuli/000368_2014-06-09_15-53-01_260595134347_rgbf000155-resize_2/000368_2014-06-09_15-53-01_260595134347_rgbf000155-resize_2-target.png,250,2.4859999999999998,6,2307,250,feet,jsons/v1_VE250_randls_64_rotated.json,751826,826300,25,Man
65,353390,DepthScenes,duration_manipulation_targetAtFixation,jsons/v1_VE250_randls_64_rotated.json,http://54.235.29.9/FacialAge/BNav_EC2/DepthDuration/v2_depth_duration_MTurk/v2_DepthDuration_HTML.html#10,10,1366,625,1366,768,8-29-2022,10-38-21,66,depth_duration_stimuli/001540_2014-06-20_17-01-05_260595134347_rgbf000086-resize_2/001540_2014-06-20_17-01-05_260595134347_rgbf000086-resize-original.jpg,250,1.459,0,2072,249,feet,jsons/v1_VE250_randls_64_rotated.json,751826,826300,25,Man
66,353390,DepthScenes,duration_manipulation_targetAtFixation,jsons/v1_VE250_randls_64_rotated.json,http://54.235.29.9/FacialAge/BNav_EC2/DepthDuration/v2_depth_duration_MTurk/v2_DepthDuration_HTML.html#10,10,1366,625,1366,768,8-29-2022,10-38-21,67,depth_duration_stimuli/003083_2014-06-15_15-21-03_094959634447_rgbf000063-resize_1/003083_2014-06-15_15-21-03_094959634447_rgbf000063-resize_1-target.png,250,4.1405,8,2274,250,feet,jsons/v1_VE250_randls_64_rotated.json,751826,826300,25,Man
67,353390,DepthScenes,duration_manipulation_targetAtFixation,jsons/v1_VE250_randls_64_rotated.json,http://54.235.29.9/FacialAge/BNav_EC2/DepthDuration/v2_depth_duration_MTurk/v2_DepthDuration_HTML.html#10,10,1366,625,1366,768,8-29-2022,10-38-21,68,depth_duration_stimuli/000486_2014-06-09_20-47-20_260595134347_rgbf000143-resize_2/000486_2014-06-09_20-47-20_260595134347_rgbf000143-resize_2-target.png,250,4.8325,8,2426,249,feet,jsons/v1_VE250_randls_64_rotated.json,751826,826300,25,Man
68,353390,DepthScenes,duration_manipulation_targetAtFixation,jsons/v1_VE250_randls_64_rotated.json,http://54.235.29.9/FacialAge/BNav_EC2/DepthDuration/v2_depth_duration_MTurk/v2_DepthDuration_HTML.html#10,10,1366,625,1366,768,8-29-2022,10-38-21,69,depth_duration_stimuli/000409_2014-06-04_19-23-33_260595134347_rgbf000067-resize_0/000409_2014-06-04_19-23-33_260595134347_rgbf000067-resize_0-target.png,250,3.7335,6,2307,249,feet,jsons/v1_VE250_randls_64_rotated.json,751826,826300,25,Man
69,353390,DepthScenes,duration_manipulation_targetAtFixation,jsons/v1_VE250_randls_64_rotated.json,http://54.235.29.9/FacialAge/BNav_EC2/DepthDuration/v2_depth_duration_MTurk/v2_DepthDuration_HTML.html#10,10,1366,625,1366,768,8-29-2022,10-38-21,70,depth_duration_stimuli/002663_2014-06-13_15-50-26_094959634447_rgbf000075-resize_1/002663_2014-06-13_15-50-26_094959634447_rgbf000075-resize_1-target.png,250,4.7495,8,2442,249,feet,jsons/v1_VE250_randls_64_rotated.json,751826,826300,25,Man
70,353390,DepthScenes,duration_manipulation_targetAtFixation,jsons/v1_VE250_randls_64_rotated.json,http://54.235.29.9/FacialAge/BNav_EC2/DepthDuration/v2_depth_duration_MTurk/v2_DepthDuration_HTML.html#10,10,1366,625,1366,768,8-29-2022,10-38-21,71,depth_duration_stimuli/000691_2014-06-08_13-08-50_260595134347_rgbf000132-resize_3/000691_2014-06-08_13-08-50_260595134347_rgbf000132-resize_3-target.png,250,4.1530000000000005,6,2506,249,feet,jsons/v1_VE250_randls_64_rotated.json,751826,826300,25,Man
71,353390,DepthScenes,duration_manipulation_targetAtFixation,jsons/v1_VE250_randls_64_rotated.json,http://54.235.29.9/FacialAge/BNav_EC2/DepthDuration/v2_depth_duration_MTurk/v2_DepthDuration_HTML.html#10,10,1366,625,1366,768,8-29-2022,10-38-21,72,depth_duration_stimuli/002213_2014-06-28_18-37-58_260595134347_rgbf000055-resize_1/002213_2014-06-28_18-37-58_260595134347_rgbf000055-resize_1-target.png,250,3.62,8,2235,250,feet,jsons/v1_VE250_randls_64_rotated.json,751826,826300,25,Man
72,353390,DepthScenes,duration_manipulation_targetAtFixation,jsons/v1_VE250_randls_64_rotated.json,http://54.235.29.9/FacialAge/BNav_EC2/DepthDuration/v2_depth_duration_MTurk/v2_DepthDuration_HTML.html#10,10,1366,625,1366,768,8-29-2022,10-38-21,73,depth_duration_stimuli/001235_2014-06-17_16-37-36_260595134347_rgbf000084-resize_4/001235_2014-06-17_16-37-36_260595134347_rgbf000084-resize_4-target.png,250,3.6605,8,2340,250,feet,jsons/v1_VE250_randls_64_rotated.json,751826,826300,25,Man
73,353390,DepthScenes,duration_manipulation_targetAtFixation,jsons/v1_VE250_randls_64_rotated.json,http://54.235.29.9/FacialAge/BNav_EC2/DepthDuration/v2_depth_duration_MTurk/v2_DepthDuration_HTML.html#10,10,1366,625,1366,768,8-29-2022,10-38-21,74,depth_duration_stimuli/000788_2014-06-08_22-34-36_260595134347_rgbf000131-resize_1/000788_2014-06-08_22-34-36_260595134347_rgbf000131-resize_1-target.png,250,3.359,8,2368,250,feet,jsons/v1_VE250_randls_64_rotated.json,751826,826300,25,Man
74,353390,DepthScenes,duration_manipulation_targetAtFixation,jsons/v1_VE250_randls_64_rotated.json,http://54.235.29.9/FacialAge/BNav_EC2/DepthDuration/v2_depth_duration_MTurk/v2_DepthDuration_HTML.html#10,10,1366,625,1366,768,8-29-2022,10-38-21,75,depth_duration_stimuli/002660_2014-06-13_15-44-18_094959634447_rgbf001878-resize_2/002660_2014-06-13_15-44-18_094959634447_rgbf001878-resize_2-target.png,250,3.576,9,2178,250,feet,jsons/v1_VE250_randls_64_rotated.json,751826,826300,25,Man
75,353390,DepthScenes,duration_manipulation_targetAtFixation,jsons/v1_VE250_randls_64_rotated.json,http://54.235.29.9/FacialAge/BNav_EC2/DepthDuration/v2_depth_duration_MTurk/v2_DepthDuration_HTML.html#10,10,1366,625,1366,768,8-29-2022,10-38-21,76,depth_duration_stimuli/002153_2014-06-25_21-27-18_260595134347_rgbf000038-resize_5/002153_2014-06-25_21-27-18_260595134347_rgbf000038-resize_5-target.png,250,2.505,6,2170,249,feet,jsons/v1_VE250_randls_64_rotated.json,751826,826300,25,Man
76,353390,DepthScenes,duration_manipulation_targetAtFixation,jsons/v1_VE250_randls_64_rotated.json,http://54.235.29.9/FacialAge/BNav_EC2/DepthDuration/v2_depth_duration_MTurk/v2_DepthDuration_HTML.html#10,10,1366,625,1366,768,8-29-2022,10-38-21,77,depth_duration_stimuli/001650_2014-06-20_12-09-00_260595134347_rgbf000087-resize_3/001650_2014-06-20_12-09-00_260595134347_rgbf000087-resize_3-target.png,250,1.9505,5,2330,250,feet,jsons/v1_VE250_randls_64_rotated.json,751826,826300,25,Man
77,353390,DepthScenes,duration_manipulation_targetAtFixation,jsons/v1_VE250_randls_64_rotated.json,http://54.235.29.9/FacialAge/BNav_EC2/DepthDuration/v2_depth_duration_MTurk/v2_DepthDuration_HTML.html#10,10,1366,625,1366,768,8-29-2022,10-38-21,78,depth_duration_stimuli/000682_2014-06-08_23-14-58_260595134347_rgbf000041-resize_5/000682_2014-06-08_23-14-58_260595134347_rgbf000041-resize_5-target.png,250,2.7239999999999998,4,2571,249,feet,jsons/v1_VE250_randls_64_rotated.json,751826,826300,25,Man
78,353390,DepthScenes,duration_manipulation_targetAtFixation,jsons/v1_VE250_randls_64_rotated.json,http://54.235.29.9/FacialAge/BNav_EC2/DepthDuration/v2_depth_duration_MTurk/v2_DepthDuration_HTML.html#10,10,1366,625,1366,768,8-29-2022,10-38-21,79,depth_duration_stimuli/002467_2014-06-28_20-38-07_260595134347_rgbf000026-resize_2/002467_2014-06-28_20-38-07_260595134347_rgbf000026-resize_2-target.png,250,4.742,6,2307,249,feet,jsons/v1_VE250_randls_64_rotated.json,751826,826300,25,Man
79,353390,DepthScenes,duration_manipulation_targetAtFixation,jsons/v1_VE250_randls_64_rotated.json,http://54.235.29.9/FacialAge/BNav_EC2/DepthDuration/v2_depth_duration_MTurk/v2_DepthDuration_HTML.html#10,10,1366,625,1366,768,8-29-2022,10-38-21,80,depth_duration_stimuli/002570_2014-06-24_13-59-54_094959634447_rgbf000059-resize_0/002570_2014-06-24_13-59-54_094959634447_rgbf000059-resize_0-target.png,250,4.037,5,2683,249,feet,jsons/v1_VE250_randls_64_rotated.json,751826,826300,25,Man
80,353390,DepthScenes,duration_manipulation_targetAtFixation,jsons/v1_VE250_randls_64_rotated.json,http://54.235.29.9/FacialAge/BNav_EC2/DepthDuration/v2_depth_duration_MTurk/v2_DepthDuration_HTML.html#10,10,1366,625,1366,768,8-29-2022,10-38-21,81,depth_duration_stimuli/001094_2014-06-15_17-36-00_260595134347_rgbf000205-resize_0/001094_2014-06-15_17-36-00_260595134347_rgbf000205-resize_0-target.png,250,4.2175,6,3283,249,feet,jsons/v1_VE250_randls_64_rotated.json,751826,826300,25,Man
81,353390,DepthScenes,duration_manipulation_targetAtFixation,jsons/v1_VE250_randls_64_rotated.json,http://54.235.29.9/FacialAge/BNav_EC2/DepthDuration/v2_depth_duration_MTurk/v2_DepthDuration_HTML.html#10,10,1366,625,1366,768,8-29-2022,10-38-21,82,depth_duration_stimuli/000692_2014-06-08_13-09-42_260595134347_rgbf000199-resize_2/000692_2014-06-08_13-09-42_260595134347_rgbf000199-resize_2-target.png,250,3.661,4,7802,250,feet,jsons/v1_VE250_randls_64_rotated.json,751826,826300,25,Man
82,353390,DepthScenes,duration_manipulation_targetAtFixation,jsons/v1_VE250_randls_64_rotated.json,http://54.235.29.9/FacialAge/BNav_EC2/DepthDuration/v2_depth_duration_MTurk/v2_DepthDuration_HTML.html#10,10,1366,625,1366,768,8-29-2022,10-38-21,83,depth_duration_stimuli/002545_2014-06-24_13-38-53_094959634447_rgbf000080-resize_4/002545_2014-06-24_13-38-53_094959634447_rgbf000080-resize_4-target.png,250,1.9205,5,5680,249,feet,jsons/v1_VE250_randls_64_rotated.json,751826,826300,25,Man
83,353390,DepthScenes,duration_manipulation_targetAtFixation,jsons/v1_VE250_randls_64_rotated.json,http://54.235.29.9/FacialAge/BNav_EC2/DepthDuration/v2_depth_duration_MTurk/v2_DepthDuration_HTML.html#10,10,1366,625,1366,768,8-29-2022,10-38-21,84,depth_duration_stimuli/001092_2014-06-15_17-34-58_260595134347_rgbf000171-resize_3/001092_2014-06-15_17-34-58_260595134347_rgbf000171-resize_3-target.png,250,2.6935,5,2188,250,feet,jsons/v1_VE250_randls_64_rotated.json,751826,826300,25,Man
84,353390,DepthScenes,duration_manipulation_targetAtFixation,jsons/v1_VE250_randls_64_rotated.json,http://54.235.29.9/FacialAge/BNav_EC2/DepthDuration/v2_depth_duration_MTurk/v2_DepthDuration_HTML.html#10,10,1366,625,1366,768,8-29-2022,10-38-21,85,depth_duration_stimuli/001214_2014-06-17_16-13-55_260595134347_rgbf000111-resize_0/001214_2014-06-17_16-13-55_260595134347_rgbf000111-resize_0-target.png,250,2.6505,5,243690,249,feet,jsons/v1_VE250_randls_64_rotated.json,751826,826300,25,Man
85,353390,DepthScenes,duration_manipulation_targetAtFixation,jsons/v1_VE250_randls_64_rotated.json,http://54.235.29.9/FacialAge/BNav_EC2/DepthDuration/v2_depth_duration_MTurk/v2_DepthDuration_HTML.html#10,10,1366,625,1366,768,8-29-2022,10-38-21,86,depth_duration_stimuli/000810_2014-06-08_17-20-01_260595134347_rgbf000105-resize_0/000810_2014-06-08_17-20-01_260595134347_rgbf000105-resize_0-target.png,250,1.4865,6,2162,249,feet,jsons/v1_VE250_randls_64_rotated.json,751826,826300,25,Man
86,353390,DepthScenes,duration_manipulation_targetAtFixation,jsons/v1_VE250_randls_64_rotated.json,http://54.235.29.9/FacialAge/BNav_EC2/DepthDuration/v2_depth_duration_MTurk/v2_DepthDuration_HTML.html#10,10,1366,625,1366,768,8-29-2022,10-38-21,87,depth_duration_stimuli/001136_2014-06-17_15-19-41_260595134347_rgbf000076-resize_3/001136_2014-06-17_15-19-41_260595134347_rgbf000076-resize_3-target.png,250,1.8655,5,17245,250,feet,jsons/v1_VE250_randls_64_rotated.json,751826,826300,25,Man
87,353390,DepthScenes,duration_manipulation_targetAtFixation,jsons/v1_VE250_randls_64_rotated.json,http://54.235.29.9/FacialAge/BNav_EC2/DepthDuration/v2_depth_duration_MTurk/v2_DepthDuration_HTML.html#10,10,1366,625,1366,768,8-29-2022,10-38-21,88,depth_duration_stimuli/001164_2014-06-17_15-35-46_260595134347_rgbf000085-resize_3/001164_2014-06-17_15-35-46_260595134347_rgbf000085-resize_3-target.png,250,2.354,6,2177,249,feet,jsons/v1_VE250_randls_64_rotated.json,751826,826300,25,Man
88,353390,DepthScenes,duration_manipulation_targetAtFixation,jsons/v1_VE250_randls_64_rotated.json,http://54.235.29.9/FacialAge/BNav_EC2/DepthDuration/v2_depth_duration_MTurk/v2_DepthDuration_HTML.html#10,10,1366,625,1366,768,8-29-2022,10-38-21,89,depth_duration_stimuli/000549_2014-06-08_22-10-24_260595134347_rgbf000247-resize_3/000549_2014-06-08_22-10-24_260595134347_rgbf000247-resize_3-target.png,250,1.841,4,2282,249,feet,jsons/v1_VE250_randls_64_rotated.json,751826,826300,25,Man
89,353390,DepthScenes,duration_manipulation_targetAtFixation,jsons/v1_VE250_randls_64_rotated.json,http://54.235.29.9/FacialAge/BNav_EC2/DepthDuration/v2_depth_duration_MTurk/v2_DepthDuration_HTML.html#10,10,1366,625,1366,768,8-29-2022,10-38-21,90,depth_duration_stimuli/001055_2014-06-08_18-45-35_260595134347_rgbf000111-resize_4/001055_2014-06-08_18-45-35_260595134347_rgbf000111-resize_4-target.png,250,2.4290000000000003,8,2667,249,feet,jsons/v1_VE250_randls_64_rotated.json,751826,826300,25,Man
90,353390,DepthScenes,duration_manipulation_targetAtFixation,jsons/v1_VE250_randls_64_rotated.json,http://54.235.29.9/FacialAge/BNav_EC2/DepthDuration/v2_depth_duration_MTurk/v2_DepthDuration_HTML.html#10,10,1366,625,1366,768,8-29-2022,10-38-21,91,depth_duration_stimuli/000742_2014-06-08_18-48-09_260595134347_rgbf000164-resize_4/000742_2014-06-08_18-48-09_260595134347_rgbf000164-resize_4-target.png,250,4.632,6,2203,249,feet,jsons/v1_VE250_randls_64_rotated.json,751826,826300,25,Man
91,353390,DepthScenes,duration_manipulation_targetAtFixation,jsons/v1_VE250_randls_64_rotated.json,http://54.235.29.9/FacialAge/BNav_EC2/DepthDuration/v2_depth_duration_MTurk/v2_DepthDuration_HTML.html#10,10,1366,625,1366,768,8-29-2022,10-38-21,92,depth_duration_stimuli/001066_2014-06-08_22-03-20_260595134347_rgbf000066-resize_4/001066_2014-06-08_22-03-20_260595134347_rgbf000066-resize_4-target.png,250,4.2330000000000005,8,2196,250,feet,jsons/v1_VE250_randls_64_rotated.json,751826,826300,25,Man
92,353390,DepthScenes,duration_manipulation_targetAtFixation,jsons/v1_VE250_randls_64_rotated.json,http://54.235.29.9/FacialAge/BNav_EC2/DepthDuration/v2_depth_duration_MTurk/v2_DepthDuration_HTML.html#10,10,1366,625,1366,768,8-29-2022,10-38-21,93,depth_duration_stimuli/000137_2014-05-20_17-04-49_260595134347_rgbf000120-resize_1/000137_2014-05-20_17-04-49_260595134347_rgbf000120-resize_1-target.png,250,3.786,7,2761,250,feet,jsons/v1_VE250_randls_64_rotated.json,751826,826300,25,Man
93,353390,DepthScenes,duration_manipulation_targetAtFixation,jsons/v1_VE250_randls_64_rotated.json,http://54.235.29.9/FacialAge/BNav_EC2/DepthDuration/v2_depth_duration_MTurk/v2_DepthDuration_HTML.html#10,10,1366,625,1366,768,8-29-2022,10-38-21,94,depth_duration_stimuli/000736_2014-06-08_18-24-15_260595134347_rgbf000206-resize_3/000736_2014-06-08_18-24-15_260595134347_rgbf000206-resize_3-target.png,250,3.515,6,2791,250,feet,jsons/v1_VE250_randls_64_rotated.json,751826,826300,25,Man
94,353390,DepthScenes,duration_manipulation_targetAtFixation,jsons/v1_VE250_randls_64_rotated.json,http://54.235.29.9/FacialAge/BNav_EC2/DepthDuration/v2_depth_duration_MTurk/v2_DepthDuration_HTML.html#10,10,1366,625,1366,768,8-29-2022,10-38-21,95,depth_duration_stimuli/000734_2014-06-08_17-39-11_260595134347_rgbf000128-resize_2/000734_2014-06-08_17-39-11_260595134347_rgbf000128-resize_2-target.png,250,4.098,8,2295,251,feet,jsons/v1_VE250_randls_64_rotated.json,751826,826300,25,Man
95,353390,DepthScenes,duration_manipulation_targetAtFixation,jsons/v1_VE250_randls_64_rotated.json,http://54.235.29.9/FacialAge/BNav_EC2/DepthDuration/v2_depth_duration_MTurk/v2_DepthDuration_HTML.html#10,10,1366,625,1366,768,8-29-2022,10-38-21,96,depth_duration_stimuli/000739_2014-06-08_18-45-58_260595134347_rgbf000068-resize_1/000739_2014-06-08_18-45-58_260595134347_rgbf000068-resize_1-target.png,250,3.534,8,2441,249,feet,jsons/v1_VE250_randls_64_rotated.json,751826,826300,25,Man
96,353390,DepthScenes,duration_manipulation_targetAtFixation,jsons/v1_VE250_randls_64_rotated.json,http://54.235.29.9/FacialAge/BNav_EC2/DepthDuration/v2_depth_duration_MTurk/v2_DepthDuration_HTML.html#10,10,1366,625,1366,768,8-29-2022,10-38-21,97,depth_duration_stimuli/003010_2014-06-15_12-54-35_094959634447_rgbf000112-resize_0/003010_2014-06-15_12-54-35_094959634447_rgbf000112-resize_0-target.png,250,3.1185,8,2130,250,feet,jsons/v1_VE250_randls_64_rotated.json,751826,826300,25,Man
97,353390,DepthScenes,duration_manipulation_targetAtFixation,jsons/v1_VE250_randls_64_rotated.json,http://54.235.29.9/FacialAge/BNav_EC2/DepthDuration/v2_depth_duration_MTurk/v2_DepthDuration_HTML.html#10,10,1366,625,1366,768,8-29-2022,10-38-21,98,depth_duration_stimuli/001810_2014-06-26_20-51-35_260595134347_rgbf000040-resize_3/001810_2014-06-26_20-51-35_260595134347_rgbf000040-resize_3-target.png,250,2.2525,6,2570,250,feet,jsons/v1_VE250_randls_64_rotated.json,751826,826300,25,Man
98,353390,DepthScenes,duration_manipulation_targetAtFixation,jsons/v1_VE250_randls_64_rotated.json,http://54.235.29.9/FacialAge/BNav_EC2/DepthDuration/v2_depth_duration_MTurk/v2_DepthDuration_HTML.html#10,10,1366,625,1366,768,8-29-2022,10-38-21,99,depth_duration_stimuli/001222_2014-06-17_16-24-06_260595134347_rgbf000073-resize_0/001222_2014-06-17_16-24-06_260595134347_rgbf000073-resize-original.jpg,250,1.4385,0,2118,250,feet,jsons/v1_VE250_randls_64_rotated.json,751826,826300,25,Man
99,353390,DepthScenes,duration_manipulation_targetAtFixation,jsons/v1_VE250_randls_64_rotated.json,http://54.235.29.9/FacialAge/BNav_EC2/DepthDuration/v2_depth_duration_MTurk/v2_DepthDuration_HTML.html#10,10,1366,625,1366,768,8-29-2022,10-38-21,100,depth_duration_stimuli/001584_2014-06-20_11-07-43_260595134347_rgbf000002-resize_1/001584_2014-06-20_11-07-43_260595134347_rgbf000002-resize_1-target.png,250,3.53,8,2281,249,feet,jsons/v1_VE250_randls_64_rotated.json,751826,826300,25,Man
100,353390,DepthScenes,duration_manipulation_targetAtFixation,jsons/v1_VE250_randls_64_rotated.json,http://54.235.29.9/FacialAge/BNav_EC2/DepthDuration/v2_depth_duration_MTurk/v2_DepthDuration_HTML.html#10,10,1366,625,1366,768,8-29-2022,10-38-21,101,depth_duration_stimuli/003621_2014-05-23_18-06-08_094959634447_rgbf000101-resize_1/003621_2014-05-23_18-06-08_094959634447_rgbf000101-resize_1-target.png,250,3.9835,8,2226,250,feet,jsons/v1_VE250_randls_64_rotated.json,751826,826300,25,Man
101,353390,DepthScenes,duration_manipulation_targetAtFixation,jsons/v1_VE250_randls_64_rotated.json,http://54.235.29.9/FacialAge/BNav_EC2/DepthDuration/v2_depth_duration_MTurk/v2_DepthDuration_HTML.html#10,10,1366,625,1366,768,8-29-2022,10-38-21,102,depth_duration_stimuli/000109_2014-05-14_23-41-52_260595134347_rgbf000035-resize_9/000109_2014-05-14_23-41-52_260595134347_rgbf000035-resize_9-target.png,250,1.3545,6,2162,250,feet,jsons/v1_VE250_randls_64_rotated.json,751826,826300,25,Man
102,353390,DepthScenes,duration_manipulation_targetAtFixation,jsons/v1_VE250_randls_64_rotated.json,http://54.235.29.9/FacialAge/BNav_EC2/DepthDuration/v2_depth_duration_MTurk/v2_DepthDuration_HTML.html#10,10,1366,625,1366,768,8-29-2022,10-38-21,103,depth_duration_stimuli/000470_2014-06-09_19-42-40_260595134347_rgbf000094-resize_1/000470_2014-06-09_19-42-40_260595134347_rgbf000094-resize_1-target.png,250,1.831,5,2330,248,feet,jsons/v1_VE250_randls_64_rotated.json,751826,826300,25,Man
103,353390,DepthScenes,duration_manipulation_targetAtFixation,jsons/v1_VE250_randls_64_rotated.json,http://54.235.29.9/FacialAge/BNav_EC2/DepthDuration/v2_depth_duration_MTurk/v2_DepthDuration_HTML.html#10,10,1366,625,1366,768,8-29-2022,10-38-21,104,depth_duration_stimuli/003048_2014-06-15_13-49-43_094959634447_rgbf000150-resize_1/003048_2014-06-15_13-49-43_094959634447_rgbf000150-resize_1-target.png,250,4.0035,0,12699,250,feet,jsons/v1_VE250_randls_64_rotated.json,751826,826300,25,Man
104,353390,DepthScenes,duration_manipulation_targetAtFixation,jsons/v1_VE250_randls_64_rotated.json,http://54.235.29.9/FacialAge/BNav_EC2/DepthDuration/v2_depth_duration_MTurk/v2_DepthDuration_HTML.html#10,10,1366,625,1366,768,8-29-2022,10-38-21,105,depth_duration_stimuli/002043_2014-06-24_20-29-38_260595134347_rgbf000039-resize_4/002043_2014-06-24_20-29-38_260595134347_rgbf000039-resize_4-target.png,250,2.8435,5,2178,250,feet,jsons/v1_VE250_randls_64_rotated.json,751826,826300,25,Man
105,353390,DepthScenes,duration_manipulation_targetAtFixation,jsons/v1_VE250_randls_64_rotated.json,http://54.235.29.9/FacialAge/BNav_EC2/DepthDuration/v2_depth_duration_MTurk/v2_DepthDuration_HTML.html#10,10,1366,625,1366,768,8-29-2022,10-38-21,106,depth_duration_stimuli/002209_2014-06-28_18-36-10_260595134347_rgbf000051-resize_1/002209_2014-06-28_18-36-10_260595134347_rgbf000051-resize_1-target.png,250,2.057,6,2098,249,feet,jsons/v1_VE250_randls_64_rotated.json,751826,826300,25,Man
106,353390,DepthScenes,duration_manipulation_targetAtFixation,jsons/v1_VE250_randls_64_rotated.json,http://54.235.29.9/FacialAge/BNav_EC2/DepthDuration/v2_depth_duration_MTurk/v2_DepthDuration_HTML.html#10,10,1366,625,1366,768,8-29-2022,10-38-21,107,depth_duration_stimuli/002763_2014-06-22_19-13-10_094959634447_rgbf000075-resize_4/002763_2014-06-22_19-13-10_094959634447_rgbf000075-resize_4-target.png,250,1.68375,8,2260,249,feet,jsons/v1_VE250_randls_64_rotated.json,751826,826300,25,Man
107,353390,DepthScenes,duration_manipulation_targetAtFixation,jsons/v1_VE250_randls_64_rotated.json,http://54.235.29.9/FacialAge/BNav_EC2/DepthDuration/v2_depth_duration_MTurk/v2_DepthDuration_HTML.html#10,10,1366,625,1366,768,8-29-2022,10-38-21,108,depth_duration_stimuli/003587_2014-05-23_16-48-02_094959634447_rgbf002384-resize_2/003587_2014-05-23_16-48-02_094959634447_rgbf002384-resize_2-target.png,250,1.357,4,2155,250,feet,jsons/v1_VE250_randls_64_rotated.json,751826,826300,25,Man
108,353390,DepthScenes,duration_manipulation_targetAtFixation,jsons/v1_VE250_randls_64_rotated.json,http://54.235.29.9/FacialAge/BNav_EC2/DepthDuration/v2_depth_duration_MTurk/v2_DepthDuration_HTML.html#10,10,1366,625,1366,768,8-29-2022,10-38-21,109,depth_duration_stimuli/001167_2014-06-17_15-38-07_260595134347_rgbf000108-resize_0/001167_2014-06-17_15-38-07_260595134347_rgbf000108-resize_0-target.png,250,1.8505,4,2210,250,feet,jsons/v1_VE250_randls_64_rotated.json,751826,826300,25,Man
109,353390,DepthScenes,duration_manipulation_targetAtFixation,jsons/v1_VE250_randls_64_rotated.json,http://54.235.29.9/FacialAge/BNav_EC2/DepthDuration/v2_depth_duration_MTurk/v2_DepthDuration_HTML.html#10,10,1366,625,1366,768,8-29-2022,10-38-21,110,depth_duration_stimuli/000502_2014-06-08_23-02-32_260595134347_rgbf000063-resize_4/000502_2014-06-08_23-02-32_260595134347_rgbf000063-resize_4-target.png,250,2.431,5,2227,250,feet,jsons/v1_VE250_randls_64_rotated.json,751826,826300,25,Man
110,353390,DepthScenes,duration_manipulation_targetAtFixation,jsons/v1_VE250_randls_64_rotated.json,http://54.235.29.9/FacialAge/BNav_EC2/DepthDuration/v2_depth_duration_MTurk/v2_DepthDuration_HTML.html#10,10,1366,625,1366,768,8-29-2022,10-38-21,111,depth_duration_stimuli/001199_2014-06-17_16-03-48_260595134347_rgbf000077-resize_0/001199_2014-06-17_16-03-48_260595134347_rgbf000077-resize_0-target.png,250,3.4375,8,2128,250,feet,jsons/v1_VE250_randls_64_rotated.json,751826,826300,25,Man
111,353390,DepthScenes,duration_manipulation_targetAtFixation,jsons/v1_VE250_randls_64_rotated.json,http://54.235.29.9/FacialAge/BNav_EC2/DepthDuration/v2_depth_duration_MTurk/v2_DepthDuration_HTML.html#10,10,1366,625,1366,768,8-29-2022,10-38-21,112,depth_duration_stimuli/000103_2014-05-14_22-01-17_260595134347_rgbf000152-resize_5/000103_2014-05-14_22-01-17_260595134347_rgbf000152-resize_5-target.png,250,1.993,8,2235,249,feet,jsons/v1_VE250_randls_64_rotated.json,751826,826300,25,Man
112,353390,DepthScenes,duration_manipulation_targetAtFixation,jsons/v1_VE250_randls_64_rotated.json,http://54.235.29.9/FacialAge/BNav_EC2/DepthDuration/v2_depth_duration_MTurk/v2_DepthDuration_HTML.html#10,10,1366,625,1366,768,8-29-2022,10-38-21,113,depth_duration_stimuli/001555_2014-06-20_17-12-10_260595134347_rgbf000065-resize_4/001555_2014-06-20_17-12-10_260595134347_rgbf000065-resize_4-target.png,250,1.633,4,2226,249,feet,jsons/v1_VE250_randls_64_rotated.json,751826,826300,25,Man
113,353390,DepthScenes,duration_manipulation_targetAtFixation,jsons/v1_VE250_randls_64_rotated.json,http://54.235.29.9/FacialAge/BNav_EC2/DepthDuration/v2_depth_duration_MTurk/v2_DepthDuration_HTML.html#10,10,1366,625,1366,768,8-29-2022,10-38-21,114,depth_duration_stimuli/002340_2014-06-28_20-05-46_260595134347_rgbf000113-resize_0/002340_2014-06-28_20-05-46_260595134347_rgbf000113-resize_0-target.png,250,2.4735,8,2292,249,feet,jsons/v1_VE250_randls_64_rotated.json,751826,826300,25,Man
114,353390,DepthScenes,duration_manipulation_targetAtFixation,jsons/v1_VE250_randls_64_rotated.json,http://54.235.29.9/FacialAge/BNav_EC2/DepthDuration/v2_depth_duration_MTurk/v2_DepthDuration_HTML.html#10,10,1366,625,1366,768,8-29-2022,10-38-21,115,depth_duration_stimuli/001016_2014-06-09_16-16-10_260595134347_rgbf000112-resize_5/001016_2014-06-09_16-16-10_260595134347_rgbf000112-resize_5-target.png,250,1.6565,4,2264,249,feet,jsons/v1_VE250_randls_64_rotated.json,751826,826300,25,Man
115,353390,DepthScenes,duration_manipulation_targetAtFixation,jsons/v1_VE250_randls_64_rotated.json,http://54.235.29.9/FacialAge/BNav_EC2/DepthDuration/v2_depth_duration_MTurk/v2_DepthDuration_HTML.html#10,10,1366,625,1366,768,8-29-2022,10-38-21,116,depth_duration_stimuli/001571_2014-06-20_17-21-32_260595134347_rgbf000089-resize_1/001571_2014-06-20_17-21-32_260595134347_rgbf000089-resize_1-target.png,250,1.86,6,2130,250,feet,jsons/v1_VE250_randls_64_rotated.json,751826,826300,25,Man
116,353390,DepthScenes,duration_manipulation_targetAtFixation,jsons/v1_VE250_randls_64_rotated.json,http://54.235.29.9/FacialAge/BNav_EC2/DepthDuration/v2_depth_duration_MTurk/v2_DepthDuration_HTML.html#10,10,1366,625,1366,768,8-29-2022,10-38-21,117,depth_duration_stimuli/002272_2014-06-28_18-53-56_260595134347_rgbf000067-resize_2/002272_2014-06-28_18-53-56_260595134347_rgbf000067-resize_2-target.png,250,1.138,6,2282,250,feet,jsons/v1_VE250_randls_64_rotated.json,751826,826300,25,Man
117,353390,DepthScenes,duration_manipulation_targetAtFixation,jsons/v1_VE250_randls_64_rotated.json,http://54.235.29.9/FacialAge/BNav_EC2/DepthDuration/v2_depth_duration_MTurk/v2_DepthDuration_HTML.html#10,10,1366,625,1366,768,8-29-2022,10-38-21,118,depth_duration_stimuli/003081_2014-06-15_15-19-16_094959634447_rgbf000150-resize_1/003081_2014-06-15_15-19-16_094959634447_rgbf000150-resize_1-target.png,250,3.9125,8,2081,250,feet,jsons/v1_VE250_randls_64_rotated.json,751826,826300,25,Man
118,353390,DepthScenes,duration_manipulation_targetAtFixation,jsons/v1_VE250_randls_64_rotated.json,http://54.235.29.9/FacialAge/BNav_EC2/DepthDuration/v2_depth_duration_MTurk/v2_DepthDuration_HTML.html#10,10,1366,625,1366,768,8-29-2022,10-38-21,119,depth_duration_stimuli/001417_2014-06-19_16-25-36_260595134347_rgbf000115-resize_5/001417_2014-06-19_16-25-36_260595134347_rgbf000115-resize_5-target.png,250,4.6255,8,2242,249,feet,jsons/v1_VE250_randls_64_rotated.json,751826,826300,25,Man
119,353390,DepthScenes,duration_manipulation_targetAtFixation,jsons/v1_VE250_randls_64_rotated.json,http://54.235.29.9/FacialAge/BNav_EC2/DepthDuration/v2_depth_duration_MTurk/v2_DepthDuration_HTML.html#10,10,1366,625,1366,768,8-29-2022,10-38-21,120,depth_duration_stimuli/000787_2014-06-08_22-33-53_260595134347_rgbf000175-resize_1/000787_2014-06-08_22-33-53_260595134347_rgbf000175-resize-original.jpg,250,4.784,0,1954,249,feet,jsons/v1_VE250_randls_64_rotated.json,751826,826300,25,Man
120,353390,DepthScenes,duration_manipulation_targetAtFixation,jsons/v1_VE250_randls_64_rotated.json,http://54.235.29.9/FacialAge/BNav_EC2/DepthDuration/v2_depth_duration_MTurk/v2_DepthDuration_HTML.html#10,10,1366,625,1366,768,8-29-2022,10-38-21,121,depth_duration_stimuli/002995_2014-06-15_12-31-26_094959634447_rgbf000150-resize_1/002995_2014-06-15_12-31-26_094959634447_rgbf000150-resize_1-target.png,250,3.8360000000000003,8,2258,249,feet,jsons/v1_VE250_randls_64_rotated.json,751826,826300,25,Man
121,353390,DepthScenes,duration_manipulation_targetAtFixation,jsons/v1_VE250_randls_64_rotated.json,http://54.235.29.9/FacialAge/BNav_EC2/DepthDuration/v2_depth_duration_MTurk/v2_DepthDuration_HTML.html#10,10,1366,625,1366,768,8-29-2022,10-38-21,122,depth_duration_stimuli/002748_2014-06-22_19-07-22_094959634447_rgbf000078-resize_1/002748_2014-06-22_19-07-22_094959634447_rgbf000078-resize_1-target.png,250,4.6705,8,2098,250,feet,jsons/v1_VE250_randls_64_rotated.json,751826,826300,25,Man
122,353390,DepthScenes,duration_manipulation_targetAtFixation,jsons/v1_VE250_randls_64_rotated.json,http://54.235.29.9/FacialAge/BNav_EC2/DepthDuration/v2_depth_duration_MTurk/v2_DepthDuration_HTML.html#10,10,1366,625,1366,768,8-29-2022,10-38-21,123,depth_duration_stimuli/000677_2014-06-08_23-10-32_260595134347_rgbf000158-resize_6/000677_2014-06-08_23-10-32_260595134347_rgbf000158-resize_6-target.png,250,3.556,7,2184,250,feet,jsons/v1_VE250_randls_64_rotated.json,751826,826300,25,Man
123,353390,DepthScenes,duration_manipulation_targetAtFixation,jsons/v1_VE250_randls_64_rotated.json,http://54.235.29.9/FacialAge/BNav_EC2/DepthDuration/v2_depth_duration_MTurk/v2_DepthDuration_HTML.html#10,10,1366,625,1366,768,8-29-2022,10-38-21,124,depth_duration_stimuli/001029_2014-06-08_13-17-57_260595134347_rgbf000065-resize_1/001029_2014-06-08_13-17-57_260595134347_rgbf000065-resize_1-target.png,250,3.0835,8,2212,250,feet,jsons/v1_VE250_randls_64_rotated.json,751826,826300,25,Man
124,353390,DepthScenes,duration_manipulation_targetAtFixation,jsons/v1_VE250_randls_64_rotated.json,http://54.235.29.9/FacialAge/BNav_EC2/DepthDuration/v2_depth_duration_MTurk/v2_DepthDuration_HTML.html#10,10,1366,625,1366,768,8-29-2022,10-38-21,125,depth_duration_stimuli/002568_2014-06-24_13-59-21_094959634447_rgbf000062-resize_4/002568_2014-06-24_13-59-21_094959634447_rgbf000062-resize_4-target.png,250,3.015,8,2554,250,feet,jsons/v1_VE250_randls_64_rotated.json,751826,826300,25,Man
125,353390,DepthScenes,duration_manipulation_targetAtFixation,jsons/v1_VE250_randls_64_rotated.json,http://54.235.29.9/FacialAge/BNav_EC2/DepthDuration/v2_depth_duration_MTurk/v2_DepthDuration_HTML.html#10,10,1366,625,1366,768,8-29-2022,10-38-21,126,depth_duration_stimuli/003492_2014-05-21_15-50-55_094959634447_rgbf000828-resize_1/003492_2014-05-21_15-50-55_094959634447_rgbf000828-resize_1-target.png,250,4.06875,8,2115,249,feet,jsons/v1_VE250_randls_64_rotated.json,751826,826300,25,Man
126,353390,DepthScenes,duration_manipulation_targetAtFixation,jsons/v1_VE250_randls_64_rotated.json,http://54.235.29.9/FacialAge/BNav_EC2/DepthDuration/v2_depth_duration_MTurk/v2_DepthDuration_HTML.html#10,10,1366,625,1366,768,8-29-2022,10-38-21,127,depth_duration_stimuli/001815_2014-06-26_20-52-55_260595134347_rgbf000020-resize_0/001815_2014-06-26_20-52-55_260595134347_rgbf000020-resize_0-target.png,250,3.3865,8,2121,250,feet,jsons/v1_VE250_randls_64_rotated.json,751826,826300,25,Man
127,353390,DepthScenes,duration_manipulation_targetAtFixation,jsons/v1_VE250_randls_64_rotated.json,http://54.235.29.9/FacialAge/BNav_EC2/DepthDuration/v2_depth_duration_MTurk/v2_DepthDuration_HTML.html#10,10,1366,625,1366,768,8-29-2022,10-38-21,128,depth_duration_stimuli/001808_2014-06-26_20-50-58_260595134347_rgbf000029-resize_1/001808_2014-06-26_20-50-58_260595134347_rgbf000029-resize_1-target.png,250,4.249,8,2154,249,feet,jsons/v1_VE250_randls_64_rotated.json,751826,826300,25,Man
128,353390,DepthScenes,duration_manipulation_targetAtFixation,jsons/v1_VE250_randls_64_rotated.json,http://54.235.29.9/FacialAge/BNav_EC2/DepthDuration/v2_depth_duration_MTurk/v2_DepthDuration_HTML.html#10,10,1366,625,1366,768,8-29-2022,10-38-21,129,depth_duration_stimuli/000191_2014-05-12_17-07-38_260595134347_rgbf000199-resize_0/000191_2014-05-12_17-07-38_260595134347_rgbf000199-resize_0-target.png,250,3.7995,8,4835,249,feet,jsons/v1_VE250_randls_64_rotated.json,751826,826300,25,Man
129,353390,DepthScenes,duration_manipulation_targetAtFixation,jsons/v1_VE250_randls_64_rotated.json,http://54.235.29.9/FacialAge/BNav_EC2/DepthDuration/v2_depth_duration_MTurk/v2_DepthDuration_HTML.html#10,10,1366,625,1366,768,8-29-2022,10-38-21,130,depth_duration_stimuli/000493_2014-06-09_21-01-18_260595134347_rgbf000196-resize_3/000493_2014-06-09_21-01-18_260595134347_rgbf000196-resize_3-target.png,250,3.44,7,2345,249,feet,jsons/v1_VE250_randls_64_rotated.json,751826,826300,25,Man
130,353390,DepthScenes,duration_manipulation_targetAtFixation,jsons/v1_VE250_randls_64_rotated.json,http://54.235.29.9/FacialAge/BNav_EC2/DepthDuration/v2_depth_duration_MTurk/v2_DepthDuration_HTML.html#10,10,1366,625,1366,768,8-29-2022,10-38-21,131,depth_duration_stimuli/002953_2014-06-08_17-32-18_094959634447_rgbf000059-resize_5/002953_2014-06-08_17-32-18_094959634447_rgbf000059-resize_5-target.png,250,1.551,6,2435,250,feet,jsons/v1_VE250_randls_64_rotated.json,751826,826300,25,Man
131,353390,DepthScenes,duration_manipulation_targetAtFixation,jsons/v1_VE250_randls_64_rotated.json,http://54.235.29.9/FacialAge/BNav_EC2/DepthDuration/v2_depth_duration_MTurk/v2_DepthDuration_HTML.html#10,10,1366,625,1366,768,8-29-2022,10-38-21,132,depth_duration_stimuli/000878_2014-06-08_22-52-45_260595134347_rgbf000045-resize_2/000878_2014-06-08_22-52-45_260595134347_rgbf000045-resize_2-target.png,250,2.092,7,2676,249,feet,jsons/v1_VE250_randls_64_rotated.json,751826,826300,25,Man
132,353390,DepthScenes,duration_manipulation_targetAtFixation,jsons/v1_VE250_randls_64_rotated.json,http://54.235.29.9/FacialAge/BNav_EC2/DepthDuration/v2_depth_duration_MTurk/v2_DepthDuration_HTML.html#10,10,1366,625,1366,768,8-29-2022,10-38-21,133,depth_duration_stimuli/000457_2014-06-08_16-52-43_260595134347_rgbf000199-resize_1/000457_2014-06-08_16-52-43_260595134347_rgbf000199-resize_1-target.png,250,3.6489999999999996,7,2416,249,feet,jsons/v1_VE250_randls_64_rotated.json,751826,826300,25,Man
133,353390,DepthScenes,duration_manipulation_targetAtFixation,jsons/v1_VE250_randls_64_rotated.json,http://54.235.29.9/FacialAge/BNav_EC2/DepthDuration/v2_depth_duration_MTurk/v2_DepthDuration_HTML.html#10,10,1366,625,1366,768,8-29-2022,10-38-21,134,depth_duration_stimuli/000929_2014-06-09_16-33-19_260595134347_rgbf000139-resize_0/000929_2014-06-09_16-33-19_260595134347_rgbf000139-resize_0-target.png,250,2.8680000000000003,6,2155,249,feet,jsons/v1_VE250_randls_64_rotated.json,751826,826300,25,Man
134,353390,DepthScenes,duration_manipulation_targetAtFixation,jsons/v1_VE250_randls_64_rotated.json,http://54.235.29.9/FacialAge/BNav_EC2/DepthDuration/v2_depth_duration_MTurk/v2_DepthDuration_HTML.html#10,10,1366,625,1366,768,8-29-2022,10-38-21,135,depth_duration_stimuli/000375_2014-06-08_11-17-29_260595134347_rgbf000133-resize_2/000375_2014-06-08_11-17-29_260595134347_rgbf000133-resize-original.jpg,250,4.718,0,1979,248,feet,jsons/v1_VE250_randls_64_rotated.json,751826,826300,25,Man
135,353390,DepthScenes,duration_manipulation_targetAtFixation,jsons/v1_VE250_randls_64_rotated.json,http://54.235.29.9/FacialAge/BNav_EC2/DepthDuration/v2_depth_duration_MTurk/v2_DepthDuration_HTML.html#10,10,1366,625,1366,768,8-29-2022,10-38-21,136,depth_duration_stimuli/000943_2014-06-09_19-31-07_260595134347_rgbf000128-resize_1/000943_2014-06-09_19-31-07_260595134347_rgbf000128-resize_1-target.png,250,1.9765,5,2202,249,feet,jsons/v1_VE250_randls_64_rotated.json,751826,826300,25,Man
136,353390,DepthScenes,duration_manipulation_targetAtFixation,jsons/v1_VE250_randls_64_rotated.json,http://54.235.29.9/FacialAge/BNav_EC2/DepthDuration/v2_depth_duration_MTurk/v2_DepthDuration_HTML.html#10,10,1366,625,1366,768,8-29-2022,10-38-21,137,depth_duration_stimuli/003070_2014-06-15_14-58-27_094959634447_rgbf000150-resize_3/003070_2014-06-15_14-58-27_094959634447_rgbf000150-resize_3-target.png,250,2.9415,6,2033,249,feet,jsons/v1_VE250_randls_64_rotated.json,751826,826300,25,Man
137,353390,DepthScenes,duration_manipulation_targetAtFixation,jsons/v1_VE250_randls_64_rotated.json,http://54.235.29.9/FacialAge/BNav_EC2/DepthDuration/v2_depth_duration_MTurk/v2_DepthDuration_HTML.html#10,10,1366,625,1366,768,8-29-2022,10-38-21,138,depth_duration_stimuli/002425_2014-06-28_20-27-29_260595134347_rgbf000031-resize_8/002425_2014-06-28_20-27-29_260595134347_rgbf000031-resize_8-target.png,250,3.8960000000000004,7,2277,250,feet,jsons/v1_VE250_randls_64_rotated.json,751826,826300,25,Man
138,353390,DepthScenes,duration_manipulation_targetAtFixation,jsons/v1_VE250_randls_64_rotated.json,http://54.235.29.9/FacialAge/BNav_EC2/DepthDuration/v2_depth_duration_MTurk/v2_DepthDuration_HTML.html#10,10,1366,625,1366,768,8-29-2022,10-38-21,139,depth_duration_stimuli/000642_2014-06-08_16-59-25_260595134347_rgbf000098-resize_2/000642_2014-06-08_16-59-25_260595134347_rgbf000098-resize_2-target.png,250,2.8815,6,2208,250,feet,jsons/v1_VE250_randls_64_rotated.json,751826,826300,25,Man
139,353390,DepthScenes,duration_manipulation_targetAtFixation,jsons/v1_VE250_randls_64_rotated.json,http://54.235.29.9/FacialAge/BNav_EC2/DepthDuration/v2_depth_duration_MTurk/v2_DepthDuration_HTML.html#10,10,1366,625,1366,768,8-29-2022,10-38-21,140,depth_duration_stimuli/003338_2014-05-20_11-01-23_094959634447_rgbf000051-resize_6/003338_2014-05-20_11-01-23_094959634447_rgbf000051-resize_6-target.png,250,1.693,4,2275,249,feet,jsons/v1_VE250_randls_64_rotated.json,751826,826300,25,Man
140,353390,DepthScenes,duration_manipulation_targetAtFixation,jsons/v1_VE250_randls_64_rotated.json,http://54.235.29.9/FacialAge/BNav_EC2/DepthDuration/v2_depth_duration_MTurk/v2_DepthDuration_HTML.html#10,10,1366,625,1366,768,8-29-2022,10-38-21,141,depth_duration_stimuli/002509_2014-06-24_13-19-22_094959634447_rgbf000077-resize_0/002509_2014-06-24_13-19-22_094959634447_rgbf000077-resize_0-target.png,250,1.3065,4,2178,249,feet,jsons/v1_VE250_randls_64_rotated.json,751826,826300,25,Man
141,353390,DepthScenes,duration_manipulation_targetAtFixation,jsons/v1_VE250_randls_64_rotated.json,http://54.235.29.9/FacialAge/BNav_EC2/DepthDuration/v2_depth_duration_MTurk/v2_DepthDuration_HTML.html#10,10,1366,625,1366,768,8-29-2022,10-38-21,142,depth_duration_stimuli/002199_2014-06-28_18-33-56_260595134347_rgbf000074-resize_0/002199_2014-06-28_18-33-56_260595134347_rgbf000074-resize_0-target.png,250,1.996,4,2194,249,feet,jsons/v1_VE250_randls_64_rotated.json,751826,826300,25,Man
142,353390,DepthScenes,duration_manipulation_targetAtFixation,jsons/v1_VE250_randls_64_rotated.json,http://54.235.29.9/FacialAge/BNav_EC2/DepthDuration/v2_depth_duration_MTurk/v2_DepthDuration_HTML.html#10,10,1366,625,1366,768,8-29-2022,10-38-21,143,depth_duration_stimuli/001056_2014-06-08_18-46-44_260595134347_rgbf000068-resize_0/001056_2014-06-08_18-46-44_260595134347_rgbf000068-resize_0-target.png,250,2.6625,6,2187,250,feet,jsons/v1_VE250_randls_64_rotated.json,751826,826300,25,Man
143,353390,DepthScenes,duration_manipulation_targetAtFixation,jsons/v1_VE250_randls_64_rotated.json,http://54.235.29.9/FacialAge/BNav_EC2/DepthDuration/v2_depth_duration_MTurk/v2_DepthDuration_HTML.html#10,10,1366,625,1366,768,8-29-2022,10-38-21,144,depth_duration_stimuli/003495_2014-05-21_16-01-51_094959634447_rgbf000100-resize_3/003495_2014-05-21_16-01-51_094959634447_rgbf000100-resize_3-target.png,250,1.6255,3,2354,250,feet,jsons/v1_VE250_randls_64_rotated.json,751826,826300,25,Man
144,353390,DepthScenes,duration_manipulation_targetAtFixation,jsons/v1_VE250_randls_64_rotated.json,http://54.235.29.9/FacialAge/BNav_EC2/DepthDuration/v2_depth_duration_MTurk/v2_DepthDuration_HTML.html#10,10,1366,625,1366,768,8-29-2022,10-38-21,145,depth_duration_stimuli/001244_2014-06-17_16-47-45_260595134347_rgbf000030-resize_4/001244_2014-06-17_16-47-45_260595134347_rgbf000030-resize_4-target.png,250,2.0425,5,2356,250,feet,jsons/v1_VE250_randls_64_rotated.json,751826,826300,25,Man
145,353390,DepthScenes,duration_manipulation_targetAtFixation,jsons/v1_VE250_randls_64_rotated.json,http://54.235.29.9/FacialAge/BNav_EC2/DepthDuration/v2_depth_duration_MTurk/v2_DepthDuration_HTML.html#10,10,1366,625,1366,768,8-29-2022,10-38-21,146,depth_duration_stimuli/002103_2014-06-25_20-00-40_260595134347_rgbf000049-resize_0/002103_2014-06-25_20-00-40_260595134347_rgbf000049-resize_0-target.png,250,4.105,6,2262,249,feet,jsons/v1_VE250_randls_64_rotated.json,751826,826300,25,Man
146,353390,DepthScenes,duration_manipulation_targetAtFixation,jsons/v1_VE250_randls_64_rotated.json,http://54.235.29.9/FacialAge/BNav_EC2/DepthDuration/v2_depth_duration_MTurk/v2_DepthDuration_HTML.html#10,10,1366,625,1366,768,8-29-2022,10-38-21,147,depth_duration_stimuli/002039_2014-06-24_20-22-38_260595134347_rgbf000084-resize_1/002039_2014-06-24_20-22-38_260595134347_rgbf000084-resize_1-target.png,250,4.408,6,2210,250,feet,jsons/v1_VE250_randls_64_rotated.json,751826,826300,25,Man
147,353390,DepthScenes,duration_manipulation_targetAtFixation,jsons/v1_VE250_randls_64_rotated.json,http://54.235.29.9/FacialAge/BNav_EC2/DepthDuration/v2_depth_duration_MTurk/v2_DepthDuration_HTML.html#10,10,1366,625,1366,768,8-29-2022,10-38-21,148,depth_duration_stimuli/000866_2014-06-09_20-45-42_260595134347_rgbf000139-resize_1/000866_2014-06-09_20-45-42_260595134347_rgbf000139-resize_1-target.png,250,3.2155,7,2263,249,feet,jsons/v1_VE250_randls_64_rotated.json,751826,826300,25,Man
148,353390,DepthScenes,duration_manipulation_targetAtFixation,jsons/v1_VE250_randls_64_rotated.json,http://54.235.29.9/FacialAge/BNav_EC2/DepthDuration/v2_depth_duration_MTurk/v2_DepthDuration_HTML.html#10,10,1366,625,1366,768,8-29-2022,10-38-21,149,depth_duration_stimuli/002989_2014-06-15_12-25-03_094959634447_rgbf000150-resize_3/002989_2014-06-15_12-25-03_094959634447_rgbf000150-resize_3-target.png,250,4.1975,8,2198,249,feet,jsons/v1_VE250_randls_64_rotated.json,751826,826300,25,Man
149,353390,DepthScenes,duration_manipulation_targetAtFixation,jsons/v1_VE250_randls_64_rotated.json,http://54.235.29.9/FacialAge/BNav_EC2/DepthDuration/v2_depth_duration_MTurk/v2_DepthDuration_HTML.html#10,10,1366,625,1366,768,8-29-2022,10-38-21,150,depth_duration_stimuli/000749_2014-06-08_21-55-06_260595134347_rgbf000070-resize_2/000749_2014-06-08_21-55-06_260595134347_rgbf000070-resize_2-target.png,250,2.331,8,2721,250,feet,jsons/v1_VE250_randls_64_rotated.json,751826,826300,25,Man
150,353390,DepthScenes,duration_manipulation_targetAtFixation,jsons/v1_VE250_randls_64_rotated.json,http://54.235.29.9/FacialAge/BNav_EC2/DepthDuration/v2_depth_duration_MTurk/v2_DepthDuration_HTML.html#10,10,1366,625,1366,768,8-29-2022,10-38-21,151,depth_duration_stimuli/002788_2014-06-22_19-36-03_094959634447_rgbf000088-resize_2/002788_2014-06-22_19-36-03_094959634447_rgbf000088-resize_2-target.png,250,1.6465,8,2204,249,feet,jsons/v1_VE250_randls_64_rotated.json,751826,826300,25,Man
151,353390,DepthScenes,duration_manipulation_targetAtFixation,jsons/v1_VE250_randls_64_rotated.json,http://54.235.29.9/FacialAge/BNav_EC2/DepthDuration/v2_depth_duration_MTurk/v2_DepthDuration_HTML.html#10,10,1366,625,1366,768,8-29-2022,10-38-21,152,depth_duration_stimuli/000569_2014-06-09_22-51-47_260595134347_rgbf000141-resize_3/000569_2014-06-09_22-51-47_260595134347_rgbf000141-resize-original.jpg,250,4.512,0,2126,249,feet,jsons/v1_VE250_randls_64_rotated.json,751826,826300,25,Man
152,353390,DepthScenes,duration_manipulation_targetAtFixation,jsons/v1_VE250_randls_64_rotated.json,http://54.235.29.9/FacialAge/BNav_EC2/DepthDuration/v2_depth_duration_MTurk/v2_DepthDuration_HTML.html#10,10,1366,625,1366,768,8-29-2022,10-38-21,153,depth_duration_stimuli/000854_2014-06-09_19-43-13_260595134347_rgbf000066-resize_0/000854_2014-06-09_19-43-13_260595134347_rgbf000066-resize_0-target.png,250,3.068,5,2276,250,feet,jsons/v1_VE250_randls_64_rotated.json,751826,826300,25,Man
153,353390,DepthScenes,duration_manipulation_targetAtFixation,jsons/v1_VE250_randls_64_rotated.json,http://54.235.29.9/FacialAge/BNav_EC2/DepthDuration/v2_depth_duration_MTurk/v2_DepthDuration_HTML.html#10,10,1366,625,1366,768,8-29-2022,10-38-21,154,depth_duration_stimuli/000758_2014-06-08_22-05-08_260595134347_rgbf000085-resize_0/000758_2014-06-08_22-05-08_260595134347_rgbf000085-resize_0-target.png,250,3.3810000000000002,7,2730,250,feet,jsons/v1_VE250_randls_64_rotated.json,751826,826300,25,Man
154,353390,DepthScenes,duration_manipulation_targetAtFixation,jsons/v1_VE250_randls_64_rotated.json,http://54.235.29.9/FacialAge/BNav_EC2/DepthDuration/v2_depth_duration_MTurk/v2_DepthDuration_HTML.html#10,10,1366,625,1366,768,8-29-2022,10-38-21,155,depth_duration_stimuli/003079_2014-06-15_15-18-20_094959634447_rgbf000152-resize_8/003079_2014-06-15_15-18-20_094959634447_rgbf000152-resize_8-target.png,250,2.8775,8,2306,250,feet,jsons/v1_VE250_randls_64_rotated.json,751826,826300,25,Man
155,353390,DepthScenes,duration_manipulation_targetAtFixation,jsons/v1_VE250_randls_64_rotated.json,http://54.235.29.9/FacialAge/BNav_EC2/DepthDuration/v2_depth_duration_MTurk/v2_DepthDuration_HTML.html#10,10,1366,625,1366,768,8-29-2022,10-38-21,156,depth_duration_stimuli/000506_2014-06-08_23-21-00_260595134347_rgbf000070-resize_7/000506_2014-06-08_23-21-00_260595134347_rgbf000070-resize_7-target.png,250,4.0585,6,2186,249,feet,jsons/v1_VE250_randls_64_rotated.json,751826,826300,25,Man
156,353390,DepthScenes,duration_manipulation_targetAtFixation,jsons/v1_VE250_randls_64_rotated.json,http://54.235.29.9/FacialAge/BNav_EC2/DepthDuration/v2_depth_duration_MTurk/v2_DepthDuration_HTML.html#10,10,1366,625,1366,768,8-29-2022,10-38-21,157,depth_duration_stimuli/000635_2014-06-08_16-38-42_260595134347_rgbf000106-resize_1/000635_2014-06-08_16-38-42_260595134347_rgbf000106-resize_1-target.png,250,2.074,7,2507,250,feet,jsons/v1_VE250_randls_64_rotated.json,751826,826300,25,Man
157,353390,DepthScenes,duration_manipulation_targetAtFixation,jsons/v1_VE250_randls_64_rotated.json,http://54.235.29.9/FacialAge/BNav_EC2/DepthDuration/v2_depth_duration_MTurk/v2_DepthDuration_HTML.html#10,10,1366,625,1366,768,8-29-2022,10-38-21,158,depth_duration_stimuli/002279_2014-06-28_18-55-32_260595134347_rgbf000040-resize_5/002279_2014-06-28_18-55-32_260595134347_rgbf000040-resize_5-target.png,250,1.5043333333333,6,2306,251,feet,jsons/v1_VE250_randls_64_rotated.json,751826,826300,25,Man
158,353390,DepthScenes,duration_manipulation_targetAtFixation,jsons/v1_VE250_randls_64_rotated.json,http://54.235.29.9/FacialAge/BNav_EC2/DepthDuration/v2_depth_duration_MTurk/v2_DepthDuration_HTML.html#10,10,1366,625,1366,768,8-29-2022,10-38-21,159,depth_duration_stimuli/002323_2014-06-28_20-01-54_260595134347_rgbf000051-resize_4/002323_2014-06-28_20-01-54_260595134347_rgbf000051-resize_4-target.png,250,3.7310000000000003,7,2443,250,feet,jsons/v1_VE250_randls_64_rotated.json,751826,826300,25,Man
159,353390,DepthScenes,duration_manipulation_targetAtFixation,jsons/v1_VE250_randls_64_rotated.json,http://54.235.29.9/FacialAge/BNav_EC2/DepthDuration/v2_depth_duration_MTurk/v2_DepthDuration_HTML.html#10,10,1366,625,1366,768,8-29-2022,10-38-21,160,depth_duration_stimuli/000917_2014-06-09_22-45-29_260595134347_rgbf000149-resize_3/000917_2014-06-09_22-45-29_260595134347_rgbf000149-resize_3-target.png,250,4.1865,7,2353,250,feet,jsons/v1_VE250_randls_64_rotated.json,751826,826300,25,Man
160,353390,DepthScenes,duration_manipulation_targetAtFixation,jsons/v1_VE250_randls_64_rotated.json,http://54.235.29.9/FacialAge/BNav_EC2/DepthDuration/v2_depth_duration_MTurk/v2_DepthDuration_HTML.html#10,10,1366,625,1366,768,8-29-2022,10-38-21,161,depth_duration_stimuli/002136_2014-06-25_21-18-03_260595134347_rgbf000109-resize_3/002136_2014-06-25_21-18-03_260595134347_rgbf000109-resize_3-target.png,250,1.9569999999999999,8,2522,249,feet,jsons/v1_VE250_randls_64_rotated.json,751826,826300,25,Man
161,353390,DepthScenes,duration_manipulation_targetAtFixation,jsons/v1_VE250_randls_64_rotated.json,http://54.235.29.9/FacialAge/BNav_EC2/DepthDuration/v2_depth_duration_MTurk/v2_DepthDuration_HTML.html#10,10,1366,625,1366,768,8-29-2022,10-38-21,162,depth_duration_stimuli/002964_2014-06-08_17-46-11_094959634447_rgbf000091-resize_4/002964_2014-06-08_17-46-11_094959634447_rgbf000091-resize_4-target.png,250,1.6909999999999998,3,2178,249,feet,jsons/v1_VE250_randls_64_rotated.json,751826,826300,25,Man
162,353390,DepthScenes,duration_manipulation_targetAtFixation,jsons/v1_VE250_randls_64_rotated.json,http://54.235.29.9/FacialAge/BNav_EC2/DepthDuration/v2_depth_duration_MTurk/v2_DepthDuration_HTML.html#10,10,1366,625,1366,768,8-29-2022,10-38-21,163,depth_duration_stimuli/001052_2014-06-08_18-24-54_260595134347_rgbf000130-resize_1/001052_2014-06-08_18-24-54_260595134347_rgbf000130-resize_1-target.png,250,4.1045,8,2234,249,feet,jsons/v1_VE250_randls_64_rotated.json,751826,826300,25,Man
163,353390,DepthScenes,duration_manipulation_targetAtFixation,jsons/v1_VE250_randls_64_rotated.json,http://54.235.29.9/FacialAge/BNav_EC2/DepthDuration/v2_depth_duration_MTurk/v2_DepthDuration_HTML.html#10,10,1366,625,1366,768,8-29-2022,10-38-21,164,depth_duration_stimuli/002988_2014-06-15_12-24-20_094959634447_rgbf000150-resize_1/002988_2014-06-15_12-24-20_094959634447_rgbf000150-resize_1-target.png,250,4.7669999999999995,8,2234,249,feet,jsons/v1_VE250_randls_64_rotated.json,751826,826300,25,Man
