,subjID,experimentName,versionName,sequenceName,url,selected_row,windowWidth,windowHeight,screenWidth,screenHeight,startDate,startTime,trial,stimulus,duration,actual_depth,depth_estimate,trial_RT,log_sceneDuration,unitSelection,seq_filepath,experimentTime,totalTime,age,gender
0,354578,DepthScenes,duration_manipulation_targetAtFixation,jsons/v1_VE250_randls_45_rotated.json,http://54.235.29.9/FacialAge/BNav_EC2/DepthDuration/v2_depth_duration_MTurk/v2_DepthDuration_HTML.html#444,444,779,439,1364,768,8-29-2022,14-26-19,1,depth_duration_stimuli/000943_2014-06-09_19-31-07_260595134347_rgbf000128-resize_1/000943_2014-06-09_19-31-07_260595134347_rgbf000128-resize_1-target.png,250,1.9765,0.5,12145,222,meters,jsons/v1_VE250_randls_45_rotated.json,1184715,1396598,26,Man
1,354578,DepthScenes,duration_manipulation_targetAtFixation,jsons/v1_VE250_randls_45_rotated.json,http://54.235.29.9/FacialAge/BNav_EC2/DepthDuration/v2_depth_duration_MTurk/v2_DepthDuration_HTML.html#444,444,779,439,1364,768,8-29-2022,14-26-19,2,depth_duration_stimuli/003070_2014-06-15_14-58-27_094959634447_rgbf000150-resize_3/003070_2014-06-15_14-58-27_094959634447_rgbf000150-resize_3-target.png,250,2.9415,0.5,4207,242,meters,jsons/v1_VE250_randls_45_rotated.json,1184715,1396598,26,Man
2,354578,DepthScenes,duration_manipulation_targetAtFixation,jsons/v1_VE250_randls_45_rotated.json,http://54.235.29.9/FacialAge/BNav_EC2/DepthDuration/v2_depth_duration_MTurk/v2_DepthDuration_HTML.html#444,444,779,439,1364,768,8-29-2022,14-26-19,3,depth_duration_stimuli/001571_2014-06-20_17-21-32_260595134347_rgbf000089-resize_1/001571_2014-06-20_17-21-32_260595134347_rgbf000089-resize_1-target.png,250,1.86,0.5,4077,284,meters,jsons/v1_VE250_randls_45_rotated.json,1184715,1396598,26,Man
3,354578,DepthScenes,duration_manipulation_targetAtFixation,jsons/v1_VE250_randls_45_rotated.json,http://54.235.29.9/FacialAge/BNav_EC2/DepthDuration/v2_depth_duration_MTurk/v2_DepthDuration_HTML.html#444,444,779,439,1364,768,8-29-2022,14-26-19,4,depth_duration_stimuli/002272_2014-06-28_18-53-56_260595134347_rgbf000067-resize_2/002272_2014-06-28_18-53-56_260595134347_rgbf000067-resize_2-target.png,250,1.138,1.0,4384,249,meters,jsons/v1_VE250_randls_45_rotated.json,1184715,1396598,26,Man
4,354578,DepthScenes,duration_manipulation_targetAtFixation,jsons/v1_VE250_randls_45_rotated.json,http://54.235.29.9/FacialAge/BNav_EC2/DepthDuration/v2_depth_duration_MTurk/v2_DepthDuration_HTML.html#444,444,779,439,1364,768,8-29-2022,14-26-19,5,depth_duration_stimuli/002995_2014-06-15_12-31-26_094959634447_rgbf000150-resize_1/002995_2014-06-15_12-31-26_094959634447_rgbf000150-resize_1-target.png,250,3.8360000000000003,2.5,6320,248,meters,jsons/v1_VE250_randls_45_rotated.json,1184715,1396598,26,Man
5,354578,DepthScenes,duration_manipulation_targetAtFixation,jsons/v1_VE250_randls_45_rotated.json,http://54.235.29.9/FacialAge/BNav_EC2/DepthDuration/v2_depth_duration_MTurk/v2_DepthDuration_HTML.html#444,444,779,439,1364,768,8-29-2022,14-26-19,6,depth_duration_stimuli/002748_2014-06-22_19-07-22_094959634447_rgbf000078-resize_1/002748_2014-06-22_19-07-22_094959634447_rgbf000078-resize_1-target.png,250,4.6705,0.0,4206,249,meters,jsons/v1_VE250_randls_45_rotated.json,1184715,1396598,26,Man
6,354578,DepthScenes,duration_manipulation_targetAtFixation,jsons/v1_VE250_randls_45_rotated.json,http://54.235.29.9/FacialAge/BNav_EC2/DepthDuration/v2_depth_duration_MTurk/v2_DepthDuration_HTML.html#444,444,779,439,1364,768,8-29-2022,14-26-19,7,depth_duration_stimuli/000780_2014-06-08_22-28-29_260595134347_rgbf000126-resize_1/000780_2014-06-08_22-28-29_260595134347_rgbf000126-resize_1-target.png,250,3.3825,0.5,15962,250,meters,jsons/v1_VE250_randls_45_rotated.json,1184715,1396598,26,Man
7,354578,DepthScenes,duration_manipulation_targetAtFixation,jsons/v1_VE250_randls_45_rotated.json,http://54.235.29.9/FacialAge/BNav_EC2/DepthDuration/v2_depth_duration_MTurk/v2_DepthDuration_HTML.html#444,444,779,439,1364,768,8-29-2022,14-26-19,8,depth_duration_stimuli/002445_2014-06-28_20-32-16_260595134347_rgbf000029-resize_4/002445_2014-06-28_20-32-16_260595134347_rgbf000029-resize_4-target.png,250,2.5315,0.5,5705,253,meters,jsons/v1_VE250_randls_45_rotated.json,1184715,1396598,26,Man
8,354578,DepthScenes,duration_manipulation_targetAtFixation,jsons/v1_VE250_randls_45_rotated.json,http://54.235.29.9/FacialAge/BNav_EC2/DepthDuration/v2_depth_duration_MTurk/v2_DepthDuration_HTML.html#444,444,779,439,1364,768,8-29-2022,14-26-19,9,depth_duration_stimuli/001828_2014-06-26_21-40-03_260595134347_rgbf000024-resize_0/001828_2014-06-26_21-40-03_260595134347_rgbf000024-resize_0-target.png,250,4.8260000000000005,2.0,4687,252,meters,jsons/v1_VE250_randls_45_rotated.json,1184715,1396598,26,Man
9,354578,DepthScenes,duration_manipulation_targetAtFixation,jsons/v1_VE250_randls_45_rotated.json,http://54.235.29.9/FacialAge/BNav_EC2/DepthDuration/v2_depth_duration_MTurk/v2_DepthDuration_HTML.html#444,444,779,439,1364,768,8-29-2022,14-26-19,10,depth_duration_stimuli/000009_2014-05-26_14-32-05_260595134347_rgbf000034-resize_3/000009_2014-05-26_14-32-05_260595134347_rgbf000034-resize_3-target.png,250,3.8715,1.0,3112,238,meters,jsons/v1_VE250_randls_45_rotated.json,1184715,1396598,26,Man
10,354578,DepthScenes,duration_manipulation_targetAtFixation,jsons/v1_VE250_randls_45_rotated.json,http://54.235.29.9/FacialAge/BNav_EC2/DepthDuration/v2_depth_duration_MTurk/v2_DepthDuration_HTML.html#444,444,779,439,1364,768,8-29-2022,14-26-19,11,depth_duration_stimuli/001584_2014-06-20_11-07-43_260595134347_rgbf000002-resize_1/001584_2014-06-20_11-07-43_260595134347_rgbf000002-resize_1-target.png,250,3.53,2.0,2947,249,meters,jsons/v1_VE250_randls_45_rotated.json,1184715,1396598,26,Man
11,354578,DepthScenes,duration_manipulation_targetAtFixation,jsons/v1_VE250_randls_45_rotated.json,http://54.235.29.9/FacialAge/BNav_EC2/DepthDuration/v2_depth_duration_MTurk/v2_DepthDuration_HTML.html#444,444,779,439,1364,768,8-29-2022,14-26-19,12,depth_duration_stimuli/003621_2014-05-23_18-06-08_094959634447_rgbf000101-resize_1/003621_2014-05-23_18-06-08_094959634447_rgbf000101-resize_1-target.png,250,3.9835,3.0,3712,250,meters,jsons/v1_VE250_randls_45_rotated.json,1184715,1396598,26,Man
12,354578,DepthScenes,duration_manipulation_targetAtFixation,jsons/v1_VE250_randls_45_rotated.json,http://54.235.29.9/FacialAge/BNav_EC2/DepthDuration/v2_depth_duration_MTurk/v2_DepthDuration_HTML.html#444,444,779,439,1364,768,8-29-2022,14-26-19,13,depth_duration_stimuli/002678_2014-06-13_16-15-32_094959634447_rgbf000151-resize_6/002678_2014-06-13_16-15-32_094959634447_rgbf000151-resize_6-target.png,250,2.1830000000000003,3.5,4407,261,meters,jsons/v1_VE250_randls_45_rotated.json,1184715,1396598,26,Man
13,354578,DepthScenes,duration_manipulation_targetAtFixation,jsons/v1_VE250_randls_45_rotated.json,http://54.235.29.9/FacialAge/BNav_EC2/DepthDuration/v2_depth_duration_MTurk/v2_DepthDuration_HTML.html#444,444,779,439,1364,768,8-29-2022,14-26-19,14,depth_duration_stimuli/000368_2014-06-09_15-53-01_260595134347_rgbf000155-resize_2/000368_2014-06-09_15-53-01_260595134347_rgbf000155-resize_2-target.png,250,2.4859999999999998,4.0,3881,248,meters,jsons/v1_VE250_randls_45_rotated.json,1184715,1396598,26,Man
14,354578,DepthScenes,duration_manipulation_targetAtFixation,jsons/v1_VE250_randls_45_rotated.json,http://54.235.29.9/FacialAge/BNav_EC2/DepthDuration/v2_depth_duration_MTurk/v2_DepthDuration_HTML.html#444,444,779,439,1364,768,8-29-2022,14-26-19,15,depth_duration_stimuli/001136_2014-06-17_15-19-41_260595134347_rgbf000076-resize_3/001136_2014-06-17_15-19-41_260595134347_rgbf000076-resize_3-target.png,250,1.8655,3.0,4067,98,meters,jsons/v1_VE250_randls_45_rotated.json,1184715,1396598,26,Man
15,354578,DepthScenes,duration_manipulation_targetAtFixation,jsons/v1_VE250_randls_45_rotated.json,http://54.235.29.9/FacialAge/BNav_EC2/DepthDuration/v2_depth_duration_MTurk/v2_DepthDuration_HTML.html#444,444,779,439,1364,768,8-29-2022,14-26-19,16,depth_duration_stimuli/001164_2014-06-17_15-35-46_260595134347_rgbf000085-resize_3/001164_2014-06-17_15-35-46_260595134347_rgbf000085-resize_3-target.png,250,2.354,0.0,3866,215,meters,jsons/v1_VE250_randls_45_rotated.json,1184715,1396598,26,Man
16,354578,DepthScenes,duration_manipulation_targetAtFixation,jsons/v1_VE250_randls_45_rotated.json,http://54.235.29.9/FacialAge/BNav_EC2/DepthDuration/v2_depth_duration_MTurk/v2_DepthDuration_HTML.html#444,444,779,439,1364,768,8-29-2022,14-26-19,17,depth_duration_stimuli/003079_2014-06-15_15-18-20_094959634447_rgbf000152-resize_8/003079_2014-06-15_15-18-20_094959634447_rgbf000152-resize_8-target.png,250,2.8775,0.5,4732,242,meters,jsons/v1_VE250_randls_45_rotated.json,1184715,1396598,26,Man
17,354578,DepthScenes,duration_manipulation_targetAtFixation,jsons/v1_VE250_randls_45_rotated.json,http://54.235.29.9/FacialAge/BNav_EC2/DepthDuration/v2_depth_duration_MTurk/v2_DepthDuration_HTML.html#444,444,779,439,1364,768,8-29-2022,14-26-19,18,depth_duration_stimuli/000506_2014-06-08_23-21-00_260595134347_rgbf000070-resize_7/000506_2014-06-08_23-21-00_260595134347_rgbf000070-resize_7-target.png,250,4.0585,0.0,3338,243,meters,jsons/v1_VE250_randls_45_rotated.json,1184715,1396598,26,Man
18,354578,DepthScenes,duration_manipulation_targetAtFixation,jsons/v1_VE250_randls_45_rotated.json,http://54.235.29.9/FacialAge/BNav_EC2/DepthDuration/v2_depth_duration_MTurk/v2_DepthDuration_HTML.html#444,444,779,439,1364,768,8-29-2022,14-26-19,19,depth_duration_stimuli/001498_2014-06-19_17-45-14_260595134347_rgbf000129-resize_4/001498_2014-06-19_17-45-14_260595134347_rgbf000129-resize-original.jpg,250,1.4075,0.5,5234,276,meters,jsons/v1_VE250_randls_45_rotated.json,1184715,1396598,26,Man
19,354578,DepthScenes,duration_manipulation_targetAtFixation,jsons/v1_VE250_randls_45_rotated.json,http://54.235.29.9/FacialAge/BNav_EC2/DepthDuration/v2_depth_duration_MTurk/v2_DepthDuration_HTML.html#444,444,779,439,1364,768,8-29-2022,14-26-19,20,depth_duration_stimuli/000742_2014-06-08_18-48-09_260595134347_rgbf000164-resize_4/000742_2014-06-08_18-48-09_260595134347_rgbf000164-resize_4-target.png,250,4.632,1.5,5191,253,meters,jsons/v1_VE250_randls_45_rotated.json,1184715,1396598,26,Man
20,354578,DepthScenes,duration_manipulation_targetAtFixation,jsons/v1_VE250_randls_45_rotated.json,http://54.235.29.9/FacialAge/BNav_EC2/DepthDuration/v2_depth_duration_MTurk/v2_DepthDuration_HTML.html#444,444,779,439,1364,768,8-29-2022,14-26-19,21,depth_duration_stimuli/001066_2014-06-08_22-03-20_260595134347_rgbf000066-resize_4/001066_2014-06-08_22-03-20_260595134347_rgbf000066-resize_4-target.png,250,4.2330000000000005,0.5,206967,254,meters,jsons/v1_VE250_randls_45_rotated.json,1184715,1396598,26,Man
21,354578,DepthScenes,duration_manipulation_targetAtFixation,jsons/v1_VE250_randls_45_rotated.json,http://54.235.29.9/FacialAge/BNav_EC2/DepthDuration/v2_depth_duration_MTurk/v2_DepthDuration_HTML.html#444,444,779,439,1364,768,8-29-2022,14-26-19,22,depth_duration_stimuli/000665_2014-06-09_20-42-35_260595134347_rgbf000110-resize_1/000665_2014-06-09_20-42-35_260595134347_rgbf000110-resize_1-target.png,250,3.057,1.0,11471,249,meters,jsons/v1_VE250_randls_45_rotated.json,1184715,1396598,26,Man
22,354578,DepthScenes,duration_manipulation_targetAtFixation,jsons/v1_VE250_randls_45_rotated.json,http://54.235.29.9/FacialAge/BNav_EC2/DepthDuration/v2_depth_duration_MTurk/v2_DepthDuration_HTML.html#444,444,779,439,1364,768,8-29-2022,14-26-19,23,depth_duration_stimuli/001150_2014-06-17_15-27-34_260595134347_rgbf000108-resize_2/001150_2014-06-17_15-27-34_260595134347_rgbf000108-resize_2-target.png,250,4.0325,3.0,5981,249,meters,jsons/v1_VE250_randls_45_rotated.json,1184715,1396598,26,Man
23,354578,DepthScenes,duration_manipulation_targetAtFixation,jsons/v1_VE250_randls_45_rotated.json,http://54.235.29.9/FacialAge/BNav_EC2/DepthDuration/v2_depth_duration_MTurk/v2_DepthDuration_HTML.html#444,444,779,439,1364,768,8-29-2022,14-26-19,24,depth_duration_stimuli/000866_2014-06-09_20-45-42_260595134347_rgbf000139-resize_1/000866_2014-06-09_20-45-42_260595134347_rgbf000139-resize_1-target.png,250,3.2155,3.0,4612,231,meters,jsons/v1_VE250_randls_45_rotated.json,1184715,1396598,26,Man
24,354578,DepthScenes,duration_manipulation_targetAtFixation,jsons/v1_VE250_randls_45_rotated.json,http://54.235.29.9/FacialAge/BNav_EC2/DepthDuration/v2_depth_duration_MTurk/v2_DepthDuration_HTML.html#444,444,779,439,1364,768,8-29-2022,14-26-19,25,depth_duration_stimuli/002989_2014-06-15_12-25-03_094959634447_rgbf000150-resize_3/002989_2014-06-15_12-25-03_094959634447_rgbf000150-resize_3-target.png,250,4.1975,3.5,7899,248,meters,jsons/v1_VE250_randls_45_rotated.json,1184715,1396598,26,Man
25,354578,DepthScenes,duration_manipulation_targetAtFixation,jsons/v1_VE250_randls_45_rotated.json,http://54.235.29.9/FacialAge/BNav_EC2/DepthDuration/v2_depth_duration_MTurk/v2_DepthDuration_HTML.html#444,444,779,439,1364,768,8-29-2022,14-26-19,26,depth_duration_stimuli/000677_2014-06-08_23-10-32_260595134347_rgbf000158-resize_6/000677_2014-06-08_23-10-32_260595134347_rgbf000158-resize_6-target.png,250,3.556,4.0,6201,248,meters,jsons/v1_VE250_randls_45_rotated.json,1184715,1396598,26,Man
26,354578,DepthScenes,duration_manipulation_targetAtFixation,jsons/v1_VE250_randls_45_rotated.json,http://54.235.29.9/FacialAge/BNav_EC2/DepthDuration/v2_depth_duration_MTurk/v2_DepthDuration_HTML.html#444,444,779,439,1364,768,8-29-2022,14-26-19,27,depth_duration_stimuli/001029_2014-06-08_13-17-57_260595134347_rgbf000065-resize_1/001029_2014-06-08_13-17-57_260595134347_rgbf000065-resize_1-target.png,250,3.0835,2.0,4470,261,meters,jsons/v1_VE250_randls_45_rotated.json,1184715,1396598,26,Man
27,354578,DepthScenes,duration_manipulation_targetAtFixation,jsons/v1_VE250_randls_45_rotated.json,http://54.235.29.9/FacialAge/BNav_EC2/DepthDuration/v2_depth_duration_MTurk/v2_DepthDuration_HTML.html#444,444,779,439,1364,768,8-29-2022,14-26-19,28,depth_duration_stimuli/003423_2014-05-21_10-23-26_094959634447_rgbf002665-resize_2/003423_2014-05-21_10-23-26_094959634447_rgbf002665-resize_2-target.png,250,3.2575,5.0,6588,241,meters,jsons/v1_VE250_randls_45_rotated.json,1184715,1396598,26,Man
28,354578,DepthScenes,duration_manipulation_targetAtFixation,jsons/v1_VE250_randls_45_rotated.json,http://54.235.29.9/FacialAge/BNav_EC2/DepthDuration/v2_depth_duration_MTurk/v2_DepthDuration_HTML.html#444,444,779,439,1364,768,8-29-2022,14-26-19,29,depth_duration_stimuli/002905_2014-06-03_18-04-43_094959634447_rgbf000151-resize_2/002905_2014-06-03_18-04-43_094959634447_rgbf000151-resize_2-target.png,250,2.0295,4.0,4267,230,meters,jsons/v1_VE250_randls_45_rotated.json,1184715,1396598,26,Man
29,354578,DepthScenes,duration_manipulation_targetAtFixation,jsons/v1_VE250_randls_45_rotated.json,http://54.235.29.9/FacialAge/BNav_EC2/DepthDuration/v2_depth_duration_MTurk/v2_DepthDuration_HTML.html#444,444,779,439,1364,768,8-29-2022,14-26-19,30,depth_duration_stimuli/002072_2014-06-24_21-48-06_260595134347_rgbf000115-resize_0/002072_2014-06-24_21-48-06_260595134347_rgbf000115-resize-original.jpg,250,4.702,2.0,4487,273,meters,jsons/v1_VE250_randls_45_rotated.json,1184715,1396598,26,Man
30,354578,DepthScenes,duration_manipulation_targetAtFixation,jsons/v1_VE250_randls_45_rotated.json,http://54.235.29.9/FacialAge/BNav_EC2/DepthDuration/v2_depth_duration_MTurk/v2_DepthDuration_HTML.html#444,444,779,439,1364,768,8-29-2022,14-26-19,31,depth_duration_stimuli/002953_2014-06-08_17-32-18_094959634447_rgbf000059-resize_5/002953_2014-06-08_17-32-18_094959634447_rgbf000059-resize_5-target.png,250,1.551,1.5,8204,255,meters,jsons/v1_VE250_randls_45_rotated.json,1184715,1396598,26,Man
31,354578,DepthScenes,duration_manipulation_targetAtFixation,jsons/v1_VE250_randls_45_rotated.json,http://54.235.29.9/FacialAge/BNav_EC2/DepthDuration/v2_depth_duration_MTurk/v2_DepthDuration_HTML.html#444,444,779,439,1364,768,8-29-2022,14-26-19,32,depth_duration_stimuli/000878_2014-06-08_22-52-45_260595134347_rgbf000045-resize_2/000878_2014-06-08_22-52-45_260595134347_rgbf000045-resize_2-target.png,250,2.092,3.0,3958,251,meters,jsons/v1_VE250_randls_45_rotated.json,1184715,1396598,26,Man
32,354578,DepthScenes,duration_manipulation_targetAtFixation,jsons/v1_VE250_randls_45_rotated.json,http://54.235.29.9/FacialAge/BNav_EC2/DepthDuration/v2_depth_duration_MTurk/v2_DepthDuration_HTML.html#444,444,779,439,1364,768,8-29-2022,14-26-19,33,depth_duration_stimuli/001094_2014-06-15_17-36-00_260595134347_rgbf000205-resize_0/001094_2014-06-15_17-36-00_260595134347_rgbf000205-resize_0-target.png,250,4.2175,2.0,4858,242,meters,jsons/v1_VE250_randls_45_rotated.json,1184715,1396598,26,Man
33,354578,DepthScenes,duration_manipulation_targetAtFixation,jsons/v1_VE250_randls_45_rotated.json,http://54.235.29.9/FacialAge/BNav_EC2/DepthDuration/v2_depth_duration_MTurk/v2_DepthDuration_HTML.html#444,444,779,439,1364,768,8-29-2022,14-26-19,34,depth_duration_stimuli/000692_2014-06-08_13-09-42_260595134347_rgbf000199-resize_2/000692_2014-06-08_13-09-42_260595134347_rgbf000199-resize_2-target.png,250,3.661,4.0,4880,205,meters,jsons/v1_VE250_randls_45_rotated.json,1184715,1396598,26,Man
34,354578,DepthScenes,duration_manipulation_targetAtFixation,jsons/v1_VE250_randls_45_rotated.json,http://54.235.29.9/FacialAge/BNav_EC2/DepthDuration/v2_depth_duration_MTurk/v2_DepthDuration_HTML.html#444,444,779,439,1364,768,8-29-2022,14-26-19,35,depth_duration_stimuli/002545_2014-06-24_13-38-53_094959634447_rgbf000080-resize_4/002545_2014-06-24_13-38-53_094959634447_rgbf000080-resize_4-target.png,250,1.9205,3.0,7063,248,meters,jsons/v1_VE250_randls_45_rotated.json,1184715,1396598,26,Man
35,354578,DepthScenes,duration_manipulation_targetAtFixation,jsons/v1_VE250_randls_45_rotated.json,http://54.235.29.9/FacialAge/BNav_EC2/DepthDuration/v2_depth_duration_MTurk/v2_DepthDuration_HTML.html#444,444,779,439,1364,768,8-29-2022,14-26-19,36,depth_duration_stimuli/001092_2014-06-15_17-34-58_260595134347_rgbf000171-resize_3/001092_2014-06-15_17-34-58_260595134347_rgbf000171-resize_3-target.png,250,2.6935,3.0,7100,247,meters,jsons/v1_VE250_randls_45_rotated.json,1184715,1396598,26,Man
36,354578,DepthScenes,duration_manipulation_targetAtFixation,jsons/v1_VE250_randls_45_rotated.json,http://54.235.29.9/FacialAge/BNav_EC2/DepthDuration/v2_depth_duration_MTurk/v2_DepthDuration_HTML.html#444,444,779,439,1364,768,8-29-2022,14-26-19,37,depth_duration_stimuli/001447_2014-06-19_17-00-32_260595134347_rgbf000082-resize_5/001447_2014-06-19_17-00-32_260595134347_rgbf000082-resize_5-target.png,250,4.13775,1.5,11761,249,meters,jsons/v1_VE250_randls_45_rotated.json,1184715,1396598,26,Man
37,354578,DepthScenes,duration_manipulation_targetAtFixation,jsons/v1_VE250_randls_45_rotated.json,http://54.235.29.9/FacialAge/BNav_EC2/DepthDuration/v2_depth_duration_MTurk/v2_DepthDuration_HTML.html#444,444,779,439,1364,768,8-29-2022,14-26-19,38,depth_duration_stimuli/000447_2014-06-08_16-15-46_260595134347_rgbf000130-resize_1/000447_2014-06-08_16-15-46_260595134347_rgbf000130-resize_1-target.png,250,4.479,1.5,4946,252,meters,jsons/v1_VE250_randls_45_rotated.json,1184715,1396598,26,Man
38,354578,DepthScenes,duration_manipulation_targetAtFixation,jsons/v1_VE250_randls_45_rotated.json,http://54.235.29.9/FacialAge/BNav_EC2/DepthDuration/v2_depth_duration_MTurk/v2_DepthDuration_HTML.html#444,444,779,439,1364,768,8-29-2022,14-26-19,39,depth_duration_stimuli/002660_2014-06-13_15-44-18_094959634447_rgbf001878-resize_2/002660_2014-06-13_15-44-18_094959634447_rgbf001878-resize_2-target.png,250,3.576,0.5,6439,246,meters,jsons/v1_VE250_randls_45_rotated.json,1184715,1396598,26,Man
39,354578,DepthScenes,duration_manipulation_targetAtFixation,jsons/v1_VE250_randls_45_rotated.json,http://54.235.29.9/FacialAge/BNav_EC2/DepthDuration/v2_depth_duration_MTurk/v2_DepthDuration_HTML.html#444,444,779,439,1364,768,8-29-2022,14-26-19,40,depth_duration_stimuli/002153_2014-06-25_21-27-18_260595134347_rgbf000038-resize_5/002153_2014-06-25_21-27-18_260595134347_rgbf000038-resize_5-target.png,250,2.505,1.0,4303,251,meters,jsons/v1_VE250_randls_45_rotated.json,1184715,1396598,26,Man
40,354578,DepthScenes,duration_manipulation_targetAtFixation,jsons/v1_VE250_randls_45_rotated.json,http://54.235.29.9/FacialAge/BNav_EC2/DepthDuration/v2_depth_duration_MTurk/v2_DepthDuration_HTML.html#444,444,779,439,1364,768,8-29-2022,14-26-19,41,depth_duration_stimuli/000635_2014-06-08_16-38-42_260595134347_rgbf000106-resize_1/000635_2014-06-08_16-38-42_260595134347_rgbf000106-resize_1-target.png,250,2.074,2.0,3990,249,meters,jsons/v1_VE250_randls_45_rotated.json,1184715,1396598,26,Man
41,354578,DepthScenes,duration_manipulation_targetAtFixation,jsons/v1_VE250_randls_45_rotated.json,http://54.235.29.9/FacialAge/BNav_EC2/DepthDuration/v2_depth_duration_MTurk/v2_DepthDuration_HTML.html#444,444,779,439,1364,768,8-29-2022,14-26-19,42,depth_duration_stimuli/002279_2014-06-28_18-55-32_260595134347_rgbf000040-resize_5/002279_2014-06-28_18-55-32_260595134347_rgbf000040-resize_5-target.png,250,1.5043333333333,1.5,9140,250,meters,jsons/v1_VE250_randls_45_rotated.json,1184715,1396598,26,Man
42,354578,DepthScenes,duration_manipulation_targetAtFixation,jsons/v1_VE250_randls_45_rotated.json,http://54.235.29.9/FacialAge/BNav_EC2/DepthDuration/v2_depth_duration_MTurk/v2_DepthDuration_HTML.html#444,444,779,439,1364,768,8-29-2022,14-26-19,43,depth_duration_stimuli/003587_2014-05-23_16-48-02_094959634447_rgbf002384-resize_2/003587_2014-05-23_16-48-02_094959634447_rgbf002384-resize_2-target.png,250,1.357,0.5,148034,253,meters,jsons/v1_VE250_randls_45_rotated.json,1184715,1396598,26,Man
43,354578,DepthScenes,duration_manipulation_targetAtFixation,jsons/v1_VE250_randls_45_rotated.json,http://54.235.29.9/FacialAge/BNav_EC2/DepthDuration/v2_depth_duration_MTurk/v2_DepthDuration_HTML.html#444,444,779,439,1364,768,8-29-2022,14-26-19,44,depth_duration_stimuli/001167_2014-06-17_15-38-07_260595134347_rgbf000108-resize_0/001167_2014-06-17_15-38-07_260595134347_rgbf000108-resize_0-target.png,250,1.8505,0.5,7713,254,meters,jsons/v1_VE250_randls_45_rotated.json,1184715,1396598,26,Man
44,354578,DepthScenes,duration_manipulation_targetAtFixation,jsons/v1_VE250_randls_45_rotated.json,http://54.235.29.9/FacialAge/BNav_EC2/DepthDuration/v2_depth_duration_MTurk/v2_DepthDuration_HTML.html#444,444,779,439,1364,768,8-29-2022,14-26-19,45,depth_duration_stimuli/002199_2014-06-28_18-33-56_260595134347_rgbf000074-resize_0/002199_2014-06-28_18-33-56_260595134347_rgbf000074-resize_0-target.png,250,1.996,1.0,5453,249,meters,jsons/v1_VE250_randls_45_rotated.json,1184715,1396598,26,Man
45,354578,DepthScenes,duration_manipulation_targetAtFixation,jsons/v1_VE250_randls_45_rotated.json,http://54.235.29.9/FacialAge/BNav_EC2/DepthDuration/v2_depth_duration_MTurk/v2_DepthDuration_HTML.html#444,444,779,439,1364,768,8-29-2022,14-26-19,46,depth_duration_stimuli/001056_2014-06-08_18-46-44_260595134347_rgbf000068-resize_0/001056_2014-06-08_18-46-44_260595134347_rgbf000068-resize_0-target.png,250,2.6625,3.0,17409,342,meters,jsons/v1_VE250_randls_45_rotated.json,1184715,1396598,26,Man
46,354578,DepthScenes,duration_manipulation_targetAtFixation,jsons/v1_VE250_randls_45_rotated.json,http://54.235.29.9/FacialAge/BNav_EC2/DepthDuration/v2_depth_duration_MTurk/v2_DepthDuration_HTML.html#444,444,779,439,1364,768,8-29-2022,14-26-19,47,depth_duration_stimuli/002136_2014-06-25_21-18-03_260595134347_rgbf000109-resize_3/002136_2014-06-25_21-18-03_260595134347_rgbf000109-resize_3-target.png,250,1.9569999999999999,2.0,5491,208,meters,jsons/v1_VE250_randls_45_rotated.json,1184715,1396598,26,Man
47,354578,DepthScenes,duration_manipulation_targetAtFixation,jsons/v1_VE250_randls_45_rotated.json,http://54.235.29.9/FacialAge/BNav_EC2/DepthDuration/v2_depth_duration_MTurk/v2_DepthDuration_HTML.html#444,444,779,439,1364,768,8-29-2022,14-26-19,48,depth_duration_stimuli/002964_2014-06-08_17-46-11_094959634447_rgbf000091-resize_4/002964_2014-06-08_17-46-11_094959634447_rgbf000091-resize_4-target.png,250,1.6909999999999998,3.0,3615,257,meters,jsons/v1_VE250_randls_45_rotated.json,1184715,1396598,26,Man
48,354578,DepthScenes,duration_manipulation_targetAtFixation,jsons/v1_VE250_randls_45_rotated.json,http://54.235.29.9/FacialAge/BNav_EC2/DepthDuration/v2_depth_duration_MTurk/v2_DepthDuration_HTML.html#444,444,779,439,1364,768,8-29-2022,14-26-19,49,depth_duration_stimuli/001170_2014-06-17_15-43-44_260595134347_rgbf000096-resize_6/001170_2014-06-17_15-43-44_260595134347_rgbf000096-resize-original.jpg,250,1.1909999999999998,1.0,3822,258,meters,jsons/v1_VE250_randls_45_rotated.json,1184715,1396598,26,Man
49,354578,DepthScenes,duration_manipulation_targetAtFixation,jsons/v1_VE250_randls_45_rotated.json,http://54.235.29.9/FacialAge/BNav_EC2/DepthDuration/v2_depth_duration_MTurk/v2_DepthDuration_HTML.html#444,444,779,439,1364,768,8-29-2022,14-26-19,50,depth_duration_stimuli/000483_2014-06-09_20-41-45_260595134347_rgbf000116-resize_4/000483_2014-06-09_20-41-45_260595134347_rgbf000116-resize_4-target.png,250,1.337,0.5,5357,248,meters,jsons/v1_VE250_randls_45_rotated.json,1184715,1396598,26,Man
50,354578,DepthScenes,duration_manipulation_targetAtFixation,jsons/v1_VE250_randls_45_rotated.json,http://54.235.29.9/FacialAge/BNav_EC2/DepthDuration/v2_depth_duration_MTurk/v2_DepthDuration_HTML.html#444,444,779,439,1364,768,8-29-2022,14-26-19,51,depth_duration_stimuli/000469_2014-06-09_19-42-10_260595134347_rgbf000081-resize_1/000469_2014-06-09_19-42-10_260595134347_rgbf000081-resize_1-target.png,250,1.652,1.0,3585,249,meters,jsons/v1_VE250_randls_45_rotated.json,1184715,1396598,26,Man
51,354578,DepthScenes,duration_manipulation_targetAtFixation,jsons/v1_VE250_randls_45_rotated.json,http://54.235.29.9/FacialAge/BNav_EC2/DepthDuration/v2_depth_duration_MTurk/v2_DepthDuration_HTML.html#444,444,779,439,1364,768,8-29-2022,14-26-19,52,depth_duration_stimuli/000549_2014-06-08_22-10-24_260595134347_rgbf000247-resize_3/000549_2014-06-08_22-10-24_260595134347_rgbf000247-resize_3-target.png,250,1.841,2.0,3397,214,meters,jsons/v1_VE250_randls_45_rotated.json,1184715,1396598,26,Man
52,354578,DepthScenes,duration_manipulation_targetAtFixation,jsons/v1_VE250_randls_45_rotated.json,http://54.235.29.9/FacialAge/BNav_EC2/DepthDuration/v2_depth_duration_MTurk/v2_DepthDuration_HTML.html#444,444,779,439,1364,768,8-29-2022,14-26-19,53,depth_duration_stimuli/001055_2014-06-08_18-45-35_260595134347_rgbf000111-resize_4/001055_2014-06-08_18-45-35_260595134347_rgbf000111-resize_4-target.png,250,2.4290000000000003,3.0,3160,250,meters,jsons/v1_VE250_randls_45_rotated.json,1184715,1396598,26,Man
53,354578,DepthScenes,duration_manipulation_targetAtFixation,jsons/v1_VE250_randls_45_rotated.json,http://54.235.29.9/FacialAge/BNav_EC2/DepthDuration/v2_depth_duration_MTurk/v2_DepthDuration_HTML.html#444,444,779,439,1364,768,8-29-2022,14-26-19,54,depth_duration_stimuli/002323_2014-06-28_20-01-54_260595134347_rgbf000051-resize_4/002323_2014-06-28_20-01-54_260595134347_rgbf000051-resize_4-target.png,250,3.7310000000000003,4.0,5016,245,meters,jsons/v1_VE250_randls_45_rotated.json,1184715,1396598,26,Man
54,354578,DepthScenes,duration_manipulation_targetAtFixation,jsons/v1_VE250_randls_45_rotated.json,http://54.235.29.9/FacialAge/BNav_EC2/DepthDuration/v2_depth_duration_MTurk/v2_DepthDuration_HTML.html#444,444,779,439,1364,768,8-29-2022,14-26-19,55,depth_duration_stimuli/000917_2014-06-09_22-45-29_260595134347_rgbf000149-resize_3/000917_2014-06-09_22-45-29_260595134347_rgbf000149-resize_3-target.png,250,4.1865,2.0,3436,250,meters,jsons/v1_VE250_randls_45_rotated.json,1184715,1396598,26,Man
55,354578,DepthScenes,duration_manipulation_targetAtFixation,jsons/v1_VE250_randls_45_rotated.json,http://54.235.29.9/FacialAge/BNav_EC2/DepthDuration/v2_depth_duration_MTurk/v2_DepthDuration_HTML.html#444,444,779,439,1364,768,8-29-2022,14-26-19,56,depth_duration_stimuli/002758_2014-06-22_19-11-20_094959634447_rgbf000128-resize_1/002758_2014-06-22_19-11-20_094959634447_rgbf000128-resize_1-target.png,250,2.555,1.0,5622,249,meters,jsons/v1_VE250_randls_45_rotated.json,1184715,1396598,26,Man
56,354578,DepthScenes,duration_manipulation_targetAtFixation,jsons/v1_VE250_randls_45_rotated.json,http://54.235.29.9/FacialAge/BNav_EC2/DepthDuration/v2_depth_duration_MTurk/v2_DepthDuration_HTML.html#444,444,779,439,1364,768,8-29-2022,14-26-19,57,depth_duration_stimuli/002630_2014-06-24_14-47-50_094959634447_rgbf000055-resize_1/002630_2014-06-24_14-47-50_094959634447_rgbf000055-resize_1-target.png,250,3.0095,1.0,2956,248,meters,jsons/v1_VE250_randls_45_rotated.json,1184715,1396598,26,Man
57,354578,DepthScenes,duration_manipulation_targetAtFixation,jsons/v1_VE250_randls_45_rotated.json,http://54.235.29.9/FacialAge/BNav_EC2/DepthDuration/v2_depth_duration_MTurk/v2_DepthDuration_HTML.html#444,444,779,439,1364,768,8-29-2022,14-26-19,58,depth_duration_stimuli/002340_2014-06-28_20-05-46_260595134347_rgbf000113-resize_0/002340_2014-06-28_20-05-46_260595134347_rgbf000113-resize_0-target.png,250,2.4735,3.0,4382,251,meters,jsons/v1_VE250_randls_45_rotated.json,1184715,1396598,26,Man
58,354578,DepthScenes,duration_manipulation_targetAtFixation,jsons/v1_VE250_randls_45_rotated.json,http://54.235.29.9/FacialAge/BNav_EC2/DepthDuration/v2_depth_duration_MTurk/v2_DepthDuration_HTML.html#444,444,779,439,1364,768,8-29-2022,14-26-19,59,depth_duration_stimuli/001016_2014-06-09_16-16-10_260595134347_rgbf000112-resize_5/001016_2014-06-09_16-16-10_260595134347_rgbf000112-resize_5-target.png,250,1.6565,3.0,5346,256,meters,jsons/v1_VE250_randls_45_rotated.json,1184715,1396598,26,Man
59,354578,DepthScenes,duration_manipulation_targetAtFixation,jsons/v1_VE250_randls_45_rotated.json,http://54.235.29.9/FacialAge/BNav_EC2/DepthDuration/v2_depth_duration_MTurk/v2_DepthDuration_HTML.html#444,444,779,439,1364,768,8-29-2022,14-26-19,60,depth_duration_stimuli/000502_2014-06-08_23-02-32_260595134347_rgbf000063-resize_4/000502_2014-06-08_23-02-32_260595134347_rgbf000063-resize_4-target.png,250,2.431,2.0,4198,341,meters,jsons/v1_VE250_randls_45_rotated.json,1184715,1396598,26,Man
60,354578,DepthScenes,duration_manipulation_targetAtFixation,jsons/v1_VE250_randls_45_rotated.json,http://54.235.29.9/FacialAge/BNav_EC2/DepthDuration/v2_depth_duration_MTurk/v2_DepthDuration_HTML.html#444,444,779,439,1364,768,8-29-2022,14-26-19,61,depth_duration_stimuli/001199_2014-06-17_16-03-48_260595134347_rgbf000077-resize_0/001199_2014-06-17_16-03-48_260595134347_rgbf000077-resize_0-target.png,250,3.4375,3.0,2964,339,meters,jsons/v1_VE250_randls_45_rotated.json,1184715,1396598,26,Man
61,354578,DepthScenes,duration_manipulation_targetAtFixation,jsons/v1_VE250_randls_45_rotated.json,http://54.235.29.9/FacialAge/BNav_EC2/DepthDuration/v2_depth_duration_MTurk/v2_DepthDuration_HTML.html#444,444,779,439,1364,768,8-29-2022,14-26-19,62,depth_duration_stimuli/003490_2014-05-21_15-50-11_094959634447_rgbf000101-resize_3/003490_2014-05-21_15-50-11_094959634447_rgbf000101-resize_3-target.png,250,3.6445,4.0,3759,280,meters,jsons/v1_VE250_randls_45_rotated.json,1184715,1396598,26,Man
62,354578,DepthScenes,duration_manipulation_targetAtFixation,jsons/v1_VE250_randls_45_rotated.json,http://54.235.29.9/FacialAge/BNav_EC2/DepthDuration/v2_depth_duration_MTurk/v2_DepthDuration_HTML.html#444,444,779,439,1364,768,8-29-2022,14-26-19,63,depth_duration_stimuli/001175_2014-06-17_15-45-55_260595134347_rgbf000129-resize_4/001175_2014-06-17_15-45-55_260595134347_rgbf000129-resize_4-target.png,250,4.255,3.0,3782,326,meters,jsons/v1_VE250_randls_45_rotated.json,1184715,1396598,26,Man
63,354578,DepthScenes,duration_manipulation_targetAtFixation,jsons/v1_VE250_randls_45_rotated.json,http://54.235.29.9/FacialAge/BNav_EC2/DepthDuration/v2_depth_duration_MTurk/v2_DepthDuration_HTML.html#444,444,779,439,1364,768,8-29-2022,14-26-19,64,depth_duration_stimuli/000191_2014-05-12_17-07-38_260595134347_rgbf000199-resize_0/000191_2014-05-12_17-07-38_260595134347_rgbf000199-resize_0-target.png,250,3.7995,5.0,3581,251,meters,jsons/v1_VE250_randls_45_rotated.json,1184715,1396598,26,Man
64,354578,DepthScenes,duration_manipulation_targetAtFixation,jsons/v1_VE250_randls_45_rotated.json,http://54.235.29.9/FacialAge/BNav_EC2/DepthDuration/v2_depth_duration_MTurk/v2_DepthDuration_HTML.html#444,444,779,439,1364,768,8-29-2022,14-26-19,65,depth_duration_stimuli/000493_2014-06-09_21-01-18_260595134347_rgbf000196-resize_3/000493_2014-06-09_21-01-18_260595134347_rgbf000196-resize_3-target.png,250,3.44,6.0,4324,252,meters,jsons/v1_VE250_randls_45_rotated.json,1184715,1396598,26,Man
65,354578,DepthScenes,duration_manipulation_targetAtFixation,jsons/v1_VE250_randls_45_rotated.json,http://54.235.29.9/FacialAge/BNav_EC2/DepthDuration/v2_depth_duration_MTurk/v2_DepthDuration_HTML.html#444,444,779,439,1364,768,8-29-2022,14-26-19,66,depth_duration_stimuli/001540_2014-06-20_17-01-05_260595134347_rgbf000086-resize_2/001540_2014-06-20_17-01-05_260595134347_rgbf000086-resize-original.jpg,250,1.459,2.0,16696,254,meters,jsons/v1_VE250_randls_45_rotated.json,1184715,1396598,26,Man
66,354578,DepthScenes,duration_manipulation_targetAtFixation,jsons/v1_VE250_randls_45_rotated.json,http://54.235.29.9/FacialAge/BNav_EC2/DepthDuration/v2_depth_duration_MTurk/v2_DepthDuration_HTML.html#444,444,779,439,1364,768,8-29-2022,14-26-19,67,depth_duration_stimuli/001392_2014-06-19_16-07-59_260595134347_rgbf000046-resize_1/001392_2014-06-19_16-07-59_260595134347_rgbf000046-resize_1-target.png,250,4.135,3.0,4818,250,meters,jsons/v1_VE250_randls_45_rotated.json,1184715,1396598,26,Man
67,354578,DepthScenes,duration_manipulation_targetAtFixation,jsons/v1_VE250_randls_45_rotated.json,http://54.235.29.9/FacialAge/BNav_EC2/DepthDuration/v2_depth_duration_MTurk/v2_DepthDuration_HTML.html#444,444,779,439,1364,768,8-29-2022,14-26-19,68,depth_duration_stimuli/001570_2014-06-20_17-21-09_260595134347_rgbf000135-resize_4/001570_2014-06-20_17-21-09_260595134347_rgbf000135-resize_4-target.png,250,4.467,3.0,3104,250,meters,jsons/v1_VE250_randls_45_rotated.json,1184715,1396598,26,Man
68,354578,DepthScenes,duration_manipulation_targetAtFixation,jsons/v1_VE250_randls_45_rotated.json,http://54.235.29.9/FacialAge/BNav_EC2/DepthDuration/v2_depth_duration_MTurk/v2_DepthDuration_HTML.html#444,444,779,439,1364,768,8-29-2022,14-26-19,69,depth_duration_stimuli/000734_2014-06-08_17-39-11_260595134347_rgbf000128-resize_2/000734_2014-06-08_17-39-11_260595134347_rgbf000128-resize_2-target.png,250,4.098,2.0,4283,250,meters,jsons/v1_VE250_randls_45_rotated.json,1184715,1396598,26,Man
69,354578,DepthScenes,duration_manipulation_targetAtFixation,jsons/v1_VE250_randls_45_rotated.json,http://54.235.29.9/FacialAge/BNav_EC2/DepthDuration/v2_depth_duration_MTurk/v2_DepthDuration_HTML.html#444,444,779,439,1364,768,8-29-2022,14-26-19,70,depth_duration_stimuli/000739_2014-06-08_18-45-58_260595134347_rgbf000068-resize_1/000739_2014-06-08_18-45-58_260595134347_rgbf000068-resize_1-target.png,250,3.534,2.0,3769,248,meters,jsons/v1_VE250_randls_45_rotated.json,1184715,1396598,26,Man
70,354578,DepthScenes,duration_manipulation_targetAtFixation,jsons/v1_VE250_randls_45_rotated.json,http://54.235.29.9/FacialAge/BNav_EC2/DepthDuration/v2_depth_duration_MTurk/v2_DepthDuration_HTML.html#444,444,779,439,1364,768,8-29-2022,14-26-19,71,depth_duration_stimuli/003338_2014-05-20_11-01-23_094959634447_rgbf000051-resize_6/003338_2014-05-20_11-01-23_094959634447_rgbf000051-resize_6-target.png,250,1.693,3.0,3551,220,meters,jsons/v1_VE250_randls_45_rotated.json,1184715,1396598,26,Man
71,354578,DepthScenes,duration_manipulation_targetAtFixation,jsons/v1_VE250_randls_45_rotated.json,http://54.235.29.9/FacialAge/BNav_EC2/DepthDuration/v2_depth_duration_MTurk/v2_DepthDuration_HTML.html#444,444,779,439,1364,768,8-29-2022,14-26-19,72,depth_duration_stimuli/002509_2014-06-24_13-19-22_094959634447_rgbf000077-resize_0/002509_2014-06-24_13-19-22_094959634447_rgbf000077-resize_0-target.png,250,1.3065,3.0,2929,265,meters,jsons/v1_VE250_randls_45_rotated.json,1184715,1396598,26,Man
72,354578,DepthScenes,duration_manipulation_targetAtFixation,jsons/v1_VE250_randls_45_rotated.json,http://54.235.29.9/FacialAge/BNav_EC2/DepthDuration/v2_depth_duration_MTurk/v2_DepthDuration_HTML.html#444,444,779,439,1364,768,8-29-2022,14-26-19,73,depth_duration_stimuli/001100_2014-06-15_17-46-26_260595134347_rgbf000225-resize_2/001100_2014-06-15_17-46-26_260595134347_rgbf000225-resize_2-target.png,250,2.24,2.0,3719,243,meters,jsons/v1_VE250_randls_45_rotated.json,1184715,1396598,26,Man
73,354578,DepthScenes,duration_manipulation_targetAtFixation,jsons/v1_VE250_randls_45_rotated.json,http://54.235.29.9/FacialAge/BNav_EC2/DepthDuration/v2_depth_duration_MTurk/v2_DepthDuration_HTML.html#444,444,779,439,1364,768,8-29-2022,14-26-19,74,depth_duration_stimuli/002784_2014-06-22_19-26-30_094959634447_rgbf000083-resize_3/002784_2014-06-22_19-26-30_094959634447_rgbf000083-resize_3-target.png,250,1.8046666666667,2.0,9344,246,meters,jsons/v1_VE250_randls_45_rotated.json,1184715,1396598,26,Man
74,354578,DepthScenes,duration_manipulation_targetAtFixation,jsons/v1_VE250_randls_45_rotated.json,http://54.235.29.9/FacialAge/BNav_EC2/DepthDuration/v2_depth_duration_MTurk/v2_DepthDuration_HTML.html#444,444,779,439,1364,768,8-29-2022,14-26-19,75,depth_duration_stimuli/003010_2014-06-15_12-54-35_094959634447_rgbf000112-resize_0/003010_2014-06-15_12-54-35_094959634447_rgbf000112-resize_0-target.png,250,3.1185,2.0,8748,248,meters,jsons/v1_VE250_randls_45_rotated.json,1184715,1396598,26,Man
75,354578,DepthScenes,duration_manipulation_targetAtFixation,jsons/v1_VE250_randls_45_rotated.json,http://54.235.29.9/FacialAge/BNav_EC2/DepthDuration/v2_depth_duration_MTurk/v2_DepthDuration_HTML.html#444,444,779,439,1364,768,8-29-2022,14-26-19,76,depth_duration_stimuli/001810_2014-06-26_20-51-35_260595134347_rgbf000040-resize_3/001810_2014-06-26_20-51-35_260595134347_rgbf000040-resize_3-target.png,250,2.2525,3.0,3934,296,meters,jsons/v1_VE250_randls_45_rotated.json,1184715,1396598,26,Man
76,354578,DepthScenes,duration_manipulation_targetAtFixation,jsons/v1_VE250_randls_45_rotated.json,http://54.235.29.9/FacialAge/BNav_EC2/DepthDuration/v2_depth_duration_MTurk/v2_DepthDuration_HTML.html#444,444,779,439,1364,768,8-29-2022,14-26-19,77,depth_duration_stimuli/002657_2014-06-13_15-29-54_094959634447_rgbf000150-resize_1/002657_2014-06-13_15-29-54_094959634447_rgbf000150-resize_1-target.png,250,4.919,1.0,4266,251,meters,jsons/v1_VE250_randls_45_rotated.json,1184715,1396598,26,Man
77,354578,DepthScenes,duration_manipulation_targetAtFixation,jsons/v1_VE250_randls_45_rotated.json,http://54.235.29.9/FacialAge/BNav_EC2/DepthDuration/v2_depth_duration_MTurk/v2_DepthDuration_HTML.html#444,444,779,439,1364,768,8-29-2022,14-26-19,78,depth_duration_stimuli/002375_2014-06-28_20-13-44_260595134347_rgbf000032-resize_1/002375_2014-06-28_20-13-44_260595134347_rgbf000032-resize_1-target.png,250,4.0175,2.0,2981,249,meters,jsons/v1_VE250_randls_45_rotated.json,1184715,1396598,26,Man
78,354578,DepthScenes,duration_manipulation_targetAtFixation,jsons/v1_VE250_randls_45_rotated.json,http://54.235.29.9/FacialAge/BNav_EC2/DepthDuration/v2_depth_duration_MTurk/v2_DepthDuration_HTML.html#444,444,779,439,1364,768,8-29-2022,14-26-19,79,depth_duration_stimuli/003081_2014-06-15_15-19-16_094959634447_rgbf000150-resize_1/003081_2014-06-15_15-19-16_094959634447_rgbf000150-resize_1-target.png,250,3.9125,3.0,3592,248,meters,jsons/v1_VE250_randls_45_rotated.json,1184715,1396598,26,Man
79,354578,DepthScenes,duration_manipulation_targetAtFixation,jsons/v1_VE250_randls_45_rotated.json,http://54.235.29.9/FacialAge/BNav_EC2/DepthDuration/v2_depth_duration_MTurk/v2_DepthDuration_HTML.html#444,444,779,439,1364,768,8-29-2022,14-26-19,80,depth_duration_stimuli/001417_2014-06-19_16-25-36_260595134347_rgbf000115-resize_5/001417_2014-06-19_16-25-36_260595134347_rgbf000115-resize_5-target.png,250,4.6255,1.0,3004,244,meters,jsons/v1_VE250_randls_45_rotated.json,1184715,1396598,26,Man
80,354578,DepthScenes,duration_manipulation_targetAtFixation,jsons/v1_VE250_randls_45_rotated.json,http://54.235.29.9/FacialAge/BNav_EC2/DepthDuration/v2_depth_duration_MTurk/v2_DepthDuration_HTML.html#444,444,779,439,1364,768,8-29-2022,14-26-19,81,depth_duration_stimuli/000409_2014-06-04_19-23-33_260595134347_rgbf000067-resize_0/000409_2014-06-04_19-23-33_260595134347_rgbf000067-resize_0-target.png,250,3.7335,2.0,3787,396,meters,jsons/v1_VE250_randls_45_rotated.json,1184715,1396598,26,Man
81,354578,DepthScenes,duration_manipulation_targetAtFixation,jsons/v1_VE250_randls_45_rotated.json,http://54.235.29.9/FacialAge/BNav_EC2/DepthDuration/v2_depth_duration_MTurk/v2_DepthDuration_HTML.html#444,444,779,439,1364,768,8-29-2022,14-26-19,82,depth_duration_stimuli/002663_2014-06-13_15-50-26_094959634447_rgbf000075-resize_1/002663_2014-06-13_15-50-26_094959634447_rgbf000075-resize_1-target.png,250,4.7495,3.0,3062,249,meters,jsons/v1_VE250_randls_45_rotated.json,1184715,1396598,26,Man
82,354578,DepthScenes,duration_manipulation_targetAtFixation,jsons/v1_VE250_randls_45_rotated.json,http://54.235.29.9/FacialAge/BNav_EC2/DepthDuration/v2_depth_duration_MTurk/v2_DepthDuration_HTML.html#444,444,779,439,1364,768,8-29-2022,14-26-19,83,depth_duration_stimuli/000109_2014-05-14_23-41-52_260595134347_rgbf000035-resize_9/000109_2014-05-14_23-41-52_260595134347_rgbf000035-resize_9-target.png,250,1.3545,1.0,2962,250,meters,jsons/v1_VE250_randls_45_rotated.json,1184715,1396598,26,Man
83,354578,DepthScenes,duration_manipulation_targetAtFixation,jsons/v1_VE250_randls_45_rotated.json,http://54.235.29.9/FacialAge/BNav_EC2/DepthDuration/v2_depth_duration_MTurk/v2_DepthDuration_HTML.html#444,444,779,439,1364,768,8-29-2022,14-26-19,84,depth_duration_stimuli/000470_2014-06-09_19-42-40_260595134347_rgbf000094-resize_1/000470_2014-06-09_19-42-40_260595134347_rgbf000094-resize_1-target.png,250,1.831,2.0,4127,251,meters,jsons/v1_VE250_randls_45_rotated.json,1184715,1396598,26,Man
84,354578,DepthScenes,duration_manipulation_targetAtFixation,jsons/v1_VE250_randls_45_rotated.json,http://54.235.29.9/FacialAge/BNav_EC2/DepthDuration/v2_depth_duration_MTurk/v2_DepthDuration_HTML.html#444,444,779,439,1364,768,8-29-2022,14-26-19,85,depth_duration_stimuli/000854_2014-06-09_19-43-13_260595134347_rgbf000066-resize_0/000854_2014-06-09_19-43-13_260595134347_rgbf000066-resize_0-target.png,250,3.068,3.0,3826,257,meters,jsons/v1_VE250_randls_45_rotated.json,1184715,1396598,26,Man
85,354578,DepthScenes,duration_manipulation_targetAtFixation,jsons/v1_VE250_randls_45_rotated.json,http://54.235.29.9/FacialAge/BNav_EC2/DepthDuration/v2_depth_duration_MTurk/v2_DepthDuration_HTML.html#444,444,779,439,1364,768,8-29-2022,14-26-19,86,depth_duration_stimuli/000758_2014-06-08_22-05-08_260595134347_rgbf000085-resize_0/000758_2014-06-08_22-05-08_260595134347_rgbf000085-resize_0-target.png,250,3.3810000000000002,4.0,3440,249,meters,jsons/v1_VE250_randls_45_rotated.json,1184715,1396598,26,Man
86,354578,DepthScenes,duration_manipulation_targetAtFixation,jsons/v1_VE250_randls_45_rotated.json,http://54.235.29.9/FacialAge/BNav_EC2/DepthDuration/v2_depth_duration_MTurk/v2_DepthDuration_HTML.html#444,444,779,439,1364,768,8-29-2022,14-26-19,87,depth_duration_stimuli/002750_2014-06-22_19-08-03_094959634447_rgbf000094-resize_4/002750_2014-06-22_19-08-03_094959634447_rgbf000094-resize_4-target.png,250,2.354,4.0,3412,251,meters,jsons/v1_VE250_randls_45_rotated.json,1184715,1396598,26,Man
87,354578,DepthScenes,duration_manipulation_targetAtFixation,jsons/v1_VE250_randls_45_rotated.json,http://54.235.29.9/FacialAge/BNav_EC2/DepthDuration/v2_depth_duration_MTurk/v2_DepthDuration_HTML.html#444,444,779,439,1364,768,8-29-2022,14-26-19,88,depth_duration_stimuli/002549_2014-06-24_13-41-39_094959634447_rgbf000022-resize_3/002549_2014-06-24_13-41-39_094959634447_rgbf000022-resize_3-target.png,250,1.476,2.0,3368,249,meters,jsons/v1_VE250_randls_45_rotated.json,1184715,1396598,26,Man
88,354578,DepthScenes,duration_manipulation_targetAtFixation,jsons/v1_VE250_randls_45_rotated.json,http://54.235.29.9/FacialAge/BNav_EC2/DepthDuration/v2_depth_duration_MTurk/v2_DepthDuration_HTML.html#444,444,779,439,1364,768,8-29-2022,14-26-19,89,depth_duration_stimuli/002103_2014-06-25_20-00-40_260595134347_rgbf000049-resize_0/002103_2014-06-25_20-00-40_260595134347_rgbf000049-resize_0-target.png,250,4.105,4.0,4022,251,meters,jsons/v1_VE250_randls_45_rotated.json,1184715,1396598,26,Man
89,354578,DepthScenes,duration_manipulation_targetAtFixation,jsons/v1_VE250_randls_45_rotated.json,http://54.235.29.9/FacialAge/BNav_EC2/DepthDuration/v2_depth_duration_MTurk/v2_DepthDuration_HTML.html#444,444,779,439,1364,768,8-29-2022,14-26-19,90,depth_duration_stimuli/002039_2014-06-24_20-22-38_260595134347_rgbf000084-resize_1/002039_2014-06-24_20-22-38_260595134347_rgbf000084-resize_1-target.png,250,4.408,4.0,3613,249,meters,jsons/v1_VE250_randls_45_rotated.json,1184715,1396598,26,Man
90,354578,DepthScenes,duration_manipulation_targetAtFixation,jsons/v1_VE250_randls_45_rotated.json,http://54.235.29.9/FacialAge/BNav_EC2/DepthDuration/v2_depth_duration_MTurk/v2_DepthDuration_HTML.html#444,444,779,439,1364,768,8-29-2022,14-26-19,91,depth_duration_stimuli/002875_2014-06-01_15-19-00_094959634447_rgbf000151-resize_1/002875_2014-06-01_15-19-00_094959634447_rgbf000151-resize_1-target.png,250,1.9675,2.0,4028,318,meters,jsons/v1_VE250_randls_45_rotated.json,1184715,1396598,26,Man
91,354578,DepthScenes,duration_manipulation_targetAtFixation,jsons/v1_VE250_randls_45_rotated.json,http://54.235.29.9/FacialAge/BNav_EC2/DepthDuration/v2_depth_duration_MTurk/v2_DepthDuration_HTML.html#444,444,779,439,1364,768,8-29-2022,14-26-19,92,depth_duration_stimuli/001011_2014-06-08_23-18-54_260595134347_rgbf000044-resize_4/001011_2014-06-08_23-18-54_260595134347_rgbf000044-resize_4-target.png,250,2.4730000000000003,4.0,4227,248,meters,jsons/v1_VE250_randls_45_rotated.json,1184715,1396598,26,Man
92,354578,DepthScenes,duration_manipulation_targetAtFixation,jsons/v1_VE250_randls_45_rotated.json,http://54.235.29.9/FacialAge/BNav_EC2/DepthDuration/v2_depth_duration_MTurk/v2_DepthDuration_HTML.html#444,444,779,439,1364,768,8-29-2022,14-26-19,93,depth_duration_stimuli/001235_2014-06-17_16-37-36_260595134347_rgbf000084-resize_4/001235_2014-06-17_16-37-36_260595134347_rgbf000084-resize_4-target.png,250,3.6605,4.0,5124,249,meters,jsons/v1_VE250_randls_45_rotated.json,1184715,1396598,26,Man
93,354578,DepthScenes,duration_manipulation_targetAtFixation,jsons/v1_VE250_randls_45_rotated.json,http://54.235.29.9/FacialAge/BNav_EC2/DepthDuration/v2_depth_duration_MTurk/v2_DepthDuration_HTML.html#444,444,779,439,1364,768,8-29-2022,14-26-19,94,depth_duration_stimuli/000788_2014-06-08_22-34-36_260595134347_rgbf000131-resize_1/000788_2014-06-08_22-34-36_260595134347_rgbf000131-resize_1-target.png,250,3.359,4.0,3496,265,meters,jsons/v1_VE250_randls_45_rotated.json,1184715,1396598,26,Man
94,354578,DepthScenes,duration_manipulation_targetAtFixation,jsons/v1_VE250_randls_45_rotated.json,http://54.235.29.9/FacialAge/BNav_EC2/DepthDuration/v2_depth_duration_MTurk/v2_DepthDuration_HTML.html#444,444,779,439,1364,768,8-29-2022,14-26-19,95,depth_duration_stimuli/000457_2014-06-08_16-52-43_260595134347_rgbf000199-resize_1/000457_2014-06-08_16-52-43_260595134347_rgbf000199-resize_1-target.png,250,3.6489999999999996,0.2,6084,244,meters,jsons/v1_VE250_randls_45_rotated.json,1184715,1396598,26,Man
95,354578,DepthScenes,duration_manipulation_targetAtFixation,jsons/v1_VE250_randls_45_rotated.json,http://54.235.29.9/FacialAge/BNav_EC2/DepthDuration/v2_depth_duration_MTurk/v2_DepthDuration_HTML.html#444,444,779,439,1364,768,8-29-2022,14-26-19,96,depth_duration_stimuli/000929_2014-06-09_16-33-19_260595134347_rgbf000139-resize_0/000929_2014-06-09_16-33-19_260595134347_rgbf000139-resize_0-target.png,250,2.8680000000000003,4.0,3633,222,meters,jsons/v1_VE250_randls_45_rotated.json,1184715,1396598,26,Man
96,354578,DepthScenes,duration_manipulation_targetAtFixation,jsons/v1_VE250_randls_45_rotated.json,http://54.235.29.9/FacialAge/BNav_EC2/DepthDuration/v2_depth_duration_MTurk/v2_DepthDuration_HTML.html#444,444,779,439,1364,768,8-29-2022,14-26-19,97,depth_duration_stimuli/000691_2014-06-08_13-08-50_260595134347_rgbf000132-resize_3/000691_2014-06-08_13-08-50_260595134347_rgbf000132-resize_3-target.png,250,4.1530000000000005,7.0,6988,250,meters,jsons/v1_VE250_randls_45_rotated.json,1184715,1396598,26,Man
97,354578,DepthScenes,duration_manipulation_targetAtFixation,jsons/v1_VE250_randls_45_rotated.json,http://54.235.29.9/FacialAge/BNav_EC2/DepthDuration/v2_depth_duration_MTurk/v2_DepthDuration_HTML.html#444,444,779,439,1364,768,8-29-2022,14-26-19,98,depth_duration_stimuli/002213_2014-06-28_18-37-58_260595134347_rgbf000055-resize_1/002213_2014-06-28_18-37-58_260595134347_rgbf000055-resize_1-target.png,250,3.62,7.0,3741,246,meters,jsons/v1_VE250_randls_45_rotated.json,1184715,1396598,26,Man
98,354578,DepthScenes,duration_manipulation_targetAtFixation,jsons/v1_VE250_randls_45_rotated.json,http://54.235.29.9/FacialAge/BNav_EC2/DepthDuration/v2_depth_duration_MTurk/v2_DepthDuration_HTML.html#444,444,779,439,1364,768,8-29-2022,14-26-19,99,depth_duration_stimuli/001222_2014-06-17_16-24-06_260595134347_rgbf000073-resize_0/001222_2014-06-17_16-24-06_260595134347_rgbf000073-resize-original.jpg,250,1.4385,4.0,3794,249,meters,jsons/v1_VE250_randls_45_rotated.json,1184715,1396598,26,Man
99,354578,DepthScenes,duration_manipulation_targetAtFixation,jsons/v1_VE250_randls_45_rotated.json,http://54.235.29.9/FacialAge/BNav_EC2/DepthDuration/v2_depth_duration_MTurk/v2_DepthDuration_HTML.html#444,444,779,439,1364,768,8-29-2022,14-26-19,100,depth_duration_stimuli/003048_2014-06-15_13-49-43_094959634447_rgbf000150-resize_1/003048_2014-06-15_13-49-43_094959634447_rgbf000150-resize_1-target.png,250,4.0035,3.0,3945,285,meters,jsons/v1_VE250_randls_45_rotated.json,1184715,1396598,26,Man
100,354578,DepthScenes,duration_manipulation_targetAtFixation,jsons/v1_VE250_randls_45_rotated.json,http://54.235.29.9/FacialAge/BNav_EC2/DepthDuration/v2_depth_duration_MTurk/v2_DepthDuration_HTML.html#444,444,779,439,1364,768,8-29-2022,14-26-19,101,depth_duration_stimuli/002043_2014-06-24_20-29-38_260595134347_rgbf000039-resize_4/002043_2014-06-24_20-29-38_260595134347_rgbf000039-resize_4-target.png,250,2.8435,4.0,3470,249,meters,jsons/v1_VE250_randls_45_rotated.json,1184715,1396598,26,Man
101,354578,DepthScenes,duration_manipulation_targetAtFixation,jsons/v1_VE250_randls_45_rotated.json,http://54.235.29.9/FacialAge/BNav_EC2/DepthDuration/v2_depth_duration_MTurk/v2_DepthDuration_HTML.html#444,444,779,439,1364,768,8-29-2022,14-26-19,102,depth_duration_stimuli/001132_2014-06-17_14-48-54_260595134347_rgbf000100-resize_2/001132_2014-06-17_14-48-54_260595134347_rgbf000100-resize_2-target.png,250,3.753,2.0,3786,273,meters,jsons/v1_VE250_randls_45_rotated.json,1184715,1396598,26,Man
102,354578,DepthScenes,duration_manipulation_targetAtFixation,jsons/v1_VE250_randls_45_rotated.json,http://54.235.29.9/FacialAge/BNav_EC2/DepthDuration/v2_depth_duration_MTurk/v2_DepthDuration_HTML.html#444,444,779,439,1364,768,8-29-2022,14-26-19,103,depth_duration_stimuli/001133_2014-06-17_14-49-16_260595134347_rgbf000100-resize_0/001133_2014-06-17_14-49-16_260595134347_rgbf000100-resize_0-target.png,250,4.2115,3.0,3435,242,meters,jsons/v1_VE250_randls_45_rotated.json,1184715,1396598,26,Man
103,354578,DepthScenes,duration_manipulation_targetAtFixation,jsons/v1_VE250_randls_45_rotated.json,http://54.235.29.9/FacialAge/BNav_EC2/DepthDuration/v2_depth_duration_MTurk/v2_DepthDuration_HTML.html#444,444,779,439,1364,768,8-29-2022,14-26-19,104,depth_duration_stimuli/001650_2014-06-20_12-09-00_260595134347_rgbf000087-resize_3/001650_2014-06-20_12-09-00_260595134347_rgbf000087-resize_3-target.png,250,1.9505,2.0,3690,314,meters,jsons/v1_VE250_randls_45_rotated.json,1184715,1396598,26,Man
104,354578,DepthScenes,duration_manipulation_targetAtFixation,jsons/v1_VE250_randls_45_rotated.json,http://54.235.29.9/FacialAge/BNav_EC2/DepthDuration/v2_depth_duration_MTurk/v2_DepthDuration_HTML.html#444,444,779,439,1364,768,8-29-2022,14-26-19,105,depth_duration_stimuli/000682_2014-06-08_23-14-58_260595134347_rgbf000041-resize_5/000682_2014-06-08_23-14-58_260595134347_rgbf000041-resize_5-target.png,250,2.7239999999999998,3.0,3499,248,meters,jsons/v1_VE250_randls_45_rotated.json,1184715,1396598,26,Man
105,354578,DepthScenes,duration_manipulation_targetAtFixation,jsons/v1_VE250_randls_45_rotated.json,http://54.235.29.9/FacialAge/BNav_EC2/DepthDuration/v2_depth_duration_MTurk/v2_DepthDuration_HTML.html#444,444,779,439,1364,768,8-29-2022,14-26-19,106,depth_duration_stimuli/001214_2014-06-17_16-13-55_260595134347_rgbf000111-resize_0/001214_2014-06-17_16-13-55_260595134347_rgbf000111-resize_0-target.png,250,2.6505,1.0,4117,250,meters,jsons/v1_VE250_randls_45_rotated.json,1184715,1396598,26,Man
106,354578,DepthScenes,duration_manipulation_targetAtFixation,jsons/v1_VE250_randls_45_rotated.json,http://54.235.29.9/FacialAge/BNav_EC2/DepthDuration/v2_depth_duration_MTurk/v2_DepthDuration_HTML.html#444,444,779,439,1364,768,8-29-2022,14-26-19,107,depth_duration_stimuli/000810_2014-06-08_17-20-01_260595134347_rgbf000105-resize_0/000810_2014-06-08_17-20-01_260595134347_rgbf000105-resize_0-target.png,250,1.4865,3.0,3713,249,meters,jsons/v1_VE250_randls_45_rotated.json,1184715,1396598,26,Man
107,354578,DepthScenes,duration_manipulation_targetAtFixation,jsons/v1_VE250_randls_45_rotated.json,http://54.235.29.9/FacialAge/BNav_EC2/DepthDuration/v2_depth_duration_MTurk/v2_DepthDuration_HTML.html#444,444,779,439,1364,768,8-29-2022,14-26-19,108,depth_duration_stimuli/002444_2014-06-28_20-32-08_260595134347_rgbf000027-resize_0/002444_2014-06-28_20-32-08_260595134347_rgbf000027-resize_0-target.png,250,4.388999999999999,4.0,3759,251,meters,jsons/v1_VE250_randls_45_rotated.json,1184715,1396598,26,Man
108,354578,DepthScenes,duration_manipulation_targetAtFixation,jsons/v1_VE250_randls_45_rotated.json,http://54.235.29.9/FacialAge/BNav_EC2/DepthDuration/v2_depth_duration_MTurk/v2_DepthDuration_HTML.html#444,444,779,439,1364,768,8-29-2022,14-26-19,109,depth_duration_stimuli/000436_2014-06-09_22-25-11_260595134347_rgbf000137-resize_1/000436_2014-06-09_22-25-11_260595134347_rgbf000137-resize_1-target.png,250,4.0705,4.0,3668,245,meters,jsons/v1_VE250_randls_45_rotated.json,1184715,1396598,26,Man
109,354578,DepthScenes,duration_manipulation_targetAtFixation,jsons/v1_VE250_randls_45_rotated.json,http://54.235.29.9/FacialAge/BNav_EC2/DepthDuration/v2_depth_duration_MTurk/v2_DepthDuration_HTML.html#444,444,779,439,1364,768,8-29-2022,14-26-19,110,depth_duration_stimuli/002209_2014-06-28_18-36-10_260595134347_rgbf000051-resize_1/002209_2014-06-28_18-36-10_260595134347_rgbf000051-resize_1-target.png,250,2.057,4.0,3160,248,meters,jsons/v1_VE250_randls_45_rotated.json,1184715,1396598,26,Man
110,354578,DepthScenes,duration_manipulation_targetAtFixation,jsons/v1_VE250_randls_45_rotated.json,http://54.235.29.9/FacialAge/BNav_EC2/DepthDuration/v2_depth_duration_MTurk/v2_DepthDuration_HTML.html#444,444,779,439,1364,768,8-29-2022,14-26-19,111,depth_duration_stimuli/002763_2014-06-22_19-13-10_094959634447_rgbf000075-resize_4/002763_2014-06-22_19-13-10_094959634447_rgbf000075-resize_4-target.png,250,1.68375,3.0,3516,250,meters,jsons/v1_VE250_randls_45_rotated.json,1184715,1396598,26,Man
111,354578,DepthScenes,duration_manipulation_targetAtFixation,jsons/v1_VE250_randls_45_rotated.json,http://54.235.29.9/FacialAge/BNav_EC2/DepthDuration/v2_depth_duration_MTurk/v2_DepthDuration_HTML.html#444,444,779,439,1364,768,8-29-2022,14-26-19,112,depth_duration_stimuli/000749_2014-06-08_21-55-06_260595134347_rgbf000070-resize_2/000749_2014-06-08_21-55-06_260595134347_rgbf000070-resize_2-target.png,250,2.331,3.0,3384,203,meters,jsons/v1_VE250_randls_45_rotated.json,1184715,1396598,26,Man
112,354578,DepthScenes,duration_manipulation_targetAtFixation,jsons/v1_VE250_randls_45_rotated.json,http://54.235.29.9/FacialAge/BNav_EC2/DepthDuration/v2_depth_duration_MTurk/v2_DepthDuration_HTML.html#444,444,779,439,1364,768,8-29-2022,14-26-19,113,depth_duration_stimuli/002788_2014-06-22_19-36-03_094959634447_rgbf000088-resize_2/002788_2014-06-22_19-36-03_094959634447_rgbf000088-resize_2-target.png,250,1.6465,3.0,3324,251,meters,jsons/v1_VE250_randls_45_rotated.json,1184715,1396598,26,Man
113,354578,DepthScenes,duration_manipulation_targetAtFixation,jsons/v1_VE250_randls_45_rotated.json,http://54.235.29.9/FacialAge/BNav_EC2/DepthDuration/v2_depth_duration_MTurk/v2_DepthDuration_HTML.html#444,444,779,439,1364,768,8-29-2022,14-26-19,114,depth_duration_stimuli/003495_2014-05-21_16-01-51_094959634447_rgbf000100-resize_3/003495_2014-05-21_16-01-51_094959634447_rgbf000100-resize_3-target.png,250,1.6255,2.0,3903,250,meters,jsons/v1_VE250_randls_45_rotated.json,1184715,1396598,26,Man
114,354578,DepthScenes,duration_manipulation_targetAtFixation,jsons/v1_VE250_randls_45_rotated.json,http://54.235.29.9/FacialAge/BNav_EC2/DepthDuration/v2_depth_duration_MTurk/v2_DepthDuration_HTML.html#444,444,779,439,1364,768,8-29-2022,14-26-19,115,depth_duration_stimuli/001244_2014-06-17_16-47-45_260595134347_rgbf000030-resize_4/001244_2014-06-17_16-47-45_260595134347_rgbf000030-resize_4-target.png,250,2.0425,2.0,3066,249,meters,jsons/v1_VE250_randls_45_rotated.json,1184715,1396598,26,Man
115,354578,DepthScenes,duration_manipulation_targetAtFixation,jsons/v1_VE250_randls_45_rotated.json,http://54.235.29.9/FacialAge/BNav_EC2/DepthDuration/v2_depth_duration_MTurk/v2_DepthDuration_HTML.html#444,444,779,439,1364,768,8-29-2022,14-26-19,116,depth_duration_stimuli/003083_2014-06-15_15-21-03_094959634447_rgbf000063-resize_1/003083_2014-06-15_15-21-03_094959634447_rgbf000063-resize_1-target.png,250,4.1405,4.0,3434,245,meters,jsons/v1_VE250_randls_45_rotated.json,1184715,1396598,26,Man
116,354578,DepthScenes,duration_manipulation_targetAtFixation,jsons/v1_VE250_randls_45_rotated.json,http://54.235.29.9/FacialAge/BNav_EC2/DepthDuration/v2_depth_duration_MTurk/v2_DepthDuration_HTML.html#444,444,779,439,1364,768,8-29-2022,14-26-19,117,depth_duration_stimuli/000486_2014-06-09_20-47-20_260595134347_rgbf000143-resize_2/000486_2014-06-09_20-47-20_260595134347_rgbf000143-resize_2-target.png,250,4.8325,4.0,4332,266,meters,jsons/v1_VE250_randls_45_rotated.json,1184715,1396598,26,Man
117,354578,DepthScenes,duration_manipulation_targetAtFixation,jsons/v1_VE250_randls_45_rotated.json,http://54.235.29.9/FacialAge/BNav_EC2/DepthDuration/v2_depth_duration_MTurk/v2_DepthDuration_HTML.html#444,444,779,439,1364,768,8-29-2022,14-26-19,118,depth_duration_stimuli/002344_2014-06-28_20-06-29_260595134347_rgbf000030-resize_1/002344_2014-06-28_20-06-29_260595134347_rgbf000030-resize_1-target.png,250,1.5795,0.0,4329,282,meters,jsons/v1_VE250_randls_45_rotated.json,1184715,1396598,26,Man
118,354578,DepthScenes,duration_manipulation_targetAtFixation,jsons/v1_VE250_randls_45_rotated.json,http://54.235.29.9/FacialAge/BNav_EC2/DepthDuration/v2_depth_duration_MTurk/v2_DepthDuration_HTML.html#444,444,779,439,1364,768,8-29-2022,14-26-19,119,depth_duration_stimuli/002725_2014-06-22_11-47-51_094959634447_rgbf000070-resize_1/002725_2014-06-22_11-47-51_094959634447_rgbf000070-resize_1-target.png,250,2.195,2.0,3620,243,meters,jsons/v1_VE250_randls_45_rotated.json,1184715,1396598,26,Man
119,354578,DepthScenes,duration_manipulation_targetAtFixation,jsons/v1_VE250_randls_45_rotated.json,http://54.235.29.9/FacialAge/BNav_EC2/DepthDuration/v2_depth_duration_MTurk/v2_DepthDuration_HTML.html#444,444,779,439,1364,768,8-29-2022,14-26-19,120,depth_duration_stimuli/000787_2014-06-08_22-33-53_260595134347_rgbf000175-resize_1/000787_2014-06-08_22-33-53_260595134347_rgbf000175-resize-original.jpg,250,4.784,0.0,3616,304,meters,jsons/v1_VE250_randls_45_rotated.json,1184715,1396598,26,Man
120,354578,DepthScenes,duration_manipulation_targetAtFixation,jsons/v1_VE250_randls_45_rotated.json,http://54.235.29.9/FacialAge/BNav_EC2/DepthDuration/v2_depth_duration_MTurk/v2_DepthDuration_HTML.html#444,444,779,439,1364,768,8-29-2022,14-26-19,121,depth_duration_stimuli/001617_2014-06-20_11-35-32_260595134347_rgbf000066-resize_1/001617_2014-06-20_11-35-32_260595134347_rgbf000066-resize_1-target.png,250,3.7910000000000004,4.0,3864,250,meters,jsons/v1_VE250_randls_45_rotated.json,1184715,1396598,26,Man
121,354578,DepthScenes,duration_manipulation_targetAtFixation,jsons/v1_VE250_randls_45_rotated.json,http://54.235.29.9/FacialAge/BNav_EC2/DepthDuration/v2_depth_duration_MTurk/v2_DepthDuration_HTML.html#444,444,779,439,1364,768,8-29-2022,14-26-19,122,depth_duration_stimuli/001806_2014-06-26_20-50-20_260595134347_rgbf000091-resize_1/001806_2014-06-26_20-50-20_260595134347_rgbf000091-resize_1-target.png,250,2.7305,5.0,2827,243,meters,jsons/v1_VE250_randls_45_rotated.json,1184715,1396598,26,Man
122,354578,DepthScenes,duration_manipulation_targetAtFixation,jsons/v1_VE250_randls_45_rotated.json,http://54.235.29.9/FacialAge/BNav_EC2/DepthDuration/v2_depth_duration_MTurk/v2_DepthDuration_HTML.html#444,444,779,439,1364,768,8-29-2022,14-26-19,123,depth_duration_stimuli/001032_2014-06-08_13-23-17_260595134347_rgbf000021-resize_3/001032_2014-06-08_13-23-17_260595134347_rgbf000021-resize_3-target.png,250,3.2725,4.0,3600,174,meters,jsons/v1_VE250_randls_45_rotated.json,1184715,1396598,26,Man
123,354578,DepthScenes,duration_manipulation_targetAtFixation,jsons/v1_VE250_randls_45_rotated.json,http://54.235.29.9/FacialAge/BNav_EC2/DepthDuration/v2_depth_duration_MTurk/v2_DepthDuration_HTML.html#444,444,779,439,1364,768,8-29-2022,14-26-19,124,depth_duration_stimuli/001059_2014-06-08_21-53-27_260595134347_rgbf000061-resize_4/001059_2014-06-08_21-53-27_260595134347_rgbf000061-resize_4-target.png,250,2.4185,0.0,4511,253,meters,jsons/v1_VE250_randls_45_rotated.json,1184715,1396598,26,Man
124,354578,DepthScenes,duration_manipulation_targetAtFixation,jsons/v1_VE250_randls_45_rotated.json,http://54.235.29.9/FacialAge/BNav_EC2/DepthDuration/v2_depth_duration_MTurk/v2_DepthDuration_HTML.html#444,444,779,439,1364,768,8-29-2022,14-26-19,125,depth_duration_stimuli/002949_2014-06-26_15-57-42_094959634447_rgbf000079-resize_1/002949_2014-06-26_15-57-42_094959634447_rgbf000079-resize_1-target.png,250,1.8915,3.0,4974,251,meters,jsons/v1_VE250_randls_45_rotated.json,1184715,1396598,26,Man
125,354578,DepthScenes,duration_manipulation_targetAtFixation,jsons/v1_VE250_randls_45_rotated.json,http://54.235.29.9/FacialAge/BNav_EC2/DepthDuration/v2_depth_duration_MTurk/v2_DepthDuration_HTML.html#444,444,779,439,1364,768,8-29-2022,14-26-19,126,depth_duration_stimuli/000522_2014-06-08_13-35-06_260595134347_rgbf000244-resize_1/000522_2014-06-08_13-35-06_260595134347_rgbf000244-resize_1-target.png,250,2.3715,3.0,3640,250,meters,jsons/v1_VE250_randls_45_rotated.json,1184715,1396598,26,Man
126,354578,DepthScenes,duration_manipulation_targetAtFixation,jsons/v1_VE250_randls_45_rotated.json,http://54.235.29.9/FacialAge/BNav_EC2/DepthDuration/v2_depth_duration_MTurk/v2_DepthDuration_HTML.html#444,444,779,439,1364,768,8-29-2022,14-26-19,127,depth_duration_stimuli/000103_2014-05-14_22-01-17_260595134347_rgbf000152-resize_5/000103_2014-05-14_22-01-17_260595134347_rgbf000152-resize_5-target.png,250,1.993,4.0,4354,249,meters,jsons/v1_VE250_randls_45_rotated.json,1184715,1396598,26,Man
127,354578,DepthScenes,duration_manipulation_targetAtFixation,jsons/v1_VE250_randls_45_rotated.json,http://54.235.29.9/FacialAge/BNav_EC2/DepthDuration/v2_depth_duration_MTurk/v2_DepthDuration_HTML.html#444,444,779,439,1364,768,8-29-2022,14-26-19,128,depth_duration_stimuli/001555_2014-06-20_17-12-10_260595134347_rgbf000065-resize_4/001555_2014-06-20_17-12-10_260595134347_rgbf000065-resize_4-target.png,250,1.633,3.0,3589,251,meters,jsons/v1_VE250_randls_45_rotated.json,1184715,1396598,26,Man
128,354578,DepthScenes,duration_manipulation_targetAtFixation,jsons/v1_VE250_randls_45_rotated.json,http://54.235.29.9/FacialAge/BNav_EC2/DepthDuration/v2_depth_duration_MTurk/v2_DepthDuration_HTML.html#444,444,779,439,1364,768,8-29-2022,14-26-19,129,depth_duration_stimuli/000137_2014-05-20_17-04-49_260595134347_rgbf000120-resize_1/000137_2014-05-20_17-04-49_260595134347_rgbf000120-resize_1-target.png,250,3.786,2.0,3069,263,meters,jsons/v1_VE250_randls_45_rotated.json,1184715,1396598,26,Man
129,354578,DepthScenes,duration_manipulation_targetAtFixation,jsons/v1_VE250_randls_45_rotated.json,http://54.235.29.9/FacialAge/BNav_EC2/DepthDuration/v2_depth_duration_MTurk/v2_DepthDuration_HTML.html#444,444,779,439,1364,768,8-29-2022,14-26-19,130,depth_duration_stimuli/000736_2014-06-08_18-24-15_260595134347_rgbf000206-resize_3/000736_2014-06-08_18-24-15_260595134347_rgbf000206-resize_3-target.png,250,3.515,0.0,3145,242,meters,jsons/v1_VE250_randls_45_rotated.json,1184715,1396598,26,Man
130,354578,DepthScenes,duration_manipulation_targetAtFixation,jsons/v1_VE250_randls_45_rotated.json,http://54.235.29.9/FacialAge/BNav_EC2/DepthDuration/v2_depth_duration_MTurk/v2_DepthDuration_HTML.html#444,444,779,439,1364,768,8-29-2022,14-26-19,131,depth_duration_stimuli/003228_2014-05-14_13-42-35_094959634447_rgbf000101-resize_1/003228_2014-05-14_13-42-35_094959634447_rgbf000101-resize_1-target.png,250,1.9680000000000002,1.0,3341,242,meters,jsons/v1_VE250_randls_45_rotated.json,1184715,1396598,26,Man
131,354578,DepthScenes,duration_manipulation_targetAtFixation,jsons/v1_VE250_randls_45_rotated.json,http://54.235.29.9/FacialAge/BNav_EC2/DepthDuration/v2_depth_duration_MTurk/v2_DepthDuration_HTML.html#444,444,779,439,1364,768,8-29-2022,14-26-19,132,depth_duration_stimuli/002600_2014-06-24_14-27-04_094959634447_rgbf000074-resize_2/002600_2014-06-24_14-27-04_094959634447_rgbf000074-resize_2-target.png,250,2.7575,3.0,3612,200,meters,jsons/v1_VE250_randls_45_rotated.json,1184715,1396598,26,Man
132,354578,DepthScenes,duration_manipulation_targetAtFixation,jsons/v1_VE250_randls_45_rotated.json,http://54.235.29.9/FacialAge/BNav_EC2/DepthDuration/v2_depth_duration_MTurk/v2_DepthDuration_HTML.html#444,444,779,439,1364,768,8-29-2022,14-26-19,133,depth_duration_stimuli/002637_2014-06-24_14-51-13_094959634447_rgbf000066-resize_4/002637_2014-06-24_14-51-13_094959634447_rgbf000066-resize_4-target.png,250,1.9955,4.0,3562,290,meters,jsons/v1_VE250_randls_45_rotated.json,1184715,1396598,26,Man
133,354578,DepthScenes,duration_manipulation_targetAtFixation,jsons/v1_VE250_randls_45_rotated.json,http://54.235.29.9/FacialAge/BNav_EC2/DepthDuration/v2_depth_duration_MTurk/v2_DepthDuration_HTML.html#444,444,779,439,1364,768,8-29-2022,14-26-19,134,depth_duration_stimuli/003534_2014-05-22_15-06-10_094959634447_rgbf000102-resize_4/003534_2014-05-22_15-06-10_094959634447_rgbf000102-resize_4-target.png,250,1.426,0.0,2733,247,meters,jsons/v1_VE250_randls_45_rotated.json,1184715,1396598,26,Man
134,354578,DepthScenes,duration_manipulation_targetAtFixation,jsons/v1_VE250_randls_45_rotated.json,http://54.235.29.9/FacialAge/BNav_EC2/DepthDuration/v2_depth_duration_MTurk/v2_DepthDuration_HTML.html#444,444,779,439,1364,768,8-29-2022,14-26-19,135,depth_duration_stimuli/000375_2014-06-08_11-17-29_260595134347_rgbf000133-resize_2/000375_2014-06-08_11-17-29_260595134347_rgbf000133-resize-original.jpg,250,4.718,0.0,2861,250,meters,jsons/v1_VE250_randls_45_rotated.json,1184715,1396598,26,Man
135,354578,DepthScenes,duration_manipulation_targetAtFixation,jsons/v1_VE250_randls_45_rotated.json,http://54.235.29.9/FacialAge/BNav_EC2/DepthDuration/v2_depth_duration_MTurk/v2_DepthDuration_HTML.html#444,444,779,439,1364,768,8-29-2022,14-26-19,136,depth_duration_stimuli/001516_2014-06-20_16-25-09_260595134347_rgbf000076-resize_2/001516_2014-06-20_16-25-09_260595134347_rgbf000076-resize_2-target.png,250,1.7445,3.0,4030,247,meters,jsons/v1_VE250_randls_45_rotated.json,1184715,1396598,26,Man
136,354578,DepthScenes,duration_manipulation_targetAtFixation,jsons/v1_VE250_randls_45_rotated.json,http://54.235.29.9/FacialAge/BNav_EC2/DepthDuration/v2_depth_duration_MTurk/v2_DepthDuration_HTML.html#444,444,779,439,1364,768,8-29-2022,14-26-19,137,depth_duration_stimuli/002118_2014-06-25_20-32-08_260595134347_rgbf000078-resize_1/002118_2014-06-25_20-32-08_260595134347_rgbf000078-resize_1-target.png,250,2.6460000000000004,3.0,4291,249,meters,jsons/v1_VE250_randls_45_rotated.json,1184715,1396598,26,Man
137,354578,DepthScenes,duration_manipulation_targetAtFixation,jsons/v1_VE250_randls_45_rotated.json,http://54.235.29.9/FacialAge/BNav_EC2/DepthDuration/v2_depth_duration_MTurk/v2_DepthDuration_HTML.html#444,444,779,439,1364,768,8-29-2022,14-26-19,138,depth_duration_stimuli/002568_2014-06-24_13-59-21_094959634447_rgbf000062-resize_4/002568_2014-06-24_13-59-21_094959634447_rgbf000062-resize_4-target.png,250,3.015,3.0,3816,234,meters,jsons/v1_VE250_randls_45_rotated.json,1184715,1396598,26,Man
138,354578,DepthScenes,duration_manipulation_targetAtFixation,jsons/v1_VE250_randls_45_rotated.json,http://54.235.29.9/FacialAge/BNav_EC2/DepthDuration/v2_depth_duration_MTurk/v2_DepthDuration_HTML.html#444,444,779,439,1364,768,8-29-2022,14-26-19,139,depth_duration_stimuli/003492_2014-05-21_15-50-55_094959634447_rgbf000828-resize_1/003492_2014-05-21_15-50-55_094959634447_rgbf000828-resize_1-target.png,250,4.06875,0.0,3392,240,meters,jsons/v1_VE250_randls_45_rotated.json,1184715,1396598,26,Man
139,354578,DepthScenes,duration_manipulation_targetAtFixation,jsons/v1_VE250_randls_45_rotated.json,http://54.235.29.9/FacialAge/BNav_EC2/DepthDuration/v2_depth_duration_MTurk/v2_DepthDuration_HTML.html#444,444,779,439,1364,768,8-29-2022,14-26-19,140,depth_duration_stimuli/001052_2014-06-08_18-24-54_260595134347_rgbf000130-resize_1/001052_2014-06-08_18-24-54_260595134347_rgbf000130-resize_1-target.png,250,4.1045,7.0,3948,296,meters,jsons/v1_VE250_randls_45_rotated.json,1184715,1396598,26,Man
140,354578,DepthScenes,duration_manipulation_targetAtFixation,jsons/v1_VE250_randls_45_rotated.json,http://54.235.29.9/FacialAge/BNav_EC2/DepthDuration/v2_depth_duration_MTurk/v2_DepthDuration_HTML.html#444,444,779,439,1364,768,8-29-2022,14-26-19,141,depth_duration_stimuli/002988_2014-06-15_12-24-20_094959634447_rgbf000150-resize_1/002988_2014-06-15_12-24-20_094959634447_rgbf000150-resize_1-target.png,250,4.7669999999999995,0.0,4230,249,meters,jsons/v1_VE250_randls_45_rotated.json,1184715,1396598,26,Man
141,354578,DepthScenes,duration_manipulation_targetAtFixation,jsons/v1_VE250_randls_45_rotated.json,http://54.235.29.9/FacialAge/BNav_EC2/DepthDuration/v2_depth_duration_MTurk/v2_DepthDuration_HTML.html#444,444,779,439,1364,768,8-29-2022,14-26-19,142,depth_duration_stimuli/003129_2014-05-12_10-48-10_094959634447_rgbf000100-resize_0/003129_2014-05-12_10-48-10_094959634447_rgbf000100-resize_0-target.png,250,4.9305,6.0,4763,247,meters,jsons/v1_VE250_randls_45_rotated.json,1184715,1396598,26,Man
142,354578,DepthScenes,duration_manipulation_targetAtFixation,jsons/v1_VE250_randls_45_rotated.json,http://54.235.29.9/FacialAge/BNav_EC2/DepthDuration/v2_depth_duration_MTurk/v2_DepthDuration_HTML.html#444,444,779,439,1364,768,8-29-2022,14-26-19,143,depth_duration_stimuli/000414_2014-06-04_19-49-13_260595134347_rgbf000044-resize_0/000414_2014-06-04_19-49-13_260595134347_rgbf000044-resize_0-target.png,250,4.329,6.0,3246,252,meters,jsons/v1_VE250_randls_45_rotated.json,1184715,1396598,26,Man
143,354578,DepthScenes,duration_manipulation_targetAtFixation,jsons/v1_VE250_randls_45_rotated.json,http://54.235.29.9/FacialAge/BNav_EC2/DepthDuration/v2_depth_duration_MTurk/v2_DepthDuration_HTML.html#444,444,779,439,1364,768,8-29-2022,14-26-19,144,depth_duration_stimuli/002414_2014-06-28_20-24-58_260595134347_rgbf000067-resize_4/002414_2014-06-28_20-24-58_260595134347_rgbf000067-resize_4-target.png,250,4.363,6.0,2657,256,meters,jsons/v1_VE250_randls_45_rotated.json,1184715,1396598,26,Man
144,354578,DepthScenes,duration_manipulation_targetAtFixation,jsons/v1_VE250_randls_45_rotated.json,http://54.235.29.9/FacialAge/BNav_EC2/DepthDuration/v2_depth_duration_MTurk/v2_DepthDuration_HTML.html#444,444,779,439,1364,768,8-29-2022,14-26-19,145,depth_duration_stimuli/000773_2014-06-08_22-24-54_260595134347_rgbf000093-resize_1/000773_2014-06-08_22-24-54_260595134347_rgbf000093-resize_1-target.png,250,4.973,6.0,3029,248,meters,jsons/v1_VE250_randls_45_rotated.json,1184715,1396598,26,Man
145,354578,DepthScenes,duration_manipulation_targetAtFixation,jsons/v1_VE250_randls_45_rotated.json,http://54.235.29.9/FacialAge/BNav_EC2/DepthDuration/v2_depth_duration_MTurk/v2_DepthDuration_HTML.html#444,444,779,439,1364,768,8-29-2022,14-26-19,146,depth_duration_stimuli/000709_2014-06-08_13-51-55_260595134347_rgbf000068-resize_3/000709_2014-06-08_13-51-55_260595134347_rgbf000068-resize_3-target.png,250,1.8030000000000002,3.0,3775,291,meters,jsons/v1_VE250_randls_45_rotated.json,1184715,1396598,26,Man
146,354578,DepthScenes,duration_manipulation_targetAtFixation,jsons/v1_VE250_randls_45_rotated.json,http://54.235.29.9/FacialAge/BNav_EC2/DepthDuration/v2_depth_duration_MTurk/v2_DepthDuration_HTML.html#444,444,779,439,1364,768,8-29-2022,14-26-19,147,depth_duration_stimuli/002057_2014-06-24_21-00-13_260595134347_rgbf000120-resize_1/002057_2014-06-24_21-00-13_260595134347_rgbf000120-resize_1-target.png,250,2.967,0.0,3668,247,meters,jsons/v1_VE250_randls_45_rotated.json,1184715,1396598,26,Man
147,354578,DepthScenes,duration_manipulation_targetAtFixation,jsons/v1_VE250_randls_45_rotated.json,http://54.235.29.9/FacialAge/BNav_EC2/DepthDuration/v2_depth_duration_MTurk/v2_DepthDuration_HTML.html#444,444,779,439,1364,768,8-29-2022,14-26-19,148,depth_duration_stimuli/002467_2014-06-28_20-38-07_260595134347_rgbf000026-resize_2/002467_2014-06-28_20-38-07_260595134347_rgbf000026-resize_2-target.png,250,4.742,1.0,3604,246,meters,jsons/v1_VE250_randls_45_rotated.json,1184715,1396598,26,Man
148,354578,DepthScenes,duration_manipulation_targetAtFixation,jsons/v1_VE250_randls_45_rotated.json,http://54.235.29.9/FacialAge/BNav_EC2/DepthDuration/v2_depth_duration_MTurk/v2_DepthDuration_HTML.html#444,444,779,439,1364,768,8-29-2022,14-26-19,149,depth_duration_stimuli/002570_2014-06-24_13-59-54_094959634447_rgbf000059-resize_0/002570_2014-06-24_13-59-54_094959634447_rgbf000059-resize_0-target.png,250,4.037,1.0,3421,250,meters,jsons/v1_VE250_randls_45_rotated.json,1184715,1396598,26,Man
149,354578,DepthScenes,duration_manipulation_targetAtFixation,jsons/v1_VE250_randls_45_rotated.json,http://54.235.29.9/FacialAge/BNav_EC2/DepthDuration/v2_depth_duration_MTurk/v2_DepthDuration_HTML.html#444,444,779,439,1364,768,8-29-2022,14-26-19,150,depth_duration_stimuli/002639_2014-06-24_14-51-37_094959634447_rgbf000074-resize_4/002639_2014-06-24_14-51-37_094959634447_rgbf000074-resize_4-target.png,250,4.0375,4.0,7257,250,meters,jsons/v1_VE250_randls_45_rotated.json,1184715,1396598,26,Man
150,354578,DepthScenes,duration_manipulation_targetAtFixation,jsons/v1_VE250_randls_45_rotated.json,http://54.235.29.9/FacialAge/BNav_EC2/DepthDuration/v2_depth_duration_MTurk/v2_DepthDuration_HTML.html#444,444,779,439,1364,768,8-29-2022,14-26-19,151,depth_duration_stimuli/003292_2014-05-14_21-53-49_094959634447_rgbf000100-resize_2/003292_2014-05-14_21-53-49_094959634447_rgbf000100-resize_2-target.png,250,3.4815,0.5,7154,249,meters,jsons/v1_VE250_randls_45_rotated.json,1184715,1396598,26,Man
151,354578,DepthScenes,duration_manipulation_targetAtFixation,jsons/v1_VE250_randls_45_rotated.json,http://54.235.29.9/FacialAge/BNav_EC2/DepthDuration/v2_depth_duration_MTurk/v2_DepthDuration_HTML.html#444,444,779,439,1364,768,8-29-2022,14-26-19,152,depth_duration_stimuli/000569_2014-06-09_22-51-47_260595134347_rgbf000141-resize_3/000569_2014-06-09_22-51-47_260595134347_rgbf000141-resize-original.jpg,250,4.512,0.0,3602,259,meters,jsons/v1_VE250_randls_45_rotated.json,1184715,1396598,26,Man
152,354578,DepthScenes,duration_manipulation_targetAtFixation,jsons/v1_VE250_randls_45_rotated.json,http://54.235.29.9/FacialAge/BNav_EC2/DepthDuration/v2_depth_duration_MTurk/v2_DepthDuration_HTML.html#444,444,779,439,1364,768,8-29-2022,14-26-19,153,depth_duration_stimuli/002425_2014-06-28_20-27-29_260595134347_rgbf000031-resize_8/002425_2014-06-28_20-27-29_260595134347_rgbf000031-resize_8-target.png,250,3.8960000000000004,6.0,3865,248,meters,jsons/v1_VE250_randls_45_rotated.json,1184715,1396598,26,Man
153,354578,DepthScenes,duration_manipulation_targetAtFixation,jsons/v1_VE250_randls_45_rotated.json,http://54.235.29.9/FacialAge/BNav_EC2/DepthDuration/v2_depth_duration_MTurk/v2_DepthDuration_HTML.html#444,444,779,439,1364,768,8-29-2022,14-26-19,154,depth_duration_stimuli/000642_2014-06-08_16-59-25_260595134347_rgbf000098-resize_2/000642_2014-06-08_16-59-25_260595134347_rgbf000098-resize_2-target.png,250,2.8815,5.0,4210,245,meters,jsons/v1_VE250_randls_45_rotated.json,1184715,1396598,26,Man
154,354578,DepthScenes,duration_manipulation_targetAtFixation,jsons/v1_VE250_randls_45_rotated.json,http://54.235.29.9/FacialAge/BNav_EC2/DepthDuration/v2_depth_duration_MTurk/v2_DepthDuration_HTML.html#444,444,779,439,1364,768,8-29-2022,14-26-19,155,depth_duration_stimuli/001450_2014-06-19_17-02-03_260595134347_rgbf000203-resize_4/001450_2014-06-19_17-02-03_260595134347_rgbf000203-resize_4-target.png,250,4.0106666666667,4.0,3617,249,meters,jsons/v1_VE250_randls_45_rotated.json,1184715,1396598,26,Man
155,354578,DepthScenes,duration_manipulation_targetAtFixation,jsons/v1_VE250_randls_45_rotated.json,http://54.235.29.9/FacialAge/BNav_EC2/DepthDuration/v2_depth_duration_MTurk/v2_DepthDuration_HTML.html#444,444,779,439,1364,768,8-29-2022,14-26-19,156,depth_duration_stimuli/001449_2014-06-19_17-01-27_260595134347_rgbf000116-resize_2/001449_2014-06-19_17-01-27_260595134347_rgbf000116-resize_2-target.png,250,3.452,3.0,3658,248,meters,jsons/v1_VE250_randls_45_rotated.json,1184715,1396598,26,Man
156,354578,DepthScenes,duration_manipulation_targetAtFixation,jsons/v1_VE250_randls_45_rotated.json,http://54.235.29.9/FacialAge/BNav_EC2/DepthDuration/v2_depth_duration_MTurk/v2_DepthDuration_HTML.html#444,444,779,439,1364,768,8-29-2022,14-26-19,157,depth_duration_stimuli/001815_2014-06-26_20-52-55_260595134347_rgbf000020-resize_0/001815_2014-06-26_20-52-55_260595134347_rgbf000020-resize_0-target.png,250,3.3865,6.0,3534,249,meters,jsons/v1_VE250_randls_45_rotated.json,1184715,1396598,26,Man
157,354578,DepthScenes,duration_manipulation_targetAtFixation,jsons/v1_VE250_randls_45_rotated.json,http://54.235.29.9/FacialAge/BNav_EC2/DepthDuration/v2_depth_duration_MTurk/v2_DepthDuration_HTML.html#444,444,779,439,1364,768,8-29-2022,14-26-19,158,depth_duration_stimuli/001808_2014-06-26_20-50-58_260595134347_rgbf000029-resize_1/001808_2014-06-26_20-50-58_260595134347_rgbf000029-resize_1-target.png,250,4.249,0.0,3813,248,meters,jsons/v1_VE250_randls_45_rotated.json,1184715,1396598,26,Man
158,354578,DepthScenes,duration_manipulation_targetAtFixation,jsons/v1_VE250_randls_45_rotated.json,http://54.235.29.9/FacialAge/BNav_EC2/DepthDuration/v2_depth_duration_MTurk/v2_DepthDuration_HTML.html#444,444,779,439,1364,768,8-29-2022,14-26-19,159,depth_duration_stimuli/002805_2014-06-22_19-54-03_094959634447_rgbf000079-resize_1/002805_2014-06-22_19-54-03_094959634447_rgbf000079-resize_1-target.png,250,3.1439999999999997,6.0,3793,245,meters,jsons/v1_VE250_randls_45_rotated.json,1184715,1396598,26,Man
159,354578,DepthScenes,duration_manipulation_targetAtFixation,jsons/v1_VE250_randls_45_rotated.json,http://54.235.29.9/FacialAge/BNav_EC2/DepthDuration/v2_depth_duration_MTurk/v2_DepthDuration_HTML.html#444,444,779,439,1364,768,8-29-2022,14-26-19,160,depth_duration_stimuli/000906_2014-06-08_13-35-43_260595134347_rgbf000155-resize_1/000906_2014-06-08_13-35-43_260595134347_rgbf000155-resize_1-target.png,250,2.8489999999999998,5.0,4004,254,meters,jsons/v1_VE250_randls_45_rotated.json,1184715,1396598,26,Man
160,354578,DepthScenes,duration_manipulation_targetAtFixation,jsons/v1_VE250_randls_45_rotated.json,http://54.235.29.9/FacialAge/BNav_EC2/DepthDuration/v2_depth_duration_MTurk/v2_DepthDuration_HTML.html#444,444,779,439,1364,768,8-29-2022,14-26-19,161,depth_duration_stimuli/000927_2014-06-09_16-32-30_260595134347_rgbf000123-resize_3/000927_2014-06-09_16-32-30_260595134347_rgbf000123-resize_3-target.png,250,2.6785,5.0,3448,250,meters,jsons/v1_VE250_randls_45_rotated.json,1184715,1396598,26,Man
161,354578,DepthScenes,duration_manipulation_targetAtFixation,jsons/v1_VE250_randls_45_rotated.json,http://54.235.29.9/FacialAge/BNav_EC2/DepthDuration/v2_depth_duration_MTurk/v2_DepthDuration_HTML.html#444,444,779,439,1364,768,8-29-2022,14-26-19,162,depth_duration_stimuli/001110_2014-06-15_17-25-28_260595134347_rgbf000150-resize_1/001110_2014-06-15_17-25-28_260595134347_rgbf000150-resize_1-target.png,250,1.7115,0.0,3772,245,meters,jsons/v1_VE250_randls_45_rotated.json,1184715,1396598,26,Man
162,354578,DepthScenes,duration_manipulation_targetAtFixation,jsons/v1_VE250_randls_45_rotated.json,http://54.235.29.9/FacialAge/BNav_EC2/DepthDuration/v2_depth_duration_MTurk/v2_DepthDuration_HTML.html#444,444,779,439,1364,768,8-29-2022,14-26-19,163,depth_duration_stimuli/000556_2014-06-09_22-42-56_260595134347_rgbf000214-resize_1/000556_2014-06-09_22-42-56_260595134347_rgbf000214-resize_1-target.png,250,4.8415,2.0,3079,248,meters,jsons/v1_VE250_randls_45_rotated.json,1184715,1396598,26,Man
163,354578,DepthScenes,duration_manipulation_targetAtFixation,jsons/v1_VE250_randls_45_rotated.json,http://54.235.29.9/FacialAge/BNav_EC2/DepthDuration/v2_depth_duration_MTurk/v2_DepthDuration_HTML.html#444,444,779,439,1364,768,8-29-2022,14-26-19,164,depth_duration_stimuli/001158_2014-06-17_15-32-16_260595134347_rgbf000138-resize_2/001158_2014-06-17_15-32-16_260595134347_rgbf000138-resize_2-target.png,250,4.5315,2.0,2553,252,meters,jsons/v1_VE250_randls_45_rotated.json,1184715,1396598,26,Man
