,subjID,experimentName,versionName,sequenceName,url,selected_row,windowWidth,windowHeight,screenWidth,screenHeight,startDate,startTime,trial,stimulus,duration,actual_depth,depth_estimate,trial_RT,log_sceneDuration,unitSelection,seq_filepath,experimentTime,totalTime,age,gender
0,354517,DepthScenes,duration_manipulation_targetAtFixation,jsons/VE125_randls_17_rotated.json,http://54.235.29.9/FacialAge/BNav_EC2/DepthDuration/v2_depth_duration_MTurk/v2_DepthDuration_HTML.html#299,299,1366,768,1366,768,8-29-2022,8-40-5,1,depth_duration_stimuli/002875_2014-06-01_15-19-00_094959634447_rgbf000151-resize_1/002875_2014-06-01_15-19-00_094959634447_rgbf000151-resize_1-target.png,125,1.9675,2,4605,108,feet,jsons/VE125_randls_17_rotated.json,518590,813211,49,Man
1,354517,DepthScenes,duration_manipulation_targetAtFixation,jsons/VE125_randls_17_rotated.json,http://54.235.29.9/FacialAge/BNav_EC2/DepthDuration/v2_depth_duration_MTurk/v2_DepthDuration_HTML.html#299,299,1366,768,1366,768,8-29-2022,8-40-5,2,depth_duration_stimuli/001011_2014-06-08_23-18-54_260595134347_rgbf000044-resize_4/001011_2014-06-08_23-18-54_260595134347_rgbf000044-resize_4-target.png,125,2.4730000000000003,5,3494,127,feet,jsons/VE125_randls_17_rotated.json,518590,813211,49,Man
2,354517,DepthScenes,duration_manipulation_targetAtFixation,jsons/VE125_randls_17_rotated.json,http://54.235.29.9/FacialAge/BNav_EC2/DepthDuration/v2_depth_duration_MTurk/v2_DepthDuration_HTML.html#299,299,1366,768,1366,768,8-29-2022,8-40-5,3,depth_duration_stimuli/002995_2014-06-15_12-31-26_094959634447_rgbf000150-resize_1/002995_2014-06-15_12-31-26_094959634447_rgbf000150-resize_1-target.png,125,3.8360000000000003,5,2364,124,feet,jsons/VE125_randls_17_rotated.json,518590,813211,49,Man
3,354517,DepthScenes,duration_manipulation_targetAtFixation,jsons/VE125_randls_17_rotated.json,http://54.235.29.9/FacialAge/BNav_EC2/DepthDuration/v2_depth_duration_MTurk/v2_DepthDuration_HTML.html#299,299,1366,768,1366,768,8-29-2022,8-40-5,4,depth_duration_stimuli/002748_2014-06-22_19-07-22_094959634447_rgbf000078-resize_1/002748_2014-06-22_19-07-22_094959634447_rgbf000078-resize_1-target.png,125,4.6705,3,3082,33,feet,jsons/VE125_randls_17_rotated.json,518590,813211,49,Man
4,354517,DepthScenes,duration_manipulation_targetAtFixation,jsons/VE125_randls_17_rotated.json,http://54.235.29.9/FacialAge/BNav_EC2/DepthDuration/v2_depth_duration_MTurk/v2_DepthDuration_HTML.html#299,299,1366,768,1366,768,8-29-2022,8-40-5,5,depth_duration_stimuli/000943_2014-06-09_19-31-07_260595134347_rgbf000128-resize_1/000943_2014-06-09_19-31-07_260595134347_rgbf000128-resize_1-target.png,125,1.9765,2,2320,129,feet,jsons/VE125_randls_17_rotated.json,518590,813211,49,Man
5,354517,DepthScenes,duration_manipulation_targetAtFixation,jsons/VE125_randls_17_rotated.json,http://54.235.29.9/FacialAge/BNav_EC2/DepthDuration/v2_depth_duration_MTurk/v2_DepthDuration_HTML.html#299,299,1366,768,1366,768,8-29-2022,8-40-5,6,depth_duration_stimuli/003070_2014-06-15_14-58-27_094959634447_rgbf000150-resize_3/003070_2014-06-15_14-58-27_094959634447_rgbf000150-resize_3-target.png,125,2.9415,2,2167,107,feet,jsons/VE125_randls_17_rotated.json,518590,813211,49,Man
6,354517,DepthScenes,duration_manipulation_targetAtFixation,jsons/VE125_randls_17_rotated.json,http://54.235.29.9/FacialAge/BNav_EC2/DepthDuration/v2_depth_duration_MTurk/v2_DepthDuration_HTML.html#299,299,1366,768,1366,768,8-29-2022,8-40-5,7,depth_duration_stimuli/000734_2014-06-08_17-39-11_260595134347_rgbf000128-resize_2/000734_2014-06-08_17-39-11_260595134347_rgbf000128-resize_2-target.png,125,4.098,5,2400,131,feet,jsons/VE125_randls_17_rotated.json,518590,813211,49,Man
7,354517,DepthScenes,duration_manipulation_targetAtFixation,jsons/VE125_randls_17_rotated.json,http://54.235.29.9/FacialAge/BNav_EC2/DepthDuration/v2_depth_duration_MTurk/v2_DepthDuration_HTML.html#299,299,1366,768,1366,768,8-29-2022,8-40-5,8,depth_duration_stimuli/000739_2014-06-08_18-45-58_260595134347_rgbf000068-resize_1/000739_2014-06-08_18-45-58_260595134347_rgbf000068-resize_1-target.png,125,3.534,7,2500,122,feet,jsons/VE125_randls_17_rotated.json,518590,813211,49,Man
8,354517,DepthScenes,duration_manipulation_targetAtFixation,jsons/VE125_randls_17_rotated.json,http://54.235.29.9/FacialAge/BNav_EC2/DepthDuration/v2_depth_duration_MTurk/v2_DepthDuration_HTML.html#299,299,1366,768,1366,768,8-29-2022,8-40-5,9,depth_duration_stimuli/002568_2014-06-24_13-59-21_094959634447_rgbf000062-resize_4/002568_2014-06-24_13-59-21_094959634447_rgbf000062-resize_4-target.png,125,3.015,4,3227,120,feet,jsons/VE125_randls_17_rotated.json,518590,813211,49,Man
9,354517,DepthScenes,duration_manipulation_targetAtFixation,jsons/VE125_randls_17_rotated.json,http://54.235.29.9/FacialAge/BNav_EC2/DepthDuration/v2_depth_duration_MTurk/v2_DepthDuration_HTML.html#299,299,1366,768,1366,768,8-29-2022,8-40-5,10,depth_duration_stimuli/003492_2014-05-21_15-50-55_094959634447_rgbf000828-resize_1/003492_2014-05-21_15-50-55_094959634447_rgbf000828-resize_1-target.png,125,4.06875,6,2452,118,feet,jsons/VE125_randls_17_rotated.json,518590,813211,49,Man
10,354517,DepthScenes,duration_manipulation_targetAtFixation,jsons/VE125_randls_17_rotated.json,http://54.235.29.9/FacialAge/BNav_EC2/DepthDuration/v2_depth_duration_MTurk/v2_DepthDuration_HTML.html#299,299,1366,768,1366,768,8-29-2022,8-40-5,11,depth_duration_stimuli/003081_2014-06-15_15-19-16_094959634447_rgbf000150-resize_1/003081_2014-06-15_15-19-16_094959634447_rgbf000150-resize_1-target.png,125,3.9125,0,2280,12,feet,jsons/VE125_randls_17_rotated.json,518590,813211,49,Man
11,354517,DepthScenes,duration_manipulation_targetAtFixation,jsons/VE125_randls_17_rotated.json,http://54.235.29.9/FacialAge/BNav_EC2/DepthDuration/v2_depth_duration_MTurk/v2_DepthDuration_HTML.html#299,299,1366,768,1366,768,8-29-2022,8-40-5,12,depth_duration_stimuli/001417_2014-06-19_16-25-36_260595134347_rgbf000115-resize_5/001417_2014-06-19_16-25-36_260595134347_rgbf000115-resize_5-target.png,125,4.6255,4,2332,169,feet,jsons/VE125_randls_17_rotated.json,518590,813211,49,Man
12,354517,DepthScenes,duration_manipulation_targetAtFixation,jsons/VE125_randls_17_rotated.json,http://54.235.29.9/FacialAge/BNav_EC2/DepthDuration/v2_depth_duration_MTurk/v2_DepthDuration_HTML.html#299,299,1366,768,1366,768,8-29-2022,8-40-5,13,depth_duration_stimuli/000691_2014-06-08_13-08-50_260595134347_rgbf000132-resize_3/000691_2014-06-08_13-08-50_260595134347_rgbf000132-resize_3-target.png,125,4.1530000000000005,6,2260,100,feet,jsons/VE125_randls_17_rotated.json,518590,813211,49,Man
13,354517,DepthScenes,duration_manipulation_targetAtFixation,jsons/VE125_randls_17_rotated.json,http://54.235.29.9/FacialAge/BNav_EC2/DepthDuration/v2_depth_duration_MTurk/v2_DepthDuration_HTML.html#299,299,1366,768,1366,768,8-29-2022,8-40-5,14,depth_duration_stimuli/002213_2014-06-28_18-37-58_260595134347_rgbf000055-resize_1/002213_2014-06-28_18-37-58_260595134347_rgbf000055-resize_1-target.png,125,3.62,7,2289,139,feet,jsons/VE125_randls_17_rotated.json,518590,813211,49,Man
14,354517,DepthScenes,duration_manipulation_targetAtFixation,jsons/VE125_randls_17_rotated.json,http://54.235.29.9/FacialAge/BNav_EC2/DepthDuration/v2_depth_duration_MTurk/v2_DepthDuration_HTML.html#299,299,1366,768,1366,768,8-29-2022,8-40-5,15,depth_duration_stimuli/002444_2014-06-28_20-32-08_260595134347_rgbf000027-resize_0/002444_2014-06-28_20-32-08_260595134347_rgbf000027-resize_0-target.png,125,4.388999999999999,7,2447,132,feet,jsons/VE125_randls_17_rotated.json,518590,813211,49,Man
15,354517,DepthScenes,duration_manipulation_targetAtFixation,jsons/VE125_randls_17_rotated.json,http://54.235.29.9/FacialAge/BNav_EC2/DepthDuration/v2_depth_duration_MTurk/v2_DepthDuration_HTML.html#299,299,1366,768,1366,768,8-29-2022,8-40-5,16,depth_duration_stimuli/000436_2014-06-09_22-25-11_260595134347_rgbf000137-resize_1/000436_2014-06-09_22-25-11_260595134347_rgbf000137-resize_1-target.png,125,4.0705,6,2288,150,feet,jsons/VE125_randls_17_rotated.json,518590,813211,49,Man
16,354517,DepthScenes,duration_manipulation_targetAtFixation,jsons/VE125_randls_17_rotated.json,http://54.235.29.9/FacialAge/BNav_EC2/DepthDuration/v2_depth_duration_MTurk/v2_DepthDuration_HTML.html#299,299,1366,768,1366,768,8-29-2022,8-40-5,17,depth_duration_stimuli/003010_2014-06-15_12-54-35_094959634447_rgbf000112-resize_0/003010_2014-06-15_12-54-35_094959634447_rgbf000112-resize_0-target.png,125,3.1185,7,5149,133,feet,jsons/VE125_randls_17_rotated.json,518590,813211,49,Man
17,354517,DepthScenes,duration_manipulation_targetAtFixation,jsons/VE125_randls_17_rotated.json,http://54.235.29.9/FacialAge/BNav_EC2/DepthDuration/v2_depth_duration_MTurk/v2_DepthDuration_HTML.html#299,299,1366,768,1366,768,8-29-2022,8-40-5,18,depth_duration_stimuli/001810_2014-06-26_20-51-35_260595134347_rgbf000040-resize_3/001810_2014-06-26_20-51-35_260595134347_rgbf000040-resize_3-target.png,125,2.2525,5,2225,32,feet,jsons/VE125_randls_17_rotated.json,518590,813211,49,Man
18,354517,DepthScenes,duration_manipulation_targetAtFixation,jsons/VE125_randls_17_rotated.json,http://54.235.29.9/FacialAge/BNav_EC2/DepthDuration/v2_depth_duration_MTurk/v2_DepthDuration_HTML.html#299,299,1366,768,1366,768,8-29-2022,8-40-5,19,depth_duration_stimuli/001498_2014-06-19_17-45-14_260595134347_rgbf000129-resize_4/001498_2014-06-19_17-45-14_260595134347_rgbf000129-resize-original.jpg,125,1.4075,0,2364,137,feet,jsons/VE125_randls_17_rotated.json,518590,813211,49,Man
19,354517,DepthScenes,duration_manipulation_targetAtFixation,jsons/VE125_randls_17_rotated.json,http://54.235.29.9/FacialAge/BNav_EC2/DepthDuration/v2_depth_duration_MTurk/v2_DepthDuration_HTML.html#299,299,1366,768,1366,768,8-29-2022,8-40-5,20,depth_duration_stimuli/002414_2014-06-28_20-24-58_260595134347_rgbf000067-resize_4/002414_2014-06-28_20-24-58_260595134347_rgbf000067-resize_4-target.png,125,4.363,4,3214,108,feet,jsons/VE125_randls_17_rotated.json,518590,813211,49,Man
20,354517,DepthScenes,duration_manipulation_targetAtFixation,jsons/VE125_randls_17_rotated.json,http://54.235.29.9/FacialAge/BNav_EC2/DepthDuration/v2_depth_duration_MTurk/v2_DepthDuration_HTML.html#299,299,1366,768,1366,768,8-29-2022,8-40-5,21,depth_duration_stimuli/000773_2014-06-08_22-24-54_260595134347_rgbf000093-resize_1/000773_2014-06-08_22-24-54_260595134347_rgbf000093-resize_1-target.png,125,4.973,5,2195,91,feet,jsons/VE125_randls_17_rotated.json,518590,813211,49,Man
21,354517,DepthScenes,duration_manipulation_targetAtFixation,jsons/VE125_randls_17_rotated.json,http://54.235.29.9/FacialAge/BNav_EC2/DepthDuration/v2_depth_duration_MTurk/v2_DepthDuration_HTML.html#299,299,1366,768,1366,768,8-29-2022,8-40-5,22,depth_duration_stimuli/000483_2014-06-09_20-41-45_260595134347_rgbf000116-resize_4/000483_2014-06-09_20-41-45_260595134347_rgbf000116-resize_4-target.png,125,1.337,5,2248,114,feet,jsons/VE125_randls_17_rotated.json,518590,813211,49,Man
22,354517,DepthScenes,duration_manipulation_targetAtFixation,jsons/VE125_randls_17_rotated.json,http://54.235.29.9/FacialAge/BNav_EC2/DepthDuration/v2_depth_duration_MTurk/v2_DepthDuration_HTML.html#299,299,1366,768,1366,768,8-29-2022,8-40-5,23,depth_duration_stimuli/000469_2014-06-09_19-42-10_260595134347_rgbf000081-resize_1/000469_2014-06-09_19-42-10_260595134347_rgbf000081-resize_1-target.png,125,1.652,3,2517,127,feet,jsons/VE125_randls_17_rotated.json,518590,813211,49,Man
23,354517,DepthScenes,duration_manipulation_targetAtFixation,jsons/VE125_randls_17_rotated.json,http://54.235.29.9/FacialAge/BNav_EC2/DepthDuration/v2_depth_duration_MTurk/v2_DepthDuration_HTML.html#299,299,1366,768,1366,768,8-29-2022,8-40-5,24,depth_duration_stimuli/000635_2014-06-08_16-38-42_260595134347_rgbf000106-resize_1/000635_2014-06-08_16-38-42_260595134347_rgbf000106-resize_1-target.png,125,2.074,5,2265,138,feet,jsons/VE125_randls_17_rotated.json,518590,813211,49,Man
24,354517,DepthScenes,duration_manipulation_targetAtFixation,jsons/VE125_randls_17_rotated.json,http://54.235.29.9/FacialAge/BNav_EC2/DepthDuration/v2_depth_duration_MTurk/v2_DepthDuration_HTML.html#299,299,1366,768,1366,768,8-29-2022,8-40-5,25,depth_duration_stimuli/002279_2014-06-28_18-55-32_260595134347_rgbf000040-resize_5/002279_2014-06-28_18-55-32_260595134347_rgbf000040-resize_5-target.png,125,1.5043333333333,2,2433,23,feet,jsons/VE125_randls_17_rotated.json,518590,813211,49,Man
25,354517,DepthScenes,duration_manipulation_targetAtFixation,jsons/VE125_randls_17_rotated.json,http://54.235.29.9/FacialAge/BNav_EC2/DepthDuration/v2_depth_duration_MTurk/v2_DepthDuration_HTML.html#299,299,1366,768,1366,768,8-29-2022,8-40-5,26,depth_duration_stimuli/001447_2014-06-19_17-00-32_260595134347_rgbf000082-resize_5/001447_2014-06-19_17-00-32_260595134347_rgbf000082-resize_5-target.png,125,4.13775,5,2413,50,feet,jsons/VE125_randls_17_rotated.json,518590,813211,49,Man
26,354517,DepthScenes,duration_manipulation_targetAtFixation,jsons/VE125_randls_17_rotated.json,http://54.235.29.9/FacialAge/BNav_EC2/DepthDuration/v2_depth_duration_MTurk/v2_DepthDuration_HTML.html#299,299,1366,768,1366,768,8-29-2022,8-40-5,27,depth_duration_stimuli/000447_2014-06-08_16-15-46_260595134347_rgbf000130-resize_1/000447_2014-06-08_16-15-46_260595134347_rgbf000130-resize_1-target.png,125,4.479,6,2646,107,feet,jsons/VE125_randls_17_rotated.json,518590,813211,49,Man
27,354517,DepthScenes,duration_manipulation_targetAtFixation,jsons/VE125_randls_17_rotated.json,http://54.235.29.9/FacialAge/BNav_EC2/DepthDuration/v2_depth_duration_MTurk/v2_DepthDuration_HTML.html#299,299,1366,768,1366,768,8-29-2022,8-40-5,28,depth_duration_stimuli/002209_2014-06-28_18-36-10_260595134347_rgbf000051-resize_1/002209_2014-06-28_18-36-10_260595134347_rgbf000051-resize_1-target.png,125,2.057,4,2963,122,feet,jsons/VE125_randls_17_rotated.json,518590,813211,49,Man
28,354517,DepthScenes,duration_manipulation_targetAtFixation,jsons/VE125_randls_17_rotated.json,http://54.235.29.9/FacialAge/BNav_EC2/DepthDuration/v2_depth_duration_MTurk/v2_DepthDuration_HTML.html#299,299,1366,768,1366,768,8-29-2022,8-40-5,29,depth_duration_stimuli/002763_2014-06-22_19-13-10_094959634447_rgbf000075-resize_4/002763_2014-06-22_19-13-10_094959634447_rgbf000075-resize_4-target.png,125,1.68375,5,2559,125,feet,jsons/VE125_randls_17_rotated.json,518590,813211,49,Man
29,354517,DepthScenes,duration_manipulation_targetAtFixation,jsons/VE125_randls_17_rotated.json,http://54.235.29.9/FacialAge/BNav_EC2/DepthDuration/v2_depth_duration_MTurk/v2_DepthDuration_HTML.html#299,299,1366,768,1366,768,8-29-2022,8-40-5,30,depth_duration_stimuli/002072_2014-06-24_21-48-06_260595134347_rgbf000115-resize_0/002072_2014-06-24_21-48-06_260595134347_rgbf000115-resize-original.jpg,125,4.702,0,2618,118,feet,jsons/VE125_randls_17_rotated.json,518590,813211,49,Man
30,354517,DepthScenes,duration_manipulation_targetAtFixation,jsons/VE125_randls_17_rotated.json,http://54.235.29.9/FacialAge/BNav_EC2/DepthDuration/v2_depth_duration_MTurk/v2_DepthDuration_HTML.html#299,299,1366,768,1366,768,8-29-2022,8-40-5,31,depth_duration_stimuli/001815_2014-06-26_20-52-55_260595134347_rgbf000020-resize_0/001815_2014-06-26_20-52-55_260595134347_rgbf000020-resize_0-target.png,125,3.3865,6,2883,123,feet,jsons/VE125_randls_17_rotated.json,518590,813211,49,Man
31,354517,DepthScenes,duration_manipulation_targetAtFixation,jsons/VE125_randls_17_rotated.json,http://54.235.29.9/FacialAge/BNav_EC2/DepthDuration/v2_depth_duration_MTurk/v2_DepthDuration_HTML.html#299,299,1366,768,1366,768,8-29-2022,8-40-5,32,depth_duration_stimuli/001808_2014-06-26_20-50-58_260595134347_rgbf000029-resize_1/001808_2014-06-26_20-50-58_260595134347_rgbf000029-resize_1-target.png,125,4.249,7,3021,128,feet,jsons/VE125_randls_17_rotated.json,518590,813211,49,Man
32,354517,DepthScenes,duration_manipulation_targetAtFixation,jsons/VE125_randls_17_rotated.json,http://54.235.29.9/FacialAge/BNav_EC2/DepthDuration/v2_depth_duration_MTurk/v2_DepthDuration_HTML.html#299,299,1366,768,1366,768,8-29-2022,8-40-5,33,depth_duration_stimuli/001392_2014-06-19_16-07-59_260595134347_rgbf000046-resize_1/001392_2014-06-19_16-07-59_260595134347_rgbf000046-resize_1-target.png,125,4.135,0,2943,4,feet,jsons/VE125_randls_17_rotated.json,518590,813211,49,Man
33,354517,DepthScenes,duration_manipulation_targetAtFixation,jsons/VE125_randls_17_rotated.json,http://54.235.29.9/FacialAge/BNav_EC2/DepthDuration/v2_depth_duration_MTurk/v2_DepthDuration_HTML.html#299,299,1366,768,1366,768,8-29-2022,8-40-5,34,depth_duration_stimuli/001570_2014-06-20_17-21-09_260595134347_rgbf000135-resize_4/001570_2014-06-20_17-21-09_260595134347_rgbf000135-resize_4-target.png,125,4.467,6,2415,108,feet,jsons/VE125_randls_17_rotated.json,518590,813211,49,Man
34,354517,DepthScenes,duration_manipulation_targetAtFixation,jsons/VE125_randls_17_rotated.json,http://54.235.29.9/FacialAge/BNav_EC2/DepthDuration/v2_depth_duration_MTurk/v2_DepthDuration_HTML.html#299,299,1366,768,1366,768,8-29-2022,8-40-5,35,depth_duration_stimuli/000457_2014-06-08_16-52-43_260595134347_rgbf000199-resize_1/000457_2014-06-08_16-52-43_260595134347_rgbf000199-resize_1-target.png,125,3.6489999999999996,7,2605,115,feet,jsons/VE125_randls_17_rotated.json,518590,813211,49,Man
35,354517,DepthScenes,duration_manipulation_targetAtFixation,jsons/VE125_randls_17_rotated.json,http://54.235.29.9/FacialAge/BNav_EC2/DepthDuration/v2_depth_duration_MTurk/v2_DepthDuration_HTML.html#299,299,1366,768,1366,768,8-29-2022,8-40-5,36,depth_duration_stimuli/000929_2014-06-09_16-33-19_260595134347_rgbf000139-resize_0/000929_2014-06-09_16-33-19_260595134347_rgbf000139-resize_0-target.png,125,2.8680000000000003,4,2611,113,feet,jsons/VE125_randls_17_rotated.json,518590,813211,49,Man
36,354517,DepthScenes,duration_manipulation_targetAtFixation,jsons/VE125_randls_17_rotated.json,http://54.235.29.9/FacialAge/BNav_EC2/DepthDuration/v2_depth_duration_MTurk/v2_DepthDuration_HTML.html#299,299,1366,768,1366,768,8-29-2022,8-40-5,37,depth_duration_stimuli/002467_2014-06-28_20-38-07_260595134347_rgbf000026-resize_2/002467_2014-06-28_20-38-07_260595134347_rgbf000026-resize_2-target.png,125,4.742,6,2889,132,feet,jsons/VE125_randls_17_rotated.json,518590,813211,49,Man
37,354517,DepthScenes,duration_manipulation_targetAtFixation,jsons/VE125_randls_17_rotated.json,http://54.235.29.9/FacialAge/BNav_EC2/DepthDuration/v2_depth_duration_MTurk/v2_DepthDuration_HTML.html#299,299,1366,768,1366,768,8-29-2022,8-40-5,38,depth_duration_stimuli/002570_2014-06-24_13-59-54_094959634447_rgbf000059-resize_0/002570_2014-06-24_13-59-54_094959634447_rgbf000059-resize_0-target.png,125,4.037,8,3114,129,feet,jsons/VE125_randls_17_rotated.json,518590,813211,49,Man
38,354517,DepthScenes,duration_manipulation_targetAtFixation,jsons/VE125_randls_17_rotated.json,http://54.235.29.9/FacialAge/BNav_EC2/DepthDuration/v2_depth_duration_MTurk/v2_DepthDuration_HTML.html#299,299,1366,768,1366,768,8-29-2022,8-40-5,39,depth_duration_stimuli/003495_2014-05-21_16-01-51_094959634447_rgbf000100-resize_3/003495_2014-05-21_16-01-51_094959634447_rgbf000100-resize_3-target.png,125,1.6255,0,3115,0,feet,jsons/VE125_randls_17_rotated.json,518590,813211,49,Man
39,354517,DepthScenes,duration_manipulation_targetAtFixation,jsons/VE125_randls_17_rotated.json,http://54.235.29.9/FacialAge/BNav_EC2/DepthDuration/v2_depth_duration_MTurk/v2_DepthDuration_HTML.html#299,299,1366,768,1366,768,8-29-2022,8-40-5,40,depth_duration_stimuli/001244_2014-06-17_16-47-45_260595134347_rgbf000030-resize_4/001244_2014-06-17_16-47-45_260595134347_rgbf000030-resize_4-target.png,125,2.0425,6,2573,66,feet,jsons/VE125_randls_17_rotated.json,518590,813211,49,Man
40,354517,DepthScenes,duration_manipulation_targetAtFixation,jsons/VE125_randls_17_rotated.json,http://54.235.29.9/FacialAge/BNav_EC2/DepthDuration/v2_depth_duration_MTurk/v2_DepthDuration_HTML.html#299,299,1366,768,1366,768,8-29-2022,8-40-5,41,depth_duration_stimuli/002425_2014-06-28_20-27-29_260595134347_rgbf000031-resize_8/002425_2014-06-28_20-27-29_260595134347_rgbf000031-resize_8-target.png,125,3.8960000000000004,7,2857,136,feet,jsons/VE125_randls_17_rotated.json,518590,813211,49,Man
41,354517,DepthScenes,duration_manipulation_targetAtFixation,jsons/VE125_randls_17_rotated.json,http://54.235.29.9/FacialAge/BNav_EC2/DepthDuration/v2_depth_duration_MTurk/v2_DepthDuration_HTML.html#299,299,1366,768,1366,768,8-29-2022,8-40-5,42,depth_duration_stimuli/000642_2014-06-08_16-59-25_260595134347_rgbf000098-resize_2/000642_2014-06-08_16-59-25_260595134347_rgbf000098-resize_2-target.png,125,2.8815,6,2992,106,feet,jsons/VE125_randls_17_rotated.json,518590,813211,49,Man
42,354517,DepthScenes,duration_manipulation_targetAtFixation,jsons/VE125_randls_17_rotated.json,http://54.235.29.9/FacialAge/BNav_EC2/DepthDuration/v2_depth_duration_MTurk/v2_DepthDuration_HTML.html#299,299,1366,768,1366,768,8-29-2022,8-40-5,43,depth_duration_stimuli/001094_2014-06-15_17-36-00_260595134347_rgbf000205-resize_0/001094_2014-06-15_17-36-00_260595134347_rgbf000205-resize_0-target.png,125,4.2175,6,2388,139,feet,jsons/VE125_randls_17_rotated.json,518590,813211,49,Man
43,354517,DepthScenes,duration_manipulation_targetAtFixation,jsons/VE125_randls_17_rotated.json,http://54.235.29.9/FacialAge/BNav_EC2/DepthDuration/v2_depth_duration_MTurk/v2_DepthDuration_HTML.html#299,299,1366,768,1366,768,8-29-2022,8-40-5,44,depth_duration_stimuli/000692_2014-06-08_13-09-42_260595134347_rgbf000199-resize_2/000692_2014-06-08_13-09-42_260595134347_rgbf000199-resize_2-target.png,125,3.661,7,2286,124,feet,jsons/VE125_randls_17_rotated.json,518590,813211,49,Man
44,354517,DepthScenes,duration_manipulation_targetAtFixation,jsons/VE125_randls_17_rotated.json,http://54.235.29.9/FacialAge/BNav_EC2/DepthDuration/v2_depth_duration_MTurk/v2_DepthDuration_HTML.html#299,299,1366,768,1366,768,8-29-2022,8-40-5,45,depth_duration_stimuli/000137_2014-05-20_17-04-49_260595134347_rgbf000120-resize_1/000137_2014-05-20_17-04-49_260595134347_rgbf000120-resize_1-target.png,125,3.786,6,2630,107,feet,jsons/VE125_randls_17_rotated.json,518590,813211,49,Man
45,354517,DepthScenes,duration_manipulation_targetAtFixation,jsons/VE125_randls_17_rotated.json,http://54.235.29.9/FacialAge/BNav_EC2/DepthDuration/v2_depth_duration_MTurk/v2_DepthDuration_HTML.html#299,299,1366,768,1366,768,8-29-2022,8-40-5,46,depth_duration_stimuli/000736_2014-06-08_18-24-15_260595134347_rgbf000206-resize_3/000736_2014-06-08_18-24-15_260595134347_rgbf000206-resize_3-target.png,125,3.515,0,3052,35,feet,jsons/VE125_randls_17_rotated.json,518590,813211,49,Man
46,354517,DepthScenes,duration_manipulation_targetAtFixation,jsons/VE125_randls_17_rotated.json,http://54.235.29.9/FacialAge/BNav_EC2/DepthDuration/v2_depth_duration_MTurk/v2_DepthDuration_HTML.html#299,299,1366,768,1366,768,8-29-2022,8-40-5,47,depth_duration_stimuli/003338_2014-05-20_11-01-23_094959634447_rgbf000051-resize_6/003338_2014-05-20_11-01-23_094959634447_rgbf000051-resize_6-target.png,125,1.693,6,2360,4,feet,jsons/VE125_randls_17_rotated.json,518590,813211,49,Man
47,354517,DepthScenes,duration_manipulation_targetAtFixation,jsons/VE125_randls_17_rotated.json,http://54.235.29.9/FacialAge/BNav_EC2/DepthDuration/v2_depth_duration_MTurk/v2_DepthDuration_HTML.html#299,299,1366,768,1366,768,8-29-2022,8-40-5,48,depth_duration_stimuli/002509_2014-06-24_13-19-22_094959634447_rgbf000077-resize_0/002509_2014-06-24_13-19-22_094959634447_rgbf000077-resize_0-target.png,125,1.3065,3,2269,115,feet,jsons/VE125_randls_17_rotated.json,518590,813211,49,Man
48,354517,DepthScenes,duration_manipulation_targetAtFixation,jsons/VE125_randls_17_rotated.json,http://54.235.29.9/FacialAge/BNav_EC2/DepthDuration/v2_depth_duration_MTurk/v2_DepthDuration_HTML.html#299,299,1366,768,1366,768,8-29-2022,8-40-5,49,depth_duration_stimuli/001170_2014-06-17_15-43-44_260595134347_rgbf000096-resize_6/001170_2014-06-17_15-43-44_260595134347_rgbf000096-resize-original.jpg,125,1.1909999999999998,0,2278,124,feet,jsons/VE125_randls_17_rotated.json,518590,813211,49,Man
49,354517,DepthScenes,duration_manipulation_targetAtFixation,jsons/VE125_randls_17_rotated.json,http://54.235.29.9/FacialAge/BNav_EC2/DepthDuration/v2_depth_duration_MTurk/v2_DepthDuration_HTML.html#299,299,1366,768,1366,768,8-29-2022,8-40-5,50,depth_duration_stimuli/001828_2014-06-26_21-40-03_260595134347_rgbf000024-resize_0/001828_2014-06-26_21-40-03_260595134347_rgbf000024-resize_0-target.png,125,4.8260000000000005,5,2782,119,feet,jsons/VE125_randls_17_rotated.json,518590,813211,49,Man
50,354517,DepthScenes,duration_manipulation_targetAtFixation,jsons/VE125_randls_17_rotated.json,http://54.235.29.9/FacialAge/BNav_EC2/DepthDuration/v2_depth_duration_MTurk/v2_DepthDuration_HTML.html#299,299,1366,768,1366,768,8-29-2022,8-40-5,51,depth_duration_stimuli/000009_2014-05-26_14-32-05_260595134347_rgbf000034-resize_3/000009_2014-05-26_14-32-05_260595134347_rgbf000034-resize_3-target.png,125,3.8715,6,2417,119,feet,jsons/VE125_randls_17_rotated.json,518590,813211,49,Man
51,354517,DepthScenes,duration_manipulation_targetAtFixation,jsons/VE125_randls_17_rotated.json,http://54.235.29.9/FacialAge/BNav_EC2/DepthDuration/v2_depth_duration_MTurk/v2_DepthDuration_HTML.html#299,299,1366,768,1366,768,8-29-2022,8-40-5,52,depth_duration_stimuli/000103_2014-05-14_22-01-17_260595134347_rgbf000152-resize_5/000103_2014-05-14_22-01-17_260595134347_rgbf000152-resize_5-target.png,125,1.993,7,2241,120,feet,jsons/VE125_randls_17_rotated.json,518590,813211,49,Man
52,354517,DepthScenes,duration_manipulation_targetAtFixation,jsons/VE125_randls_17_rotated.json,http://54.235.29.9/FacialAge/BNav_EC2/DepthDuration/v2_depth_duration_MTurk/v2_DepthDuration_HTML.html#299,299,1366,768,1366,768,8-29-2022,8-40-5,53,depth_duration_stimuli/001555_2014-06-20_17-12-10_260595134347_rgbf000065-resize_4/001555_2014-06-20_17-12-10_260595134347_rgbf000065-resize_4-target.png,125,1.633,3,2263,136,feet,jsons/VE125_randls_17_rotated.json,518590,813211,49,Man
53,354517,DepthScenes,duration_manipulation_targetAtFixation,jsons/VE125_randls_17_rotated.json,http://54.235.29.9/FacialAge/BNav_EC2/DepthDuration/v2_depth_duration_MTurk/v2_DepthDuration_HTML.html#299,299,1366,768,1366,768,8-29-2022,8-40-5,54,depth_duration_stimuli/002953_2014-06-08_17-32-18_094959634447_rgbf000059-resize_5/002953_2014-06-08_17-32-18_094959634447_rgbf000059-resize_5-target.png,125,1.551,2,2211,89,feet,jsons/VE125_randls_17_rotated.json,518590,813211,49,Man
54,354517,DepthScenes,duration_manipulation_targetAtFixation,jsons/VE125_randls_17_rotated.json,http://54.235.29.9/FacialAge/BNav_EC2/DepthDuration/v2_depth_duration_MTurk/v2_DepthDuration_HTML.html#299,299,1366,768,1366,768,8-29-2022,8-40-5,55,depth_duration_stimuli/000878_2014-06-08_22-52-45_260595134347_rgbf000045-resize_2/000878_2014-06-08_22-52-45_260595134347_rgbf000045-resize_2-target.png,125,2.092,4,2546,124,feet,jsons/VE125_randls_17_rotated.json,518590,813211,49,Man
55,354517,DepthScenes,duration_manipulation_targetAtFixation,jsons/VE125_randls_17_rotated.json,http://54.235.29.9/FacialAge/BNav_EC2/DepthDuration/v2_depth_duration_MTurk/v2_DepthDuration_HTML.html#299,299,1366,768,1366,768,8-29-2022,8-40-5,56,depth_duration_stimuli/001214_2014-06-17_16-13-55_260595134347_rgbf000111-resize_0/001214_2014-06-17_16-13-55_260595134347_rgbf000111-resize_0-target.png,125,2.6505,3,2826,304,feet,jsons/VE125_randls_17_rotated.json,518590,813211,49,Man
56,354517,DepthScenes,duration_manipulation_targetAtFixation,jsons/VE125_randls_17_rotated.json,http://54.235.29.9/FacialAge/BNav_EC2/DepthDuration/v2_depth_duration_MTurk/v2_DepthDuration_HTML.html#299,299,1366,768,1366,768,8-29-2022,8-40-5,57,depth_duration_stimuli/000810_2014-06-08_17-20-01_260595134347_rgbf000105-resize_0/000810_2014-06-08_17-20-01_260595134347_rgbf000105-resize_0-target.png,125,1.4865,4,2201,127,feet,jsons/VE125_randls_17_rotated.json,518590,813211,49,Man
57,354517,DepthScenes,duration_manipulation_targetAtFixation,jsons/VE125_randls_17_rotated.json,http://54.235.29.9/FacialAge/BNav_EC2/DepthDuration/v2_depth_duration_MTurk/v2_DepthDuration_HTML.html#299,299,1366,768,1366,768,8-29-2022,8-40-5,58,depth_duration_stimuli/002639_2014-06-24_14-51-37_094959634447_rgbf000074-resize_4/002639_2014-06-24_14-51-37_094959634447_rgbf000074-resize_4-target.png,125,4.0375,5,2011,126,feet,jsons/VE125_randls_17_rotated.json,518590,813211,49,Man
58,354517,DepthScenes,duration_manipulation_targetAtFixation,jsons/VE125_randls_17_rotated.json,http://54.235.29.9/FacialAge/BNav_EC2/DepthDuration/v2_depth_duration_MTurk/v2_DepthDuration_HTML.html#299,299,1366,768,1366,768,8-29-2022,8-40-5,59,depth_duration_stimuli/003292_2014-05-14_21-53-49_094959634447_rgbf000100-resize_2/003292_2014-05-14_21-53-49_094959634447_rgbf000100-resize_2-target.png,125,3.4815,5,2517,124,feet,jsons/VE125_randls_17_rotated.json,518590,813211,49,Man
59,354517,DepthScenes,duration_manipulation_targetAtFixation,jsons/VE125_randls_17_rotated.json,http://54.235.29.9/FacialAge/BNav_EC2/DepthDuration/v2_depth_duration_MTurk/v2_DepthDuration_HTML.html#299,299,1366,768,1366,768,8-29-2022,8-40-5,60,depth_duration_stimuli/003490_2014-05-21_15-50-11_094959634447_rgbf000101-resize_3/003490_2014-05-21_15-50-11_094959634447_rgbf000101-resize_3-target.png,125,3.6445,3,2218,112,feet,jsons/VE125_randls_17_rotated.json,518590,813211,49,Man
60,354517,DepthScenes,duration_manipulation_targetAtFixation,jsons/VE125_randls_17_rotated.json,http://54.235.29.9/FacialAge/BNav_EC2/DepthDuration/v2_depth_duration_MTurk/v2_DepthDuration_HTML.html#299,299,1366,768,1366,768,8-29-2022,8-40-5,61,depth_duration_stimuli/001175_2014-06-17_15-45-55_260595134347_rgbf000129-resize_4/001175_2014-06-17_15-45-55_260595134347_rgbf000129-resize_4-target.png,125,4.255,3,2705,148,feet,jsons/VE125_randls_17_rotated.json,518590,813211,49,Man
61,354517,DepthScenes,duration_manipulation_targetAtFixation,jsons/VE125_randls_17_rotated.json,http://54.235.29.9/FacialAge/BNav_EC2/DepthDuration/v2_depth_duration_MTurk/v2_DepthDuration_HTML.html#299,299,1366,768,1366,768,8-29-2022,8-40-5,62,depth_duration_stimuli/001571_2014-06-20_17-21-32_260595134347_rgbf000089-resize_1/001571_2014-06-20_17-21-32_260595134347_rgbf000089-resize_1-target.png,125,1.86,4,3299,30,feet,jsons/VE125_randls_17_rotated.json,518590,813211,49,Man
62,354517,DepthScenes,duration_manipulation_targetAtFixation,jsons/VE125_randls_17_rotated.json,http://54.235.29.9/FacialAge/BNav_EC2/DepthDuration/v2_depth_duration_MTurk/v2_DepthDuration_HTML.html#299,299,1366,768,1366,768,8-29-2022,8-40-5,63,depth_duration_stimuli/002272_2014-06-28_18-53-56_260595134347_rgbf000067-resize_2/002272_2014-06-28_18-53-56_260595134347_rgbf000067-resize_2-target.png,125,1.138,2,3201,119,feet,jsons/VE125_randls_17_rotated.json,518590,813211,49,Man
63,354517,DepthScenes,duration_manipulation_targetAtFixation,jsons/VE125_randls_17_rotated.json,http://54.235.29.9/FacialAge/BNav_EC2/DepthDuration/v2_depth_duration_MTurk/v2_DepthDuration_HTML.html#299,299,1366,768,1366,768,8-29-2022,8-40-5,64,depth_duration_stimuli/003129_2014-05-12_10-48-10_094959634447_rgbf000100-resize_0/003129_2014-05-12_10-48-10_094959634447_rgbf000100-resize_0-target.png,125,4.9305,5,3056,123,feet,jsons/VE125_randls_17_rotated.json,518590,813211,49,Man
64,354517,DepthScenes,duration_manipulation_targetAtFixation,jsons/VE125_randls_17_rotated.json,http://54.235.29.9/FacialAge/BNav_EC2/DepthDuration/v2_depth_duration_MTurk/v2_DepthDuration_HTML.html#299,299,1366,768,1366,768,8-29-2022,8-40-5,65,depth_duration_stimuli/000414_2014-06-04_19-49-13_260595134347_rgbf000044-resize_0/000414_2014-06-04_19-49-13_260595134347_rgbf000044-resize_0-target.png,125,4.329,7,2749,98,feet,jsons/VE125_randls_17_rotated.json,518590,813211,49,Man
65,354517,DepthScenes,duration_manipulation_targetAtFixation,jsons/VE125_randls_17_rotated.json,http://54.235.29.9/FacialAge/BNav_EC2/DepthDuration/v2_depth_duration_MTurk/v2_DepthDuration_HTML.html#299,299,1366,768,1366,768,8-29-2022,8-40-5,66,depth_duration_stimuli/001540_2014-06-20_17-01-05_260595134347_rgbf000086-resize_2/001540_2014-06-20_17-01-05_260595134347_rgbf000086-resize-original.jpg,125,1.459,0,2543,122,feet,jsons/VE125_randls_17_rotated.json,518590,813211,49,Man
66,354517,DepthScenes,duration_manipulation_targetAtFixation,jsons/VE125_randls_17_rotated.json,http://54.235.29.9/FacialAge/BNav_EC2/DepthDuration/v2_depth_duration_MTurk/v2_DepthDuration_HTML.html#299,299,1366,768,1366,768,8-29-2022,8-40-5,67,depth_duration_stimuli/000927_2014-06-09_16-32-30_260595134347_rgbf000123-resize_3/000927_2014-06-09_16-32-30_260595134347_rgbf000123-resize_3-target.png,125,2.6785,6,2266,129,feet,jsons/VE125_randls_17_rotated.json,518590,813211,49,Man
67,354517,DepthScenes,duration_manipulation_targetAtFixation,jsons/VE125_randls_17_rotated.json,http://54.235.29.9/FacialAge/BNav_EC2/DepthDuration/v2_depth_duration_MTurk/v2_DepthDuration_HTML.html#299,299,1366,768,1366,768,8-29-2022,8-40-5,68,depth_duration_stimuli/001110_2014-06-15_17-25-28_260595134347_rgbf000150-resize_1/001110_2014-06-15_17-25-28_260595134347_rgbf000150-resize_1-target.png,125,1.7115,6,2734,131,feet,jsons/VE125_randls_17_rotated.json,518590,813211,49,Man
68,354517,DepthScenes,duration_manipulation_targetAtFixation,jsons/VE125_randls_17_rotated.json,http://54.235.29.9/FacialAge/BNav_EC2/DepthDuration/v2_depth_duration_MTurk/v2_DepthDuration_HTML.html#299,299,1366,768,1366,768,8-29-2022,8-40-5,69,depth_duration_stimuli/002344_2014-06-28_20-06-29_260595134347_rgbf000030-resize_1/002344_2014-06-28_20-06-29_260595134347_rgbf000030-resize_1-target.png,125,1.5795,8,2431,123,feet,jsons/VE125_randls_17_rotated.json,518590,813211,49,Man
69,354517,DepthScenes,duration_manipulation_targetAtFixation,jsons/VE125_randls_17_rotated.json,http://54.235.29.9/FacialAge/BNav_EC2/DepthDuration/v2_depth_duration_MTurk/v2_DepthDuration_HTML.html#299,299,1366,768,1366,768,8-29-2022,8-40-5,70,depth_duration_stimuli/002725_2014-06-22_11-47-51_094959634447_rgbf000070-resize_1/002725_2014-06-22_11-47-51_094959634447_rgbf000070-resize_1-target.png,125,2.195,8,3177,119,feet,jsons/VE125_randls_17_rotated.json,518590,813211,49,Man
70,354517,DepthScenes,duration_manipulation_targetAtFixation,jsons/VE125_randls_17_rotated.json,http://54.235.29.9/FacialAge/BNav_EC2/DepthDuration/v2_depth_duration_MTurk/v2_DepthDuration_HTML.html#299,299,1366,768,1366,768,8-29-2022,8-40-5,71,depth_duration_stimuli/002758_2014-06-22_19-11-20_094959634447_rgbf000128-resize_1/002758_2014-06-22_19-11-20_094959634447_rgbf000128-resize_1-target.png,125,2.555,5,2484,66,feet,jsons/VE125_randls_17_rotated.json,518590,813211,49,Man
71,354517,DepthScenes,duration_manipulation_targetAtFixation,jsons/VE125_randls_17_rotated.json,http://54.235.29.9/FacialAge/BNav_EC2/DepthDuration/v2_depth_duration_MTurk/v2_DepthDuration_HTML.html#299,299,1366,768,1366,768,8-29-2022,8-40-5,72,depth_duration_stimuli/002630_2014-06-24_14-47-50_094959634447_rgbf000055-resize_1/002630_2014-06-24_14-47-50_094959634447_rgbf000055-resize_1-target.png,125,3.0095,7,2774,65,feet,jsons/VE125_randls_17_rotated.json,518590,813211,49,Man
72,354517,DepthScenes,duration_manipulation_targetAtFixation,jsons/VE125_randls_17_rotated.json,http://54.235.29.9/FacialAge/BNav_EC2/DepthDuration/v2_depth_duration_MTurk/v2_DepthDuration_HTML.html#299,299,1366,768,1366,768,8-29-2022,8-40-5,73,depth_duration_stimuli/002340_2014-06-28_20-05-46_260595134347_rgbf000113-resize_0/002340_2014-06-28_20-05-46_260595134347_rgbf000113-resize_0-target.png,125,2.4735,8,2319,124,feet,jsons/VE125_randls_17_rotated.json,518590,813211,49,Man
73,354517,DepthScenes,duration_manipulation_targetAtFixation,jsons/VE125_randls_17_rotated.json,http://54.235.29.9/FacialAge/BNav_EC2/DepthDuration/v2_depth_duration_MTurk/v2_DepthDuration_HTML.html#299,299,1366,768,1366,768,8-29-2022,8-40-5,74,depth_duration_stimuli/001016_2014-06-09_16-16-10_260595134347_rgbf000112-resize_5/001016_2014-06-09_16-16-10_260595134347_rgbf000112-resize_5-target.png,125,1.6565,8,2755,128,feet,jsons/VE125_randls_17_rotated.json,518590,813211,49,Man
74,354517,DepthScenes,duration_manipulation_targetAtFixation,jsons/VE125_randls_17_rotated.json,http://54.235.29.9/FacialAge/BNav_EC2/DepthDuration/v2_depth_duration_MTurk/v2_DepthDuration_HTML.html#299,299,1366,768,1366,768,8-29-2022,8-40-5,75,depth_duration_stimuli/001450_2014-06-19_17-02-03_260595134347_rgbf000203-resize_4/001450_2014-06-19_17-02-03_260595134347_rgbf000203-resize_4-target.png,125,4.0106666666667,6,2648,136,feet,jsons/VE125_randls_17_rotated.json,518590,813211,49,Man
75,354517,DepthScenes,duration_manipulation_targetAtFixation,jsons/VE125_randls_17_rotated.json,http://54.235.29.9/FacialAge/BNav_EC2/DepthDuration/v2_depth_duration_MTurk/v2_DepthDuration_HTML.html#299,299,1366,768,1366,768,8-29-2022,8-40-5,76,depth_duration_stimuli/001449_2014-06-19_17-01-27_260595134347_rgbf000116-resize_2/001449_2014-06-19_17-01-27_260595134347_rgbf000116-resize_2-target.png,125,3.452,7,2431,135,feet,jsons/VE125_randls_17_rotated.json,518590,813211,49,Man
76,354517,DepthScenes,duration_manipulation_targetAtFixation,jsons/VE125_randls_17_rotated.json,http://54.235.29.9/FacialAge/BNav_EC2/DepthDuration/v2_depth_duration_MTurk/v2_DepthDuration_HTML.html#299,299,1366,768,1366,768,8-29-2022,8-40-5,77,depth_duration_stimuli/002323_2014-06-28_20-01-54_260595134347_rgbf000051-resize_4/002323_2014-06-28_20-01-54_260595134347_rgbf000051-resize_4-target.png,125,3.7310000000000003,7,2609,125,feet,jsons/VE125_randls_17_rotated.json,518590,813211,49,Man
77,354517,DepthScenes,duration_manipulation_targetAtFixation,jsons/VE125_randls_17_rotated.json,http://54.235.29.9/FacialAge/BNav_EC2/DepthDuration/v2_depth_duration_MTurk/v2_DepthDuration_HTML.html#299,299,1366,768,1366,768,8-29-2022,8-40-5,78,depth_duration_stimuli/000917_2014-06-09_22-45-29_260595134347_rgbf000149-resize_3/000917_2014-06-09_22-45-29_260595134347_rgbf000149-resize_3-target.png,125,4.1865,7,2307,118,feet,jsons/VE125_randls_17_rotated.json,518590,813211,49,Man
78,354517,DepthScenes,duration_manipulation_targetAtFixation,jsons/VE125_randls_17_rotated.json,http://54.235.29.9/FacialAge/BNav_EC2/DepthDuration/v2_depth_duration_MTurk/v2_DepthDuration_HTML.html#299,299,1366,768,1366,768,8-29-2022,8-40-5,79,depth_duration_stimuli/000749_2014-06-08_21-55-06_260595134347_rgbf000070-resize_2/000749_2014-06-08_21-55-06_260595134347_rgbf000070-resize_2-target.png,125,2.331,7,2930,30,feet,jsons/VE125_randls_17_rotated.json,518590,813211,49,Man
79,354517,DepthScenes,duration_manipulation_targetAtFixation,jsons/VE125_randls_17_rotated.json,http://54.235.29.9/FacialAge/BNav_EC2/DepthDuration/v2_depth_duration_MTurk/v2_DepthDuration_HTML.html#299,299,1366,768,1366,768,8-29-2022,8-40-5,80,depth_duration_stimuli/002788_2014-06-22_19-36-03_094959634447_rgbf000088-resize_2/002788_2014-06-22_19-36-03_094959634447_rgbf000088-resize_2-target.png,125,1.6465,0,2681,4,feet,jsons/VE125_randls_17_rotated.json,518590,813211,49,Man
80,354517,DepthScenes,duration_manipulation_targetAtFixation,jsons/VE125_randls_17_rotated.json,http://54.235.29.9/FacialAge/BNav_EC2/DepthDuration/v2_depth_duration_MTurk/v2_DepthDuration_HTML.html#299,299,1366,768,1366,768,8-29-2022,8-40-5,81,depth_duration_stimuli/002678_2014-06-13_16-15-32_094959634447_rgbf000151-resize_6/002678_2014-06-13_16-15-32_094959634447_rgbf000151-resize_6-target.png,125,2.1830000000000003,8,2500,125,feet,jsons/VE125_randls_17_rotated.json,518590,813211,49,Man
81,354517,DepthScenes,duration_manipulation_targetAtFixation,jsons/VE125_randls_17_rotated.json,http://54.235.29.9/FacialAge/BNav_EC2/DepthDuration/v2_depth_duration_MTurk/v2_DepthDuration_HTML.html#299,299,1366,768,1366,768,8-29-2022,8-40-5,82,depth_duration_stimuli/000368_2014-06-09_15-53-01_260595134347_rgbf000155-resize_2/000368_2014-06-09_15-53-01_260595134347_rgbf000155-resize_2-target.png,125,2.4859999999999998,8,2327,119,feet,jsons/VE125_randls_17_rotated.json,518590,813211,49,Man
82,354517,DepthScenes,duration_manipulation_targetAtFixation,jsons/VE125_randls_17_rotated.json,http://54.235.29.9/FacialAge/BNav_EC2/DepthDuration/v2_depth_duration_MTurk/v2_DepthDuration_HTML.html#299,299,1366,768,1366,768,8-29-2022,8-40-5,83,depth_duration_stimuli/000742_2014-06-08_18-48-09_260595134347_rgbf000164-resize_4/000742_2014-06-08_18-48-09_260595134347_rgbf000164-resize_4-target.png,125,4.632,5,3368,108,feet,jsons/VE125_randls_17_rotated.json,518590,813211,49,Man
83,354517,DepthScenes,duration_manipulation_targetAtFixation,jsons/VE125_randls_17_rotated.json,http://54.235.29.9/FacialAge/BNav_EC2/DepthDuration/v2_depth_duration_MTurk/v2_DepthDuration_HTML.html#299,299,1366,768,1366,768,8-29-2022,8-40-5,84,depth_duration_stimuli/001066_2014-06-08_22-03-20_260595134347_rgbf000066-resize_4/001066_2014-06-08_22-03-20_260595134347_rgbf000066-resize_4-target.png,125,4.2330000000000005,6,2356,133,feet,jsons/VE125_randls_17_rotated.json,518590,813211,49,Man
84,354517,DepthScenes,duration_manipulation_targetAtFixation,jsons/VE125_randls_17_rotated.json,http://54.235.29.9/FacialAge/BNav_EC2/DepthDuration/v2_depth_duration_MTurk/v2_DepthDuration_HTML.html#299,299,1366,768,1366,768,8-29-2022,8-40-5,85,depth_duration_stimuli/002949_2014-06-26_15-57-42_094959634447_rgbf000079-resize_1/002949_2014-06-26_15-57-42_094959634447_rgbf000079-resize_1-target.png,125,1.8915,7,2815,122,feet,jsons/VE125_randls_17_rotated.json,518590,813211,49,Man
85,354517,DepthScenes,duration_manipulation_targetAtFixation,jsons/VE125_randls_17_rotated.json,http://54.235.29.9/FacialAge/BNav_EC2/DepthDuration/v2_depth_duration_MTurk/v2_DepthDuration_HTML.html#299,299,1366,768,1366,768,8-29-2022,8-40-5,86,depth_duration_stimuli/000522_2014-06-08_13-35-06_260595134347_rgbf000244-resize_1/000522_2014-06-08_13-35-06_260595134347_rgbf000244-resize_1-target.png,125,2.3715,6,2362,41,feet,jsons/VE125_randls_17_rotated.json,518590,813211,49,Man
86,354517,DepthScenes,duration_manipulation_targetAtFixation,jsons/VE125_randls_17_rotated.json,http://54.235.29.9/FacialAge/BNav_EC2/DepthDuration/v2_depth_duration_MTurk/v2_DepthDuration_HTML.html#299,299,1366,768,1366,768,8-29-2022,8-40-5,87,depth_duration_stimuli/000549_2014-06-08_22-10-24_260595134347_rgbf000247-resize_3/000549_2014-06-08_22-10-24_260595134347_rgbf000247-resize_3-target.png,125,1.841,7,2547,40,feet,jsons/VE125_randls_17_rotated.json,518590,813211,49,Man
87,354517,DepthScenes,duration_manipulation_targetAtFixation,jsons/VE125_randls_17_rotated.json,http://54.235.29.9/FacialAge/BNav_EC2/DepthDuration/v2_depth_duration_MTurk/v2_DepthDuration_HTML.html#299,299,1366,768,1366,768,8-29-2022,8-40-5,88,depth_duration_stimuli/001055_2014-06-08_18-45-35_260595134347_rgbf000111-resize_4/001055_2014-06-08_18-45-35_260595134347_rgbf000111-resize_4-target.png,125,2.4290000000000003,7,2317,127,feet,jsons/VE125_randls_17_rotated.json,518590,813211,49,Man
88,354517,DepthScenes,duration_manipulation_targetAtFixation,jsons/VE125_randls_17_rotated.json,http://54.235.29.9/FacialAge/BNav_EC2/DepthDuration/v2_depth_duration_MTurk/v2_DepthDuration_HTML.html#299,299,1366,768,1366,768,8-29-2022,8-40-5,89,depth_duration_stimuli/001650_2014-06-20_12-09-00_260595134347_rgbf000087-resize_3/001650_2014-06-20_12-09-00_260595134347_rgbf000087-resize_3-target.png,125,1.9505,3,2866,113,feet,jsons/VE125_randls_17_rotated.json,518590,813211,49,Man
89,354517,DepthScenes,duration_manipulation_targetAtFixation,jsons/VE125_randls_17_rotated.json,http://54.235.29.9/FacialAge/BNav_EC2/DepthDuration/v2_depth_duration_MTurk/v2_DepthDuration_HTML.html#299,299,1366,768,1366,768,8-29-2022,8-40-5,90,depth_duration_stimuli/000682_2014-06-08_23-14-58_260595134347_rgbf000041-resize_5/000682_2014-06-08_23-14-58_260595134347_rgbf000041-resize_5-target.png,125,2.7239999999999998,3,2329,130,feet,jsons/VE125_randls_17_rotated.json,518590,813211,49,Man
90,354517,DepthScenes,duration_manipulation_targetAtFixation,jsons/VE125_randls_17_rotated.json,http://54.235.29.9/FacialAge/BNav_EC2/DepthDuration/v2_depth_duration_MTurk/v2_DepthDuration_HTML.html#299,299,1366,768,1366,768,8-29-2022,8-40-5,91,depth_duration_stimuli/001100_2014-06-15_17-46-26_260595134347_rgbf000225-resize_2/001100_2014-06-15_17-46-26_260595134347_rgbf000225-resize_2-target.png,125,2.24,3,2245,120,feet,jsons/VE125_randls_17_rotated.json,518590,813211,49,Man
91,354517,DepthScenes,duration_manipulation_targetAtFixation,jsons/VE125_randls_17_rotated.json,http://54.235.29.9/FacialAge/BNav_EC2/DepthDuration/v2_depth_duration_MTurk/v2_DepthDuration_HTML.html#299,299,1366,768,1366,768,8-29-2022,8-40-5,92,depth_duration_stimuli/002784_2014-06-22_19-26-30_094959634447_rgbf000083-resize_3/002784_2014-06-22_19-26-30_094959634447_rgbf000083-resize_3-target.png,125,1.8046666666667,4,2469,115,feet,jsons/VE125_randls_17_rotated.json,518590,813211,49,Man
92,354517,DepthScenes,duration_manipulation_targetAtFixation,jsons/VE125_randls_17_rotated.json,http://54.235.29.9/FacialAge/BNav_EC2/DepthDuration/v2_depth_duration_MTurk/v2_DepthDuration_HTML.html#299,299,1366,768,1366,768,8-29-2022,8-40-5,93,depth_duration_stimuli/002545_2014-06-24_13-38-53_094959634447_rgbf000080-resize_4/002545_2014-06-24_13-38-53_094959634447_rgbf000080-resize_4-target.png,125,1.9205,0,2769,4,feet,jsons/VE125_randls_17_rotated.json,518590,813211,49,Man
93,354517,DepthScenes,duration_manipulation_targetAtFixation,jsons/VE125_randls_17_rotated.json,http://54.235.29.9/FacialAge/BNav_EC2/DepthDuration/v2_depth_duration_MTurk/v2_DepthDuration_HTML.html#299,299,1366,768,1366,768,8-29-2022,8-40-5,94,depth_duration_stimuli/001092_2014-06-15_17-34-58_260595134347_rgbf000171-resize_3/001092_2014-06-15_17-34-58_260595134347_rgbf000171-resize_3-target.png,125,2.6935,5,2387,150,feet,jsons/VE125_randls_17_rotated.json,518590,813211,49,Man
94,354517,DepthScenes,duration_manipulation_targetAtFixation,jsons/VE125_randls_17_rotated.json,http://54.235.29.9/FacialAge/BNav_EC2/DepthDuration/v2_depth_duration_MTurk/v2_DepthDuration_HTML.html#299,299,1366,768,1366,768,8-29-2022,8-40-5,95,depth_duration_stimuli/000854_2014-06-09_19-43-13_260595134347_rgbf000066-resize_0/000854_2014-06-09_19-43-13_260595134347_rgbf000066-resize_0-target.png,125,3.068,5,2084,99,feet,jsons/VE125_randls_17_rotated.json,518590,813211,49,Man
95,354517,DepthScenes,duration_manipulation_targetAtFixation,jsons/VE125_randls_17_rotated.json,http://54.235.29.9/FacialAge/BNav_EC2/DepthDuration/v2_depth_duration_MTurk/v2_DepthDuration_HTML.html#299,299,1366,768,1366,768,8-29-2022,8-40-5,96,depth_duration_stimuli/000758_2014-06-08_22-05-08_260595134347_rgbf000085-resize_0/000758_2014-06-08_22-05-08_260595134347_rgbf000085-resize_0-target.png,125,3.3810000000000002,6,2354,130,feet,jsons/VE125_randls_17_rotated.json,518590,813211,49,Man
96,354517,DepthScenes,duration_manipulation_targetAtFixation,jsons/VE125_randls_17_rotated.json,http://54.235.29.9/FacialAge/BNav_EC2/DepthDuration/v2_depth_duration_MTurk/v2_DepthDuration_HTML.html#299,299,1366,768,1366,768,8-29-2022,8-40-5,97,depth_duration_stimuli/000191_2014-05-12_17-07-38_260595134347_rgbf000199-resize_0/000191_2014-05-12_17-07-38_260595134347_rgbf000199-resize_0-target.png,125,3.7995,4,2464,118,feet,jsons/VE125_randls_17_rotated.json,518590,813211,49,Man
97,354517,DepthScenes,duration_manipulation_targetAtFixation,jsons/VE125_randls_17_rotated.json,http://54.235.29.9/FacialAge/BNav_EC2/DepthDuration/v2_depth_duration_MTurk/v2_DepthDuration_HTML.html#299,299,1366,768,1366,768,8-29-2022,8-40-5,98,depth_duration_stimuli/000493_2014-06-09_21-01-18_260595134347_rgbf000196-resize_3/000493_2014-06-09_21-01-18_260595134347_rgbf000196-resize_3-target.png,125,3.44,5,2347,126,feet,jsons/VE125_randls_17_rotated.json,518590,813211,49,Man
98,354517,DepthScenes,duration_manipulation_targetAtFixation,jsons/VE125_randls_17_rotated.json,http://54.235.29.9/FacialAge/BNav_EC2/DepthDuration/v2_depth_duration_MTurk/v2_DepthDuration_HTML.html#299,299,1366,768,1366,768,8-29-2022,8-40-5,99,depth_duration_stimuli/001222_2014-06-17_16-24-06_260595134347_rgbf000073-resize_0/001222_2014-06-17_16-24-06_260595134347_rgbf000073-resize-original.jpg,125,1.4385,0,2325,138,feet,jsons/VE125_randls_17_rotated.json,518590,813211,49,Man
99,354517,DepthScenes,duration_manipulation_targetAtFixation,jsons/VE125_randls_17_rotated.json,http://54.235.29.9/FacialAge/BNav_EC2/DepthDuration/v2_depth_duration_MTurk/v2_DepthDuration_HTML.html#299,299,1366,768,1366,768,8-29-2022,8-40-5,100,depth_duration_stimuli/002660_2014-06-13_15-44-18_094959634447_rgbf001878-resize_2/002660_2014-06-13_15-44-18_094959634447_rgbf001878-resize_2-target.png,125,3.576,5,2452,115,feet,jsons/VE125_randls_17_rotated.json,518590,813211,49,Man
100,354517,DepthScenes,duration_manipulation_targetAtFixation,jsons/VE125_randls_17_rotated.json,http://54.235.29.9/FacialAge/BNav_EC2/DepthDuration/v2_depth_duration_MTurk/v2_DepthDuration_HTML.html#299,299,1366,768,1366,768,8-29-2022,8-40-5,101,depth_duration_stimuli/002153_2014-06-25_21-27-18_260595134347_rgbf000038-resize_5/002153_2014-06-25_21-27-18_260595134347_rgbf000038-resize_5-target.png,125,2.505,2,2795,25,feet,jsons/VE125_randls_17_rotated.json,518590,813211,49,Man
101,354517,DepthScenes,duration_manipulation_targetAtFixation,jsons/VE125_randls_17_rotated.json,http://54.235.29.9/FacialAge/BNav_EC2/DepthDuration/v2_depth_duration_MTurk/v2_DepthDuration_HTML.html#299,299,1366,768,1366,768,8-29-2022,8-40-5,102,depth_duration_stimuli/000866_2014-06-09_20-45-42_260595134347_rgbf000139-resize_1/000866_2014-06-09_20-45-42_260595134347_rgbf000139-resize_1-target.png,125,3.2155,0,2423,5,feet,jsons/VE125_randls_17_rotated.json,518590,813211,49,Man
102,354517,DepthScenes,duration_manipulation_targetAtFixation,jsons/VE125_randls_17_rotated.json,http://54.235.29.9/FacialAge/BNav_EC2/DepthDuration/v2_depth_duration_MTurk/v2_DepthDuration_HTML.html#299,299,1366,768,1366,768,8-29-2022,8-40-5,103,depth_duration_stimuli/002989_2014-06-15_12-25-03_094959634447_rgbf000150-resize_3/002989_2014-06-15_12-25-03_094959634447_rgbf000150-resize_3-target.png,125,4.1975,5,2327,124,feet,jsons/VE125_randls_17_rotated.json,518590,813211,49,Man
103,354517,DepthScenes,duration_manipulation_targetAtFixation,jsons/VE125_randls_17_rotated.json,http://54.235.29.9/FacialAge/BNav_EC2/DepthDuration/v2_depth_duration_MTurk/v2_DepthDuration_HTML.html#299,299,1366,768,1366,768,8-29-2022,8-40-5,104,depth_duration_stimuli/002136_2014-06-25_21-18-03_260595134347_rgbf000109-resize_3/002136_2014-06-25_21-18-03_260595134347_rgbf000109-resize_3-target.png,125,1.9569999999999999,5,2978,128,feet,jsons/VE125_randls_17_rotated.json,518590,813211,49,Man
104,354517,DepthScenes,duration_manipulation_targetAtFixation,jsons/VE125_randls_17_rotated.json,http://54.235.29.9/FacialAge/BNav_EC2/DepthDuration/v2_depth_duration_MTurk/v2_DepthDuration_HTML.html#299,299,1366,768,1366,768,8-29-2022,8-40-5,105,depth_duration_stimuli/002964_2014-06-08_17-46-11_094959634447_rgbf000091-resize_4/002964_2014-06-08_17-46-11_094959634447_rgbf000091-resize_4-target.png,125,1.6909999999999998,3,2762,117,feet,jsons/VE125_randls_17_rotated.json,518590,813211,49,Man
105,354517,DepthScenes,duration_manipulation_targetAtFixation,jsons/VE125_randls_17_rotated.json,http://54.235.29.9/FacialAge/BNav_EC2/DepthDuration/v2_depth_duration_MTurk/v2_DepthDuration_HTML.html#299,299,1366,768,1366,768,8-29-2022,8-40-5,106,depth_duration_stimuli/001032_2014-06-08_13-23-17_260595134347_rgbf000021-resize_3/001032_2014-06-08_13-23-17_260595134347_rgbf000021-resize_3-target.png,125,3.2725,6,2375,128,feet,jsons/VE125_randls_17_rotated.json,518590,813211,49,Man
106,354517,DepthScenes,duration_manipulation_targetAtFixation,jsons/VE125_randls_17_rotated.json,http://54.235.29.9/FacialAge/BNav_EC2/DepthDuration/v2_depth_duration_MTurk/v2_DepthDuration_HTML.html#299,299,1366,768,1366,768,8-29-2022,8-40-5,107,depth_duration_stimuli/001059_2014-06-08_21-53-27_260595134347_rgbf000061-resize_4/001059_2014-06-08_21-53-27_260595134347_rgbf000061-resize_4-target.png,125,2.4185,5,2601,121,feet,jsons/VE125_randls_17_rotated.json,518590,813211,49,Man
107,354517,DepthScenes,duration_manipulation_targetAtFixation,jsons/VE125_randls_17_rotated.json,http://54.235.29.9/FacialAge/BNav_EC2/DepthDuration/v2_depth_duration_MTurk/v2_DepthDuration_HTML.html#299,299,1366,768,1366,768,8-29-2022,8-40-5,108,depth_duration_stimuli/001052_2014-06-08_18-24-54_260595134347_rgbf000130-resize_1/001052_2014-06-08_18-24-54_260595134347_rgbf000130-resize_1-target.png,125,4.1045,6,3232,52,feet,jsons/VE125_randls_17_rotated.json,518590,813211,49,Man
108,354517,DepthScenes,duration_manipulation_targetAtFixation,jsons/VE125_randls_17_rotated.json,http://54.235.29.9/FacialAge/BNav_EC2/DepthDuration/v2_depth_duration_MTurk/v2_DepthDuration_HTML.html#299,299,1366,768,1366,768,8-29-2022,8-40-5,109,depth_duration_stimuli/002988_2014-06-15_12-24-20_094959634447_rgbf000150-resize_1/002988_2014-06-15_12-24-20_094959634447_rgbf000150-resize_1-target.png,125,4.7669999999999995,6,2833,193,feet,jsons/VE125_randls_17_rotated.json,518590,813211,49,Man
109,354517,DepthScenes,duration_manipulation_targetAtFixation,jsons/VE125_randls_17_rotated.json,http://54.235.29.9/FacialAge/BNav_EC2/DepthDuration/v2_depth_duration_MTurk/v2_DepthDuration_HTML.html#299,299,1366,768,1366,768,8-29-2022,8-40-5,110,depth_duration_stimuli/002637_2014-06-24_14-51-13_094959634447_rgbf000066-resize_4/002637_2014-06-24_14-51-13_094959634447_rgbf000066-resize_4-target.png,125,1.9955,4,3268,120,feet,jsons/VE125_randls_17_rotated.json,518590,813211,49,Man
110,354517,DepthScenes,duration_manipulation_targetAtFixation,jsons/VE125_randls_17_rotated.json,http://54.235.29.9/FacialAge/BNav_EC2/DepthDuration/v2_depth_duration_MTurk/v2_DepthDuration_HTML.html#299,299,1366,768,1366,768,8-29-2022,8-40-5,111,depth_duration_stimuli/003534_2014-05-22_15-06-10_094959634447_rgbf000102-resize_4/003534_2014-05-22_15-06-10_094959634447_rgbf000102-resize_4-target.png,125,1.426,4,3300,121,feet,jsons/VE125_randls_17_rotated.json,518590,813211,49,Man
111,354517,DepthScenes,duration_manipulation_targetAtFixation,jsons/VE125_randls_17_rotated.json,http://54.235.29.9/FacialAge/BNav_EC2/DepthDuration/v2_depth_duration_MTurk/v2_DepthDuration_HTML.html#299,299,1366,768,1366,768,8-29-2022,8-40-5,112,depth_duration_stimuli/000677_2014-06-08_23-10-32_260595134347_rgbf000158-resize_6/000677_2014-06-08_23-10-32_260595134347_rgbf000158-resize_6-target.png,125,3.556,0,2717,33,feet,jsons/VE125_randls_17_rotated.json,518590,813211,49,Man
112,354517,DepthScenes,duration_manipulation_targetAtFixation,jsons/VE125_randls_17_rotated.json,http://54.235.29.9/FacialAge/BNav_EC2/DepthDuration/v2_depth_duration_MTurk/v2_DepthDuration_HTML.html#299,299,1366,768,1366,768,8-29-2022,8-40-5,113,depth_duration_stimuli/001029_2014-06-08_13-17-57_260595134347_rgbf000065-resize_1/001029_2014-06-08_13-17-57_260595134347_rgbf000065-resize_1-target.png,125,3.0835,6,2488,72,feet,jsons/VE125_randls_17_rotated.json,518590,813211,49,Man
113,354517,DepthScenes,duration_manipulation_targetAtFixation,jsons/VE125_randls_17_rotated.json,http://54.235.29.9/FacialAge/BNav_EC2/DepthDuration/v2_depth_duration_MTurk/v2_DepthDuration_HTML.html#299,299,1366,768,1366,768,8-29-2022,8-40-5,114,depth_duration_stimuli/000780_2014-06-08_22-28-29_260595134347_rgbf000126-resize_1/000780_2014-06-08_22-28-29_260595134347_rgbf000126-resize_1-target.png,125,3.3825,5,2552,102,feet,jsons/VE125_randls_17_rotated.json,518590,813211,49,Man
114,354517,DepthScenes,duration_manipulation_targetAtFixation,jsons/VE125_randls_17_rotated.json,http://54.235.29.9/FacialAge/BNav_EC2/DepthDuration/v2_depth_duration_MTurk/v2_DepthDuration_HTML.html#299,299,1366,768,1366,768,8-29-2022,8-40-5,115,depth_duration_stimuli/002445_2014-06-28_20-32-16_260595134347_rgbf000029-resize_4/002445_2014-06-28_20-32-16_260595134347_rgbf000029-resize_4-target.png,125,2.5315,3,3595,122,feet,jsons/VE125_randls_17_rotated.json,518590,813211,49,Man
115,354517,DepthScenes,duration_manipulation_targetAtFixation,jsons/VE125_randls_17_rotated.json,http://54.235.29.9/FacialAge/BNav_EC2/DepthDuration/v2_depth_duration_MTurk/v2_DepthDuration_HTML.html#299,299,1366,768,1366,768,8-29-2022,8-40-5,116,depth_duration_stimuli/003587_2014-05-23_16-48-02_094959634447_rgbf002384-resize_2/003587_2014-05-23_16-48-02_094959634447_rgbf002384-resize_2-target.png,125,1.357,0,2375,3,feet,jsons/VE125_randls_17_rotated.json,518590,813211,49,Man
116,354517,DepthScenes,duration_manipulation_targetAtFixation,jsons/VE125_randls_17_rotated.json,http://54.235.29.9/FacialAge/BNav_EC2/DepthDuration/v2_depth_duration_MTurk/v2_DepthDuration_HTML.html#299,299,1366,768,1366,768,8-29-2022,8-40-5,117,depth_duration_stimuli/001167_2014-06-17_15-38-07_260595134347_rgbf000108-resize_0/001167_2014-06-17_15-38-07_260595134347_rgbf000108-resize_0-target.png,125,1.8505,5,2964,119,feet,jsons/VE125_randls_17_rotated.json,518590,813211,49,Man
117,354517,DepthScenes,duration_manipulation_targetAtFixation,jsons/VE125_randls_17_rotated.json,http://54.235.29.9/FacialAge/BNav_EC2/DepthDuration/v2_depth_duration_MTurk/v2_DepthDuration_HTML.html#299,299,1366,768,1366,768,8-29-2022,8-40-5,118,depth_duration_stimuli/001132_2014-06-17_14-48-54_260595134347_rgbf000100-resize_2/001132_2014-06-17_14-48-54_260595134347_rgbf000100-resize_2-target.png,125,3.753,3,2391,105,feet,jsons/VE125_randls_17_rotated.json,518590,813211,49,Man
118,354517,DepthScenes,duration_manipulation_targetAtFixation,jsons/VE125_randls_17_rotated.json,http://54.235.29.9/FacialAge/BNav_EC2/DepthDuration/v2_depth_duration_MTurk/v2_DepthDuration_HTML.html#299,299,1366,768,1366,768,8-29-2022,8-40-5,119,depth_duration_stimuli/001133_2014-06-17_14-49-16_260595134347_rgbf000100-resize_0/001133_2014-06-17_14-49-16_260595134347_rgbf000100-resize_0-target.png,125,4.2115,3,1953,90,feet,jsons/VE125_randls_17_rotated.json,518590,813211,49,Man
119,354517,DepthScenes,duration_manipulation_targetAtFixation,jsons/VE125_randls_17_rotated.json,http://54.235.29.9/FacialAge/BNav_EC2/DepthDuration/v2_depth_duration_MTurk/v2_DepthDuration_HTML.html#299,299,1366,768,1366,768,8-29-2022,8-40-5,120,depth_duration_stimuli/000787_2014-06-08_22-33-53_260595134347_rgbf000175-resize_1/000787_2014-06-08_22-33-53_260595134347_rgbf000175-resize-original.jpg,125,4.784,6,2604,124,feet,jsons/VE125_randls_17_rotated.json,518590,813211,49,Man
120,354517,DepthScenes,duration_manipulation_targetAtFixation,jsons/VE125_randls_17_rotated.json,http://54.235.29.9/FacialAge/BNav_EC2/DepthDuration/v2_depth_duration_MTurk/v2_DepthDuration_HTML.html#299,299,1366,768,1366,768,8-29-2022,8-40-5,121,depth_duration_stimuli/000109_2014-05-14_23-41-52_260595134347_rgbf000035-resize_9/000109_2014-05-14_23-41-52_260595134347_rgbf000035-resize_9-target.png,125,1.3545,2,2156,129,feet,jsons/VE125_randls_17_rotated.json,518590,813211,49,Man
121,354517,DepthScenes,duration_manipulation_targetAtFixation,jsons/VE125_randls_17_rotated.json,http://54.235.29.9/FacialAge/BNav_EC2/DepthDuration/v2_depth_duration_MTurk/v2_DepthDuration_HTML.html#299,299,1366,768,1366,768,8-29-2022,8-40-5,122,depth_duration_stimuli/000470_2014-06-09_19-42-40_260595134347_rgbf000094-resize_1/000470_2014-06-09_19-42-40_260595134347_rgbf000094-resize_1-target.png,125,1.831,3,2556,120,feet,jsons/VE125_randls_17_rotated.json,518590,813211,49,Man
122,354517,DepthScenes,duration_manipulation_targetAtFixation,jsons/VE125_randls_17_rotated.json,http://54.235.29.9/FacialAge/BNav_EC2/DepthDuration/v2_depth_duration_MTurk/v2_DepthDuration_HTML.html#299,299,1366,768,1366,768,8-29-2022,8-40-5,123,depth_duration_stimuli/000665_2014-06-09_20-42-35_260595134347_rgbf000110-resize_1/000665_2014-06-09_20-42-35_260595134347_rgbf000110-resize_1-target.png,125,3.057,0,2985,29,feet,jsons/VE125_randls_17_rotated.json,518590,813211,49,Man
123,354517,DepthScenes,duration_manipulation_targetAtFixation,jsons/VE125_randls_17_rotated.json,http://54.235.29.9/FacialAge/BNav_EC2/DepthDuration/v2_depth_duration_MTurk/v2_DepthDuration_HTML.html#299,299,1366,768,1366,768,8-29-2022,8-40-5,124,depth_duration_stimuli/001150_2014-06-17_15-27-34_260595134347_rgbf000108-resize_2/001150_2014-06-17_15-27-34_260595134347_rgbf000108-resize_2-target.png,125,4.0325,0,3377,3,feet,jsons/VE125_randls_17_rotated.json,518590,813211,49,Man
124,354517,DepthScenes,duration_manipulation_targetAtFixation,jsons/VE125_randls_17_rotated.json,http://54.235.29.9/FacialAge/BNav_EC2/DepthDuration/v2_depth_duration_MTurk/v2_DepthDuration_HTML.html#299,299,1366,768,1366,768,8-29-2022,8-40-5,125,depth_duration_stimuli/000409_2014-06-04_19-23-33_260595134347_rgbf000067-resize_0/000409_2014-06-04_19-23-33_260595134347_rgbf000067-resize_0-target.png,125,3.7335,4,2996,120,feet,jsons/VE125_randls_17_rotated.json,518590,813211,49,Man
125,354517,DepthScenes,duration_manipulation_targetAtFixation,jsons/VE125_randls_17_rotated.json,http://54.235.29.9/FacialAge/BNav_EC2/DepthDuration/v2_depth_duration_MTurk/v2_DepthDuration_HTML.html#299,299,1366,768,1366,768,8-29-2022,8-40-5,126,depth_duration_stimuli/002663_2014-06-13_15-50-26_094959634447_rgbf000075-resize_1/002663_2014-06-13_15-50-26_094959634447_rgbf000075-resize_1-target.png,125,4.7495,4,2900,126,feet,jsons/VE125_randls_17_rotated.json,518590,813211,49,Man
126,354517,DepthScenes,duration_manipulation_targetAtFixation,jsons/VE125_randls_17_rotated.json,http://54.235.29.9/FacialAge/BNav_EC2/DepthDuration/v2_depth_duration_MTurk/v2_DepthDuration_HTML.html#299,299,1366,768,1366,768,8-29-2022,8-40-5,127,depth_duration_stimuli/002199_2014-06-28_18-33-56_260595134347_rgbf000074-resize_0/002199_2014-06-28_18-33-56_260595134347_rgbf000074-resize_0-target.png,125,1.996,5,2442,124,feet,jsons/VE125_randls_17_rotated.json,518590,813211,49,Man
127,354517,DepthScenes,duration_manipulation_targetAtFixation,jsons/VE125_randls_17_rotated.json,http://54.235.29.9/FacialAge/BNav_EC2/DepthDuration/v2_depth_duration_MTurk/v2_DepthDuration_HTML.html#299,299,1366,768,1366,768,8-29-2022,8-40-5,128,depth_duration_stimuli/001056_2014-06-08_18-46-44_260595134347_rgbf000068-resize_0/001056_2014-06-08_18-46-44_260595134347_rgbf000068-resize_0-target.png,125,2.6625,3,2492,101,feet,jsons/VE125_randls_17_rotated.json,518590,813211,49,Man
128,354517,DepthScenes,duration_manipulation_targetAtFixation,jsons/VE125_randls_17_rotated.json,http://54.235.29.9/FacialAge/BNav_EC2/DepthDuration/v2_depth_duration_MTurk/v2_DepthDuration_HTML.html#299,299,1366,768,1366,768,8-29-2022,8-40-5,129,depth_duration_stimuli/003079_2014-06-15_15-18-20_094959634447_rgbf000152-resize_8/003079_2014-06-15_15-18-20_094959634447_rgbf000152-resize_8-target.png,125,2.8775,6,2599,120,feet,jsons/VE125_randls_17_rotated.json,518590,813211,49,Man
129,354517,DepthScenes,duration_manipulation_targetAtFixation,jsons/VE125_randls_17_rotated.json,http://54.235.29.9/FacialAge/BNav_EC2/DepthDuration/v2_depth_duration_MTurk/v2_DepthDuration_HTML.html#299,299,1366,768,1366,768,8-29-2022,8-40-5,130,depth_duration_stimuli/000506_2014-06-08_23-21-00_260595134347_rgbf000070-resize_7/000506_2014-06-08_23-21-00_260595134347_rgbf000070-resize_7-target.png,125,4.0585,6,3474,28,feet,jsons/VE125_randls_17_rotated.json,518590,813211,49,Man
130,354517,DepthScenes,duration_manipulation_targetAtFixation,jsons/VE125_randls_17_rotated.json,http://54.235.29.9/FacialAge/BNav_EC2/DepthDuration/v2_depth_duration_MTurk/v2_DepthDuration_HTML.html#299,299,1366,768,1366,768,8-29-2022,8-40-5,131,depth_duration_stimuli/003048_2014-06-15_13-49-43_094959634447_rgbf000150-resize_1/003048_2014-06-15_13-49-43_094959634447_rgbf000150-resize_1-target.png,125,4.0035,7,2523,125,feet,jsons/VE125_randls_17_rotated.json,518590,813211,49,Man
131,354517,DepthScenes,duration_manipulation_targetAtFixation,jsons/VE125_randls_17_rotated.json,http://54.235.29.9/FacialAge/BNav_EC2/DepthDuration/v2_depth_duration_MTurk/v2_DepthDuration_HTML.html#299,299,1366,768,1366,768,8-29-2022,8-40-5,132,depth_duration_stimuli/002043_2014-06-24_20-29-38_260595134347_rgbf000039-resize_4/002043_2014-06-24_20-29-38_260595134347_rgbf000039-resize_4-target.png,125,2.8435,6,2579,123,feet,jsons/VE125_randls_17_rotated.json,518590,813211,49,Man
132,354517,DepthScenes,duration_manipulation_targetAtFixation,jsons/VE125_randls_17_rotated.json,http://54.235.29.9/FacialAge/BNav_EC2/DepthDuration/v2_depth_duration_MTurk/v2_DepthDuration_HTML.html#299,299,1366,768,1366,768,8-29-2022,8-40-5,133,depth_duration_stimuli/001516_2014-06-20_16-25-09_260595134347_rgbf000076-resize_2/001516_2014-06-20_16-25-09_260595134347_rgbf000076-resize_2-target.png,125,1.7445,7,2953,186,feet,jsons/VE125_randls_17_rotated.json,518590,813211,49,Man
133,354517,DepthScenes,duration_manipulation_targetAtFixation,jsons/VE125_randls_17_rotated.json,http://54.235.29.9/FacialAge/BNav_EC2/DepthDuration/v2_depth_duration_MTurk/v2_DepthDuration_HTML.html#299,299,1366,768,1366,768,8-29-2022,8-40-5,134,depth_duration_stimuli/002118_2014-06-25_20-32-08_260595134347_rgbf000078-resize_1/002118_2014-06-25_20-32-08_260595134347_rgbf000078-resize_1-target.png,125,2.6460000000000004,3,2332,125,feet,jsons/VE125_randls_17_rotated.json,518590,813211,49,Man
134,354517,DepthScenes,duration_manipulation_targetAtFixation,jsons/VE125_randls_17_rotated.json,http://54.235.29.9/FacialAge/BNav_EC2/DepthDuration/v2_depth_duration_MTurk/v2_DepthDuration_HTML.html#299,299,1366,768,1366,768,8-29-2022,8-40-5,135,depth_duration_stimuli/000375_2014-06-08_11-17-29_260595134347_rgbf000133-resize_2/000375_2014-06-08_11-17-29_260595134347_rgbf000133-resize-original.jpg,125,4.718,4,1962,124,feet,jsons/VE125_randls_17_rotated.json,518590,813211,49,Man
135,354517,DepthScenes,duration_manipulation_targetAtFixation,jsons/VE125_randls_17_rotated.json,http://54.235.29.9/FacialAge/BNav_EC2/DepthDuration/v2_depth_duration_MTurk/v2_DepthDuration_HTML.html#299,299,1366,768,1366,768,8-29-2022,8-40-5,136,depth_duration_stimuli/002750_2014-06-22_19-08-03_094959634447_rgbf000094-resize_4/002750_2014-06-22_19-08-03_094959634447_rgbf000094-resize_4-target.png,125,2.354,5,2074,120,feet,jsons/VE125_randls_17_rotated.json,518590,813211,49,Man
136,354517,DepthScenes,duration_manipulation_targetAtFixation,jsons/VE125_randls_17_rotated.json,http://54.235.29.9/FacialAge/BNav_EC2/DepthDuration/v2_depth_duration_MTurk/v2_DepthDuration_HTML.html#299,299,1366,768,1366,768,8-29-2022,8-40-5,137,depth_duration_stimuli/002549_2014-06-24_13-41-39_094959634447_rgbf000022-resize_3/002549_2014-06-24_13-41-39_094959634447_rgbf000022-resize_3-target.png,125,1.476,4,1920,125,feet,jsons/VE125_randls_17_rotated.json,518590,813211,49,Man
137,354517,DepthScenes,duration_manipulation_targetAtFixation,jsons/VE125_randls_17_rotated.json,http://54.235.29.9/FacialAge/BNav_EC2/DepthDuration/v2_depth_duration_MTurk/v2_DepthDuration_HTML.html#299,299,1366,768,1366,768,8-29-2022,8-40-5,138,depth_duration_stimuli/000556_2014-06-09_22-42-56_260595134347_rgbf000214-resize_1/000556_2014-06-09_22-42-56_260595134347_rgbf000214-resize_1-target.png,125,4.8415,0,2762,445,feet,jsons/VE125_randls_17_rotated.json,518590,813211,49,Man
138,354517,DepthScenes,duration_manipulation_targetAtFixation,jsons/VE125_randls_17_rotated.json,http://54.235.29.9/FacialAge/BNav_EC2/DepthDuration/v2_depth_duration_MTurk/v2_DepthDuration_HTML.html#299,299,1366,768,1366,768,8-29-2022,8-40-5,139,depth_duration_stimuli/001158_2014-06-17_15-32-16_260595134347_rgbf000138-resize_2/001158_2014-06-17_15-32-16_260595134347_rgbf000138-resize_2-target.png,125,4.5315,8,2861,123,feet,jsons/VE125_randls_17_rotated.json,518590,813211,49,Man
139,354517,DepthScenes,duration_manipulation_targetAtFixation,jsons/VE125_randls_17_rotated.json,http://54.235.29.9/FacialAge/BNav_EC2/DepthDuration/v2_depth_duration_MTurk/v2_DepthDuration_HTML.html#299,299,1366,768,1366,768,8-29-2022,8-40-5,140,depth_duration_stimuli/001617_2014-06-20_11-35-32_260595134347_rgbf000066-resize_1/001617_2014-06-20_11-35-32_260595134347_rgbf000066-resize_1-target.png,125,3.7910000000000004,8,2288,133,feet,jsons/VE125_randls_17_rotated.json,518590,813211,49,Man
140,354517,DepthScenes,duration_manipulation_targetAtFixation,jsons/VE125_randls_17_rotated.json,http://54.235.29.9/FacialAge/BNav_EC2/DepthDuration/v2_depth_duration_MTurk/v2_DepthDuration_HTML.html#299,299,1366,768,1366,768,8-29-2022,8-40-5,141,depth_duration_stimuli/001806_2014-06-26_20-50-20_260595134347_rgbf000091-resize_1/001806_2014-06-26_20-50-20_260595134347_rgbf000091-resize_1-target.png,125,2.7305,3,2152,158,feet,jsons/VE125_randls_17_rotated.json,518590,813211,49,Man
141,354517,DepthScenes,duration_manipulation_targetAtFixation,jsons/VE125_randls_17_rotated.json,http://54.235.29.9/FacialAge/BNav_EC2/DepthDuration/v2_depth_duration_MTurk/v2_DepthDuration_HTML.html#299,299,1366,768,1366,768,8-29-2022,8-40-5,142,depth_duration_stimuli/003423_2014-05-21_10-23-26_094959634447_rgbf002665-resize_2/003423_2014-05-21_10-23-26_094959634447_rgbf002665-resize_2-target.png,125,3.2575,5,2293,119,feet,jsons/VE125_randls_17_rotated.json,518590,813211,49,Man
142,354517,DepthScenes,duration_manipulation_targetAtFixation,jsons/VE125_randls_17_rotated.json,http://54.235.29.9/FacialAge/BNav_EC2/DepthDuration/v2_depth_duration_MTurk/v2_DepthDuration_HTML.html#299,299,1366,768,1366,768,8-29-2022,8-40-5,143,depth_duration_stimuli/002905_2014-06-03_18-04-43_094959634447_rgbf000151-resize_2/002905_2014-06-03_18-04-43_094959634447_rgbf000151-resize_2-target.png,125,2.0295,4,2682,123,feet,jsons/VE125_randls_17_rotated.json,518590,813211,49,Man
143,354517,DepthScenes,duration_manipulation_targetAtFixation,jsons/VE125_randls_17_rotated.json,http://54.235.29.9/FacialAge/BNav_EC2/DepthDuration/v2_depth_duration_MTurk/v2_DepthDuration_HTML.html#299,299,1366,768,1366,768,8-29-2022,8-40-5,144,depth_duration_stimuli/000709_2014-06-08_13-51-55_260595134347_rgbf000068-resize_3/000709_2014-06-08_13-51-55_260595134347_rgbf000068-resize_3-target.png,125,1.8030000000000002,6,2929,128,feet,jsons/VE125_randls_17_rotated.json,518590,813211,49,Man
144,354517,DepthScenes,duration_manipulation_targetAtFixation,jsons/VE125_randls_17_rotated.json,http://54.235.29.9/FacialAge/BNav_EC2/DepthDuration/v2_depth_duration_MTurk/v2_DepthDuration_HTML.html#299,299,1366,768,1366,768,8-29-2022,8-40-5,145,depth_duration_stimuli/002057_2014-06-24_21-00-13_260595134347_rgbf000120-resize_1/002057_2014-06-24_21-00-13_260595134347_rgbf000120-resize_1-target.png,125,2.967,0,2443,0,feet,jsons/VE125_randls_17_rotated.json,518590,813211,49,Man
145,354517,DepthScenes,duration_manipulation_targetAtFixation,jsons/VE125_randls_17_rotated.json,http://54.235.29.9/FacialAge/BNav_EC2/DepthDuration/v2_depth_duration_MTurk/v2_DepthDuration_HTML.html#299,299,1366,768,1366,768,8-29-2022,8-40-5,146,depth_duration_stimuli/002805_2014-06-22_19-54-03_094959634447_rgbf000079-resize_1/002805_2014-06-22_19-54-03_094959634447_rgbf000079-resize_1-target.png,125,3.1439999999999997,4,2410,29,feet,jsons/VE125_randls_17_rotated.json,518590,813211,49,Man
146,354517,DepthScenes,duration_manipulation_targetAtFixation,jsons/VE125_randls_17_rotated.json,http://54.235.29.9/FacialAge/BNav_EC2/DepthDuration/v2_depth_duration_MTurk/v2_DepthDuration_HTML.html#299,299,1366,768,1366,768,8-29-2022,8-40-5,147,depth_duration_stimuli/000906_2014-06-08_13-35-43_260595134347_rgbf000155-resize_1/000906_2014-06-08_13-35-43_260595134347_rgbf000155-resize_1-target.png,125,2.8489999999999998,6,2398,123,feet,jsons/VE125_randls_17_rotated.json,518590,813211,49,Man
147,354517,DepthScenes,duration_manipulation_targetAtFixation,jsons/VE125_randls_17_rotated.json,http://54.235.29.9/FacialAge/BNav_EC2/DepthDuration/v2_depth_duration_MTurk/v2_DepthDuration_HTML.html#299,299,1366,768,1366,768,8-29-2022,8-40-5,148,depth_duration_stimuli/001136_2014-06-17_15-19-41_260595134347_rgbf000076-resize_3/001136_2014-06-17_15-19-41_260595134347_rgbf000076-resize_3-target.png,125,1.8655,7,3038,126,feet,jsons/VE125_randls_17_rotated.json,518590,813211,49,Man
148,354517,DepthScenes,duration_manipulation_targetAtFixation,jsons/VE125_randls_17_rotated.json,http://54.235.29.9/FacialAge/BNav_EC2/DepthDuration/v2_depth_duration_MTurk/v2_DepthDuration_HTML.html#299,299,1366,768,1366,768,8-29-2022,8-40-5,149,depth_duration_stimuli/001164_2014-06-17_15-35-46_260595134347_rgbf000085-resize_3/001164_2014-06-17_15-35-46_260595134347_rgbf000085-resize_3-target.png,125,2.354,8,2513,145,feet,jsons/VE125_randls_17_rotated.json,518590,813211,49,Man
149,354517,DepthScenes,duration_manipulation_targetAtFixation,jsons/VE125_randls_17_rotated.json,http://54.235.29.9/FacialAge/BNav_EC2/DepthDuration/v2_depth_duration_MTurk/v2_DepthDuration_HTML.html#299,299,1366,768,1366,768,8-29-2022,8-40-5,150,depth_duration_stimuli/003083_2014-06-15_15-21-03_094959634447_rgbf000063-resize_1/003083_2014-06-15_15-21-03_094959634447_rgbf000063-resize_1-target.png,125,4.1405,8,2309,141,feet,jsons/VE125_randls_17_rotated.json,518590,813211,49,Man
150,354517,DepthScenes,duration_manipulation_targetAtFixation,jsons/VE125_randls_17_rotated.json,http://54.235.29.9/FacialAge/BNav_EC2/DepthDuration/v2_depth_duration_MTurk/v2_DepthDuration_HTML.html#299,299,1366,768,1366,768,8-29-2022,8-40-5,151,depth_duration_stimuli/000486_2014-06-09_20-47-20_260595134347_rgbf000143-resize_2/000486_2014-06-09_20-47-20_260595134347_rgbf000143-resize_2-target.png,125,4.8325,5,2201,116,feet,jsons/VE125_randls_17_rotated.json,518590,813211,49,Man
151,354517,DepthScenes,duration_manipulation_targetAtFixation,jsons/VE125_randls_17_rotated.json,http://54.235.29.9/FacialAge/BNav_EC2/DepthDuration/v2_depth_duration_MTurk/v2_DepthDuration_HTML.html#299,299,1366,768,1366,768,8-29-2022,8-40-5,152,depth_duration_stimuli/000569_2014-06-09_22-51-47_260595134347_rgbf000141-resize_3/000569_2014-06-09_22-51-47_260595134347_rgbf000141-resize-original.jpg,125,4.512,0,3491,128,feet,jsons/VE125_randls_17_rotated.json,518590,813211,49,Man
152,354517,DepthScenes,duration_manipulation_targetAtFixation,jsons/VE125_randls_17_rotated.json,http://54.235.29.9/FacialAge/BNav_EC2/DepthDuration/v2_depth_duration_MTurk/v2_DepthDuration_HTML.html#299,299,1366,768,1366,768,8-29-2022,8-40-5,153,depth_duration_stimuli/001235_2014-06-17_16-37-36_260595134347_rgbf000084-resize_4/001235_2014-06-17_16-37-36_260595134347_rgbf000084-resize_4-target.png,125,3.6605,0,2612,15,feet,jsons/VE125_randls_17_rotated.json,518590,813211,49,Man
153,354517,DepthScenes,duration_manipulation_targetAtFixation,jsons/VE125_randls_17_rotated.json,http://54.235.29.9/FacialAge/BNav_EC2/DepthDuration/v2_depth_duration_MTurk/v2_DepthDuration_HTML.html#299,299,1366,768,1366,768,8-29-2022,8-40-5,154,depth_duration_stimuli/000788_2014-06-08_22-34-36_260595134347_rgbf000131-resize_1/000788_2014-06-08_22-34-36_260595134347_rgbf000131-resize_1-target.png,125,3.359,3,2285,234,feet,jsons/VE125_randls_17_rotated.json,518590,813211,49,Man
154,354517,DepthScenes,duration_manipulation_targetAtFixation,jsons/VE125_randls_17_rotated.json,http://54.235.29.9/FacialAge/BNav_EC2/DepthDuration/v2_depth_duration_MTurk/v2_DepthDuration_HTML.html#299,299,1366,768,1366,768,8-29-2022,8-40-5,155,depth_duration_stimuli/000502_2014-06-08_23-02-32_260595134347_rgbf000063-resize_4/000502_2014-06-08_23-02-32_260595134347_rgbf000063-resize_4-target.png,125,2.431,4,3016,134,feet,jsons/VE125_randls_17_rotated.json,518590,813211,49,Man
155,354517,DepthScenes,duration_manipulation_targetAtFixation,jsons/VE125_randls_17_rotated.json,http://54.235.29.9/FacialAge/BNav_EC2/DepthDuration/v2_depth_duration_MTurk/v2_DepthDuration_HTML.html#299,299,1366,768,1366,768,8-29-2022,8-40-5,156,depth_duration_stimuli/001199_2014-06-17_16-03-48_260595134347_rgbf000077-resize_0/001199_2014-06-17_16-03-48_260595134347_rgbf000077-resize_0-target.png,125,3.4375,5,2279,122,feet,jsons/VE125_randls_17_rotated.json,518590,813211,49,Man
156,354517,DepthScenes,duration_manipulation_targetAtFixation,jsons/VE125_randls_17_rotated.json,http://54.235.29.9/FacialAge/BNav_EC2/DepthDuration/v2_depth_duration_MTurk/v2_DepthDuration_HTML.html#299,299,1366,768,1366,768,8-29-2022,8-40-5,157,depth_duration_stimuli/002657_2014-06-13_15-29-54_094959634447_rgbf000150-resize_1/002657_2014-06-13_15-29-54_094959634447_rgbf000150-resize_1-target.png,125,4.919,4,2284,109,feet,jsons/VE125_randls_17_rotated.json,518590,813211,49,Man
157,354517,DepthScenes,duration_manipulation_targetAtFixation,jsons/VE125_randls_17_rotated.json,http://54.235.29.9/FacialAge/BNav_EC2/DepthDuration/v2_depth_duration_MTurk/v2_DepthDuration_HTML.html#299,299,1366,768,1366,768,8-29-2022,8-40-5,158,depth_duration_stimuli/002375_2014-06-28_20-13-44_260595134347_rgbf000032-resize_1/002375_2014-06-28_20-13-44_260595134347_rgbf000032-resize_1-target.png,125,4.0175,5,2220,117,feet,jsons/VE125_randls_17_rotated.json,518590,813211,49,Man
158,354517,DepthScenes,duration_manipulation_targetAtFixation,jsons/VE125_randls_17_rotated.json,http://54.235.29.9/FacialAge/BNav_EC2/DepthDuration/v2_depth_duration_MTurk/v2_DepthDuration_HTML.html#299,299,1366,768,1366,768,8-29-2022,8-40-5,159,depth_duration_stimuli/001584_2014-06-20_11-07-43_260595134347_rgbf000002-resize_1/001584_2014-06-20_11-07-43_260595134347_rgbf000002-resize_1-target.png,125,3.53,6,2469,129,feet,jsons/VE125_randls_17_rotated.json,518590,813211,49,Man
159,354517,DepthScenes,duration_manipulation_targetAtFixation,jsons/VE125_randls_17_rotated.json,http://54.235.29.9/FacialAge/BNav_EC2/DepthDuration/v2_depth_duration_MTurk/v2_DepthDuration_HTML.html#299,299,1366,768,1366,768,8-29-2022,8-40-5,160,depth_duration_stimuli/003621_2014-05-23_18-06-08_094959634447_rgbf000101-resize_1/003621_2014-05-23_18-06-08_094959634447_rgbf000101-resize_1-target.png,125,3.9835,0,2635,20,feet,jsons/VE125_randls_17_rotated.json,518590,813211,49,Man
160,354517,DepthScenes,duration_manipulation_targetAtFixation,jsons/VE125_randls_17_rotated.json,http://54.235.29.9/FacialAge/BNav_EC2/DepthDuration/v2_depth_duration_MTurk/v2_DepthDuration_HTML.html#299,299,1366,768,1366,768,8-29-2022,8-40-5,161,depth_duration_stimuli/002103_2014-06-25_20-00-40_260595134347_rgbf000049-resize_0/002103_2014-06-25_20-00-40_260595134347_rgbf000049-resize_0-target.png,125,4.105,6,2494,4,feet,jsons/VE125_randls_17_rotated.json,518590,813211,49,Man
161,354517,DepthScenes,duration_manipulation_targetAtFixation,jsons/VE125_randls_17_rotated.json,http://54.235.29.9/FacialAge/BNav_EC2/DepthDuration/v2_depth_duration_MTurk/v2_DepthDuration_HTML.html#299,299,1366,768,1366,768,8-29-2022,8-40-5,162,depth_duration_stimuli/002039_2014-06-24_20-22-38_260595134347_rgbf000084-resize_1/002039_2014-06-24_20-22-38_260595134347_rgbf000084-resize_1-target.png,125,4.408,7,2394,122,feet,jsons/VE125_randls_17_rotated.json,518590,813211,49,Man
162,354517,DepthScenes,duration_manipulation_targetAtFixation,jsons/VE125_randls_17_rotated.json,http://54.235.29.9/FacialAge/BNav_EC2/DepthDuration/v2_depth_duration_MTurk/v2_DepthDuration_HTML.html#299,299,1366,768,1366,768,8-29-2022,8-40-5,163,depth_duration_stimuli/003228_2014-05-14_13-42-35_094959634447_rgbf000101-resize_1/003228_2014-05-14_13-42-35_094959634447_rgbf000101-resize_1-target.png,125,1.9680000000000002,5,2561,114,feet,jsons/VE125_randls_17_rotated.json,518590,813211,49,Man
163,354517,DepthScenes,duration_manipulation_targetAtFixation,jsons/VE125_randls_17_rotated.json,http://54.235.29.9/FacialAge/BNav_EC2/DepthDuration/v2_depth_duration_MTurk/v2_DepthDuration_HTML.html#299,299,1366,768,1366,768,8-29-2022,8-40-5,164,depth_duration_stimuli/002600_2014-06-24_14-27-04_094959634447_rgbf000074-resize_2/002600_2014-06-24_14-27-04_094959634447_rgbf000074-resize_2-target.png,125,2.7575,4,2078,117,feet,jsons/VE125_randls_17_rotated.json,518590,813211,49,Man
