,subjID,experimentName,versionName,sequenceName,url,selected_row,windowWidth,windowHeight,screenWidth,screenHeight,startDate,startTime,trial,stimulus,duration,actual_depth,depth_estimate,trial_RT,log_sceneDuration,unitSelection,seq_filepath,experimentTime,totalTime,age,gender
0,357305,DepthScenes,duration_manipulation_targetAtFixation,jsons/v1_VE250_randls_17.json,http://54.235.29.9/FacialAge/BNav_EC2/DepthDuration/v2_depth_duration_MTurk/v2_DepthDuration_HTML.html#430,430,1366,768,1366,768,8-30-2022,10-24-39,1,depth_duration_stimuli/002600_2014-06-24_14-27-04_094959634447_rgbf000074-resize_2/002600_2014-06-24_14-27-04_094959634447_rgbf000074-resize_2-target.png,250,2.7575,2,6782,249,meters,jsons/v1_VE250_randls_17.json,1222658,1553135,25,Man
1,357305,DepthScenes,duration_manipulation_targetAtFixation,jsons/v1_VE250_randls_17.json,http://54.235.29.9/FacialAge/BNav_EC2/DepthDuration/v2_depth_duration_MTurk/v2_DepthDuration_HTML.html#430,430,1366,768,1366,768,8-30-2022,10-24-39,2,depth_duration_stimuli/003228_2014-05-14_13-42-35_094959634447_rgbf000101-resize_1/003228_2014-05-14_13-42-35_094959634447_rgbf000101-resize_1-target.png,250,1.9680000000000002,3,9717,249,meters,jsons/v1_VE250_randls_17.json,1222658,1553135,25,Man
2,357305,DepthScenes,duration_manipulation_targetAtFixation,jsons/v1_VE250_randls_17.json,http://54.235.29.9/FacialAge/BNav_EC2/DepthDuration/v2_depth_duration_MTurk/v2_DepthDuration_HTML.html#430,430,1366,768,1366,768,8-30-2022,10-24-39,3,depth_duration_stimuli/002039_2014-06-24_20-22-38_260595134347_rgbf000084-resize_1/002039_2014-06-24_20-22-38_260595134347_rgbf000084-resize_1-target.png,250,4.408,3,7362,250,meters,jsons/v1_VE250_randls_17.json,1222658,1553135,25,Man
3,357305,DepthScenes,duration_manipulation_targetAtFixation,jsons/v1_VE250_randls_17.json,http://54.235.29.9/FacialAge/BNav_EC2/DepthDuration/v2_depth_duration_MTurk/v2_DepthDuration_HTML.html#430,430,1366,768,1366,768,8-30-2022,10-24-39,4,depth_duration_stimuli/002103_2014-06-25_20-00-40_260595134347_rgbf000049-resize_0/002103_2014-06-25_20-00-40_260595134347_rgbf000049-resize_0-target.png,250,4.105,2,5826,251,meters,jsons/v1_VE250_randls_17.json,1222658,1553135,25,Man
4,357305,DepthScenes,duration_manipulation_targetAtFixation,jsons/v1_VE250_randls_17.json,http://54.235.29.9/FacialAge/BNav_EC2/DepthDuration/v2_depth_duration_MTurk/v2_DepthDuration_HTML.html#430,430,1366,768,1366,768,8-30-2022,10-24-39,5,depth_duration_stimuli/003621_2014-05-23_18-06-08_094959634447_rgbf000101-resize_1/003621_2014-05-23_18-06-08_094959634447_rgbf000101-resize_1-target.png,250,3.9835,2,5925,251,meters,jsons/v1_VE250_randls_17.json,1222658,1553135,25,Man
5,357305,DepthScenes,duration_manipulation_targetAtFixation,jsons/v1_VE250_randls_17.json,http://54.235.29.9/FacialAge/BNav_EC2/DepthDuration/v2_depth_duration_MTurk/v2_DepthDuration_HTML.html#430,430,1366,768,1366,768,8-30-2022,10-24-39,6,depth_duration_stimuli/001584_2014-06-20_11-07-43_260595134347_rgbf000002-resize_1/001584_2014-06-20_11-07-43_260595134347_rgbf000002-resize_1-target.png,250,3.53,3,6211,250,meters,jsons/v1_VE250_randls_17.json,1222658,1553135,25,Man
6,357305,DepthScenes,duration_manipulation_targetAtFixation,jsons/v1_VE250_randls_17.json,http://54.235.29.9/FacialAge/BNav_EC2/DepthDuration/v2_depth_duration_MTurk/v2_DepthDuration_HTML.html#430,430,1366,768,1366,768,8-30-2022,10-24-39,7,depth_duration_stimuli/002375_2014-06-28_20-13-44_260595134347_rgbf000032-resize_1/002375_2014-06-28_20-13-44_260595134347_rgbf000032-resize_1-target.png,250,4.0175,1,5411,250,meters,jsons/v1_VE250_randls_17.json,1222658,1553135,25,Man
7,357305,DepthScenes,duration_manipulation_targetAtFixation,jsons/v1_VE250_randls_17.json,http://54.235.29.9/FacialAge/BNav_EC2/DepthDuration/v2_depth_duration_MTurk/v2_DepthDuration_HTML.html#430,430,1366,768,1366,768,8-30-2022,10-24-39,8,depth_duration_stimuli/002657_2014-06-13_15-29-54_094959634447_rgbf000150-resize_1/002657_2014-06-13_15-29-54_094959634447_rgbf000150-resize_1-target.png,250,4.919,3,4723,250,meters,jsons/v1_VE250_randls_17.json,1222658,1553135,25,Man
8,357305,DepthScenes,duration_manipulation_targetAtFixation,jsons/v1_VE250_randls_17.json,http://54.235.29.9/FacialAge/BNav_EC2/DepthDuration/v2_depth_duration_MTurk/v2_DepthDuration_HTML.html#430,430,1366,768,1366,768,8-30-2022,10-24-39,9,depth_duration_stimuli/001199_2014-06-17_16-03-48_260595134347_rgbf000077-resize_0/001199_2014-06-17_16-03-48_260595134347_rgbf000077-resize_0-target.png,250,3.4375,2,4689,249,meters,jsons/v1_VE250_randls_17.json,1222658,1553135,25,Man
9,357305,DepthScenes,duration_manipulation_targetAtFixation,jsons/v1_VE250_randls_17.json,http://54.235.29.9/FacialAge/BNav_EC2/DepthDuration/v2_depth_duration_MTurk/v2_DepthDuration_HTML.html#430,430,1366,768,1366,768,8-30-2022,10-24-39,10,depth_duration_stimuli/000502_2014-06-08_23-02-32_260595134347_rgbf000063-resize_4/000502_2014-06-08_23-02-32_260595134347_rgbf000063-resize_4-target.png,250,2.431,2,5009,251,meters,jsons/v1_VE250_randls_17.json,1222658,1553135,25,Man
10,357305,DepthScenes,duration_manipulation_targetAtFixation,jsons/v1_VE250_randls_17.json,http://54.235.29.9/FacialAge/BNav_EC2/DepthDuration/v2_depth_duration_MTurk/v2_DepthDuration_HTML.html#430,430,1366,768,1366,768,8-30-2022,10-24-39,11,depth_duration_stimuli/000788_2014-06-08_22-34-36_260595134347_rgbf000131-resize_1/000788_2014-06-08_22-34-36_260595134347_rgbf000131-resize_1-target.png,250,3.359,1,5113,250,meters,jsons/v1_VE250_randls_17.json,1222658,1553135,25,Man
11,357305,DepthScenes,duration_manipulation_targetAtFixation,jsons/v1_VE250_randls_17.json,http://54.235.29.9/FacialAge/BNav_EC2/DepthDuration/v2_depth_duration_MTurk/v2_DepthDuration_HTML.html#430,430,1366,768,1366,768,8-30-2022,10-24-39,12,depth_duration_stimuli/001235_2014-06-17_16-37-36_260595134347_rgbf000084-resize_4/001235_2014-06-17_16-37-36_260595134347_rgbf000084-resize_4-target.png,250,3.6605,2,5112,251,meters,jsons/v1_VE250_randls_17.json,1222658,1553135,25,Man
12,357305,DepthScenes,duration_manipulation_targetAtFixation,jsons/v1_VE250_randls_17.json,http://54.235.29.9/FacialAge/BNav_EC2/DepthDuration/v2_depth_duration_MTurk/v2_DepthDuration_HTML.html#430,430,1366,768,1366,768,8-30-2022,10-24-39,13,depth_duration_stimuli/000569_2014-06-09_22-51-47_260595134347_rgbf000141-resize_3/000569_2014-06-09_22-51-47_260595134347_rgbf000141-resize-original.jpg,250,4.512,2,17278,250,meters,jsons/v1_VE250_randls_17.json,1222658,1553135,25,Man
13,357305,DepthScenes,duration_manipulation_targetAtFixation,jsons/v1_VE250_randls_17.json,http://54.235.29.9/FacialAge/BNav_EC2/DepthDuration/v2_depth_duration_MTurk/v2_DepthDuration_HTML.html#430,430,1366,768,1366,768,8-30-2022,10-24-39,14,depth_duration_stimuli/000486_2014-06-09_20-47-20_260595134347_rgbf000143-resize_2/000486_2014-06-09_20-47-20_260595134347_rgbf000143-resize_2-target.png,250,4.8325,2,7537,251,meters,jsons/v1_VE250_randls_17.json,1222658,1553135,25,Man
14,357305,DepthScenes,duration_manipulation_targetAtFixation,jsons/v1_VE250_randls_17.json,http://54.235.29.9/FacialAge/BNav_EC2/DepthDuration/v2_depth_duration_MTurk/v2_DepthDuration_HTML.html#430,430,1366,768,1366,768,8-30-2022,10-24-39,15,depth_duration_stimuli/003083_2014-06-15_15-21-03_094959634447_rgbf000063-resize_1/003083_2014-06-15_15-21-03_094959634447_rgbf000063-resize_1-target.png,250,4.1405,3,4966,250,meters,jsons/v1_VE250_randls_17.json,1222658,1553135,25,Man
15,357305,DepthScenes,duration_manipulation_targetAtFixation,jsons/v1_VE250_randls_17.json,http://54.235.29.9/FacialAge/BNav_EC2/DepthDuration/v2_depth_duration_MTurk/v2_DepthDuration_HTML.html#430,430,1366,768,1366,768,8-30-2022,10-24-39,16,depth_duration_stimuli/001164_2014-06-17_15-35-46_260595134347_rgbf000085-resize_3/001164_2014-06-17_15-35-46_260595134347_rgbf000085-resize_3-target.png,250,2.354,2,5283,250,meters,jsons/v1_VE250_randls_17.json,1222658,1553135,25,Man
16,357305,DepthScenes,duration_manipulation_targetAtFixation,jsons/v1_VE250_randls_17.json,http://54.235.29.9/FacialAge/BNav_EC2/DepthDuration/v2_depth_duration_MTurk/v2_DepthDuration_HTML.html#430,430,1366,768,1366,768,8-30-2022,10-24-39,17,depth_duration_stimuli/001136_2014-06-17_15-19-41_260595134347_rgbf000076-resize_3/001136_2014-06-17_15-19-41_260595134347_rgbf000076-resize_3-target.png,250,1.8655,3,4312,250,meters,jsons/v1_VE250_randls_17.json,1222658,1553135,25,Man
17,357305,DepthScenes,duration_manipulation_targetAtFixation,jsons/v1_VE250_randls_17.json,http://54.235.29.9/FacialAge/BNav_EC2/DepthDuration/v2_depth_duration_MTurk/v2_DepthDuration_HTML.html#430,430,1366,768,1366,768,8-30-2022,10-24-39,18,depth_duration_stimuli/000906_2014-06-08_13-35-43_260595134347_rgbf000155-resize_1/000906_2014-06-08_13-35-43_260595134347_rgbf000155-resize_1-target.png,250,2.8489999999999998,1,5103,250,meters,jsons/v1_VE250_randls_17.json,1222658,1553135,25,Man
18,357305,DepthScenes,duration_manipulation_targetAtFixation,jsons/v1_VE250_randls_17.json,http://54.235.29.9/FacialAge/BNav_EC2/DepthDuration/v2_depth_duration_MTurk/v2_DepthDuration_HTML.html#430,430,1366,768,1366,768,8-30-2022,10-24-39,19,depth_duration_stimuli/002805_2014-06-22_19-54-03_094959634447_rgbf000079-resize_1/002805_2014-06-22_19-54-03_094959634447_rgbf000079-resize_1-target.png,250,3.1439999999999997,1,4065,251,meters,jsons/v1_VE250_randls_17.json,1222658,1553135,25,Man
19,357305,DepthScenes,duration_manipulation_targetAtFixation,jsons/v1_VE250_randls_17.json,http://54.235.29.9/FacialAge/BNav_EC2/DepthDuration/v2_depth_duration_MTurk/v2_DepthDuration_HTML.html#430,430,1366,768,1366,768,8-30-2022,10-24-39,20,depth_duration_stimuli/002057_2014-06-24_21-00-13_260595134347_rgbf000120-resize_1/002057_2014-06-24_21-00-13_260595134347_rgbf000120-resize_1-target.png,250,2.967,2,4805,251,meters,jsons/v1_VE250_randls_17.json,1222658,1553135,25,Man
20,357305,DepthScenes,duration_manipulation_targetAtFixation,jsons/v1_VE250_randls_17.json,http://54.235.29.9/FacialAge/BNav_EC2/DepthDuration/v2_depth_duration_MTurk/v2_DepthDuration_HTML.html#430,430,1366,768,1366,768,8-30-2022,10-24-39,21,depth_duration_stimuli/000709_2014-06-08_13-51-55_260595134347_rgbf000068-resize_3/000709_2014-06-08_13-51-55_260595134347_rgbf000068-resize_3-target.png,250,1.8030000000000002,3,4346,250,meters,jsons/v1_VE250_randls_17.json,1222658,1553135,25,Man
21,357305,DepthScenes,duration_manipulation_targetAtFixation,jsons/v1_VE250_randls_17.json,http://54.235.29.9/FacialAge/BNav_EC2/DepthDuration/v2_depth_duration_MTurk/v2_DepthDuration_HTML.html#430,430,1366,768,1366,768,8-30-2022,10-24-39,22,depth_duration_stimuli/002905_2014-06-03_18-04-43_094959634447_rgbf000151-resize_2/002905_2014-06-03_18-04-43_094959634447_rgbf000151-resize_2-target.png,250,2.0295,2,4060,250,meters,jsons/v1_VE250_randls_17.json,1222658,1553135,25,Man
22,357305,DepthScenes,duration_manipulation_targetAtFixation,jsons/v1_VE250_randls_17.json,http://54.235.29.9/FacialAge/BNav_EC2/DepthDuration/v2_depth_duration_MTurk/v2_DepthDuration_HTML.html#430,430,1366,768,1366,768,8-30-2022,10-24-39,23,depth_duration_stimuli/003423_2014-05-21_10-23-26_094959634447_rgbf002665-resize_2/003423_2014-05-21_10-23-26_094959634447_rgbf002665-resize_2-target.png,250,3.2575,2,4433,249,meters,jsons/v1_VE250_randls_17.json,1222658,1553135,25,Man
23,357305,DepthScenes,duration_manipulation_targetAtFixation,jsons/v1_VE250_randls_17.json,http://54.235.29.9/FacialAge/BNav_EC2/DepthDuration/v2_depth_duration_MTurk/v2_DepthDuration_HTML.html#430,430,1366,768,1366,768,8-30-2022,10-24-39,24,depth_duration_stimuli/001806_2014-06-26_20-50-20_260595134347_rgbf000091-resize_1/001806_2014-06-26_20-50-20_260595134347_rgbf000091-resize_1-target.png,250,2.7305,2,4704,249,meters,jsons/v1_VE250_randls_17.json,1222658,1553135,25,Man
24,357305,DepthScenes,duration_manipulation_targetAtFixation,jsons/v1_VE250_randls_17.json,http://54.235.29.9/FacialAge/BNav_EC2/DepthDuration/v2_depth_duration_MTurk/v2_DepthDuration_HTML.html#430,430,1366,768,1366,768,8-30-2022,10-24-39,25,depth_duration_stimuli/001617_2014-06-20_11-35-32_260595134347_rgbf000066-resize_1/001617_2014-06-20_11-35-32_260595134347_rgbf000066-resize_1-target.png,250,3.7910000000000004,1,7069,250,meters,jsons/v1_VE250_randls_17.json,1222658,1553135,25,Man
25,357305,DepthScenes,duration_manipulation_targetAtFixation,jsons/v1_VE250_randls_17.json,http://54.235.29.9/FacialAge/BNav_EC2/DepthDuration/v2_depth_duration_MTurk/v2_DepthDuration_HTML.html#430,430,1366,768,1366,768,8-30-2022,10-24-39,26,depth_duration_stimuli/001158_2014-06-17_15-32-16_260595134347_rgbf000138-resize_2/001158_2014-06-17_15-32-16_260595134347_rgbf000138-resize_2-target.png,250,4.5315,3,6039,249,meters,jsons/v1_VE250_randls_17.json,1222658,1553135,25,Man
26,357305,DepthScenes,duration_manipulation_targetAtFixation,jsons/v1_VE250_randls_17.json,http://54.235.29.9/FacialAge/BNav_EC2/DepthDuration/v2_depth_duration_MTurk/v2_DepthDuration_HTML.html#430,430,1366,768,1366,768,8-30-2022,10-24-39,27,depth_duration_stimuli/000556_2014-06-09_22-42-56_260595134347_rgbf000214-resize_1/000556_2014-06-09_22-42-56_260595134347_rgbf000214-resize_1-target.png,250,4.8415,2,4856,251,meters,jsons/v1_VE250_randls_17.json,1222658,1553135,25,Man
27,357305,DepthScenes,duration_manipulation_targetAtFixation,jsons/v1_VE250_randls_17.json,http://54.235.29.9/FacialAge/BNav_EC2/DepthDuration/v2_depth_duration_MTurk/v2_DepthDuration_HTML.html#430,430,1366,768,1366,768,8-30-2022,10-24-39,28,depth_duration_stimuli/002549_2014-06-24_13-41-39_094959634447_rgbf000022-resize_3/002549_2014-06-24_13-41-39_094959634447_rgbf000022-resize_3-target.png,250,1.476,1,3932,249,meters,jsons/v1_VE250_randls_17.json,1222658,1553135,25,Man
28,357305,DepthScenes,duration_manipulation_targetAtFixation,jsons/v1_VE250_randls_17.json,http://54.235.29.9/FacialAge/BNav_EC2/DepthDuration/v2_depth_duration_MTurk/v2_DepthDuration_HTML.html#430,430,1366,768,1366,768,8-30-2022,10-24-39,29,depth_duration_stimuli/002750_2014-06-22_19-08-03_094959634447_rgbf000094-resize_4/002750_2014-06-22_19-08-03_094959634447_rgbf000094-resize_4-target.png,250,2.354,3,4598,251,meters,jsons/v1_VE250_randls_17.json,1222658,1553135,25,Man
29,357305,DepthScenes,duration_manipulation_targetAtFixation,jsons/v1_VE250_randls_17.json,http://54.235.29.9/FacialAge/BNav_EC2/DepthDuration/v2_depth_duration_MTurk/v2_DepthDuration_HTML.html#430,430,1366,768,1366,768,8-30-2022,10-24-39,30,depth_duration_stimuli/000375_2014-06-08_11-17-29_260595134347_rgbf000133-resize_2/000375_2014-06-08_11-17-29_260595134347_rgbf000133-resize-original.jpg,250,4.718,0,6464,249,meters,jsons/v1_VE250_randls_17.json,1222658,1553135,25,Man
30,357305,DepthScenes,duration_manipulation_targetAtFixation,jsons/v1_VE250_randls_17.json,http://54.235.29.9/FacialAge/BNav_EC2/DepthDuration/v2_depth_duration_MTurk/v2_DepthDuration_HTML.html#430,430,1366,768,1366,768,8-30-2022,10-24-39,31,depth_duration_stimuli/002118_2014-06-25_20-32-08_260595134347_rgbf000078-resize_1/002118_2014-06-25_20-32-08_260595134347_rgbf000078-resize_1-target.png,250,2.6460000000000004,2,5687,250,meters,jsons/v1_VE250_randls_17.json,1222658,1553135,25,Man
31,357305,DepthScenes,duration_manipulation_targetAtFixation,jsons/v1_VE250_randls_17.json,http://54.235.29.9/FacialAge/BNav_EC2/DepthDuration/v2_depth_duration_MTurk/v2_DepthDuration_HTML.html#430,430,1366,768,1366,768,8-30-2022,10-24-39,32,depth_duration_stimuli/001516_2014-06-20_16-25-09_260595134347_rgbf000076-resize_2/001516_2014-06-20_16-25-09_260595134347_rgbf000076-resize_2-target.png,250,1.7445,2,4337,249,meters,jsons/v1_VE250_randls_17.json,1222658,1553135,25,Man
32,357305,DepthScenes,duration_manipulation_targetAtFixation,jsons/v1_VE250_randls_17.json,http://54.235.29.9/FacialAge/BNav_EC2/DepthDuration/v2_depth_duration_MTurk/v2_DepthDuration_HTML.html#430,430,1366,768,1366,768,8-30-2022,10-24-39,33,depth_duration_stimuli/002043_2014-06-24_20-29-38_260595134347_rgbf000039-resize_4/002043_2014-06-24_20-29-38_260595134347_rgbf000039-resize_4-target.png,250,2.8435,3,4474,250,meters,jsons/v1_VE250_randls_17.json,1222658,1553135,25,Man
33,357305,DepthScenes,duration_manipulation_targetAtFixation,jsons/v1_VE250_randls_17.json,http://54.235.29.9/FacialAge/BNav_EC2/DepthDuration/v2_depth_duration_MTurk/v2_DepthDuration_HTML.html#430,430,1366,768,1366,768,8-30-2022,10-24-39,34,depth_duration_stimuli/003048_2014-06-15_13-49-43_094959634447_rgbf000150-resize_1/003048_2014-06-15_13-49-43_094959634447_rgbf000150-resize_1-target.png,250,4.0035,3,4202,249,meters,jsons/v1_VE250_randls_17.json,1222658,1553135,25,Man
34,357305,DepthScenes,duration_manipulation_targetAtFixation,jsons/v1_VE250_randls_17.json,http://54.235.29.9/FacialAge/BNav_EC2/DepthDuration/v2_depth_duration_MTurk/v2_DepthDuration_HTML.html#430,430,1366,768,1366,768,8-30-2022,10-24-39,35,depth_duration_stimuli/000506_2014-06-08_23-21-00_260595134347_rgbf000070-resize_7/000506_2014-06-08_23-21-00_260595134347_rgbf000070-resize_7-target.png,250,4.0585,1,4608,249,meters,jsons/v1_VE250_randls_17.json,1222658,1553135,25,Man
35,357305,DepthScenes,duration_manipulation_targetAtFixation,jsons/v1_VE250_randls_17.json,http://54.235.29.9/FacialAge/BNav_EC2/DepthDuration/v2_depth_duration_MTurk/v2_DepthDuration_HTML.html#430,430,1366,768,1366,768,8-30-2022,10-24-39,36,depth_duration_stimuli/003079_2014-06-15_15-18-20_094959634447_rgbf000152-resize_8/003079_2014-06-15_15-18-20_094959634447_rgbf000152-resize_8-target.png,250,2.8775,2,4998,251,meters,jsons/v1_VE250_randls_17.json,1222658,1553135,25,Man
36,357305,DepthScenes,duration_manipulation_targetAtFixation,jsons/v1_VE250_randls_17.json,http://54.235.29.9/FacialAge/BNav_EC2/DepthDuration/v2_depth_duration_MTurk/v2_DepthDuration_HTML.html#430,430,1366,768,1366,768,8-30-2022,10-24-39,37,depth_duration_stimuli/001056_2014-06-08_18-46-44_260595134347_rgbf000068-resize_0/001056_2014-06-08_18-46-44_260595134347_rgbf000068-resize_0-target.png,250,2.6625,2,4467,250,meters,jsons/v1_VE250_randls_17.json,1222658,1553135,25,Man
37,357305,DepthScenes,duration_manipulation_targetAtFixation,jsons/v1_VE250_randls_17.json,http://54.235.29.9/FacialAge/BNav_EC2/DepthDuration/v2_depth_duration_MTurk/v2_DepthDuration_HTML.html#430,430,1366,768,1366,768,8-30-2022,10-24-39,38,depth_duration_stimuli/002199_2014-06-28_18-33-56_260595134347_rgbf000074-resize_0/002199_2014-06-28_18-33-56_260595134347_rgbf000074-resize_0-target.png,250,1.996,2,136277,251,meters,jsons/v1_VE250_randls_17.json,1222658,1553135,25,Man
38,357305,DepthScenes,duration_manipulation_targetAtFixation,jsons/v1_VE250_randls_17.json,http://54.235.29.9/FacialAge/BNav_EC2/DepthDuration/v2_depth_duration_MTurk/v2_DepthDuration_HTML.html#430,430,1366,768,1366,768,8-30-2022,10-24-39,39,depth_duration_stimuli/002663_2014-06-13_15-50-26_094959634447_rgbf000075-resize_1/002663_2014-06-13_15-50-26_094959634447_rgbf000075-resize_1-target.png,250,4.7495,1,4290,250,meters,jsons/v1_VE250_randls_17.json,1222658,1553135,25,Man
39,357305,DepthScenes,duration_manipulation_targetAtFixation,jsons/v1_VE250_randls_17.json,http://54.235.29.9/FacialAge/BNav_EC2/DepthDuration/v2_depth_duration_MTurk/v2_DepthDuration_HTML.html#430,430,1366,768,1366,768,8-30-2022,10-24-39,40,depth_duration_stimuli/000409_2014-06-04_19-23-33_260595134347_rgbf000067-resize_0/000409_2014-06-04_19-23-33_260595134347_rgbf000067-resize_0-target.png,250,3.7335,1,4606,251,meters,jsons/v1_VE250_randls_17.json,1222658,1553135,25,Man
40,357305,DepthScenes,duration_manipulation_targetAtFixation,jsons/v1_VE250_randls_17.json,http://54.235.29.9/FacialAge/BNav_EC2/DepthDuration/v2_depth_duration_MTurk/v2_DepthDuration_HTML.html#430,430,1366,768,1366,768,8-30-2022,10-24-39,41,depth_duration_stimuli/001150_2014-06-17_15-27-34_260595134347_rgbf000108-resize_2/001150_2014-06-17_15-27-34_260595134347_rgbf000108-resize_2-target.png,250,4.0325,0,9455,249,meters,jsons/v1_VE250_randls_17.json,1222658,1553135,25,Man
41,357305,DepthScenes,duration_manipulation_targetAtFixation,jsons/v1_VE250_randls_17.json,http://54.235.29.9/FacialAge/BNav_EC2/DepthDuration/v2_depth_duration_MTurk/v2_DepthDuration_HTML.html#430,430,1366,768,1366,768,8-30-2022,10-24-39,42,depth_duration_stimuli/000665_2014-06-09_20-42-35_260595134347_rgbf000110-resize_1/000665_2014-06-09_20-42-35_260595134347_rgbf000110-resize_1-target.png,250,3.057,1,4547,249,meters,jsons/v1_VE250_randls_17.json,1222658,1553135,25,Man
42,357305,DepthScenes,duration_manipulation_targetAtFixation,jsons/v1_VE250_randls_17.json,http://54.235.29.9/FacialAge/BNav_EC2/DepthDuration/v2_depth_duration_MTurk/v2_DepthDuration_HTML.html#430,430,1366,768,1366,768,8-30-2022,10-24-39,43,depth_duration_stimuli/000470_2014-06-09_19-42-40_260595134347_rgbf000094-resize_1/000470_2014-06-09_19-42-40_260595134347_rgbf000094-resize_1-target.png,250,1.831,2,4113,249,meters,jsons/v1_VE250_randls_17.json,1222658,1553135,25,Man
43,357305,DepthScenes,duration_manipulation_targetAtFixation,jsons/v1_VE250_randls_17.json,http://54.235.29.9/FacialAge/BNav_EC2/DepthDuration/v2_depth_duration_MTurk/v2_DepthDuration_HTML.html#430,430,1366,768,1366,768,8-30-2022,10-24-39,44,depth_duration_stimuli/000109_2014-05-14_23-41-52_260595134347_rgbf000035-resize_9/000109_2014-05-14_23-41-52_260595134347_rgbf000035-resize_9-target.png,250,1.3545,0,4795,250,meters,jsons/v1_VE250_randls_17.json,1222658,1553135,25,Man
44,357305,DepthScenes,duration_manipulation_targetAtFixation,jsons/v1_VE250_randls_17.json,http://54.235.29.9/FacialAge/BNav_EC2/DepthDuration/v2_depth_duration_MTurk/v2_DepthDuration_HTML.html#430,430,1366,768,1366,768,8-30-2022,10-24-39,45,depth_duration_stimuli/000787_2014-06-08_22-33-53_260595134347_rgbf000175-resize_1/000787_2014-06-08_22-33-53_260595134347_rgbf000175-resize-original.jpg,250,4.784,0,4733,251,meters,jsons/v1_VE250_randls_17.json,1222658,1553135,25,Man
45,357305,DepthScenes,duration_manipulation_targetAtFixation,jsons/v1_VE250_randls_17.json,http://54.235.29.9/FacialAge/BNav_EC2/DepthDuration/v2_depth_duration_MTurk/v2_DepthDuration_HTML.html#430,430,1366,768,1366,768,8-30-2022,10-24-39,46,depth_duration_stimuli/001133_2014-06-17_14-49-16_260595134347_rgbf000100-resize_0/001133_2014-06-17_14-49-16_260595134347_rgbf000100-resize_0-target.png,250,4.2115,2,6801,250,meters,jsons/v1_VE250_randls_17.json,1222658,1553135,25,Man
46,357305,DepthScenes,duration_manipulation_targetAtFixation,jsons/v1_VE250_randls_17.json,http://54.235.29.9/FacialAge/BNav_EC2/DepthDuration/v2_depth_duration_MTurk/v2_DepthDuration_HTML.html#430,430,1366,768,1366,768,8-30-2022,10-24-39,47,depth_duration_stimuli/001132_2014-06-17_14-48-54_260595134347_rgbf000100-resize_2/001132_2014-06-17_14-48-54_260595134347_rgbf000100-resize_2-target.png,250,3.753,2,4279,250,meters,jsons/v1_VE250_randls_17.json,1222658,1553135,25,Man
47,357305,DepthScenes,duration_manipulation_targetAtFixation,jsons/v1_VE250_randls_17.json,http://54.235.29.9/FacialAge/BNav_EC2/DepthDuration/v2_depth_duration_MTurk/v2_DepthDuration_HTML.html#430,430,1366,768,1366,768,8-30-2022,10-24-39,48,depth_duration_stimuli/001167_2014-06-17_15-38-07_260595134347_rgbf000108-resize_0/001167_2014-06-17_15-38-07_260595134347_rgbf000108-resize_0-target.png,250,1.8505,1,4441,251,meters,jsons/v1_VE250_randls_17.json,1222658,1553135,25,Man
48,357305,DepthScenes,duration_manipulation_targetAtFixation,jsons/v1_VE250_randls_17.json,http://54.235.29.9/FacialAge/BNav_EC2/DepthDuration/v2_depth_duration_MTurk/v2_DepthDuration_HTML.html#430,430,1366,768,1366,768,8-30-2022,10-24-39,49,depth_duration_stimuli/003587_2014-05-23_16-48-02_094959634447_rgbf002384-resize_2/003587_2014-05-23_16-48-02_094959634447_rgbf002384-resize_2-target.png,250,1.357,1,6444,250,meters,jsons/v1_VE250_randls_17.json,1222658,1553135,25,Man
49,357305,DepthScenes,duration_manipulation_targetAtFixation,jsons/v1_VE250_randls_17.json,http://54.235.29.9/FacialAge/BNav_EC2/DepthDuration/v2_depth_duration_MTurk/v2_DepthDuration_HTML.html#430,430,1366,768,1366,768,8-30-2022,10-24-39,50,depth_duration_stimuli/002445_2014-06-28_20-32-16_260595134347_rgbf000029-resize_4/002445_2014-06-28_20-32-16_260595134347_rgbf000029-resize_4-target.png,250,2.5315,2,4318,249,meters,jsons/v1_VE250_randls_17.json,1222658,1553135,25,Man
50,357305,DepthScenes,duration_manipulation_targetAtFixation,jsons/v1_VE250_randls_17.json,http://54.235.29.9/FacialAge/BNav_EC2/DepthDuration/v2_depth_duration_MTurk/v2_DepthDuration_HTML.html#430,430,1366,768,1366,768,8-30-2022,10-24-39,51,depth_duration_stimuli/000780_2014-06-08_22-28-29_260595134347_rgbf000126-resize_1/000780_2014-06-08_22-28-29_260595134347_rgbf000126-resize_1-target.png,250,3.3825,2,3886,248,meters,jsons/v1_VE250_randls_17.json,1222658,1553135,25,Man
51,357305,DepthScenes,duration_manipulation_targetAtFixation,jsons/v1_VE250_randls_17.json,http://54.235.29.9/FacialAge/BNav_EC2/DepthDuration/v2_depth_duration_MTurk/v2_DepthDuration_HTML.html#430,430,1366,768,1366,768,8-30-2022,10-24-39,52,depth_duration_stimuli/001029_2014-06-08_13-17-57_260595134347_rgbf000065-resize_1/001029_2014-06-08_13-17-57_260595134347_rgbf000065-resize_1-target.png,250,3.0835,2,4953,251,meters,jsons/v1_VE250_randls_17.json,1222658,1553135,25,Man
52,357305,DepthScenes,duration_manipulation_targetAtFixation,jsons/v1_VE250_randls_17.json,http://54.235.29.9/FacialAge/BNav_EC2/DepthDuration/v2_depth_duration_MTurk/v2_DepthDuration_HTML.html#430,430,1366,768,1366,768,8-30-2022,10-24-39,53,depth_duration_stimuli/000677_2014-06-08_23-10-32_260595134347_rgbf000158-resize_6/000677_2014-06-08_23-10-32_260595134347_rgbf000158-resize_6-target.png,250,3.556,2,3922,250,meters,jsons/v1_VE250_randls_17.json,1222658,1553135,25,Man
53,357305,DepthScenes,duration_manipulation_targetAtFixation,jsons/v1_VE250_randls_17.json,http://54.235.29.9/FacialAge/BNav_EC2/DepthDuration/v2_depth_duration_MTurk/v2_DepthDuration_HTML.html#430,430,1366,768,1366,768,8-30-2022,10-24-39,54,depth_duration_stimuli/003534_2014-05-22_15-06-10_094959634447_rgbf000102-resize_4/003534_2014-05-22_15-06-10_094959634447_rgbf000102-resize_4-target.png,250,1.426,1,3860,249,meters,jsons/v1_VE250_randls_17.json,1222658,1553135,25,Man
54,357305,DepthScenes,duration_manipulation_targetAtFixation,jsons/v1_VE250_randls_17.json,http://54.235.29.9/FacialAge/BNav_EC2/DepthDuration/v2_depth_duration_MTurk/v2_DepthDuration_HTML.html#430,430,1366,768,1366,768,8-30-2022,10-24-39,55,depth_duration_stimuli/002637_2014-06-24_14-51-13_094959634447_rgbf000066-resize_4/002637_2014-06-24_14-51-13_094959634447_rgbf000066-resize_4-target.png,250,1.9955,1,4618,249,meters,jsons/v1_VE250_randls_17.json,1222658,1553135,25,Man
55,357305,DepthScenes,duration_manipulation_targetAtFixation,jsons/v1_VE250_randls_17.json,http://54.235.29.9/FacialAge/BNav_EC2/DepthDuration/v2_depth_duration_MTurk/v2_DepthDuration_HTML.html#430,430,1366,768,1366,768,8-30-2022,10-24-39,56,depth_duration_stimuli/002988_2014-06-15_12-24-20_094959634447_rgbf000150-resize_1/002988_2014-06-15_12-24-20_094959634447_rgbf000150-resize_1-target.png,250,4.7669999999999995,3,210683,247,meters,jsons/v1_VE250_randls_17.json,1222658,1553135,25,Man
56,357305,DepthScenes,duration_manipulation_targetAtFixation,jsons/v1_VE250_randls_17.json,http://54.235.29.9/FacialAge/BNav_EC2/DepthDuration/v2_depth_duration_MTurk/v2_DepthDuration_HTML.html#430,430,1366,768,1366,768,8-30-2022,10-24-39,57,depth_duration_stimuli/001052_2014-06-08_18-24-54_260595134347_rgbf000130-resize_1/001052_2014-06-08_18-24-54_260595134347_rgbf000130-resize_1-target.png,250,4.1045,1,6368,250,meters,jsons/v1_VE250_randls_17.json,1222658,1553135,25,Man
57,357305,DepthScenes,duration_manipulation_targetAtFixation,jsons/v1_VE250_randls_17.json,http://54.235.29.9/FacialAge/BNav_EC2/DepthDuration/v2_depth_duration_MTurk/v2_DepthDuration_HTML.html#430,430,1366,768,1366,768,8-30-2022,10-24-39,58,depth_duration_stimuli/001059_2014-06-08_21-53-27_260595134347_rgbf000061-resize_4/001059_2014-06-08_21-53-27_260595134347_rgbf000061-resize_4-target.png,250,2.4185,1,4696,251,meters,jsons/v1_VE250_randls_17.json,1222658,1553135,25,Man
58,357305,DepthScenes,duration_manipulation_targetAtFixation,jsons/v1_VE250_randls_17.json,http://54.235.29.9/FacialAge/BNav_EC2/DepthDuration/v2_depth_duration_MTurk/v2_DepthDuration_HTML.html#430,430,1366,768,1366,768,8-30-2022,10-24-39,59,depth_duration_stimuli/001032_2014-06-08_13-23-17_260595134347_rgbf000021-resize_3/001032_2014-06-08_13-23-17_260595134347_rgbf000021-resize_3-target.png,250,3.2725,1,5035,250,meters,jsons/v1_VE250_randls_17.json,1222658,1553135,25,Man
59,357305,DepthScenes,duration_manipulation_targetAtFixation,jsons/v1_VE250_randls_17.json,http://54.235.29.9/FacialAge/BNav_EC2/DepthDuration/v2_depth_duration_MTurk/v2_DepthDuration_HTML.html#430,430,1366,768,1366,768,8-30-2022,10-24-39,60,depth_duration_stimuli/002964_2014-06-08_17-46-11_094959634447_rgbf000091-resize_4/002964_2014-06-08_17-46-11_094959634447_rgbf000091-resize_4-target.png,250,1.6909999999999998,1,4304,250,meters,jsons/v1_VE250_randls_17.json,1222658,1553135,25,Man
60,357305,DepthScenes,duration_manipulation_targetAtFixation,jsons/v1_VE250_randls_17.json,http://54.235.29.9/FacialAge/BNav_EC2/DepthDuration/v2_depth_duration_MTurk/v2_DepthDuration_HTML.html#430,430,1366,768,1366,768,8-30-2022,10-24-39,61,depth_duration_stimuli/002136_2014-06-25_21-18-03_260595134347_rgbf000109-resize_3/002136_2014-06-25_21-18-03_260595134347_rgbf000109-resize_3-target.png,250,1.9569999999999999,2,3915,250,meters,jsons/v1_VE250_randls_17.json,1222658,1553135,25,Man
61,357305,DepthScenes,duration_manipulation_targetAtFixation,jsons/v1_VE250_randls_17.json,http://54.235.29.9/FacialAge/BNav_EC2/DepthDuration/v2_depth_duration_MTurk/v2_DepthDuration_HTML.html#430,430,1366,768,1366,768,8-30-2022,10-24-39,62,depth_duration_stimuli/002989_2014-06-15_12-25-03_094959634447_rgbf000150-resize_3/002989_2014-06-15_12-25-03_094959634447_rgbf000150-resize_3-target.png,250,4.1975,3,4338,251,meters,jsons/v1_VE250_randls_17.json,1222658,1553135,25,Man
62,357305,DepthScenes,duration_manipulation_targetAtFixation,jsons/v1_VE250_randls_17.json,http://54.235.29.9/FacialAge/BNav_EC2/DepthDuration/v2_depth_duration_MTurk/v2_DepthDuration_HTML.html#430,430,1366,768,1366,768,8-30-2022,10-24-39,63,depth_duration_stimuli/000866_2014-06-09_20-45-42_260595134347_rgbf000139-resize_1/000866_2014-06-09_20-45-42_260595134347_rgbf000139-resize_1-target.png,250,3.2155,0,14885,252,meters,jsons/v1_VE250_randls_17.json,1222658,1553135,25,Man
63,357305,DepthScenes,duration_manipulation_targetAtFixation,jsons/v1_VE250_randls_17.json,http://54.235.29.9/FacialAge/BNav_EC2/DepthDuration/v2_depth_duration_MTurk/v2_DepthDuration_HTML.html#430,430,1366,768,1366,768,8-30-2022,10-24-39,64,depth_duration_stimuli/002153_2014-06-25_21-27-18_260595134347_rgbf000038-resize_5/002153_2014-06-25_21-27-18_260595134347_rgbf000038-resize_5-target.png,250,2.505,2,6200,250,meters,jsons/v1_VE250_randls_17.json,1222658,1553135,25,Man
64,357305,DepthScenes,duration_manipulation_targetAtFixation,jsons/v1_VE250_randls_17.json,http://54.235.29.9/FacialAge/BNav_EC2/DepthDuration/v2_depth_duration_MTurk/v2_DepthDuration_HTML.html#430,430,1366,768,1366,768,8-30-2022,10-24-39,65,depth_duration_stimuli/002660_2014-06-13_15-44-18_094959634447_rgbf001878-resize_2/002660_2014-06-13_15-44-18_094959634447_rgbf001878-resize_2-target.png,250,3.576,3,4016,250,meters,jsons/v1_VE250_randls_17.json,1222658,1553135,25,Man
65,357305,DepthScenes,duration_manipulation_targetAtFixation,jsons/v1_VE250_randls_17.json,http://54.235.29.9/FacialAge/BNav_EC2/DepthDuration/v2_depth_duration_MTurk/v2_DepthDuration_HTML.html#430,430,1366,768,1366,768,8-30-2022,10-24-39,66,depth_duration_stimuli/001222_2014-06-17_16-24-06_260595134347_rgbf000073-resize_0/001222_2014-06-17_16-24-06_260595134347_rgbf000073-resize-original.jpg,250,1.4385,2,12501,251,meters,jsons/v1_VE250_randls_17.json,1222658,1553135,25,Man
66,357305,DepthScenes,duration_manipulation_targetAtFixation,jsons/v1_VE250_randls_17.json,http://54.235.29.9/FacialAge/BNav_EC2/DepthDuration/v2_depth_duration_MTurk/v2_DepthDuration_HTML.html#430,430,1366,768,1366,768,8-30-2022,10-24-39,67,depth_duration_stimuli/000493_2014-06-09_21-01-18_260595134347_rgbf000196-resize_3/000493_2014-06-09_21-01-18_260595134347_rgbf000196-resize_3-target.png,250,3.44,3,3752,249,meters,jsons/v1_VE250_randls_17.json,1222658,1553135,25,Man
67,357305,DepthScenes,duration_manipulation_targetAtFixation,jsons/v1_VE250_randls_17.json,http://54.235.29.9/FacialAge/BNav_EC2/DepthDuration/v2_depth_duration_MTurk/v2_DepthDuration_HTML.html#430,430,1366,768,1366,768,8-30-2022,10-24-39,68,depth_duration_stimuli/000191_2014-05-12_17-07-38_260595134347_rgbf000199-resize_0/000191_2014-05-12_17-07-38_260595134347_rgbf000199-resize_0-target.png,250,3.7995,3,4787,250,meters,jsons/v1_VE250_randls_17.json,1222658,1553135,25,Man
68,357305,DepthScenes,duration_manipulation_targetAtFixation,jsons/v1_VE250_randls_17.json,http://54.235.29.9/FacialAge/BNav_EC2/DepthDuration/v2_depth_duration_MTurk/v2_DepthDuration_HTML.html#430,430,1366,768,1366,768,8-30-2022,10-24-39,69,depth_duration_stimuli/000758_2014-06-08_22-05-08_260595134347_rgbf000085-resize_0/000758_2014-06-08_22-05-08_260595134347_rgbf000085-resize_0-target.png,250,3.3810000000000002,2,3900,251,meters,jsons/v1_VE250_randls_17.json,1222658,1553135,25,Man
69,357305,DepthScenes,duration_manipulation_targetAtFixation,jsons/v1_VE250_randls_17.json,http://54.235.29.9/FacialAge/BNav_EC2/DepthDuration/v2_depth_duration_MTurk/v2_DepthDuration_HTML.html#430,430,1366,768,1366,768,8-30-2022,10-24-39,70,depth_duration_stimuli/000854_2014-06-09_19-43-13_260595134347_rgbf000066-resize_0/000854_2014-06-09_19-43-13_260595134347_rgbf000066-resize_0-target.png,250,3.068,2,3727,251,meters,jsons/v1_VE250_randls_17.json,1222658,1553135,25,Man
70,357305,DepthScenes,duration_manipulation_targetAtFixation,jsons/v1_VE250_randls_17.json,http://54.235.29.9/FacialAge/BNav_EC2/DepthDuration/v2_depth_duration_MTurk/v2_DepthDuration_HTML.html#430,430,1366,768,1366,768,8-30-2022,10-24-39,71,depth_duration_stimuli/001092_2014-06-15_17-34-58_260595134347_rgbf000171-resize_3/001092_2014-06-15_17-34-58_260595134347_rgbf000171-resize_3-target.png,250,2.6935,2,5206,250,meters,jsons/v1_VE250_randls_17.json,1222658,1553135,25,Man
71,357305,DepthScenes,duration_manipulation_targetAtFixation,jsons/v1_VE250_randls_17.json,http://54.235.29.9/FacialAge/BNav_EC2/DepthDuration/v2_depth_duration_MTurk/v2_DepthDuration_HTML.html#430,430,1366,768,1366,768,8-30-2022,10-24-39,72,depth_duration_stimuli/002545_2014-06-24_13-38-53_094959634447_rgbf000080-resize_4/002545_2014-06-24_13-38-53_094959634447_rgbf000080-resize_4-target.png,250,1.9205,2,3580,250,meters,jsons/v1_VE250_randls_17.json,1222658,1553135,25,Man
72,357305,DepthScenes,duration_manipulation_targetAtFixation,jsons/v1_VE250_randls_17.json,http://54.235.29.9/FacialAge/BNav_EC2/DepthDuration/v2_depth_duration_MTurk/v2_DepthDuration_HTML.html#430,430,1366,768,1366,768,8-30-2022,10-24-39,73,depth_duration_stimuli/002784_2014-06-22_19-26-30_094959634447_rgbf000083-resize_3/002784_2014-06-22_19-26-30_094959634447_rgbf000083-resize_3-target.png,250,1.8046666666667,1,3912,251,meters,jsons/v1_VE250_randls_17.json,1222658,1553135,25,Man
73,357305,DepthScenes,duration_manipulation_targetAtFixation,jsons/v1_VE250_randls_17.json,http://54.235.29.9/FacialAge/BNav_EC2/DepthDuration/v2_depth_duration_MTurk/v2_DepthDuration_HTML.html#430,430,1366,768,1366,768,8-30-2022,10-24-39,74,depth_duration_stimuli/001100_2014-06-15_17-46-26_260595134347_rgbf000225-resize_2/001100_2014-06-15_17-46-26_260595134347_rgbf000225-resize_2-target.png,250,2.24,1,3621,251,meters,jsons/v1_VE250_randls_17.json,1222658,1553135,25,Man
74,357305,DepthScenes,duration_manipulation_targetAtFixation,jsons/v1_VE250_randls_17.json,http://54.235.29.9/FacialAge/BNav_EC2/DepthDuration/v2_depth_duration_MTurk/v2_DepthDuration_HTML.html#430,430,1366,768,1366,768,8-30-2022,10-24-39,75,depth_duration_stimuli/000682_2014-06-08_23-14-58_260595134347_rgbf000041-resize_5/000682_2014-06-08_23-14-58_260595134347_rgbf000041-resize_5-target.png,250,2.7239999999999998,2,4093,249,meters,jsons/v1_VE250_randls_17.json,1222658,1553135,25,Man
75,357305,DepthScenes,duration_manipulation_targetAtFixation,jsons/v1_VE250_randls_17.json,http://54.235.29.9/FacialAge/BNav_EC2/DepthDuration/v2_depth_duration_MTurk/v2_DepthDuration_HTML.html#430,430,1366,768,1366,768,8-30-2022,10-24-39,76,depth_duration_stimuli/001650_2014-06-20_12-09-00_260595134347_rgbf000087-resize_3/001650_2014-06-20_12-09-00_260595134347_rgbf000087-resize_3-target.png,250,1.9505,1,3835,250,meters,jsons/v1_VE250_randls_17.json,1222658,1553135,25,Man
76,357305,DepthScenes,duration_manipulation_targetAtFixation,jsons/v1_VE250_randls_17.json,http://54.235.29.9/FacialAge/BNav_EC2/DepthDuration/v2_depth_duration_MTurk/v2_DepthDuration_HTML.html#430,430,1366,768,1366,768,8-30-2022,10-24-39,77,depth_duration_stimuli/001055_2014-06-08_18-45-35_260595134347_rgbf000111-resize_4/001055_2014-06-08_18-45-35_260595134347_rgbf000111-resize_4-target.png,250,2.4290000000000003,3,3833,250,meters,jsons/v1_VE250_randls_17.json,1222658,1553135,25,Man
77,357305,DepthScenes,duration_manipulation_targetAtFixation,jsons/v1_VE250_randls_17.json,http://54.235.29.9/FacialAge/BNav_EC2/DepthDuration/v2_depth_duration_MTurk/v2_DepthDuration_HTML.html#430,430,1366,768,1366,768,8-30-2022,10-24-39,78,depth_duration_stimuli/000549_2014-06-08_22-10-24_260595134347_rgbf000247-resize_3/000549_2014-06-08_22-10-24_260595134347_rgbf000247-resize_3-target.png,250,1.841,0,4398,251,meters,jsons/v1_VE250_randls_17.json,1222658,1553135,25,Man
78,357305,DepthScenes,duration_manipulation_targetAtFixation,jsons/v1_VE250_randls_17.json,http://54.235.29.9/FacialAge/BNav_EC2/DepthDuration/v2_depth_duration_MTurk/v2_DepthDuration_HTML.html#430,430,1366,768,1366,768,8-30-2022,10-24-39,79,depth_duration_stimuli/000522_2014-06-08_13-35-06_260595134347_rgbf000244-resize_1/000522_2014-06-08_13-35-06_260595134347_rgbf000244-resize_1-target.png,250,2.3715,1,3599,250,meters,jsons/v1_VE250_randls_17.json,1222658,1553135,25,Man
79,357305,DepthScenes,duration_manipulation_targetAtFixation,jsons/v1_VE250_randls_17.json,http://54.235.29.9/FacialAge/BNav_EC2/DepthDuration/v2_depth_duration_MTurk/v2_DepthDuration_HTML.html#430,430,1366,768,1366,768,8-30-2022,10-24-39,80,depth_duration_stimuli/002949_2014-06-26_15-57-42_094959634447_rgbf000079-resize_1/002949_2014-06-26_15-57-42_094959634447_rgbf000079-resize_1-target.png,250,1.8915,2,3769,249,meters,jsons/v1_VE250_randls_17.json,1222658,1553135,25,Man
80,357305,DepthScenes,duration_manipulation_targetAtFixation,jsons/v1_VE250_randls_17.json,http://54.235.29.9/FacialAge/BNav_EC2/DepthDuration/v2_depth_duration_MTurk/v2_DepthDuration_HTML.html#430,430,1366,768,1366,768,8-30-2022,10-24-39,81,depth_duration_stimuli/001066_2014-06-08_22-03-20_260595134347_rgbf000066-resize_4/001066_2014-06-08_22-03-20_260595134347_rgbf000066-resize_4-target.png,250,4.2330000000000005,2,3500,250,meters,jsons/v1_VE250_randls_17.json,1222658,1553135,25,Man
81,357305,DepthScenes,duration_manipulation_targetAtFixation,jsons/v1_VE250_randls_17.json,http://54.235.29.9/FacialAge/BNav_EC2/DepthDuration/v2_depth_duration_MTurk/v2_DepthDuration_HTML.html#430,430,1366,768,1366,768,8-30-2022,10-24-39,82,depth_duration_stimuli/000742_2014-06-08_18-48-09_260595134347_rgbf000164-resize_4/000742_2014-06-08_18-48-09_260595134347_rgbf000164-resize_4-target.png,250,4.632,2,3386,251,meters,jsons/v1_VE250_randls_17.json,1222658,1553135,25,Man
82,357305,DepthScenes,duration_manipulation_targetAtFixation,jsons/v1_VE250_randls_17.json,http://54.235.29.9/FacialAge/BNav_EC2/DepthDuration/v2_depth_duration_MTurk/v2_DepthDuration_HTML.html#430,430,1366,768,1366,768,8-30-2022,10-24-39,83,depth_duration_stimuli/000368_2014-06-09_15-53-01_260595134347_rgbf000155-resize_2/000368_2014-06-09_15-53-01_260595134347_rgbf000155-resize_2-target.png,250,2.4859999999999998,2,3633,249,meters,jsons/v1_VE250_randls_17.json,1222658,1553135,25,Man
83,357305,DepthScenes,duration_manipulation_targetAtFixation,jsons/v1_VE250_randls_17.json,http://54.235.29.9/FacialAge/BNav_EC2/DepthDuration/v2_depth_duration_MTurk/v2_DepthDuration_HTML.html#430,430,1366,768,1366,768,8-30-2022,10-24-39,84,depth_duration_stimuli/002678_2014-06-13_16-15-32_094959634447_rgbf000151-resize_6/002678_2014-06-13_16-15-32_094959634447_rgbf000151-resize_6-target.png,250,2.1830000000000003,2,4227,250,meters,jsons/v1_VE250_randls_17.json,1222658,1553135,25,Man
84,357305,DepthScenes,duration_manipulation_targetAtFixation,jsons/v1_VE250_randls_17.json,http://54.235.29.9/FacialAge/BNav_EC2/DepthDuration/v2_depth_duration_MTurk/v2_DepthDuration_HTML.html#430,430,1366,768,1366,768,8-30-2022,10-24-39,85,depth_duration_stimuli/002788_2014-06-22_19-36-03_094959634447_rgbf000088-resize_2/002788_2014-06-22_19-36-03_094959634447_rgbf000088-resize_2-target.png,250,1.6465,3,3635,251,meters,jsons/v1_VE250_randls_17.json,1222658,1553135,25,Man
85,357305,DepthScenes,duration_manipulation_targetAtFixation,jsons/v1_VE250_randls_17.json,http://54.235.29.9/FacialAge/BNav_EC2/DepthDuration/v2_depth_duration_MTurk/v2_DepthDuration_HTML.html#430,430,1366,768,1366,768,8-30-2022,10-24-39,86,depth_duration_stimuli/000749_2014-06-08_21-55-06_260595134347_rgbf000070-resize_2/000749_2014-06-08_21-55-06_260595134347_rgbf000070-resize_2-target.png,250,2.331,2,3675,251,meters,jsons/v1_VE250_randls_17.json,1222658,1553135,25,Man
86,357305,DepthScenes,duration_manipulation_targetAtFixation,jsons/v1_VE250_randls_17.json,http://54.235.29.9/FacialAge/BNav_EC2/DepthDuration/v2_depth_duration_MTurk/v2_DepthDuration_HTML.html#430,430,1366,768,1366,768,8-30-2022,10-24-39,87,depth_duration_stimuli/000917_2014-06-09_22-45-29_260595134347_rgbf000149-resize_3/000917_2014-06-09_22-45-29_260595134347_rgbf000149-resize_3-target.png,250,4.1865,3,4010,251,meters,jsons/v1_VE250_randls_17.json,1222658,1553135,25,Man
87,357305,DepthScenes,duration_manipulation_targetAtFixation,jsons/v1_VE250_randls_17.json,http://54.235.29.9/FacialAge/BNav_EC2/DepthDuration/v2_depth_duration_MTurk/v2_DepthDuration_HTML.html#430,430,1366,768,1366,768,8-30-2022,10-24-39,88,depth_duration_stimuli/002323_2014-06-28_20-01-54_260595134347_rgbf000051-resize_4/002323_2014-06-28_20-01-54_260595134347_rgbf000051-resize_4-target.png,250,3.7310000000000003,2,6882,249,meters,jsons/v1_VE250_randls_17.json,1222658,1553135,25,Man
88,357305,DepthScenes,duration_manipulation_targetAtFixation,jsons/v1_VE250_randls_17.json,http://54.235.29.9/FacialAge/BNav_EC2/DepthDuration/v2_depth_duration_MTurk/v2_DepthDuration_HTML.html#430,430,1366,768,1366,768,8-30-2022,10-24-39,89,depth_duration_stimuli/001449_2014-06-19_17-01-27_260595134347_rgbf000116-resize_2/001449_2014-06-19_17-01-27_260595134347_rgbf000116-resize_2-target.png,250,3.452,2,3810,249,meters,jsons/v1_VE250_randls_17.json,1222658,1553135,25,Man
89,357305,DepthScenes,duration_manipulation_targetAtFixation,jsons/v1_VE250_randls_17.json,http://54.235.29.9/FacialAge/BNav_EC2/DepthDuration/v2_depth_duration_MTurk/v2_DepthDuration_HTML.html#430,430,1366,768,1366,768,8-30-2022,10-24-39,90,depth_duration_stimuli/001450_2014-06-19_17-02-03_260595134347_rgbf000203-resize_4/001450_2014-06-19_17-02-03_260595134347_rgbf000203-resize_4-target.png,250,4.0106666666667,2,3972,250,meters,jsons/v1_VE250_randls_17.json,1222658,1553135,25,Man
90,357305,DepthScenes,duration_manipulation_targetAtFixation,jsons/v1_VE250_randls_17.json,http://54.235.29.9/FacialAge/BNav_EC2/DepthDuration/v2_depth_duration_MTurk/v2_DepthDuration_HTML.html#430,430,1366,768,1366,768,8-30-2022,10-24-39,91,depth_duration_stimuli/001016_2014-06-09_16-16-10_260595134347_rgbf000112-resize_5/001016_2014-06-09_16-16-10_260595134347_rgbf000112-resize_5-target.png,250,1.6565,2,3859,250,meters,jsons/v1_VE250_randls_17.json,1222658,1553135,25,Man
91,357305,DepthScenes,duration_manipulation_targetAtFixation,jsons/v1_VE250_randls_17.json,http://54.235.29.9/FacialAge/BNav_EC2/DepthDuration/v2_depth_duration_MTurk/v2_DepthDuration_HTML.html#430,430,1366,768,1366,768,8-30-2022,10-24-39,92,depth_duration_stimuli/002340_2014-06-28_20-05-46_260595134347_rgbf000113-resize_0/002340_2014-06-28_20-05-46_260595134347_rgbf000113-resize_0-target.png,250,2.4735,3,5906,249,meters,jsons/v1_VE250_randls_17.json,1222658,1553135,25,Man
92,357305,DepthScenes,duration_manipulation_targetAtFixation,jsons/v1_VE250_randls_17.json,http://54.235.29.9/FacialAge/BNav_EC2/DepthDuration/v2_depth_duration_MTurk/v2_DepthDuration_HTML.html#430,430,1366,768,1366,768,8-30-2022,10-24-39,93,depth_duration_stimuli/002630_2014-06-24_14-47-50_094959634447_rgbf000055-resize_1/002630_2014-06-24_14-47-50_094959634447_rgbf000055-resize_1-target.png,250,3.0095,3,5273,250,meters,jsons/v1_VE250_randls_17.json,1222658,1553135,25,Man
93,357305,DepthScenes,duration_manipulation_targetAtFixation,jsons/v1_VE250_randls_17.json,http://54.235.29.9/FacialAge/BNav_EC2/DepthDuration/v2_depth_duration_MTurk/v2_DepthDuration_HTML.html#430,430,1366,768,1366,768,8-30-2022,10-24-39,94,depth_duration_stimuli/002758_2014-06-22_19-11-20_094959634447_rgbf000128-resize_1/002758_2014-06-22_19-11-20_094959634447_rgbf000128-resize_1-target.png,250,2.555,2,5226,251,meters,jsons/v1_VE250_randls_17.json,1222658,1553135,25,Man
94,357305,DepthScenes,duration_manipulation_targetAtFixation,jsons/v1_VE250_randls_17.json,http://54.235.29.9/FacialAge/BNav_EC2/DepthDuration/v2_depth_duration_MTurk/v2_DepthDuration_HTML.html#430,430,1366,768,1366,768,8-30-2022,10-24-39,95,depth_duration_stimuli/002725_2014-06-22_11-47-51_094959634447_rgbf000070-resize_1/002725_2014-06-22_11-47-51_094959634447_rgbf000070-resize_1-target.png,250,2.195,3,3828,250,meters,jsons/v1_VE250_randls_17.json,1222658,1553135,25,Man
95,357305,DepthScenes,duration_manipulation_targetAtFixation,jsons/v1_VE250_randls_17.json,http://54.235.29.9/FacialAge/BNav_EC2/DepthDuration/v2_depth_duration_MTurk/v2_DepthDuration_HTML.html#430,430,1366,768,1366,768,8-30-2022,10-24-39,96,depth_duration_stimuli/002344_2014-06-28_20-06-29_260595134347_rgbf000030-resize_1/002344_2014-06-28_20-06-29_260595134347_rgbf000030-resize_1-target.png,250,1.5795,1,3842,251,meters,jsons/v1_VE250_randls_17.json,1222658,1553135,25,Man
96,357305,DepthScenes,duration_manipulation_targetAtFixation,jsons/v1_VE250_randls_17.json,http://54.235.29.9/FacialAge/BNav_EC2/DepthDuration/v2_depth_duration_MTurk/v2_DepthDuration_HTML.html#430,430,1366,768,1366,768,8-30-2022,10-24-39,97,depth_duration_stimuli/001110_2014-06-15_17-25-28_260595134347_rgbf000150-resize_1/001110_2014-06-15_17-25-28_260595134347_rgbf000150-resize_1-target.png,250,1.7115,2,4236,250,meters,jsons/v1_VE250_randls_17.json,1222658,1553135,25,Man
97,357305,DepthScenes,duration_manipulation_targetAtFixation,jsons/v1_VE250_randls_17.json,http://54.235.29.9/FacialAge/BNav_EC2/DepthDuration/v2_depth_duration_MTurk/v2_DepthDuration_HTML.html#430,430,1366,768,1366,768,8-30-2022,10-24-39,98,depth_duration_stimuli/000927_2014-06-09_16-32-30_260595134347_rgbf000123-resize_3/000927_2014-06-09_16-32-30_260595134347_rgbf000123-resize_3-target.png,250,2.6785,3,3893,250,meters,jsons/v1_VE250_randls_17.json,1222658,1553135,25,Man
98,357305,DepthScenes,duration_manipulation_targetAtFixation,jsons/v1_VE250_randls_17.json,http://54.235.29.9/FacialAge/BNav_EC2/DepthDuration/v2_depth_duration_MTurk/v2_DepthDuration_HTML.html#430,430,1366,768,1366,768,8-30-2022,10-24-39,99,depth_duration_stimuli/001540_2014-06-20_17-01-05_260595134347_rgbf000086-resize_2/001540_2014-06-20_17-01-05_260595134347_rgbf000086-resize-original.jpg,250,1.459,0,5615,249,meters,jsons/v1_VE250_randls_17.json,1222658,1553135,25,Man
99,357305,DepthScenes,duration_manipulation_targetAtFixation,jsons/v1_VE250_randls_17.json,http://54.235.29.9/FacialAge/BNav_EC2/DepthDuration/v2_depth_duration_MTurk/v2_DepthDuration_HTML.html#430,430,1366,768,1366,768,8-30-2022,10-24-39,100,depth_duration_stimuli/000414_2014-06-04_19-49-13_260595134347_rgbf000044-resize_0/000414_2014-06-04_19-49-13_260595134347_rgbf000044-resize_0-target.png,250,4.329,3,3691,251,meters,jsons/v1_VE250_randls_17.json,1222658,1553135,25,Man
100,357305,DepthScenes,duration_manipulation_targetAtFixation,jsons/v1_VE250_randls_17.json,http://54.235.29.9/FacialAge/BNav_EC2/DepthDuration/v2_depth_duration_MTurk/v2_DepthDuration_HTML.html#430,430,1366,768,1366,768,8-30-2022,10-24-39,101,depth_duration_stimuli/003129_2014-05-12_10-48-10_094959634447_rgbf000100-resize_0/003129_2014-05-12_10-48-10_094959634447_rgbf000100-resize_0-target.png,250,4.9305,3,3756,250,meters,jsons/v1_VE250_randls_17.json,1222658,1553135,25,Man
101,357305,DepthScenes,duration_manipulation_targetAtFixation,jsons/v1_VE250_randls_17.json,http://54.235.29.9/FacialAge/BNav_EC2/DepthDuration/v2_depth_duration_MTurk/v2_DepthDuration_HTML.html#430,430,1366,768,1366,768,8-30-2022,10-24-39,102,depth_duration_stimuli/002272_2014-06-28_18-53-56_260595134347_rgbf000067-resize_2/002272_2014-06-28_18-53-56_260595134347_rgbf000067-resize_2-target.png,250,1.138,1,3698,251,meters,jsons/v1_VE250_randls_17.json,1222658,1553135,25,Man
102,357305,DepthScenes,duration_manipulation_targetAtFixation,jsons/v1_VE250_randls_17.json,http://54.235.29.9/FacialAge/BNav_EC2/DepthDuration/v2_depth_duration_MTurk/v2_DepthDuration_HTML.html#430,430,1366,768,1366,768,8-30-2022,10-24-39,103,depth_duration_stimuli/001571_2014-06-20_17-21-32_260595134347_rgbf000089-resize_1/001571_2014-06-20_17-21-32_260595134347_rgbf000089-resize_1-target.png,250,1.86,2,4035,251,meters,jsons/v1_VE250_randls_17.json,1222658,1553135,25,Man
103,357305,DepthScenes,duration_manipulation_targetAtFixation,jsons/v1_VE250_randls_17.json,http://54.235.29.9/FacialAge/BNav_EC2/DepthDuration/v2_depth_duration_MTurk/v2_DepthDuration_HTML.html#430,430,1366,768,1366,768,8-30-2022,10-24-39,104,depth_duration_stimuli/001175_2014-06-17_15-45-55_260595134347_rgbf000129-resize_4/001175_2014-06-17_15-45-55_260595134347_rgbf000129-resize_4-target.png,250,4.255,3,4356,250,meters,jsons/v1_VE250_randls_17.json,1222658,1553135,25,Man
104,357305,DepthScenes,duration_manipulation_targetAtFixation,jsons/v1_VE250_randls_17.json,http://54.235.29.9/FacialAge/BNav_EC2/DepthDuration/v2_depth_duration_MTurk/v2_DepthDuration_HTML.html#430,430,1366,768,1366,768,8-30-2022,10-24-39,105,depth_duration_stimuli/003490_2014-05-21_15-50-11_094959634447_rgbf000101-resize_3/003490_2014-05-21_15-50-11_094959634447_rgbf000101-resize_3-target.png,250,3.6445,3,4627,250,meters,jsons/v1_VE250_randls_17.json,1222658,1553135,25,Man
105,357305,DepthScenes,duration_manipulation_targetAtFixation,jsons/v1_VE250_randls_17.json,http://54.235.29.9/FacialAge/BNav_EC2/DepthDuration/v2_depth_duration_MTurk/v2_DepthDuration_HTML.html#430,430,1366,768,1366,768,8-30-2022,10-24-39,106,depth_duration_stimuli/003292_2014-05-14_21-53-49_094959634447_rgbf000100-resize_2/003292_2014-05-14_21-53-49_094959634447_rgbf000100-resize_2-target.png,250,3.4815,2,3611,250,meters,jsons/v1_VE250_randls_17.json,1222658,1553135,25,Man
106,357305,DepthScenes,duration_manipulation_targetAtFixation,jsons/v1_VE250_randls_17.json,http://54.235.29.9/FacialAge/BNav_EC2/DepthDuration/v2_depth_duration_MTurk/v2_DepthDuration_HTML.html#430,430,1366,768,1366,768,8-30-2022,10-24-39,107,depth_duration_stimuli/002639_2014-06-24_14-51-37_094959634447_rgbf000074-resize_4/002639_2014-06-24_14-51-37_094959634447_rgbf000074-resize_4-target.png,250,4.0375,2,4180,250,meters,jsons/v1_VE250_randls_17.json,1222658,1553135,25,Man
107,357305,DepthScenes,duration_manipulation_targetAtFixation,jsons/v1_VE250_randls_17.json,http://54.235.29.9/FacialAge/BNav_EC2/DepthDuration/v2_depth_duration_MTurk/v2_DepthDuration_HTML.html#430,430,1366,768,1366,768,8-30-2022,10-24-39,108,depth_duration_stimuli/000810_2014-06-08_17-20-01_260595134347_rgbf000105-resize_0/000810_2014-06-08_17-20-01_260595134347_rgbf000105-resize_0-target.png,250,1.4865,2,4097,249,meters,jsons/v1_VE250_randls_17.json,1222658,1553135,25,Man
108,357305,DepthScenes,duration_manipulation_targetAtFixation,jsons/v1_VE250_randls_17.json,http://54.235.29.9/FacialAge/BNav_EC2/DepthDuration/v2_depth_duration_MTurk/v2_DepthDuration_HTML.html#430,430,1366,768,1366,768,8-30-2022,10-24-39,109,depth_duration_stimuli/001214_2014-06-17_16-13-55_260595134347_rgbf000111-resize_0/001214_2014-06-17_16-13-55_260595134347_rgbf000111-resize_0-target.png,250,2.6505,2,4253,250,meters,jsons/v1_VE250_randls_17.json,1222658,1553135,25,Man
109,357305,DepthScenes,duration_manipulation_targetAtFixation,jsons/v1_VE250_randls_17.json,http://54.235.29.9/FacialAge/BNav_EC2/DepthDuration/v2_depth_duration_MTurk/v2_DepthDuration_HTML.html#430,430,1366,768,1366,768,8-30-2022,10-24-39,110,depth_duration_stimuli/000878_2014-06-08_22-52-45_260595134347_rgbf000045-resize_2/000878_2014-06-08_22-52-45_260595134347_rgbf000045-resize_2-target.png,250,2.092,3,3952,251,meters,jsons/v1_VE250_randls_17.json,1222658,1553135,25,Man
110,357305,DepthScenes,duration_manipulation_targetAtFixation,jsons/v1_VE250_randls_17.json,http://54.235.29.9/FacialAge/BNav_EC2/DepthDuration/v2_depth_duration_MTurk/v2_DepthDuration_HTML.html#430,430,1366,768,1366,768,8-30-2022,10-24-39,111,depth_duration_stimuli/002953_2014-06-08_17-32-18_094959634447_rgbf000059-resize_5/002953_2014-06-08_17-32-18_094959634447_rgbf000059-resize_5-target.png,250,1.551,1,3867,250,meters,jsons/v1_VE250_randls_17.json,1222658,1553135,25,Man
111,357305,DepthScenes,duration_manipulation_targetAtFixation,jsons/v1_VE250_randls_17.json,http://54.235.29.9/FacialAge/BNav_EC2/DepthDuration/v2_depth_duration_MTurk/v2_DepthDuration_HTML.html#430,430,1366,768,1366,768,8-30-2022,10-24-39,112,depth_duration_stimuli/001555_2014-06-20_17-12-10_260595134347_rgbf000065-resize_4/001555_2014-06-20_17-12-10_260595134347_rgbf000065-resize_4-target.png,250,1.633,1,3884,250,meters,jsons/v1_VE250_randls_17.json,1222658,1553135,25,Man
112,357305,DepthScenes,duration_manipulation_targetAtFixation,jsons/v1_VE250_randls_17.json,http://54.235.29.9/FacialAge/BNav_EC2/DepthDuration/v2_depth_duration_MTurk/v2_DepthDuration_HTML.html#430,430,1366,768,1366,768,8-30-2022,10-24-39,113,depth_duration_stimuli/000103_2014-05-14_22-01-17_260595134347_rgbf000152-resize_5/000103_2014-05-14_22-01-17_260595134347_rgbf000152-resize_5-target.png,250,1.993,2,3878,250,meters,jsons/v1_VE250_randls_17.json,1222658,1553135,25,Man
113,357305,DepthScenes,duration_manipulation_targetAtFixation,jsons/v1_VE250_randls_17.json,http://54.235.29.9/FacialAge/BNav_EC2/DepthDuration/v2_depth_duration_MTurk/v2_DepthDuration_HTML.html#430,430,1366,768,1366,768,8-30-2022,10-24-39,114,depth_duration_stimuli/000009_2014-05-26_14-32-05_260595134347_rgbf000034-resize_3/000009_2014-05-26_14-32-05_260595134347_rgbf000034-resize_3-target.png,250,3.8715,2,4311,250,meters,jsons/v1_VE250_randls_17.json,1222658,1553135,25,Man
114,357305,DepthScenes,duration_manipulation_targetAtFixation,jsons/v1_VE250_randls_17.json,http://54.235.29.9/FacialAge/BNav_EC2/DepthDuration/v2_depth_duration_MTurk/v2_DepthDuration_HTML.html#430,430,1366,768,1366,768,8-30-2022,10-24-39,115,depth_duration_stimuli/001828_2014-06-26_21-40-03_260595134347_rgbf000024-resize_0/001828_2014-06-26_21-40-03_260595134347_rgbf000024-resize_0-target.png,250,4.8260000000000005,0,4652,249,meters,jsons/v1_VE250_randls_17.json,1222658,1553135,25,Man
115,357305,DepthScenes,duration_manipulation_targetAtFixation,jsons/v1_VE250_randls_17.json,http://54.235.29.9/FacialAge/BNav_EC2/DepthDuration/v2_depth_duration_MTurk/v2_DepthDuration_HTML.html#430,430,1366,768,1366,768,8-30-2022,10-24-39,116,depth_duration_stimuli/001170_2014-06-17_15-43-44_260595134347_rgbf000096-resize_6/001170_2014-06-17_15-43-44_260595134347_rgbf000096-resize-original.jpg,250,1.1909999999999998,0,4580,251,meters,jsons/v1_VE250_randls_17.json,1222658,1553135,25,Man
116,357305,DepthScenes,duration_manipulation_targetAtFixation,jsons/v1_VE250_randls_17.json,http://54.235.29.9/FacialAge/BNav_EC2/DepthDuration/v2_depth_duration_MTurk/v2_DepthDuration_HTML.html#430,430,1366,768,1366,768,8-30-2022,10-24-39,117,depth_duration_stimuli/002509_2014-06-24_13-19-22_094959634447_rgbf000077-resize_0/002509_2014-06-24_13-19-22_094959634447_rgbf000077-resize_0-target.png,250,1.3065,0,4945,249,meters,jsons/v1_VE250_randls_17.json,1222658,1553135,25,Man
117,357305,DepthScenes,duration_manipulation_targetAtFixation,jsons/v1_VE250_randls_17.json,http://54.235.29.9/FacialAge/BNav_EC2/DepthDuration/v2_depth_duration_MTurk/v2_DepthDuration_HTML.html#430,430,1366,768,1366,768,8-30-2022,10-24-39,118,depth_duration_stimuli/003338_2014-05-20_11-01-23_094959634447_rgbf000051-resize_6/003338_2014-05-20_11-01-23_094959634447_rgbf000051-resize_6-target.png,250,1.693,2,20027,251,meters,jsons/v1_VE250_randls_17.json,1222658,1553135,25,Man
118,357305,DepthScenes,duration_manipulation_targetAtFixation,jsons/v1_VE250_randls_17.json,http://54.235.29.9/FacialAge/BNav_EC2/DepthDuration/v2_depth_duration_MTurk/v2_DepthDuration_HTML.html#430,430,1366,768,1366,768,8-30-2022,10-24-39,119,depth_duration_stimuli/000736_2014-06-08_18-24-15_260595134347_rgbf000206-resize_3/000736_2014-06-08_18-24-15_260595134347_rgbf000206-resize_3-target.png,250,3.515,2,4811,250,meters,jsons/v1_VE250_randls_17.json,1222658,1553135,25,Man
119,357305,DepthScenes,duration_manipulation_targetAtFixation,jsons/v1_VE250_randls_17.json,http://54.235.29.9/FacialAge/BNav_EC2/DepthDuration/v2_depth_duration_MTurk/v2_DepthDuration_HTML.html#430,430,1366,768,1366,768,8-30-2022,10-24-39,120,depth_duration_stimuli/000137_2014-05-20_17-04-49_260595134347_rgbf000120-resize_1/000137_2014-05-20_17-04-49_260595134347_rgbf000120-resize_1-target.png,250,3.786,2,3970,251,meters,jsons/v1_VE250_randls_17.json,1222658,1553135,25,Man
120,357305,DepthScenes,duration_manipulation_targetAtFixation,jsons/v1_VE250_randls_17.json,http://54.235.29.9/FacialAge/BNav_EC2/DepthDuration/v2_depth_duration_MTurk/v2_DepthDuration_HTML.html#430,430,1366,768,1366,768,8-30-2022,10-24-39,121,depth_duration_stimuli/000692_2014-06-08_13-09-42_260595134347_rgbf000199-resize_2/000692_2014-06-08_13-09-42_260595134347_rgbf000199-resize_2-target.png,250,3.661,3,3995,250,meters,jsons/v1_VE250_randls_17.json,1222658,1553135,25,Man
121,357305,DepthScenes,duration_manipulation_targetAtFixation,jsons/v1_VE250_randls_17.json,http://54.235.29.9/FacialAge/BNav_EC2/DepthDuration/v2_depth_duration_MTurk/v2_DepthDuration_HTML.html#430,430,1366,768,1366,768,8-30-2022,10-24-39,122,depth_duration_stimuli/001094_2014-06-15_17-36-00_260595134347_rgbf000205-resize_0/001094_2014-06-15_17-36-00_260595134347_rgbf000205-resize_0-target.png,250,4.2175,3,3526,251,meters,jsons/v1_VE250_randls_17.json,1222658,1553135,25,Man
122,357305,DepthScenes,duration_manipulation_targetAtFixation,jsons/v1_VE250_randls_17.json,http://54.235.29.9/FacialAge/BNav_EC2/DepthDuration/v2_depth_duration_MTurk/v2_DepthDuration_HTML.html#430,430,1366,768,1366,768,8-30-2022,10-24-39,123,depth_duration_stimuli/000642_2014-06-08_16-59-25_260595134347_rgbf000098-resize_2/000642_2014-06-08_16-59-25_260595134347_rgbf000098-resize_2-target.png,250,2.8815,3,4968,251,meters,jsons/v1_VE250_randls_17.json,1222658,1553135,25,Man
123,357305,DepthScenes,duration_manipulation_targetAtFixation,jsons/v1_VE250_randls_17.json,http://54.235.29.9/FacialAge/BNav_EC2/DepthDuration/v2_depth_duration_MTurk/v2_DepthDuration_HTML.html#430,430,1366,768,1366,768,8-30-2022,10-24-39,124,depth_duration_stimuli/002425_2014-06-28_20-27-29_260595134347_rgbf000031-resize_8/002425_2014-06-28_20-27-29_260595134347_rgbf000031-resize_8-target.png,250,3.8960000000000004,3,4516,251,meters,jsons/v1_VE250_randls_17.json,1222658,1553135,25,Man
124,357305,DepthScenes,duration_manipulation_targetAtFixation,jsons/v1_VE250_randls_17.json,http://54.235.29.9/FacialAge/BNav_EC2/DepthDuration/v2_depth_duration_MTurk/v2_DepthDuration_HTML.html#430,430,1366,768,1366,768,8-30-2022,10-24-39,125,depth_duration_stimuli/001244_2014-06-17_16-47-45_260595134347_rgbf000030-resize_4/001244_2014-06-17_16-47-45_260595134347_rgbf000030-resize_4-target.png,250,2.0425,3,3939,251,meters,jsons/v1_VE250_randls_17.json,1222658,1553135,25,Man
125,357305,DepthScenes,duration_manipulation_targetAtFixation,jsons/v1_VE250_randls_17.json,http://54.235.29.9/FacialAge/BNav_EC2/DepthDuration/v2_depth_duration_MTurk/v2_DepthDuration_HTML.html#430,430,1366,768,1366,768,8-30-2022,10-24-39,126,depth_duration_stimuli/003495_2014-05-21_16-01-51_094959634447_rgbf000100-resize_3/003495_2014-05-21_16-01-51_094959634447_rgbf000100-resize_3-target.png,250,1.6255,2,5204,250,meters,jsons/v1_VE250_randls_17.json,1222658,1553135,25,Man
126,357305,DepthScenes,duration_manipulation_targetAtFixation,jsons/v1_VE250_randls_17.json,http://54.235.29.9/FacialAge/BNav_EC2/DepthDuration/v2_depth_duration_MTurk/v2_DepthDuration_HTML.html#430,430,1366,768,1366,768,8-30-2022,10-24-39,127,depth_duration_stimuli/002570_2014-06-24_13-59-54_094959634447_rgbf000059-resize_0/002570_2014-06-24_13-59-54_094959634447_rgbf000059-resize_0-target.png,250,4.037,2,6035,251,meters,jsons/v1_VE250_randls_17.json,1222658,1553135,25,Man
127,357305,DepthScenes,duration_manipulation_targetAtFixation,jsons/v1_VE250_randls_17.json,http://54.235.29.9/FacialAge/BNav_EC2/DepthDuration/v2_depth_duration_MTurk/v2_DepthDuration_HTML.html#430,430,1366,768,1366,768,8-30-2022,10-24-39,128,depth_duration_stimuli/002467_2014-06-28_20-38-07_260595134347_rgbf000026-resize_2/002467_2014-06-28_20-38-07_260595134347_rgbf000026-resize_2-target.png,250,4.742,2,4251,250,meters,jsons/v1_VE250_randls_17.json,1222658,1553135,25,Man
128,357305,DepthScenes,duration_manipulation_targetAtFixation,jsons/v1_VE250_randls_17.json,http://54.235.29.9/FacialAge/BNav_EC2/DepthDuration/v2_depth_duration_MTurk/v2_DepthDuration_HTML.html#430,430,1366,768,1366,768,8-30-2022,10-24-39,129,depth_duration_stimuli/000929_2014-06-09_16-33-19_260595134347_rgbf000139-resize_0/000929_2014-06-09_16-33-19_260595134347_rgbf000139-resize_0-target.png,250,2.8680000000000003,2,4776,248,meters,jsons/v1_VE250_randls_17.json,1222658,1553135,25,Man
129,357305,DepthScenes,duration_manipulation_targetAtFixation,jsons/v1_VE250_randls_17.json,http://54.235.29.9/FacialAge/BNav_EC2/DepthDuration/v2_depth_duration_MTurk/v2_DepthDuration_HTML.html#430,430,1366,768,1366,768,8-30-2022,10-24-39,130,depth_duration_stimuli/000457_2014-06-08_16-52-43_260595134347_rgbf000199-resize_1/000457_2014-06-08_16-52-43_260595134347_rgbf000199-resize_1-target.png,250,3.6489999999999996,3,4452,251,meters,jsons/v1_VE250_randls_17.json,1222658,1553135,25,Man
130,357305,DepthScenes,duration_manipulation_targetAtFixation,jsons/v1_VE250_randls_17.json,http://54.235.29.9/FacialAge/BNav_EC2/DepthDuration/v2_depth_duration_MTurk/v2_DepthDuration_HTML.html#430,430,1366,768,1366,768,8-30-2022,10-24-39,131,depth_duration_stimuli/001570_2014-06-20_17-21-09_260595134347_rgbf000135-resize_4/001570_2014-06-20_17-21-09_260595134347_rgbf000135-resize_4-target.png,250,4.467,3,4590,251,meters,jsons/v1_VE250_randls_17.json,1222658,1553135,25,Man
131,357305,DepthScenes,duration_manipulation_targetAtFixation,jsons/v1_VE250_randls_17.json,http://54.235.29.9/FacialAge/BNav_EC2/DepthDuration/v2_depth_duration_MTurk/v2_DepthDuration_HTML.html#430,430,1366,768,1366,768,8-30-2022,10-24-39,132,depth_duration_stimuli/001392_2014-06-19_16-07-59_260595134347_rgbf000046-resize_1/001392_2014-06-19_16-07-59_260595134347_rgbf000046-resize_1-target.png,250,4.135,3,4200,250,meters,jsons/v1_VE250_randls_17.json,1222658,1553135,25,Man
132,357305,DepthScenes,duration_manipulation_targetAtFixation,jsons/v1_VE250_randls_17.json,http://54.235.29.9/FacialAge/BNav_EC2/DepthDuration/v2_depth_duration_MTurk/v2_DepthDuration_HTML.html#430,430,1366,768,1366,768,8-30-2022,10-24-39,133,depth_duration_stimuli/001808_2014-06-26_20-50-58_260595134347_rgbf000029-resize_1/001808_2014-06-26_20-50-58_260595134347_rgbf000029-resize_1-target.png,250,4.249,3,3842,250,meters,jsons/v1_VE250_randls_17.json,1222658,1553135,25,Man
133,357305,DepthScenes,duration_manipulation_targetAtFixation,jsons/v1_VE250_randls_17.json,http://54.235.29.9/FacialAge/BNav_EC2/DepthDuration/v2_depth_duration_MTurk/v2_DepthDuration_HTML.html#430,430,1366,768,1366,768,8-30-2022,10-24-39,134,depth_duration_stimuli/001815_2014-06-26_20-52-55_260595134347_rgbf000020-resize_0/001815_2014-06-26_20-52-55_260595134347_rgbf000020-resize_0-target.png,250,3.3865,3,5987,251,meters,jsons/v1_VE250_randls_17.json,1222658,1553135,25,Man
134,357305,DepthScenes,duration_manipulation_targetAtFixation,jsons/v1_VE250_randls_17.json,http://54.235.29.9/FacialAge/BNav_EC2/DepthDuration/v2_depth_duration_MTurk/v2_DepthDuration_HTML.html#430,430,1366,768,1366,768,8-30-2022,10-24-39,135,depth_duration_stimuli/002072_2014-06-24_21-48-06_260595134347_rgbf000115-resize_0/002072_2014-06-24_21-48-06_260595134347_rgbf000115-resize-original.jpg,250,4.702,0,4203,251,meters,jsons/v1_VE250_randls_17.json,1222658,1553135,25,Man
135,357305,DepthScenes,duration_manipulation_targetAtFixation,jsons/v1_VE250_randls_17.json,http://54.235.29.9/FacialAge/BNav_EC2/DepthDuration/v2_depth_duration_MTurk/v2_DepthDuration_HTML.html#430,430,1366,768,1366,768,8-30-2022,10-24-39,136,depth_duration_stimuli/002763_2014-06-22_19-13-10_094959634447_rgbf000075-resize_4/002763_2014-06-22_19-13-10_094959634447_rgbf000075-resize_4-target.png,250,1.68375,2,4280,249,meters,jsons/v1_VE250_randls_17.json,1222658,1553135,25,Man
136,357305,DepthScenes,duration_manipulation_targetAtFixation,jsons/v1_VE250_randls_17.json,http://54.235.29.9/FacialAge/BNav_EC2/DepthDuration/v2_depth_duration_MTurk/v2_DepthDuration_HTML.html#430,430,1366,768,1366,768,8-30-2022,10-24-39,137,depth_duration_stimuli/002209_2014-06-28_18-36-10_260595134347_rgbf000051-resize_1/002209_2014-06-28_18-36-10_260595134347_rgbf000051-resize_1-target.png,250,2.057,3,5236,250,meters,jsons/v1_VE250_randls_17.json,1222658,1553135,25,Man
137,357305,DepthScenes,duration_manipulation_targetAtFixation,jsons/v1_VE250_randls_17.json,http://54.235.29.9/FacialAge/BNav_EC2/DepthDuration/v2_depth_duration_MTurk/v2_DepthDuration_HTML.html#430,430,1366,768,1366,768,8-30-2022,10-24-39,138,depth_duration_stimuli/000447_2014-06-08_16-15-46_260595134347_rgbf000130-resize_1/000447_2014-06-08_16-15-46_260595134347_rgbf000130-resize_1-target.png,250,4.479,3,5395,251,meters,jsons/v1_VE250_randls_17.json,1222658,1553135,25,Man
138,357305,DepthScenes,duration_manipulation_targetAtFixation,jsons/v1_VE250_randls_17.json,http://54.235.29.9/FacialAge/BNav_EC2/DepthDuration/v2_depth_duration_MTurk/v2_DepthDuration_HTML.html#430,430,1366,768,1366,768,8-30-2022,10-24-39,139,depth_duration_stimuli/001447_2014-06-19_17-00-32_260595134347_rgbf000082-resize_5/001447_2014-06-19_17-00-32_260595134347_rgbf000082-resize_5-target.png,250,4.13775,2,3939,250,meters,jsons/v1_VE250_randls_17.json,1222658,1553135,25,Man
139,357305,DepthScenes,duration_manipulation_targetAtFixation,jsons/v1_VE250_randls_17.json,http://54.235.29.9/FacialAge/BNav_EC2/DepthDuration/v2_depth_duration_MTurk/v2_DepthDuration_HTML.html#430,430,1366,768,1366,768,8-30-2022,10-24-39,140,depth_duration_stimuli/002279_2014-06-28_18-55-32_260595134347_rgbf000040-resize_5/002279_2014-06-28_18-55-32_260595134347_rgbf000040-resize_5-target.png,250,1.5043333333333,1,3803,249,meters,jsons/v1_VE250_randls_17.json,1222658,1553135,25,Man
140,357305,DepthScenes,duration_manipulation_targetAtFixation,jsons/v1_VE250_randls_17.json,http://54.235.29.9/FacialAge/BNav_EC2/DepthDuration/v2_depth_duration_MTurk/v2_DepthDuration_HTML.html#430,430,1366,768,1366,768,8-30-2022,10-24-39,141,depth_duration_stimuli/000635_2014-06-08_16-38-42_260595134347_rgbf000106-resize_1/000635_2014-06-08_16-38-42_260595134347_rgbf000106-resize_1-target.png,250,2.074,2,4201,249,meters,jsons/v1_VE250_randls_17.json,1222658,1553135,25,Man
141,357305,DepthScenes,duration_manipulation_targetAtFixation,jsons/v1_VE250_randls_17.json,http://54.235.29.9/FacialAge/BNav_EC2/DepthDuration/v2_depth_duration_MTurk/v2_DepthDuration_HTML.html#430,430,1366,768,1366,768,8-30-2022,10-24-39,142,depth_duration_stimuli/000469_2014-06-09_19-42-10_260595134347_rgbf000081-resize_1/000469_2014-06-09_19-42-10_260595134347_rgbf000081-resize_1-target.png,250,1.652,2,4077,251,meters,jsons/v1_VE250_randls_17.json,1222658,1553135,25,Man
142,357305,DepthScenes,duration_manipulation_targetAtFixation,jsons/v1_VE250_randls_17.json,http://54.235.29.9/FacialAge/BNav_EC2/DepthDuration/v2_depth_duration_MTurk/v2_DepthDuration_HTML.html#430,430,1366,768,1366,768,8-30-2022,10-24-39,143,depth_duration_stimuli/000483_2014-06-09_20-41-45_260595134347_rgbf000116-resize_4/000483_2014-06-09_20-41-45_260595134347_rgbf000116-resize_4-target.png,250,1.337,1,5075,251,meters,jsons/v1_VE250_randls_17.json,1222658,1553135,25,Man
143,357305,DepthScenes,duration_manipulation_targetAtFixation,jsons/v1_VE250_randls_17.json,http://54.235.29.9/FacialAge/BNav_EC2/DepthDuration/v2_depth_duration_MTurk/v2_DepthDuration_HTML.html#430,430,1366,768,1366,768,8-30-2022,10-24-39,144,depth_duration_stimuli/000773_2014-06-08_22-24-54_260595134347_rgbf000093-resize_1/000773_2014-06-08_22-24-54_260595134347_rgbf000093-resize_1-target.png,250,4.973,3,6178,250,meters,jsons/v1_VE250_randls_17.json,1222658,1553135,25,Man
144,357305,DepthScenes,duration_manipulation_targetAtFixation,jsons/v1_VE250_randls_17.json,http://54.235.29.9/FacialAge/BNav_EC2/DepthDuration/v2_depth_duration_MTurk/v2_DepthDuration_HTML.html#430,430,1366,768,1366,768,8-30-2022,10-24-39,145,depth_duration_stimuli/002414_2014-06-28_20-24-58_260595134347_rgbf000067-resize_4/002414_2014-06-28_20-24-58_260595134347_rgbf000067-resize_4-target.png,250,4.363,3,4131,250,meters,jsons/v1_VE250_randls_17.json,1222658,1553135,25,Man
145,357305,DepthScenes,duration_manipulation_targetAtFixation,jsons/v1_VE250_randls_17.json,http://54.235.29.9/FacialAge/BNav_EC2/DepthDuration/v2_depth_duration_MTurk/v2_DepthDuration_HTML.html#430,430,1366,768,1366,768,8-30-2022,10-24-39,146,depth_duration_stimuli/001498_2014-06-19_17-45-14_260595134347_rgbf000129-resize_4/001498_2014-06-19_17-45-14_260595134347_rgbf000129-resize-original.jpg,250,1.4075,0,4180,251,meters,jsons/v1_VE250_randls_17.json,1222658,1553135,25,Man
146,357305,DepthScenes,duration_manipulation_targetAtFixation,jsons/v1_VE250_randls_17.json,http://54.235.29.9/FacialAge/BNav_EC2/DepthDuration/v2_depth_duration_MTurk/v2_DepthDuration_HTML.html#430,430,1366,768,1366,768,8-30-2022,10-24-39,147,depth_duration_stimuli/001810_2014-06-26_20-51-35_260595134347_rgbf000040-resize_3/001810_2014-06-26_20-51-35_260595134347_rgbf000040-resize_3-target.png,250,2.2525,2,3780,250,meters,jsons/v1_VE250_randls_17.json,1222658,1553135,25,Man
147,357305,DepthScenes,duration_manipulation_targetAtFixation,jsons/v1_VE250_randls_17.json,http://54.235.29.9/FacialAge/BNav_EC2/DepthDuration/v2_depth_duration_MTurk/v2_DepthDuration_HTML.html#430,430,1366,768,1366,768,8-30-2022,10-24-39,148,depth_duration_stimuli/003010_2014-06-15_12-54-35_094959634447_rgbf000112-resize_0/003010_2014-06-15_12-54-35_094959634447_rgbf000112-resize_0-target.png,250,3.1185,4,4891,251,meters,jsons/v1_VE250_randls_17.json,1222658,1553135,25,Man
148,357305,DepthScenes,duration_manipulation_targetAtFixation,jsons/v1_VE250_randls_17.json,http://54.235.29.9/FacialAge/BNav_EC2/DepthDuration/v2_depth_duration_MTurk/v2_DepthDuration_HTML.html#430,430,1366,768,1366,768,8-30-2022,10-24-39,149,depth_duration_stimuli/000436_2014-06-09_22-25-11_260595134347_rgbf000137-resize_1/000436_2014-06-09_22-25-11_260595134347_rgbf000137-resize_1-target.png,250,4.0705,4,3984,250,meters,jsons/v1_VE250_randls_17.json,1222658,1553135,25,Man
149,357305,DepthScenes,duration_manipulation_targetAtFixation,jsons/v1_VE250_randls_17.json,http://54.235.29.9/FacialAge/BNav_EC2/DepthDuration/v2_depth_duration_MTurk/v2_DepthDuration_HTML.html#430,430,1366,768,1366,768,8-30-2022,10-24-39,150,depth_duration_stimuli/002444_2014-06-28_20-32-08_260595134347_rgbf000027-resize_0/002444_2014-06-28_20-32-08_260595134347_rgbf000027-resize_0-target.png,250,4.388999999999999,3,3819,251,meters,jsons/v1_VE250_randls_17.json,1222658,1553135,25,Man
150,357305,DepthScenes,duration_manipulation_targetAtFixation,jsons/v1_VE250_randls_17.json,http://54.235.29.9/FacialAge/BNav_EC2/DepthDuration/v2_depth_duration_MTurk/v2_DepthDuration_HTML.html#430,430,1366,768,1366,768,8-30-2022,10-24-39,151,depth_duration_stimuli/002213_2014-06-28_18-37-58_260595134347_rgbf000055-resize_1/002213_2014-06-28_18-37-58_260595134347_rgbf000055-resize_1-target.png,250,3.62,4,3915,250,meters,jsons/v1_VE250_randls_17.json,1222658,1553135,25,Man
151,357305,DepthScenes,duration_manipulation_targetAtFixation,jsons/v1_VE250_randls_17.json,http://54.235.29.9/FacialAge/BNav_EC2/DepthDuration/v2_depth_duration_MTurk/v2_DepthDuration_HTML.html#430,430,1366,768,1366,768,8-30-2022,10-24-39,152,depth_duration_stimuli/000691_2014-06-08_13-08-50_260595134347_rgbf000132-resize_3/000691_2014-06-08_13-08-50_260595134347_rgbf000132-resize_3-target.png,250,4.1530000000000005,3,5079,251,meters,jsons/v1_VE250_randls_17.json,1222658,1553135,25,Man
152,357305,DepthScenes,duration_manipulation_targetAtFixation,jsons/v1_VE250_randls_17.json,http://54.235.29.9/FacialAge/BNav_EC2/DepthDuration/v2_depth_duration_MTurk/v2_DepthDuration_HTML.html#430,430,1366,768,1366,768,8-30-2022,10-24-39,153,depth_duration_stimuli/001417_2014-06-19_16-25-36_260595134347_rgbf000115-resize_5/001417_2014-06-19_16-25-36_260595134347_rgbf000115-resize_5-target.png,250,4.6255,3,4468,251,meters,jsons/v1_VE250_randls_17.json,1222658,1553135,25,Man
153,357305,DepthScenes,duration_manipulation_targetAtFixation,jsons/v1_VE250_randls_17.json,http://54.235.29.9/FacialAge/BNav_EC2/DepthDuration/v2_depth_duration_MTurk/v2_DepthDuration_HTML.html#430,430,1366,768,1366,768,8-30-2022,10-24-39,154,depth_duration_stimuli/003081_2014-06-15_15-19-16_094959634447_rgbf000150-resize_1/003081_2014-06-15_15-19-16_094959634447_rgbf000150-resize_1-target.png,250,3.9125,2,4271,250,meters,jsons/v1_VE250_randls_17.json,1222658,1553135,25,Man
154,357305,DepthScenes,duration_manipulation_targetAtFixation,jsons/v1_VE250_randls_17.json,http://54.235.29.9/FacialAge/BNav_EC2/DepthDuration/v2_depth_duration_MTurk/v2_DepthDuration_HTML.html#430,430,1366,768,1366,768,8-30-2022,10-24-39,155,depth_duration_stimuli/003492_2014-05-21_15-50-55_094959634447_rgbf000828-resize_1/003492_2014-05-21_15-50-55_094959634447_rgbf000828-resize_1-target.png,250,4.06875,4,4579,251,meters,jsons/v1_VE250_randls_17.json,1222658,1553135,25,Man
155,357305,DepthScenes,duration_manipulation_targetAtFixation,jsons/v1_VE250_randls_17.json,http://54.235.29.9/FacialAge/BNav_EC2/DepthDuration/v2_depth_duration_MTurk/v2_DepthDuration_HTML.html#430,430,1366,768,1366,768,8-30-2022,10-24-39,156,depth_duration_stimuli/002568_2014-06-24_13-59-21_094959634447_rgbf000062-resize_4/002568_2014-06-24_13-59-21_094959634447_rgbf000062-resize_4-target.png,250,3.015,3,4019,250,meters,jsons/v1_VE250_randls_17.json,1222658,1553135,25,Man
156,357305,DepthScenes,duration_manipulation_targetAtFixation,jsons/v1_VE250_randls_17.json,http://54.235.29.9/FacialAge/BNav_EC2/DepthDuration/v2_depth_duration_MTurk/v2_DepthDuration_HTML.html#430,430,1366,768,1366,768,8-30-2022,10-24-39,157,depth_duration_stimuli/000739_2014-06-08_18-45-58_260595134347_rgbf000068-resize_1/000739_2014-06-08_18-45-58_260595134347_rgbf000068-resize_1-target.png,250,3.534,2,4555,251,meters,jsons/v1_VE250_randls_17.json,1222658,1553135,25,Man
157,357305,DepthScenes,duration_manipulation_targetAtFixation,jsons/v1_VE250_randls_17.json,http://54.235.29.9/FacialAge/BNav_EC2/DepthDuration/v2_depth_duration_MTurk/v2_DepthDuration_HTML.html#430,430,1366,768,1366,768,8-30-2022,10-24-39,158,depth_duration_stimuli/000734_2014-06-08_17-39-11_260595134347_rgbf000128-resize_2/000734_2014-06-08_17-39-11_260595134347_rgbf000128-resize_2-target.png,250,4.098,2,3643,251,meters,jsons/v1_VE250_randls_17.json,1222658,1553135,25,Man
158,357305,DepthScenes,duration_manipulation_targetAtFixation,jsons/v1_VE250_randls_17.json,http://54.235.29.9/FacialAge/BNav_EC2/DepthDuration/v2_depth_duration_MTurk/v2_DepthDuration_HTML.html#430,430,1366,768,1366,768,8-30-2022,10-24-39,159,depth_duration_stimuli/003070_2014-06-15_14-58-27_094959634447_rgbf000150-resize_3/003070_2014-06-15_14-58-27_094959634447_rgbf000150-resize_3-target.png,250,2.9415,2,4012,250,meters,jsons/v1_VE250_randls_17.json,1222658,1553135,25,Man
159,357305,DepthScenes,duration_manipulation_targetAtFixation,jsons/v1_VE250_randls_17.json,http://54.235.29.9/FacialAge/BNav_EC2/DepthDuration/v2_depth_duration_MTurk/v2_DepthDuration_HTML.html#430,430,1366,768,1366,768,8-30-2022,10-24-39,160,depth_duration_stimuli/000943_2014-06-09_19-31-07_260595134347_rgbf000128-resize_1/000943_2014-06-09_19-31-07_260595134347_rgbf000128-resize_1-target.png,250,1.9765,2,4795,251,meters,jsons/v1_VE250_randls_17.json,1222658,1553135,25,Man
160,357305,DepthScenes,duration_manipulation_targetAtFixation,jsons/v1_VE250_randls_17.json,http://54.235.29.9/FacialAge/BNav_EC2/DepthDuration/v2_depth_duration_MTurk/v2_DepthDuration_HTML.html#430,430,1366,768,1366,768,8-30-2022,10-24-39,161,depth_duration_stimuli/002748_2014-06-22_19-07-22_094959634447_rgbf000078-resize_1/002748_2014-06-22_19-07-22_094959634447_rgbf000078-resize_1-target.png,250,4.6705,3,3619,251,meters,jsons/v1_VE250_randls_17.json,1222658,1553135,25,Man
161,357305,DepthScenes,duration_manipulation_targetAtFixation,jsons/v1_VE250_randls_17.json,http://54.235.29.9/FacialAge/BNav_EC2/DepthDuration/v2_depth_duration_MTurk/v2_DepthDuration_HTML.html#430,430,1366,768,1366,768,8-30-2022,10-24-39,162,depth_duration_stimuli/002995_2014-06-15_12-31-26_094959634447_rgbf000150-resize_1/002995_2014-06-15_12-31-26_094959634447_rgbf000150-resize_1-target.png,250,3.8360000000000003,2,3431,250,meters,jsons/v1_VE250_randls_17.json,1222658,1553135,25,Man
162,357305,DepthScenes,duration_manipulation_targetAtFixation,jsons/v1_VE250_randls_17.json,http://54.235.29.9/FacialAge/BNav_EC2/DepthDuration/v2_depth_duration_MTurk/v2_DepthDuration_HTML.html#430,430,1366,768,1366,768,8-30-2022,10-24-39,163,depth_duration_stimuli/001011_2014-06-08_23-18-54_260595134347_rgbf000044-resize_4/001011_2014-06-08_23-18-54_260595134347_rgbf000044-resize_4-target.png,250,2.4730000000000003,2,3546,250,meters,jsons/v1_VE250_randls_17.json,1222658,1553135,25,Man
163,357305,DepthScenes,duration_manipulation_targetAtFixation,jsons/v1_VE250_randls_17.json,http://54.235.29.9/FacialAge/BNav_EC2/DepthDuration/v2_depth_duration_MTurk/v2_DepthDuration_HTML.html#430,430,1366,768,1366,768,8-30-2022,10-24-39,164,depth_duration_stimuli/002875_2014-06-01_15-19-00_094959634447_rgbf000151-resize_1/002875_2014-06-01_15-19-00_094959634447_rgbf000151-resize_1-target.png,250,1.9675,3,3689,251,meters,jsons/v1_VE250_randls_17.json,1222658,1553135,25,Man
