,subjID,experimentName,versionName,sequenceName,url,selected_row,windowWidth,windowHeight,screenWidth,screenHeight,startDate,startTime,trial,stimulus,duration,actual_depth,depth_estimate,trial_RT,log_sceneDuration,unitSelection,seq_filepath,experimentTime,totalTime,age,gender
0,357674,DepthScenes,duration_manipulation_targetAtFixation,jsons/VE125_randls_67.json,http://54.235.29.9/FacialAge/BNav_EC2/DepthDuration/v2_depth_duration_MTurk/v2_DepthDuration_HTML.html#350,350,1280,720,1280,720,8-29-2022,11-25-29,1,depth_duration_stimuli/000906_2014-06-08_13-35-43_260595134347_rgbf000155-resize_1/000906_2014-06-08_13-35-43_260595134347_rgbf000155-resize_1-target.png,125,2.8489999999999998,2.5,4731,130,feet,jsons/VE125_randls_67.json,689059,911773,55,Woman
1,357674,DepthScenes,duration_manipulation_targetAtFixation,jsons/VE125_randls_67.json,http://54.235.29.9/FacialAge/BNav_EC2/DepthDuration/v2_depth_duration_MTurk/v2_DepthDuration_HTML.html#350,350,1280,720,1280,720,8-29-2022,11-25-29,2,depth_duration_stimuli/002805_2014-06-22_19-54-03_094959634447_rgbf000079-resize_1/002805_2014-06-22_19-54-03_094959634447_rgbf000079-resize_1-target.png,125,3.1439999999999997,2.6,6119,199,feet,jsons/VE125_randls_67.json,689059,911773,55,Woman
2,357674,DepthScenes,duration_manipulation_targetAtFixation,jsons/VE125_randls_67.json,http://54.235.29.9/FacialAge/BNav_EC2/DepthDuration/v2_depth_duration_MTurk/v2_DepthDuration_HTML.html#350,350,1280,720,1280,720,8-29-2022,11-25-29,3,depth_duration_stimuli/002725_2014-06-22_11-47-51_094959634447_rgbf000070-resize_1/002725_2014-06-22_11-47-51_094959634447_rgbf000070-resize_1-target.png,125,2.195,2.0,3166,124,feet,jsons/VE125_randls_67.json,689059,911773,55,Woman
3,357674,DepthScenes,duration_manipulation_targetAtFixation,jsons/VE125_randls_67.json,http://54.235.29.9/FacialAge/BNav_EC2/DepthDuration/v2_depth_duration_MTurk/v2_DepthDuration_HTML.html#350,350,1280,720,1280,720,8-29-2022,11-25-29,4,depth_duration_stimuli/002344_2014-06-28_20-06-29_260595134347_rgbf000030-resize_1/002344_2014-06-28_20-06-29_260595134347_rgbf000030-resize_1-target.png,125,1.5795,1.5,4087,47,feet,jsons/VE125_randls_67.json,689059,911773,55,Woman
4,357674,DepthScenes,duration_manipulation_targetAtFixation,jsons/VE125_randls_67.json,http://54.235.29.9/FacialAge/BNav_EC2/DepthDuration/v2_depth_duration_MTurk/v2_DepthDuration_HTML.html#350,350,1280,720,1280,720,8-29-2022,11-25-29,5,depth_duration_stimuli/002570_2014-06-24_13-59-54_094959634447_rgbf000059-resize_0/002570_2014-06-24_13-59-54_094959634447_rgbf000059-resize_0-target.png,125,4.037,1.0,3448,140,feet,jsons/VE125_randls_67.json,689059,911773,55,Woman
5,357674,DepthScenes,duration_manipulation_targetAtFixation,jsons/VE125_randls_67.json,http://54.235.29.9/FacialAge/BNav_EC2/DepthDuration/v2_depth_duration_MTurk/v2_DepthDuration_HTML.html#350,350,1280,720,1280,720,8-29-2022,11-25-29,6,depth_duration_stimuli/002467_2014-06-28_20-38-07_260595134347_rgbf000026-resize_2/002467_2014-06-28_20-38-07_260595134347_rgbf000026-resize_2-target.png,125,4.742,3.0,3443,121,feet,jsons/VE125_randls_67.json,689059,911773,55,Woman
6,357674,DepthScenes,duration_manipulation_targetAtFixation,jsons/VE125_randls_67.json,http://54.235.29.9/FacialAge/BNav_EC2/DepthDuration/v2_depth_duration_MTurk/v2_DepthDuration_HTML.html#350,350,1280,720,1280,720,8-29-2022,11-25-29,7,depth_duration_stimuli/000447_2014-06-08_16-15-46_260595134347_rgbf000130-resize_1/000447_2014-06-08_16-15-46_260595134347_rgbf000130-resize_1-target.png,125,4.479,4.5,5347,97,feet,jsons/VE125_randls_67.json,689059,911773,55,Woman
7,357674,DepthScenes,duration_manipulation_targetAtFixation,jsons/VE125_randls_67.json,http://54.235.29.9/FacialAge/BNav_EC2/DepthDuration/v2_depth_duration_MTurk/v2_DepthDuration_HTML.html#350,350,1280,720,1280,720,8-29-2022,11-25-29,8,depth_duration_stimuli/001447_2014-06-19_17-00-32_260595134347_rgbf000082-resize_5/001447_2014-06-19_17-00-32_260595134347_rgbf000082-resize_5-target.png,125,4.13775,3.0,3224,25,feet,jsons/VE125_randls_67.json,689059,911773,55,Woman
8,357674,DepthScenes,duration_manipulation_targetAtFixation,jsons/VE125_randls_67.json,http://54.235.29.9/FacialAge/BNav_EC2/DepthDuration/v2_depth_duration_MTurk/v2_DepthDuration_HTML.html#350,350,1280,720,1280,720,8-29-2022,11-25-29,9,depth_duration_stimuli/001164_2014-06-17_15-35-46_260595134347_rgbf000085-resize_3/001164_2014-06-17_15-35-46_260595134347_rgbf000085-resize_3-target.png,125,2.354,4.5,4283,125,feet,jsons/VE125_randls_67.json,689059,911773,55,Woman
9,357674,DepthScenes,duration_manipulation_targetAtFixation,jsons/VE125_randls_67.json,http://54.235.29.9/FacialAge/BNav_EC2/DepthDuration/v2_depth_duration_MTurk/v2_DepthDuration_HTML.html#350,350,1280,720,1280,720,8-29-2022,11-25-29,10,depth_duration_stimuli/001136_2014-06-17_15-19-41_260595134347_rgbf000076-resize_3/001136_2014-06-17_15-19-41_260595134347_rgbf000076-resize_3-target.png,125,1.8655,5.0,3068,124,feet,jsons/VE125_randls_67.json,689059,911773,55,Woman
10,357674,DepthScenes,duration_manipulation_targetAtFixation,jsons/VE125_randls_67.json,http://54.235.29.9/FacialAge/BNav_EC2/DepthDuration/v2_depth_duration_MTurk/v2_DepthDuration_HTML.html#350,350,1280,720,1280,720,8-29-2022,11-25-29,11,depth_duration_stimuli/001066_2014-06-08_22-03-20_260595134347_rgbf000066-resize_4/001066_2014-06-08_22-03-20_260595134347_rgbf000066-resize_4-target.png,125,4.2330000000000005,5.0,3762,123,feet,jsons/VE125_randls_67.json,689059,911773,55,Woman
11,357674,DepthScenes,duration_manipulation_targetAtFixation,jsons/VE125_randls_67.json,http://54.235.29.9/FacialAge/BNav_EC2/DepthDuration/v2_depth_duration_MTurk/v2_DepthDuration_HTML.html#350,350,1280,720,1280,720,8-29-2022,11-25-29,12,depth_duration_stimuli/000742_2014-06-08_18-48-09_260595134347_rgbf000164-resize_4/000742_2014-06-08_18-48-09_260595134347_rgbf000164-resize_4-target.png,125,4.632,4.5,3684,124,feet,jsons/VE125_randls_67.json,689059,911773,55,Woman
12,357674,DepthScenes,duration_manipulation_targetAtFixation,jsons/VE125_randls_67.json,http://54.235.29.9/FacialAge/BNav_EC2/DepthDuration/v2_depth_duration_MTurk/v2_DepthDuration_HTML.html#350,350,1280,720,1280,720,8-29-2022,11-25-29,13,depth_duration_stimuli/000569_2014-06-09_22-51-47_260595134347_rgbf000141-resize_3/000569_2014-06-09_22-51-47_260595134347_rgbf000141-resize-original.jpg,125,4.512,0.0,3558,202,feet,jsons/VE125_randls_67.json,689059,911773,55,Woman
13,357674,DepthScenes,duration_manipulation_targetAtFixation,jsons/VE125_randls_67.json,http://54.235.29.9/FacialAge/BNav_EC2/DepthDuration/v2_depth_duration_MTurk/v2_DepthDuration_HTML.html#350,350,1280,720,1280,720,8-29-2022,11-25-29,14,depth_duration_stimuli/001056_2014-06-08_18-46-44_260595134347_rgbf000068-resize_0/001056_2014-06-08_18-46-44_260595134347_rgbf000068-resize_0-target.png,125,2.6625,3.0,3875,219,feet,jsons/VE125_randls_67.json,689059,911773,55,Woman
14,357674,DepthScenes,duration_manipulation_targetAtFixation,jsons/VE125_randls_67.json,http://54.235.29.9/FacialAge/BNav_EC2/DepthDuration/v2_depth_duration_MTurk/v2_DepthDuration_HTML.html#350,350,1280,720,1280,720,8-29-2022,11-25-29,15,depth_duration_stimuli/002199_2014-06-28_18-33-56_260595134347_rgbf000074-resize_0/002199_2014-06-28_18-33-56_260595134347_rgbf000074-resize_0-target.png,125,1.996,2.0,2957,54,feet,jsons/VE125_randls_67.json,689059,911773,55,Woman
15,357674,DepthScenes,duration_manipulation_targetAtFixation,jsons/VE125_randls_67.json,http://54.235.29.9/FacialAge/BNav_EC2/DepthDuration/v2_depth_duration_MTurk/v2_DepthDuration_HTML.html#350,350,1280,720,1280,720,8-29-2022,11-25-29,16,depth_duration_stimuli/000493_2014-06-09_21-01-18_260595134347_rgbf000196-resize_3/000493_2014-06-09_21-01-18_260595134347_rgbf000196-resize_3-target.png,125,3.44,3.0,3147,124,feet,jsons/VE125_randls_67.json,689059,911773,55,Woman
16,357674,DepthScenes,duration_manipulation_targetAtFixation,jsons/VE125_randls_67.json,http://54.235.29.9/FacialAge/BNav_EC2/DepthDuration/v2_depth_duration_MTurk/v2_DepthDuration_HTML.html#350,350,1280,720,1280,720,8-29-2022,11-25-29,17,depth_duration_stimuli/000191_2014-05-12_17-07-38_260595134347_rgbf000199-resize_0/000191_2014-05-12_17-07-38_260595134347_rgbf000199-resize_0-target.png,125,3.7995,6.0,3304,210,feet,jsons/VE125_randls_67.json,689059,911773,55,Woman
17,357674,DepthScenes,duration_manipulation_targetAtFixation,jsons/VE125_randls_67.json,http://54.235.29.9/FacialAge/BNav_EC2/DepthDuration/v2_depth_duration_MTurk/v2_DepthDuration_HTML.html#350,350,1280,720,1280,720,8-29-2022,11-25-29,18,depth_duration_stimuli/000469_2014-06-09_19-42-10_260595134347_rgbf000081-resize_1/000469_2014-06-09_19-42-10_260595134347_rgbf000081-resize_1-target.png,125,1.652,1.0,3105,125,feet,jsons/VE125_randls_67.json,689059,911773,55,Woman
18,357674,DepthScenes,duration_manipulation_targetAtFixation,jsons/VE125_randls_67.json,http://54.235.29.9/FacialAge/BNav_EC2/DepthDuration/v2_depth_duration_MTurk/v2_DepthDuration_HTML.html#350,350,1280,720,1280,720,8-29-2022,11-25-29,19,depth_duration_stimuli/000483_2014-06-09_20-41-45_260595134347_rgbf000116-resize_4/000483_2014-06-09_20-41-45_260595134347_rgbf000116-resize_4-target.png,125,1.337,1.0,3473,137,feet,jsons/VE125_randls_67.json,689059,911773,55,Woman
19,357674,DepthScenes,duration_manipulation_targetAtFixation,jsons/VE125_randls_67.json,http://54.235.29.9/FacialAge/BNav_EC2/DepthDuration/v2_depth_duration_MTurk/v2_DepthDuration_HTML.html#350,350,1280,720,1280,720,8-29-2022,11-25-29,20,depth_duration_stimuli/001016_2014-06-09_16-16-10_260595134347_rgbf000112-resize_5/001016_2014-06-09_16-16-10_260595134347_rgbf000112-resize_5-target.png,125,1.6565,2.5,7639,124,feet,jsons/VE125_randls_67.json,689059,911773,55,Woman
20,357674,DepthScenes,duration_manipulation_targetAtFixation,jsons/VE125_randls_67.json,http://54.235.29.9/FacialAge/BNav_EC2/DepthDuration/v2_depth_duration_MTurk/v2_DepthDuration_HTML.html#350,350,1280,720,1280,720,8-29-2022,11-25-29,21,depth_duration_stimuli/002340_2014-06-28_20-05-46_260595134347_rgbf000113-resize_0/002340_2014-06-28_20-05-46_260595134347_rgbf000113-resize_0-target.png,125,2.4735,5.0,3191,225,feet,jsons/VE125_randls_67.json,689059,911773,55,Woman
21,357674,DepthScenes,duration_manipulation_targetAtFixation,jsons/VE125_randls_67.json,http://54.235.29.9/FacialAge/BNav_EC2/DepthDuration/v2_depth_duration_MTurk/v2_DepthDuration_HTML.html#350,350,1280,720,1280,720,8-29-2022,11-25-29,22,depth_duration_stimuli/002763_2014-06-22_19-13-10_094959634447_rgbf000075-resize_4/002763_2014-06-22_19-13-10_094959634447_rgbf000075-resize_4-target.png,125,1.68375,4.5,4026,123,feet,jsons/VE125_randls_67.json,689059,911773,55,Woman
22,357674,DepthScenes,duration_manipulation_targetAtFixation,jsons/VE125_randls_67.json,http://54.235.29.9/FacialAge/BNav_EC2/DepthDuration/v2_depth_duration_MTurk/v2_DepthDuration_HTML.html#350,350,1280,720,1280,720,8-29-2022,11-25-29,23,depth_duration_stimuli/002209_2014-06-28_18-36-10_260595134347_rgbf000051-resize_1/002209_2014-06-28_18-36-10_260595134347_rgbf000051-resize_1-target.png,125,2.057,3.0,3934,136,feet,jsons/VE125_randls_67.json,689059,911773,55,Woman
23,357674,DepthScenes,duration_manipulation_targetAtFixation,jsons/VE125_randls_67.json,http://54.235.29.9/FacialAge/BNav_EC2/DepthDuration/v2_depth_duration_MTurk/v2_DepthDuration_HTML.html#350,350,1280,720,1280,720,8-29-2022,11-25-29,24,depth_duration_stimuli/000736_2014-06-08_18-24-15_260595134347_rgbf000206-resize_3/000736_2014-06-08_18-24-15_260595134347_rgbf000206-resize_3-target.png,125,3.515,2.0,3154,125,feet,jsons/VE125_randls_67.json,689059,911773,55,Woman
24,357674,DepthScenes,duration_manipulation_targetAtFixation,jsons/VE125_randls_67.json,http://54.235.29.9/FacialAge/BNav_EC2/DepthDuration/v2_depth_duration_MTurk/v2_DepthDuration_HTML.html#350,350,1280,720,1280,720,8-29-2022,11-25-29,25,depth_duration_stimuli/000137_2014-05-20_17-04-49_260595134347_rgbf000120-resize_1/000137_2014-05-20_17-04-49_260595134347_rgbf000120-resize_1-target.png,125,3.786,4.5,4136,124,feet,jsons/VE125_randls_67.json,689059,911773,55,Woman
25,357674,DepthScenes,duration_manipulation_targetAtFixation,jsons/VE125_randls_67.json,http://54.235.29.9/FacialAge/BNav_EC2/DepthDuration/v2_depth_duration_MTurk/v2_DepthDuration_HTML.html#350,350,1280,720,1280,720,8-29-2022,11-25-29,26,depth_duration_stimuli/001199_2014-06-17_16-03-48_260595134347_rgbf000077-resize_0/001199_2014-06-17_16-03-48_260595134347_rgbf000077-resize_0-target.png,125,3.4375,5.0,4141,123,feet,jsons/VE125_randls_67.json,689059,911773,55,Woman
26,357674,DepthScenes,duration_manipulation_targetAtFixation,jsons/VE125_randls_67.json,http://54.235.29.9/FacialAge/BNav_EC2/DepthDuration/v2_depth_duration_MTurk/v2_DepthDuration_HTML.html#350,350,1280,720,1280,720,8-29-2022,11-25-29,27,depth_duration_stimuli/000502_2014-06-08_23-02-32_260595134347_rgbf000063-resize_4/000502_2014-06-08_23-02-32_260595134347_rgbf000063-resize_4-target.png,125,2.431,2.0,4116,125,feet,jsons/VE125_randls_67.json,689059,911773,55,Woman
27,357674,DepthScenes,duration_manipulation_targetAtFixation,jsons/VE125_randls_67.json,http://54.235.29.9/FacialAge/BNav_EC2/DepthDuration/v2_depth_duration_MTurk/v2_DepthDuration_HTML.html#350,350,1280,720,1280,720,8-29-2022,11-25-29,28,depth_duration_stimuli/000682_2014-06-08_23-14-58_260595134347_rgbf000041-resize_5/000682_2014-06-08_23-14-58_260595134347_rgbf000041-resize_5-target.png,125,2.7239999999999998,3.0,3488,122,feet,jsons/VE125_randls_67.json,689059,911773,55,Woman
28,357674,DepthScenes,duration_manipulation_targetAtFixation,jsons/VE125_randls_67.json,http://54.235.29.9/FacialAge/BNav_EC2/DepthDuration/v2_depth_duration_MTurk/v2_DepthDuration_HTML.html#350,350,1280,720,1280,720,8-29-2022,11-25-29,29,depth_duration_stimuli/001650_2014-06-20_12-09-00_260595134347_rgbf000087-resize_3/001650_2014-06-20_12-09-00_260595134347_rgbf000087-resize_3-target.png,125,1.9505,1.0,2935,124,feet,jsons/VE125_randls_67.json,689059,911773,55,Woman
29,357674,DepthScenes,duration_manipulation_targetAtFixation,jsons/VE125_randls_67.json,http://54.235.29.9/FacialAge/BNav_EC2/DepthDuration/v2_depth_duration_MTurk/v2_DepthDuration_HTML.html#350,350,1280,720,1280,720,8-29-2022,11-25-29,30,depth_duration_stimuli/000375_2014-06-08_11-17-29_260595134347_rgbf000133-resize_2/000375_2014-06-08_11-17-29_260595134347_rgbf000133-resize-original.jpg,125,4.718,0.0,4214,123,feet,jsons/VE125_randls_67.json,689059,911773,55,Woman
30,357674,DepthScenes,duration_manipulation_targetAtFixation,jsons/VE125_randls_67.json,http://54.235.29.9/FacialAge/BNav_EC2/DepthDuration/v2_depth_duration_MTurk/v2_DepthDuration_HTML.html#350,350,1280,720,1280,720,8-29-2022,11-25-29,31,depth_duration_stimuli/001244_2014-06-17_16-47-45_260595134347_rgbf000030-resize_4/001244_2014-06-17_16-47-45_260595134347_rgbf000030-resize_4-target.png,125,2.0425,2.0,2771,135,feet,jsons/VE125_randls_67.json,689059,911773,55,Woman
31,357674,DepthScenes,duration_manipulation_targetAtFixation,jsons/VE125_randls_67.json,http://54.235.29.9/FacialAge/BNav_EC2/DepthDuration/v2_depth_duration_MTurk/v2_DepthDuration_HTML.html#350,350,1280,720,1280,720,8-29-2022,11-25-29,32,depth_duration_stimuli/003495_2014-05-21_16-01-51_094959634447_rgbf000100-resize_3/003495_2014-05-21_16-01-51_094959634447_rgbf000100-resize_3-target.png,125,1.6255,1.0,3112,216,feet,jsons/VE125_randls_67.json,689059,911773,55,Woman
32,357674,DepthScenes,duration_manipulation_targetAtFixation,jsons/VE125_randls_67.json,http://54.235.29.9/FacialAge/BNav_EC2/DepthDuration/v2_depth_duration_MTurk/v2_DepthDuration_HTML.html#350,350,1280,720,1280,720,8-29-2022,11-25-29,33,depth_duration_stimuli/000773_2014-06-08_22-24-54_260595134347_rgbf000093-resize_1/000773_2014-06-08_22-24-54_260595134347_rgbf000093-resize_1-target.png,125,4.973,2.5,3414,24,feet,jsons/VE125_randls_67.json,689059,911773,55,Woman
33,357674,DepthScenes,duration_manipulation_targetAtFixation,jsons/VE125_randls_67.json,http://54.235.29.9/FacialAge/BNav_EC2/DepthDuration/v2_depth_duration_MTurk/v2_DepthDuration_HTML.html#350,350,1280,720,1280,720,8-29-2022,11-25-29,34,depth_duration_stimuli/002414_2014-06-28_20-24-58_260595134347_rgbf000067-resize_4/002414_2014-06-28_20-24-58_260595134347_rgbf000067-resize_4-target.png,125,4.363,2.5,3856,246,feet,jsons/VE125_randls_67.json,689059,911773,55,Woman
34,357674,DepthScenes,duration_manipulation_targetAtFixation,jsons/VE125_randls_67.json,http://54.235.29.9/FacialAge/BNav_EC2/DepthDuration/v2_depth_duration_MTurk/v2_DepthDuration_HTML.html#350,350,1280,720,1280,720,8-29-2022,11-25-29,35,depth_duration_stimuli/000758_2014-06-08_22-05-08_260595134347_rgbf000085-resize_0/000758_2014-06-08_22-05-08_260595134347_rgbf000085-resize_0-target.png,125,3.3810000000000002,3.0,3563,128,feet,jsons/VE125_randls_67.json,689059,911773,55,Woman
35,357674,DepthScenes,duration_manipulation_targetAtFixation,jsons/VE125_randls_67.json,http://54.235.29.9/FacialAge/BNav_EC2/DepthDuration/v2_depth_duration_MTurk/v2_DepthDuration_HTML.html#350,350,1280,720,1280,720,8-29-2022,11-25-29,36,depth_duration_stimuli/000854_2014-06-09_19-43-13_260595134347_rgbf000066-resize_0/000854_2014-06-09_19-43-13_260595134347_rgbf000066-resize_0-target.png,125,3.068,2.0,2785,124,feet,jsons/VE125_randls_67.json,689059,911773,55,Woman
36,357674,DepthScenes,duration_manipulation_targetAtFixation,jsons/VE125_randls_67.json,http://54.235.29.9/FacialAge/BNav_EC2/DepthDuration/v2_depth_duration_MTurk/v2_DepthDuration_HTML.html#350,350,1280,720,1280,720,8-29-2022,11-25-29,37,depth_duration_stimuli/001417_2014-06-19_16-25-36_260595134347_rgbf000115-resize_5/001417_2014-06-19_16-25-36_260595134347_rgbf000115-resize_5-target.png,125,4.6255,2.0,3285,123,feet,jsons/VE125_randls_67.json,689059,911773,55,Woman
37,357674,DepthScenes,duration_manipulation_targetAtFixation,jsons/VE125_randls_67.json,http://54.235.29.9/FacialAge/BNav_EC2/DepthDuration/v2_depth_duration_MTurk/v2_DepthDuration_HTML.html#350,350,1280,720,1280,720,8-29-2022,11-25-29,38,depth_duration_stimuli/003081_2014-06-15_15-19-16_094959634447_rgbf000150-resize_1/003081_2014-06-15_15-19-16_094959634447_rgbf000150-resize_1-target.png,125,3.9125,2.5,3215,124,feet,jsons/VE125_randls_67.json,689059,911773,55,Woman
38,357674,DepthScenes,duration_manipulation_targetAtFixation,jsons/VE125_randls_67.json,http://54.235.29.9/FacialAge/BNav_EC2/DepthDuration/v2_depth_duration_MTurk/v2_DepthDuration_HTML.html#350,350,1280,720,1280,720,8-29-2022,11-25-29,39,depth_duration_stimuli/001167_2014-06-17_15-38-07_260595134347_rgbf000108-resize_0/001167_2014-06-17_15-38-07_260595134347_rgbf000108-resize_0-target.png,125,1.8505,2.0,2682,124,feet,jsons/VE125_randls_67.json,689059,911773,55,Woman
39,357674,DepthScenes,duration_manipulation_targetAtFixation,jsons/VE125_randls_67.json,http://54.235.29.9/FacialAge/BNav_EC2/DepthDuration/v2_depth_duration_MTurk/v2_DepthDuration_HTML.html#350,350,1280,720,1280,720,8-29-2022,11-25-29,40,depth_duration_stimuli/003587_2014-05-23_16-48-02_094959634447_rgbf002384-resize_2/003587_2014-05-23_16-48-02_094959634447_rgbf002384-resize_2-target.png,125,1.357,1.0,3121,165,feet,jsons/VE125_randls_67.json,689059,911773,55,Woman
40,357674,DepthScenes,duration_manipulation_targetAtFixation,jsons/VE125_randls_67.json,http://54.235.29.9/FacialAge/BNav_EC2/DepthDuration/v2_depth_duration_MTurk/v2_DepthDuration_HTML.html#350,350,1280,720,1280,720,8-29-2022,11-25-29,41,depth_duration_stimuli/000009_2014-05-26_14-32-05_260595134347_rgbf000034-resize_3/000009_2014-05-26_14-32-05_260595134347_rgbf000034-resize_3-target.png,125,3.8715,4.0,3979,253,feet,jsons/VE125_randls_67.json,689059,911773,55,Woman
41,357674,DepthScenes,duration_manipulation_targetAtFixation,jsons/VE125_randls_67.json,http://54.235.29.9/FacialAge/BNav_EC2/DepthDuration/v2_depth_duration_MTurk/v2_DepthDuration_HTML.html#350,350,1280,720,1280,720,8-29-2022,11-25-29,42,depth_duration_stimuli/001828_2014-06-26_21-40-03_260595134347_rgbf000024-resize_0/001828_2014-06-26_21-40-03_260595134347_rgbf000024-resize_0-target.png,125,4.8260000000000005,3.0,3255,124,feet,jsons/VE125_randls_67.json,689059,911773,55,Woman
42,357674,DepthScenes,duration_manipulation_targetAtFixation,jsons/VE125_randls_67.json,http://54.235.29.9/FacialAge/BNav_EC2/DepthDuration/v2_depth_duration_MTurk/v2_DepthDuration_HTML.html#350,350,1280,720,1280,720,8-29-2022,11-25-29,43,depth_duration_stimuli/001810_2014-06-26_20-51-35_260595134347_rgbf000040-resize_3/001810_2014-06-26_20-51-35_260595134347_rgbf000040-resize_3-target.png,125,2.2525,2.5,3380,125,feet,jsons/VE125_randls_67.json,689059,911773,55,Woman
43,357674,DepthScenes,duration_manipulation_targetAtFixation,jsons/VE125_randls_67.json,http://54.235.29.9/FacialAge/BNav_EC2/DepthDuration/v2_depth_duration_MTurk/v2_DepthDuration_HTML.html#350,350,1280,720,1280,720,8-29-2022,11-25-29,44,depth_duration_stimuli/003010_2014-06-15_12-54-35_094959634447_rgbf000112-resize_0/003010_2014-06-15_12-54-35_094959634447_rgbf000112-resize_0-target.png,125,3.1185,5.0,3875,122,feet,jsons/VE125_randls_67.json,689059,911773,55,Woman
44,357674,DepthScenes,duration_manipulation_targetAtFixation,jsons/VE125_randls_67.json,http://54.235.29.9/FacialAge/BNav_EC2/DepthDuration/v2_depth_duration_MTurk/v2_DepthDuration_HTML.html#350,350,1280,720,1280,720,8-29-2022,11-25-29,45,depth_duration_stimuli/000787_2014-06-08_22-33-53_260595134347_rgbf000175-resize_1/000787_2014-06-08_22-33-53_260595134347_rgbf000175-resize-original.jpg,125,4.784,0.0,3143,157,feet,jsons/VE125_randls_67.json,689059,911773,55,Woman
45,357674,DepthScenes,duration_manipulation_targetAtFixation,jsons/VE125_randls_67.json,http://54.235.29.9/FacialAge/BNav_EC2/DepthDuration/v2_depth_duration_MTurk/v2_DepthDuration_HTML.html#350,350,1280,720,1280,720,8-29-2022,11-25-29,46,depth_duration_stimuli/002043_2014-06-24_20-29-38_260595134347_rgbf000039-resize_4/002043_2014-06-24_20-29-38_260595134347_rgbf000039-resize_4-target.png,125,2.8435,2.5,3351,24,feet,jsons/VE125_randls_67.json,689059,911773,55,Woman
46,357674,DepthScenes,duration_manipulation_targetAtFixation,jsons/VE125_randls_67.json,http://54.235.29.9/FacialAge/BNav_EC2/DepthDuration/v2_depth_duration_MTurk/v2_DepthDuration_HTML.html#350,350,1280,720,1280,720,8-29-2022,11-25-29,47,depth_duration_stimuli/003048_2014-06-15_13-49-43_094959634447_rgbf000150-resize_1/003048_2014-06-15_13-49-43_094959634447_rgbf000150-resize_1-target.png,125,4.0035,3.0,3243,127,feet,jsons/VE125_randls_67.json,689059,911773,55,Woman
47,357674,DepthScenes,duration_manipulation_targetAtFixation,jsons/VE125_randls_67.json,http://54.235.29.9/FacialAge/BNav_EC2/DepthDuration/v2_depth_duration_MTurk/v2_DepthDuration_HTML.html#350,350,1280,720,1280,720,8-29-2022,11-25-29,48,depth_duration_stimuli/000470_2014-06-09_19-42-40_260595134347_rgbf000094-resize_1/000470_2014-06-09_19-42-40_260595134347_rgbf000094-resize_1-target.png,125,1.831,2.5,3319,122,feet,jsons/VE125_randls_67.json,689059,911773,55,Woman
48,357674,DepthScenes,duration_manipulation_targetAtFixation,jsons/VE125_randls_67.json,http://54.235.29.9/FacialAge/BNav_EC2/DepthDuration/v2_depth_duration_MTurk/v2_DepthDuration_HTML.html#350,350,1280,720,1280,720,8-29-2022,11-25-29,49,depth_duration_stimuli/000109_2014-05-14_23-41-52_260595134347_rgbf000035-resize_9/000109_2014-05-14_23-41-52_260595134347_rgbf000035-resize_9-target.png,125,1.3545,0.5,3085,123,feet,jsons/VE125_randls_67.json,689059,911773,55,Woman
49,357674,DepthScenes,duration_manipulation_targetAtFixation,jsons/VE125_randls_67.json,http://54.235.29.9/FacialAge/BNav_EC2/DepthDuration/v2_depth_duration_MTurk/v2_DepthDuration_HTML.html#350,350,1280,720,1280,720,8-29-2022,11-25-29,50,depth_duration_stimuli/002153_2014-06-25_21-27-18_260595134347_rgbf000038-resize_5/002153_2014-06-25_21-27-18_260595134347_rgbf000038-resize_5-target.png,125,2.505,0.5,3445,126,feet,jsons/VE125_randls_67.json,689059,911773,55,Woman
50,357674,DepthScenes,duration_manipulation_targetAtFixation,jsons/VE125_randls_67.json,http://54.235.29.9/FacialAge/BNav_EC2/DepthDuration/v2_depth_duration_MTurk/v2_DepthDuration_HTML.html#350,350,1280,720,1280,720,8-29-2022,11-25-29,51,depth_duration_stimuli/002660_2014-06-13_15-44-18_094959634447_rgbf001878-resize_2/002660_2014-06-13_15-44-18_094959634447_rgbf001878-resize_2-target.png,125,3.576,0.5,4228,125,feet,jsons/VE125_randls_67.json,689059,911773,55,Woman
51,357674,DepthScenes,duration_manipulation_targetAtFixation,jsons/VE125_randls_67.json,http://54.235.29.9/FacialAge/BNav_EC2/DepthDuration/v2_depth_duration_MTurk/v2_DepthDuration_HTML.html#350,350,1280,720,1280,720,8-29-2022,11-25-29,52,depth_duration_stimuli/003070_2014-06-15_14-58-27_094959634447_rgbf000150-resize_3/003070_2014-06-15_14-58-27_094959634447_rgbf000150-resize_3-target.png,125,2.9415,2.0,2898,124,feet,jsons/VE125_randls_67.json,689059,911773,55,Woman
52,357674,DepthScenes,duration_manipulation_targetAtFixation,jsons/VE125_randls_67.json,http://54.235.29.9/FacialAge/BNav_EC2/DepthDuration/v2_depth_duration_MTurk/v2_DepthDuration_HTML.html#350,350,1280,720,1280,720,8-29-2022,11-25-29,53,depth_duration_stimuli/000943_2014-06-09_19-31-07_260595134347_rgbf000128-resize_1/000943_2014-06-09_19-31-07_260595134347_rgbf000128-resize_1-target.png,125,1.9765,2.0,4209,124,feet,jsons/VE125_randls_67.json,689059,911773,55,Woman
53,357674,DepthScenes,duration_manipulation_targetAtFixation,jsons/VE125_randls_67.json,http://54.235.29.9/FacialAge/BNav_EC2/DepthDuration/v2_depth_duration_MTurk/v2_DepthDuration_HTML.html#350,350,1280,720,1280,720,8-29-2022,11-25-29,54,depth_duration_stimuli/002600_2014-06-24_14-27-04_094959634447_rgbf000074-resize_2/002600_2014-06-24_14-27-04_094959634447_rgbf000074-resize_2-target.png,125,2.7575,1.0,3154,123,feet,jsons/VE125_randls_67.json,689059,911773,55,Woman
54,357674,DepthScenes,duration_manipulation_targetAtFixation,jsons/VE125_randls_67.json,http://54.235.29.9/FacialAge/BNav_EC2/DepthDuration/v2_depth_duration_MTurk/v2_DepthDuration_HTML.html#350,350,1280,720,1280,720,8-29-2022,11-25-29,55,depth_duration_stimuli/003228_2014-05-14_13-42-35_094959634447_rgbf000101-resize_1/003228_2014-05-14_13-42-35_094959634447_rgbf000101-resize_1-target.png,125,1.9680000000000002,1.0,2637,124,feet,jsons/VE125_randls_67.json,689059,911773,55,Woman
55,357674,DepthScenes,duration_manipulation_targetAtFixation,jsons/VE125_randls_67.json,http://54.235.29.9/FacialAge/BNav_EC2/DepthDuration/v2_depth_duration_MTurk/v2_DepthDuration_HTML.html#350,350,1280,720,1280,720,8-29-2022,11-25-29,56,depth_duration_stimuli/001059_2014-06-08_21-53-27_260595134347_rgbf000061-resize_4/001059_2014-06-08_21-53-27_260595134347_rgbf000061-resize_4-target.png,125,2.4185,2.5,4868,229,feet,jsons/VE125_randls_67.json,689059,911773,55,Woman
56,357674,DepthScenes,duration_manipulation_targetAtFixation,jsons/VE125_randls_67.json,http://54.235.29.9/FacialAge/BNav_EC2/DepthDuration/v2_depth_duration_MTurk/v2_DepthDuration_HTML.html#350,350,1280,720,1280,720,8-29-2022,11-25-29,57,depth_duration_stimuli/001032_2014-06-08_13-23-17_260595134347_rgbf000021-resize_3/001032_2014-06-08_13-23-17_260595134347_rgbf000021-resize_3-target.png,125,3.2725,0.5,3113,124,feet,jsons/VE125_randls_67.json,689059,911773,55,Woman
57,357674,DepthScenes,duration_manipulation_targetAtFixation,jsons/VE125_randls_67.json,http://54.235.29.9/FacialAge/BNav_EC2/DepthDuration/v2_depth_duration_MTurk/v2_DepthDuration_HTML.html#350,350,1280,720,1280,720,8-29-2022,11-25-29,58,depth_duration_stimuli/000368_2014-06-09_15-53-01_260595134347_rgbf000155-resize_2/000368_2014-06-09_15-53-01_260595134347_rgbf000155-resize_2-target.png,125,2.4859999999999998,0.5,3217,123,feet,jsons/VE125_randls_67.json,689059,911773,55,Woman
58,357674,DepthScenes,duration_manipulation_targetAtFixation,jsons/VE125_randls_67.json,http://54.235.29.9/FacialAge/BNav_EC2/DepthDuration/v2_depth_duration_MTurk/v2_DepthDuration_HTML.html#350,350,1280,720,1280,720,8-29-2022,11-25-29,59,depth_duration_stimuli/002678_2014-06-13_16-15-32_094959634447_rgbf000151-resize_6/002678_2014-06-13_16-15-32_094959634447_rgbf000151-resize_6-target.png,125,2.1830000000000003,3.0,2811,123,feet,jsons/VE125_randls_67.json,689059,911773,55,Woman
59,357674,DepthScenes,duration_manipulation_targetAtFixation,jsons/VE125_randls_67.json,http://54.235.29.9/FacialAge/BNav_EC2/DepthDuration/v2_depth_duration_MTurk/v2_DepthDuration_HTML.html#350,350,1280,720,1280,720,8-29-2022,11-25-29,60,depth_duration_stimuli/000917_2014-06-09_22-45-29_260595134347_rgbf000149-resize_3/000917_2014-06-09_22-45-29_260595134347_rgbf000149-resize_3-target.png,125,4.1865,3.0,2730,125,feet,jsons/VE125_randls_67.json,689059,911773,55,Woman
60,357674,DepthScenes,duration_manipulation_targetAtFixation,jsons/VE125_randls_67.json,http://54.235.29.9/FacialAge/BNav_EC2/DepthDuration/v2_depth_duration_MTurk/v2_DepthDuration_HTML.html#350,350,1280,720,1280,720,8-29-2022,11-25-29,61,depth_duration_stimuli/002323_2014-06-28_20-01-54_260595134347_rgbf000051-resize_4/002323_2014-06-28_20-01-54_260595134347_rgbf000051-resize_4-target.png,125,3.7310000000000003,4.0,3554,124,feet,jsons/VE125_randls_67.json,689059,911773,55,Woman
61,357674,DepthScenes,duration_manipulation_targetAtFixation,jsons/VE125_randls_67.json,http://54.235.29.9/FacialAge/BNav_EC2/DepthDuration/v2_depth_duration_MTurk/v2_DepthDuration_HTML.html#350,350,1280,720,1280,720,8-29-2022,11-25-29,62,depth_duration_stimuli/000692_2014-06-08_13-09-42_260595134347_rgbf000199-resize_2/000692_2014-06-08_13-09-42_260595134347_rgbf000199-resize_2-target.png,125,3.661,4.0,4171,125,feet,jsons/VE125_randls_67.json,689059,911773,55,Woman
62,357674,DepthScenes,duration_manipulation_targetAtFixation,jsons/VE125_randls_67.json,http://54.235.29.9/FacialAge/BNav_EC2/DepthDuration/v2_depth_duration_MTurk/v2_DepthDuration_HTML.html#350,350,1280,720,1280,720,8-29-2022,11-25-29,63,depth_duration_stimuli/001094_2014-06-15_17-36-00_260595134347_rgbf000205-resize_0/001094_2014-06-15_17-36-00_260595134347_rgbf000205-resize_0-target.png,125,4.2175,5.0,3226,133,feet,jsons/VE125_randls_67.json,689059,911773,55,Woman
63,357674,DepthScenes,duration_manipulation_targetAtFixation,jsons/VE125_randls_67.json,http://54.235.29.9/FacialAge/BNav_EC2/DepthDuration/v2_depth_duration_MTurk/v2_DepthDuration_HTML.html#350,350,1280,720,1280,720,8-29-2022,11-25-29,64,depth_duration_stimuli/000739_2014-06-08_18-45-58_260595134347_rgbf000068-resize_1/000739_2014-06-08_18-45-58_260595134347_rgbf000068-resize_1-target.png,125,3.534,0.0,2792,26,feet,jsons/VE125_randls_67.json,689059,911773,55,Woman
64,357674,DepthScenes,duration_manipulation_targetAtFixation,jsons/VE125_randls_67.json,http://54.235.29.9/FacialAge/BNav_EC2/DepthDuration/v2_depth_duration_MTurk/v2_DepthDuration_HTML.html#350,350,1280,720,1280,720,8-29-2022,11-25-29,65,depth_duration_stimuli/000734_2014-06-08_17-39-11_260595134347_rgbf000128-resize_2/000734_2014-06-08_17-39-11_260595134347_rgbf000128-resize_2-target.png,125,4.098,4.5,3801,126,feet,jsons/VE125_randls_67.json,689059,911773,55,Woman
65,357674,DepthScenes,duration_manipulation_targetAtFixation,jsons/VE125_randls_67.json,http://54.235.29.9/FacialAge/BNav_EC2/DepthDuration/v2_depth_duration_MTurk/v2_DepthDuration_HTML.html#350,350,1280,720,1280,720,8-29-2022,11-25-29,66,depth_duration_stimuli/001222_2014-06-17_16-24-06_260595134347_rgbf000073-resize_0/001222_2014-06-17_16-24-06_260595134347_rgbf000073-resize-original.jpg,125,1.4385,0.0,2756,124,feet,jsons/VE125_randls_67.json,689059,911773,55,Woman
66,357674,DepthScenes,duration_manipulation_targetAtFixation,jsons/VE125_randls_67.json,http://54.235.29.9/FacialAge/BNav_EC2/DepthDuration/v2_depth_duration_MTurk/v2_DepthDuration_HTML.html#350,350,1280,720,1280,720,8-29-2022,11-25-29,67,depth_duration_stimuli/003534_2014-05-22_15-06-10_094959634447_rgbf000102-resize_4/003534_2014-05-22_15-06-10_094959634447_rgbf000102-resize_4-target.png,125,1.426,0.0,4109,28,feet,jsons/VE125_randls_67.json,689059,911773,55,Woman
67,357674,DepthScenes,duration_manipulation_targetAtFixation,jsons/VE125_randls_67.json,http://54.235.29.9/FacialAge/BNav_EC2/DepthDuration/v2_depth_duration_MTurk/v2_DepthDuration_HTML.html#350,350,1280,720,1280,720,8-29-2022,11-25-29,68,depth_duration_stimuli/002637_2014-06-24_14-51-13_094959634447_rgbf000066-resize_4/002637_2014-06-24_14-51-13_094959634447_rgbf000066-resize_4-target.png,125,1.9955,4.5,4508,124,feet,jsons/VE125_randls_67.json,689059,911773,55,Woman
68,357674,DepthScenes,duration_manipulation_targetAtFixation,jsons/VE125_randls_67.json,http://54.235.29.9/FacialAge/BNav_EC2/DepthDuration/v2_depth_duration_MTurk/v2_DepthDuration_HTML.html#350,350,1280,720,1280,720,8-29-2022,11-25-29,69,depth_duration_stimuli/001175_2014-06-17_15-45-55_260595134347_rgbf000129-resize_4/001175_2014-06-17_15-45-55_260595134347_rgbf000129-resize_4-target.png,125,4.255,4.0,3086,127,feet,jsons/VE125_randls_67.json,689059,911773,55,Woman
69,357674,DepthScenes,duration_manipulation_targetAtFixation,jsons/VE125_randls_67.json,http://54.235.29.9/FacialAge/BNav_EC2/DepthDuration/v2_depth_duration_MTurk/v2_DepthDuration_HTML.html#350,350,1280,720,1280,720,8-29-2022,11-25-29,70,depth_duration_stimuli/003490_2014-05-21_15-50-11_094959634447_rgbf000101-resize_3/003490_2014-05-21_15-50-11_094959634447_rgbf000101-resize_3-target.png,125,3.6445,4.0,3819,132,feet,jsons/VE125_randls_67.json,689059,911773,55,Woman
70,357674,DepthScenes,duration_manipulation_targetAtFixation,jsons/VE125_randls_67.json,http://54.235.29.9/FacialAge/BNav_EC2/DepthDuration/v2_depth_duration_MTurk/v2_DepthDuration_HTML.html#350,350,1280,720,1280,720,8-29-2022,11-25-29,71,depth_duration_stimuli/001570_2014-06-20_17-21-09_260595134347_rgbf000135-resize_4/001570_2014-06-20_17-21-09_260595134347_rgbf000135-resize_4-target.png,125,4.467,5.0,3498,105,feet,jsons/VE125_randls_67.json,689059,911773,55,Woman
71,357674,DepthScenes,duration_manipulation_targetAtFixation,jsons/VE125_randls_67.json,http://54.235.29.9/FacialAge/BNav_EC2/DepthDuration/v2_depth_duration_MTurk/v2_DepthDuration_HTML.html#350,350,1280,720,1280,720,8-29-2022,11-25-29,72,depth_duration_stimuli/001392_2014-06-19_16-07-59_260595134347_rgbf000046-resize_1/001392_2014-06-19_16-07-59_260595134347_rgbf000046-resize_1-target.png,125,4.135,5.0,3222,124,feet,jsons/VE125_randls_67.json,689059,911773,55,Woman
72,357674,DepthScenes,duration_manipulation_targetAtFixation,jsons/VE125_randls_67.json,http://54.235.29.9/FacialAge/BNav_EC2/DepthDuration/v2_depth_duration_MTurk/v2_DepthDuration_HTML.html#350,350,1280,720,1280,720,8-29-2022,11-25-29,73,depth_duration_stimuli/001092_2014-06-15_17-34-58_260595134347_rgbf000171-resize_3/001092_2014-06-15_17-34-58_260595134347_rgbf000171-resize_3-target.png,125,2.6935,4.0,3472,124,feet,jsons/VE125_randls_67.json,689059,911773,55,Woman
73,357674,DepthScenes,duration_manipulation_targetAtFixation,jsons/VE125_randls_67.json,http://54.235.29.9/FacialAge/BNav_EC2/DepthDuration/v2_depth_duration_MTurk/v2_DepthDuration_HTML.html#350,350,1280,720,1280,720,8-29-2022,11-25-29,74,depth_duration_stimuli/002545_2014-06-24_13-38-53_094959634447_rgbf000080-resize_4/002545_2014-06-24_13-38-53_094959634447_rgbf000080-resize_4-target.png,125,1.9205,4.0,2642,125,feet,jsons/VE125_randls_67.json,689059,911773,55,Woman
74,357674,DepthScenes,duration_manipulation_targetAtFixation,jsons/VE125_randls_67.json,http://54.235.29.9/FacialAge/BNav_EC2/DepthDuration/v2_depth_duration_MTurk/v2_DepthDuration_HTML.html#350,350,1280,720,1280,720,8-29-2022,11-25-29,75,depth_duration_stimuli/002630_2014-06-24_14-47-50_094959634447_rgbf000055-resize_1/002630_2014-06-24_14-47-50_094959634447_rgbf000055-resize_1-target.png,125,3.0095,6.0,3680,124,feet,jsons/VE125_randls_67.json,689059,911773,55,Woman
75,357674,DepthScenes,duration_manipulation_targetAtFixation,jsons/VE125_randls_67.json,http://54.235.29.9/FacialAge/BNav_EC2/DepthDuration/v2_depth_duration_MTurk/v2_DepthDuration_HTML.html#350,350,1280,720,1280,720,8-29-2022,11-25-29,76,depth_duration_stimuli/002758_2014-06-22_19-11-20_094959634447_rgbf000128-resize_1/002758_2014-06-22_19-11-20_094959634447_rgbf000128-resize_1-target.png,125,2.555,3.0,3353,123,feet,jsons/VE125_randls_67.json,689059,911773,55,Woman
76,357674,DepthScenes,duration_manipulation_targetAtFixation,jsons/VE125_randls_67.json,http://54.235.29.9/FacialAge/BNav_EC2/DepthDuration/v2_depth_duration_MTurk/v2_DepthDuration_HTML.html#350,350,1280,720,1280,720,8-29-2022,11-25-29,77,depth_duration_stimuli/001449_2014-06-19_17-01-27_260595134347_rgbf000116-resize_2/001449_2014-06-19_17-01-27_260595134347_rgbf000116-resize_2-target.png,125,3.452,2.0,3852,90,feet,jsons/VE125_randls_67.json,689059,911773,55,Woman
77,357674,DepthScenes,duration_manipulation_targetAtFixation,jsons/VE125_randls_67.json,http://54.235.29.9/FacialAge/BNav_EC2/DepthDuration/v2_depth_duration_MTurk/v2_DepthDuration_HTML.html#350,350,1280,720,1280,720,8-29-2022,11-25-29,78,depth_duration_stimuli/001450_2014-06-19_17-02-03_260595134347_rgbf000203-resize_4/001450_2014-06-19_17-02-03_260595134347_rgbf000203-resize_4-target.png,125,4.0106666666667,3.0,4043,124,feet,jsons/VE125_randls_67.json,689059,911773,55,Woman
78,357674,DepthScenes,duration_manipulation_targetAtFixation,jsons/VE125_randls_67.json,http://54.235.29.9/FacialAge/BNav_EC2/DepthDuration/v2_depth_duration_MTurk/v2_DepthDuration_HTML.html#350,350,1280,720,1280,720,8-29-2022,11-25-29,79,depth_duration_stimuli/002445_2014-06-28_20-32-16_260595134347_rgbf000029-resize_4/002445_2014-06-28_20-32-16_260595134347_rgbf000029-resize_4-target.png,125,2.5315,1.0,4699,122,feet,jsons/VE125_randls_67.json,689059,911773,55,Woman
79,357674,DepthScenes,duration_manipulation_targetAtFixation,jsons/VE125_randls_67.json,http://54.235.29.9/FacialAge/BNav_EC2/DepthDuration/v2_depth_duration_MTurk/v2_DepthDuration_HTML.html#350,350,1280,720,1280,720,8-29-2022,11-25-29,80,depth_duration_stimuli/000780_2014-06-08_22-28-29_260595134347_rgbf000126-resize_1/000780_2014-06-08_22-28-29_260595134347_rgbf000126-resize_1-target.png,125,3.3825,4.0,5175,125,feet,jsons/VE125_randls_67.json,689059,911773,55,Woman
80,357674,DepthScenes,duration_manipulation_targetAtFixation,jsons/VE125_randls_67.json,http://54.235.29.9/FacialAge/BNav_EC2/DepthDuration/v2_depth_duration_MTurk/v2_DepthDuration_HTML.html#350,350,1280,720,1280,720,8-29-2022,11-25-29,81,depth_duration_stimuli/002788_2014-06-22_19-36-03_094959634447_rgbf000088-resize_2/002788_2014-06-22_19-36-03_094959634447_rgbf000088-resize_2-target.png,125,1.6465,3.0,3053,129,feet,jsons/VE125_randls_67.json,689059,911773,55,Woman
81,357674,DepthScenes,duration_manipulation_targetAtFixation,jsons/VE125_randls_67.json,http://54.235.29.9/FacialAge/BNav_EC2/DepthDuration/v2_depth_duration_MTurk/v2_DepthDuration_HTML.html#350,350,1280,720,1280,720,8-29-2022,11-25-29,82,depth_duration_stimuli/000749_2014-06-08_21-55-06_260595134347_rgbf000070-resize_2/000749_2014-06-08_21-55-06_260595134347_rgbf000070-resize_2-target.png,125,2.331,2.5,4579,269,feet,jsons/VE125_randls_67.json,689059,911773,55,Woman
82,357674,DepthScenes,duration_manipulation_targetAtFixation,jsons/VE125_randls_67.json,http://54.235.29.9/FacialAge/BNav_EC2/DepthDuration/v2_depth_duration_MTurk/v2_DepthDuration_HTML.html#350,350,1280,720,1280,720,8-29-2022,11-25-29,83,depth_duration_stimuli/000810_2014-06-08_17-20-01_260595134347_rgbf000105-resize_0/000810_2014-06-08_17-20-01_260595134347_rgbf000105-resize_0-target.png,125,1.4865,1.5,5493,125,feet,jsons/VE125_randls_67.json,689059,911773,55,Woman
83,357674,DepthScenes,duration_manipulation_targetAtFixation,jsons/VE125_randls_67.json,http://54.235.29.9/FacialAge/BNav_EC2/DepthDuration/v2_depth_duration_MTurk/v2_DepthDuration_HTML.html#350,350,1280,720,1280,720,8-29-2022,11-25-29,84,depth_duration_stimuli/001214_2014-06-17_16-13-55_260595134347_rgbf000111-resize_0/001214_2014-06-17_16-13-55_260595134347_rgbf000111-resize_0-target.png,125,2.6505,2.0,3905,123,feet,jsons/VE125_randls_67.json,689059,911773,55,Woman
84,357674,DepthScenes,duration_manipulation_targetAtFixation,jsons/VE125_randls_67.json,http://54.235.29.9/FacialAge/BNav_EC2/DepthDuration/v2_depth_duration_MTurk/v2_DepthDuration_HTML.html#350,350,1280,720,1280,720,8-29-2022,11-25-29,85,depth_duration_stimuli/001150_2014-06-17_15-27-34_260595134347_rgbf000108-resize_2/001150_2014-06-17_15-27-34_260595134347_rgbf000108-resize_2-target.png,125,4.0325,4.0,3600,128,feet,jsons/VE125_randls_67.json,689059,911773,55,Woman
85,357674,DepthScenes,duration_manipulation_targetAtFixation,jsons/VE125_randls_67.json,http://54.235.29.9/FacialAge/BNav_EC2/DepthDuration/v2_depth_duration_MTurk/v2_DepthDuration_HTML.html#350,350,1280,720,1280,720,8-29-2022,11-25-29,86,depth_duration_stimuli/000665_2014-06-09_20-42-35_260595134347_rgbf000110-resize_1/000665_2014-06-09_20-42-35_260595134347_rgbf000110-resize_1-target.png,125,3.057,2.0,3039,264,feet,jsons/VE125_randls_67.json,689059,911773,55,Woman
86,357674,DepthScenes,duration_manipulation_targetAtFixation,jsons/VE125_randls_67.json,http://54.235.29.9/FacialAge/BNav_EC2/DepthDuration/v2_depth_duration_MTurk/v2_DepthDuration_HTML.html#350,350,1280,720,1280,720,8-29-2022,11-25-29,87,depth_duration_stimuli/001806_2014-06-26_20-50-20_260595134347_rgbf000091-resize_1/001806_2014-06-26_20-50-20_260595134347_rgbf000091-resize_1-target.png,125,2.7305,2.0,3499,123,feet,jsons/VE125_randls_67.json,689059,911773,55,Woman
87,357674,DepthScenes,duration_manipulation_targetAtFixation,jsons/VE125_randls_67.json,http://54.235.29.9/FacialAge/BNav_EC2/DepthDuration/v2_depth_duration_MTurk/v2_DepthDuration_HTML.html#350,350,1280,720,1280,720,8-29-2022,11-25-29,88,depth_duration_stimuli/001617_2014-06-20_11-35-32_260595134347_rgbf000066-resize_1/001617_2014-06-20_11-35-32_260595134347_rgbf000066-resize_1-target.png,125,3.7910000000000004,4.0,3283,127,feet,jsons/VE125_randls_67.json,689059,911773,55,Woman
88,357674,DepthScenes,duration_manipulation_targetAtFixation,jsons/VE125_randls_67.json,http://54.235.29.9/FacialAge/BNav_EC2/DepthDuration/v2_depth_duration_MTurk/v2_DepthDuration_HTML.html#350,350,1280,720,1280,720,8-29-2022,11-25-29,89,depth_duration_stimuli/002509_2014-06-24_13-19-22_094959634447_rgbf000077-resize_0/002509_2014-06-24_13-19-22_094959634447_rgbf000077-resize_0-target.png,125,1.3065,4.0,2220,125,feet,jsons/VE125_randls_67.json,689059,911773,55,Woman
89,357674,DepthScenes,duration_manipulation_targetAtFixation,jsons/VE125_randls_67.json,http://54.235.29.9/FacialAge/BNav_EC2/DepthDuration/v2_depth_duration_MTurk/v2_DepthDuration_HTML.html#350,350,1280,720,1280,720,8-29-2022,11-25-29,90,depth_duration_stimuli/003338_2014-05-20_11-01-23_094959634447_rgbf000051-resize_6/003338_2014-05-20_11-01-23_094959634447_rgbf000051-resize_6-target.png,125,1.693,3.5,4474,124,feet,jsons/VE125_randls_67.json,689059,911773,55,Woman
90,357674,DepthScenes,duration_manipulation_targetAtFixation,jsons/VE125_randls_67.json,http://54.235.29.9/FacialAge/BNav_EC2/DepthDuration/v2_depth_duration_MTurk/v2_DepthDuration_HTML.html#350,350,1280,720,1280,720,8-29-2022,11-25-29,91,depth_duration_stimuli/002213_2014-06-28_18-37-58_260595134347_rgbf000055-resize_1/002213_2014-06-28_18-37-58_260595134347_rgbf000055-resize_1-target.png,125,3.62,4.5,3536,130,feet,jsons/VE125_randls_67.json,689059,911773,55,Woman
91,357674,DepthScenes,duration_manipulation_targetAtFixation,jsons/VE125_randls_67.json,http://54.235.29.9/FacialAge/BNav_EC2/DepthDuration/v2_depth_duration_MTurk/v2_DepthDuration_HTML.html#350,350,1280,720,1280,720,8-29-2022,11-25-29,92,depth_duration_stimuli/000691_2014-06-08_13-08-50_260595134347_rgbf000132-resize_3/000691_2014-06-08_13-08-50_260595134347_rgbf000132-resize_3-target.png,125,4.1530000000000005,4.5,3627,181,feet,jsons/VE125_randls_67.json,689059,911773,55,Woman
92,357674,DepthScenes,duration_manipulation_targetAtFixation,jsons/VE125_randls_67.json,http://54.235.29.9/FacialAge/BNav_EC2/DepthDuration/v2_depth_duration_MTurk/v2_DepthDuration_HTML.html#350,350,1280,720,1280,720,8-29-2022,11-25-29,93,depth_duration_stimuli/000878_2014-06-08_22-52-45_260595134347_rgbf000045-resize_2/000878_2014-06-08_22-52-45_260595134347_rgbf000045-resize_2-target.png,125,2.092,4.5,3062,125,feet,jsons/VE125_randls_67.json,689059,911773,55,Woman
93,357674,DepthScenes,duration_manipulation_targetAtFixation,jsons/VE125_randls_67.json,http://54.235.29.9/FacialAge/BNav_EC2/DepthDuration/v2_depth_duration_MTurk/v2_DepthDuration_HTML.html#350,350,1280,720,1280,720,8-29-2022,11-25-29,94,depth_duration_stimuli/002953_2014-06-08_17-32-18_094959634447_rgbf000059-resize_5/002953_2014-06-08_17-32-18_094959634447_rgbf000059-resize_5-target.png,125,1.551,2.0,2673,125,feet,jsons/VE125_randls_67.json,689059,911773,55,Woman
94,357674,DepthScenes,duration_manipulation_targetAtFixation,jsons/VE125_randls_67.json,http://54.235.29.9/FacialAge/BNav_EC2/DepthDuration/v2_depth_duration_MTurk/v2_DepthDuration_HTML.html#350,350,1280,720,1280,720,8-29-2022,11-25-29,95,depth_duration_stimuli/000436_2014-06-09_22-25-11_260595134347_rgbf000137-resize_1/000436_2014-06-09_22-25-11_260595134347_rgbf000137-resize_1-target.png,125,4.0705,3.0,3366,125,feet,jsons/VE125_randls_67.json,689059,911773,55,Woman
95,357674,DepthScenes,duration_manipulation_targetAtFixation,jsons/VE125_randls_67.json,http://54.235.29.9/FacialAge/BNav_EC2/DepthDuration/v2_depth_duration_MTurk/v2_DepthDuration_HTML.html#350,350,1280,720,1280,720,8-29-2022,11-25-29,96,depth_duration_stimuli/002444_2014-06-28_20-32-08_260595134347_rgbf000027-resize_0/002444_2014-06-28_20-32-08_260595134347_rgbf000027-resize_0-target.png,125,4.388999999999999,4.5,3029,124,feet,jsons/VE125_randls_67.json,689059,911773,55,Woman
96,357674,DepthScenes,duration_manipulation_targetAtFixation,jsons/VE125_randls_67.json,http://54.235.29.9/FacialAge/BNav_EC2/DepthDuration/v2_depth_duration_MTurk/v2_DepthDuration_HTML.html#350,350,1280,720,1280,720,8-29-2022,11-25-29,97,depth_duration_stimuli/000522_2014-06-08_13-35-06_260595134347_rgbf000244-resize_1/000522_2014-06-08_13-35-06_260595134347_rgbf000244-resize_1-target.png,125,2.3715,4.0,2705,124,feet,jsons/VE125_randls_67.json,689059,911773,55,Woman
97,357674,DepthScenes,duration_manipulation_targetAtFixation,jsons/VE125_randls_67.json,http://54.235.29.9/FacialAge/BNav_EC2/DepthDuration/v2_depth_duration_MTurk/v2_DepthDuration_HTML.html#350,350,1280,720,1280,720,8-29-2022,11-25-29,98,depth_duration_stimuli/002949_2014-06-26_15-57-42_094959634447_rgbf000079-resize_1/002949_2014-06-26_15-57-42_094959634447_rgbf000079-resize_1-target.png,125,1.8915,4.0,2847,113,feet,jsons/VE125_randls_67.json,689059,911773,55,Woman
98,357674,DepthScenes,duration_manipulation_targetAtFixation,jsons/VE125_randls_67.json,http://54.235.29.9/FacialAge/BNav_EC2/DepthDuration/v2_depth_duration_MTurk/v2_DepthDuration_HTML.html#350,350,1280,720,1280,720,8-29-2022,11-25-29,99,depth_duration_stimuli/001540_2014-06-20_17-01-05_260595134347_rgbf000086-resize_2/001540_2014-06-20_17-01-05_260595134347_rgbf000086-resize-original.jpg,125,1.459,0.0,3300,225,feet,jsons/VE125_randls_67.json,689059,911773,55,Woman
99,357674,DepthScenes,duration_manipulation_targetAtFixation,jsons/VE125_randls_67.json,http://54.235.29.9/FacialAge/BNav_EC2/DepthDuration/v2_depth_duration_MTurk/v2_DepthDuration_HTML.html#350,350,1280,720,1280,720,8-29-2022,11-25-29,100,depth_duration_stimuli/002272_2014-06-28_18-53-56_260595134347_rgbf000067-resize_2/002272_2014-06-28_18-53-56_260595134347_rgbf000067-resize_2-target.png,125,1.138,3.5,4025,124,feet,jsons/VE125_randls_67.json,689059,911773,55,Woman
100,357674,DepthScenes,duration_manipulation_targetAtFixation,jsons/VE125_randls_67.json,http://54.235.29.9/FacialAge/BNav_EC2/DepthDuration/v2_depth_duration_MTurk/v2_DepthDuration_HTML.html#350,350,1280,720,1280,720,8-29-2022,11-25-29,101,depth_duration_stimuli/001571_2014-06-20_17-21-32_260595134347_rgbf000089-resize_1/001571_2014-06-20_17-21-32_260595134347_rgbf000089-resize_1-target.png,125,1.86,2.5,3163,122,feet,jsons/VE125_randls_67.json,689059,911773,55,Woman
101,357674,DepthScenes,duration_manipulation_targetAtFixation,jsons/VE125_randls_67.json,http://54.235.29.9/FacialAge/BNav_EC2/DepthDuration/v2_depth_duration_MTurk/v2_DepthDuration_HTML.html#350,350,1280,720,1280,720,8-29-2022,11-25-29,102,depth_duration_stimuli/000642_2014-06-08_16-59-25_260595134347_rgbf000098-resize_2/000642_2014-06-08_16-59-25_260595134347_rgbf000098-resize_2-target.png,125,2.8815,3.0,3317,131,feet,jsons/VE125_randls_67.json,689059,911773,55,Woman
102,357674,DepthScenes,duration_manipulation_targetAtFixation,jsons/VE125_randls_67.json,http://54.235.29.9/FacialAge/BNav_EC2/DepthDuration/v2_depth_duration_MTurk/v2_DepthDuration_HTML.html#350,350,1280,720,1280,720,8-29-2022,11-25-29,103,depth_duration_stimuli/002425_2014-06-28_20-27-29_260595134347_rgbf000031-resize_8/002425_2014-06-28_20-27-29_260595134347_rgbf000031-resize_8-target.png,125,3.8960000000000004,4.0,2654,127,feet,jsons/VE125_randls_67.json,689059,911773,55,Woman
103,357674,DepthScenes,duration_manipulation_targetAtFixation,jsons/VE125_randls_67.json,http://54.235.29.9/FacialAge/BNav_EC2/DepthDuration/v2_depth_duration_MTurk/v2_DepthDuration_HTML.html#350,350,1280,720,1280,720,8-29-2022,11-25-29,104,depth_duration_stimuli/002905_2014-06-03_18-04-43_094959634447_rgbf000151-resize_2/002905_2014-06-03_18-04-43_094959634447_rgbf000151-resize_2-target.png,125,2.0295,2.5,3279,97,feet,jsons/VE125_randls_67.json,689059,911773,55,Woman
104,357674,DepthScenes,duration_manipulation_targetAtFixation,jsons/VE125_randls_67.json,http://54.235.29.9/FacialAge/BNav_EC2/DepthDuration/v2_depth_duration_MTurk/v2_DepthDuration_HTML.html#350,350,1280,720,1280,720,8-29-2022,11-25-29,105,depth_duration_stimuli/003423_2014-05-21_10-23-26_094959634447_rgbf002665-resize_2/003423_2014-05-21_10-23-26_094959634447_rgbf002665-resize_2-target.png,125,3.2575,0.5,3648,124,feet,jsons/VE125_randls_67.json,689059,911773,55,Woman
105,357674,DepthScenes,duration_manipulation_targetAtFixation,jsons/VE125_randls_67.json,http://54.235.29.9/FacialAge/BNav_EC2/DepthDuration/v2_depth_duration_MTurk/v2_DepthDuration_HTML.html#350,350,1280,720,1280,720,8-29-2022,11-25-29,106,depth_duration_stimuli/002549_2014-06-24_13-41-39_094959634447_rgbf000022-resize_3/002549_2014-06-24_13-41-39_094959634447_rgbf000022-resize_3-target.png,125,1.476,0.5,4172,255,feet,jsons/VE125_randls_67.json,689059,911773,55,Woman
106,357674,DepthScenes,duration_manipulation_targetAtFixation,jsons/VE125_randls_67.json,http://54.235.29.9/FacialAge/BNav_EC2/DepthDuration/v2_depth_duration_MTurk/v2_DepthDuration_HTML.html#350,350,1280,720,1280,720,8-29-2022,11-25-29,107,depth_duration_stimuli/002750_2014-06-22_19-08-03_094959634447_rgbf000094-resize_4/002750_2014-06-22_19-08-03_094959634447_rgbf000094-resize_4-target.png,125,2.354,3.0,3563,124,feet,jsons/VE125_randls_67.json,689059,911773,55,Woman
107,357674,DepthScenes,duration_manipulation_targetAtFixation,jsons/VE125_randls_67.json,http://54.235.29.9/FacialAge/BNav_EC2/DepthDuration/v2_depth_duration_MTurk/v2_DepthDuration_HTML.html#350,350,1280,720,1280,720,8-29-2022,11-25-29,108,depth_duration_stimuli/001011_2014-06-08_23-18-54_260595134347_rgbf000044-resize_4/001011_2014-06-08_23-18-54_260595134347_rgbf000044-resize_4-target.png,125,2.4730000000000003,4.0,2864,124,feet,jsons/VE125_randls_67.json,689059,911773,55,Woman
108,357674,DepthScenes,duration_manipulation_targetAtFixation,jsons/VE125_randls_67.json,http://54.235.29.9/FacialAge/BNav_EC2/DepthDuration/v2_depth_duration_MTurk/v2_DepthDuration_HTML.html#350,350,1280,720,1280,720,8-29-2022,11-25-29,109,depth_duration_stimuli/002875_2014-06-01_15-19-00_094959634447_rgbf000151-resize_1/002875_2014-06-01_15-19-00_094959634447_rgbf000151-resize_1-target.png,125,1.9675,3.5,4549,135,feet,jsons/VE125_randls_67.json,689059,911773,55,Woman
109,357674,DepthScenes,duration_manipulation_targetAtFixation,jsons/VE125_randls_67.json,http://54.235.29.9/FacialAge/BNav_EC2/DepthDuration/v2_depth_duration_MTurk/v2_DepthDuration_HTML.html#350,350,1280,720,1280,720,8-29-2022,11-25-29,110,depth_duration_stimuli/002279_2014-06-28_18-55-32_260595134347_rgbf000040-resize_5/002279_2014-06-28_18-55-32_260595134347_rgbf000040-resize_5-target.png,125,1.5043333333333,1.0,4257,125,feet,jsons/VE125_randls_67.json,689059,911773,55,Woman
110,357674,DepthScenes,duration_manipulation_targetAtFixation,jsons/VE125_randls_67.json,http://54.235.29.9/FacialAge/BNav_EC2/DepthDuration/v2_depth_duration_MTurk/v2_DepthDuration_HTML.html#350,350,1280,720,1280,720,8-29-2022,11-25-29,111,depth_duration_stimuli/000635_2014-06-08_16-38-42_260595134347_rgbf000106-resize_1/000635_2014-06-08_16-38-42_260595134347_rgbf000106-resize_1-target.png,125,2.074,2.5,4083,128,feet,jsons/VE125_randls_67.json,689059,911773,55,Woman
111,357674,DepthScenes,duration_manipulation_targetAtFixation,jsons/VE125_randls_67.json,http://54.235.29.9/FacialAge/BNav_EC2/DepthDuration/v2_depth_duration_MTurk/v2_DepthDuration_HTML.html#350,350,1280,720,1280,720,8-29-2022,11-25-29,112,depth_duration_stimuli/000486_2014-06-09_20-47-20_260595134347_rgbf000143-resize_2/000486_2014-06-09_20-47-20_260595134347_rgbf000143-resize_2-target.png,125,4.8325,3.0,4770,124,feet,jsons/VE125_randls_67.json,689059,911773,55,Woman
112,357674,DepthScenes,duration_manipulation_targetAtFixation,jsons/VE125_randls_67.json,http://54.235.29.9/FacialAge/BNav_EC2/DepthDuration/v2_depth_duration_MTurk/v2_DepthDuration_HTML.html#350,350,1280,720,1280,720,8-29-2022,11-25-29,113,depth_duration_stimuli/003083_2014-06-15_15-21-03_094959634447_rgbf000063-resize_1/003083_2014-06-15_15-21-03_094959634447_rgbf000063-resize_1-target.png,125,4.1405,3.0,10568,124,feet,jsons/VE125_randls_67.json,689059,911773,55,Woman
113,357674,DepthScenes,duration_manipulation_targetAtFixation,jsons/VE125_randls_67.json,http://54.235.29.9/FacialAge/BNav_EC2/DepthDuration/v2_depth_duration_MTurk/v2_DepthDuration_HTML.html#350,350,1280,720,1280,720,8-29-2022,11-25-29,114,depth_duration_stimuli/001555_2014-06-20_17-12-10_260595134347_rgbf000065-resize_4/001555_2014-06-20_17-12-10_260595134347_rgbf000065-resize_4-target.png,125,1.633,1.0,3045,123,feet,jsons/VE125_randls_67.json,689059,911773,55,Woman
114,357674,DepthScenes,duration_manipulation_targetAtFixation,jsons/VE125_randls_67.json,http://54.235.29.9/FacialAge/BNav_EC2/DepthDuration/v2_depth_duration_MTurk/v2_DepthDuration_HTML.html#350,350,1280,720,1280,720,8-29-2022,11-25-29,115,depth_duration_stimuli/000103_2014-05-14_22-01-17_260595134347_rgbf000152-resize_5/000103_2014-05-14_22-01-17_260595134347_rgbf000152-resize_5-target.png,125,1.993,2.5,5272,123,feet,jsons/VE125_randls_67.json,689059,911773,55,Woman
115,357674,DepthScenes,duration_manipulation_targetAtFixation,jsons/VE125_randls_67.json,http://54.235.29.9/FacialAge/BNav_EC2/DepthDuration/v2_depth_duration_MTurk/v2_DepthDuration_HTML.html#350,350,1280,720,1280,720,8-29-2022,11-25-29,116,depth_duration_stimuli/001170_2014-06-17_15-43-44_260595134347_rgbf000096-resize_6/001170_2014-06-17_15-43-44_260595134347_rgbf000096-resize-original.jpg,125,1.1909999999999998,0.0,2866,195,feet,jsons/VE125_randls_67.json,689059,911773,55,Woman
116,357674,DepthScenes,duration_manipulation_targetAtFixation,jsons/VE125_randls_67.json,http://54.235.29.9/FacialAge/BNav_EC2/DepthDuration/v2_depth_duration_MTurk/v2_DepthDuration_HTML.html#350,350,1280,720,1280,720,8-29-2022,11-25-29,117,depth_duration_stimuli/001158_2014-06-17_15-32-16_260595134347_rgbf000138-resize_2/001158_2014-06-17_15-32-16_260595134347_rgbf000138-resize_2-target.png,125,4.5315,0.0,3975,124,feet,jsons/VE125_randls_67.json,689059,911773,55,Woman
117,357674,DepthScenes,duration_manipulation_targetAtFixation,jsons/VE125_randls_67.json,http://54.235.29.9/FacialAge/BNav_EC2/DepthDuration/v2_depth_duration_MTurk/v2_DepthDuration_HTML.html#350,350,1280,720,1280,720,8-29-2022,11-25-29,118,depth_duration_stimuli/000556_2014-06-09_22-42-56_260595134347_rgbf000214-resize_1/000556_2014-06-09_22-42-56_260595134347_rgbf000214-resize_1-target.png,125,4.8415,1.5,3797,23,feet,jsons/VE125_randls_67.json,689059,911773,55,Woman
118,357674,DepthScenes,duration_manipulation_targetAtFixation,jsons/VE125_randls_67.json,http://54.235.29.9/FacialAge/BNav_EC2/DepthDuration/v2_depth_duration_MTurk/v2_DepthDuration_HTML.html#350,350,1280,720,1280,720,8-29-2022,11-25-29,119,depth_duration_stimuli/000929_2014-06-09_16-33-19_260595134347_rgbf000139-resize_0/000929_2014-06-09_16-33-19_260595134347_rgbf000139-resize_0-target.png,125,2.8680000000000003,1.0,4155,122,feet,jsons/VE125_randls_67.json,689059,911773,55,Woman
119,357674,DepthScenes,duration_manipulation_targetAtFixation,jsons/VE125_randls_67.json,http://54.235.29.9/FacialAge/BNav_EC2/DepthDuration/v2_depth_duration_MTurk/v2_DepthDuration_HTML.html#350,350,1280,720,1280,720,8-29-2022,11-25-29,120,depth_duration_stimuli/000457_2014-06-08_16-52-43_260595134347_rgbf000199-resize_1/000457_2014-06-08_16-52-43_260595134347_rgbf000199-resize_1-target.png,125,3.6489999999999996,2.5,3917,45,feet,jsons/VE125_randls_67.json,689059,911773,55,Woman
120,357674,DepthScenes,duration_manipulation_targetAtFixation,jsons/VE125_randls_67.json,http://54.235.29.9/FacialAge/BNav_EC2/DepthDuration/v2_depth_duration_MTurk/v2_DepthDuration_HTML.html#350,350,1280,720,1280,720,8-29-2022,11-25-29,121,depth_duration_stimuli/003492_2014-05-21_15-50-55_094959634447_rgbf000828-resize_1/003492_2014-05-21_15-50-55_094959634447_rgbf000828-resize_1-target.png,125,4.06875,1.5,3293,124,feet,jsons/VE125_randls_67.json,689059,911773,55,Woman
121,357674,DepthScenes,duration_manipulation_targetAtFixation,jsons/VE125_randls_67.json,http://54.235.29.9/FacialAge/BNav_EC2/DepthDuration/v2_depth_duration_MTurk/v2_DepthDuration_HTML.html#350,350,1280,720,1280,720,8-29-2022,11-25-29,122,depth_duration_stimuli/002568_2014-06-24_13-59-21_094959634447_rgbf000062-resize_4/002568_2014-06-24_13-59-21_094959634447_rgbf000062-resize_4-target.png,125,3.015,1.5,2888,24,feet,jsons/VE125_randls_67.json,689059,911773,55,Woman
122,357674,DepthScenes,duration_manipulation_targetAtFixation,jsons/VE125_randls_67.json,http://54.235.29.9/FacialAge/BNav_EC2/DepthDuration/v2_depth_duration_MTurk/v2_DepthDuration_HTML.html#350,350,1280,720,1280,720,8-29-2022,11-25-29,123,depth_duration_stimuli/000788_2014-06-08_22-34-36_260595134347_rgbf000131-resize_1/000788_2014-06-08_22-34-36_260595134347_rgbf000131-resize_1-target.png,125,3.359,1.0,3963,123,feet,jsons/VE125_randls_67.json,689059,911773,55,Woman
123,357674,DepthScenes,duration_manipulation_targetAtFixation,jsons/VE125_randls_67.json,http://54.235.29.9/FacialAge/BNav_EC2/DepthDuration/v2_depth_duration_MTurk/v2_DepthDuration_HTML.html#350,350,1280,720,1280,720,8-29-2022,11-25-29,124,depth_duration_stimuli/001235_2014-06-17_16-37-36_260595134347_rgbf000084-resize_4/001235_2014-06-17_16-37-36_260595134347_rgbf000084-resize_4-target.png,125,3.6605,1.0,5887,136,feet,jsons/VE125_randls_67.json,689059,911773,55,Woman
124,357674,DepthScenes,duration_manipulation_targetAtFixation,jsons/VE125_randls_67.json,http://54.235.29.9/FacialAge/BNav_EC2/DepthDuration/v2_depth_duration_MTurk/v2_DepthDuration_HTML.html#350,350,1280,720,1280,720,8-29-2022,11-25-29,125,depth_duration_stimuli/001808_2014-06-26_20-50-58_260595134347_rgbf000029-resize_1/001808_2014-06-26_20-50-58_260595134347_rgbf000029-resize_1-target.png,125,4.249,2.5,4774,132,feet,jsons/VE125_randls_67.json,689059,911773,55,Woman
125,357674,DepthScenes,duration_manipulation_targetAtFixation,jsons/VE125_randls_67.json,http://54.235.29.9/FacialAge/BNav_EC2/DepthDuration/v2_depth_duration_MTurk/v2_DepthDuration_HTML.html#350,350,1280,720,1280,720,8-29-2022,11-25-29,126,depth_duration_stimuli/001815_2014-06-26_20-52-55_260595134347_rgbf000020-resize_0/001815_2014-06-26_20-52-55_260595134347_rgbf000020-resize_0-target.png,125,3.3865,4.0,4805,141,feet,jsons/VE125_randls_67.json,689059,911773,55,Woman
126,357674,DepthScenes,duration_manipulation_targetAtFixation,jsons/VE125_randls_67.json,http://54.235.29.9/FacialAge/BNav_EC2/DepthDuration/v2_depth_duration_MTurk/v2_DepthDuration_HTML.html#350,350,1280,720,1280,720,8-29-2022,11-25-29,127,depth_duration_stimuli/002118_2014-06-25_20-32-08_260595134347_rgbf000078-resize_1/002118_2014-06-25_20-32-08_260595134347_rgbf000078-resize_1-target.png,125,2.6460000000000004,0.5,4015,127,feet,jsons/VE125_randls_67.json,689059,911773,55,Woman
127,357674,DepthScenes,duration_manipulation_targetAtFixation,jsons/VE125_randls_67.json,http://54.235.29.9/FacialAge/BNav_EC2/DepthDuration/v2_depth_duration_MTurk/v2_DepthDuration_HTML.html#350,350,1280,720,1280,720,8-29-2022,11-25-29,128,depth_duration_stimuli/001516_2014-06-20_16-25-09_260595134347_rgbf000076-resize_2/001516_2014-06-20_16-25-09_260595134347_rgbf000076-resize_2-target.png,125,1.7445,3.5,3995,252,feet,jsons/VE125_randls_67.json,689059,911773,55,Woman
128,357674,DepthScenes,duration_manipulation_targetAtFixation,jsons/VE125_randls_67.json,http://54.235.29.9/FacialAge/BNav_EC2/DepthDuration/v2_depth_duration_MTurk/v2_DepthDuration_HTML.html#350,350,1280,720,1280,720,8-29-2022,11-25-29,129,depth_duration_stimuli/003621_2014-05-23_18-06-08_094959634447_rgbf000101-resize_1/003621_2014-05-23_18-06-08_094959634447_rgbf000101-resize_1-target.png,125,3.9835,3.5,10400,138,feet,jsons/VE125_randls_67.json,689059,911773,55,Woman
129,357674,DepthScenes,duration_manipulation_targetAtFixation,jsons/VE125_randls_67.json,http://54.235.29.9/FacialAge/BNav_EC2/DepthDuration/v2_depth_duration_MTurk/v2_DepthDuration_HTML.html#350,350,1280,720,1280,720,8-29-2022,11-25-29,130,depth_duration_stimuli/001584_2014-06-20_11-07-43_260595134347_rgbf000002-resize_1/001584_2014-06-20_11-07-43_260595134347_rgbf000002-resize_1-target.png,125,3.53,2.0,3275,123,feet,jsons/VE125_randls_67.json,689059,911773,55,Woman
130,357674,DepthScenes,duration_manipulation_targetAtFixation,jsons/VE125_randls_67.json,http://54.235.29.9/FacialAge/BNav_EC2/DepthDuration/v2_depth_duration_MTurk/v2_DepthDuration_HTML.html#350,350,1280,720,1280,720,8-29-2022,11-25-29,131,depth_duration_stimuli/003292_2014-05-14_21-53-49_094959634447_rgbf000100-resize_2/003292_2014-05-14_21-53-49_094959634447_rgbf000100-resize_2-target.png,125,3.4815,2.0,3162,124,feet,jsons/VE125_randls_67.json,689059,911773,55,Woman
131,357674,DepthScenes,duration_manipulation_targetAtFixation,jsons/VE125_randls_67.json,http://54.235.29.9/FacialAge/BNav_EC2/DepthDuration/v2_depth_duration_MTurk/v2_DepthDuration_HTML.html#350,350,1280,720,1280,720,8-29-2022,11-25-29,132,depth_duration_stimuli/002639_2014-06-24_14-51-37_094959634447_rgbf000074-resize_4/002639_2014-06-24_14-51-37_094959634447_rgbf000074-resize_4-target.png,125,4.0375,2.0,2473,250,feet,jsons/VE125_randls_67.json,689059,911773,55,Woman
132,357674,DepthScenes,duration_manipulation_targetAtFixation,jsons/VE125_randls_67.json,http://54.235.29.9/FacialAge/BNav_EC2/DepthDuration/v2_depth_duration_MTurk/v2_DepthDuration_HTML.html#350,350,1280,720,1280,720,8-29-2022,11-25-29,133,depth_duration_stimuli/001029_2014-06-08_13-17-57_260595134347_rgbf000065-resize_1/001029_2014-06-08_13-17-57_260595134347_rgbf000065-resize_1-target.png,125,3.0835,3.5,3919,125,feet,jsons/VE125_randls_67.json,689059,911773,55,Woman
133,357674,DepthScenes,duration_manipulation_targetAtFixation,jsons/VE125_randls_67.json,http://54.235.29.9/FacialAge/BNav_EC2/DepthDuration/v2_depth_duration_MTurk/v2_DepthDuration_HTML.html#350,350,1280,720,1280,720,8-29-2022,11-25-29,134,depth_duration_stimuli/000677_2014-06-08_23-10-32_260595134347_rgbf000158-resize_6/000677_2014-06-08_23-10-32_260595134347_rgbf000158-resize_6-target.png,125,3.556,3.0,3282,189,feet,jsons/VE125_randls_67.json,689059,911773,55,Woman
134,357674,DepthScenes,duration_manipulation_targetAtFixation,jsons/VE125_randls_67.json,http://54.235.29.9/FacialAge/BNav_EC2/DepthDuration/v2_depth_duration_MTurk/v2_DepthDuration_HTML.html#350,350,1280,720,1280,720,8-29-2022,11-25-29,135,depth_duration_stimuli/002072_2014-06-24_21-48-06_260595134347_rgbf000115-resize_0/002072_2014-06-24_21-48-06_260595134347_rgbf000115-resize-original.jpg,125,4.702,0.0,3778,124,feet,jsons/VE125_randls_67.json,689059,911773,55,Woman
135,357674,DepthScenes,duration_manipulation_targetAtFixation,jsons/VE125_randls_67.json,http://54.235.29.9/FacialAge/BNav_EC2/DepthDuration/v2_depth_duration_MTurk/v2_DepthDuration_HTML.html#350,350,1280,720,1280,720,8-29-2022,11-25-29,136,depth_duration_stimuli/002748_2014-06-22_19-07-22_094959634447_rgbf000078-resize_1/002748_2014-06-22_19-07-22_094959634447_rgbf000078-resize_1-target.png,125,4.6705,5.0,3906,175,feet,jsons/VE125_randls_67.json,689059,911773,55,Woman
136,357674,DepthScenes,duration_manipulation_targetAtFixation,jsons/VE125_randls_67.json,http://54.235.29.9/FacialAge/BNav_EC2/DepthDuration/v2_depth_duration_MTurk/v2_DepthDuration_HTML.html#350,350,1280,720,1280,720,8-29-2022,11-25-29,137,depth_duration_stimuli/002995_2014-06-15_12-31-26_094959634447_rgbf000150-resize_1/002995_2014-06-15_12-31-26_094959634447_rgbf000150-resize_1-target.png,125,3.8360000000000003,4.0,3840,269,feet,jsons/VE125_randls_67.json,689059,911773,55,Woman
137,357674,DepthScenes,duration_manipulation_targetAtFixation,jsons/VE125_randls_67.json,http://54.235.29.9/FacialAge/BNav_EC2/DepthDuration/v2_depth_duration_MTurk/v2_DepthDuration_HTML.html#350,350,1280,720,1280,720,8-29-2022,11-25-29,138,depth_duration_stimuli/002784_2014-06-22_19-26-30_094959634447_rgbf000083-resize_3/002784_2014-06-22_19-26-30_094959634447_rgbf000083-resize_3-target.png,125,1.8046666666667,0.5,3384,127,feet,jsons/VE125_randls_67.json,689059,911773,55,Woman
138,357674,DepthScenes,duration_manipulation_targetAtFixation,jsons/VE125_randls_67.json,http://54.235.29.9/FacialAge/BNav_EC2/DepthDuration/v2_depth_duration_MTurk/v2_DepthDuration_HTML.html#350,350,1280,720,1280,720,8-29-2022,11-25-29,139,depth_duration_stimuli/001100_2014-06-15_17-46-26_260595134347_rgbf000225-resize_2/001100_2014-06-15_17-46-26_260595134347_rgbf000225-resize_2-target.png,125,2.24,0.5,4105,133,feet,jsons/VE125_randls_67.json,689059,911773,55,Woman
139,357674,DepthScenes,duration_manipulation_targetAtFixation,jsons/VE125_randls_67.json,http://54.235.29.9/FacialAge/BNav_EC2/DepthDuration/v2_depth_duration_MTurk/v2_DepthDuration_HTML.html#350,350,1280,720,1280,720,8-29-2022,11-25-29,140,depth_duration_stimuli/002057_2014-06-24_21-00-13_260595134347_rgbf000120-resize_1/002057_2014-06-24_21-00-13_260595134347_rgbf000120-resize_1-target.png,125,2.967,4.0,4872,114,feet,jsons/VE125_randls_67.json,689059,911773,55,Woman
140,357674,DepthScenes,duration_manipulation_targetAtFixation,jsons/VE125_randls_67.json,http://54.235.29.9/FacialAge/BNav_EC2/DepthDuration/v2_depth_duration_MTurk/v2_DepthDuration_HTML.html#350,350,1280,720,1280,720,8-29-2022,11-25-29,141,depth_duration_stimuli/000709_2014-06-08_13-51-55_260595134347_rgbf000068-resize_3/000709_2014-06-08_13-51-55_260595134347_rgbf000068-resize_3-target.png,125,1.8030000000000002,5.0,3075,127,feet,jsons/VE125_randls_67.json,689059,911773,55,Woman
141,357674,DepthScenes,duration_manipulation_targetAtFixation,jsons/VE125_randls_67.json,http://54.235.29.9/FacialAge/BNav_EC2/DepthDuration/v2_depth_duration_MTurk/v2_DepthDuration_HTML.html#350,350,1280,720,1280,720,8-29-2022,11-25-29,142,depth_duration_stimuli/001110_2014-06-15_17-25-28_260595134347_rgbf000150-resize_1/001110_2014-06-15_17-25-28_260595134347_rgbf000150-resize_1-target.png,125,1.7115,4.0,4727,251,feet,jsons/VE125_randls_67.json,689059,911773,55,Woman
142,357674,DepthScenes,duration_manipulation_targetAtFixation,jsons/VE125_randls_67.json,http://54.235.29.9/FacialAge/BNav_EC2/DepthDuration/v2_depth_duration_MTurk/v2_DepthDuration_HTML.html#350,350,1280,720,1280,720,8-29-2022,11-25-29,143,depth_duration_stimuli/000927_2014-06-09_16-32-30_260595134347_rgbf000123-resize_3/000927_2014-06-09_16-32-30_260595134347_rgbf000123-resize_3-target.png,125,2.6785,3.0,3923,151,feet,jsons/VE125_randls_67.json,689059,911773,55,Woman
143,357674,DepthScenes,duration_manipulation_targetAtFixation,jsons/VE125_randls_67.json,http://54.235.29.9/FacialAge/BNav_EC2/DepthDuration/v2_depth_duration_MTurk/v2_DepthDuration_HTML.html#350,350,1280,720,1280,720,8-29-2022,11-25-29,144,depth_duration_stimuli/002039_2014-06-24_20-22-38_260595134347_rgbf000084-resize_1/002039_2014-06-24_20-22-38_260595134347_rgbf000084-resize_1-target.png,125,4.408,4.0,3671,118,feet,jsons/VE125_randls_67.json,689059,911773,55,Woman
144,357674,DepthScenes,duration_manipulation_targetAtFixation,jsons/VE125_randls_67.json,http://54.235.29.9/FacialAge/BNav_EC2/DepthDuration/v2_depth_duration_MTurk/v2_DepthDuration_HTML.html#350,350,1280,720,1280,720,8-29-2022,11-25-29,145,depth_duration_stimuli/002103_2014-06-25_20-00-40_260595134347_rgbf000049-resize_0/002103_2014-06-25_20-00-40_260595134347_rgbf000049-resize_0-target.png,125,4.105,4.0,6022,150,feet,jsons/VE125_randls_67.json,689059,911773,55,Woman
145,357674,DepthScenes,duration_manipulation_targetAtFixation,jsons/VE125_randls_67.json,http://54.235.29.9/FacialAge/BNav_EC2/DepthDuration/v2_depth_duration_MTurk/v2_DepthDuration_HTML.html#350,350,1280,720,1280,720,8-29-2022,11-25-29,146,depth_duration_stimuli/001498_2014-06-19_17-45-14_260595134347_rgbf000129-resize_4/001498_2014-06-19_17-45-14_260595134347_rgbf000129-resize-original.jpg,125,1.4075,0.0,2958,122,feet,jsons/VE125_randls_67.json,689059,911773,55,Woman
146,357674,DepthScenes,duration_manipulation_targetAtFixation,jsons/VE125_randls_67.json,http://54.235.29.9/FacialAge/BNav_EC2/DepthDuration/v2_depth_duration_MTurk/v2_DepthDuration_HTML.html#350,350,1280,720,1280,720,8-29-2022,11-25-29,147,depth_duration_stimuli/002663_2014-06-13_15-50-26_094959634447_rgbf000075-resize_1/002663_2014-06-13_15-50-26_094959634447_rgbf000075-resize_1-target.png,125,4.7495,3.0,3712,65,feet,jsons/VE125_randls_67.json,689059,911773,55,Woman
147,357674,DepthScenes,duration_manipulation_targetAtFixation,jsons/VE125_randls_67.json,http://54.235.29.9/FacialAge/BNav_EC2/DepthDuration/v2_depth_duration_MTurk/v2_DepthDuration_HTML.html#350,350,1280,720,1280,720,8-29-2022,11-25-29,148,depth_duration_stimuli/000409_2014-06-04_19-23-33_260595134347_rgbf000067-resize_0/000409_2014-06-04_19-23-33_260595134347_rgbf000067-resize_0-target.png,125,3.7335,4.0,3965,254,feet,jsons/VE125_randls_67.json,689059,911773,55,Woman
148,357674,DepthScenes,duration_manipulation_targetAtFixation,jsons/VE125_randls_67.json,http://54.235.29.9/FacialAge/BNav_EC2/DepthDuration/v2_depth_duration_MTurk/v2_DepthDuration_HTML.html#350,350,1280,720,1280,720,8-29-2022,11-25-29,149,depth_duration_stimuli/001055_2014-06-08_18-45-35_260595134347_rgbf000111-resize_4/001055_2014-06-08_18-45-35_260595134347_rgbf000111-resize_4-target.png,125,2.4290000000000003,4.0,2028,118,feet,jsons/VE125_randls_67.json,689059,911773,55,Woman
149,357674,DepthScenes,duration_manipulation_targetAtFixation,jsons/VE125_randls_67.json,http://54.235.29.9/FacialAge/BNav_EC2/DepthDuration/v2_depth_duration_MTurk/v2_DepthDuration_HTML.html#350,350,1280,720,1280,720,8-29-2022,11-25-29,150,depth_duration_stimuli/000549_2014-06-08_22-10-24_260595134347_rgbf000247-resize_3/000549_2014-06-08_22-10-24_260595134347_rgbf000247-resize_3-target.png,125,1.841,1.0,3869,117,feet,jsons/VE125_randls_67.json,689059,911773,55,Woman
150,357674,DepthScenes,duration_manipulation_targetAtFixation,jsons/VE125_randls_67.json,http://54.235.29.9/FacialAge/BNav_EC2/DepthDuration/v2_depth_duration_MTurk/v2_DepthDuration_HTML.html#350,350,1280,720,1280,720,8-29-2022,11-25-29,151,depth_duration_stimuli/000506_2014-06-08_23-21-00_260595134347_rgbf000070-resize_7/000506_2014-06-08_23-21-00_260595134347_rgbf000070-resize_7-target.png,125,4.0585,2.0,3352,104,feet,jsons/VE125_randls_67.json,689059,911773,55,Woman
151,357674,DepthScenes,duration_manipulation_targetAtFixation,jsons/VE125_randls_67.json,http://54.235.29.9/FacialAge/BNav_EC2/DepthDuration/v2_depth_duration_MTurk/v2_DepthDuration_HTML.html#350,350,1280,720,1280,720,8-29-2022,11-25-29,152,depth_duration_stimuli/003079_2014-06-15_15-18-20_094959634447_rgbf000152-resize_8/003079_2014-06-15_15-18-20_094959634447_rgbf000152-resize_8-target.png,125,2.8775,4.0,3484,95,feet,jsons/VE125_randls_67.json,689059,911773,55,Woman
152,357674,DepthScenes,duration_manipulation_targetAtFixation,jsons/VE125_randls_67.json,http://54.235.29.9/FacialAge/BNav_EC2/DepthDuration/v2_depth_duration_MTurk/v2_DepthDuration_HTML.html#350,350,1280,720,1280,720,8-29-2022,11-25-29,153,depth_duration_stimuli/000414_2014-06-04_19-49-13_260595134347_rgbf000044-resize_0/000414_2014-06-04_19-49-13_260595134347_rgbf000044-resize_0-target.png,125,4.329,3.0,3720,123,feet,jsons/VE125_randls_67.json,689059,911773,55,Woman
153,357674,DepthScenes,duration_manipulation_targetAtFixation,jsons/VE125_randls_67.json,http://54.235.29.9/FacialAge/BNav_EC2/DepthDuration/v2_depth_duration_MTurk/v2_DepthDuration_HTML.html#350,350,1280,720,1280,720,8-29-2022,11-25-29,154,depth_duration_stimuli/003129_2014-05-12_10-48-10_094959634447_rgbf000100-resize_0/003129_2014-05-12_10-48-10_094959634447_rgbf000100-resize_0-target.png,125,4.9305,5.0,3306,123,feet,jsons/VE125_randls_67.json,689059,911773,55,Woman
154,357674,DepthScenes,duration_manipulation_targetAtFixation,jsons/VE125_randls_67.json,http://54.235.29.9/FacialAge/BNav_EC2/DepthDuration/v2_depth_duration_MTurk/v2_DepthDuration_HTML.html#350,350,1280,720,1280,720,8-29-2022,11-25-29,155,depth_duration_stimuli/002988_2014-06-15_12-24-20_094959634447_rgbf000150-resize_1/002988_2014-06-15_12-24-20_094959634447_rgbf000150-resize_1-target.png,125,4.7669999999999995,5.0,2274,123,feet,jsons/VE125_randls_67.json,689059,911773,55,Woman
155,357674,DepthScenes,duration_manipulation_targetAtFixation,jsons/VE125_randls_67.json,http://54.235.29.9/FacialAge/BNav_EC2/DepthDuration/v2_depth_duration_MTurk/v2_DepthDuration_HTML.html#350,350,1280,720,1280,720,8-29-2022,11-25-29,156,depth_duration_stimuli/001052_2014-06-08_18-24-54_260595134347_rgbf000130-resize_1/001052_2014-06-08_18-24-54_260595134347_rgbf000130-resize_1-target.png,125,4.1045,5.0,2255,173,feet,jsons/VE125_randls_67.json,689059,911773,55,Woman
156,357674,DepthScenes,duration_manipulation_targetAtFixation,jsons/VE125_randls_67.json,http://54.235.29.9/FacialAge/BNav_EC2/DepthDuration/v2_depth_duration_MTurk/v2_DepthDuration_HTML.html#350,350,1280,720,1280,720,8-29-2022,11-25-29,157,depth_duration_stimuli/002964_2014-06-08_17-46-11_094959634447_rgbf000091-resize_4/002964_2014-06-08_17-46-11_094959634447_rgbf000091-resize_4-target.png,125,1.6909999999999998,1.0,2464,138,feet,jsons/VE125_randls_67.json,689059,911773,55,Woman
157,357674,DepthScenes,duration_manipulation_targetAtFixation,jsons/VE125_randls_67.json,http://54.235.29.9/FacialAge/BNav_EC2/DepthDuration/v2_depth_duration_MTurk/v2_DepthDuration_HTML.html#350,350,1280,720,1280,720,8-29-2022,11-25-29,158,depth_duration_stimuli/002136_2014-06-25_21-18-03_260595134347_rgbf000109-resize_3/002136_2014-06-25_21-18-03_260595134347_rgbf000109-resize_3-target.png,125,1.9569999999999999,1.5,3256,123,feet,jsons/VE125_randls_67.json,689059,911773,55,Woman
158,357674,DepthScenes,duration_manipulation_targetAtFixation,jsons/VE125_randls_67.json,http://54.235.29.9/FacialAge/BNav_EC2/DepthDuration/v2_depth_duration_MTurk/v2_DepthDuration_HTML.html#350,350,1280,720,1280,720,8-29-2022,11-25-29,159,depth_duration_stimuli/002375_2014-06-28_20-13-44_260595134347_rgbf000032-resize_1/002375_2014-06-28_20-13-44_260595134347_rgbf000032-resize_1-target.png,125,4.0175,1.0,2887,124,feet,jsons/VE125_randls_67.json,689059,911773,55,Woman
159,357674,DepthScenes,duration_manipulation_targetAtFixation,jsons/VE125_randls_67.json,http://54.235.29.9/FacialAge/BNav_EC2/DepthDuration/v2_depth_duration_MTurk/v2_DepthDuration_HTML.html#350,350,1280,720,1280,720,8-29-2022,11-25-29,160,depth_duration_stimuli/002657_2014-06-13_15-29-54_094959634447_rgbf000150-resize_1/002657_2014-06-13_15-29-54_094959634447_rgbf000150-resize_1-target.png,125,4.919,1.0,1940,106,feet,jsons/VE125_randls_67.json,689059,911773,55,Woman
160,357674,DepthScenes,duration_manipulation_targetAtFixation,jsons/VE125_randls_67.json,http://54.235.29.9/FacialAge/BNav_EC2/DepthDuration/v2_depth_duration_MTurk/v2_DepthDuration_HTML.html#350,350,1280,720,1280,720,8-29-2022,11-25-29,161,depth_duration_stimuli/001133_2014-06-17_14-49-16_260595134347_rgbf000100-resize_0/001133_2014-06-17_14-49-16_260595134347_rgbf000100-resize_0-target.png,125,4.2115,2.0,2935,125,feet,jsons/VE125_randls_67.json,689059,911773,55,Woman
161,357674,DepthScenes,duration_manipulation_targetAtFixation,jsons/VE125_randls_67.json,http://54.235.29.9/FacialAge/BNav_EC2/DepthDuration/v2_depth_duration_MTurk/v2_DepthDuration_HTML.html#350,350,1280,720,1280,720,8-29-2022,11-25-29,162,depth_duration_stimuli/001132_2014-06-17_14-48-54_260595134347_rgbf000100-resize_2/001132_2014-06-17_14-48-54_260595134347_rgbf000100-resize_2-target.png,125,3.753,2.0,2537,215,feet,jsons/VE125_randls_67.json,689059,911773,55,Woman
162,357674,DepthScenes,duration_manipulation_targetAtFixation,jsons/VE125_randls_67.json,http://54.235.29.9/FacialAge/BNav_EC2/DepthDuration/v2_depth_duration_MTurk/v2_DepthDuration_HTML.html#350,350,1280,720,1280,720,8-29-2022,11-25-29,163,depth_duration_stimuli/002989_2014-06-15_12-25-03_094959634447_rgbf000150-resize_3/002989_2014-06-15_12-25-03_094959634447_rgbf000150-resize_3-target.png,125,4.1975,4.0,3193,156,feet,jsons/VE125_randls_67.json,689059,911773,55,Woman
163,357674,DepthScenes,duration_manipulation_targetAtFixation,jsons/VE125_randls_67.json,http://54.235.29.9/FacialAge/BNav_EC2/DepthDuration/v2_depth_duration_MTurk/v2_DepthDuration_HTML.html#350,350,1280,720,1280,720,8-29-2022,11-25-29,164,depth_duration_stimuli/000866_2014-06-09_20-45-42_260595134347_rgbf000139-resize_1/000866_2014-06-09_20-45-42_260595134347_rgbf000139-resize_1-target.png,125,3.2155,4.0,3851,125,feet,jsons/VE125_randls_67.json,689059,911773,55,Woman
