,subjID,experimentName,versionName,sequenceName,url,selected_row,windowWidth,windowHeight,screenWidth,screenHeight,startDate,startTime,trial,stimulus,duration,actual_depth,depth_estimate,trial_RT,log_sceneDuration,unitSelection,seq_filepath,experimentTime,totalTime,age,gender
0,357726,DepthScenes,duration_manipulation_targetAtFixation,jsons/VE125_randls_41.json,http://54.235.29.9/FacialAge/BNav_EC2/DepthDuration/v2_depth_duration_MTurk/v2_DepthDuration_HTML.html#467,467,1366,657,1366,768,8-29-2022,10-42-32,1,depth_duration_stimuli/002213_2014-06-28_18-37-58_260595134347_rgbf000055-resize_1/002213_2014-06-28_18-37-58_260595134347_rgbf000055-resize_1-target.png,125,3.62,0,3867,132,meters,jsons/VE125_randls_41.json,691526,2691933,45,Woman
1,357726,DepthScenes,duration_manipulation_targetAtFixation,jsons/VE125_randls_41.json,http://54.235.29.9/FacialAge/BNav_EC2/DepthDuration/v2_depth_duration_MTurk/v2_DepthDuration_HTML.html#467,467,1366,657,1366,768,8-29-2022,10-42-32,2,depth_duration_stimuli/000691_2014-06-08_13-08-50_260595134347_rgbf000132-resize_3/000691_2014-06-08_13-08-50_260595134347_rgbf000132-resize_3-target.png,125,4.1530000000000005,1,2755,118,meters,jsons/VE125_randls_41.json,691526,2691933,45,Woman
2,357726,DepthScenes,duration_manipulation_targetAtFixation,jsons/VE125_randls_41.json,http://54.235.29.9/FacialAge/BNav_EC2/DepthDuration/v2_depth_duration_MTurk/v2_DepthDuration_HTML.html#467,467,1366,657,1366,768,8-29-2022,10-42-32,3,depth_duration_stimuli/001055_2014-06-08_18-45-35_260595134347_rgbf000111-resize_4/001055_2014-06-08_18-45-35_260595134347_rgbf000111-resize_4-target.png,125,2.4290000000000003,2,2416,110,meters,jsons/VE125_randls_41.json,691526,2691933,45,Woman
3,357726,DepthScenes,duration_manipulation_targetAtFixation,jsons/VE125_randls_41.json,http://54.235.29.9/FacialAge/BNav_EC2/DepthDuration/v2_depth_duration_MTurk/v2_DepthDuration_HTML.html#467,467,1366,657,1366,768,8-29-2022,10-42-32,4,depth_duration_stimuli/000549_2014-06-08_22-10-24_260595134347_rgbf000247-resize_3/000549_2014-06-08_22-10-24_260595134347_rgbf000247-resize_3-target.png,125,1.841,2,3975,123,meters,jsons/VE125_randls_41.json,691526,2691933,45,Woman
4,357726,DepthScenes,duration_manipulation_targetAtFixation,jsons/VE125_randls_41.json,http://54.235.29.9/FacialAge/BNav_EC2/DepthDuration/v2_depth_duration_MTurk/v2_DepthDuration_HTML.html#467,467,1366,657,1366,768,8-29-2022,10-42-32,5,depth_duration_stimuli/002509_2014-06-24_13-19-22_094959634447_rgbf000077-resize_0/002509_2014-06-24_13-19-22_094959634447_rgbf000077-resize_0-target.png,125,1.3065,1,4388,95,meters,jsons/VE125_randls_41.json,691526,2691933,45,Woman
5,357726,DepthScenes,duration_manipulation_targetAtFixation,jsons/VE125_randls_41.json,http://54.235.29.9/FacialAge/BNav_EC2/DepthDuration/v2_depth_duration_MTurk/v2_DepthDuration_HTML.html#467,467,1366,657,1366,768,8-29-2022,10-42-32,6,depth_duration_stimuli/003338_2014-05-20_11-01-23_094959634447_rgbf000051-resize_6/003338_2014-05-20_11-01-23_094959634447_rgbf000051-resize_6-target.png,125,1.693,1,2299,126,meters,jsons/VE125_randls_41.json,691526,2691933,45,Woman
6,357726,DepthScenes,duration_manipulation_targetAtFixation,jsons/VE125_randls_41.json,http://54.235.29.9/FacialAge/BNav_EC2/DepthDuration/v2_depth_duration_MTurk/v2_DepthDuration_HTML.html#467,467,1366,657,1366,768,8-29-2022,10-42-32,7,depth_duration_stimuli/001167_2014-06-17_15-38-07_260595134347_rgbf000108-resize_0/001167_2014-06-17_15-38-07_260595134347_rgbf000108-resize_0-target.png,125,1.8505,1,3007,127,meters,jsons/VE125_randls_41.json,691526,2691933,45,Woman
7,357726,DepthScenes,duration_manipulation_targetAtFixation,jsons/VE125_randls_41.json,http://54.235.29.9/FacialAge/BNav_EC2/DepthDuration/v2_depth_duration_MTurk/v2_DepthDuration_HTML.html#467,467,1366,657,1366,768,8-29-2022,10-42-32,8,depth_duration_stimuli/003587_2014-05-23_16-48-02_094959634447_rgbf002384-resize_2/003587_2014-05-23_16-48-02_094959634447_rgbf002384-resize_2-target.png,125,1.357,1,2088,124,meters,jsons/VE125_randls_41.json,691526,2691933,45,Woman
8,357726,DepthScenes,duration_manipulation_targetAtFixation,jsons/VE125_randls_41.json,http://54.235.29.9/FacialAge/BNav_EC2/DepthDuration/v2_depth_duration_MTurk/v2_DepthDuration_HTML.html#467,467,1366,657,1366,768,8-29-2022,10-42-32,9,depth_duration_stimuli/002445_2014-06-28_20-32-16_260595134347_rgbf000029-resize_4/002445_2014-06-28_20-32-16_260595134347_rgbf000029-resize_4-target.png,125,2.5315,1,2795,109,meters,jsons/VE125_randls_41.json,691526,2691933,45,Woman
9,357726,DepthScenes,duration_manipulation_targetAtFixation,jsons/VE125_randls_41.json,http://54.235.29.9/FacialAge/BNav_EC2/DepthDuration/v2_depth_duration_MTurk/v2_DepthDuration_HTML.html#467,467,1366,657,1366,768,8-29-2022,10-42-32,10,depth_duration_stimuli/000780_2014-06-08_22-28-29_260595134347_rgbf000126-resize_1/000780_2014-06-08_22-28-29_260595134347_rgbf000126-resize_1-target.png,125,3.3825,1,2023,128,meters,jsons/VE125_randls_41.json,691526,2691933,45,Woman
10,357726,DepthScenes,duration_manipulation_targetAtFixation,jsons/VE125_randls_41.json,http://54.235.29.9/FacialAge/BNav_EC2/DepthDuration/v2_depth_duration_MTurk/v2_DepthDuration_HTML.html#467,467,1366,657,1366,768,8-29-2022,10-42-32,11,depth_duration_stimuli/000929_2014-06-09_16-33-19_260595134347_rgbf000139-resize_0/000929_2014-06-09_16-33-19_260595134347_rgbf000139-resize_0-target.png,125,2.8680000000000003,2,2357,121,meters,jsons/VE125_randls_41.json,691526,2691933,45,Woman
11,357726,DepthScenes,duration_manipulation_targetAtFixation,jsons/VE125_randls_41.json,http://54.235.29.9/FacialAge/BNav_EC2/DepthDuration/v2_depth_duration_MTurk/v2_DepthDuration_HTML.html#467,467,1366,657,1366,768,8-29-2022,10-42-32,12,depth_duration_stimuli/000457_2014-06-08_16-52-43_260595134347_rgbf000199-resize_1/000457_2014-06-08_16-52-43_260595134347_rgbf000199-resize_1-target.png,125,3.6489999999999996,2,2241,130,meters,jsons/VE125_randls_41.json,691526,2691933,45,Woman
12,357726,DepthScenes,duration_manipulation_targetAtFixation,jsons/VE125_randls_41.json,http://54.235.29.9/FacialAge/BNav_EC2/DepthDuration/v2_depth_duration_MTurk/v2_DepthDuration_HTML.html#467,467,1366,657,1366,768,8-29-2022,10-42-32,13,depth_duration_stimuli/000569_2014-06-09_22-51-47_260595134347_rgbf000141-resize_3/000569_2014-06-09_22-51-47_260595134347_rgbf000141-resize-original.jpg,125,4.512,2,2943,122,meters,jsons/VE125_randls_41.json,691526,2691933,45,Woman
13,357726,DepthScenes,duration_manipulation_targetAtFixation,jsons/VE125_randls_41.json,http://54.235.29.9/FacialAge/BNav_EC2/DepthDuration/v2_depth_duration_MTurk/v2_DepthDuration_HTML.html#467,467,1366,657,1366,768,8-29-2022,10-42-32,14,depth_duration_stimuli/000447_2014-06-08_16-15-46_260595134347_rgbf000130-resize_1/000447_2014-06-08_16-15-46_260595134347_rgbf000130-resize_1-target.png,125,4.479,2,2515,125,meters,jsons/VE125_randls_41.json,691526,2691933,45,Woman
14,357726,DepthScenes,duration_manipulation_targetAtFixation,jsons/VE125_randls_41.json,http://54.235.29.9/FacialAge/BNav_EC2/DepthDuration/v2_depth_duration_MTurk/v2_DepthDuration_HTML.html#467,467,1366,657,1366,768,8-29-2022,10-42-32,15,depth_duration_stimuli/001447_2014-06-19_17-00-32_260595134347_rgbf000082-resize_5/001447_2014-06-19_17-00-32_260595134347_rgbf000082-resize_5-target.png,125,4.13775,1,11241,124,meters,jsons/VE125_randls_41.json,691526,2691933,45,Woman
15,357726,DepthScenes,duration_manipulation_targetAtFixation,jsons/VE125_randls_41.json,http://54.235.29.9/FacialAge/BNav_EC2/DepthDuration/v2_depth_duration_MTurk/v2_DepthDuration_HTML.html#467,467,1366,657,1366,768,8-29-2022,10-42-32,16,depth_duration_stimuli/002375_2014-06-28_20-13-44_260595134347_rgbf000032-resize_1/002375_2014-06-28_20-13-44_260595134347_rgbf000032-resize_1-target.png,125,4.0175,1,5276,118,meters,jsons/VE125_randls_41.json,691526,2691933,45,Woman
16,357726,DepthScenes,duration_manipulation_targetAtFixation,jsons/VE125_randls_41.json,http://54.235.29.9/FacialAge/BNav_EC2/DepthDuration/v2_depth_duration_MTurk/v2_DepthDuration_HTML.html#467,467,1366,657,1366,768,8-29-2022,10-42-32,17,depth_duration_stimuli/002657_2014-06-13_15-29-54_094959634447_rgbf000150-resize_1/002657_2014-06-13_15-29-54_094959634447_rgbf000150-resize_1-target.png,125,4.919,2,4188,134,meters,jsons/VE125_randls_41.json,691526,2691933,45,Woman
17,357726,DepthScenes,duration_manipulation_targetAtFixation,jsons/VE125_randls_41.json,http://54.235.29.9/FacialAge/BNav_EC2/DepthDuration/v2_depth_duration_MTurk/v2_DepthDuration_HTML.html#467,467,1366,657,1366,768,8-29-2022,10-42-32,18,depth_duration_stimuli/001016_2014-06-09_16-16-10_260595134347_rgbf000112-resize_5/001016_2014-06-09_16-16-10_260595134347_rgbf000112-resize_5-target.png,125,1.6565,0,3852,66,meters,jsons/VE125_randls_41.json,691526,2691933,45,Woman
18,357726,DepthScenes,duration_manipulation_targetAtFixation,jsons/VE125_randls_41.json,http://54.235.29.9/FacialAge/BNav_EC2/DepthDuration/v2_depth_duration_MTurk/v2_DepthDuration_HTML.html#467,467,1366,657,1366,768,8-29-2022,10-42-32,19,depth_duration_stimuli/002340_2014-06-28_20-05-46_260595134347_rgbf000113-resize_0/002340_2014-06-28_20-05-46_260595134347_rgbf000113-resize_0-target.png,125,2.4735,3,5030,146,meters,jsons/VE125_randls_41.json,691526,2691933,45,Woman
19,357726,DepthScenes,duration_manipulation_targetAtFixation,jsons/VE125_randls_41.json,http://54.235.29.9/FacialAge/BNav_EC2/DepthDuration/v2_depth_duration_MTurk/v2_DepthDuration_HTML.html#467,467,1366,657,1366,768,8-29-2022,10-42-32,20,depth_duration_stimuli/002788_2014-06-22_19-36-03_094959634447_rgbf000088-resize_2/002788_2014-06-22_19-36-03_094959634447_rgbf000088-resize_2-target.png,125,1.6465,3,2503,113,meters,jsons/VE125_randls_41.json,691526,2691933,45,Woman
20,357726,DepthScenes,duration_manipulation_targetAtFixation,jsons/VE125_randls_41.json,http://54.235.29.9/FacialAge/BNav_EC2/DepthDuration/v2_depth_duration_MTurk/v2_DepthDuration_HTML.html#467,467,1366,657,1366,768,8-29-2022,10-42-32,21,depth_duration_stimuli/000749_2014-06-08_21-55-06_260595134347_rgbf000070-resize_2/000749_2014-06-08_21-55-06_260595134347_rgbf000070-resize_2-target.png,125,2.331,2,4013,126,meters,jsons/VE125_randls_41.json,691526,2691933,45,Woman
21,357726,DepthScenes,duration_manipulation_targetAtFixation,jsons/VE125_randls_41.json,http://54.235.29.9/FacialAge/BNav_EC2/DepthDuration/v2_depth_duration_MTurk/v2_DepthDuration_HTML.html#467,467,1366,657,1366,768,8-29-2022,10-42-32,22,depth_duration_stimuli/000436_2014-06-09_22-25-11_260595134347_rgbf000137-resize_1/000436_2014-06-09_22-25-11_260595134347_rgbf000137-resize_1-target.png,125,4.0705,2,3182,140,meters,jsons/VE125_randls_41.json,691526,2691933,45,Woman
22,357726,DepthScenes,duration_manipulation_targetAtFixation,jsons/VE125_randls_41.json,http://54.235.29.9/FacialAge/BNav_EC2/DepthDuration/v2_depth_duration_MTurk/v2_DepthDuration_HTML.html#467,467,1366,657,1366,768,8-29-2022,10-42-32,23,depth_duration_stimuli/002444_2014-06-28_20-32-08_260595134347_rgbf000027-resize_0/002444_2014-06-28_20-32-08_260595134347_rgbf000027-resize_0-target.png,125,4.388999999999999,2,1906,125,meters,jsons/VE125_randls_41.json,691526,2691933,45,Woman
23,357726,DepthScenes,duration_manipulation_targetAtFixation,jsons/VE125_randls_41.json,http://54.235.29.9/FacialAge/BNav_EC2/DepthDuration/v2_depth_duration_MTurk/v2_DepthDuration_HTML.html#467,467,1366,657,1366,768,8-29-2022,10-42-32,24,depth_duration_stimuli/002600_2014-06-24_14-27-04_094959634447_rgbf000074-resize_2/002600_2014-06-24_14-27-04_094959634447_rgbf000074-resize_2-target.png,125,2.7575,2,5137,125,meters,jsons/VE125_randls_41.json,691526,2691933,45,Woman
24,357726,DepthScenes,duration_manipulation_targetAtFixation,jsons/VE125_randls_41.json,http://54.235.29.9/FacialAge/BNav_EC2/DepthDuration/v2_depth_duration_MTurk/v2_DepthDuration_HTML.html#467,467,1366,657,1366,768,8-29-2022,10-42-32,25,depth_duration_stimuli/003228_2014-05-14_13-42-35_094959634447_rgbf000101-resize_1/003228_2014-05-14_13-42-35_094959634447_rgbf000101-resize_1-target.png,125,1.9680000000000002,1,2759,166,meters,jsons/VE125_randls_41.json,691526,2691933,45,Woman
25,357726,DepthScenes,duration_manipulation_targetAtFixation,jsons/VE125_randls_41.json,http://54.235.29.9/FacialAge/BNav_EC2/DepthDuration/v2_depth_duration_MTurk/v2_DepthDuration_HTML.html#467,467,1366,657,1366,768,8-29-2022,10-42-32,26,depth_duration_stimuli/001175_2014-06-17_15-45-55_260595134347_rgbf000129-resize_4/001175_2014-06-17_15-45-55_260595134347_rgbf000129-resize_4-target.png,125,4.255,3,3399,124,meters,jsons/VE125_randls_41.json,691526,2691933,45,Woman
26,357726,DepthScenes,duration_manipulation_targetAtFixation,jsons/VE125_randls_41.json,http://54.235.29.9/FacialAge/BNav_EC2/DepthDuration/v2_depth_duration_MTurk/v2_DepthDuration_HTML.html#467,467,1366,657,1366,768,8-29-2022,10-42-32,27,depth_duration_stimuli/003490_2014-05-21_15-50-11_094959634447_rgbf000101-resize_3/003490_2014-05-21_15-50-11_094959634447_rgbf000101-resize_3-target.png,125,3.6445,2,2349,126,meters,jsons/VE125_randls_41.json,691526,2691933,45,Woman
27,357726,DepthScenes,duration_manipulation_targetAtFixation,jsons/VE125_randls_41.json,http://54.235.29.9/FacialAge/BNav_EC2/DepthDuration/v2_depth_duration_MTurk/v2_DepthDuration_HTML.html#467,467,1366,657,1366,768,8-29-2022,10-42-32,28,depth_duration_stimuli/001164_2014-06-17_15-35-46_260595134347_rgbf000085-resize_3/001164_2014-06-17_15-35-46_260595134347_rgbf000085-resize_3-target.png,125,2.354,2,2440,144,meters,jsons/VE125_randls_41.json,691526,2691933,45,Woman
28,357726,DepthScenes,duration_manipulation_targetAtFixation,jsons/VE125_randls_41.json,http://54.235.29.9/FacialAge/BNav_EC2/DepthDuration/v2_depth_duration_MTurk/v2_DepthDuration_HTML.html#467,467,1366,657,1366,768,8-29-2022,10-42-32,29,depth_duration_stimuli/001136_2014-06-17_15-19-41_260595134347_rgbf000076-resize_3/001136_2014-06-17_15-19-41_260595134347_rgbf000076-resize_3-target.png,125,1.8655,2,4385,122,meters,jsons/VE125_randls_41.json,691526,2691933,45,Woman
29,357726,DepthScenes,duration_manipulation_targetAtFixation,jsons/VE125_randls_41.json,http://54.235.29.9/FacialAge/BNav_EC2/DepthDuration/v2_depth_duration_MTurk/v2_DepthDuration_HTML.html#467,467,1366,657,1366,768,8-29-2022,10-42-32,30,depth_duration_stimuli/000375_2014-06-08_11-17-29_260595134347_rgbf000133-resize_2/000375_2014-06-08_11-17-29_260595134347_rgbf000133-resize-original.jpg,125,4.718,0,3644,134,meters,jsons/VE125_randls_41.json,691526,2691933,45,Woman
30,357726,DepthScenes,duration_manipulation_targetAtFixation,jsons/VE125_randls_41.json,http://54.235.29.9/FacialAge/BNav_EC2/DepthDuration/v2_depth_duration_MTurk/v2_DepthDuration_HTML.html#467,467,1366,657,1366,768,8-29-2022,10-42-32,31,depth_duration_stimuli/002748_2014-06-22_19-07-22_094959634447_rgbf000078-resize_1/002748_2014-06-22_19-07-22_094959634447_rgbf000078-resize_1-target.png,125,4.6705,3,4280,136,meters,jsons/VE125_randls_41.json,691526,2691933,45,Woman
31,357726,DepthScenes,duration_manipulation_targetAtFixation,jsons/VE125_randls_41.json,http://54.235.29.9/FacialAge/BNav_EC2/DepthDuration/v2_depth_duration_MTurk/v2_DepthDuration_HTML.html#467,467,1366,657,1366,768,8-29-2022,10-42-32,32,depth_duration_stimuli/002995_2014-06-15_12-31-26_094959634447_rgbf000150-resize_1/002995_2014-06-15_12-31-26_094959634447_rgbf000150-resize_1-target.png,125,3.8360000000000003,2,2580,120,meters,jsons/VE125_randls_41.json,691526,2691933,45,Woman
32,357726,DepthScenes,duration_manipulation_targetAtFixation,jsons/VE125_randls_41.json,http://54.235.29.9/FacialAge/BNav_EC2/DepthDuration/v2_depth_duration_MTurk/v2_DepthDuration_HTML.html#467,467,1366,657,1366,768,8-29-2022,10-42-32,33,depth_duration_stimuli/000810_2014-06-08_17-20-01_260595134347_rgbf000105-resize_0/000810_2014-06-08_17-20-01_260595134347_rgbf000105-resize_0-target.png,125,1.4865,2,2342,96,meters,jsons/VE125_randls_41.json,691526,2691933,45,Woman
33,357726,DepthScenes,duration_manipulation_targetAtFixation,jsons/VE125_randls_41.json,http://54.235.29.9/FacialAge/BNav_EC2/DepthDuration/v2_depth_duration_MTurk/v2_DepthDuration_HTML.html#467,467,1366,657,1366,768,8-29-2022,10-42-32,34,depth_duration_stimuli/001214_2014-06-17_16-13-55_260595134347_rgbf000111-resize_0/001214_2014-06-17_16-13-55_260595134347_rgbf000111-resize_0-target.png,125,2.6505,2,2278,106,meters,jsons/VE125_randls_41.json,691526,2691933,45,Woman
34,357726,DepthScenes,duration_manipulation_targetAtFixation,jsons/VE125_randls_41.json,http://54.235.29.9/FacialAge/BNav_EC2/DepthDuration/v2_depth_duration_MTurk/v2_DepthDuration_HTML.html#467,467,1366,657,1366,768,8-29-2022,10-42-32,35,depth_duration_stimuli/001150_2014-06-17_15-27-34_260595134347_rgbf000108-resize_2/001150_2014-06-17_15-27-34_260595134347_rgbf000108-resize_2-target.png,125,4.0325,2,3050,100,meters,jsons/VE125_randls_41.json,691526,2691933,45,Woman
35,357726,DepthScenes,duration_manipulation_targetAtFixation,jsons/VE125_randls_41.json,http://54.235.29.9/FacialAge/BNav_EC2/DepthDuration/v2_depth_duration_MTurk/v2_DepthDuration_HTML.html#467,467,1366,657,1366,768,8-29-2022,10-42-32,36,depth_duration_stimuli/000665_2014-06-09_20-42-35_260595134347_rgbf000110-resize_1/000665_2014-06-09_20-42-35_260595134347_rgbf000110-resize_1-target.png,125,3.057,2,19631,124,meters,jsons/VE125_randls_41.json,691526,2691933,45,Woman
36,357726,DepthScenes,duration_manipulation_targetAtFixation,jsons/VE125_randls_41.json,http://54.235.29.9/FacialAge/BNav_EC2/DepthDuration/v2_depth_duration_MTurk/v2_DepthDuration_HTML.html#467,467,1366,657,1366,768,8-29-2022,10-42-32,37,depth_duration_stimuli/003292_2014-05-14_21-53-49_094959634447_rgbf000100-resize_2/003292_2014-05-14_21-53-49_094959634447_rgbf000100-resize_2-target.png,125,3.4815,1,2331,121,meters,jsons/VE125_randls_41.json,691526,2691933,45,Woman
37,357726,DepthScenes,duration_manipulation_targetAtFixation,jsons/VE125_randls_41.json,http://54.235.29.9/FacialAge/BNav_EC2/DepthDuration/v2_depth_duration_MTurk/v2_DepthDuration_HTML.html#467,467,1366,657,1366,768,8-29-2022,10-42-32,38,depth_duration_stimuli/002639_2014-06-24_14-51-37_094959634447_rgbf000074-resize_4/002639_2014-06-24_14-51-37_094959634447_rgbf000074-resize_4-target.png,125,4.0375,2,3474,153,meters,jsons/VE125_randls_41.json,691526,2691933,45,Woman
38,357726,DepthScenes,duration_manipulation_targetAtFixation,jsons/VE125_randls_41.json,http://54.235.29.9/FacialAge/BNav_EC2/DepthDuration/v2_depth_duration_MTurk/v2_DepthDuration_HTML.html#467,467,1366,657,1366,768,8-29-2022,10-42-32,39,depth_duration_stimuli/001555_2014-06-20_17-12-10_260595134347_rgbf000065-resize_4/001555_2014-06-20_17-12-10_260595134347_rgbf000065-resize_4-target.png,125,1.633,1,2990,177,meters,jsons/VE125_randls_41.json,691526,2691933,45,Woman
39,357726,DepthScenes,duration_manipulation_targetAtFixation,jsons/VE125_randls_41.json,http://54.235.29.9/FacialAge/BNav_EC2/DepthDuration/v2_depth_duration_MTurk/v2_DepthDuration_HTML.html#467,467,1366,657,1366,768,8-29-2022,10-42-32,40,depth_duration_stimuli/000103_2014-05-14_22-01-17_260595134347_rgbf000152-resize_5/000103_2014-05-14_22-01-17_260595134347_rgbf000152-resize_5-target.png,125,1.993,2,8616,114,meters,jsons/VE125_randls_41.json,691526,2691933,45,Woman
40,357726,DepthScenes,duration_manipulation_targetAtFixation,jsons/VE125_randls_41.json,http://54.235.29.9/FacialAge/BNav_EC2/DepthDuration/v2_depth_duration_MTurk/v2_DepthDuration_HTML.html#467,467,1366,657,1366,768,8-29-2022,10-42-32,41,depth_duration_stimuli/001158_2014-06-17_15-32-16_260595134347_rgbf000138-resize_2/001158_2014-06-17_15-32-16_260595134347_rgbf000138-resize_2-target.png,125,4.5315,3,4730,126,meters,jsons/VE125_randls_41.json,691526,2691933,45,Woman
41,357726,DepthScenes,duration_manipulation_targetAtFixation,jsons/VE125_randls_41.json,http://54.235.29.9/FacialAge/BNav_EC2/DepthDuration/v2_depth_duration_MTurk/v2_DepthDuration_HTML.html#467,467,1366,657,1366,768,8-29-2022,10-42-32,42,depth_duration_stimuli/000556_2014-06-09_22-42-56_260595134347_rgbf000214-resize_1/000556_2014-06-09_22-42-56_260595134347_rgbf000214-resize_1-target.png,125,4.8415,3,3256,131,meters,jsons/VE125_randls_41.json,691526,2691933,45,Woman
42,357726,DepthScenes,duration_manipulation_targetAtFixation,jsons/VE125_randls_41.json,http://54.235.29.9/FacialAge/BNav_EC2/DepthDuration/v2_depth_duration_MTurk/v2_DepthDuration_HTML.html#467,467,1366,657,1366,768,8-29-2022,10-42-32,43,depth_duration_stimuli/002905_2014-06-03_18-04-43_094959634447_rgbf000151-resize_2/002905_2014-06-03_18-04-43_094959634447_rgbf000151-resize_2-target.png,125,2.0295,2,2496,111,meters,jsons/VE125_randls_41.json,691526,2691933,45,Woman
43,357726,DepthScenes,duration_manipulation_targetAtFixation,jsons/VE125_randls_41.json,http://54.235.29.9/FacialAge/BNav_EC2/DepthDuration/v2_depth_duration_MTurk/v2_DepthDuration_HTML.html#467,467,1366,657,1366,768,8-29-2022,10-42-32,44,depth_duration_stimuli/003423_2014-05-21_10-23-26_094959634447_rgbf002665-resize_2/003423_2014-05-21_10-23-26_094959634447_rgbf002665-resize_2-target.png,125,3.2575,3,3851,295,meters,jsons/VE125_randls_41.json,691526,2691933,45,Woman
44,357726,DepthScenes,duration_manipulation_targetAtFixation,jsons/VE125_randls_41.json,http://54.235.29.9/FacialAge/BNav_EC2/DepthDuration/v2_depth_duration_MTurk/v2_DepthDuration_HTML.html#467,467,1366,657,1366,768,8-29-2022,10-42-32,45,depth_duration_stimuli/000787_2014-06-08_22-33-53_260595134347_rgbf000175-resize_1/000787_2014-06-08_22-33-53_260595134347_rgbf000175-resize-original.jpg,125,4.784,0,3680,121,meters,jsons/VE125_randls_41.json,691526,2691933,45,Woman
45,357726,DepthScenes,duration_manipulation_targetAtFixation,jsons/VE125_randls_41.json,http://54.235.29.9/FacialAge/BNav_EC2/DepthDuration/v2_depth_duration_MTurk/v2_DepthDuration_HTML.html#467,467,1366,657,1366,768,8-29-2022,10-42-32,46,depth_duration_stimuli/001570_2014-06-20_17-21-09_260595134347_rgbf000135-resize_4/001570_2014-06-20_17-21-09_260595134347_rgbf000135-resize_4-target.png,125,4.467,2,2816,120,meters,jsons/VE125_randls_41.json,691526,2691933,45,Woman
46,357726,DepthScenes,duration_manipulation_targetAtFixation,jsons/VE125_randls_41.json,http://54.235.29.9/FacialAge/BNav_EC2/DepthDuration/v2_depth_duration_MTurk/v2_DepthDuration_HTML.html#467,467,1366,657,1366,768,8-29-2022,10-42-32,47,depth_duration_stimuli/001392_2014-06-19_16-07-59_260595134347_rgbf000046-resize_1/001392_2014-06-19_16-07-59_260595134347_rgbf000046-resize_1-target.png,125,4.135,3,2548,112,meters,jsons/VE125_randls_41.json,691526,2691933,45,Woman
47,357726,DepthScenes,duration_manipulation_targetAtFixation,jsons/VE125_randls_41.json,http://54.235.29.9/FacialAge/BNav_EC2/DepthDuration/v2_depth_duration_MTurk/v2_DepthDuration_HTML.html#467,467,1366,657,1366,768,8-29-2022,10-42-32,48,depth_duration_stimuli/001806_2014-06-26_20-50-20_260595134347_rgbf000091-resize_1/001806_2014-06-26_20-50-20_260595134347_rgbf000091-resize_1-target.png,125,2.7305,2,3281,103,meters,jsons/VE125_randls_41.json,691526,2691933,45,Woman
48,357726,DepthScenes,duration_manipulation_targetAtFixation,jsons/VE125_randls_41.json,http://54.235.29.9/FacialAge/BNav_EC2/DepthDuration/v2_depth_duration_MTurk/v2_DepthDuration_HTML.html#467,467,1366,657,1366,768,8-29-2022,10-42-32,49,depth_duration_stimuli/001617_2014-06-20_11-35-32_260595134347_rgbf000066-resize_1/001617_2014-06-20_11-35-32_260595134347_rgbf000066-resize_1-target.png,125,3.7910000000000004,1,9826,121,meters,jsons/VE125_randls_41.json,691526,2691933,45,Woman
49,357726,DepthScenes,duration_manipulation_targetAtFixation,jsons/VE125_randls_41.json,http://54.235.29.9/FacialAge/BNav_EC2/DepthDuration/v2_depth_duration_MTurk/v2_DepthDuration_HTML.html#467,467,1366,657,1366,768,8-29-2022,10-42-32,50,depth_duration_stimuli/000470_2014-06-09_19-42-40_260595134347_rgbf000094-resize_1/000470_2014-06-09_19-42-40_260595134347_rgbf000094-resize_1-target.png,125,1.831,1,4372,135,meters,jsons/VE125_randls_41.json,691526,2691933,45,Woman
50,357726,DepthScenes,duration_manipulation_targetAtFixation,jsons/VE125_randls_41.json,http://54.235.29.9/FacialAge/BNav_EC2/DepthDuration/v2_depth_duration_MTurk/v2_DepthDuration_HTML.html#467,467,1366,657,1366,768,8-29-2022,10-42-32,51,depth_duration_stimuli/000109_2014-05-14_23-41-52_260595134347_rgbf000035-resize_9/000109_2014-05-14_23-41-52_260595134347_rgbf000035-resize_9-target.png,125,1.3545,1,2437,54,meters,jsons/VE125_randls_41.json,691526,2691933,45,Woman
51,357726,DepthScenes,duration_manipulation_targetAtFixation,jsons/VE125_randls_41.json,http://54.235.29.9/FacialAge/BNav_EC2/DepthDuration/v2_depth_duration_MTurk/v2_DepthDuration_HTML.html#467,467,1366,657,1366,768,8-29-2022,10-42-32,52,depth_duration_stimuli/002663_2014-06-13_15-50-26_094959634447_rgbf000075-resize_1/002663_2014-06-13_15-50-26_094959634447_rgbf000075-resize_1-target.png,125,4.7495,2,2656,121,meters,jsons/VE125_randls_41.json,691526,2691933,45,Woman
52,357726,DepthScenes,duration_manipulation_targetAtFixation,jsons/VE125_randls_41.json,http://54.235.29.9/FacialAge/BNav_EC2/DepthDuration/v2_depth_duration_MTurk/v2_DepthDuration_HTML.html#467,467,1366,657,1366,768,8-29-2022,10-42-32,53,depth_duration_stimuli/000409_2014-06-04_19-23-33_260595134347_rgbf000067-resize_0/000409_2014-06-04_19-23-33_260595134347_rgbf000067-resize_0-target.png,125,3.7335,2,2146,109,meters,jsons/VE125_randls_41.json,691526,2691933,45,Woman
53,357726,DepthScenes,duration_manipulation_targetAtFixation,jsons/VE125_randls_41.json,http://54.235.29.9/FacialAge/BNav_EC2/DepthDuration/v2_depth_duration_MTurk/v2_DepthDuration_HTML.html#467,467,1366,657,1366,768,8-29-2022,10-42-32,54,depth_duration_stimuli/002118_2014-06-25_20-32-08_260595134347_rgbf000078-resize_1/002118_2014-06-25_20-32-08_260595134347_rgbf000078-resize_1-target.png,125,2.6460000000000004,2,3598,146,meters,jsons/VE125_randls_41.json,691526,2691933,45,Woman
54,357726,DepthScenes,duration_manipulation_targetAtFixation,jsons/VE125_randls_41.json,http://54.235.29.9/FacialAge/BNav_EC2/DepthDuration/v2_depth_duration_MTurk/v2_DepthDuration_HTML.html#467,467,1366,657,1366,768,8-29-2022,10-42-32,55,depth_duration_stimuli/001516_2014-06-20_16-25-09_260595134347_rgbf000076-resize_2/001516_2014-06-20_16-25-09_260595134347_rgbf000076-resize_2-target.png,125,1.7445,2,3282,124,meters,jsons/VE125_randls_41.json,691526,2691933,45,Woman
55,357726,DepthScenes,duration_manipulation_targetAtFixation,jsons/VE125_randls_41.json,http://54.235.29.9/FacialAge/BNav_EC2/DepthDuration/v2_depth_duration_MTurk/v2_DepthDuration_HTML.html#467,467,1366,657,1366,768,8-29-2022,10-42-32,56,depth_duration_stimuli/002039_2014-06-24_20-22-38_260595134347_rgbf000084-resize_1/002039_2014-06-24_20-22-38_260595134347_rgbf000084-resize_1-target.png,125,4.408,2,4602,88,meters,jsons/VE125_randls_41.json,691526,2691933,45,Woman
56,357726,DepthScenes,duration_manipulation_targetAtFixation,jsons/VE125_randls_41.json,http://54.235.29.9/FacialAge/BNav_EC2/DepthDuration/v2_depth_duration_MTurk/v2_DepthDuration_HTML.html#467,467,1366,657,1366,768,8-29-2022,10-42-32,57,depth_duration_stimuli/002103_2014-06-25_20-00-40_260595134347_rgbf000049-resize_0/002103_2014-06-25_20-00-40_260595134347_rgbf000049-resize_0-target.png,125,4.105,1,28037,125,meters,jsons/VE125_randls_41.json,691526,2691933,45,Woman
57,357726,DepthScenes,duration_manipulation_targetAtFixation,jsons/VE125_randls_41.json,http://54.235.29.9/FacialAge/BNav_EC2/DepthDuration/v2_depth_duration_MTurk/v2_DepthDuration_HTML.html#467,467,1366,657,1366,768,8-29-2022,10-42-32,58,depth_duration_stimuli/001066_2014-06-08_22-03-20_260595134347_rgbf000066-resize_4/001066_2014-06-08_22-03-20_260595134347_rgbf000066-resize_4-target.png,125,4.2330000000000005,2,4111,125,meters,jsons/VE125_randls_41.json,691526,2691933,45,Woman
58,357726,DepthScenes,duration_manipulation_targetAtFixation,jsons/VE125_randls_41.json,http://54.235.29.9/FacialAge/BNav_EC2/DepthDuration/v2_depth_duration_MTurk/v2_DepthDuration_HTML.html#467,467,1366,657,1366,768,8-29-2022,10-42-32,59,depth_duration_stimuli/000742_2014-06-08_18-48-09_260595134347_rgbf000164-resize_4/000742_2014-06-08_18-48-09_260595134347_rgbf000164-resize_4-target.png,125,4.632,3,3168,125,meters,jsons/VE125_randls_41.json,691526,2691933,45,Woman
59,357726,DepthScenes,duration_manipulation_targetAtFixation,jsons/VE125_randls_41.json,http://54.235.29.9/FacialAge/BNav_EC2/DepthDuration/v2_depth_duration_MTurk/v2_DepthDuration_HTML.html#467,467,1366,657,1366,768,8-29-2022,10-42-32,60,depth_duration_stimuli/000493_2014-06-09_21-01-18_260595134347_rgbf000196-resize_3/000493_2014-06-09_21-01-18_260595134347_rgbf000196-resize_3-target.png,125,3.44,2,3049,126,meters,jsons/VE125_randls_41.json,691526,2691933,45,Woman
60,357726,DepthScenes,duration_manipulation_targetAtFixation,jsons/VE125_randls_41.json,http://54.235.29.9/FacialAge/BNav_EC2/DepthDuration/v2_depth_duration_MTurk/v2_DepthDuration_HTML.html#467,467,1366,657,1366,768,8-29-2022,10-42-32,61,depth_duration_stimuli/000191_2014-05-12_17-07-38_260595134347_rgbf000199-resize_0/000191_2014-05-12_17-07-38_260595134347_rgbf000199-resize_0-target.png,125,3.7995,3,2542,117,meters,jsons/VE125_randls_41.json,691526,2691933,45,Woman
61,357726,DepthScenes,duration_manipulation_targetAtFixation,jsons/VE125_randls_41.json,http://54.235.29.9/FacialAge/BNav_EC2/DepthDuration/v2_depth_duration_MTurk/v2_DepthDuration_HTML.html#467,467,1366,657,1366,768,8-29-2022,10-42-32,62,depth_duration_stimuli/002279_2014-06-28_18-55-32_260595134347_rgbf000040-resize_5/002279_2014-06-28_18-55-32_260595134347_rgbf000040-resize_5-target.png,125,1.5043333333333,1,2974,137,meters,jsons/VE125_randls_41.json,691526,2691933,45,Woman
62,357726,DepthScenes,duration_manipulation_targetAtFixation,jsons/VE125_randls_41.json,http://54.235.29.9/FacialAge/BNav_EC2/DepthDuration/v2_depth_duration_MTurk/v2_DepthDuration_HTML.html#467,467,1366,657,1366,768,8-29-2022,10-42-32,63,depth_duration_stimuli/000635_2014-06-08_16-38-42_260595134347_rgbf000106-resize_1/000635_2014-06-08_16-38-42_260595134347_rgbf000106-resize_1-target.png,125,2.074,2,2287,113,meters,jsons/VE125_randls_41.json,691526,2691933,45,Woman
63,357726,DepthScenes,duration_manipulation_targetAtFixation,jsons/VE125_randls_41.json,http://54.235.29.9/FacialAge/BNav_EC2/DepthDuration/v2_depth_duration_MTurk/v2_DepthDuration_HTML.html#467,467,1366,657,1366,768,8-29-2022,10-42-32,64,depth_duration_stimuli/000009_2014-05-26_14-32-05_260595134347_rgbf000034-resize_3/000009_2014-05-26_14-32-05_260595134347_rgbf000034-resize_3-target.png,125,3.8715,3,2725,123,meters,jsons/VE125_randls_41.json,691526,2691933,45,Woman
64,357726,DepthScenes,duration_manipulation_targetAtFixation,jsons/VE125_randls_41.json,http://54.235.29.9/FacialAge/BNav_EC2/DepthDuration/v2_depth_duration_MTurk/v2_DepthDuration_HTML.html#467,467,1366,657,1366,768,8-29-2022,10-42-32,65,depth_duration_stimuli/001828_2014-06-26_21-40-03_260595134347_rgbf000024-resize_0/001828_2014-06-26_21-40-03_260595134347_rgbf000024-resize_0-target.png,125,4.8260000000000005,2,2239,187,meters,jsons/VE125_randls_41.json,691526,2691933,45,Woman
65,357726,DepthScenes,duration_manipulation_targetAtFixation,jsons/VE125_randls_41.json,http://54.235.29.9/FacialAge/BNav_EC2/DepthDuration/v2_depth_duration_MTurk/v2_DepthDuration_HTML.html#467,467,1366,657,1366,768,8-29-2022,10-42-32,66,depth_duration_stimuli/001222_2014-06-17_16-24-06_260595134347_rgbf000073-resize_0/001222_2014-06-17_16-24-06_260595134347_rgbf000073-resize-original.jpg,125,1.4385,2,2793,113,meters,jsons/VE125_randls_41.json,691526,2691933,45,Woman
66,357726,DepthScenes,duration_manipulation_targetAtFixation,jsons/VE125_randls_41.json,http://54.235.29.9/FacialAge/BNav_EC2/DepthDuration/v2_depth_duration_MTurk/v2_DepthDuration_HTML.html#467,467,1366,657,1366,768,8-29-2022,10-42-32,67,depth_duration_stimuli/000736_2014-06-08_18-24-15_260595134347_rgbf000206-resize_3/000736_2014-06-08_18-24-15_260595134347_rgbf000206-resize_3-target.png,125,3.515,3,2815,124,meters,jsons/VE125_randls_41.json,691526,2691933,45,Woman
67,357726,DepthScenes,duration_manipulation_targetAtFixation,jsons/VE125_randls_41.json,http://54.235.29.9/FacialAge/BNav_EC2/DepthDuration/v2_depth_duration_MTurk/v2_DepthDuration_HTML.html#467,467,1366,657,1366,768,8-29-2022,10-42-32,68,depth_duration_stimuli/000137_2014-05-20_17-04-49_260595134347_rgbf000120-resize_1/000137_2014-05-20_17-04-49_260595134347_rgbf000120-resize_1-target.png,125,3.786,3,2915,127,meters,jsons/VE125_randls_41.json,691526,2691933,45,Woman
68,357726,DepthScenes,duration_manipulation_targetAtFixation,jsons/VE125_randls_41.json,http://54.235.29.9/FacialAge/BNav_EC2/DepthDuration/v2_depth_duration_MTurk/v2_DepthDuration_HTML.html#467,467,1366,657,1366,768,8-29-2022,10-42-32,69,depth_duration_stimuli/001810_2014-06-26_20-51-35_260595134347_rgbf000040-resize_3/001810_2014-06-26_20-51-35_260595134347_rgbf000040-resize_3-target.png,125,2.2525,2,2585,126,meters,jsons/VE125_randls_41.json,691526,2691933,45,Woman
69,357726,DepthScenes,duration_manipulation_targetAtFixation,jsons/VE125_randls_41.json,http://54.235.29.9/FacialAge/BNav_EC2/DepthDuration/v2_depth_duration_MTurk/v2_DepthDuration_HTML.html#467,467,1366,657,1366,768,8-29-2022,10-42-32,70,depth_duration_stimuli/003010_2014-06-15_12-54-35_094959634447_rgbf000112-resize_0/003010_2014-06-15_12-54-35_094959634447_rgbf000112-resize_0-target.png,125,3.1185,2,2586,127,meters,jsons/VE125_randls_41.json,691526,2691933,45,Woman
70,357726,DepthScenes,duration_manipulation_targetAtFixation,jsons/VE125_randls_41.json,http://54.235.29.9/FacialAge/BNav_EC2/DepthDuration/v2_depth_duration_MTurk/v2_DepthDuration_HTML.html#467,467,1366,657,1366,768,8-29-2022,10-42-32,71,depth_duration_stimuli/002057_2014-06-24_21-00-13_260595134347_rgbf000120-resize_1/002057_2014-06-24_21-00-13_260595134347_rgbf000120-resize_1-target.png,125,2.967,2,2888,110,meters,jsons/VE125_randls_41.json,691526,2691933,45,Woman
71,357726,DepthScenes,duration_manipulation_targetAtFixation,jsons/VE125_randls_41.json,http://54.235.29.9/FacialAge/BNav_EC2/DepthDuration/v2_depth_duration_MTurk/v2_DepthDuration_HTML.html#467,467,1366,657,1366,768,8-29-2022,10-42-32,72,depth_duration_stimuli/000709_2014-06-08_13-51-55_260595134347_rgbf000068-resize_3/000709_2014-06-08_13-51-55_260595134347_rgbf000068-resize_3-target.png,125,1.8030000000000002,1,2156,136,meters,jsons/VE125_randls_41.json,691526,2691933,45,Woman
72,357726,DepthScenes,duration_manipulation_targetAtFixation,jsons/VE125_randls_41.json,http://54.235.29.9/FacialAge/BNav_EC2/DepthDuration/v2_depth_duration_MTurk/v2_DepthDuration_HTML.html#467,467,1366,657,1366,768,8-29-2022,10-42-32,73,depth_duration_stimuli/000788_2014-06-08_22-34-36_260595134347_rgbf000131-resize_1/000788_2014-06-08_22-34-36_260595134347_rgbf000131-resize_1-target.png,125,3.359,2,2288,126,meters,jsons/VE125_randls_41.json,691526,2691933,45,Woman
73,357726,DepthScenes,duration_manipulation_targetAtFixation,jsons/VE125_randls_41.json,http://54.235.29.9/FacialAge/BNav_EC2/DepthDuration/v2_depth_duration_MTurk/v2_DepthDuration_HTML.html#467,467,1366,657,1366,768,8-29-2022,10-42-32,74,depth_duration_stimuli/001235_2014-06-17_16-37-36_260595134347_rgbf000084-resize_4/001235_2014-06-17_16-37-36_260595134347_rgbf000084-resize_4-target.png,125,3.6605,2,2387,124,meters,jsons/VE125_randls_41.json,691526,2691933,45,Woman
74,357726,DepthScenes,duration_manipulation_targetAtFixation,jsons/VE125_randls_41.json,http://54.235.29.9/FacialAge/BNav_EC2/DepthDuration/v2_depth_duration_MTurk/v2_DepthDuration_HTML.html#467,467,1366,657,1366,768,8-29-2022,10-42-32,75,depth_duration_stimuli/002784_2014-06-22_19-26-30_094959634447_rgbf000083-resize_3/002784_2014-06-22_19-26-30_094959634447_rgbf000083-resize_3-target.png,125,1.8046666666667,1,2508,122,meters,jsons/VE125_randls_41.json,691526,2691933,45,Woman
75,357726,DepthScenes,duration_manipulation_targetAtFixation,jsons/VE125_randls_41.json,http://54.235.29.9/FacialAge/BNav_EC2/DepthDuration/v2_depth_duration_MTurk/v2_DepthDuration_HTML.html#467,467,1366,657,1366,768,8-29-2022,10-42-32,76,depth_duration_stimuli/001100_2014-06-15_17-46-26_260595134347_rgbf000225-resize_2/001100_2014-06-15_17-46-26_260595134347_rgbf000225-resize_2-target.png,125,2.24,1,2668,115,meters,jsons/VE125_randls_41.json,691526,2691933,45,Woman
76,357726,DepthScenes,duration_manipulation_targetAtFixation,jsons/VE125_randls_41.json,http://54.235.29.9/FacialAge/BNav_EC2/DepthDuration/v2_depth_duration_MTurk/v2_DepthDuration_HTML.html#467,467,1366,657,1366,768,8-29-2022,10-42-32,77,depth_duration_stimuli/002043_2014-06-24_20-29-38_260595134347_rgbf000039-resize_4/002043_2014-06-24_20-29-38_260595134347_rgbf000039-resize_4-target.png,125,2.8435,2,2185,125,meters,jsons/VE125_randls_41.json,691526,2691933,45,Woman
77,357726,DepthScenes,duration_manipulation_targetAtFixation,jsons/VE125_randls_41.json,http://54.235.29.9/FacialAge/BNav_EC2/DepthDuration/v2_depth_duration_MTurk/v2_DepthDuration_HTML.html#467,467,1366,657,1366,768,8-29-2022,10-42-32,78,depth_duration_stimuli/003048_2014-06-15_13-49-43_094959634447_rgbf000150-resize_1/003048_2014-06-15_13-49-43_094959634447_rgbf000150-resize_1-target.png,125,4.0035,3,2571,124,meters,jsons/VE125_randls_41.json,691526,2691933,45,Woman
78,357726,DepthScenes,duration_manipulation_targetAtFixation,jsons/VE125_randls_41.json,http://54.235.29.9/FacialAge/BNav_EC2/DepthDuration/v2_depth_duration_MTurk/v2_DepthDuration_HTML.html#467,467,1366,657,1366,768,8-29-2022,10-42-32,79,depth_duration_stimuli/000906_2014-06-08_13-35-43_260595134347_rgbf000155-resize_1/000906_2014-06-08_13-35-43_260595134347_rgbf000155-resize_1-target.png,125,2.8489999999999998,2,2435,137,meters,jsons/VE125_randls_41.json,691526,2691933,45,Woman
79,357726,DepthScenes,duration_manipulation_targetAtFixation,jsons/VE125_randls_41.json,http://54.235.29.9/FacialAge/BNav_EC2/DepthDuration/v2_depth_duration_MTurk/v2_DepthDuration_HTML.html#467,467,1366,657,1366,768,8-29-2022,10-42-32,80,depth_duration_stimuli/002805_2014-06-22_19-54-03_094959634447_rgbf000079-resize_1/002805_2014-06-22_19-54-03_094959634447_rgbf000079-resize_1-target.png,125,3.1439999999999997,2,2499,131,meters,jsons/VE125_randls_41.json,691526,2691933,45,Woman
80,357726,DepthScenes,duration_manipulation_targetAtFixation,jsons/VE125_randls_41.json,http://54.235.29.9/FacialAge/BNav_EC2/DepthDuration/v2_depth_duration_MTurk/v2_DepthDuration_HTML.html#467,467,1366,657,1366,768,8-29-2022,10-42-32,81,depth_duration_stimuli/000773_2014-06-08_22-24-54_260595134347_rgbf000093-resize_1/000773_2014-06-08_22-24-54_260595134347_rgbf000093-resize_1-target.png,125,4.973,3,2229,119,meters,jsons/VE125_randls_41.json,691526,2691933,45,Woman
81,357726,DepthScenes,duration_manipulation_targetAtFixation,jsons/VE125_randls_41.json,http://54.235.29.9/FacialAge/BNav_EC2/DepthDuration/v2_depth_duration_MTurk/v2_DepthDuration_HTML.html#467,467,1366,657,1366,768,8-29-2022,10-42-32,82,depth_duration_stimuli/002414_2014-06-28_20-24-58_260595134347_rgbf000067-resize_4/002414_2014-06-28_20-24-58_260595134347_rgbf000067-resize_4-target.png,125,4.363,3,2001,125,meters,jsons/VE125_randls_41.json,691526,2691933,45,Woman
82,357726,DepthScenes,duration_manipulation_targetAtFixation,jsons/VE125_randls_41.json,http://54.235.29.9/FacialAge/BNav_EC2/DepthDuration/v2_depth_duration_MTurk/v2_DepthDuration_HTML.html#467,467,1366,657,1366,768,8-29-2022,10-42-32,83,depth_duration_stimuli/003492_2014-05-21_15-50-55_094959634447_rgbf000828-resize_1/003492_2014-05-21_15-50-55_094959634447_rgbf000828-resize_1-target.png,125,4.06875,3,2459,124,meters,jsons/VE125_randls_41.json,691526,2691933,45,Woman
83,357726,DepthScenes,duration_manipulation_targetAtFixation,jsons/VE125_randls_41.json,http://54.235.29.9/FacialAge/BNav_EC2/DepthDuration/v2_depth_duration_MTurk/v2_DepthDuration_HTML.html#467,467,1366,657,1366,768,8-29-2022,10-42-32,84,depth_duration_stimuli/002568_2014-06-24_13-59-21_094959634447_rgbf000062-resize_4/002568_2014-06-24_13-59-21_094959634447_rgbf000062-resize_4-target.png,125,3.015,2,2476,124,meters,jsons/VE125_randls_41.json,691526,2691933,45,Woman
84,357726,DepthScenes,duration_manipulation_targetAtFixation,jsons/VE125_randls_41.json,http://54.235.29.9/FacialAge/BNav_EC2/DepthDuration/v2_depth_duration_MTurk/v2_DepthDuration_HTML.html#467,467,1366,657,1366,768,8-29-2022,10-42-32,85,depth_duration_stimuli/000642_2014-06-08_16-59-25_260595134347_rgbf000098-resize_2/000642_2014-06-08_16-59-25_260595134347_rgbf000098-resize_2-target.png,125,2.8815,3,2339,123,meters,jsons/VE125_randls_41.json,691526,2691933,45,Woman
85,357726,DepthScenes,duration_manipulation_targetAtFixation,jsons/VE125_randls_41.json,http://54.235.29.9/FacialAge/BNav_EC2/DepthDuration/v2_depth_duration_MTurk/v2_DepthDuration_HTML.html#467,467,1366,657,1366,768,8-29-2022,10-42-32,86,depth_duration_stimuli/002425_2014-06-28_20-27-29_260595134347_rgbf000031-resize_8/002425_2014-06-28_20-27-29_260595134347_rgbf000031-resize_8-target.png,125,3.8960000000000004,3,3228,126,meters,jsons/VE125_randls_41.json,691526,2691933,45,Woman
86,357726,DepthScenes,duration_manipulation_targetAtFixation,jsons/VE125_randls_41.json,http://54.235.29.9/FacialAge/BNav_EC2/DepthDuration/v2_depth_duration_MTurk/v2_DepthDuration_HTML.html#467,467,1366,657,1366,768,8-29-2022,10-42-32,87,depth_duration_stimuli/001244_2014-06-17_16-47-45_260595134347_rgbf000030-resize_4/001244_2014-06-17_16-47-45_260595134347_rgbf000030-resize_4-target.png,125,2.0425,2,2713,105,meters,jsons/VE125_randls_41.json,691526,2691933,45,Woman
87,357726,DepthScenes,duration_manipulation_targetAtFixation,jsons/VE125_randls_41.json,http://54.235.29.9/FacialAge/BNav_EC2/DepthDuration/v2_depth_duration_MTurk/v2_DepthDuration_HTML.html#467,467,1366,657,1366,768,8-29-2022,10-42-32,88,depth_duration_stimuli/003495_2014-05-21_16-01-51_094959634447_rgbf000100-resize_3/003495_2014-05-21_16-01-51_094959634447_rgbf000100-resize_3-target.png,125,1.6255,2,2811,122,meters,jsons/VE125_randls_41.json,691526,2691933,45,Woman
88,357726,DepthScenes,duration_manipulation_targetAtFixation,jsons/VE125_randls_41.json,http://54.235.29.9/FacialAge/BNav_EC2/DepthDuration/v2_depth_duration_MTurk/v2_DepthDuration_HTML.html#467,467,1366,657,1366,768,8-29-2022,10-42-32,89,depth_duration_stimuli/001110_2014-06-15_17-25-28_260595134347_rgbf000150-resize_1/001110_2014-06-15_17-25-28_260595134347_rgbf000150-resize_1-target.png,125,1.7115,2,2025,115,meters,jsons/VE125_randls_41.json,691526,2691933,45,Woman
89,357726,DepthScenes,duration_manipulation_targetAtFixation,jsons/VE125_randls_41.json,http://54.235.29.9/FacialAge/BNav_EC2/DepthDuration/v2_depth_duration_MTurk/v2_DepthDuration_HTML.html#467,467,1366,657,1366,768,8-29-2022,10-42-32,90,depth_duration_stimuli/000927_2014-06-09_16-32-30_260595134347_rgbf000123-resize_3/000927_2014-06-09_16-32-30_260595134347_rgbf000123-resize_3-target.png,125,2.6785,2,2179,125,meters,jsons/VE125_randls_41.json,691526,2691933,45,Woman
90,357726,DepthScenes,duration_manipulation_targetAtFixation,jsons/VE125_randls_41.json,http://54.235.29.9/FacialAge/BNav_EC2/DepthDuration/v2_depth_duration_MTurk/v2_DepthDuration_HTML.html#467,467,1366,657,1366,768,8-29-2022,10-42-32,91,depth_duration_stimuli/000414_2014-06-04_19-49-13_260595134347_rgbf000044-resize_0/000414_2014-06-04_19-49-13_260595134347_rgbf000044-resize_0-target.png,125,4.329,2,2590,92,meters,jsons/VE125_randls_41.json,691526,2691933,45,Woman
91,357726,DepthScenes,duration_manipulation_targetAtFixation,jsons/VE125_randls_41.json,http://54.235.29.9/FacialAge/BNav_EC2/DepthDuration/v2_depth_duration_MTurk/v2_DepthDuration_HTML.html#467,467,1366,657,1366,768,8-29-2022,10-42-32,92,depth_duration_stimuli/003129_2014-05-12_10-48-10_094959634447_rgbf000100-resize_0/003129_2014-05-12_10-48-10_094959634447_rgbf000100-resize_0-target.png,125,4.9305,2,1998,104,meters,jsons/VE125_randls_41.json,691526,2691933,45,Woman
92,357726,DepthScenes,duration_manipulation_targetAtFixation,jsons/VE125_randls_41.json,http://54.235.29.9/FacialAge/BNav_EC2/DepthDuration/v2_depth_duration_MTurk/v2_DepthDuration_HTML.html#467,467,1366,657,1366,768,8-29-2022,10-42-32,93,depth_duration_stimuli/000522_2014-06-08_13-35-06_260595134347_rgbf000244-resize_1/000522_2014-06-08_13-35-06_260595134347_rgbf000244-resize_1-target.png,125,2.3715,2,2670,58,meters,jsons/VE125_randls_41.json,691526,2691933,45,Woman
93,357726,DepthScenes,duration_manipulation_targetAtFixation,jsons/VE125_randls_41.json,http://54.235.29.9/FacialAge/BNav_EC2/DepthDuration/v2_depth_duration_MTurk/v2_DepthDuration_HTML.html#467,467,1366,657,1366,768,8-29-2022,10-42-32,94,depth_duration_stimuli/002949_2014-06-26_15-57-42_094959634447_rgbf000079-resize_1/002949_2014-06-26_15-57-42_094959634447_rgbf000079-resize_1-target.png,125,1.8915,2,2689,134,meters,jsons/VE125_randls_41.json,691526,2691933,45,Woman
94,357726,DepthScenes,duration_manipulation_targetAtFixation,jsons/VE125_randls_41.json,http://54.235.29.9/FacialAge/BNav_EC2/DepthDuration/v2_depth_duration_MTurk/v2_DepthDuration_HTML.html#467,467,1366,657,1366,768,8-29-2022,10-42-32,95,depth_duration_stimuli/000917_2014-06-09_22-45-29_260595134347_rgbf000149-resize_3/000917_2014-06-09_22-45-29_260595134347_rgbf000149-resize_3-target.png,125,4.1865,3,2888,127,meters,jsons/VE125_randls_41.json,691526,2691933,45,Woman
95,357726,DepthScenes,duration_manipulation_targetAtFixation,jsons/VE125_randls_41.json,http://54.235.29.9/FacialAge/BNav_EC2/DepthDuration/v2_depth_duration_MTurk/v2_DepthDuration_HTML.html#467,467,1366,657,1366,768,8-29-2022,10-42-32,96,depth_duration_stimuli/002323_2014-06-28_20-01-54_260595134347_rgbf000051-resize_4/002323_2014-06-28_20-01-54_260595134347_rgbf000051-resize_4-target.png,125,3.7310000000000003,3,3057,4,meters,jsons/VE125_randls_41.json,691526,2691933,45,Woman
96,357726,DepthScenes,duration_manipulation_targetAtFixation,jsons/VE125_randls_41.json,http://54.235.29.9/FacialAge/BNav_EC2/DepthDuration/v2_depth_duration_MTurk/v2_DepthDuration_HTML.html#467,467,1366,657,1366,768,8-29-2022,10-42-32,97,depth_duration_stimuli/001011_2014-06-08_23-18-54_260595134347_rgbf000044-resize_4/001011_2014-06-08_23-18-54_260595134347_rgbf000044-resize_4-target.png,125,2.4730000000000003,3,2037,135,meters,jsons/VE125_randls_41.json,691526,2691933,45,Woman
97,357726,DepthScenes,duration_manipulation_targetAtFixation,jsons/VE125_randls_41.json,http://54.235.29.9/FacialAge/BNav_EC2/DepthDuration/v2_depth_duration_MTurk/v2_DepthDuration_HTML.html#467,467,1366,657,1366,768,8-29-2022,10-42-32,98,depth_duration_stimuli/002875_2014-06-01_15-19-00_094959634447_rgbf000151-resize_1/002875_2014-06-01_15-19-00_094959634447_rgbf000151-resize_1-target.png,125,1.9675,3,2650,123,meters,jsons/VE125_randls_41.json,691526,2691933,45,Woman
98,357726,DepthScenes,duration_manipulation_targetAtFixation,jsons/VE125_randls_41.json,http://54.235.29.9/FacialAge/BNav_EC2/DepthDuration/v2_depth_duration_MTurk/v2_DepthDuration_HTML.html#467,467,1366,657,1366,768,8-29-2022,10-42-32,99,depth_duration_stimuli/001540_2014-06-20_17-01-05_260595134347_rgbf000086-resize_2/001540_2014-06-20_17-01-05_260595134347_rgbf000086-resize-original.jpg,125,1.459,0,2748,146,meters,jsons/VE125_randls_41.json,691526,2691933,45,Woman
99,357726,DepthScenes,duration_manipulation_targetAtFixation,jsons/VE125_randls_41.json,http://54.235.29.9/FacialAge/BNav_EC2/DepthDuration/v2_depth_duration_MTurk/v2_DepthDuration_HTML.html#467,467,1366,657,1366,768,8-29-2022,10-42-32,100,depth_duration_stimuli/002630_2014-06-24_14-47-50_094959634447_rgbf000055-resize_1/002630_2014-06-24_14-47-50_094959634447_rgbf000055-resize_1-target.png,125,3.0095,1,8496,110,meters,jsons/VE125_randls_41.json,691526,2691933,45,Woman
100,357726,DepthScenes,duration_manipulation_targetAtFixation,jsons/VE125_randls_41.json,http://54.235.29.9/FacialAge/BNav_EC2/DepthDuration/v2_depth_duration_MTurk/v2_DepthDuration_HTML.html#467,467,1366,657,1366,768,8-29-2022,10-42-32,101,depth_duration_stimuli/002758_2014-06-22_19-11-20_094959634447_rgbf000128-resize_1/002758_2014-06-22_19-11-20_094959634447_rgbf000128-resize_1-target.png,125,2.555,2,2762,62,meters,jsons/VE125_randls_41.json,691526,2691933,45,Woman
101,357726,DepthScenes,duration_manipulation_targetAtFixation,jsons/VE125_randls_41.json,http://54.235.29.9/FacialAge/BNav_EC2/DepthDuration/v2_depth_duration_MTurk/v2_DepthDuration_HTML.html#467,467,1366,657,1366,768,8-29-2022,10-42-32,102,depth_duration_stimuli/002763_2014-06-22_19-13-10_094959634447_rgbf000075-resize_4/002763_2014-06-22_19-13-10_094959634447_rgbf000075-resize_4-target.png,125,1.68375,2,2141,125,meters,jsons/VE125_randls_41.json,691526,2691933,45,Woman
102,357726,DepthScenes,duration_manipulation_targetAtFixation,jsons/VE125_randls_41.json,http://54.235.29.9/FacialAge/BNav_EC2/DepthDuration/v2_depth_duration_MTurk/v2_DepthDuration_HTML.html#467,467,1366,657,1366,768,8-29-2022,10-42-32,103,depth_duration_stimuli/002209_2014-06-28_18-36-10_260595134347_rgbf000051-resize_1/002209_2014-06-28_18-36-10_260595134347_rgbf000051-resize_1-target.png,125,2.057,2,1911,130,meters,jsons/VE125_randls_41.json,691526,2691933,45,Woman
103,357726,DepthScenes,duration_manipulation_targetAtFixation,jsons/VE125_randls_41.json,http://54.235.29.9/FacialAge/BNav_EC2/DepthDuration/v2_depth_duration_MTurk/v2_DepthDuration_HTML.html#467,467,1366,657,1366,768,8-29-2022,10-42-32,104,depth_duration_stimuli/002570_2014-06-24_13-59-54_094959634447_rgbf000059-resize_0/002570_2014-06-24_13-59-54_094959634447_rgbf000059-resize_0-target.png,125,4.037,0,3018,16,meters,jsons/VE125_randls_41.json,691526,2691933,45,Woman
104,357726,DepthScenes,duration_manipulation_targetAtFixation,jsons/VE125_randls_41.json,http://54.235.29.9/FacialAge/BNav_EC2/DepthDuration/v2_depth_duration_MTurk/v2_DepthDuration_HTML.html#467,467,1366,657,1366,768,8-29-2022,10-42-32,105,depth_duration_stimuli/002467_2014-06-28_20-38-07_260595134347_rgbf000026-resize_2/002467_2014-06-28_20-38-07_260595134347_rgbf000026-resize_2-target.png,125,4.742,2,2533,125,meters,jsons/VE125_randls_41.json,691526,2691933,45,Woman
105,357726,DepthScenes,duration_manipulation_targetAtFixation,jsons/VE125_randls_41.json,http://54.235.29.9/FacialAge/BNav_EC2/DepthDuration/v2_depth_duration_MTurk/v2_DepthDuration_HTML.html#467,467,1366,657,1366,768,8-29-2022,10-42-32,106,depth_duration_stimuli/001808_2014-06-26_20-50-58_260595134347_rgbf000029-resize_1/001808_2014-06-26_20-50-58_260595134347_rgbf000029-resize_1-target.png,125,4.249,2,2381,137,meters,jsons/VE125_randls_41.json,691526,2691933,45,Woman
106,357726,DepthScenes,duration_manipulation_targetAtFixation,jsons/VE125_randls_41.json,http://54.235.29.9/FacialAge/BNav_EC2/DepthDuration/v2_depth_duration_MTurk/v2_DepthDuration_HTML.html#467,467,1366,657,1366,768,8-29-2022,10-42-32,107,depth_duration_stimuli/001815_2014-06-26_20-52-55_260595134347_rgbf000020-resize_0/001815_2014-06-26_20-52-55_260595134347_rgbf000020-resize_0-target.png,125,3.3865,3,2273,127,meters,jsons/VE125_randls_41.json,691526,2691933,45,Woman
107,357726,DepthScenes,duration_manipulation_targetAtFixation,jsons/VE125_randls_41.json,http://54.235.29.9/FacialAge/BNav_EC2/DepthDuration/v2_depth_duration_MTurk/v2_DepthDuration_HTML.html#467,467,1366,657,1366,768,8-29-2022,10-42-32,108,depth_duration_stimuli/002964_2014-06-08_17-46-11_094959634447_rgbf000091-resize_4/002964_2014-06-08_17-46-11_094959634447_rgbf000091-resize_4-target.png,125,1.6909999999999998,2,2678,124,meters,jsons/VE125_randls_41.json,691526,2691933,45,Woman
108,357726,DepthScenes,duration_manipulation_targetAtFixation,jsons/VE125_randls_41.json,http://54.235.29.9/FacialAge/BNav_EC2/DepthDuration/v2_depth_duration_MTurk/v2_DepthDuration_HTML.html#467,467,1366,657,1366,768,8-29-2022,10-42-32,109,depth_duration_stimuli/002136_2014-06-25_21-18-03_260595134347_rgbf000109-resize_3/002136_2014-06-25_21-18-03_260595134347_rgbf000109-resize_3-target.png,125,1.9569999999999999,2,2123,121,meters,jsons/VE125_randls_41.json,691526,2691933,45,Woman
109,357726,DepthScenes,duration_manipulation_targetAtFixation,jsons/VE125_randls_41.json,http://54.235.29.9/FacialAge/BNav_EC2/DepthDuration/v2_depth_duration_MTurk/v2_DepthDuration_HTML.html#467,467,1366,657,1366,768,8-29-2022,10-42-32,110,depth_duration_stimuli/003534_2014-05-22_15-06-10_094959634447_rgbf000102-resize_4/003534_2014-05-22_15-06-10_094959634447_rgbf000102-resize_4-target.png,125,1.426,1,3136,106,meters,jsons/VE125_randls_41.json,691526,2691933,45,Woman
110,357726,DepthScenes,duration_manipulation_targetAtFixation,jsons/VE125_randls_41.json,http://54.235.29.9/FacialAge/BNav_EC2/DepthDuration/v2_depth_duration_MTurk/v2_DepthDuration_HTML.html#467,467,1366,657,1366,768,8-29-2022,10-42-32,111,depth_duration_stimuli/002637_2014-06-24_14-51-13_094959634447_rgbf000066-resize_4/002637_2014-06-24_14-51-13_094959634447_rgbf000066-resize_4-target.png,125,1.9955,2,2550,123,meters,jsons/VE125_randls_41.json,691526,2691933,45,Woman
111,357726,DepthScenes,duration_manipulation_targetAtFixation,jsons/VE125_randls_41.json,http://54.235.29.9/FacialAge/BNav_EC2/DepthDuration/v2_depth_duration_MTurk/v2_DepthDuration_HTML.html#467,467,1366,657,1366,768,8-29-2022,10-42-32,112,depth_duration_stimuli/000739_2014-06-08_18-45-58_260595134347_rgbf000068-resize_1/000739_2014-06-08_18-45-58_260595134347_rgbf000068-resize_1-target.png,125,3.534,3,2489,57,meters,jsons/VE125_randls_41.json,691526,2691933,45,Woman
112,357726,DepthScenes,duration_manipulation_targetAtFixation,jsons/VE125_randls_41.json,http://54.235.29.9/FacialAge/BNav_EC2/DepthDuration/v2_depth_duration_MTurk/v2_DepthDuration_HTML.html#467,467,1366,657,1366,768,8-29-2022,10-42-32,113,depth_duration_stimuli/000734_2014-06-08_17-39-11_260595134347_rgbf000128-resize_2/000734_2014-06-08_17-39-11_260595134347_rgbf000128-resize_2-target.png,125,4.098,3,2764,123,meters,jsons/VE125_randls_41.json,691526,2691933,45,Woman
113,357726,DepthScenes,duration_manipulation_targetAtFixation,jsons/VE125_randls_41.json,http://54.235.29.9/FacialAge/BNav_EC2/DepthDuration/v2_depth_duration_MTurk/v2_DepthDuration_HTML.html#467,467,1366,657,1366,768,8-29-2022,10-42-32,114,depth_duration_stimuli/001133_2014-06-17_14-49-16_260595134347_rgbf000100-resize_0/001133_2014-06-17_14-49-16_260595134347_rgbf000100-resize_0-target.png,125,4.2115,3,2736,124,meters,jsons/VE125_randls_41.json,691526,2691933,45,Woman
114,357726,DepthScenes,duration_manipulation_targetAtFixation,jsons/VE125_randls_41.json,http://54.235.29.9/FacialAge/BNav_EC2/DepthDuration/v2_depth_duration_MTurk/v2_DepthDuration_HTML.html#467,467,1366,657,1366,768,8-29-2022,10-42-32,115,depth_duration_stimuli/001132_2014-06-17_14-48-54_260595134347_rgbf000100-resize_2/001132_2014-06-17_14-48-54_260595134347_rgbf000100-resize_2-target.png,125,3.753,3,2568,111,meters,jsons/VE125_randls_41.json,691526,2691933,45,Woman
115,357726,DepthScenes,duration_manipulation_targetAtFixation,jsons/VE125_randls_41.json,http://54.235.29.9/FacialAge/BNav_EC2/DepthDuration/v2_depth_duration_MTurk/v2_DepthDuration_HTML.html#467,467,1366,657,1366,768,8-29-2022,10-42-32,116,depth_duration_stimuli/001170_2014-06-17_15-43-44_260595134347_rgbf000096-resize_6/001170_2014-06-17_15-43-44_260595134347_rgbf000096-resize-original.jpg,125,1.1909999999999998,0,2975,121,meters,jsons/VE125_randls_41.json,691526,2691933,45,Woman
116,357726,DepthScenes,duration_manipulation_targetAtFixation,jsons/VE125_randls_41.json,http://54.235.29.9/FacialAge/BNav_EC2/DepthDuration/v2_depth_duration_MTurk/v2_DepthDuration_HTML.html#467,467,1366,657,1366,768,8-29-2022,10-42-32,117,depth_duration_stimuli/001449_2014-06-19_17-01-27_260595134347_rgbf000116-resize_2/001449_2014-06-19_17-01-27_260595134347_rgbf000116-resize_2-target.png,125,3.452,3,2591,91,meters,jsons/VE125_randls_41.json,691526,2691933,45,Woman
117,357726,DepthScenes,duration_manipulation_targetAtFixation,jsons/VE125_randls_41.json,http://54.235.29.9/FacialAge/BNav_EC2/DepthDuration/v2_depth_duration_MTurk/v2_DepthDuration_HTML.html#467,467,1366,657,1366,768,8-29-2022,10-42-32,118,depth_duration_stimuli/001450_2014-06-19_17-02-03_260595134347_rgbf000203-resize_4/001450_2014-06-19_17-02-03_260595134347_rgbf000203-resize_4-target.png,125,4.0106666666667,3,1979,127,meters,jsons/VE125_randls_41.json,691526,2691933,45,Woman
118,357726,DepthScenes,duration_manipulation_targetAtFixation,jsons/VE125_randls_41.json,http://54.235.29.9/FacialAge/BNav_EC2/DepthDuration/v2_depth_duration_MTurk/v2_DepthDuration_HTML.html#467,467,1366,657,1366,768,8-29-2022,10-42-32,119,depth_duration_stimuli/000758_2014-06-08_22-05-08_260595134347_rgbf000085-resize_0/000758_2014-06-08_22-05-08_260595134347_rgbf000085-resize_0-target.png,125,3.3810000000000002,2,4416,121,meters,jsons/VE125_randls_41.json,691526,2691933,45,Woman
119,357726,DepthScenes,duration_manipulation_targetAtFixation,jsons/VE125_randls_41.json,http://54.235.29.9/FacialAge/BNav_EC2/DepthDuration/v2_depth_duration_MTurk/v2_DepthDuration_HTML.html#467,467,1366,657,1366,768,8-29-2022,10-42-32,120,depth_duration_stimuli/000854_2014-06-09_19-43-13_260595134347_rgbf000066-resize_0/000854_2014-06-09_19-43-13_260595134347_rgbf000066-resize_0-target.png,125,3.068,2,2484,126,meters,jsons/VE125_randls_41.json,691526,2691933,45,Woman
120,357726,DepthScenes,duration_manipulation_targetAtFixation,jsons/VE125_randls_41.json,http://54.235.29.9/FacialAge/BNav_EC2/DepthDuration/v2_depth_duration_MTurk/v2_DepthDuration_HTML.html#467,467,1366,657,1366,768,8-29-2022,10-42-32,121,depth_duration_stimuli/001199_2014-06-17_16-03-48_260595134347_rgbf000077-resize_0/001199_2014-06-17_16-03-48_260595134347_rgbf000077-resize_0-target.png,125,3.4375,3,3323,125,meters,jsons/VE125_randls_41.json,691526,2691933,45,Woman
121,357726,DepthScenes,duration_manipulation_targetAtFixation,jsons/VE125_randls_41.json,http://54.235.29.9/FacialAge/BNav_EC2/DepthDuration/v2_depth_duration_MTurk/v2_DepthDuration_HTML.html#467,467,1366,657,1366,768,8-29-2022,10-42-32,122,depth_duration_stimuli/000502_2014-06-08_23-02-32_260595134347_rgbf000063-resize_4/000502_2014-06-08_23-02-32_260595134347_rgbf000063-resize_4-target.png,125,2.431,2,2431,138,meters,jsons/VE125_randls_41.json,691526,2691933,45,Woman
122,357726,DepthScenes,duration_manipulation_targetAtFixation,jsons/VE125_randls_41.json,http://54.235.29.9/FacialAge/BNav_EC2/DepthDuration/v2_depth_duration_MTurk/v2_DepthDuration_HTML.html#467,467,1366,657,1366,768,8-29-2022,10-42-32,123,depth_duration_stimuli/000486_2014-06-09_20-47-20_260595134347_rgbf000143-resize_2/000486_2014-06-09_20-47-20_260595134347_rgbf000143-resize_2-target.png,125,4.8325,2,2693,171,meters,jsons/VE125_randls_41.json,691526,2691933,45,Woman
123,357726,DepthScenes,duration_manipulation_targetAtFixation,jsons/VE125_randls_41.json,http://54.235.29.9/FacialAge/BNav_EC2/DepthDuration/v2_depth_duration_MTurk/v2_DepthDuration_HTML.html#467,467,1366,657,1366,768,8-29-2022,10-42-32,124,depth_duration_stimuli/003083_2014-06-15_15-21-03_094959634447_rgbf000063-resize_1/003083_2014-06-15_15-21-03_094959634447_rgbf000063-resize_1-target.png,125,4.1405,3,2564,123,meters,jsons/VE125_randls_41.json,691526,2691933,45,Woman
124,357726,DepthScenes,duration_manipulation_targetAtFixation,jsons/VE125_randls_41.json,http://54.235.29.9/FacialAge/BNav_EC2/DepthDuration/v2_depth_duration_MTurk/v2_DepthDuration_HTML.html#467,467,1366,657,1366,768,8-29-2022,10-42-32,125,depth_duration_stimuli/002272_2014-06-28_18-53-56_260595134347_rgbf000067-resize_2/002272_2014-06-28_18-53-56_260595134347_rgbf000067-resize_2-target.png,125,1.138,1,2943,334,meters,jsons/VE125_randls_41.json,691526,2691933,45,Woman
125,357726,DepthScenes,duration_manipulation_targetAtFixation,jsons/VE125_randls_41.json,http://54.235.29.9/FacialAge/BNav_EC2/DepthDuration/v2_depth_duration_MTurk/v2_DepthDuration_HTML.html#467,467,1366,657,1366,768,8-29-2022,10-42-32,126,depth_duration_stimuli/001571_2014-06-20_17-21-32_260595134347_rgbf000089-resize_1/001571_2014-06-20_17-21-32_260595134347_rgbf000089-resize_1-target.png,125,1.86,1,3302,130,meters,jsons/VE125_randls_41.json,691526,2691933,45,Woman
126,357726,DepthScenes,duration_manipulation_targetAtFixation,jsons/VE125_randls_41.json,http://54.235.29.9/FacialAge/BNav_EC2/DepthDuration/v2_depth_duration_MTurk/v2_DepthDuration_HTML.html#467,467,1366,657,1366,768,8-29-2022,10-42-32,127,depth_duration_stimuli/000506_2014-06-08_23-21-00_260595134347_rgbf000070-resize_7/000506_2014-06-08_23-21-00_260595134347_rgbf000070-resize_7-target.png,125,4.0585,2,2377,118,meters,jsons/VE125_randls_41.json,691526,2691933,45,Woman
127,357726,DepthScenes,duration_manipulation_targetAtFixation,jsons/VE125_randls_41.json,http://54.235.29.9/FacialAge/BNav_EC2/DepthDuration/v2_depth_duration_MTurk/v2_DepthDuration_HTML.html#467,467,1366,657,1366,768,8-29-2022,10-42-32,128,depth_duration_stimuli/003079_2014-06-15_15-18-20_094959634447_rgbf000152-resize_8/003079_2014-06-15_15-18-20_094959634447_rgbf000152-resize_8-target.png,125,2.8775,3,2401,125,meters,jsons/VE125_randls_41.json,691526,2691933,45,Woman
128,357726,DepthScenes,duration_manipulation_targetAtFixation,jsons/VE125_randls_41.json,http://54.235.29.9/FacialAge/BNav_EC2/DepthDuration/v2_depth_duration_MTurk/v2_DepthDuration_HTML.html#467,467,1366,657,1366,768,8-29-2022,10-42-32,129,depth_duration_stimuli/003070_2014-06-15_14-58-27_094959634447_rgbf000150-resize_3/003070_2014-06-15_14-58-27_094959634447_rgbf000150-resize_3-target.png,125,2.9415,2,3011,122,meters,jsons/VE125_randls_41.json,691526,2691933,45,Woman
129,357726,DepthScenes,duration_manipulation_targetAtFixation,jsons/VE125_randls_41.json,http://54.235.29.9/FacialAge/BNav_EC2/DepthDuration/v2_depth_duration_MTurk/v2_DepthDuration_HTML.html#467,467,1366,657,1366,768,8-29-2022,10-42-32,130,depth_duration_stimuli/000943_2014-06-09_19-31-07_260595134347_rgbf000128-resize_1/000943_2014-06-09_19-31-07_260595134347_rgbf000128-resize_1-target.png,125,1.9765,2,2862,125,meters,jsons/VE125_randls_41.json,691526,2691933,45,Woman
130,357726,DepthScenes,duration_manipulation_targetAtFixation,jsons/VE125_randls_41.json,http://54.235.29.9/FacialAge/BNav_EC2/DepthDuration/v2_depth_duration_MTurk/v2_DepthDuration_HTML.html#467,467,1366,657,1366,768,8-29-2022,10-42-32,131,depth_duration_stimuli/003621_2014-05-23_18-06-08_094959634447_rgbf000101-resize_1/003621_2014-05-23_18-06-08_094959634447_rgbf000101-resize_1-target.png,125,3.9835,3,4767,132,meters,jsons/VE125_randls_41.json,691526,2691933,45,Woman
131,357726,DepthScenes,duration_manipulation_targetAtFixation,jsons/VE125_randls_41.json,http://54.235.29.9/FacialAge/BNav_EC2/DepthDuration/v2_depth_duration_MTurk/v2_DepthDuration_HTML.html#467,467,1366,657,1366,768,8-29-2022,10-42-32,132,depth_duration_stimuli/001584_2014-06-20_11-07-43_260595134347_rgbf000002-resize_1/001584_2014-06-20_11-07-43_260595134347_rgbf000002-resize_1-target.png,125,3.53,2,2266,134,meters,jsons/VE125_randls_41.json,691526,2691933,45,Woman
132,357726,DepthScenes,duration_manipulation_targetAtFixation,jsons/VE125_randls_41.json,http://54.235.29.9/FacialAge/BNav_EC2/DepthDuration/v2_depth_duration_MTurk/v2_DepthDuration_HTML.html#467,467,1366,657,1366,768,8-29-2022,10-42-32,133,depth_duration_stimuli/000692_2014-06-08_13-09-42_260595134347_rgbf000199-resize_2/000692_2014-06-08_13-09-42_260595134347_rgbf000199-resize_2-target.png,125,3.661,2,2086,125,meters,jsons/VE125_randls_41.json,691526,2691933,45,Woman
133,357726,DepthScenes,duration_manipulation_targetAtFixation,jsons/VE125_randls_41.json,http://54.235.29.9/FacialAge/BNav_EC2/DepthDuration/v2_depth_duration_MTurk/v2_DepthDuration_HTML.html#467,467,1366,657,1366,768,8-29-2022,10-42-32,134,depth_duration_stimuli/001094_2014-06-15_17-36-00_260595134347_rgbf000205-resize_0/001094_2014-06-15_17-36-00_260595134347_rgbf000205-resize_0-target.png,125,4.2175,2,2655,137,meters,jsons/VE125_randls_41.json,691526,2691933,45,Woman
134,357726,DepthScenes,duration_manipulation_targetAtFixation,jsons/VE125_randls_41.json,http://54.235.29.9/FacialAge/BNav_EC2/DepthDuration/v2_depth_duration_MTurk/v2_DepthDuration_HTML.html#467,467,1366,657,1366,768,8-29-2022,10-42-32,135,depth_duration_stimuli/002072_2014-06-24_21-48-06_260595134347_rgbf000115-resize_0/002072_2014-06-24_21-48-06_260595134347_rgbf000115-resize-original.jpg,125,4.702,0,3525,92,meters,jsons/VE125_randls_41.json,691526,2691933,45,Woman
135,357726,DepthScenes,duration_manipulation_targetAtFixation,jsons/VE125_randls_41.json,http://54.235.29.9/FacialAge/BNav_EC2/DepthDuration/v2_depth_duration_MTurk/v2_DepthDuration_HTML.html#467,467,1366,657,1366,768,8-29-2022,10-42-32,136,depth_duration_stimuli/002153_2014-06-25_21-27-18_260595134347_rgbf000038-resize_5/002153_2014-06-25_21-27-18_260595134347_rgbf000038-resize_5-target.png,125,2.505,2,7451,126,meters,jsons/VE125_randls_41.json,691526,2691933,45,Woman
136,357726,DepthScenes,duration_manipulation_targetAtFixation,jsons/VE125_randls_41.json,http://54.235.29.9/FacialAge/BNav_EC2/DepthDuration/v2_depth_duration_MTurk/v2_DepthDuration_HTML.html#467,467,1366,657,1366,768,8-29-2022,10-42-32,137,depth_duration_stimuli/002660_2014-06-13_15-44-18_094959634447_rgbf001878-resize_2/002660_2014-06-13_15-44-18_094959634447_rgbf001878-resize_2-target.png,125,3.576,2,2664,127,meters,jsons/VE125_randls_41.json,691526,2691933,45,Woman
137,357726,DepthScenes,duration_manipulation_targetAtFixation,jsons/VE125_randls_41.json,http://54.235.29.9/FacialAge/BNav_EC2/DepthDuration/v2_depth_duration_MTurk/v2_DepthDuration_HTML.html#467,467,1366,657,1366,768,8-29-2022,10-42-32,138,depth_duration_stimuli/000368_2014-06-09_15-53-01_260595134347_rgbf000155-resize_2/000368_2014-06-09_15-53-01_260595134347_rgbf000155-resize_2-target.png,125,2.4859999999999998,2,3590,124,meters,jsons/VE125_randls_41.json,691526,2691933,45,Woman
138,357726,DepthScenes,duration_manipulation_targetAtFixation,jsons/VE125_randls_41.json,http://54.235.29.9/FacialAge/BNav_EC2/DepthDuration/v2_depth_duration_MTurk/v2_DepthDuration_HTML.html#467,467,1366,657,1366,768,8-29-2022,10-42-32,139,depth_duration_stimuli/002678_2014-06-13_16-15-32_094959634447_rgbf000151-resize_6/002678_2014-06-13_16-15-32_094959634447_rgbf000151-resize_6-target.png,125,2.1830000000000003,1,42914,129,meters,jsons/VE125_randls_41.json,691526,2691933,45,Woman
139,357726,DepthScenes,duration_manipulation_targetAtFixation,jsons/VE125_randls_41.json,http://54.235.29.9/FacialAge/BNav_EC2/DepthDuration/v2_depth_duration_MTurk/v2_DepthDuration_HTML.html#467,467,1366,657,1366,768,8-29-2022,10-42-32,140,depth_duration_stimuli/002988_2014-06-15_12-24-20_094959634447_rgbf000150-resize_1/002988_2014-06-15_12-24-20_094959634447_rgbf000150-resize_1-target.png,125,4.7669999999999995,2,2677,130,meters,jsons/VE125_randls_41.json,691526,2691933,45,Woman
140,357726,DepthScenes,duration_manipulation_targetAtFixation,jsons/VE125_randls_41.json,http://54.235.29.9/FacialAge/BNav_EC2/DepthDuration/v2_depth_duration_MTurk/v2_DepthDuration_HTML.html#467,467,1366,657,1366,768,8-29-2022,10-42-32,141,depth_duration_stimuli/001052_2014-06-08_18-24-54_260595134347_rgbf000130-resize_1/001052_2014-06-08_18-24-54_260595134347_rgbf000130-resize_1-target.png,125,4.1045,2,3020,123,meters,jsons/VE125_randls_41.json,691526,2691933,45,Woman
141,357726,DepthScenes,duration_manipulation_targetAtFixation,jsons/VE125_randls_41.json,http://54.235.29.9/FacialAge/BNav_EC2/DepthDuration/v2_depth_duration_MTurk/v2_DepthDuration_HTML.html#467,467,1366,657,1366,768,8-29-2022,10-42-32,142,depth_duration_stimuli/001029_2014-06-08_13-17-57_260595134347_rgbf000065-resize_1/001029_2014-06-08_13-17-57_260595134347_rgbf000065-resize_1-target.png,125,3.0835,1,2834,121,meters,jsons/VE125_randls_41.json,691526,2691933,45,Woman
142,357726,DepthScenes,duration_manipulation_targetAtFixation,jsons/VE125_randls_41.json,http://54.235.29.9/FacialAge/BNav_EC2/DepthDuration/v2_depth_duration_MTurk/v2_DepthDuration_HTML.html#467,467,1366,657,1366,768,8-29-2022,10-42-32,143,depth_duration_stimuli/000677_2014-06-08_23-10-32_260595134347_rgbf000158-resize_6/000677_2014-06-08_23-10-32_260595134347_rgbf000158-resize_6-target.png,125,3.556,2,2536,139,meters,jsons/VE125_randls_41.json,691526,2691933,45,Woman
143,357726,DepthScenes,duration_manipulation_targetAtFixation,jsons/VE125_randls_41.json,http://54.235.29.9/FacialAge/BNav_EC2/DepthDuration/v2_depth_duration_MTurk/v2_DepthDuration_HTML.html#467,467,1366,657,1366,768,8-29-2022,10-42-32,144,depth_duration_stimuli/000878_2014-06-08_22-52-45_260595134347_rgbf000045-resize_2/000878_2014-06-08_22-52-45_260595134347_rgbf000045-resize_2-target.png,125,2.092,2,20966,101,meters,jsons/VE125_randls_41.json,691526,2691933,45,Woman
144,357726,DepthScenes,duration_manipulation_targetAtFixation,jsons/VE125_randls_41.json,http://54.235.29.9/FacialAge/BNav_EC2/DepthDuration/v2_depth_duration_MTurk/v2_DepthDuration_HTML.html#467,467,1366,657,1366,768,8-29-2022,10-42-32,145,depth_duration_stimuli/002953_2014-06-08_17-32-18_094959634447_rgbf000059-resize_5/002953_2014-06-08_17-32-18_094959634447_rgbf000059-resize_5-target.png,125,1.551,2,2303,124,meters,jsons/VE125_randls_41.json,691526,2691933,45,Woman
145,357726,DepthScenes,duration_manipulation_targetAtFixation,jsons/VE125_randls_41.json,http://54.235.29.9/FacialAge/BNav_EC2/DepthDuration/v2_depth_duration_MTurk/v2_DepthDuration_HTML.html#467,467,1366,657,1366,768,8-29-2022,10-42-32,146,depth_duration_stimuli/001498_2014-06-19_17-45-14_260595134347_rgbf000129-resize_4/001498_2014-06-19_17-45-14_260595134347_rgbf000129-resize-original.jpg,125,1.4075,0,6667,124,meters,jsons/VE125_randls_41.json,691526,2691933,45,Woman
146,357726,DepthScenes,duration_manipulation_targetAtFixation,jsons/VE125_randls_41.json,http://54.235.29.9/FacialAge/BNav_EC2/DepthDuration/v2_depth_duration_MTurk/v2_DepthDuration_HTML.html#467,467,1366,657,1366,768,8-29-2022,10-42-32,147,depth_duration_stimuli/001059_2014-06-08_21-53-27_260595134347_rgbf000061-resize_4/001059_2014-06-08_21-53-27_260595134347_rgbf000061-resize_4-target.png,125,2.4185,2,6170,136,meters,jsons/VE125_randls_41.json,691526,2691933,45,Woman
147,357726,DepthScenes,duration_manipulation_targetAtFixation,jsons/VE125_randls_41.json,http://54.235.29.9/FacialAge/BNav_EC2/DepthDuration/v2_depth_duration_MTurk/v2_DepthDuration_HTML.html#467,467,1366,657,1366,768,8-29-2022,10-42-32,148,depth_duration_stimuli/001032_2014-06-08_13-23-17_260595134347_rgbf000021-resize_3/001032_2014-06-08_13-23-17_260595134347_rgbf000021-resize_3-target.png,125,3.2725,2,3430,125,meters,jsons/VE125_randls_41.json,691526,2691933,45,Woman
148,357726,DepthScenes,duration_manipulation_targetAtFixation,jsons/VE125_randls_41.json,http://54.235.29.9/FacialAge/BNav_EC2/DepthDuration/v2_depth_duration_MTurk/v2_DepthDuration_HTML.html#467,467,1366,657,1366,768,8-29-2022,10-42-32,149,depth_duration_stimuli/001092_2014-06-15_17-34-58_260595134347_rgbf000171-resize_3/001092_2014-06-15_17-34-58_260595134347_rgbf000171-resize_3-target.png,125,2.6935,2,2323,128,meters,jsons/VE125_randls_41.json,691526,2691933,45,Woman
149,357726,DepthScenes,duration_manipulation_targetAtFixation,jsons/VE125_randls_41.json,http://54.235.29.9/FacialAge/BNav_EC2/DepthDuration/v2_depth_duration_MTurk/v2_DepthDuration_HTML.html#467,467,1366,657,1366,768,8-29-2022,10-42-32,150,depth_duration_stimuli/002545_2014-06-24_13-38-53_094959634447_rgbf000080-resize_4/002545_2014-06-24_13-38-53_094959634447_rgbf000080-resize_4-target.png,125,1.9205,2,3519,125,meters,jsons/VE125_randls_41.json,691526,2691933,45,Woman
150,357726,DepthScenes,duration_manipulation_targetAtFixation,jsons/VE125_randls_41.json,http://54.235.29.9/FacialAge/BNav_EC2/DepthDuration/v2_depth_duration_MTurk/v2_DepthDuration_HTML.html#467,467,1366,657,1366,768,8-29-2022,10-42-32,151,depth_duration_stimuli/000682_2014-06-08_23-14-58_260595134347_rgbf000041-resize_5/000682_2014-06-08_23-14-58_260595134347_rgbf000041-resize_5-target.png,125,2.7239999999999998,1,2135,110,meters,jsons/VE125_randls_41.json,691526,2691933,45,Woman
151,357726,DepthScenes,duration_manipulation_targetAtFixation,jsons/VE125_randls_41.json,http://54.235.29.9/FacialAge/BNav_EC2/DepthDuration/v2_depth_duration_MTurk/v2_DepthDuration_HTML.html#467,467,1366,657,1366,768,8-29-2022,10-42-32,152,depth_duration_stimuli/001650_2014-06-20_12-09-00_260595134347_rgbf000087-resize_3/001650_2014-06-20_12-09-00_260595134347_rgbf000087-resize_3-target.png,125,1.9505,1,3760,125,meters,jsons/VE125_randls_41.json,691526,2691933,45,Woman
152,357726,DepthScenes,duration_manipulation_targetAtFixation,jsons/VE125_randls_41.json,http://54.235.29.9/FacialAge/BNav_EC2/DepthDuration/v2_depth_duration_MTurk/v2_DepthDuration_HTML.html#467,467,1366,657,1366,768,8-29-2022,10-42-32,153,depth_duration_stimuli/000469_2014-06-09_19-42-10_260595134347_rgbf000081-resize_1/000469_2014-06-09_19-42-10_260595134347_rgbf000081-resize_1-target.png,125,1.652,1,2717,133,meters,jsons/VE125_randls_41.json,691526,2691933,45,Woman
153,357726,DepthScenes,duration_manipulation_targetAtFixation,jsons/VE125_randls_41.json,http://54.235.29.9/FacialAge/BNav_EC2/DepthDuration/v2_depth_duration_MTurk/v2_DepthDuration_HTML.html#467,467,1366,657,1366,768,8-29-2022,10-42-32,154,depth_duration_stimuli/000483_2014-06-09_20-41-45_260595134347_rgbf000116-resize_4/000483_2014-06-09_20-41-45_260595134347_rgbf000116-resize_4-target.png,125,1.337,1,2629,135,meters,jsons/VE125_randls_41.json,691526,2691933,45,Woman
154,357726,DepthScenes,duration_manipulation_targetAtFixation,jsons/VE125_randls_41.json,http://54.235.29.9/FacialAge/BNav_EC2/DepthDuration/v2_depth_duration_MTurk/v2_DepthDuration_HTML.html#467,467,1366,657,1366,768,8-29-2022,10-42-32,155,depth_duration_stimuli/002549_2014-06-24_13-41-39_094959634447_rgbf000022-resize_3/002549_2014-06-24_13-41-39_094959634447_rgbf000022-resize_3-target.png,125,1.476,1,2595,123,meters,jsons/VE125_randls_41.json,691526,2691933,45,Woman
155,357726,DepthScenes,duration_manipulation_targetAtFixation,jsons/VE125_randls_41.json,http://54.235.29.9/FacialAge/BNav_EC2/DepthDuration/v2_depth_duration_MTurk/v2_DepthDuration_HTML.html#467,467,1366,657,1366,768,8-29-2022,10-42-32,156,depth_duration_stimuli/002750_2014-06-22_19-08-03_094959634447_rgbf000094-resize_4/002750_2014-06-22_19-08-03_094959634447_rgbf000094-resize_4-target.png,125,2.354,2,1939,125,meters,jsons/VE125_randls_41.json,691526,2691933,45,Woman
156,357726,DepthScenes,duration_manipulation_targetAtFixation,jsons/VE125_randls_41.json,http://54.235.29.9/FacialAge/BNav_EC2/DepthDuration/v2_depth_duration_MTurk/v2_DepthDuration_HTML.html#467,467,1366,657,1366,768,8-29-2022,10-42-32,157,depth_duration_stimuli/002725_2014-06-22_11-47-51_094959634447_rgbf000070-resize_1/002725_2014-06-22_11-47-51_094959634447_rgbf000070-resize_1-target.png,125,2.195,2,2319,121,meters,jsons/VE125_randls_41.json,691526,2691933,45,Woman
157,357726,DepthScenes,duration_manipulation_targetAtFixation,jsons/VE125_randls_41.json,http://54.235.29.9/FacialAge/BNav_EC2/DepthDuration/v2_depth_duration_MTurk/v2_DepthDuration_HTML.html#467,467,1366,657,1366,768,8-29-2022,10-42-32,158,depth_duration_stimuli/002344_2014-06-28_20-06-29_260595134347_rgbf000030-resize_1/002344_2014-06-28_20-06-29_260595134347_rgbf000030-resize_1-target.png,125,1.5795,2,2130,125,meters,jsons/VE125_randls_41.json,691526,2691933,45,Woman
158,357726,DepthScenes,duration_manipulation_targetAtFixation,jsons/VE125_randls_41.json,http://54.235.29.9/FacialAge/BNav_EC2/DepthDuration/v2_depth_duration_MTurk/v2_DepthDuration_HTML.html#467,467,1366,657,1366,768,8-29-2022,10-42-32,159,depth_duration_stimuli/002989_2014-06-15_12-25-03_094959634447_rgbf000150-resize_3/002989_2014-06-15_12-25-03_094959634447_rgbf000150-resize_3-target.png,125,4.1975,0,5069,125,meters,jsons/VE125_randls_41.json,691526,2691933,45,Woman
159,357726,DepthScenes,duration_manipulation_targetAtFixation,jsons/VE125_randls_41.json,http://54.235.29.9/FacialAge/BNav_EC2/DepthDuration/v2_depth_duration_MTurk/v2_DepthDuration_HTML.html#467,467,1366,657,1366,768,8-29-2022,10-42-32,160,depth_duration_stimuli/000866_2014-06-09_20-45-42_260595134347_rgbf000139-resize_1/000866_2014-06-09_20-45-42_260595134347_rgbf000139-resize_1-target.png,125,3.2155,1,2442,142,meters,jsons/VE125_randls_41.json,691526,2691933,45,Woman
160,357726,DepthScenes,duration_manipulation_targetAtFixation,jsons/VE125_randls_41.json,http://54.235.29.9/FacialAge/BNav_EC2/DepthDuration/v2_depth_duration_MTurk/v2_DepthDuration_HTML.html#467,467,1366,657,1366,768,8-29-2022,10-42-32,161,depth_duration_stimuli/001056_2014-06-08_18-46-44_260595134347_rgbf000068-resize_0/001056_2014-06-08_18-46-44_260595134347_rgbf000068-resize_0-target.png,125,2.6625,2,2570,123,meters,jsons/VE125_randls_41.json,691526,2691933,45,Woman
161,357726,DepthScenes,duration_manipulation_targetAtFixation,jsons/VE125_randls_41.json,http://54.235.29.9/FacialAge/BNav_EC2/DepthDuration/v2_depth_duration_MTurk/v2_DepthDuration_HTML.html#467,467,1366,657,1366,768,8-29-2022,10-42-32,162,depth_duration_stimuli/002199_2014-06-28_18-33-56_260595134347_rgbf000074-resize_0/002199_2014-06-28_18-33-56_260595134347_rgbf000074-resize_0-target.png,125,1.996,1,1936,162,meters,jsons/VE125_randls_41.json,691526,2691933,45,Woman
162,357726,DepthScenes,duration_manipulation_targetAtFixation,jsons/VE125_randls_41.json,http://54.235.29.9/FacialAge/BNav_EC2/DepthDuration/v2_depth_duration_MTurk/v2_DepthDuration_HTML.html#467,467,1366,657,1366,768,8-29-2022,10-42-32,163,depth_duration_stimuli/001417_2014-06-19_16-25-36_260595134347_rgbf000115-resize_5/001417_2014-06-19_16-25-36_260595134347_rgbf000115-resize_5-target.png,125,4.6255,2,2215,118,meters,jsons/VE125_randls_41.json,691526,2691933,45,Woman
163,357726,DepthScenes,duration_manipulation_targetAtFixation,jsons/VE125_randls_41.json,http://54.235.29.9/FacialAge/BNav_EC2/DepthDuration/v2_depth_duration_MTurk/v2_DepthDuration_HTML.html#467,467,1366,657,1366,768,8-29-2022,10-42-32,164,depth_duration_stimuli/003081_2014-06-15_15-19-16_094959634447_rgbf000150-resize_1/003081_2014-06-15_15-19-16_094959634447_rgbf000150-resize_1-target.png,125,3.9125,2,1928,83,meters,jsons/VE125_randls_41.json,691526,2691933,45,Woman
