,subjID,experimentName,versionName,sequenceName,url,selected_row,windowWidth,windowHeight,screenWidth,screenHeight,startDate,startTime,trial,stimulus,duration,actual_depth,depth_estimate,trial_RT,log_sceneDuration,unitSelection,seq_filepath,experimentTime,totalTime,age,gender
0,358364,DepthScenes,duration_manipulation_targetAtFixation,jsons/v1_VE1000_randls_31.json,http://54.235.29.9/FacialAge/BNav_EC2/DepthDuration/v2_depth_duration_MTurk/v2_DepthDuration_HTML.html#34,34,1515,632,1364,768,8-22-2022,9-11-17,1,depth_duration_stimuli/001056_2014-06-08_18-46-44_260595134347_rgbf000068-resize_0/001056_2014-06-08_18-46-44_260595134347_rgbf000068-resize_0-target.png,1000,2.6625,22,17926,1011,meters,jsons/v1_VE1000_randls_31.json,847771,982308,48,Woman
1,358364,DepthScenes,duration_manipulation_targetAtFixation,jsons/v1_VE1000_randls_31.json,http://54.235.29.9/FacialAge/BNav_EC2/DepthDuration/v2_depth_duration_MTurk/v2_DepthDuration_HTML.html#34,34,1515,632,1364,768,8-22-2022,9-11-17,2,depth_duration_stimuli/002199_2014-06-28_18-33-56_260595134347_rgbf000074-resize_0/002199_2014-06-28_18-33-56_260595134347_rgbf000074-resize_0-target.png,1000,1.996,45,3735,993,meters,jsons/v1_VE1000_randls_31.json,847771,982308,48,Woman
2,358364,DepthScenes,duration_manipulation_targetAtFixation,jsons/v1_VE1000_randls_31.json,http://54.235.29.9/FacialAge/BNav_EC2/DepthDuration/v2_depth_duration_MTurk/v2_DepthDuration_HTML.html#34,34,1515,632,1364,768,8-22-2022,9-11-17,3,depth_duration_stimuli/000642_2014-06-08_16-59-25_260595134347_rgbf000098-resize_2/000642_2014-06-08_16-59-25_260595134347_rgbf000098-resize_2-target.png,1000,2.8815,33,3351,999,meters,jsons/v1_VE1000_randls_31.json,847771,982308,48,Woman
3,358364,DepthScenes,duration_manipulation_targetAtFixation,jsons/v1_VE1000_randls_31.json,http://54.235.29.9/FacialAge/BNav_EC2/DepthDuration/v2_depth_duration_MTurk/v2_DepthDuration_HTML.html#34,34,1515,632,1364,768,8-22-2022,9-11-17,4,depth_duration_stimuli/002425_2014-06-28_20-27-29_260595134347_rgbf000031-resize_8/002425_2014-06-28_20-27-29_260595134347_rgbf000031-resize_8-target.png,1000,3.8960000000000004,33,8015,997,meters,jsons/v1_VE1000_randls_31.json,847771,982308,48,Woman
4,358364,DepthScenes,duration_manipulation_targetAtFixation,jsons/v1_VE1000_randls_31.json,http://54.235.29.9/FacialAge/BNav_EC2/DepthDuration/v2_depth_duration_MTurk/v2_DepthDuration_HTML.html#34,34,1515,632,1364,768,8-22-2022,9-11-17,5,depth_duration_stimuli/002600_2014-06-24_14-27-04_094959634447_rgbf000074-resize_2/002600_2014-06-24_14-27-04_094959634447_rgbf000074-resize_2-target.png,1000,2.7575,22,3414,988,meters,jsons/v1_VE1000_randls_31.json,847771,982308,48,Woman
5,358364,DepthScenes,duration_manipulation_targetAtFixation,jsons/v1_VE1000_randls_31.json,http://54.235.29.9/FacialAge/BNav_EC2/DepthDuration/v2_depth_duration_MTurk/v2_DepthDuration_HTML.html#34,34,1515,632,1364,768,8-22-2022,9-11-17,6,depth_duration_stimuli/003228_2014-05-14_13-42-35_094959634447_rgbf000101-resize_1/003228_2014-05-14_13-42-35_094959634447_rgbf000101-resize_1-target.png,1000,1.9680000000000002,11,3056,1008,meters,jsons/v1_VE1000_randls_31.json,847771,982308,48,Woman
6,358364,DepthScenes,duration_manipulation_targetAtFixation,jsons/v1_VE1000_randls_31.json,http://54.235.29.9/FacialAge/BNav_EC2/DepthDuration/v2_depth_duration_MTurk/v2_DepthDuration_HTML.html#34,34,1515,632,1364,768,8-22-2022,9-11-17,7,depth_duration_stimuli/002445_2014-06-28_20-32-16_260595134347_rgbf000029-resize_4/002445_2014-06-28_20-32-16_260595134347_rgbf000029-resize_4-target.png,1000,2.5315,12,3428,991,meters,jsons/v1_VE1000_randls_31.json,847771,982308,48,Woman
7,358364,DepthScenes,duration_manipulation_targetAtFixation,jsons/v1_VE1000_randls_31.json,http://54.235.29.9/FacialAge/BNav_EC2/DepthDuration/v2_depth_duration_MTurk/v2_DepthDuration_HTML.html#34,34,1515,632,1364,768,8-22-2022,9-11-17,8,depth_duration_stimuli/000780_2014-06-08_22-28-29_260595134347_rgbf000126-resize_1/000780_2014-06-08_22-28-29_260595134347_rgbf000126-resize_1-target.png,1000,3.3825,22,3333,990,meters,jsons/v1_VE1000_randls_31.json,847771,982308,48,Woman
8,358364,DepthScenes,duration_manipulation_targetAtFixation,jsons/v1_VE1000_randls_31.json,http://54.235.29.9/FacialAge/BNav_EC2/DepthDuration/v2_depth_duration_MTurk/v2_DepthDuration_HTML.html#34,34,1515,632,1364,768,8-22-2022,9-11-17,9,depth_duration_stimuli/002989_2014-06-15_12-25-03_094959634447_rgbf000150-resize_3/002989_2014-06-15_12-25-03_094959634447_rgbf000150-resize_3-target.png,1000,4.1975,22,3225,992,meters,jsons/v1_VE1000_randls_31.json,847771,982308,48,Woman
9,358364,DepthScenes,duration_manipulation_targetAtFixation,jsons/v1_VE1000_randls_31.json,http://54.235.29.9/FacialAge/BNav_EC2/DepthDuration/v2_depth_duration_MTurk/v2_DepthDuration_HTML.html#34,34,1515,632,1364,768,8-22-2022,9-11-17,10,depth_duration_stimuli/000866_2014-06-09_20-45-42_260595134347_rgbf000139-resize_1/000866_2014-06-09_20-45-42_260595134347_rgbf000139-resize_1-target.png,1000,3.2155,25,3754,1013,meters,jsons/v1_VE1000_randls_31.json,847771,982308,48,Woman
10,358364,DepthScenes,duration_manipulation_targetAtFixation,jsons/v1_VE1000_randls_31.json,http://54.235.29.9/FacialAge/BNav_EC2/DepthDuration/v2_depth_duration_MTurk/v2_DepthDuration_HTML.html#34,34,1515,632,1364,768,8-22-2022,9-11-17,11,depth_duration_stimuli/001175_2014-06-17_15-45-55_260595134347_rgbf000129-resize_4/001175_2014-06-17_15-45-55_260595134347_rgbf000129-resize_4-target.png,1000,4.255,13,5179,993,meters,jsons/v1_VE1000_randls_31.json,847771,982308,48,Woman
11,358364,DepthScenes,duration_manipulation_targetAtFixation,jsons/v1_VE1000_randls_31.json,http://54.235.29.9/FacialAge/BNav_EC2/DepthDuration/v2_depth_duration_MTurk/v2_DepthDuration_HTML.html#34,34,1515,632,1364,768,8-22-2022,9-11-17,12,depth_duration_stimuli/003490_2014-05-21_15-50-11_094959634447_rgbf000101-resize_3/003490_2014-05-21_15-50-11_094959634447_rgbf000101-resize_3-target.png,1000,3.6445,22,3703,988,meters,jsons/v1_VE1000_randls_31.json,847771,982308,48,Woman
12,358364,DepthScenes,duration_manipulation_targetAtFixation,jsons/v1_VE1000_randls_31.json,http://54.235.29.9/FacialAge/BNav_EC2/DepthDuration/v2_depth_duration_MTurk/v2_DepthDuration_HTML.html#34,34,1515,632,1364,768,8-22-2022,9-11-17,13,depth_duration_stimuli/000569_2014-06-09_22-51-47_260595134347_rgbf000141-resize_3/000569_2014-06-09_22-51-47_260595134347_rgbf000141-resize-original.jpg,1000,4.512,14,5215,997,meters,jsons/v1_VE1000_randls_31.json,847771,982308,48,Woman
13,358364,DepthScenes,duration_manipulation_targetAtFixation,jsons/v1_VE1000_randls_31.json,http://54.235.29.9/FacialAge/BNav_EC2/DepthDuration/v2_depth_duration_MTurk/v2_DepthDuration_HTML.html#34,34,1515,632,1364,768,8-22-2022,9-11-17,14,depth_duration_stimuli/000758_2014-06-08_22-05-08_260595134347_rgbf000085-resize_0/000758_2014-06-08_22-05-08_260595134347_rgbf000085-resize_0-target.png,1000,3.3810000000000002,22,12425,1011,meters,jsons/v1_VE1000_randls_31.json,847771,982308,48,Woman
14,358364,DepthScenes,duration_manipulation_targetAtFixation,jsons/v1_VE1000_randls_31.json,http://54.235.29.9/FacialAge/BNav_EC2/DepthDuration/v2_depth_duration_MTurk/v2_DepthDuration_HTML.html#34,34,1515,632,1364,768,8-22-2022,9-11-17,15,depth_duration_stimuli/000854_2014-06-09_19-43-13_260595134347_rgbf000066-resize_0/000854_2014-06-09_19-43-13_260595134347_rgbf000066-resize_0-target.png,1000,3.068,22,3542,985,meters,jsons/v1_VE1000_randls_31.json,847771,982308,48,Woman
15,358364,DepthScenes,duration_manipulation_targetAtFixation,jsons/v1_VE1000_randls_31.json,http://54.235.29.9/FacialAge/BNav_EC2/DepthDuration/v2_depth_duration_MTurk/v2_DepthDuration_HTML.html#34,34,1515,632,1364,768,8-22-2022,9-11-17,16,depth_duration_stimuli/001029_2014-06-08_13-17-57_260595134347_rgbf000065-resize_1/001029_2014-06-08_13-17-57_260595134347_rgbf000065-resize_1-target.png,1000,3.0835,14,3491,1011,meters,jsons/v1_VE1000_randls_31.json,847771,982308,48,Woman
16,358364,DepthScenes,duration_manipulation_targetAtFixation,jsons/v1_VE1000_randls_31.json,http://54.235.29.9/FacialAge/BNav_EC2/DepthDuration/v2_depth_duration_MTurk/v2_DepthDuration_HTML.html#34,34,1515,632,1364,768,8-22-2022,9-11-17,17,depth_duration_stimuli/000677_2014-06-08_23-10-32_260595134347_rgbf000158-resize_6/000677_2014-06-08_23-10-32_260595134347_rgbf000158-resize_6-target.png,1000,3.556,11,3276,989,meters,jsons/v1_VE1000_randls_31.json,847771,982308,48,Woman
17,358364,DepthScenes,duration_manipulation_targetAtFixation,jsons/v1_VE1000_randls_31.json,http://54.235.29.9/FacialAge/BNav_EC2/DepthDuration/v2_depth_duration_MTurk/v2_DepthDuration_HTML.html#34,34,1515,632,1364,768,8-22-2022,9-11-17,18,depth_duration_stimuli/000493_2014-06-09_21-01-18_260595134347_rgbf000196-resize_3/000493_2014-06-09_21-01-18_260595134347_rgbf000196-resize_3-target.png,1000,3.44,13,4077,999,meters,jsons/v1_VE1000_randls_31.json,847771,982308,48,Woman
18,358364,DepthScenes,duration_manipulation_targetAtFixation,jsons/v1_VE1000_randls_31.json,http://54.235.29.9/FacialAge/BNav_EC2/DepthDuration/v2_depth_duration_MTurk/v2_DepthDuration_HTML.html#34,34,1515,632,1364,768,8-22-2022,9-11-17,19,depth_duration_stimuli/000191_2014-05-12_17-07-38_260595134347_rgbf000199-resize_0/000191_2014-05-12_17-07-38_260595134347_rgbf000199-resize_0-target.png,1000,3.7995,22,3873,1011,meters,jsons/v1_VE1000_randls_31.json,847771,982308,48,Woman
19,358364,DepthScenes,duration_manipulation_targetAtFixation,jsons/v1_VE1000_randls_31.json,http://54.235.29.9/FacialAge/BNav_EC2/DepthDuration/v2_depth_duration_MTurk/v2_DepthDuration_HTML.html#34,34,1515,632,1364,768,8-22-2022,9-11-17,20,depth_duration_stimuli/001570_2014-06-20_17-21-09_260595134347_rgbf000135-resize_4/001570_2014-06-20_17-21-09_260595134347_rgbf000135-resize_4-target.png,1000,4.467,13,3714,991,meters,jsons/v1_VE1000_randls_31.json,847771,982308,48,Woman
20,358364,DepthScenes,duration_manipulation_targetAtFixation,jsons/v1_VE1000_randls_31.json,http://54.235.29.9/FacialAge/BNav_EC2/DepthDuration/v2_depth_duration_MTurk/v2_DepthDuration_HTML.html#34,34,1515,632,1364,768,8-22-2022,9-11-17,21,depth_duration_stimuli/001392_2014-06-19_16-07-59_260595134347_rgbf000046-resize_1/001392_2014-06-19_16-07-59_260595134347_rgbf000046-resize_1-target.png,1000,4.135,13,3118,1001,meters,jsons/v1_VE1000_randls_31.json,847771,982308,48,Woman
21,358364,DepthScenes,duration_manipulation_targetAtFixation,jsons/v1_VE1000_randls_31.json,http://54.235.29.9/FacialAge/BNav_EC2/DepthDuration/v2_depth_duration_MTurk/v2_DepthDuration_HTML.html#34,34,1515,632,1364,768,8-22-2022,9-11-17,22,depth_duration_stimuli/001059_2014-06-08_21-53-27_260595134347_rgbf000061-resize_4/001059_2014-06-08_21-53-27_260595134347_rgbf000061-resize_4-target.png,1000,2.4185,12,5459,992,meters,jsons/v1_VE1000_randls_31.json,847771,982308,48,Woman
22,358364,DepthScenes,duration_manipulation_targetAtFixation,jsons/v1_VE1000_randls_31.json,http://54.235.29.9/FacialAge/BNav_EC2/DepthDuration/v2_depth_duration_MTurk/v2_DepthDuration_HTML.html#34,34,1515,632,1364,768,8-22-2022,9-11-17,23,depth_duration_stimuli/001032_2014-06-08_13-23-17_260595134347_rgbf000021-resize_3/001032_2014-06-08_13-23-17_260595134347_rgbf000021-resize_3-target.png,1000,3.2725,25,3280,981,meters,jsons/v1_VE1000_randls_31.json,847771,982308,48,Woman
23,358364,DepthScenes,duration_manipulation_targetAtFixation,jsons/v1_VE1000_randls_31.json,http://54.235.29.9/FacialAge/BNav_EC2/DepthDuration/v2_depth_duration_MTurk/v2_DepthDuration_HTML.html#34,34,1515,632,1364,768,8-22-2022,9-11-17,24,depth_duration_stimuli/002043_2014-06-24_20-29-38_260595134347_rgbf000039-resize_4/002043_2014-06-24_20-29-38_260595134347_rgbf000039-resize_4-target.png,1000,2.8435,54,3607,996,meters,jsons/v1_VE1000_randls_31.json,847771,982308,48,Woman
24,358364,DepthScenes,duration_manipulation_targetAtFixation,jsons/v1_VE1000_randls_31.json,http://54.235.29.9/FacialAge/BNav_EC2/DepthDuration/v2_depth_duration_MTurk/v2_DepthDuration_HTML.html#34,34,1515,632,1364,768,8-22-2022,9-11-17,25,depth_duration_stimuli/003048_2014-06-15_13-49-43_094959634447_rgbf000150-resize_1/003048_2014-06-15_13-49-43_094959634447_rgbf000150-resize_1-target.png,1000,4.0035,12,3124,998,meters,jsons/v1_VE1000_randls_31.json,847771,982308,48,Woman
25,358364,DepthScenes,duration_manipulation_targetAtFixation,jsons/v1_VE1000_randls_31.json,http://54.235.29.9/FacialAge/BNav_EC2/DepthDuration/v2_depth_duration_MTurk/v2_DepthDuration_HTML.html#34,34,1515,632,1364,768,8-22-2022,9-11-17,26,depth_duration_stimuli/000917_2014-06-09_22-45-29_260595134347_rgbf000149-resize_3/000917_2014-06-09_22-45-29_260595134347_rgbf000149-resize_3-target.png,1000,4.1865,12,3488,1013,meters,jsons/v1_VE1000_randls_31.json,847771,982308,48,Woman
26,358364,DepthScenes,duration_manipulation_targetAtFixation,jsons/v1_VE1000_randls_31.json,http://54.235.29.9/FacialAge/BNav_EC2/DepthDuration/v2_depth_duration_MTurk/v2_DepthDuration_HTML.html#34,34,1515,632,1364,768,8-22-2022,9-11-17,27,depth_duration_stimuli/002323_2014-06-28_20-01-54_260595134347_rgbf000051-resize_4/002323_2014-06-28_20-01-54_260595134347_rgbf000051-resize_4-target.png,1000,3.7310000000000003,13,3969,997,meters,jsons/v1_VE1000_randls_31.json,847771,982308,48,Woman
27,358364,DepthScenes,duration_manipulation_targetAtFixation,jsons/v1_VE1000_randls_31.json,http://54.235.29.9/FacialAge/BNav_EC2/DepthDuration/v2_depth_duration_MTurk/v2_DepthDuration_HTML.html#34,34,1515,632,1364,768,8-22-2022,9-11-17,28,depth_duration_stimuli/001066_2014-06-08_22-03-20_260595134347_rgbf000066-resize_4/001066_2014-06-08_22-03-20_260595134347_rgbf000066-resize_4-target.png,1000,4.2330000000000005,15,4581,1003,meters,jsons/v1_VE1000_randls_31.json,847771,982308,48,Woman
28,358364,DepthScenes,duration_manipulation_targetAtFixation,jsons/v1_VE1000_randls_31.json,http://54.235.29.9/FacialAge/BNav_EC2/DepthDuration/v2_depth_duration_MTurk/v2_DepthDuration_HTML.html#34,34,1515,632,1364,768,8-22-2022,9-11-17,29,depth_duration_stimuli/000742_2014-06-08_18-48-09_260595134347_rgbf000164-resize_4/000742_2014-06-08_18-48-09_260595134347_rgbf000164-resize_4-target.png,1000,4.632,25,3666,996,meters,jsons/v1_VE1000_randls_31.json,847771,982308,48,Woman
29,358364,DepthScenes,duration_manipulation_targetAtFixation,jsons/v1_VE1000_randls_31.json,http://54.235.29.9/FacialAge/BNav_EC2/DepthDuration/v2_depth_duration_MTurk/v2_DepthDuration_HTML.html#34,34,1515,632,1364,768,8-22-2022,9-11-17,30,depth_duration_stimuli/000375_2014-06-08_11-17-29_260595134347_rgbf000133-resize_2/000375_2014-06-08_11-17-29_260595134347_rgbf000133-resize-original.jpg,1000,4.718,24,3978,994,meters,jsons/v1_VE1000_randls_31.json,847771,982308,48,Woman
30,358364,DepthScenes,duration_manipulation_targetAtFixation,jsons/v1_VE1000_randls_31.json,http://54.235.29.9/FacialAge/BNav_EC2/DepthDuration/v2_depth_duration_MTurk/v2_DepthDuration_HTML.html#34,34,1515,632,1364,768,8-22-2022,9-11-17,31,depth_duration_stimuli/002725_2014-06-22_11-47-51_094959634447_rgbf000070-resize_1/002725_2014-06-22_11-47-51_094959634447_rgbf000070-resize_1-target.png,1000,2.195,22,5707,995,meters,jsons/v1_VE1000_randls_31.json,847771,982308,48,Woman
31,358364,DepthScenes,duration_manipulation_targetAtFixation,jsons/v1_VE1000_randls_31.json,http://54.235.29.9/FacialAge/BNav_EC2/DepthDuration/v2_depth_duration_MTurk/v2_DepthDuration_HTML.html#34,34,1515,632,1364,768,8-22-2022,9-11-17,32,depth_duration_stimuli/002344_2014-06-28_20-06-29_260595134347_rgbf000030-resize_1/002344_2014-06-28_20-06-29_260595134347_rgbf000030-resize_1-target.png,1000,1.5795,24,4152,1006,meters,jsons/v1_VE1000_randls_31.json,847771,982308,48,Woman
32,358364,DepthScenes,duration_manipulation_targetAtFixation,jsons/v1_VE1000_randls_31.json,http://54.235.29.9/FacialAge/BNav_EC2/DepthDuration/v2_depth_duration_MTurk/v2_DepthDuration_HTML.html#34,34,1515,632,1364,768,8-22-2022,9-11-17,33,depth_duration_stimuli/002549_2014-06-24_13-41-39_094959634447_rgbf000022-resize_3/002549_2014-06-24_13-41-39_094959634447_rgbf000022-resize_3-target.png,1000,1.476,24,4167,992,meters,jsons/v1_VE1000_randls_31.json,847771,982308,48,Woman
33,358364,DepthScenes,duration_manipulation_targetAtFixation,jsons/v1_VE1000_randls_31.json,http://54.235.29.9/FacialAge/BNav_EC2/DepthDuration/v2_depth_duration_MTurk/v2_DepthDuration_HTML.html#34,34,1515,632,1364,768,8-22-2022,9-11-17,34,depth_duration_stimuli/002750_2014-06-22_19-08-03_094959634447_rgbf000094-resize_4/002750_2014-06-22_19-08-03_094959634447_rgbf000094-resize_4-target.png,1000,2.354,24,3205,996,meters,jsons/v1_VE1000_randls_31.json,847771,982308,48,Woman
34,358364,DepthScenes,duration_manipulation_targetAtFixation,jsons/v1_VE1000_randls_31.json,http://54.235.29.9/FacialAge/BNav_EC2/DepthDuration/v2_depth_duration_MTurk/v2_DepthDuration_HTML.html#34,34,1515,632,1364,768,8-22-2022,9-11-17,35,depth_duration_stimuli/002663_2014-06-13_15-50-26_094959634447_rgbf000075-resize_1/002663_2014-06-13_15-50-26_094959634447_rgbf000075-resize_1-target.png,1000,4.7495,22,4038,994,meters,jsons/v1_VE1000_randls_31.json,847771,982308,48,Woman
35,358364,DepthScenes,duration_manipulation_targetAtFixation,jsons/v1_VE1000_randls_31.json,http://54.235.29.9/FacialAge/BNav_EC2/DepthDuration/v2_depth_duration_MTurk/v2_DepthDuration_HTML.html#34,34,1515,632,1364,768,8-22-2022,9-11-17,36,depth_duration_stimuli/000409_2014-06-04_19-23-33_260595134347_rgbf000067-resize_0/000409_2014-06-04_19-23-33_260595134347_rgbf000067-resize_0-target.png,1000,3.7335,21,3537,1001,meters,jsons/v1_VE1000_randls_31.json,847771,982308,48,Woman
36,358364,DepthScenes,duration_manipulation_targetAtFixation,jsons/v1_VE1000_randls_31.json,http://54.235.29.9/FacialAge/BNav_EC2/DepthDuration/v2_depth_duration_MTurk/v2_DepthDuration_HTML.html#34,34,1515,632,1364,768,8-22-2022,9-11-17,37,depth_duration_stimuli/001110_2014-06-15_17-25-28_260595134347_rgbf000150-resize_1/001110_2014-06-15_17-25-28_260595134347_rgbf000150-resize_1-target.png,1000,1.7115,22,3624,996,meters,jsons/v1_VE1000_randls_31.json,847771,982308,48,Woman
37,358364,DepthScenes,duration_manipulation_targetAtFixation,jsons/v1_VE1000_randls_31.json,http://54.235.29.9/FacialAge/BNav_EC2/DepthDuration/v2_depth_duration_MTurk/v2_DepthDuration_HTML.html#34,34,1515,632,1364,768,8-22-2022,9-11-17,38,depth_duration_stimuli/000927_2014-06-09_16-32-30_260595134347_rgbf000123-resize_3/000927_2014-06-09_16-32-30_260595134347_rgbf000123-resize_3-target.png,1000,2.6785,23,3834,1008,meters,jsons/v1_VE1000_randls_31.json,847771,982308,48,Woman
38,358364,DepthScenes,duration_manipulation_targetAtFixation,jsons/v1_VE1000_randls_31.json,http://54.235.29.9/FacialAge/BNav_EC2/DepthDuration/v2_depth_duration_MTurk/v2_DepthDuration_HTML.html#34,34,1515,632,1364,768,8-22-2022,9-11-17,39,depth_duration_stimuli/003292_2014-05-14_21-53-49_094959634447_rgbf000100-resize_2/003292_2014-05-14_21-53-49_094959634447_rgbf000100-resize_2-target.png,1000,3.4815,21,4181,1002,meters,jsons/v1_VE1000_randls_31.json,847771,982308,48,Woman
39,358364,DepthScenes,duration_manipulation_targetAtFixation,jsons/v1_VE1000_randls_31.json,http://54.235.29.9/FacialAge/BNav_EC2/DepthDuration/v2_depth_duration_MTurk/v2_DepthDuration_HTML.html#34,34,1515,632,1364,768,8-22-2022,9-11-17,40,depth_duration_stimuli/002639_2014-06-24_14-51-37_094959634447_rgbf000074-resize_4/002639_2014-06-24_14-51-37_094959634447_rgbf000074-resize_4-target.png,1000,4.0375,22,3301,990,meters,jsons/v1_VE1000_randls_31.json,847771,982308,48,Woman
40,358364,DepthScenes,duration_manipulation_targetAtFixation,jsons/v1_VE1000_randls_31.json,http://54.235.29.9/FacialAge/BNav_EC2/DepthDuration/v2_depth_duration_MTurk/v2_DepthDuration_HTML.html#34,34,1515,632,1364,768,8-22-2022,9-11-17,41,depth_duration_stimuli/000878_2014-06-08_22-52-45_260595134347_rgbf000045-resize_2/000878_2014-06-08_22-52-45_260595134347_rgbf000045-resize_2-target.png,1000,2.092,21,8303,999,meters,jsons/v1_VE1000_randls_31.json,847771,982308,48,Woman
41,358364,DepthScenes,duration_manipulation_targetAtFixation,jsons/v1_VE1000_randls_31.json,http://54.235.29.9/FacialAge/BNav_EC2/DepthDuration/v2_depth_duration_MTurk/v2_DepthDuration_HTML.html#34,34,1515,632,1364,768,8-22-2022,9-11-17,42,depth_duration_stimuli/002953_2014-06-08_17-32-18_094959634447_rgbf000059-resize_5/002953_2014-06-08_17-32-18_094959634447_rgbf000059-resize_5-target.png,1000,1.551,22,37636,991,meters,jsons/v1_VE1000_randls_31.json,847771,982308,48,Woman
42,358364,DepthScenes,duration_manipulation_targetAtFixation,jsons/v1_VE1000_randls_31.json,http://54.235.29.9/FacialAge/BNav_EC2/DepthDuration/v2_depth_duration_MTurk/v2_DepthDuration_HTML.html#34,34,1515,632,1364,768,8-22-2022,9-11-17,43,depth_duration_stimuli/002788_2014-06-22_19-36-03_094959634447_rgbf000088-resize_2/002788_2014-06-22_19-36-03_094959634447_rgbf000088-resize_2-target.png,1000,1.6465,22,4207,1020,meters,jsons/v1_VE1000_randls_31.json,847771,982308,48,Woman
43,358364,DepthScenes,duration_manipulation_targetAtFixation,jsons/v1_VE1000_randls_31.json,http://54.235.29.9/FacialAge/BNav_EC2/DepthDuration/v2_depth_duration_MTurk/v2_DepthDuration_HTML.html#34,34,1515,632,1364,768,8-22-2022,9-11-17,44,depth_duration_stimuli/000749_2014-06-08_21-55-06_260595134347_rgbf000070-resize_2/000749_2014-06-08_21-55-06_260595134347_rgbf000070-resize_2-target.png,1000,2.331,25,6114,1009,meters,jsons/v1_VE1000_randls_31.json,847771,982308,48,Woman
44,358364,DepthScenes,duration_manipulation_targetAtFixation,jsons/v1_VE1000_randls_31.json,http://54.235.29.9/FacialAge/BNav_EC2/DepthDuration/v2_depth_duration_MTurk/v2_DepthDuration_HTML.html#34,34,1515,632,1364,768,8-22-2022,9-11-17,45,depth_duration_stimuli/000787_2014-06-08_22-33-53_260595134347_rgbf000175-resize_1/000787_2014-06-08_22-33-53_260595134347_rgbf000175-resize-original.jpg,1000,4.784,25,9992,995,meters,jsons/v1_VE1000_randls_31.json,847771,982308,48,Woman
45,358364,DepthScenes,duration_manipulation_targetAtFixation,jsons/v1_VE1000_randls_31.json,http://54.235.29.9/FacialAge/BNav_EC2/DepthDuration/v2_depth_duration_MTurk/v2_DepthDuration_HTML.html#34,34,1515,632,1364,768,8-22-2022,9-11-17,46,depth_duration_stimuli/002509_2014-06-24_13-19-22_094959634447_rgbf000077-resize_0/002509_2014-06-24_13-19-22_094959634447_rgbf000077-resize_0-target.png,1000,1.3065,21,4011,1006,meters,jsons/v1_VE1000_randls_31.json,847771,982308,48,Woman
46,358364,DepthScenes,duration_manipulation_targetAtFixation,jsons/v1_VE1000_randls_31.json,http://54.235.29.9/FacialAge/BNav_EC2/DepthDuration/v2_depth_duration_MTurk/v2_DepthDuration_HTML.html#34,34,1515,632,1364,768,8-22-2022,9-11-17,47,depth_duration_stimuli/003338_2014-05-20_11-01-23_094959634447_rgbf000051-resize_6/003338_2014-05-20_11-01-23_094959634447_rgbf000051-resize_6-target.png,1000,1.693,21,6459,1011,meters,jsons/v1_VE1000_randls_31.json,847771,982308,48,Woman
47,358364,DepthScenes,duration_manipulation_targetAtFixation,jsons/v1_VE1000_randls_31.json,http://54.235.29.9/FacialAge/BNav_EC2/DepthDuration/v2_depth_duration_MTurk/v2_DepthDuration_HTML.html#34,34,1515,632,1364,768,8-22-2022,9-11-17,48,depth_duration_stimuli/002630_2014-06-24_14-47-50_094959634447_rgbf000055-resize_1/002630_2014-06-24_14-47-50_094959634447_rgbf000055-resize_1-target.png,1000,3.0095,21,7222,994,meters,jsons/v1_VE1000_randls_31.json,847771,982308,48,Woman
48,358364,DepthScenes,duration_manipulation_targetAtFixation,jsons/v1_VE1000_randls_31.json,http://54.235.29.9/FacialAge/BNav_EC2/DepthDuration/v2_depth_duration_MTurk/v2_DepthDuration_HTML.html#34,34,1515,632,1364,768,8-22-2022,9-11-17,49,depth_duration_stimuli/002758_2014-06-22_19-11-20_094959634447_rgbf000128-resize_1/002758_2014-06-22_19-11-20_094959634447_rgbf000128-resize_1-target.png,1000,2.555,21,6314,1001,meters,jsons/v1_VE1000_randls_31.json,847771,982308,48,Woman
49,358364,DepthScenes,duration_manipulation_targetAtFixation,jsons/v1_VE1000_randls_31.json,http://54.235.29.9/FacialAge/BNav_EC2/DepthDuration/v2_depth_duration_MTurk/v2_DepthDuration_HTML.html#34,34,1515,632,1364,768,8-22-2022,9-11-17,50,depth_duration_stimuli/002118_2014-06-25_20-32-08_260595134347_rgbf000078-resize_1/002118_2014-06-25_20-32-08_260595134347_rgbf000078-resize_1-target.png,1000,2.6460000000000004,21,12917,992,meters,jsons/v1_VE1000_randls_31.json,847771,982308,48,Woman
50,358364,DepthScenes,duration_manipulation_targetAtFixation,jsons/v1_VE1000_randls_31.json,http://54.235.29.9/FacialAge/BNav_EC2/DepthDuration/v2_depth_duration_MTurk/v2_DepthDuration_HTML.html#34,34,1515,632,1364,768,8-22-2022,9-11-17,51,depth_duration_stimuli/001516_2014-06-20_16-25-09_260595134347_rgbf000076-resize_2/001516_2014-06-20_16-25-09_260595134347_rgbf000076-resize_2-target.png,1000,1.7445,12,4920,999,meters,jsons/v1_VE1000_randls_31.json,847771,982308,48,Woman
51,358364,DepthScenes,duration_manipulation_targetAtFixation,jsons/v1_VE1000_randls_31.json,http://54.235.29.9/FacialAge/BNav_EC2/DepthDuration/v2_depth_duration_MTurk/v2_DepthDuration_HTML.html#34,34,1515,632,1364,768,8-22-2022,9-11-17,52,depth_duration_stimuli/001167_2014-06-17_15-38-07_260595134347_rgbf000108-resize_0/001167_2014-06-17_15-38-07_260595134347_rgbf000108-resize_0-target.png,1000,1.8505,21,17208,988,meters,jsons/v1_VE1000_randls_31.json,847771,982308,48,Woman
52,358364,DepthScenes,duration_manipulation_targetAtFixation,jsons/v1_VE1000_randls_31.json,http://54.235.29.9/FacialAge/BNav_EC2/DepthDuration/v2_depth_duration_MTurk/v2_DepthDuration_HTML.html#34,34,1515,632,1364,768,8-22-2022,9-11-17,53,depth_duration_stimuli/003587_2014-05-23_16-48-02_094959634447_rgbf002384-resize_2/003587_2014-05-23_16-48-02_094959634447_rgbf002384-resize_2-target.png,1000,1.357,22,3057,1001,meters,jsons/v1_VE1000_randls_31.json,847771,982308,48,Woman
53,358364,DepthScenes,duration_manipulation_targetAtFixation,jsons/v1_VE1000_randls_31.json,http://54.235.29.9/FacialAge/BNav_EC2/DepthDuration/v2_depth_duration_MTurk/v2_DepthDuration_HTML.html#34,34,1515,632,1364,768,8-22-2022,9-11-17,54,depth_duration_stimuli/000906_2014-06-08_13-35-43_260595134347_rgbf000155-resize_1/000906_2014-06-08_13-35-43_260595134347_rgbf000155-resize_1-target.png,1000,2.8489999999999998,22,3308,1004,meters,jsons/v1_VE1000_randls_31.json,847771,982308,48,Woman
54,358364,DepthScenes,duration_manipulation_targetAtFixation,jsons/v1_VE1000_randls_31.json,http://54.235.29.9/FacialAge/BNav_EC2/DepthDuration/v2_depth_duration_MTurk/v2_DepthDuration_HTML.html#34,34,1515,632,1364,768,8-22-2022,9-11-17,55,depth_duration_stimuli/002805_2014-06-22_19-54-03_094959634447_rgbf000079-resize_1/002805_2014-06-22_19-54-03_094959634447_rgbf000079-resize_1-target.png,1000,3.1439999999999997,25,4362,998,meters,jsons/v1_VE1000_randls_31.json,847771,982308,48,Woman
55,358364,DepthScenes,duration_manipulation_targetAtFixation,jsons/v1_VE1000_randls_31.json,http://54.235.29.9/FacialAge/BNav_EC2/DepthDuration/v2_depth_duration_MTurk/v2_DepthDuration_HTML.html#34,34,1515,632,1364,768,8-22-2022,9-11-17,56,depth_duration_stimuli/000469_2014-06-09_19-42-10_260595134347_rgbf000081-resize_1/000469_2014-06-09_19-42-10_260595134347_rgbf000081-resize_1-target.png,1000,1.652,25,8167,996,meters,jsons/v1_VE1000_randls_31.json,847771,982308,48,Woman
56,358364,DepthScenes,duration_manipulation_targetAtFixation,jsons/v1_VE1000_randls_31.json,http://54.235.29.9/FacialAge/BNav_EC2/DepthDuration/v2_depth_duration_MTurk/v2_DepthDuration_HTML.html#34,34,1515,632,1364,768,8-22-2022,9-11-17,57,depth_duration_stimuli/000483_2014-06-09_20-41-45_260595134347_rgbf000116-resize_4/000483_2014-06-09_20-41-45_260595134347_rgbf000116-resize_4-target.png,1000,1.337,21,5409,987,meters,jsons/v1_VE1000_randls_31.json,847771,982308,48,Woman
57,358364,DepthScenes,duration_manipulation_targetAtFixation,jsons/v1_VE1000_randls_31.json,http://54.235.29.9/FacialAge/BNav_EC2/DepthDuration/v2_depth_duration_MTurk/v2_DepthDuration_HTML.html#34,34,1515,632,1364,768,8-22-2022,9-11-17,58,depth_duration_stimuli/002570_2014-06-24_13-59-54_094959634447_rgbf000059-resize_0/002570_2014-06-24_13-59-54_094959634447_rgbf000059-resize_0-target.png,1000,4.037,23,11745,997,meters,jsons/v1_VE1000_randls_31.json,847771,982308,48,Woman
58,358364,DepthScenes,duration_manipulation_targetAtFixation,jsons/v1_VE1000_randls_31.json,http://54.235.29.9/FacialAge/BNav_EC2/DepthDuration/v2_depth_duration_MTurk/v2_DepthDuration_HTML.html#34,34,1515,632,1364,768,8-22-2022,9-11-17,59,depth_duration_stimuli/002467_2014-06-28_20-38-07_260595134347_rgbf000026-resize_2/002467_2014-06-28_20-38-07_260595134347_rgbf000026-resize_2-target.png,1000,4.742,21,7348,1014,meters,jsons/v1_VE1000_randls_31.json,847771,982308,48,Woman
59,358364,DepthScenes,duration_manipulation_targetAtFixation,jsons/v1_VE1000_randls_31.json,http://54.235.29.9/FacialAge/BNav_EC2/DepthDuration/v2_depth_duration_MTurk/v2_DepthDuration_HTML.html#34,34,1515,632,1364,768,8-22-2022,9-11-17,60,depth_duration_stimuli/003621_2014-05-23_18-06-08_094959634447_rgbf000101-resize_1/003621_2014-05-23_18-06-08_094959634447_rgbf000101-resize_1-target.png,1000,3.9835,25,3184,1022,meters,jsons/v1_VE1000_randls_31.json,847771,982308,48,Woman
60,358364,DepthScenes,duration_manipulation_targetAtFixation,jsons/v1_VE1000_randls_31.json,http://54.235.29.9/FacialAge/BNav_EC2/DepthDuration/v2_depth_duration_MTurk/v2_DepthDuration_HTML.html#34,34,1515,632,1364,768,8-22-2022,9-11-17,61,depth_duration_stimuli/001584_2014-06-20_11-07-43_260595134347_rgbf000002-resize_1/001584_2014-06-20_11-07-43_260595134347_rgbf000002-resize_1-target.png,1000,3.53,25,6330,991,meters,jsons/v1_VE1000_randls_31.json,847771,982308,48,Woman
61,358364,DepthScenes,duration_manipulation_targetAtFixation,jsons/v1_VE1000_randls_31.json,http://54.235.29.9/FacialAge/BNav_EC2/DepthDuration/v2_depth_duration_MTurk/v2_DepthDuration_HTML.html#34,34,1515,632,1364,768,8-22-2022,9-11-17,62,depth_duration_stimuli/002763_2014-06-22_19-13-10_094959634447_rgbf000075-resize_4/002763_2014-06-22_19-13-10_094959634447_rgbf000075-resize_4-target.png,1000,1.68375,23,6706,989,meters,jsons/v1_VE1000_randls_31.json,847771,982308,48,Woman
62,358364,DepthScenes,duration_manipulation_targetAtFixation,jsons/v1_VE1000_randls_31.json,http://54.235.29.9/FacialAge/BNav_EC2/DepthDuration/v2_depth_duration_MTurk/v2_DepthDuration_HTML.html#34,34,1515,632,1364,768,8-22-2022,9-11-17,63,depth_duration_stimuli/002209_2014-06-28_18-36-10_260595134347_rgbf000051-resize_1/002209_2014-06-28_18-36-10_260595134347_rgbf000051-resize_1-target.png,1000,2.057,21,3002,1014,meters,jsons/v1_VE1000_randls_31.json,847771,982308,48,Woman
63,358364,DepthScenes,duration_manipulation_targetAtFixation,jsons/v1_VE1000_randls_31.json,http://54.235.29.9/FacialAge/BNav_EC2/DepthDuration/v2_depth_duration_MTurk/v2_DepthDuration_HTML.html#34,34,1515,632,1364,768,8-22-2022,9-11-17,64,depth_duration_stimuli/002988_2014-06-15_12-24-20_094959634447_rgbf000150-resize_1/002988_2014-06-15_12-24-20_094959634447_rgbf000150-resize_1-target.png,1000,4.7669999999999995,31,8908,1010,meters,jsons/v1_VE1000_randls_31.json,847771,982308,48,Woman
64,358364,DepthScenes,duration_manipulation_targetAtFixation,jsons/v1_VE1000_randls_31.json,http://54.235.29.9/FacialAge/BNav_EC2/DepthDuration/v2_depth_duration_MTurk/v2_DepthDuration_HTML.html#34,34,1515,632,1364,768,8-22-2022,9-11-17,65,depth_duration_stimuli/001052_2014-06-08_18-24-54_260595134347_rgbf000130-resize_1/001052_2014-06-08_18-24-54_260595134347_rgbf000130-resize_1-target.png,1000,4.1045,12,3342,997,meters,jsons/v1_VE1000_randls_31.json,847771,982308,48,Woman
65,358364,DepthScenes,duration_manipulation_targetAtFixation,jsons/v1_VE1000_randls_31.json,http://54.235.29.9/FacialAge/BNav_EC2/DepthDuration/v2_depth_duration_MTurk/v2_DepthDuration_HTML.html#34,34,1515,632,1364,768,8-22-2022,9-11-17,66,depth_duration_stimuli/001222_2014-06-17_16-24-06_260595134347_rgbf000073-resize_0/001222_2014-06-17_16-24-06_260595134347_rgbf000073-resize-original.jpg,1000,1.4385,21,3276,1008,meters,jsons/v1_VE1000_randls_31.json,847771,982308,48,Woman
66,358364,DepthScenes,duration_manipulation_targetAtFixation,jsons/v1_VE1000_randls_31.json,http://54.235.29.9/FacialAge/BNav_EC2/DepthDuration/v2_depth_duration_MTurk/v2_DepthDuration_HTML.html#34,34,1515,632,1364,768,8-22-2022,9-11-17,67,depth_duration_stimuli/001092_2014-06-15_17-34-58_260595134347_rgbf000171-resize_3/001092_2014-06-15_17-34-58_260595134347_rgbf000171-resize_3-target.png,1000,2.6935,21,4442,1013,meters,jsons/v1_VE1000_randls_31.json,847771,982308,48,Woman
67,358364,DepthScenes,duration_manipulation_targetAtFixation,jsons/v1_VE1000_randls_31.json,http://54.235.29.9/FacialAge/BNav_EC2/DepthDuration/v2_depth_duration_MTurk/v2_DepthDuration_HTML.html#34,34,1515,632,1364,768,8-22-2022,9-11-17,68,depth_duration_stimuli/002545_2014-06-24_13-38-53_094959634447_rgbf000080-resize_4/002545_2014-06-24_13-38-53_094959634447_rgbf000080-resize_4-target.png,1000,1.9205,22,3378,985,meters,jsons/v1_VE1000_randls_31.json,847771,982308,48,Woman
68,358364,DepthScenes,duration_manipulation_targetAtFixation,jsons/v1_VE1000_randls_31.json,http://54.235.29.9/FacialAge/BNav_EC2/DepthDuration/v2_depth_duration_MTurk/v2_DepthDuration_HTML.html#34,34,1515,632,1364,768,8-22-2022,9-11-17,69,depth_duration_stimuli/000736_2014-06-08_18-24-15_260595134347_rgbf000206-resize_3/000736_2014-06-08_18-24-15_260595134347_rgbf000206-resize_3-target.png,1000,3.515,21,3246,996,meters,jsons/v1_VE1000_randls_31.json,847771,982308,48,Woman
69,358364,DepthScenes,duration_manipulation_targetAtFixation,jsons/v1_VE1000_randls_31.json,http://54.235.29.9/FacialAge/BNav_EC2/DepthDuration/v2_depth_duration_MTurk/v2_DepthDuration_HTML.html#34,34,1515,632,1364,768,8-22-2022,9-11-17,70,depth_duration_stimuli/000137_2014-05-20_17-04-49_260595134347_rgbf000120-resize_1/000137_2014-05-20_17-04-49_260595134347_rgbf000120-resize_1-target.png,1000,3.786,22,2818,1012,meters,jsons/v1_VE1000_randls_31.json,847771,982308,48,Woman
70,358364,DepthScenes,duration_manipulation_targetAtFixation,jsons/v1_VE1000_randls_31.json,http://54.235.29.9/FacialAge/BNav_EC2/DepthDuration/v2_depth_duration_MTurk/v2_DepthDuration_HTML.html#34,34,1515,632,1364,768,8-22-2022,9-11-17,71,depth_duration_stimuli/000470_2014-06-09_19-42-40_260595134347_rgbf000094-resize_1/000470_2014-06-09_19-42-40_260595134347_rgbf000094-resize_1-target.png,1000,1.831,12,3577,997,meters,jsons/v1_VE1000_randls_31.json,847771,982308,48,Woman
71,358364,DepthScenes,duration_manipulation_targetAtFixation,jsons/v1_VE1000_randls_31.json,http://54.235.29.9/FacialAge/BNav_EC2/DepthDuration/v2_depth_duration_MTurk/v2_DepthDuration_HTML.html#34,34,1515,632,1364,768,8-22-2022,9-11-17,72,depth_duration_stimuli/000109_2014-05-14_23-41-52_260595134347_rgbf000035-resize_9/000109_2014-05-14_23-41-52_260595134347_rgbf000035-resize_9-target.png,1000,1.3545,21,2919,990,meters,jsons/v1_VE1000_randls_31.json,847771,982308,48,Woman
72,358364,DepthScenes,duration_manipulation_targetAtFixation,jsons/v1_VE1000_randls_31.json,http://54.235.29.9/FacialAge/BNav_EC2/DepthDuration/v2_depth_duration_MTurk/v2_DepthDuration_HTML.html#34,34,1515,632,1364,768,8-22-2022,9-11-17,73,depth_duration_stimuli/002748_2014-06-22_19-07-22_094959634447_rgbf000078-resize_1/002748_2014-06-22_19-07-22_094959634447_rgbf000078-resize_1-target.png,1000,4.6705,25,3990,1001,meters,jsons/v1_VE1000_randls_31.json,847771,982308,48,Woman
73,358364,DepthScenes,duration_manipulation_targetAtFixation,jsons/v1_VE1000_randls_31.json,http://54.235.29.9/FacialAge/BNav_EC2/DepthDuration/v2_depth_duration_MTurk/v2_DepthDuration_HTML.html#34,34,1515,632,1364,768,8-22-2022,9-11-17,74,depth_duration_stimuli/002995_2014-06-15_12-31-26_094959634447_rgbf000150-resize_1/002995_2014-06-15_12-31-26_094959634447_rgbf000150-resize_1-target.png,1000,3.8360000000000003,33,2831,1001,meters,jsons/v1_VE1000_randls_31.json,847771,982308,48,Woman
74,358364,DepthScenes,duration_manipulation_targetAtFixation,jsons/v1_VE1000_randls_31.json,http://54.235.29.9/FacialAge/BNav_EC2/DepthDuration/v2_depth_duration_MTurk/v2_DepthDuration_HTML.html#34,34,1515,632,1364,768,8-22-2022,9-11-17,75,depth_duration_stimuli/000929_2014-06-09_16-33-19_260595134347_rgbf000139-resize_0/000929_2014-06-09_16-33-19_260595134347_rgbf000139-resize_0-target.png,1000,2.8680000000000003,21,3138,998,meters,jsons/v1_VE1000_randls_31.json,847771,982308,48,Woman
75,358364,DepthScenes,duration_manipulation_targetAtFixation,jsons/v1_VE1000_randls_31.json,http://54.235.29.9/FacialAge/BNav_EC2/DepthDuration/v2_depth_duration_MTurk/v2_DepthDuration_HTML.html#34,34,1515,632,1364,768,8-22-2022,9-11-17,76,depth_duration_stimuli/000457_2014-06-08_16-52-43_260595134347_rgbf000199-resize_1/000457_2014-06-08_16-52-43_260595134347_rgbf000199-resize_1-target.png,1000,3.6489999999999996,21,3250,1006,meters,jsons/v1_VE1000_randls_31.json,847771,982308,48,Woman
76,358364,DepthScenes,duration_manipulation_targetAtFixation,jsons/v1_VE1000_randls_31.json,http://54.235.29.9/FacialAge/BNav_EC2/DepthDuration/v2_depth_duration_MTurk/v2_DepthDuration_HTML.html#34,34,1515,632,1364,768,8-22-2022,9-11-17,77,depth_duration_stimuli/002039_2014-06-24_20-22-38_260595134347_rgbf000084-resize_1/002039_2014-06-24_20-22-38_260595134347_rgbf000084-resize_1-target.png,1000,4.408,25,3556,1000,meters,jsons/v1_VE1000_randls_31.json,847771,982308,48,Woman
77,358364,DepthScenes,duration_manipulation_targetAtFixation,jsons/v1_VE1000_randls_31.json,http://54.235.29.9/FacialAge/BNav_EC2/DepthDuration/v2_depth_duration_MTurk/v2_DepthDuration_HTML.html#34,34,1515,632,1364,768,8-22-2022,9-11-17,78,depth_duration_stimuli/002103_2014-06-25_20-00-40_260595134347_rgbf000049-resize_0/002103_2014-06-25_20-00-40_260595134347_rgbf000049-resize_0-target.png,1000,4.105,21,3260,996,meters,jsons/v1_VE1000_randls_31.json,847771,982308,48,Woman
78,358364,DepthScenes,duration_manipulation_targetAtFixation,jsons/v1_VE1000_randls_31.json,http://54.235.29.9/FacialAge/BNav_EC2/DepthDuration/v2_depth_duration_MTurk/v2_DepthDuration_HTML.html#34,34,1515,632,1364,768,8-22-2022,9-11-17,79,depth_duration_stimuli/000414_2014-06-04_19-49-13_260595134347_rgbf000044-resize_0/000414_2014-06-04_19-49-13_260595134347_rgbf000044-resize_0-target.png,1000,4.329,21,3915,997,meters,jsons/v1_VE1000_randls_31.json,847771,982308,48,Woman
79,358364,DepthScenes,duration_manipulation_targetAtFixation,jsons/v1_VE1000_randls_31.json,http://54.235.29.9/FacialAge/BNav_EC2/DepthDuration/v2_depth_duration_MTurk/v2_DepthDuration_HTML.html#34,34,1515,632,1364,768,8-22-2022,9-11-17,80,depth_duration_stimuli/003129_2014-05-12_10-48-10_094959634447_rgbf000100-resize_0/003129_2014-05-12_10-48-10_094959634447_rgbf000100-resize_0-target.png,1000,4.9305,12,2983,1000,meters,jsons/v1_VE1000_randls_31.json,847771,982308,48,Woman
80,358364,DepthScenes,duration_manipulation_targetAtFixation,jsons/v1_VE1000_randls_31.json,http://54.235.29.9/FacialAge/BNav_EC2/DepthDuration/v2_depth_duration_MTurk/v2_DepthDuration_HTML.html#34,34,1515,632,1364,768,8-22-2022,9-11-17,81,depth_duration_stimuli/001449_2014-06-19_17-01-27_260595134347_rgbf000116-resize_2/001449_2014-06-19_17-01-27_260595134347_rgbf000116-resize_2-target.png,1000,3.452,25,4048,1008,meters,jsons/v1_VE1000_randls_31.json,847771,982308,48,Woman
81,358364,DepthScenes,duration_manipulation_targetAtFixation,jsons/v1_VE1000_randls_31.json,http://54.235.29.9/FacialAge/BNav_EC2/DepthDuration/v2_depth_duration_MTurk/v2_DepthDuration_HTML.html#34,34,1515,632,1364,768,8-22-2022,9-11-17,82,depth_duration_stimuli/001450_2014-06-19_17-02-03_260595134347_rgbf000203-resize_4/001450_2014-06-19_17-02-03_260595134347_rgbf000203-resize_4-target.png,1000,4.0106666666667,33,2842,991,meters,jsons/v1_VE1000_randls_31.json,847771,982308,48,Woman
82,358364,DepthScenes,duration_manipulation_targetAtFixation,jsons/v1_VE1000_randls_31.json,http://54.235.29.9/FacialAge/BNav_EC2/DepthDuration/v2_depth_duration_MTurk/v2_DepthDuration_HTML.html#34,34,1515,632,1364,768,8-22-2022,9-11-17,83,depth_duration_stimuli/001011_2014-06-08_23-18-54_260595134347_rgbf000044-resize_4/001011_2014-06-08_23-18-54_260595134347_rgbf000044-resize_4-target.png,1000,2.4730000000000003,31,3943,1010,meters,jsons/v1_VE1000_randls_31.json,847771,982308,48,Woman
83,358364,DepthScenes,duration_manipulation_targetAtFixation,jsons/v1_VE1000_randls_31.json,http://54.235.29.9/FacialAge/BNav_EC2/DepthDuration/v2_depth_duration_MTurk/v2_DepthDuration_HTML.html#34,34,1515,632,1364,768,8-22-2022,9-11-17,84,depth_duration_stimuli/002875_2014-06-01_15-19-00_094959634447_rgbf000151-resize_1/002875_2014-06-01_15-19-00_094959634447_rgbf000151-resize_1-target.png,1000,1.9675,25,3039,996,meters,jsons/v1_VE1000_randls_31.json,847771,982308,48,Woman
84,358364,DepthScenes,duration_manipulation_targetAtFixation,jsons/v1_VE1000_randls_31.json,http://54.235.29.9/FacialAge/BNav_EC2/DepthDuration/v2_depth_duration_MTurk/v2_DepthDuration_HTML.html#34,34,1515,632,1364,768,8-22-2022,9-11-17,85,depth_duration_stimuli/002905_2014-06-03_18-04-43_094959634447_rgbf000151-resize_2/002905_2014-06-03_18-04-43_094959634447_rgbf000151-resize_2-target.png,1000,2.0295,21,3128,998,meters,jsons/v1_VE1000_randls_31.json,847771,982308,48,Woman
85,358364,DepthScenes,duration_manipulation_targetAtFixation,jsons/v1_VE1000_randls_31.json,http://54.235.29.9/FacialAge/BNav_EC2/DepthDuration/v2_depth_duration_MTurk/v2_DepthDuration_HTML.html#34,34,1515,632,1364,768,8-22-2022,9-11-17,86,depth_duration_stimuli/003423_2014-05-21_10-23-26_094959634447_rgbf002665-resize_2/003423_2014-05-21_10-23-26_094959634447_rgbf002665-resize_2-target.png,1000,3.2575,22,2801,1010,meters,jsons/v1_VE1000_randls_31.json,847771,982308,48,Woman
86,358364,DepthScenes,duration_manipulation_targetAtFixation,jsons/v1_VE1000_randls_31.json,http://54.235.29.9/FacialAge/BNav_EC2/DepthDuration/v2_depth_duration_MTurk/v2_DepthDuration_HTML.html#34,34,1515,632,1364,768,8-22-2022,9-11-17,87,depth_duration_stimuli/000810_2014-06-08_17-20-01_260595134347_rgbf000105-resize_0/000810_2014-06-08_17-20-01_260595134347_rgbf000105-resize_0-target.png,1000,1.4865,21,3085,1001,meters,jsons/v1_VE1000_randls_31.json,847771,982308,48,Woman
87,358364,DepthScenes,duration_manipulation_targetAtFixation,jsons/v1_VE1000_randls_31.json,http://54.235.29.9/FacialAge/BNav_EC2/DepthDuration/v2_depth_duration_MTurk/v2_DepthDuration_HTML.html#34,34,1515,632,1364,768,8-22-2022,9-11-17,88,depth_duration_stimuli/001214_2014-06-17_16-13-55_260595134347_rgbf000111-resize_0/001214_2014-06-17_16-13-55_260595134347_rgbf000111-resize_0-target.png,1000,2.6505,21,3096,1008,meters,jsons/v1_VE1000_randls_31.json,847771,982308,48,Woman
88,358364,DepthScenes,duration_manipulation_targetAtFixation,jsons/v1_VE1000_randls_31.json,http://54.235.29.9/FacialAge/BNav_EC2/DepthDuration/v2_depth_duration_MTurk/v2_DepthDuration_HTML.html#34,34,1515,632,1364,768,8-22-2022,9-11-17,89,depth_duration_stimuli/000447_2014-06-08_16-15-46_260595134347_rgbf000130-resize_1/000447_2014-06-08_16-15-46_260595134347_rgbf000130-resize_1-target.png,1000,4.479,55,4517,983,meters,jsons/v1_VE1000_randls_31.json,847771,982308,48,Woman
89,358364,DepthScenes,duration_manipulation_targetAtFixation,jsons/v1_VE1000_randls_31.json,http://54.235.29.9/FacialAge/BNav_EC2/DepthDuration/v2_depth_duration_MTurk/v2_DepthDuration_HTML.html#34,34,1515,632,1364,768,8-22-2022,9-11-17,90,depth_duration_stimuli/001447_2014-06-19_17-00-32_260595134347_rgbf000082-resize_5/001447_2014-06-19_17-00-32_260595134347_rgbf000082-resize_5-target.png,1000,4.13775,23,3057,989,meters,jsons/v1_VE1000_randls_31.json,847771,982308,48,Woman
90,358364,DepthScenes,duration_manipulation_targetAtFixation,jsons/v1_VE1000_randls_31.json,http://54.235.29.9/FacialAge/BNav_EC2/DepthDuration/v2_depth_duration_MTurk/v2_DepthDuration_HTML.html#34,34,1515,632,1364,768,8-22-2022,9-11-17,91,depth_duration_stimuli/000692_2014-06-08_13-09-42_260595134347_rgbf000199-resize_2/000692_2014-06-08_13-09-42_260595134347_rgbf000199-resize_2-target.png,1000,3.661,21,3260,1000,meters,jsons/v1_VE1000_randls_31.json,847771,982308,48,Woman
91,358364,DepthScenes,duration_manipulation_targetAtFixation,jsons/v1_VE1000_randls_31.json,http://54.235.29.9/FacialAge/BNav_EC2/DepthDuration/v2_depth_duration_MTurk/v2_DepthDuration_HTML.html#34,34,1515,632,1364,768,8-22-2022,9-11-17,92,depth_duration_stimuli/001094_2014-06-15_17-36-00_260595134347_rgbf000205-resize_0/001094_2014-06-15_17-36-00_260595134347_rgbf000205-resize_0-target.png,1000,4.2175,21,3253,1015,meters,jsons/v1_VE1000_randls_31.json,847771,982308,48,Woman
92,358364,DepthScenes,duration_manipulation_targetAtFixation,jsons/v1_VE1000_randls_31.json,http://54.235.29.9/FacialAge/BNav_EC2/DepthDuration/v2_depth_duration_MTurk/v2_DepthDuration_HTML.html#34,34,1515,632,1364,768,8-22-2022,9-11-17,93,depth_duration_stimuli/002153_2014-06-25_21-27-18_260595134347_rgbf000038-resize_5/002153_2014-06-25_21-27-18_260595134347_rgbf000038-resize_5-target.png,1000,2.505,12,4412,999,meters,jsons/v1_VE1000_randls_31.json,847771,982308,48,Woman
93,358364,DepthScenes,duration_manipulation_targetAtFixation,jsons/v1_VE1000_randls_31.json,http://54.235.29.9/FacialAge/BNav_EC2/DepthDuration/v2_depth_duration_MTurk/v2_DepthDuration_HTML.html#34,34,1515,632,1364,768,8-22-2022,9-11-17,94,depth_duration_stimuli/002660_2014-06-13_15-44-18_094959634447_rgbf001878-resize_2/002660_2014-06-13_15-44-18_094959634447_rgbf001878-resize_2-target.png,1000,3.576,21,3860,998,meters,jsons/v1_VE1000_randls_31.json,847771,982308,48,Woman
94,358364,DepthScenes,duration_manipulation_targetAtFixation,jsons/v1_VE1000_randls_31.json,http://54.235.29.9/FacialAge/BNav_EC2/DepthDuration/v2_depth_duration_MTurk/v2_DepthDuration_HTML.html#34,34,1515,632,1364,768,8-22-2022,9-11-17,95,depth_duration_stimuli/000368_2014-06-09_15-53-01_260595134347_rgbf000155-resize_2/000368_2014-06-09_15-53-01_260595134347_rgbf000155-resize_2-target.png,1000,2.4859999999999998,12,8242,993,meters,jsons/v1_VE1000_randls_31.json,847771,982308,48,Woman
95,358364,DepthScenes,duration_manipulation_targetAtFixation,jsons/v1_VE1000_randls_31.json,http://54.235.29.9/FacialAge/BNav_EC2/DepthDuration/v2_depth_duration_MTurk/v2_DepthDuration_HTML.html#34,34,1515,632,1364,768,8-22-2022,9-11-17,96,depth_duration_stimuli/002678_2014-06-13_16-15-32_094959634447_rgbf000151-resize_6/002678_2014-06-13_16-15-32_094959634447_rgbf000151-resize_6-target.png,1000,2.1830000000000003,21,7352,997,meters,jsons/v1_VE1000_randls_31.json,847771,982308,48,Woman
96,358364,DepthScenes,duration_manipulation_targetAtFixation,jsons/v1_VE1000_randls_31.json,http://54.235.29.9/FacialAge/BNav_EC2/DepthDuration/v2_depth_duration_MTurk/v2_DepthDuration_HTML.html#34,34,1515,632,1364,768,8-22-2022,9-11-17,97,depth_duration_stimuli/001810_2014-06-26_20-51-35_260595134347_rgbf000040-resize_3/001810_2014-06-26_20-51-35_260595134347_rgbf000040-resize_3-target.png,1000,2.2525,25,8953,998,meters,jsons/v1_VE1000_randls_31.json,847771,982308,48,Woman
97,358364,DepthScenes,duration_manipulation_targetAtFixation,jsons/v1_VE1000_randls_31.json,http://54.235.29.9/FacialAge/BNav_EC2/DepthDuration/v2_depth_duration_MTurk/v2_DepthDuration_HTML.html#34,34,1515,632,1364,768,8-22-2022,9-11-17,98,depth_duration_stimuli/003010_2014-06-15_12-54-35_094959634447_rgbf000112-resize_0/003010_2014-06-15_12-54-35_094959634447_rgbf000112-resize_0-target.png,1000,3.1185,21,4404,991,meters,jsons/v1_VE1000_randls_31.json,847771,982308,48,Woman
98,358364,DepthScenes,duration_manipulation_targetAtFixation,jsons/v1_VE1000_randls_31.json,http://54.235.29.9/FacialAge/BNav_EC2/DepthDuration/v2_depth_duration_MTurk/v2_DepthDuration_HTML.html#34,34,1515,632,1364,768,8-22-2022,9-11-17,99,depth_duration_stimuli/001540_2014-06-20_17-01-05_260595134347_rgbf000086-resize_2/001540_2014-06-20_17-01-05_260595134347_rgbf000086-resize-original.jpg,1000,1.459,23,4184,999,meters,jsons/v1_VE1000_randls_31.json,847771,982308,48,Woman
99,358364,DepthScenes,duration_manipulation_targetAtFixation,jsons/v1_VE1000_randls_31.json,http://54.235.29.9/FacialAge/BNav_EC2/DepthDuration/v2_depth_duration_MTurk/v2_DepthDuration_HTML.html#34,34,1515,632,1364,768,8-22-2022,9-11-17,100,depth_duration_stimuli/002375_2014-06-28_20-13-44_260595134347_rgbf000032-resize_1/002375_2014-06-28_20-13-44_260595134347_rgbf000032-resize_1-target.png,1000,4.0175,22,3002,991,meters,jsons/v1_VE1000_randls_31.json,847771,982308,48,Woman
100,358364,DepthScenes,duration_manipulation_targetAtFixation,jsons/v1_VE1000_randls_31.json,http://54.235.29.9/FacialAge/BNav_EC2/DepthDuration/v2_depth_duration_MTurk/v2_DepthDuration_HTML.html#34,34,1515,632,1364,768,8-22-2022,9-11-17,101,depth_duration_stimuli/002657_2014-06-13_15-29-54_094959634447_rgbf000150-resize_1/002657_2014-06-13_15-29-54_094959634447_rgbf000150-resize_1-target.png,1000,4.919,22,3121,996,meters,jsons/v1_VE1000_randls_31.json,847771,982308,48,Woman
101,358364,DepthScenes,duration_manipulation_targetAtFixation,jsons/v1_VE1000_randls_31.json,http://54.235.29.9/FacialAge/BNav_EC2/DepthDuration/v2_depth_duration_MTurk/v2_DepthDuration_HTML.html#34,34,1515,632,1364,768,8-22-2022,9-11-17,102,depth_duration_stimuli/001158_2014-06-17_15-32-16_260595134347_rgbf000138-resize_2/001158_2014-06-17_15-32-16_260595134347_rgbf000138-resize_2-target.png,1000,4.5315,21,3032,999,meters,jsons/v1_VE1000_randls_31.json,847771,982308,48,Woman
102,358364,DepthScenes,duration_manipulation_targetAtFixation,jsons/v1_VE1000_randls_31.json,http://54.235.29.9/FacialAge/BNav_EC2/DepthDuration/v2_depth_duration_MTurk/v2_DepthDuration_HTML.html#34,34,1515,632,1364,768,8-22-2022,9-11-17,103,depth_duration_stimuli/000556_2014-06-09_22-42-56_260595134347_rgbf000214-resize_1/000556_2014-06-09_22-42-56_260595134347_rgbf000214-resize_1-target.png,1000,4.8415,24,4690,1008,meters,jsons/v1_VE1000_randls_31.json,847771,982308,48,Woman
103,358364,DepthScenes,duration_manipulation_targetAtFixation,jsons/v1_VE1000_randls_31.json,http://54.235.29.9/FacialAge/BNav_EC2/DepthDuration/v2_depth_duration_MTurk/v2_DepthDuration_HTML.html#34,34,1515,632,1364,768,8-22-2022,9-11-17,104,depth_duration_stimuli/003070_2014-06-15_14-58-27_094959634447_rgbf000150-resize_3/003070_2014-06-15_14-58-27_094959634447_rgbf000150-resize_3-target.png,1000,2.9415,24,3267,991,meters,jsons/v1_VE1000_randls_31.json,847771,982308,48,Woman
104,358364,DepthScenes,duration_manipulation_targetAtFixation,jsons/v1_VE1000_randls_31.json,http://54.235.29.9/FacialAge/BNav_EC2/DepthDuration/v2_depth_duration_MTurk/v2_DepthDuration_HTML.html#34,34,1515,632,1364,768,8-22-2022,9-11-17,105,depth_duration_stimuli/000943_2014-06-09_19-31-07_260595134347_rgbf000128-resize_1/000943_2014-06-09_19-31-07_260595134347_rgbf000128-resize_1-target.png,1000,1.9765,24,3347,992,meters,jsons/v1_VE1000_randls_31.json,847771,982308,48,Woman
105,358364,DepthScenes,duration_manipulation_targetAtFixation,jsons/v1_VE1000_randls_31.json,http://54.235.29.9/FacialAge/BNav_EC2/DepthDuration/v2_depth_duration_MTurk/v2_DepthDuration_HTML.html#34,34,1515,632,1364,768,8-22-2022,9-11-17,106,depth_duration_stimuli/001417_2014-06-19_16-25-36_260595134347_rgbf000115-resize_5/001417_2014-06-19_16-25-36_260595134347_rgbf000115-resize_5-target.png,1000,4.6255,25,3563,992,meters,jsons/v1_VE1000_randls_31.json,847771,982308,48,Woman
106,358364,DepthScenes,duration_manipulation_targetAtFixation,jsons/v1_VE1000_randls_31.json,http://54.235.29.9/FacialAge/BNav_EC2/DepthDuration/v2_depth_duration_MTurk/v2_DepthDuration_HTML.html#34,34,1515,632,1364,768,8-22-2022,9-11-17,107,depth_duration_stimuli/003081_2014-06-15_15-19-16_094959634447_rgbf000150-resize_1/003081_2014-06-15_15-19-16_094959634447_rgbf000150-resize_1-target.png,1000,3.9125,24,3458,1000,meters,jsons/v1_VE1000_randls_31.json,847771,982308,48,Woman
107,358364,DepthScenes,duration_manipulation_targetAtFixation,jsons/v1_VE1000_randls_31.json,http://54.235.29.9/FacialAge/BNav_EC2/DepthDuration/v2_depth_duration_MTurk/v2_DepthDuration_HTML.html#34,34,1515,632,1364,768,8-22-2022,9-11-17,108,depth_duration_stimuli/001244_2014-06-17_16-47-45_260595134347_rgbf000030-resize_4/001244_2014-06-17_16-47-45_260595134347_rgbf000030-resize_4-target.png,1000,2.0425,24,3230,999,meters,jsons/v1_VE1000_randls_31.json,847771,982308,48,Woman
108,358364,DepthScenes,duration_manipulation_targetAtFixation,jsons/v1_VE1000_randls_31.json,http://54.235.29.9/FacialAge/BNav_EC2/DepthDuration/v2_depth_duration_MTurk/v2_DepthDuration_HTML.html#34,34,1515,632,1364,768,8-22-2022,9-11-17,109,depth_duration_stimuli/003495_2014-05-21_16-01-51_094959634447_rgbf000100-resize_3/003495_2014-05-21_16-01-51_094959634447_rgbf000100-resize_3-target.png,1000,1.6255,24,3102,997,meters,jsons/v1_VE1000_randls_31.json,847771,982308,48,Woman
109,358364,DepthScenes,duration_manipulation_targetAtFixation,jsons/v1_VE1000_randls_31.json,http://54.235.29.9/FacialAge/BNav_EC2/DepthDuration/v2_depth_duration_MTurk/v2_DepthDuration_HTML.html#34,34,1515,632,1364,768,8-22-2022,9-11-17,110,depth_duration_stimuli/001055_2014-06-08_18-45-35_260595134347_rgbf000111-resize_4/001055_2014-06-08_18-45-35_260595134347_rgbf000111-resize_4-target.png,1000,2.4290000000000003,24,3576,1000,meters,jsons/v1_VE1000_randls_31.json,847771,982308,48,Woman
110,358364,DepthScenes,duration_manipulation_targetAtFixation,jsons/v1_VE1000_randls_31.json,http://54.235.29.9/FacialAge/BNav_EC2/DepthDuration/v2_depth_duration_MTurk/v2_DepthDuration_HTML.html#34,34,1515,632,1364,768,8-22-2022,9-11-17,111,depth_duration_stimuli/000549_2014-06-08_22-10-24_260595134347_rgbf000247-resize_3/000549_2014-06-08_22-10-24_260595134347_rgbf000247-resize_3-target.png,1000,1.841,22,2966,998,meters,jsons/v1_VE1000_randls_31.json,847771,982308,48,Woman
111,358364,DepthScenes,duration_manipulation_targetAtFixation,jsons/v1_VE1000_randls_31.json,http://54.235.29.9/FacialAge/BNav_EC2/DepthDuration/v2_depth_duration_MTurk/v2_DepthDuration_HTML.html#34,34,1515,632,1364,768,8-22-2022,9-11-17,112,depth_duration_stimuli/002272_2014-06-28_18-53-56_260595134347_rgbf000067-resize_2/002272_2014-06-28_18-53-56_260595134347_rgbf000067-resize_2-target.png,1000,1.138,23,5952,999,meters,jsons/v1_VE1000_randls_31.json,847771,982308,48,Woman
112,358364,DepthScenes,duration_manipulation_targetAtFixation,jsons/v1_VE1000_randls_31.json,http://54.235.29.9/FacialAge/BNav_EC2/DepthDuration/v2_depth_duration_MTurk/v2_DepthDuration_HTML.html#34,34,1515,632,1364,768,8-22-2022,9-11-17,113,depth_duration_stimuli/001571_2014-06-20_17-21-32_260595134347_rgbf000089-resize_1/001571_2014-06-20_17-21-32_260595134347_rgbf000089-resize_1-target.png,1000,1.86,22,3148,998,meters,jsons/v1_VE1000_randls_31.json,847771,982308,48,Woman
113,358364,DepthScenes,duration_manipulation_targetAtFixation,jsons/v1_VE1000_randls_31.json,http://54.235.29.9/FacialAge/BNav_EC2/DepthDuration/v2_depth_duration_MTurk/v2_DepthDuration_HTML.html#34,34,1515,632,1364,768,8-22-2022,9-11-17,114,depth_duration_stimuli/000522_2014-06-08_13-35-06_260595134347_rgbf000244-resize_1/000522_2014-06-08_13-35-06_260595134347_rgbf000244-resize_1-target.png,1000,2.3715,12,3739,992,meters,jsons/v1_VE1000_randls_31.json,847771,982308,48,Woman
114,358364,DepthScenes,duration_manipulation_targetAtFixation,jsons/v1_VE1000_randls_31.json,http://54.235.29.9/FacialAge/BNav_EC2/DepthDuration/v2_depth_duration_MTurk/v2_DepthDuration_HTML.html#34,34,1515,632,1364,768,8-22-2022,9-11-17,115,depth_duration_stimuli/002949_2014-06-26_15-57-42_094959634447_rgbf000079-resize_1/002949_2014-06-26_15-57-42_094959634447_rgbf000079-resize_1-target.png,1000,1.8915,21,3223,986,meters,jsons/v1_VE1000_randls_31.json,847771,982308,48,Woman
115,358364,DepthScenes,duration_manipulation_targetAtFixation,jsons/v1_VE1000_randls_31.json,http://54.235.29.9/FacialAge/BNav_EC2/DepthDuration/v2_depth_duration_MTurk/v2_DepthDuration_HTML.html#34,34,1515,632,1364,768,8-22-2022,9-11-17,116,depth_duration_stimuli/001170_2014-06-17_15-43-44_260595134347_rgbf000096-resize_6/001170_2014-06-17_15-43-44_260595134347_rgbf000096-resize-original.jpg,1000,1.1909999999999998,21,3211,1005,meters,jsons/v1_VE1000_randls_31.json,847771,982308,48,Woman
116,358364,DepthScenes,duration_manipulation_targetAtFixation,jsons/v1_VE1000_randls_31.json,http://54.235.29.9/FacialAge/BNav_EC2/DepthDuration/v2_depth_duration_MTurk/v2_DepthDuration_HTML.html#34,34,1515,632,1364,768,8-22-2022,9-11-17,117,depth_duration_stimuli/000506_2014-06-08_23-21-00_260595134347_rgbf000070-resize_7/000506_2014-06-08_23-21-00_260595134347_rgbf000070-resize_7-target.png,1000,4.0585,24,3663,997,meters,jsons/v1_VE1000_randls_31.json,847771,982308,48,Woman
117,358364,DepthScenes,duration_manipulation_targetAtFixation,jsons/v1_VE1000_randls_31.json,http://54.235.29.9/FacialAge/BNav_EC2/DepthDuration/v2_depth_duration_MTurk/v2_DepthDuration_HTML.html#34,34,1515,632,1364,768,8-22-2022,9-11-17,118,depth_duration_stimuli/003079_2014-06-15_15-18-20_094959634447_rgbf000152-resize_8/003079_2014-06-15_15-18-20_094959634447_rgbf000152-resize_8-target.png,1000,2.8775,21,3346,1000,meters,jsons/v1_VE1000_randls_31.json,847771,982308,48,Woman
118,358364,DepthScenes,duration_manipulation_targetAtFixation,jsons/v1_VE1000_randls_31.json,http://54.235.29.9/FacialAge/BNav_EC2/DepthDuration/v2_depth_duration_MTurk/v2_DepthDuration_HTML.html#34,34,1515,632,1364,768,8-22-2022,9-11-17,119,depth_duration_stimuli/003492_2014-05-21_15-50-55_094959634447_rgbf000828-resize_1/003492_2014-05-21_15-50-55_094959634447_rgbf000828-resize_1-target.png,1000,4.06875,24,4065,1008,meters,jsons/v1_VE1000_randls_31.json,847771,982308,48,Woman
119,358364,DepthScenes,duration_manipulation_targetAtFixation,jsons/v1_VE1000_randls_31.json,http://54.235.29.9/FacialAge/BNav_EC2/DepthDuration/v2_depth_duration_MTurk/v2_DepthDuration_HTML.html#34,34,1515,632,1364,768,8-22-2022,9-11-17,120,depth_duration_stimuli/002568_2014-06-24_13-59-21_094959634447_rgbf000062-resize_4/002568_2014-06-24_13-59-21_094959634447_rgbf000062-resize_4-target.png,1000,3.015,21,3164,983,meters,jsons/v1_VE1000_randls_31.json,847771,982308,48,Woman
120,358364,DepthScenes,duration_manipulation_targetAtFixation,jsons/v1_VE1000_randls_31.json,http://54.235.29.9/FacialAge/BNav_EC2/DepthDuration/v2_depth_duration_MTurk/v2_DepthDuration_HTML.html#34,34,1515,632,1364,768,8-22-2022,9-11-17,121,depth_duration_stimuli/000773_2014-06-08_22-24-54_260595134347_rgbf000093-resize_1/000773_2014-06-08_22-24-54_260595134347_rgbf000093-resize_1-target.png,1000,4.973,24,3450,996,meters,jsons/v1_VE1000_randls_31.json,847771,982308,48,Woman
121,358364,DepthScenes,duration_manipulation_targetAtFixation,jsons/v1_VE1000_randls_31.json,http://54.235.29.9/FacialAge/BNav_EC2/DepthDuration/v2_depth_duration_MTurk/v2_DepthDuration_HTML.html#34,34,1515,632,1364,768,8-22-2022,9-11-17,122,depth_duration_stimuli/002414_2014-06-28_20-24-58_260595134347_rgbf000067-resize_4/002414_2014-06-28_20-24-58_260595134347_rgbf000067-resize_4-target.png,1000,4.363,22,2862,1000,meters,jsons/v1_VE1000_randls_31.json,847771,982308,48,Woman
122,358364,DepthScenes,duration_manipulation_targetAtFixation,jsons/v1_VE1000_randls_31.json,http://54.235.29.9/FacialAge/BNav_EC2/DepthDuration/v2_depth_duration_MTurk/v2_DepthDuration_HTML.html#34,34,1515,632,1364,768,8-22-2022,9-11-17,123,depth_duration_stimuli/000436_2014-06-09_22-25-11_260595134347_rgbf000137-resize_1/000436_2014-06-09_22-25-11_260595134347_rgbf000137-resize_1-target.png,1000,4.0705,23,4286,998,meters,jsons/v1_VE1000_randls_31.json,847771,982308,48,Woman
123,358364,DepthScenes,duration_manipulation_targetAtFixation,jsons/v1_VE1000_randls_31.json,http://54.235.29.9/FacialAge/BNav_EC2/DepthDuration/v2_depth_duration_MTurk/v2_DepthDuration_HTML.html#34,34,1515,632,1364,768,8-22-2022,9-11-17,124,depth_duration_stimuli/002444_2014-06-28_20-32-08_260595134347_rgbf000027-resize_0/002444_2014-06-28_20-32-08_260595134347_rgbf000027-resize_0-target.png,1000,4.388999999999999,22,6451,1003,meters,jsons/v1_VE1000_randls_31.json,847771,982308,48,Woman
124,358364,DepthScenes,duration_manipulation_targetAtFixation,jsons/v1_VE1000_randls_31.json,http://54.235.29.9/FacialAge/BNav_EC2/DepthDuration/v2_depth_duration_MTurk/v2_DepthDuration_HTML.html#34,34,1515,632,1364,768,8-22-2022,9-11-17,125,depth_duration_stimuli/002784_2014-06-22_19-26-30_094959634447_rgbf000083-resize_3/002784_2014-06-22_19-26-30_094959634447_rgbf000083-resize_3-target.png,1000,1.8046666666667,36,4553,996,meters,jsons/v1_VE1000_randls_31.json,847771,982308,48,Woman
125,358364,DepthScenes,duration_manipulation_targetAtFixation,jsons/v1_VE1000_randls_31.json,http://54.235.29.9/FacialAge/BNav_EC2/DepthDuration/v2_depth_duration_MTurk/v2_DepthDuration_HTML.html#34,34,1515,632,1364,768,8-22-2022,9-11-17,126,depth_duration_stimuli/001100_2014-06-15_17-46-26_260595134347_rgbf000225-resize_2/001100_2014-06-15_17-46-26_260595134347_rgbf000225-resize_2-target.png,1000,2.24,21,3106,994,meters,jsons/v1_VE1000_randls_31.json,847771,982308,48,Woman
126,358364,DepthScenes,duration_manipulation_targetAtFixation,jsons/v1_VE1000_randls_31.json,http://54.235.29.9/FacialAge/BNav_EC2/DepthDuration/v2_depth_duration_MTurk/v2_DepthDuration_HTML.html#34,34,1515,632,1364,768,8-22-2022,9-11-17,127,depth_duration_stimuli/001555_2014-06-20_17-12-10_260595134347_rgbf000065-resize_4/001555_2014-06-20_17-12-10_260595134347_rgbf000065-resize_4-target.png,1000,1.633,21,4233,1003,meters,jsons/v1_VE1000_randls_31.json,847771,982308,48,Woman
127,358364,DepthScenes,duration_manipulation_targetAtFixation,jsons/v1_VE1000_randls_31.json,http://54.235.29.9/FacialAge/BNav_EC2/DepthDuration/v2_depth_duration_MTurk/v2_DepthDuration_HTML.html#34,34,1515,632,1364,768,8-22-2022,9-11-17,128,depth_duration_stimuli/000103_2014-05-14_22-01-17_260595134347_rgbf000152-resize_5/000103_2014-05-14_22-01-17_260595134347_rgbf000152-resize_5-target.png,1000,1.993,31,4225,1008,meters,jsons/v1_VE1000_randls_31.json,847771,982308,48,Woman
128,358364,DepthScenes,duration_manipulation_targetAtFixation,jsons/v1_VE1000_randls_31.json,http://54.235.29.9/FacialAge/BNav_EC2/DepthDuration/v2_depth_duration_MTurk/v2_DepthDuration_HTML.html#34,34,1515,632,1364,768,8-22-2022,9-11-17,129,depth_duration_stimuli/001808_2014-06-26_20-50-58_260595134347_rgbf000029-resize_1/001808_2014-06-26_20-50-58_260595134347_rgbf000029-resize_1-target.png,1000,4.249,13,3836,1001,meters,jsons/v1_VE1000_randls_31.json,847771,982308,48,Woman
129,358364,DepthScenes,duration_manipulation_targetAtFixation,jsons/v1_VE1000_randls_31.json,http://54.235.29.9/FacialAge/BNav_EC2/DepthDuration/v2_depth_duration_MTurk/v2_DepthDuration_HTML.html#34,34,1515,632,1364,768,8-22-2022,9-11-17,130,depth_duration_stimuli/001815_2014-06-26_20-52-55_260595134347_rgbf000020-resize_0/001815_2014-06-26_20-52-55_260595134347_rgbf000020-resize_0-target.png,1000,3.3865,33,3701,980,meters,jsons/v1_VE1000_randls_31.json,847771,982308,48,Woman
130,358364,DepthScenes,duration_manipulation_targetAtFixation,jsons/v1_VE1000_randls_31.json,http://54.235.29.9/FacialAge/BNav_EC2/DepthDuration/v2_depth_duration_MTurk/v2_DepthDuration_HTML.html#34,34,1515,632,1364,768,8-22-2022,9-11-17,131,depth_duration_stimuli/002964_2014-06-08_17-46-11_094959634447_rgbf000091-resize_4/002964_2014-06-08_17-46-11_094959634447_rgbf000091-resize_4-target.png,1000,1.6909999999999998,22,3246,988,meters,jsons/v1_VE1000_randls_31.json,847771,982308,48,Woman
131,358364,DepthScenes,duration_manipulation_targetAtFixation,jsons/v1_VE1000_randls_31.json,http://54.235.29.9/FacialAge/BNav_EC2/DepthDuration/v2_depth_duration_MTurk/v2_DepthDuration_HTML.html#34,34,1515,632,1364,768,8-22-2022,9-11-17,132,depth_duration_stimuli/002136_2014-06-25_21-18-03_260595134347_rgbf000109-resize_3/002136_2014-06-25_21-18-03_260595134347_rgbf000109-resize_3-target.png,1000,1.9569999999999999,22,4284,984,meters,jsons/v1_VE1000_randls_31.json,847771,982308,48,Woman
132,358364,DepthScenes,duration_manipulation_targetAtFixation,jsons/v1_VE1000_randls_31.json,http://54.235.29.9/FacialAge/BNav_EC2/DepthDuration/v2_depth_duration_MTurk/v2_DepthDuration_HTML.html#34,34,1515,632,1364,768,8-22-2022,9-11-17,133,depth_duration_stimuli/000788_2014-06-08_22-34-36_260595134347_rgbf000131-resize_1/000788_2014-06-08_22-34-36_260595134347_rgbf000131-resize_1-target.png,1000,3.359,11,3835,1007,meters,jsons/v1_VE1000_randls_31.json,847771,982308,48,Woman
133,358364,DepthScenes,duration_manipulation_targetAtFixation,jsons/v1_VE1000_randls_31.json,http://54.235.29.9/FacialAge/BNav_EC2/DepthDuration/v2_depth_duration_MTurk/v2_DepthDuration_HTML.html#34,34,1515,632,1364,768,8-22-2022,9-11-17,134,depth_duration_stimuli/001235_2014-06-17_16-37-36_260595134347_rgbf000084-resize_4/001235_2014-06-17_16-37-36_260595134347_rgbf000084-resize_4-target.png,1000,3.6605,33,3233,991,meters,jsons/v1_VE1000_randls_31.json,847771,982308,48,Woman
134,358364,DepthScenes,duration_manipulation_targetAtFixation,jsons/v1_VE1000_randls_31.json,http://54.235.29.9/FacialAge/BNav_EC2/DepthDuration/v2_depth_duration_MTurk/v2_DepthDuration_HTML.html#34,34,1515,632,1364,768,8-22-2022,9-11-17,135,depth_duration_stimuli/002072_2014-06-24_21-48-06_260595134347_rgbf000115-resize_0/002072_2014-06-24_21-48-06_260595134347_rgbf000115-resize-original.jpg,1000,4.702,11,3940,1012,meters,jsons/v1_VE1000_randls_31.json,847771,982308,48,Woman
135,358364,DepthScenes,duration_manipulation_targetAtFixation,jsons/v1_VE1000_randls_31.json,http://54.235.29.9/FacialAge/BNav_EC2/DepthDuration/v2_depth_duration_MTurk/v2_DepthDuration_HTML.html#34,34,1515,632,1364,768,8-22-2022,9-11-17,136,depth_duration_stimuli/003534_2014-05-22_15-06-10_094959634447_rgbf000102-resize_4/003534_2014-05-22_15-06-10_094959634447_rgbf000102-resize_4-target.png,1000,1.426,11,8824,1002,meters,jsons/v1_VE1000_randls_31.json,847771,982308,48,Woman
136,358364,DepthScenes,duration_manipulation_targetAtFixation,jsons/v1_VE1000_randls_31.json,http://54.235.29.9/FacialAge/BNav_EC2/DepthDuration/v2_depth_duration_MTurk/v2_DepthDuration_HTML.html#34,34,1515,632,1364,768,8-22-2022,9-11-17,137,depth_duration_stimuli/002637_2014-06-24_14-51-13_094959634447_rgbf000066-resize_4/002637_2014-06-24_14-51-13_094959634447_rgbf000066-resize_4-target.png,1000,1.9955,22,3974,999,meters,jsons/v1_VE1000_randls_31.json,847771,982308,48,Woman
137,358364,DepthScenes,duration_manipulation_targetAtFixation,jsons/v1_VE1000_randls_31.json,http://54.235.29.9/FacialAge/BNav_EC2/DepthDuration/v2_depth_duration_MTurk/v2_DepthDuration_HTML.html#34,34,1515,632,1364,768,8-22-2022,9-11-17,138,depth_duration_stimuli/002213_2014-06-28_18-37-58_260595134347_rgbf000055-resize_1/002213_2014-06-28_18-37-58_260595134347_rgbf000055-resize_1-target.png,1000,3.62,22,4634,987,meters,jsons/v1_VE1000_randls_31.json,847771,982308,48,Woman
138,358364,DepthScenes,duration_manipulation_targetAtFixation,jsons/v1_VE1000_randls_31.json,http://54.235.29.9/FacialAge/BNav_EC2/DepthDuration/v2_depth_duration_MTurk/v2_DepthDuration_HTML.html#34,34,1515,632,1364,768,8-22-2022,9-11-17,139,depth_duration_stimuli/000691_2014-06-08_13-08-50_260595134347_rgbf000132-resize_3/000691_2014-06-08_13-08-50_260595134347_rgbf000132-resize_3-target.png,1000,4.1530000000000005,22,3051,1000,meters,jsons/v1_VE1000_randls_31.json,847771,982308,48,Woman
139,358364,DepthScenes,duration_manipulation_targetAtFixation,jsons/v1_VE1000_randls_31.json,http://54.235.29.9/FacialAge/BNav_EC2/DepthDuration/v2_depth_duration_MTurk/v2_DepthDuration_HTML.html#34,34,1515,632,1364,768,8-22-2022,9-11-17,140,depth_duration_stimuli/000682_2014-06-08_23-14-58_260595134347_rgbf000041-resize_5/000682_2014-06-08_23-14-58_260595134347_rgbf000041-resize_5-target.png,1000,2.7239999999999998,12,4630,987,meters,jsons/v1_VE1000_randls_31.json,847771,982308,48,Woman
140,358364,DepthScenes,duration_manipulation_targetAtFixation,jsons/v1_VE1000_randls_31.json,http://54.235.29.9/FacialAge/BNav_EC2/DepthDuration/v2_depth_duration_MTurk/v2_DepthDuration_HTML.html#34,34,1515,632,1364,768,8-22-2022,9-11-17,141,depth_duration_stimuli/001650_2014-06-20_12-09-00_260595134347_rgbf000087-resize_3/001650_2014-06-20_12-09-00_260595134347_rgbf000087-resize_3-target.png,1000,1.9505,21,2969,1013,meters,jsons/v1_VE1000_randls_31.json,847771,982308,48,Woman
141,358364,DepthScenes,duration_manipulation_targetAtFixation,jsons/v1_VE1000_randls_31.json,http://54.235.29.9/FacialAge/BNav_EC2/DepthDuration/v2_depth_duration_MTurk/v2_DepthDuration_HTML.html#34,34,1515,632,1364,768,8-22-2022,9-11-17,142,depth_duration_stimuli/001133_2014-06-17_14-49-16_260595134347_rgbf000100-resize_0/001133_2014-06-17_14-49-16_260595134347_rgbf000100-resize_0-target.png,1000,4.2115,36,3229,983,meters,jsons/v1_VE1000_randls_31.json,847771,982308,48,Woman
142,358364,DepthScenes,duration_manipulation_targetAtFixation,jsons/v1_VE1000_randls_31.json,http://54.235.29.9/FacialAge/BNav_EC2/DepthDuration/v2_depth_duration_MTurk/v2_DepthDuration_HTML.html#34,34,1515,632,1364,768,8-22-2022,9-11-17,143,depth_duration_stimuli/001132_2014-06-17_14-48-54_260595134347_rgbf000100-resize_2/001132_2014-06-17_14-48-54_260595134347_rgbf000100-resize_2-target.png,1000,3.753,12,2845,997,meters,jsons/v1_VE1000_randls_31.json,847771,982308,48,Woman
143,358364,DepthScenes,duration_manipulation_targetAtFixation,jsons/v1_VE1000_randls_31.json,http://54.235.29.9/FacialAge/BNav_EC2/DepthDuration/v2_depth_duration_MTurk/v2_DepthDuration_HTML.html#34,34,1515,632,1364,768,8-22-2022,9-11-17,144,depth_duration_stimuli/000486_2014-06-09_20-47-20_260595134347_rgbf000143-resize_2/000486_2014-06-09_20-47-20_260595134347_rgbf000143-resize_2-target.png,1000,4.8325,22,3722,995,meters,jsons/v1_VE1000_randls_31.json,847771,982308,48,Woman
144,358364,DepthScenes,duration_manipulation_targetAtFixation,jsons/v1_VE1000_randls_31.json,http://54.235.29.9/FacialAge/BNav_EC2/DepthDuration/v2_depth_duration_MTurk/v2_DepthDuration_HTML.html#34,34,1515,632,1364,768,8-22-2022,9-11-17,145,depth_duration_stimuli/003083_2014-06-15_15-21-03_094959634447_rgbf000063-resize_1/003083_2014-06-15_15-21-03_094959634447_rgbf000063-resize_1-target.png,1000,4.1405,21,3433,977,meters,jsons/v1_VE1000_randls_31.json,847771,982308,48,Woman
145,358364,DepthScenes,duration_manipulation_targetAtFixation,jsons/v1_VE1000_randls_31.json,http://54.235.29.9/FacialAge/BNav_EC2/DepthDuration/v2_depth_duration_MTurk/v2_DepthDuration_HTML.html#34,34,1515,632,1364,768,8-22-2022,9-11-17,146,depth_duration_stimuli/001498_2014-06-19_17-45-14_260595134347_rgbf000129-resize_4/001498_2014-06-19_17-45-14_260595134347_rgbf000129-resize-original.jpg,1000,1.4075,22,3214,998,meters,jsons/v1_VE1000_randls_31.json,847771,982308,48,Woman
146,358364,DepthScenes,duration_manipulation_targetAtFixation,jsons/v1_VE1000_randls_31.json,http://54.235.29.9/FacialAge/BNav_EC2/DepthDuration/v2_depth_duration_MTurk/v2_DepthDuration_HTML.html#34,34,1515,632,1364,768,8-22-2022,9-11-17,147,depth_duration_stimuli/002279_2014-06-28_18-55-32_260595134347_rgbf000040-resize_5/002279_2014-06-28_18-55-32_260595134347_rgbf000040-resize_5-target.png,1000,1.5043333333333,22,3610,985,meters,jsons/v1_VE1000_randls_31.json,847771,982308,48,Woman
147,358364,DepthScenes,duration_manipulation_targetAtFixation,jsons/v1_VE1000_randls_31.json,http://54.235.29.9/FacialAge/BNav_EC2/DepthDuration/v2_depth_duration_MTurk/v2_DepthDuration_HTML.html#34,34,1515,632,1364,768,8-22-2022,9-11-17,148,depth_duration_stimuli/000635_2014-06-08_16-38-42_260595134347_rgbf000106-resize_1/000635_2014-06-08_16-38-42_260595134347_rgbf000106-resize_1-target.png,1000,2.074,31,2721,971,meters,jsons/v1_VE1000_randls_31.json,847771,982308,48,Woman
148,358364,DepthScenes,duration_manipulation_targetAtFixation,jsons/v1_VE1000_randls_31.json,http://54.235.29.9/FacialAge/BNav_EC2/DepthDuration/v2_depth_duration_MTurk/v2_DepthDuration_HTML.html#34,34,1515,632,1364,768,8-22-2022,9-11-17,149,depth_duration_stimuli/000739_2014-06-08_18-45-58_260595134347_rgbf000068-resize_1/000739_2014-06-08_18-45-58_260595134347_rgbf000068-resize_1-target.png,1000,3.534,31,3053,1018,meters,jsons/v1_VE1000_randls_31.json,847771,982308,48,Woman
149,358364,DepthScenes,duration_manipulation_targetAtFixation,jsons/v1_VE1000_randls_31.json,http://54.235.29.9/FacialAge/BNav_EC2/DepthDuration/v2_depth_duration_MTurk/v2_DepthDuration_HTML.html#34,34,1515,632,1364,768,8-22-2022,9-11-17,150,depth_duration_stimuli/000734_2014-06-08_17-39-11_260595134347_rgbf000128-resize_2/000734_2014-06-08_17-39-11_260595134347_rgbf000128-resize_2-target.png,1000,4.098,33,3781,995,meters,jsons/v1_VE1000_randls_31.json,847771,982308,48,Woman
150,358364,DepthScenes,duration_manipulation_targetAtFixation,jsons/v1_VE1000_randls_31.json,http://54.235.29.9/FacialAge/BNav_EC2/DepthDuration/v2_depth_duration_MTurk/v2_DepthDuration_HTML.html#34,34,1515,632,1364,768,8-22-2022,9-11-17,151,depth_duration_stimuli/001150_2014-06-17_15-27-34_260595134347_rgbf000108-resize_2/001150_2014-06-17_15-27-34_260595134347_rgbf000108-resize_2-target.png,1000,4.0325,22,5105,998,meters,jsons/v1_VE1000_randls_31.json,847771,982308,48,Woman
151,358364,DepthScenes,duration_manipulation_targetAtFixation,jsons/v1_VE1000_randls_31.json,http://54.235.29.9/FacialAge/BNav_EC2/DepthDuration/v2_depth_duration_MTurk/v2_DepthDuration_HTML.html#34,34,1515,632,1364,768,8-22-2022,9-11-17,152,depth_duration_stimuli/000665_2014-06-09_20-42-35_260595134347_rgbf000110-resize_1/000665_2014-06-09_20-42-35_260595134347_rgbf000110-resize_1-target.png,1000,3.057,22,6971,1000,meters,jsons/v1_VE1000_randls_31.json,847771,982308,48,Woman
152,358364,DepthScenes,duration_manipulation_targetAtFixation,jsons/v1_VE1000_randls_31.json,http://54.235.29.9/FacialAge/BNav_EC2/DepthDuration/v2_depth_duration_MTurk/v2_DepthDuration_HTML.html#34,34,1515,632,1364,768,8-22-2022,9-11-17,153,depth_duration_stimuli/002057_2014-06-24_21-00-13_260595134347_rgbf000120-resize_1/002057_2014-06-24_21-00-13_260595134347_rgbf000120-resize_1-target.png,1000,2.967,33,3346,955,meters,jsons/v1_VE1000_randls_31.json,847771,982308,48,Woman
153,358364,DepthScenes,duration_manipulation_targetAtFixation,jsons/v1_VE1000_randls_31.json,http://54.235.29.9/FacialAge/BNav_EC2/DepthDuration/v2_depth_duration_MTurk/v2_DepthDuration_HTML.html#34,34,1515,632,1364,768,8-22-2022,9-11-17,154,depth_duration_stimuli/000709_2014-06-08_13-51-55_260595134347_rgbf000068-resize_3/000709_2014-06-08_13-51-55_260595134347_rgbf000068-resize_3-target.png,1000,1.8030000000000002,33,3197,1004,meters,jsons/v1_VE1000_randls_31.json,847771,982308,48,Woman
154,358364,DepthScenes,duration_manipulation_targetAtFixation,jsons/v1_VE1000_randls_31.json,http://54.235.29.9/FacialAge/BNav_EC2/DepthDuration/v2_depth_duration_MTurk/v2_DepthDuration_HTML.html#34,34,1515,632,1364,768,8-22-2022,9-11-17,155,depth_duration_stimuli/001199_2014-06-17_16-03-48_260595134347_rgbf000077-resize_0/001199_2014-06-17_16-03-48_260595134347_rgbf000077-resize_0-target.png,1000,3.4375,12,3443,990,meters,jsons/v1_VE1000_randls_31.json,847771,982308,48,Woman
155,358364,DepthScenes,duration_manipulation_targetAtFixation,jsons/v1_VE1000_randls_31.json,http://54.235.29.9/FacialAge/BNav_EC2/DepthDuration/v2_depth_duration_MTurk/v2_DepthDuration_HTML.html#34,34,1515,632,1364,768,8-22-2022,9-11-17,156,depth_duration_stimuli/000502_2014-06-08_23-02-32_260595134347_rgbf000063-resize_4/000502_2014-06-08_23-02-32_260595134347_rgbf000063-resize_4-target.png,1000,2.431,22,4361,1007,meters,jsons/v1_VE1000_randls_31.json,847771,982308,48,Woman
156,358364,DepthScenes,duration_manipulation_targetAtFixation,jsons/v1_VE1000_randls_31.json,http://54.235.29.9/FacialAge/BNav_EC2/DepthDuration/v2_depth_duration_MTurk/v2_DepthDuration_HTML.html#34,34,1515,632,1364,768,8-22-2022,9-11-17,157,depth_duration_stimuli/001806_2014-06-26_20-50-20_260595134347_rgbf000091-resize_1/001806_2014-06-26_20-50-20_260595134347_rgbf000091-resize_1-target.png,1000,2.7305,32,3691,987,meters,jsons/v1_VE1000_randls_31.json,847771,982308,48,Woman
157,358364,DepthScenes,duration_manipulation_targetAtFixation,jsons/v1_VE1000_randls_31.json,http://54.235.29.9/FacialAge/BNav_EC2/DepthDuration/v2_depth_duration_MTurk/v2_DepthDuration_HTML.html#34,34,1515,632,1364,768,8-22-2022,9-11-17,158,depth_duration_stimuli/001617_2014-06-20_11-35-32_260595134347_rgbf000066-resize_1/001617_2014-06-20_11-35-32_260595134347_rgbf000066-resize_1-target.png,1000,3.7910000000000004,12,3341,999,meters,jsons/v1_VE1000_randls_31.json,847771,982308,48,Woman
158,358364,DepthScenes,duration_manipulation_targetAtFixation,jsons/v1_VE1000_randls_31.json,http://54.235.29.9/FacialAge/BNav_EC2/DepthDuration/v2_depth_duration_MTurk/v2_DepthDuration_HTML.html#34,34,1515,632,1364,768,8-22-2022,9-11-17,159,depth_duration_stimuli/001016_2014-06-09_16-16-10_260595134347_rgbf000112-resize_5/001016_2014-06-09_16-16-10_260595134347_rgbf000112-resize_5-target.png,1000,1.6565,15,4107,1006,meters,jsons/v1_VE1000_randls_31.json,847771,982308,48,Woman
159,358364,DepthScenes,duration_manipulation_targetAtFixation,jsons/v1_VE1000_randls_31.json,http://54.235.29.9/FacialAge/BNav_EC2/DepthDuration/v2_depth_duration_MTurk/v2_DepthDuration_HTML.html#34,34,1515,632,1364,768,8-22-2022,9-11-17,160,depth_duration_stimuli/002340_2014-06-28_20-05-46_260595134347_rgbf000113-resize_0/002340_2014-06-28_20-05-46_260595134347_rgbf000113-resize_0-target.png,1000,2.4735,21,3107,1000,meters,jsons/v1_VE1000_randls_31.json,847771,982308,48,Woman
160,358364,DepthScenes,duration_manipulation_targetAtFixation,jsons/v1_VE1000_randls_31.json,http://54.235.29.9/FacialAge/BNav_EC2/DepthDuration/v2_depth_duration_MTurk/v2_DepthDuration_HTML.html#34,34,1515,632,1364,768,8-22-2022,9-11-17,161,depth_duration_stimuli/000009_2014-05-26_14-32-05_260595134347_rgbf000034-resize_3/000009_2014-05-26_14-32-05_260595134347_rgbf000034-resize_3-target.png,1000,3.8715,12,9756,998,meters,jsons/v1_VE1000_randls_31.json,847771,982308,48,Woman
161,358364,DepthScenes,duration_manipulation_targetAtFixation,jsons/v1_VE1000_randls_31.json,http://54.235.29.9/FacialAge/BNav_EC2/DepthDuration/v2_depth_duration_MTurk/v2_DepthDuration_HTML.html#34,34,1515,632,1364,768,8-22-2022,9-11-17,162,depth_duration_stimuli/001828_2014-06-26_21-40-03_260595134347_rgbf000024-resize_0/001828_2014-06-26_21-40-03_260595134347_rgbf000024-resize_0-target.png,1000,4.8260000000000005,23,4452,999,meters,jsons/v1_VE1000_randls_31.json,847771,982308,48,Woman
162,358364,DepthScenes,duration_manipulation_targetAtFixation,jsons/v1_VE1000_randls_31.json,http://54.235.29.9/FacialAge/BNav_EC2/DepthDuration/v2_depth_duration_MTurk/v2_DepthDuration_HTML.html#34,34,1515,632,1364,768,8-22-2022,9-11-17,163,depth_duration_stimuli/001164_2014-06-17_15-35-46_260595134347_rgbf000085-resize_3/001164_2014-06-17_15-35-46_260595134347_rgbf000085-resize_3-target.png,1000,2.354,35,3649,986,meters,jsons/v1_VE1000_randls_31.json,847771,982308,48,Woman
163,358364,DepthScenes,duration_manipulation_targetAtFixation,jsons/v1_VE1000_randls_31.json,http://54.235.29.9/FacialAge/BNav_EC2/DepthDuration/v2_depth_duration_MTurk/v2_DepthDuration_HTML.html#34,34,1515,632,1364,768,8-22-2022,9-11-17,164,depth_duration_stimuli/001136_2014-06-17_15-19-41_260595134347_rgbf000076-resize_3/001136_2014-06-17_15-19-41_260595134347_rgbf000076-resize_3-target.png,1000,1.8655,22,3181,990,meters,jsons/v1_VE1000_randls_31.json,847771,982308,48,Woman
