,subjID,experimentName,versionName,sequenceName,url,selected_row,windowWidth,windowHeight,screenWidth,screenHeight,startDate,startTime,trial,stimulus,duration,actual_depth,depth_estimate,trial_RT,log_sceneDuration,unitSelection,seq_filepath,experimentTime,totalTime,age,gender
0,358457,DepthScenes,duration_manipulation_targetAtFixation,jsons/VE125_randls_74_rotated.json,http://54.235.29.9/FacialAge/BNav_EC2/DepthDuration/v2_depth_duration_MTurk/v2_DepthDuration_HTML.html#94,94,1536,864,1536,864,8-21-2022,9-36-10,1,depth_duration_stimuli/000691_2014-06-08_13-08-50_260595134347_rgbf000132-resize_3/000691_2014-06-08_13-08-50_260595134347_rgbf000132-resize_3-target.png,125,4.1530000000000005,6,7826,125,feet,jsons/VE125_randls_74_rotated.json,1060251,1346958,49,Prefer not to answer
1,358457,DepthScenes,duration_manipulation_targetAtFixation,jsons/VE125_randls_74_rotated.json,http://54.235.29.9/FacialAge/BNav_EC2/DepthDuration/v2_depth_duration_MTurk/v2_DepthDuration_HTML.html#94,94,1536,864,1536,864,8-21-2022,9-36-10,2,depth_duration_stimuli/002213_2014-06-28_18-37-58_260595134347_rgbf000055-resize_1/002213_2014-06-28_18-37-58_260595134347_rgbf000055-resize_1-target.png,125,3.62,8,5011,123,feet,jsons/VE125_randls_74_rotated.json,1060251,1346958,49,Prefer not to answer
2,358457,DepthScenes,duration_manipulation_targetAtFixation,jsons/VE125_randls_74_rotated.json,http://54.235.29.9/FacialAge/BNav_EC2/DepthDuration/v2_depth_duration_MTurk/v2_DepthDuration_HTML.html#94,94,1536,864,1536,864,8-21-2022,9-36-10,3,depth_duration_stimuli/002568_2014-06-24_13-59-21_094959634447_rgbf000062-resize_4/002568_2014-06-24_13-59-21_094959634447_rgbf000062-resize_4-target.png,125,3.015,5,4772,126,feet,jsons/VE125_randls_74_rotated.json,1060251,1346958,49,Prefer not to answer
3,358457,DepthScenes,duration_manipulation_targetAtFixation,jsons/VE125_randls_74_rotated.json,http://54.235.29.9/FacialAge/BNav_EC2/DepthDuration/v2_depth_duration_MTurk/v2_DepthDuration_HTML.html#94,94,1536,864,1536,864,8-21-2022,9-36-10,4,depth_duration_stimuli/003492_2014-05-21_15-50-55_094959634447_rgbf000828-resize_1/003492_2014-05-21_15-50-55_094959634447_rgbf000828-resize_1-target.png,125,4.06875,6,4999,123,feet,jsons/VE125_randls_74_rotated.json,1060251,1346958,49,Prefer not to answer
4,358457,DepthScenes,duration_manipulation_targetAtFixation,jsons/VE125_randls_74_rotated.json,http://54.235.29.9/FacialAge/BNav_EC2/DepthDuration/v2_depth_duration_MTurk/v2_DepthDuration_HTML.html#94,94,1536,864,1536,864,8-21-2022,9-36-10,5,depth_duration_stimuli/000549_2014-06-08_22-10-24_260595134347_rgbf000247-resize_3/000549_2014-06-08_22-10-24_260595134347_rgbf000247-resize_3-target.png,125,1.841,1,4656,123,feet,jsons/VE125_randls_74_rotated.json,1060251,1346958,49,Prefer not to answer
5,358457,DepthScenes,duration_manipulation_targetAtFixation,jsons/VE125_randls_74_rotated.json,http://54.235.29.9/FacialAge/BNav_EC2/DepthDuration/v2_depth_duration_MTurk/v2_DepthDuration_HTML.html#94,94,1536,864,1536,864,8-21-2022,9-36-10,6,depth_duration_stimuli/001055_2014-06-08_18-45-35_260595134347_rgbf000111-resize_4/001055_2014-06-08_18-45-35_260595134347_rgbf000111-resize_4-target.png,125,2.4290000000000003,7,5880,138,feet,jsons/VE125_randls_74_rotated.json,1060251,1346958,49,Prefer not to answer
6,358457,DepthScenes,duration_manipulation_targetAtFixation,jsons/VE125_randls_74_rotated.json,http://54.235.29.9/FacialAge/BNav_EC2/DepthDuration/v2_depth_duration_MTurk/v2_DepthDuration_HTML.html#94,94,1536,864,1536,864,8-21-2022,9-36-10,7,depth_duration_stimuli/003129_2014-05-12_10-48-10_094959634447_rgbf000100-resize_0/003129_2014-05-12_10-48-10_094959634447_rgbf000100-resize_0-target.png,125,4.9305,5,4063,123,feet,jsons/VE125_randls_74_rotated.json,1060251,1346958,49,Prefer not to answer
7,358457,DepthScenes,duration_manipulation_targetAtFixation,jsons/VE125_randls_74_rotated.json,http://54.235.29.9/FacialAge/BNav_EC2/DepthDuration/v2_depth_duration_MTurk/v2_DepthDuration_HTML.html#94,94,1536,864,1536,864,8-21-2022,9-36-10,8,depth_duration_stimuli/000414_2014-06-04_19-49-13_260595134347_rgbf000044-resize_0/000414_2014-06-04_19-49-13_260595134347_rgbf000044-resize_0-target.png,125,4.329,12,4904,123,feet,jsons/VE125_randls_74_rotated.json,1060251,1346958,49,Prefer not to answer
8,358457,DepthScenes,duration_manipulation_targetAtFixation,jsons/VE125_randls_74_rotated.json,http://54.235.29.9/FacialAge/BNav_EC2/DepthDuration/v2_depth_duration_MTurk/v2_DepthDuration_HTML.html#94,94,1536,864,1536,864,8-21-2022,9-36-10,9,depth_duration_stimuli/001132_2014-06-17_14-48-54_260595134347_rgbf000100-resize_2/001132_2014-06-17_14-48-54_260595134347_rgbf000100-resize_2-target.png,125,3.753,6,5026,123,feet,jsons/VE125_randls_74_rotated.json,1060251,1346958,49,Prefer not to answer
9,358457,DepthScenes,duration_manipulation_targetAtFixation,jsons/VE125_randls_74_rotated.json,http://54.235.29.9/FacialAge/BNav_EC2/DepthDuration/v2_depth_duration_MTurk/v2_DepthDuration_HTML.html#94,94,1536,864,1536,864,8-21-2022,9-36-10,10,depth_duration_stimuli/001133_2014-06-17_14-49-16_260595134347_rgbf000100-resize_0/001133_2014-06-17_14-49-16_260595134347_rgbf000100-resize_0-target.png,125,4.2115,14,5772,123,feet,jsons/VE125_randls_74_rotated.json,1060251,1346958,49,Prefer not to answer
10,358457,DepthScenes,duration_manipulation_targetAtFixation,jsons/VE125_randls_74_rotated.json,http://54.235.29.9/FacialAge/BNav_EC2/DepthDuration/v2_depth_duration_MTurk/v2_DepthDuration_HTML.html#94,94,1536,864,1536,864,8-21-2022,9-36-10,11,depth_duration_stimuli/002545_2014-06-24_13-38-53_094959634447_rgbf000080-resize_4/002545_2014-06-24_13-38-53_094959634447_rgbf000080-resize_4-target.png,125,1.9205,8,8055,125,feet,jsons/VE125_randls_74_rotated.json,1060251,1346958,49,Prefer not to answer
11,358457,DepthScenes,duration_manipulation_targetAtFixation,jsons/VE125_randls_74_rotated.json,http://54.235.29.9/FacialAge/BNav_EC2/DepthDuration/v2_depth_duration_MTurk/v2_DepthDuration_HTML.html#94,94,1536,864,1536,864,8-21-2022,9-36-10,12,depth_duration_stimuli/001092_2014-06-15_17-34-58_260595134347_rgbf000171-resize_3/001092_2014-06-15_17-34-58_260595134347_rgbf000171-resize_3-target.png,125,2.6935,9,6201,123,feet,jsons/VE125_randls_74_rotated.json,1060251,1346958,49,Prefer not to answer
12,358457,DepthScenes,duration_manipulation_targetAtFixation,jsons/VE125_randls_74_rotated.json,http://54.235.29.9/FacialAge/BNav_EC2/DepthDuration/v2_depth_duration_MTurk/v2_DepthDuration_HTML.html#94,94,1536,864,1536,864,8-21-2022,9-36-10,13,depth_duration_stimuli/000635_2014-06-08_16-38-42_260595134347_rgbf000106-resize_1/000635_2014-06-08_16-38-42_260595134347_rgbf000106-resize_1-target.png,125,2.074,6,5205,124,feet,jsons/VE125_randls_74_rotated.json,1060251,1346958,49,Prefer not to answer
13,358457,DepthScenes,duration_manipulation_targetAtFixation,jsons/VE125_randls_74_rotated.json,http://54.235.29.9/FacialAge/BNav_EC2/DepthDuration/v2_depth_duration_MTurk/v2_DepthDuration_HTML.html#94,94,1536,864,1536,864,8-21-2022,9-36-10,14,depth_duration_stimuli/002279_2014-06-28_18-55-32_260595134347_rgbf000040-resize_5/002279_2014-06-28_18-55-32_260595134347_rgbf000040-resize_5-target.png,125,1.5043333333333,3,4426,124,feet,jsons/VE125_randls_74_rotated.json,1060251,1346958,49,Prefer not to answer
14,358457,DepthScenes,duration_manipulation_targetAtFixation,jsons/VE125_randls_74_rotated.json,http://54.235.29.9/FacialAge/BNav_EC2/DepthDuration/v2_depth_duration_MTurk/v2_DepthDuration_HTML.html#94,94,1536,864,1536,864,8-21-2022,9-36-10,15,depth_duration_stimuli/003495_2014-05-21_16-01-51_094959634447_rgbf000100-resize_3/003495_2014-05-21_16-01-51_094959634447_rgbf000100-resize_3-target.png,125,1.6255,2,4748,115,feet,jsons/VE125_randls_74_rotated.json,1060251,1346958,49,Prefer not to answer
15,358457,DepthScenes,duration_manipulation_targetAtFixation,jsons/VE125_randls_74_rotated.json,http://54.235.29.9/FacialAge/BNav_EC2/DepthDuration/v2_depth_duration_MTurk/v2_DepthDuration_HTML.html#94,94,1536,864,1536,864,8-21-2022,9-36-10,16,depth_duration_stimuli/001244_2014-06-17_16-47-45_260595134347_rgbf000030-resize_4/001244_2014-06-17_16-47-45_260595134347_rgbf000030-resize_4-target.png,125,2.0425,4,4412,126,feet,jsons/VE125_randls_74_rotated.json,1060251,1346958,49,Prefer not to answer
16,358457,DepthScenes,duration_manipulation_targetAtFixation,jsons/VE125_randls_74_rotated.json,http://54.235.29.9/FacialAge/BNav_EC2/DepthDuration/v2_depth_duration_MTurk/v2_DepthDuration_HTML.html#94,94,1536,864,1536,864,8-21-2022,9-36-10,17,depth_duration_stimuli/001136_2014-06-17_15-19-41_260595134347_rgbf000076-resize_3/001136_2014-06-17_15-19-41_260595134347_rgbf000076-resize_3-target.png,125,1.8655,4,11395,125,feet,jsons/VE125_randls_74_rotated.json,1060251,1346958,49,Prefer not to answer
17,358457,DepthScenes,duration_manipulation_targetAtFixation,jsons/VE125_randls_74_rotated.json,http://54.235.29.9/FacialAge/BNav_EC2/DepthDuration/v2_depth_duration_MTurk/v2_DepthDuration_HTML.html#94,94,1536,864,1536,864,8-21-2022,9-36-10,18,depth_duration_stimuli/001164_2014-06-17_15-35-46_260595134347_rgbf000085-resize_3/001164_2014-06-17_15-35-46_260595134347_rgbf000085-resize_3-target.png,125,2.354,6,6820,123,feet,jsons/VE125_randls_74_rotated.json,1060251,1346958,49,Prefer not to answer
18,358457,DepthScenes,duration_manipulation_targetAtFixation,jsons/VE125_randls_74_rotated.json,http://54.235.29.9/FacialAge/BNav_EC2/DepthDuration/v2_depth_duration_MTurk/v2_DepthDuration_HTML.html#94,94,1536,864,1536,864,8-21-2022,9-36-10,19,depth_duration_stimuli/001498_2014-06-19_17-45-14_260595134347_rgbf000129-resize_4/001498_2014-06-19_17-45-14_260595134347_rgbf000129-resize-original.jpg,125,1.4075,0,4558,124,feet,jsons/VE125_randls_74_rotated.json,1060251,1346958,49,Prefer not to answer
19,358457,DepthScenes,duration_manipulation_targetAtFixation,jsons/VE125_randls_74_rotated.json,http://54.235.29.9/FacialAge/BNav_EC2/DepthDuration/v2_depth_duration_MTurk/v2_DepthDuration_HTML.html#94,94,1536,864,1536,864,8-21-2022,9-36-10,20,depth_duration_stimuli/002344_2014-06-28_20-06-29_260595134347_rgbf000030-resize_1/002344_2014-06-28_20-06-29_260595134347_rgbf000030-resize_1-target.png,125,1.5795,1,5857,125,feet,jsons/VE125_randls_74_rotated.json,1060251,1346958,49,Prefer not to answer
20,358457,DepthScenes,duration_manipulation_targetAtFixation,jsons/VE125_randls_74_rotated.json,http://54.235.29.9/FacialAge/BNav_EC2/DepthDuration/v2_depth_duration_MTurk/v2_DepthDuration_HTML.html#94,94,1536,864,1536,864,8-21-2022,9-36-10,21,depth_duration_stimuli/002725_2014-06-22_11-47-51_094959634447_rgbf000070-resize_1/002725_2014-06-22_11-47-51_094959634447_rgbf000070-resize_1-target.png,125,2.195,6,11375,124,feet,jsons/VE125_randls_74_rotated.json,1060251,1346958,49,Prefer not to answer
21,358457,DepthScenes,duration_manipulation_targetAtFixation,jsons/VE125_randls_74_rotated.json,http://54.235.29.9/FacialAge/BNav_EC2/DepthDuration/v2_depth_duration_MTurk/v2_DepthDuration_HTML.html#94,94,1536,864,1536,864,8-21-2022,9-36-10,22,depth_duration_stimuli/002323_2014-06-28_20-01-54_260595134347_rgbf000051-resize_4/002323_2014-06-28_20-01-54_260595134347_rgbf000051-resize_4-target.png,125,3.7310000000000003,15,6182,123,feet,jsons/VE125_randls_74_rotated.json,1060251,1346958,49,Prefer not to answer
22,358457,DepthScenes,duration_manipulation_targetAtFixation,jsons/VE125_randls_74_rotated.json,http://54.235.29.9/FacialAge/BNav_EC2/DepthDuration/v2_depth_duration_MTurk/v2_DepthDuration_HTML.html#94,94,1536,864,1536,864,8-21-2022,9-36-10,23,depth_duration_stimuli/000917_2014-06-09_22-45-29_260595134347_rgbf000149-resize_3/000917_2014-06-09_22-45-29_260595134347_rgbf000149-resize_3-target.png,125,4.1865,5,4710,125,feet,jsons/VE125_randls_74_rotated.json,1060251,1346958,49,Prefer not to answer
23,358457,DepthScenes,duration_manipulation_targetAtFixation,jsons/VE125_randls_74_rotated.json,http://54.235.29.9/FacialAge/BNav_EC2/DepthDuration/v2_depth_duration_MTurk/v2_DepthDuration_HTML.html#94,94,1536,864,1536,864,8-21-2022,9-36-10,24,depth_duration_stimuli/002949_2014-06-26_15-57-42_094959634447_rgbf000079-resize_1/002949_2014-06-26_15-57-42_094959634447_rgbf000079-resize_1-target.png,125,1.8915,4,5534,125,feet,jsons/VE125_randls_74_rotated.json,1060251,1346958,49,Prefer not to answer
24,358457,DepthScenes,duration_manipulation_targetAtFixation,jsons/VE125_randls_74_rotated.json,http://54.235.29.9/FacialAge/BNav_EC2/DepthDuration/v2_depth_duration_MTurk/v2_DepthDuration_HTML.html#94,94,1536,864,1536,864,8-21-2022,9-36-10,25,depth_duration_stimuli/000522_2014-06-08_13-35-06_260595134347_rgbf000244-resize_1/000522_2014-06-08_13-35-06_260595134347_rgbf000244-resize_1-target.png,125,2.3715,3,4594,123,feet,jsons/VE125_randls_74_rotated.json,1060251,1346958,49,Prefer not to answer
25,358457,DepthScenes,duration_manipulation_targetAtFixation,jsons/VE125_randls_74_rotated.json,http://54.235.29.9/FacialAge/BNav_EC2/DepthDuration/v2_depth_duration_MTurk/v2_DepthDuration_HTML.html#94,94,1536,864,1536,864,8-21-2022,9-36-10,26,depth_duration_stimuli/000556_2014-06-09_22-42-56_260595134347_rgbf000214-resize_1/000556_2014-06-09_22-42-56_260595134347_rgbf000214-resize_1-target.png,125,4.8415,10,6330,124,feet,jsons/VE125_randls_74_rotated.json,1060251,1346958,49,Prefer not to answer
26,358457,DepthScenes,duration_manipulation_targetAtFixation,jsons/VE125_randls_74_rotated.json,http://54.235.29.9/FacialAge/BNav_EC2/DepthDuration/v2_depth_duration_MTurk/v2_DepthDuration_HTML.html#94,94,1536,864,1536,864,8-21-2022,9-36-10,27,depth_duration_stimuli/001158_2014-06-17_15-32-16_260595134347_rgbf000138-resize_2/001158_2014-06-17_15-32-16_260595134347_rgbf000138-resize_2-target.png,125,4.5315,9,8292,123,feet,jsons/VE125_randls_74_rotated.json,1060251,1346958,49,Prefer not to answer
27,358457,DepthScenes,duration_manipulation_targetAtFixation,jsons/VE125_randls_74_rotated.json,http://54.235.29.9/FacialAge/BNav_EC2/DepthDuration/v2_depth_duration_MTurk/v2_DepthDuration_HTML.html#94,94,1536,864,1536,864,8-21-2022,9-36-10,28,depth_duration_stimuli/001815_2014-06-26_20-52-55_260595134347_rgbf000020-resize_0/001815_2014-06-26_20-52-55_260595134347_rgbf000020-resize_0-target.png,125,3.3865,8,6004,124,feet,jsons/VE125_randls_74_rotated.json,1060251,1346958,49,Prefer not to answer
28,358457,DepthScenes,duration_manipulation_targetAtFixation,jsons/VE125_randls_74_rotated.json,http://54.235.29.9/FacialAge/BNav_EC2/DepthDuration/v2_depth_duration_MTurk/v2_DepthDuration_HTML.html#94,94,1536,864,1536,864,8-21-2022,9-36-10,29,depth_duration_stimuli/001808_2014-06-26_20-50-58_260595134347_rgbf000029-resize_1/001808_2014-06-26_20-50-58_260595134347_rgbf000029-resize_1-target.png,125,4.249,12,6437,139,feet,jsons/VE125_randls_74_rotated.json,1060251,1346958,49,Prefer not to answer
29,358457,DepthScenes,duration_manipulation_targetAtFixation,jsons/VE125_randls_74_rotated.json,http://54.235.29.9/FacialAge/BNav_EC2/DepthDuration/v2_depth_duration_MTurk/v2_DepthDuration_HTML.html#94,94,1536,864,1536,864,8-21-2022,9-36-10,30,depth_duration_stimuli/002072_2014-06-24_21-48-06_260595134347_rgbf000115-resize_0/002072_2014-06-24_21-48-06_260595134347_rgbf000115-resize-original.jpg,125,4.702,0,17170,124,feet,jsons/VE125_randls_74_rotated.json,1060251,1346958,49,Prefer not to answer
30,358457,DepthScenes,duration_manipulation_targetAtFixation,jsons/VE125_randls_74_rotated.json,http://54.235.29.9/FacialAge/BNav_EC2/DepthDuration/v2_depth_duration_MTurk/v2_DepthDuration_HTML.html#94,94,1536,864,1536,864,8-21-2022,9-36-10,31,depth_duration_stimuli/002678_2014-06-13_16-15-32_094959634447_rgbf000151-resize_6/002678_2014-06-13_16-15-32_094959634447_rgbf000151-resize_6-target.png,125,2.1830000000000003,12,6012,125,feet,jsons/VE125_randls_74_rotated.json,1060251,1346958,49,Prefer not to answer
31,358457,DepthScenes,duration_manipulation_targetAtFixation,jsons/VE125_randls_74_rotated.json,http://54.235.29.9/FacialAge/BNav_EC2/DepthDuration/v2_depth_duration_MTurk/v2_DepthDuration_HTML.html#94,94,1536,864,1536,864,8-21-2022,9-36-10,32,depth_duration_stimuli/000368_2014-06-09_15-53-01_260595134347_rgbf000155-resize_2/000368_2014-06-09_15-53-01_260595134347_rgbf000155-resize_2-target.png,125,2.4859999999999998,6,9279,126,feet,jsons/VE125_randls_74_rotated.json,1060251,1346958,49,Prefer not to answer
32,358457,DepthScenes,duration_manipulation_targetAtFixation,jsons/VE125_randls_74_rotated.json,http://54.235.29.9/FacialAge/BNav_EC2/DepthDuration/v2_depth_duration_MTurk/v2_DepthDuration_HTML.html#94,94,1536,864,1536,864,8-21-2022,9-36-10,33,depth_duration_stimuli/002414_2014-06-28_20-24-58_260595134347_rgbf000067-resize_4/002414_2014-06-28_20-24-58_260595134347_rgbf000067-resize_4-target.png,125,4.363,9,6251,140,feet,jsons/VE125_randls_74_rotated.json,1060251,1346958,49,Prefer not to answer
33,358457,DepthScenes,duration_manipulation_targetAtFixation,jsons/VE125_randls_74_rotated.json,http://54.235.29.9/FacialAge/BNav_EC2/DepthDuration/v2_depth_duration_MTurk/v2_DepthDuration_HTML.html#94,94,1536,864,1536,864,8-21-2022,9-36-10,34,depth_duration_stimuli/000773_2014-06-08_22-24-54_260595134347_rgbf000093-resize_1/000773_2014-06-08_22-24-54_260595134347_rgbf000093-resize_1-target.png,125,4.973,12,7740,132,feet,jsons/VE125_randls_74_rotated.json,1060251,1346958,49,Prefer not to answer
34,358457,DepthScenes,duration_manipulation_targetAtFixation,jsons/VE125_randls_74_rotated.json,http://54.235.29.9/FacialAge/BNav_EC2/DepthDuration/v2_depth_duration_MTurk/v2_DepthDuration_HTML.html#94,94,1536,864,1536,864,8-21-2022,9-36-10,35,depth_duration_stimuli/001214_2014-06-17_16-13-55_260595134347_rgbf000111-resize_0/001214_2014-06-17_16-13-55_260595134347_rgbf000111-resize_0-target.png,125,2.6505,4,4616,126,feet,jsons/VE125_randls_74_rotated.json,1060251,1346958,49,Prefer not to answer
35,358457,DepthScenes,duration_manipulation_targetAtFixation,jsons/VE125_randls_74_rotated.json,http://54.235.29.9/FacialAge/BNav_EC2/DepthDuration/v2_depth_duration_MTurk/v2_DepthDuration_HTML.html#94,94,1536,864,1536,864,8-21-2022,9-36-10,36,depth_duration_stimuli/000810_2014-06-08_17-20-01_260595134347_rgbf000105-resize_0/000810_2014-06-08_17-20-01_260595134347_rgbf000105-resize_0-target.png,125,1.4865,2,4539,134,feet,jsons/VE125_randls_74_rotated.json,1060251,1346958,49,Prefer not to answer
36,358457,DepthScenes,duration_manipulation_targetAtFixation,jsons/VE125_randls_74_rotated.json,http://54.235.29.9/FacialAge/BNav_EC2/DepthDuration/v2_depth_duration_MTurk/v2_DepthDuration_HTML.html#94,94,1536,864,1536,864,8-21-2022,9-36-10,37,depth_duration_stimuli/002444_2014-06-28_20-32-08_260595134347_rgbf000027-resize_0/002444_2014-06-28_20-32-08_260595134347_rgbf000027-resize_0-target.png,125,4.388999999999999,16,6293,125,feet,jsons/VE125_randls_74_rotated.json,1060251,1346958,49,Prefer not to answer
37,358457,DepthScenes,duration_manipulation_targetAtFixation,jsons/VE125_randls_74_rotated.json,http://54.235.29.9/FacialAge/BNav_EC2/DepthDuration/v2_depth_duration_MTurk/v2_DepthDuration_HTML.html#94,94,1536,864,1536,864,8-21-2022,9-36-10,38,depth_duration_stimuli/000436_2014-06-09_22-25-11_260595134347_rgbf000137-resize_1/000436_2014-06-09_22-25-11_260595134347_rgbf000137-resize_1-target.png,125,4.0705,4,4766,126,feet,jsons/VE125_randls_74_rotated.json,1060251,1346958,49,Prefer not to answer
38,358457,DepthScenes,duration_manipulation_targetAtFixation,jsons/VE125_randls_74_rotated.json,http://54.235.29.9/FacialAge/BNav_EC2/DepthDuration/v2_depth_duration_MTurk/v2_DepthDuration_HTML.html#94,94,1536,864,1536,864,8-21-2022,9-36-10,39,depth_duration_stimuli/001516_2014-06-20_16-25-09_260595134347_rgbf000076-resize_2/001516_2014-06-20_16-25-09_260595134347_rgbf000076-resize_2-target.png,125,1.7445,3,7641,125,feet,jsons/VE125_randls_74_rotated.json,1060251,1346958,49,Prefer not to answer
39,358457,DepthScenes,duration_manipulation_targetAtFixation,jsons/VE125_randls_74_rotated.json,http://54.235.29.9/FacialAge/BNav_EC2/DepthDuration/v2_depth_duration_MTurk/v2_DepthDuration_HTML.html#94,94,1536,864,1536,864,8-21-2022,9-36-10,40,depth_duration_stimuli/002118_2014-06-25_20-32-08_260595134347_rgbf000078-resize_1/002118_2014-06-25_20-32-08_260595134347_rgbf000078-resize_1-target.png,125,2.6460000000000004,10,6647,121,feet,jsons/VE125_randls_74_rotated.json,1060251,1346958,49,Prefer not to answer
40,358457,DepthScenes,duration_manipulation_targetAtFixation,jsons/VE125_randls_74_rotated.json,http://54.235.29.9/FacialAge/BNav_EC2/DepthDuration/v2_depth_duration_MTurk/v2_DepthDuration_HTML.html#94,94,1536,864,1536,864,8-21-2022,9-36-10,41,depth_duration_stimuli/003423_2014-05-21_10-23-26_094959634447_rgbf002665-resize_2/003423_2014-05-21_10-23-26_094959634447_rgbf002665-resize_2-target.png,125,3.2575,7,7437,122,feet,jsons/VE125_randls_74_rotated.json,1060251,1346958,49,Prefer not to answer
41,358457,DepthScenes,duration_manipulation_targetAtFixation,jsons/VE125_randls_74_rotated.json,http://54.235.29.9/FacialAge/BNav_EC2/DepthDuration/v2_depth_duration_MTurk/v2_DepthDuration_HTML.html#94,94,1536,864,1536,864,8-21-2022,9-36-10,42,depth_duration_stimuli/002905_2014-06-03_18-04-43_094959634447_rgbf000151-resize_2/002905_2014-06-03_18-04-43_094959634447_rgbf000151-resize_2-target.png,125,2.0295,6,14341,125,feet,jsons/VE125_randls_74_rotated.json,1060251,1346958,49,Prefer not to answer
42,358457,DepthScenes,duration_manipulation_targetAtFixation,jsons/VE125_randls_74_rotated.json,http://54.235.29.9/FacialAge/BNav_EC2/DepthDuration/v2_depth_duration_MTurk/v2_DepthDuration_HTML.html#94,94,1536,864,1536,864,8-21-2022,9-36-10,43,depth_duration_stimuli/002209_2014-06-28_18-36-10_260595134347_rgbf000051-resize_1/002209_2014-06-28_18-36-10_260595134347_rgbf000051-resize_1-target.png,125,2.057,6,7984,124,feet,jsons/VE125_randls_74_rotated.json,1060251,1346958,49,Prefer not to answer
43,358457,DepthScenes,duration_manipulation_targetAtFixation,jsons/VE125_randls_74_rotated.json,http://54.235.29.9/FacialAge/BNav_EC2/DepthDuration/v2_depth_duration_MTurk/v2_DepthDuration_HTML.html#94,94,1536,864,1536,864,8-21-2022,9-36-10,44,depth_duration_stimuli/002763_2014-06-22_19-13-10_094959634447_rgbf000075-resize_4/002763_2014-06-22_19-13-10_094959634447_rgbf000075-resize_4-target.png,125,1.68375,3,8395,125,feet,jsons/VE125_randls_74_rotated.json,1060251,1346958,49,Prefer not to answer
44,358457,DepthScenes,duration_manipulation_targetAtFixation,jsons/VE125_randls_74_rotated.json,http://54.235.29.9/FacialAge/BNav_EC2/DepthDuration/v2_depth_duration_MTurk/v2_DepthDuration_HTML.html#94,94,1536,864,1536,864,8-21-2022,9-36-10,45,depth_duration_stimuli/002425_2014-06-28_20-27-29_260595134347_rgbf000031-resize_8/002425_2014-06-28_20-27-29_260595134347_rgbf000031-resize_8-target.png,125,3.8960000000000004,7,5543,124,feet,jsons/VE125_randls_74_rotated.json,1060251,1346958,49,Prefer not to answer
45,358457,DepthScenes,duration_manipulation_targetAtFixation,jsons/VE125_randls_74_rotated.json,http://54.235.29.9/FacialAge/BNav_EC2/DepthDuration/v2_depth_duration_MTurk/v2_DepthDuration_HTML.html#94,94,1536,864,1536,864,8-21-2022,9-36-10,46,depth_duration_stimuli/000642_2014-06-08_16-59-25_260595134347_rgbf000098-resize_2/000642_2014-06-08_16-59-25_260595134347_rgbf000098-resize_2-target.png,125,2.8815,4,6026,124,feet,jsons/VE125_randls_74_rotated.json,1060251,1346958,49,Prefer not to answer
46,358457,DepthScenes,duration_manipulation_targetAtFixation,jsons/VE125_randls_74_rotated.json,http://54.235.29.9/FacialAge/BNav_EC2/DepthDuration/v2_depth_duration_MTurk/v2_DepthDuration_HTML.html#94,94,1536,864,1536,864,8-21-2022,9-36-10,47,depth_duration_stimuli/001828_2014-06-26_21-40-03_260595134347_rgbf000024-resize_0/001828_2014-06-26_21-40-03_260595134347_rgbf000024-resize_0-target.png,125,4.8260000000000005,6,5606,123,feet,jsons/VE125_randls_74_rotated.json,1060251,1346958,49,Prefer not to answer
47,358457,DepthScenes,duration_manipulation_targetAtFixation,jsons/VE125_randls_74_rotated.json,http://54.235.29.9/FacialAge/BNav_EC2/DepthDuration/v2_depth_duration_MTurk/v2_DepthDuration_HTML.html#94,94,1536,864,1536,864,8-21-2022,9-36-10,48,depth_duration_stimuli/000009_2014-05-26_14-32-05_260595134347_rgbf000034-resize_3/000009_2014-05-26_14-32-05_260595134347_rgbf000034-resize_3-target.png,125,3.8715,9,11902,125,feet,jsons/VE125_randls_74_rotated.json,1060251,1346958,49,Prefer not to answer
48,358457,DepthScenes,duration_manipulation_targetAtFixation,jsons/VE125_randls_74_rotated.json,http://54.235.29.9/FacialAge/BNav_EC2/DepthDuration/v2_depth_duration_MTurk/v2_DepthDuration_HTML.html#94,94,1536,864,1536,864,8-21-2022,9-36-10,49,depth_duration_stimuli/001170_2014-06-17_15-43-44_260595134347_rgbf000096-resize_6/001170_2014-06-17_15-43-44_260595134347_rgbf000096-resize-original.jpg,125,1.1909999999999998,0,4551,126,feet,jsons/VE125_randls_74_rotated.json,1060251,1346958,49,Prefer not to answer
49,358457,DepthScenes,duration_manipulation_targetAtFixation,jsons/VE125_randls_74_rotated.json,http://54.235.29.9/FacialAge/BNav_EC2/DepthDuration/v2_depth_duration_MTurk/v2_DepthDuration_HTML.html#94,94,1536,864,1536,864,8-21-2022,9-36-10,50,depth_duration_stimuli/000109_2014-05-14_23-41-52_260595134347_rgbf000035-resize_9/000109_2014-05-14_23-41-52_260595134347_rgbf000035-resize_9-target.png,125,1.3545,1,5621,130,feet,jsons/VE125_randls_74_rotated.json,1060251,1346958,49,Prefer not to answer
50,358457,DepthScenes,duration_manipulation_targetAtFixation,jsons/VE125_randls_74_rotated.json,http://54.235.29.9/FacialAge/BNav_EC2/DepthDuration/v2_depth_duration_MTurk/v2_DepthDuration_HTML.html#94,94,1536,864,1536,864,8-21-2022,9-36-10,51,depth_duration_stimuli/000470_2014-06-09_19-42-40_260595134347_rgbf000094-resize_1/000470_2014-06-09_19-42-40_260595134347_rgbf000094-resize_1-target.png,125,1.831,2,6879,125,feet,jsons/VE125_randls_74_rotated.json,1060251,1346958,49,Prefer not to answer
51,358457,DepthScenes,duration_manipulation_targetAtFixation,jsons/VE125_randls_74_rotated.json,http://54.235.29.9/FacialAge/BNav_EC2/DepthDuration/v2_depth_duration_MTurk/v2_DepthDuration_HTML.html#94,94,1536,864,1536,864,8-21-2022,9-36-10,52,depth_duration_stimuli/000483_2014-06-09_20-41-45_260595134347_rgbf000116-resize_4/000483_2014-06-09_20-41-45_260595134347_rgbf000116-resize_4-target.png,125,1.337,2,5419,121,feet,jsons/VE125_randls_74_rotated.json,1060251,1346958,49,Prefer not to answer
52,358457,DepthScenes,duration_manipulation_targetAtFixation,jsons/VE125_randls_74_rotated.json,http://54.235.29.9/FacialAge/BNav_EC2/DepthDuration/v2_depth_duration_MTurk/v2_DepthDuration_HTML.html#94,94,1536,864,1536,864,8-21-2022,9-36-10,53,depth_duration_stimuli/000469_2014-06-09_19-42-10_260595134347_rgbf000081-resize_1/000469_2014-06-09_19-42-10_260595134347_rgbf000081-resize_1-target.png,125,1.652,4,5631,124,feet,jsons/VE125_randls_74_rotated.json,1060251,1346958,49,Prefer not to answer
53,358457,DepthScenes,duration_manipulation_targetAtFixation,jsons/VE125_randls_74_rotated.json,http://54.235.29.9/FacialAge/BNav_EC2/DepthDuration/v2_depth_duration_MTurk/v2_DepthDuration_HTML.html#94,94,1536,864,1536,864,8-21-2022,9-36-10,54,depth_duration_stimuli/001094_2014-06-15_17-36-00_260595134347_rgbf000205-resize_0/001094_2014-06-15_17-36-00_260595134347_rgbf000205-resize_0-target.png,125,4.2175,9,7102,122,feet,jsons/VE125_randls_74_rotated.json,1060251,1346958,49,Prefer not to answer
54,358457,DepthScenes,duration_manipulation_targetAtFixation,jsons/VE125_randls_74_rotated.json,http://54.235.29.9/FacialAge/BNav_EC2/DepthDuration/v2_depth_duration_MTurk/v2_DepthDuration_HTML.html#94,94,1536,864,1536,864,8-21-2022,9-36-10,55,depth_duration_stimuli/000692_2014-06-08_13-09-42_260595134347_rgbf000199-resize_2/000692_2014-06-08_13-09-42_260595134347_rgbf000199-resize_2-target.png,125,3.661,21,5596,125,feet,jsons/VE125_randls_74_rotated.json,1060251,1346958,49,Prefer not to answer
55,358457,DepthScenes,duration_manipulation_targetAtFixation,jsons/VE125_randls_74_rotated.json,http://54.235.29.9/FacialAge/BNav_EC2/DepthDuration/v2_depth_duration_MTurk/v2_DepthDuration_HTML.html#94,94,1536,864,1536,864,8-21-2022,9-36-10,56,depth_duration_stimuli/002199_2014-06-28_18-33-56_260595134347_rgbf000074-resize_0/002199_2014-06-28_18-33-56_260595134347_rgbf000074-resize_0-target.png,125,1.996,1,5444,125,feet,jsons/VE125_randls_74_rotated.json,1060251,1346958,49,Prefer not to answer
56,358457,DepthScenes,duration_manipulation_targetAtFixation,jsons/VE125_randls_74_rotated.json,http://54.235.29.9/FacialAge/BNav_EC2/DepthDuration/v2_depth_duration_MTurk/v2_DepthDuration_HTML.html#94,94,1536,864,1536,864,8-21-2022,9-36-10,57,depth_duration_stimuli/001056_2014-06-08_18-46-44_260595134347_rgbf000068-resize_0/001056_2014-06-08_18-46-44_260595134347_rgbf000068-resize_0-target.png,125,2.6625,8,5526,121,feet,jsons/VE125_randls_74_rotated.json,1060251,1346958,49,Prefer not to answer
57,358457,DepthScenes,duration_manipulation_targetAtFixation,jsons/VE125_randls_74_rotated.json,http://54.235.29.9/FacialAge/BNav_EC2/DepthDuration/v2_depth_duration_MTurk/v2_DepthDuration_HTML.html#94,94,1536,864,1536,864,8-21-2022,9-36-10,58,depth_duration_stimuli/001235_2014-06-17_16-37-36_260595134347_rgbf000084-resize_4/001235_2014-06-17_16-37-36_260595134347_rgbf000084-resize_4-target.png,125,3.6605,7,5120,126,feet,jsons/VE125_randls_74_rotated.json,1060251,1346958,49,Prefer not to answer
58,358457,DepthScenes,duration_manipulation_targetAtFixation,jsons/VE125_randls_74_rotated.json,http://54.235.29.9/FacialAge/BNav_EC2/DepthDuration/v2_depth_duration_MTurk/v2_DepthDuration_HTML.html#94,94,1536,864,1536,864,8-21-2022,9-36-10,59,depth_duration_stimuli/000788_2014-06-08_22-34-36_260595134347_rgbf000131-resize_1/000788_2014-06-08_22-34-36_260595134347_rgbf000131-resize_1-target.png,125,3.359,6,6794,125,feet,jsons/VE125_randls_74_rotated.json,1060251,1346958,49,Prefer not to answer
59,358457,DepthScenes,duration_manipulation_targetAtFixation,jsons/VE125_randls_74_rotated.json,http://54.235.29.9/FacialAge/BNav_EC2/DepthDuration/v2_depth_duration_MTurk/v2_DepthDuration_HTML.html#94,94,1536,864,1536,864,8-21-2022,9-36-10,60,depth_duration_stimuli/002136_2014-06-25_21-18-03_260595134347_rgbf000109-resize_3/002136_2014-06-25_21-18-03_260595134347_rgbf000109-resize_3-target.png,125,1.9569999999999999,3,5225,126,feet,jsons/VE125_randls_74_rotated.json,1060251,1346958,49,Prefer not to answer
60,358457,DepthScenes,duration_manipulation_targetAtFixation,jsons/VE125_randls_74_rotated.json,http://54.235.29.9/FacialAge/BNav_EC2/DepthDuration/v2_depth_duration_MTurk/v2_DepthDuration_HTML.html#94,94,1536,864,1536,864,8-21-2022,9-36-10,61,depth_duration_stimuli/002964_2014-06-08_17-46-11_094959634447_rgbf000091-resize_4/002964_2014-06-08_17-46-11_094959634447_rgbf000091-resize_4-target.png,125,1.6909999999999998,5,5819,125,feet,jsons/VE125_randls_74_rotated.json,1060251,1346958,49,Prefer not to answer
61,358457,DepthScenes,duration_manipulation_targetAtFixation,jsons/VE125_randls_74_rotated.json,http://54.235.29.9/FacialAge/BNav_EC2/DepthDuration/v2_depth_duration_MTurk/v2_DepthDuration_HTML.html#94,94,1536,864,1536,864,8-21-2022,9-36-10,62,depth_duration_stimuli/001052_2014-06-08_18-24-54_260595134347_rgbf000130-resize_1/001052_2014-06-08_18-24-54_260595134347_rgbf000130-resize_1-target.png,125,4.1045,8,5229,124,feet,jsons/VE125_randls_74_rotated.json,1060251,1346958,49,Prefer not to answer
62,358457,DepthScenes,duration_manipulation_targetAtFixation,jsons/VE125_randls_74_rotated.json,http://54.235.29.9/FacialAge/BNav_EC2/DepthDuration/v2_depth_duration_MTurk/v2_DepthDuration_HTML.html#94,94,1536,864,1536,864,8-21-2022,9-36-10,63,depth_duration_stimuli/002988_2014-06-15_12-24-20_094959634447_rgbf000150-resize_1/002988_2014-06-15_12-24-20_094959634447_rgbf000150-resize_1-target.png,125,4.7669999999999995,15,5843,122,feet,jsons/VE125_randls_74_rotated.json,1060251,1346958,49,Prefer not to answer
63,358457,DepthScenes,duration_manipulation_targetAtFixation,jsons/VE125_randls_74_rotated.json,http://54.235.29.9/FacialAge/BNav_EC2/DepthDuration/v2_depth_duration_MTurk/v2_DepthDuration_HTML.html#94,94,1536,864,1536,864,8-21-2022,9-36-10,64,depth_duration_stimuli/001450_2014-06-19_17-02-03_260595134347_rgbf000203-resize_4/001450_2014-06-19_17-02-03_260595134347_rgbf000203-resize_4-target.png,125,4.0106666666667,6,7511,131,feet,jsons/VE125_randls_74_rotated.json,1060251,1346958,49,Prefer not to answer
64,358457,DepthScenes,duration_manipulation_targetAtFixation,jsons/VE125_randls_74_rotated.json,http://54.235.29.9/FacialAge/BNav_EC2/DepthDuration/v2_depth_duration_MTurk/v2_DepthDuration_HTML.html#94,94,1536,864,1536,864,8-21-2022,9-36-10,65,depth_duration_stimuli/001449_2014-06-19_17-01-27_260595134347_rgbf000116-resize_2/001449_2014-06-19_17-01-27_260595134347_rgbf000116-resize_2-target.png,125,3.452,5,5476,124,feet,jsons/VE125_randls_74_rotated.json,1060251,1346958,49,Prefer not to answer
65,358457,DepthScenes,duration_manipulation_targetAtFixation,jsons/VE125_randls_74_rotated.json,http://54.235.29.9/FacialAge/BNav_EC2/DepthDuration/v2_depth_duration_MTurk/v2_DepthDuration_HTML.html#94,94,1536,864,1536,864,8-21-2022,9-36-10,66,depth_duration_stimuli/001540_2014-06-20_17-01-05_260595134347_rgbf000086-resize_2/001540_2014-06-20_17-01-05_260595134347_rgbf000086-resize-original.jpg,125,1.459,0,4578,117,feet,jsons/VE125_randls_74_rotated.json,1060251,1346958,49,Prefer not to answer
66,358457,DepthScenes,duration_manipulation_targetAtFixation,jsons/VE125_randls_74_rotated.json,http://54.235.29.9/FacialAge/BNav_EC2/DepthDuration/v2_depth_duration_MTurk/v2_DepthDuration_HTML.html#94,94,1536,864,1536,864,8-21-2022,9-36-10,67,depth_duration_stimuli/002639_2014-06-24_14-51-37_094959634447_rgbf000074-resize_4/002639_2014-06-24_14-51-37_094959634447_rgbf000074-resize_4-target.png,125,4.0375,5,5422,126,feet,jsons/VE125_randls_74_rotated.json,1060251,1346958,49,Prefer not to answer
67,358457,DepthScenes,duration_manipulation_targetAtFixation,jsons/VE125_randls_74_rotated.json,http://54.235.29.9/FacialAge/BNav_EC2/DepthDuration/v2_depth_duration_MTurk/v2_DepthDuration_HTML.html#94,94,1536,864,1536,864,8-21-2022,9-36-10,68,depth_duration_stimuli/003292_2014-05-14_21-53-49_094959634447_rgbf000100-resize_2/003292_2014-05-14_21-53-49_094959634447_rgbf000100-resize_2-target.png,125,3.4815,12,5590,124,feet,jsons/VE125_randls_74_rotated.json,1060251,1346958,49,Prefer not to answer
68,358457,DepthScenes,duration_manipulation_targetAtFixation,jsons/VE125_randls_74_rotated.json,http://54.235.29.9/FacialAge/BNav_EC2/DepthDuration/v2_depth_duration_MTurk/v2_DepthDuration_HTML.html#94,94,1536,864,1536,864,8-21-2022,9-36-10,69,depth_duration_stimuli/002467_2014-06-28_20-38-07_260595134347_rgbf000026-resize_2/002467_2014-06-28_20-38-07_260595134347_rgbf000026-resize_2-target.png,125,4.742,6,6385,123,feet,jsons/VE125_randls_74_rotated.json,1060251,1346958,49,Prefer not to answer
69,358457,DepthScenes,duration_manipulation_targetAtFixation,jsons/VE125_randls_74_rotated.json,http://54.235.29.9/FacialAge/BNav_EC2/DepthDuration/v2_depth_duration_MTurk/v2_DepthDuration_HTML.html#94,94,1536,864,1536,864,8-21-2022,9-36-10,70,depth_duration_stimuli/002570_2014-06-24_13-59-54_094959634447_rgbf000059-resize_0/002570_2014-06-24_13-59-54_094959634447_rgbf000059-resize_0-target.png,125,4.037,12,5742,114,feet,jsons/VE125_randls_74_rotated.json,1060251,1346958,49,Prefer not to answer
70,358457,DepthScenes,duration_manipulation_targetAtFixation,jsons/VE125_randls_74_rotated.json,http://54.235.29.9/FacialAge/BNav_EC2/DepthDuration/v2_depth_duration_MTurk/v2_DepthDuration_HTML.html#94,94,1536,864,1536,864,8-21-2022,9-36-10,71,depth_duration_stimuli/000780_2014-06-08_22-28-29_260595134347_rgbf000126-resize_1/000780_2014-06-08_22-28-29_260595134347_rgbf000126-resize_1-target.png,125,3.3825,8,5987,126,feet,jsons/VE125_randls_74_rotated.json,1060251,1346958,49,Prefer not to answer
71,358457,DepthScenes,duration_manipulation_targetAtFixation,jsons/VE125_randls_74_rotated.json,http://54.235.29.9/FacialAge/BNav_EC2/DepthDuration/v2_depth_duration_MTurk/v2_DepthDuration_HTML.html#94,94,1536,864,1536,864,8-21-2022,9-36-10,72,depth_duration_stimuli/002445_2014-06-28_20-32-16_260595134347_rgbf000029-resize_4/002445_2014-06-28_20-32-16_260595134347_rgbf000029-resize_4-target.png,125,2.5315,4,11049,124,feet,jsons/VE125_randls_74_rotated.json,1060251,1346958,49,Prefer not to answer
72,358457,DepthScenes,duration_manipulation_targetAtFixation,jsons/VE125_randls_74_rotated.json,http://54.235.29.9/FacialAge/BNav_EC2/DepthDuration/v2_depth_duration_MTurk/v2_DepthDuration_HTML.html#94,94,1536,864,1536,864,8-21-2022,9-36-10,73,depth_duration_stimuli/001447_2014-06-19_17-00-32_260595134347_rgbf000082-resize_5/001447_2014-06-19_17-00-32_260595134347_rgbf000082-resize_5-target.png,125,4.13775,6,5855,124,feet,jsons/VE125_randls_74_rotated.json,1060251,1346958,49,Prefer not to answer
73,358457,DepthScenes,duration_manipulation_targetAtFixation,jsons/VE125_randls_74_rotated.json,http://54.235.29.9/FacialAge/BNav_EC2/DepthDuration/v2_depth_duration_MTurk/v2_DepthDuration_HTML.html#94,94,1536,864,1536,864,8-21-2022,9-36-10,74,depth_duration_stimuli/000447_2014-06-08_16-15-46_260595134347_rgbf000130-resize_1/000447_2014-06-08_16-15-46_260595134347_rgbf000130-resize_1-target.png,125,4.479,10,7199,124,feet,jsons/VE125_randls_74_rotated.json,1060251,1346958,49,Prefer not to answer
74,358457,DepthScenes,duration_manipulation_targetAtFixation,jsons/VE125_randls_74_rotated.json,http://54.235.29.9/FacialAge/BNav_EC2/DepthDuration/v2_depth_duration_MTurk/v2_DepthDuration_HTML.html#94,94,1536,864,1536,864,8-21-2022,9-36-10,75,depth_duration_stimuli/000103_2014-05-14_22-01-17_260595134347_rgbf000152-resize_5/000103_2014-05-14_22-01-17_260595134347_rgbf000152-resize_5-target.png,125,1.993,12,6196,125,feet,jsons/VE125_randls_74_rotated.json,1060251,1346958,49,Prefer not to answer
75,358457,DepthScenes,duration_manipulation_targetAtFixation,jsons/VE125_randls_74_rotated.json,http://54.235.29.9/FacialAge/BNav_EC2/DepthDuration/v2_depth_duration_MTurk/v2_DepthDuration_HTML.html#94,94,1536,864,1536,864,8-21-2022,9-36-10,76,depth_duration_stimuli/001555_2014-06-20_17-12-10_260595134347_rgbf000065-resize_4/001555_2014-06-20_17-12-10_260595134347_rgbf000065-resize_4-target.png,125,1.633,2,4251,123,feet,jsons/VE125_randls_74_rotated.json,1060251,1346958,49,Prefer not to answer
76,358457,DepthScenes,duration_manipulation_targetAtFixation,jsons/VE125_randls_74_rotated.json,http://54.235.29.9/FacialAge/BNav_EC2/DepthDuration/v2_depth_duration_MTurk/v2_DepthDuration_HTML.html#94,94,1536,864,1536,864,8-21-2022,9-36-10,77,depth_duration_stimuli/001100_2014-06-15_17-46-26_260595134347_rgbf000225-resize_2/001100_2014-06-15_17-46-26_260595134347_rgbf000225-resize_2-target.png,125,2.24,3,5069,121,feet,jsons/VE125_randls_74_rotated.json,1060251,1346958,49,Prefer not to answer
77,358457,DepthScenes,duration_manipulation_targetAtFixation,jsons/VE125_randls_74_rotated.json,http://54.235.29.9/FacialAge/BNav_EC2/DepthDuration/v2_depth_duration_MTurk/v2_DepthDuration_HTML.html#94,94,1536,864,1536,864,8-21-2022,9-36-10,78,depth_duration_stimuli/002784_2014-06-22_19-26-30_094959634447_rgbf000083-resize_3/002784_2014-06-22_19-26-30_094959634447_rgbf000083-resize_3-target.png,125,1.8046666666667,2,4474,124,feet,jsons/VE125_randls_74_rotated.json,1060251,1346958,49,Prefer not to answer
78,358457,DepthScenes,duration_manipulation_targetAtFixation,jsons/VE125_randls_74_rotated.json,http://54.235.29.9/FacialAge/BNav_EC2/DepthDuration/v2_depth_duration_MTurk/v2_DepthDuration_HTML.html#94,94,1536,864,1536,864,8-21-2022,9-36-10,79,depth_duration_stimuli/001032_2014-06-08_13-23-17_260595134347_rgbf000021-resize_3/001032_2014-06-08_13-23-17_260595134347_rgbf000021-resize_3-target.png,125,3.2725,6,4174,123,feet,jsons/VE125_randls_74_rotated.json,1060251,1346958,49,Prefer not to answer
79,358457,DepthScenes,duration_manipulation_targetAtFixation,jsons/VE125_randls_74_rotated.json,http://54.235.29.9/FacialAge/BNav_EC2/DepthDuration/v2_depth_duration_MTurk/v2_DepthDuration_HTML.html#94,94,1536,864,1536,864,8-21-2022,9-36-10,80,depth_duration_stimuli/001059_2014-06-08_21-53-27_260595134347_rgbf000061-resize_4/001059_2014-06-08_21-53-27_260595134347_rgbf000061-resize_4-target.png,125,2.4185,4,4003,123,feet,jsons/VE125_randls_74_rotated.json,1060251,1346958,49,Prefer not to answer
80,358457,DepthScenes,duration_manipulation_targetAtFixation,jsons/VE125_randls_74_rotated.json,http://54.235.29.9/FacialAge/BNav_EC2/DepthDuration/v2_depth_duration_MTurk/v2_DepthDuration_HTML.html#94,94,1536,864,1536,864,8-21-2022,9-36-10,81,depth_duration_stimuli/002805_2014-06-22_19-54-03_094959634447_rgbf000079-resize_1/002805_2014-06-22_19-54-03_094959634447_rgbf000079-resize_1-target.png,125,3.1439999999999997,7,4797,124,feet,jsons/VE125_randls_74_rotated.json,1060251,1346958,49,Prefer not to answer
81,358457,DepthScenes,duration_manipulation_targetAtFixation,jsons/VE125_randls_74_rotated.json,http://54.235.29.9/FacialAge/BNav_EC2/DepthDuration/v2_depth_duration_MTurk/v2_DepthDuration_HTML.html#94,94,1536,864,1536,864,8-21-2022,9-36-10,82,depth_duration_stimuli/000906_2014-06-08_13-35-43_260595134347_rgbf000155-resize_1/000906_2014-06-08_13-35-43_260595134347_rgbf000155-resize_1-target.png,125,2.8489999999999998,5,4798,125,feet,jsons/VE125_randls_74_rotated.json,1060251,1346958,49,Prefer not to answer
82,358457,DepthScenes,duration_manipulation_targetAtFixation,jsons/VE125_randls_74_rotated.json,http://54.235.29.9/FacialAge/BNav_EC2/DepthDuration/v2_depth_duration_MTurk/v2_DepthDuration_HTML.html#94,94,1536,864,1536,864,8-21-2022,9-36-10,83,depth_duration_stimuli/000927_2014-06-09_16-32-30_260595134347_rgbf000123-resize_3/000927_2014-06-09_16-32-30_260595134347_rgbf000123-resize_3-target.png,125,2.6785,6,12134,124,feet,jsons/VE125_randls_74_rotated.json,1060251,1346958,49,Prefer not to answer
83,358457,DepthScenes,duration_manipulation_targetAtFixation,jsons/VE125_randls_74_rotated.json,http://54.235.29.9/FacialAge/BNav_EC2/DepthDuration/v2_depth_duration_MTurk/v2_DepthDuration_HTML.html#94,94,1536,864,1536,864,8-21-2022,9-36-10,84,depth_duration_stimuli/001110_2014-06-15_17-25-28_260595134347_rgbf000150-resize_1/001110_2014-06-15_17-25-28_260595134347_rgbf000150-resize_1-target.png,125,1.7115,4,4267,125,feet,jsons/VE125_randls_74_rotated.json,1060251,1346958,49,Prefer not to answer
84,358457,DepthScenes,duration_manipulation_targetAtFixation,jsons/VE125_randls_74_rotated.json,http://54.235.29.9/FacialAge/BNav_EC2/DepthDuration/v2_depth_duration_MTurk/v2_DepthDuration_HTML.html#94,94,1536,864,1536,864,8-21-2022,9-36-10,85,depth_duration_stimuli/002103_2014-06-25_20-00-40_260595134347_rgbf000049-resize_0/002103_2014-06-25_20-00-40_260595134347_rgbf000049-resize_0-target.png,125,4.105,7,8124,138,feet,jsons/VE125_randls_74_rotated.json,1060251,1346958,49,Prefer not to answer
85,358457,DepthScenes,duration_manipulation_targetAtFixation,jsons/VE125_randls_74_rotated.json,http://54.235.29.9/FacialAge/BNav_EC2/DepthDuration/v2_depth_duration_MTurk/v2_DepthDuration_HTML.html#94,94,1536,864,1536,864,8-21-2022,9-36-10,86,depth_duration_stimuli/002039_2014-06-24_20-22-38_260595134347_rgbf000084-resize_1/002039_2014-06-24_20-22-38_260595134347_rgbf000084-resize_1-target.png,125,4.408,8,6516,125,feet,jsons/VE125_randls_74_rotated.json,1060251,1346958,49,Prefer not to answer
86,358457,DepthScenes,duration_manipulation_targetAtFixation,jsons/VE125_randls_74_rotated.json,http://54.235.29.9/FacialAge/BNav_EC2/DepthDuration/v2_depth_duration_MTurk/v2_DepthDuration_HTML.html#94,94,1536,864,1536,864,8-21-2022,9-36-10,87,depth_duration_stimuli/003338_2014-05-20_11-01-23_094959634447_rgbf000051-resize_6/003338_2014-05-20_11-01-23_094959634447_rgbf000051-resize_6-target.png,125,1.693,2,4656,125,feet,jsons/VE125_randls_74_rotated.json,1060251,1346958,49,Prefer not to answer
87,358457,DepthScenes,duration_manipulation_targetAtFixation,jsons/VE125_randls_74_rotated.json,http://54.235.29.9/FacialAge/BNav_EC2/DepthDuration/v2_depth_duration_MTurk/v2_DepthDuration_HTML.html#94,94,1536,864,1536,864,8-21-2022,9-36-10,88,depth_duration_stimuli/002509_2014-06-24_13-19-22_094959634447_rgbf000077-resize_0/002509_2014-06-24_13-19-22_094959634447_rgbf000077-resize_0-target.png,125,1.3065,2,9332,141,feet,jsons/VE125_randls_74_rotated.json,1060251,1346958,49,Prefer not to answer
88,358457,DepthScenes,duration_manipulation_targetAtFixation,jsons/VE125_randls_74_rotated.json,http://54.235.29.9/FacialAge/BNav_EC2/DepthDuration/v2_depth_duration_MTurk/v2_DepthDuration_HTML.html#94,94,1536,864,1536,864,8-21-2022,9-36-10,89,depth_duration_stimuli/002995_2014-06-15_12-31-26_094959634447_rgbf000150-resize_1/002995_2014-06-15_12-31-26_094959634447_rgbf000150-resize_1-target.png,125,3.8360000000000003,8,4750,124,feet,jsons/VE125_randls_74_rotated.json,1060251,1346958,49,Prefer not to answer
89,358457,DepthScenes,duration_manipulation_targetAtFixation,jsons/VE125_randls_74_rotated.json,http://54.235.29.9/FacialAge/BNav_EC2/DepthDuration/v2_depth_duration_MTurk/v2_DepthDuration_HTML.html#94,94,1536,864,1536,864,8-21-2022,9-36-10,90,depth_duration_stimuli/002748_2014-06-22_19-07-22_094959634447_rgbf000078-resize_1/002748_2014-06-22_19-07-22_094959634447_rgbf000078-resize_1-target.png,125,4.6705,10,5762,125,feet,jsons/VE125_randls_74_rotated.json,1060251,1346958,49,Prefer not to answer
90,358457,DepthScenes,duration_manipulation_targetAtFixation,jsons/VE125_randls_74_rotated.json,http://54.235.29.9/FacialAge/BNav_EC2/DepthDuration/v2_depth_duration_MTurk/v2_DepthDuration_HTML.html#94,94,1536,864,1536,864,8-21-2022,9-36-10,91,depth_duration_stimuli/001571_2014-06-20_17-21-32_260595134347_rgbf000089-resize_1/001571_2014-06-20_17-21-32_260595134347_rgbf000089-resize_1-target.png,125,1.86,4,4553,123,feet,jsons/VE125_randls_74_rotated.json,1060251,1346958,49,Prefer not to answer
91,358457,DepthScenes,duration_manipulation_targetAtFixation,jsons/VE125_randls_74_rotated.json,http://54.235.29.9/FacialAge/BNav_EC2/DepthDuration/v2_depth_duration_MTurk/v2_DepthDuration_HTML.html#94,94,1536,864,1536,864,8-21-2022,9-36-10,92,depth_duration_stimuli/002272_2014-06-28_18-53-56_260595134347_rgbf000067-resize_2/002272_2014-06-28_18-53-56_260595134347_rgbf000067-resize_2-target.png,125,1.138,2,4732,123,feet,jsons/VE125_randls_74_rotated.json,1060251,1346958,49,Prefer not to answer
92,358457,DepthScenes,duration_manipulation_targetAtFixation,jsons/VE125_randls_74_rotated.json,http://54.235.29.9/FacialAge/BNav_EC2/DepthDuration/v2_depth_duration_MTurk/v2_DepthDuration_HTML.html#94,94,1536,864,1536,864,8-21-2022,9-36-10,93,depth_duration_stimuli/003048_2014-06-15_13-49-43_094959634447_rgbf000150-resize_1/003048_2014-06-15_13-49-43_094959634447_rgbf000150-resize_1-target.png,125,4.0035,8,8460,123,feet,jsons/VE125_randls_74_rotated.json,1060251,1346958,49,Prefer not to answer
93,358457,DepthScenes,duration_manipulation_targetAtFixation,jsons/VE125_randls_74_rotated.json,http://54.235.29.9/FacialAge/BNav_EC2/DepthDuration/v2_depth_duration_MTurk/v2_DepthDuration_HTML.html#94,94,1536,864,1536,864,8-21-2022,9-36-10,94,depth_duration_stimuli/002043_2014-06-24_20-29-38_260595134347_rgbf000039-resize_4/002043_2014-06-24_20-29-38_260595134347_rgbf000039-resize_4-target.png,125,2.8435,12,6351,123,feet,jsons/VE125_randls_74_rotated.json,1060251,1346958,49,Prefer not to answer
94,358457,DepthScenes,duration_manipulation_targetAtFixation,jsons/VE125_randls_74_rotated.json,http://54.235.29.9/FacialAge/BNav_EC2/DepthDuration/v2_depth_duration_MTurk/v2_DepthDuration_HTML.html#94,94,1536,864,1536,864,8-21-2022,9-36-10,95,depth_duration_stimuli/000409_2014-06-04_19-23-33_260595134347_rgbf000067-resize_0/000409_2014-06-04_19-23-33_260595134347_rgbf000067-resize_0-target.png,125,3.7335,7,4769,124,feet,jsons/VE125_randls_74_rotated.json,1060251,1346958,49,Prefer not to answer
95,358457,DepthScenes,duration_manipulation_targetAtFixation,jsons/VE125_randls_74_rotated.json,http://54.235.29.9/FacialAge/BNav_EC2/DepthDuration/v2_depth_duration_MTurk/v2_DepthDuration_HTML.html#94,94,1536,864,1536,864,8-21-2022,9-36-10,96,depth_duration_stimuli/002663_2014-06-13_15-50-26_094959634447_rgbf000075-resize_1/002663_2014-06-13_15-50-26_094959634447_rgbf000075-resize_1-target.png,125,4.7495,9,6011,124,feet,jsons/VE125_randls_74_rotated.json,1060251,1346958,49,Prefer not to answer
96,358457,DepthScenes,duration_manipulation_targetAtFixation,jsons/VE125_randls_74_rotated.json,http://54.235.29.9/FacialAge/BNav_EC2/DepthDuration/v2_depth_duration_MTurk/v2_DepthDuration_HTML.html#94,94,1536,864,1536,864,8-21-2022,9-36-10,97,depth_duration_stimuli/003587_2014-05-23_16-48-02_094959634447_rgbf002384-resize_2/003587_2014-05-23_16-48-02_094959634447_rgbf002384-resize_2-target.png,125,1.357,5,4621,124,feet,jsons/VE125_randls_74_rotated.json,1060251,1346958,49,Prefer not to answer
97,358457,DepthScenes,duration_manipulation_targetAtFixation,jsons/VE125_randls_74_rotated.json,http://54.235.29.9/FacialAge/BNav_EC2/DepthDuration/v2_depth_duration_MTurk/v2_DepthDuration_HTML.html#94,94,1536,864,1536,864,8-21-2022,9-36-10,98,depth_duration_stimuli/001167_2014-06-17_15-38-07_260595134347_rgbf000108-resize_0/001167_2014-06-17_15-38-07_260595134347_rgbf000108-resize_0-target.png,125,1.8505,4,4682,124,feet,jsons/VE125_randls_74_rotated.json,1060251,1346958,49,Prefer not to answer
98,358457,DepthScenes,duration_manipulation_targetAtFixation,jsons/VE125_randls_74_rotated.json,http://54.235.29.9/FacialAge/BNav_EC2/DepthDuration/v2_depth_duration_MTurk/v2_DepthDuration_HTML.html#94,94,1536,864,1536,864,8-21-2022,9-36-10,99,depth_duration_stimuli/001222_2014-06-17_16-24-06_260595134347_rgbf000073-resize_0/001222_2014-06-17_16-24-06_260595134347_rgbf000073-resize-original.jpg,125,1.4385,0,9224,125,feet,jsons/VE125_randls_74_rotated.json,1060251,1346958,49,Prefer not to answer
99,358457,DepthScenes,duration_manipulation_targetAtFixation,jsons/VE125_randls_74_rotated.json,http://54.235.29.9/FacialAge/BNav_EC2/DepthDuration/v2_depth_duration_MTurk/v2_DepthDuration_HTML.html#94,94,1536,864,1536,864,8-21-2022,9-36-10,100,depth_duration_stimuli/001617_2014-06-20_11-35-32_260595134347_rgbf000066-resize_1/001617_2014-06-20_11-35-32_260595134347_rgbf000066-resize_1-target.png,125,3.7910000000000004,8,4813,124,feet,jsons/VE125_randls_74_rotated.json,1060251,1346958,49,Prefer not to answer
100,358457,DepthScenes,duration_manipulation_targetAtFixation,jsons/VE125_randls_74_rotated.json,http://54.235.29.9/FacialAge/BNav_EC2/DepthDuration/v2_depth_duration_MTurk/v2_DepthDuration_HTML.html#94,94,1536,864,1536,864,8-21-2022,9-36-10,101,depth_duration_stimuli/001806_2014-06-26_20-50-20_260595134347_rgbf000091-resize_1/001806_2014-06-26_20-50-20_260595134347_rgbf000091-resize_1-target.png,125,2.7305,2,4491,125,feet,jsons/VE125_randls_74_rotated.json,1060251,1346958,49,Prefer not to answer
101,358457,DepthScenes,duration_manipulation_targetAtFixation,jsons/VE125_randls_74_rotated.json,http://54.235.29.9/FacialAge/BNav_EC2/DepthDuration/v2_depth_duration_MTurk/v2_DepthDuration_HTML.html#94,94,1536,864,1536,864,8-21-2022,9-36-10,102,depth_duration_stimuli/000502_2014-06-08_23-02-32_260595134347_rgbf000063-resize_4/000502_2014-06-08_23-02-32_260595134347_rgbf000063-resize_4-target.png,125,2.431,5,7290,123,feet,jsons/VE125_randls_74_rotated.json,1060251,1346958,49,Prefer not to answer
102,358457,DepthScenes,duration_manipulation_targetAtFixation,jsons/VE125_randls_74_rotated.json,http://54.235.29.9/FacialAge/BNav_EC2/DepthDuration/v2_depth_duration_MTurk/v2_DepthDuration_HTML.html#94,94,1536,864,1536,864,8-21-2022,9-36-10,103,depth_duration_stimuli/001199_2014-06-17_16-03-48_260595134347_rgbf000077-resize_0/001199_2014-06-17_16-03-48_260595134347_rgbf000077-resize_0-target.png,125,3.4375,8,5357,116,feet,jsons/VE125_randls_74_rotated.json,1060251,1346958,49,Prefer not to answer
103,358457,DepthScenes,duration_manipulation_targetAtFixation,jsons/VE125_randls_74_rotated.json,http://54.235.29.9/FacialAge/BNav_EC2/DepthDuration/v2_depth_duration_MTurk/v2_DepthDuration_HTML.html#94,94,1536,864,1536,864,8-21-2022,9-36-10,104,depth_duration_stimuli/000854_2014-06-09_19-43-13_260595134347_rgbf000066-resize_0/000854_2014-06-09_19-43-13_260595134347_rgbf000066-resize_0-target.png,125,3.068,3,4659,132,feet,jsons/VE125_randls_74_rotated.json,1060251,1346958,49,Prefer not to answer
104,358457,DepthScenes,duration_manipulation_targetAtFixation,jsons/VE125_randls_74_rotated.json,http://54.235.29.9/FacialAge/BNav_EC2/DepthDuration/v2_depth_duration_MTurk/v2_DepthDuration_HTML.html#94,94,1536,864,1536,864,8-21-2022,9-36-10,105,depth_duration_stimuli/000758_2014-06-08_22-05-08_260595134347_rgbf000085-resize_0/000758_2014-06-08_22-05-08_260595134347_rgbf000085-resize_0-target.png,125,3.3810000000000002,6,9612,125,feet,jsons/VE125_randls_74_rotated.json,1060251,1346958,49,Prefer not to answer
105,358457,DepthScenes,duration_manipulation_targetAtFixation,jsons/VE125_randls_74_rotated.json,http://54.235.29.9/FacialAge/BNav_EC2/DepthDuration/v2_depth_duration_MTurk/v2_DepthDuration_HTML.html#94,94,1536,864,1536,864,8-21-2022,9-36-10,106,depth_duration_stimuli/002875_2014-06-01_15-19-00_094959634447_rgbf000151-resize_1/002875_2014-06-01_15-19-00_094959634447_rgbf000151-resize_1-target.png,125,1.9675,4,4881,122,feet,jsons/VE125_randls_74_rotated.json,1060251,1346958,49,Prefer not to answer
106,358457,DepthScenes,duration_manipulation_targetAtFixation,jsons/VE125_randls_74_rotated.json,http://54.235.29.9/FacialAge/BNav_EC2/DepthDuration/v2_depth_duration_MTurk/v2_DepthDuration_HTML.html#94,94,1536,864,1536,864,8-21-2022,9-36-10,107,depth_duration_stimuli/001011_2014-06-08_23-18-54_260595134347_rgbf000044-resize_4/001011_2014-06-08_23-18-54_260595134347_rgbf000044-resize_4-target.png,125,2.4730000000000003,5,4478,124,feet,jsons/VE125_randls_74_rotated.json,1060251,1346958,49,Prefer not to answer
107,358457,DepthScenes,duration_manipulation_targetAtFixation,jsons/VE125_randls_74_rotated.json,http://54.235.29.9/FacialAge/BNav_EC2/DepthDuration/v2_depth_duration_MTurk/v2_DepthDuration_HTML.html#94,94,1536,864,1536,864,8-21-2022,9-36-10,108,depth_duration_stimuli/002340_2014-06-28_20-05-46_260595134347_rgbf000113-resize_0/002340_2014-06-28_20-05-46_260595134347_rgbf000113-resize_0-target.png,125,2.4735,8,7908,124,feet,jsons/VE125_randls_74_rotated.json,1060251,1346958,49,Prefer not to answer
108,358457,DepthScenes,duration_manipulation_targetAtFixation,jsons/VE125_randls_74_rotated.json,http://54.235.29.9/FacialAge/BNav_EC2/DepthDuration/v2_depth_duration_MTurk/v2_DepthDuration_HTML.html#94,94,1536,864,1536,864,8-21-2022,9-36-10,109,depth_duration_stimuli/001016_2014-06-09_16-16-10_260595134347_rgbf000112-resize_5/001016_2014-06-09_16-16-10_260595134347_rgbf000112-resize_5-target.png,125,1.6565,4,4953,124,feet,jsons/VE125_randls_74_rotated.json,1060251,1346958,49,Prefer not to answer
109,358457,DepthScenes,duration_manipulation_targetAtFixation,jsons/VE125_randls_74_rotated.json,http://54.235.29.9/FacialAge/BNav_EC2/DepthDuration/v2_depth_duration_MTurk/v2_DepthDuration_HTML.html#94,94,1536,864,1536,864,8-21-2022,9-36-10,110,depth_duration_stimuli/002657_2014-06-13_15-29-54_094959634447_rgbf000150-resize_1/002657_2014-06-13_15-29-54_094959634447_rgbf000150-resize_1-target.png,125,4.919,5,5136,123,feet,jsons/VE125_randls_74_rotated.json,1060251,1346958,49,Prefer not to answer
110,358457,DepthScenes,duration_manipulation_targetAtFixation,jsons/VE125_randls_74_rotated.json,http://54.235.29.9/FacialAge/BNav_EC2/DepthDuration/v2_depth_duration_MTurk/v2_DepthDuration_HTML.html#94,94,1536,864,1536,864,8-21-2022,9-36-10,111,depth_duration_stimuli/002375_2014-06-28_20-13-44_260595134347_rgbf000032-resize_1/002375_2014-06-28_20-13-44_260595134347_rgbf000032-resize_1-target.png,125,4.0175,9,5348,129,feet,jsons/VE125_randls_74_rotated.json,1060251,1346958,49,Prefer not to answer
111,358457,DepthScenes,duration_manipulation_targetAtFixation,jsons/VE125_randls_74_rotated.json,http://54.235.29.9/FacialAge/BNav_EC2/DepthDuration/v2_depth_duration_MTurk/v2_DepthDuration_HTML.html#94,94,1536,864,1536,864,8-21-2022,9-36-10,112,depth_duration_stimuli/002953_2014-06-08_17-32-18_094959634447_rgbf000059-resize_5/002953_2014-06-08_17-32-18_094959634447_rgbf000059-resize_5-target.png,125,1.551,2,4319,122,feet,jsons/VE125_randls_74_rotated.json,1060251,1346958,49,Prefer not to answer
112,358457,DepthScenes,duration_manipulation_targetAtFixation,jsons/VE125_randls_74_rotated.json,http://54.235.29.9/FacialAge/BNav_EC2/DepthDuration/v2_depth_duration_MTurk/v2_DepthDuration_HTML.html#94,94,1536,864,1536,864,8-21-2022,9-36-10,113,depth_duration_stimuli/000878_2014-06-08_22-52-45_260595134347_rgbf000045-resize_2/000878_2014-06-08_22-52-45_260595134347_rgbf000045-resize_2-target.png,125,2.092,4,11187,124,feet,jsons/VE125_randls_74_rotated.json,1060251,1346958,49,Prefer not to answer
113,358457,DepthScenes,duration_manipulation_targetAtFixation,jsons/VE125_randls_74_rotated.json,http://54.235.29.9/FacialAge/BNav_EC2/DepthDuration/v2_depth_duration_MTurk/v2_DepthDuration_HTML.html#94,94,1536,864,1536,864,8-21-2022,9-36-10,114,depth_duration_stimuli/000137_2014-05-20_17-04-49_260595134347_rgbf000120-resize_1/000137_2014-05-20_17-04-49_260595134347_rgbf000120-resize_1-target.png,125,3.786,5,5912,126,feet,jsons/VE125_randls_74_rotated.json,1060251,1346958,49,Prefer not to answer
114,358457,DepthScenes,duration_manipulation_targetAtFixation,jsons/VE125_randls_74_rotated.json,http://54.235.29.9/FacialAge/BNav_EC2/DepthDuration/v2_depth_duration_MTurk/v2_DepthDuration_HTML.html#94,94,1536,864,1536,864,8-21-2022,9-36-10,115,depth_duration_stimuli/000736_2014-06-08_18-24-15_260595134347_rgbf000206-resize_3/000736_2014-06-08_18-24-15_260595134347_rgbf000206-resize_3-target.png,125,3.515,8,7602,122,feet,jsons/VE125_randls_74_rotated.json,1060251,1346958,49,Prefer not to answer
115,358457,DepthScenes,duration_manipulation_targetAtFixation,jsons/VE125_randls_74_rotated.json,http://54.235.29.9/FacialAge/BNav_EC2/DepthDuration/v2_depth_duration_MTurk/v2_DepthDuration_HTML.html#94,94,1536,864,1536,864,8-21-2022,9-36-10,116,depth_duration_stimuli/000709_2014-06-08_13-51-55_260595134347_rgbf000068-resize_3/000709_2014-06-08_13-51-55_260595134347_rgbf000068-resize_3-target.png,125,1.8030000000000002,9,5347,125,feet,jsons/VE125_randls_74_rotated.json,1060251,1346958,49,Prefer not to answer
116,358457,DepthScenes,duration_manipulation_targetAtFixation,jsons/VE125_randls_74_rotated.json,http://54.235.29.9/FacialAge/BNav_EC2/DepthDuration/v2_depth_duration_MTurk/v2_DepthDuration_HTML.html#94,94,1536,864,1536,864,8-21-2022,9-36-10,117,depth_duration_stimuli/002057_2014-06-24_21-00-13_260595134347_rgbf000120-resize_1/002057_2014-06-24_21-00-13_260595134347_rgbf000120-resize_1-target.png,125,2.967,14,11754,125,feet,jsons/VE125_randls_74_rotated.json,1060251,1346958,49,Prefer not to answer
117,358457,DepthScenes,duration_manipulation_targetAtFixation,jsons/VE125_randls_74_rotated.json,http://54.235.29.9/FacialAge/BNav_EC2/DepthDuration/v2_depth_duration_MTurk/v2_DepthDuration_HTML.html#94,94,1536,864,1536,864,8-21-2022,9-36-10,118,depth_duration_stimuli/000665_2014-06-09_20-42-35_260595134347_rgbf000110-resize_1/000665_2014-06-09_20-42-35_260595134347_rgbf000110-resize_1-target.png,125,3.057,5,5687,126,feet,jsons/VE125_randls_74_rotated.json,1060251,1346958,49,Prefer not to answer
118,358457,DepthScenes,duration_manipulation_targetAtFixation,jsons/VE125_randls_74_rotated.json,http://54.235.29.9/FacialAge/BNav_EC2/DepthDuration/v2_depth_duration_MTurk/v2_DepthDuration_HTML.html#94,94,1536,864,1536,864,8-21-2022,9-36-10,119,depth_duration_stimuli/001150_2014-06-17_15-27-34_260595134347_rgbf000108-resize_2/001150_2014-06-17_15-27-34_260595134347_rgbf000108-resize_2-target.png,125,4.0325,7,6343,124,feet,jsons/VE125_randls_74_rotated.json,1060251,1346958,49,Prefer not to answer
119,358457,DepthScenes,duration_manipulation_targetAtFixation,jsons/VE125_randls_74_rotated.json,http://54.235.29.9/FacialAge/BNav_EC2/DepthDuration/v2_depth_duration_MTurk/v2_DepthDuration_HTML.html#94,94,1536,864,1536,864,8-21-2022,9-36-10,120,depth_duration_stimuli/000787_2014-06-08_22-33-53_260595134347_rgbf000175-resize_1/000787_2014-06-08_22-33-53_260595134347_rgbf000175-resize-original.jpg,125,4.784,0,4793,114,feet,jsons/VE125_randls_74_rotated.json,1060251,1346958,49,Prefer not to answer
120,358457,DepthScenes,duration_manipulation_targetAtFixation,jsons/VE125_randls_74_rotated.json,http://54.235.29.9/FacialAge/BNav_EC2/DepthDuration/v2_depth_duration_MTurk/v2_DepthDuration_HTML.html#94,94,1536,864,1536,864,8-21-2022,9-36-10,121,depth_duration_stimuli/003490_2014-05-21_15-50-11_094959634447_rgbf000101-resize_3/003490_2014-05-21_15-50-11_094959634447_rgbf000101-resize_3-target.png,125,3.6445,7,6084,139,feet,jsons/VE125_randls_74_rotated.json,1060251,1346958,49,Prefer not to answer
121,358457,DepthScenes,duration_manipulation_targetAtFixation,jsons/VE125_randls_74_rotated.json,http://54.235.29.9/FacialAge/BNav_EC2/DepthDuration/v2_depth_duration_MTurk/v2_DepthDuration_HTML.html#94,94,1536,864,1536,864,8-21-2022,9-36-10,122,depth_duration_stimuli/001175_2014-06-17_15-45-55_260595134347_rgbf000129-resize_4/001175_2014-06-17_15-45-55_260595134347_rgbf000129-resize_4-target.png,125,4.255,14,5229,138,feet,jsons/VE125_randls_74_rotated.json,1060251,1346958,49,Prefer not to answer
122,358457,DepthScenes,duration_manipulation_targetAtFixation,jsons/VE125_randls_74_rotated.json,http://54.235.29.9/FacialAge/BNav_EC2/DepthDuration/v2_depth_duration_MTurk/v2_DepthDuration_HTML.html#94,94,1536,864,1536,864,8-21-2022,9-36-10,123,depth_duration_stimuli/000742_2014-06-08_18-48-09_260595134347_rgbf000164-resize_4/000742_2014-06-08_18-48-09_260595134347_rgbf000164-resize_4-target.png,125,4.632,7,4915,124,feet,jsons/VE125_randls_74_rotated.json,1060251,1346958,49,Prefer not to answer
123,358457,DepthScenes,duration_manipulation_targetAtFixation,jsons/VE125_randls_74_rotated.json,http://54.235.29.9/FacialAge/BNav_EC2/DepthDuration/v2_depth_duration_MTurk/v2_DepthDuration_HTML.html#94,94,1536,864,1536,864,8-21-2022,9-36-10,124,depth_duration_stimuli/001066_2014-06-08_22-03-20_260595134347_rgbf000066-resize_4/001066_2014-06-08_22-03-20_260595134347_rgbf000066-resize_4-target.png,125,4.2330000000000005,8,5156,140,feet,jsons/VE125_randls_74_rotated.json,1060251,1346958,49,Prefer not to answer
124,358457,DepthScenes,duration_manipulation_targetAtFixation,jsons/VE125_randls_74_rotated.json,http://54.235.29.9/FacialAge/BNav_EC2/DepthDuration/v2_depth_duration_MTurk/v2_DepthDuration_HTML.html#94,94,1536,864,1536,864,8-21-2022,9-36-10,125,depth_duration_stimuli/000677_2014-06-08_23-10-32_260595134347_rgbf000158-resize_6/000677_2014-06-08_23-10-32_260595134347_rgbf000158-resize_6-target.png,125,3.556,5,4459,125,feet,jsons/VE125_randls_74_rotated.json,1060251,1346958,49,Prefer not to answer
125,358457,DepthScenes,duration_manipulation_targetAtFixation,jsons/VE125_randls_74_rotated.json,http://54.235.29.9/FacialAge/BNav_EC2/DepthDuration/v2_depth_duration_MTurk/v2_DepthDuration_HTML.html#94,94,1536,864,1536,864,8-21-2022,9-36-10,126,depth_duration_stimuli/001029_2014-06-08_13-17-57_260595134347_rgbf000065-resize_1/001029_2014-06-08_13-17-57_260595134347_rgbf000065-resize_1-target.png,125,3.0835,6,4962,123,feet,jsons/VE125_randls_74_rotated.json,1060251,1346958,49,Prefer not to answer
126,358457,DepthScenes,duration_manipulation_targetAtFixation,jsons/VE125_randls_74_rotated.json,http://54.235.29.9/FacialAge/BNav_EC2/DepthDuration/v2_depth_duration_MTurk/v2_DepthDuration_HTML.html#94,94,1536,864,1536,864,8-21-2022,9-36-10,127,depth_duration_stimuli/003083_2014-06-15_15-21-03_094959634447_rgbf000063-resize_1/003083_2014-06-15_15-21-03_094959634447_rgbf000063-resize_1-target.png,125,4.1405,8,5630,125,feet,jsons/VE125_randls_74_rotated.json,1060251,1346958,49,Prefer not to answer
127,358457,DepthScenes,duration_manipulation_targetAtFixation,jsons/VE125_randls_74_rotated.json,http://54.235.29.9/FacialAge/BNav_EC2/DepthDuration/v2_depth_duration_MTurk/v2_DepthDuration_HTML.html#94,94,1536,864,1536,864,8-21-2022,9-36-10,128,depth_duration_stimuli/000486_2014-06-09_20-47-20_260595134347_rgbf000143-resize_2/000486_2014-06-09_20-47-20_260595134347_rgbf000143-resize_2-target.png,125,4.8325,5,5081,125,feet,jsons/VE125_randls_74_rotated.json,1060251,1346958,49,Prefer not to answer
128,358457,DepthScenes,duration_manipulation_targetAtFixation,jsons/VE125_randls_74_rotated.json,http://54.235.29.9/FacialAge/BNav_EC2/DepthDuration/v2_depth_duration_MTurk/v2_DepthDuration_HTML.html#94,94,1536,864,1536,864,8-21-2022,9-36-10,129,depth_duration_stimuli/003228_2014-05-14_13-42-35_094959634447_rgbf000101-resize_1/003228_2014-05-14_13-42-35_094959634447_rgbf000101-resize_1-target.png,125,1.9680000000000002,2,4272,133,feet,jsons/VE125_randls_74_rotated.json,1060251,1346958,49,Prefer not to answer
129,358457,DepthScenes,duration_manipulation_targetAtFixation,jsons/VE125_randls_74_rotated.json,http://54.235.29.9/FacialAge/BNav_EC2/DepthDuration/v2_depth_duration_MTurk/v2_DepthDuration_HTML.html#94,94,1536,864,1536,864,8-21-2022,9-36-10,130,depth_duration_stimuli/002600_2014-06-24_14-27-04_094959634447_rgbf000074-resize_2/002600_2014-06-24_14-27-04_094959634447_rgbf000074-resize_2-target.png,125,2.7575,9,5510,122,feet,jsons/VE125_randls_74_rotated.json,1060251,1346958,49,Prefer not to answer
130,358457,DepthScenes,duration_manipulation_targetAtFixation,jsons/VE125_randls_74_rotated.json,http://54.235.29.9/FacialAge/BNav_EC2/DepthDuration/v2_depth_duration_MTurk/v2_DepthDuration_HTML.html#94,94,1536,864,1536,864,8-21-2022,9-36-10,131,depth_duration_stimuli/000734_2014-06-08_17-39-11_260595134347_rgbf000128-resize_2/000734_2014-06-08_17-39-11_260595134347_rgbf000128-resize_2-target.png,125,4.098,5,4282,124,feet,jsons/VE125_randls_74_rotated.json,1060251,1346958,49,Prefer not to answer
131,358457,DepthScenes,duration_manipulation_targetAtFixation,jsons/VE125_randls_74_rotated.json,http://54.235.29.9/FacialAge/BNav_EC2/DepthDuration/v2_depth_duration_MTurk/v2_DepthDuration_HTML.html#94,94,1536,864,1536,864,8-21-2022,9-36-10,132,depth_duration_stimuli/000739_2014-06-08_18-45-58_260595134347_rgbf000068-resize_1/000739_2014-06-08_18-45-58_260595134347_rgbf000068-resize_1-target.png,125,3.534,6,5471,123,feet,jsons/VE125_randls_74_rotated.json,1060251,1346958,49,Prefer not to answer
132,358457,DepthScenes,duration_manipulation_targetAtFixation,jsons/VE125_randls_74_rotated.json,http://54.235.29.9/FacialAge/BNav_EC2/DepthDuration/v2_depth_duration_MTurk/v2_DepthDuration_HTML.html#94,94,1536,864,1536,864,8-21-2022,9-36-10,133,depth_duration_stimuli/003010_2014-06-15_12-54-35_094959634447_rgbf000112-resize_0/003010_2014-06-15_12-54-35_094959634447_rgbf000112-resize_0-target.png,125,3.1185,8,8211,123,feet,jsons/VE125_randls_74_rotated.json,1060251,1346958,49,Prefer not to answer
133,358457,DepthScenes,duration_manipulation_targetAtFixation,jsons/VE125_randls_74_rotated.json,http://54.235.29.9/FacialAge/BNav_EC2/DepthDuration/v2_depth_duration_MTurk/v2_DepthDuration_HTML.html#94,94,1536,864,1536,864,8-21-2022,9-36-10,134,depth_duration_stimuli/001810_2014-06-26_20-51-35_260595134347_rgbf000040-resize_3/001810_2014-06-26_20-51-35_260595134347_rgbf000040-resize_3-target.png,125,2.2525,4,4322,125,feet,jsons/VE125_randls_74_rotated.json,1060251,1346958,49,Prefer not to answer
134,358457,DepthScenes,duration_manipulation_targetAtFixation,jsons/VE125_randls_74_rotated.json,http://54.235.29.9/FacialAge/BNav_EC2/DepthDuration/v2_depth_duration_MTurk/v2_DepthDuration_HTML.html#94,94,1536,864,1536,864,8-21-2022,9-36-10,135,depth_duration_stimuli/000375_2014-06-08_11-17-29_260595134347_rgbf000133-resize_2/000375_2014-06-08_11-17-29_260595134347_rgbf000133-resize-original.jpg,125,4.718,0,5273,124,feet,jsons/VE125_randls_74_rotated.json,1060251,1346958,49,Prefer not to answer
135,358457,DepthScenes,duration_manipulation_targetAtFixation,jsons/VE125_randls_74_rotated.json,http://54.235.29.9/FacialAge/BNav_EC2/DepthDuration/v2_depth_duration_MTurk/v2_DepthDuration_HTML.html#94,94,1536,864,1536,864,8-21-2022,9-36-10,136,depth_duration_stimuli/001584_2014-06-20_11-07-43_260595134347_rgbf000002-resize_1/001584_2014-06-20_11-07-43_260595134347_rgbf000002-resize_1-target.png,125,3.53,5,4814,124,feet,jsons/VE125_randls_74_rotated.json,1060251,1346958,49,Prefer not to answer
136,358457,DepthScenes,duration_manipulation_targetAtFixation,jsons/VE125_randls_74_rotated.json,http://54.235.29.9/FacialAge/BNav_EC2/DepthDuration/v2_depth_duration_MTurk/v2_DepthDuration_HTML.html#94,94,1536,864,1536,864,8-21-2022,9-36-10,137,depth_duration_stimuli/003621_2014-05-23_18-06-08_094959634447_rgbf000101-resize_1/003621_2014-05-23_18-06-08_094959634447_rgbf000101-resize_1-target.png,125,3.9835,8,5080,124,feet,jsons/VE125_randls_74_rotated.json,1060251,1346958,49,Prefer not to answer
137,358457,DepthScenes,duration_manipulation_targetAtFixation,jsons/VE125_randls_74_rotated.json,http://54.235.29.9/FacialAge/BNav_EC2/DepthDuration/v2_depth_duration_MTurk/v2_DepthDuration_HTML.html#94,94,1536,864,1536,864,8-21-2022,9-36-10,138,depth_duration_stimuli/001392_2014-06-19_16-07-59_260595134347_rgbf000046-resize_1/001392_2014-06-19_16-07-59_260595134347_rgbf000046-resize_1-target.png,125,4.135,21,5207,124,feet,jsons/VE125_randls_74_rotated.json,1060251,1346958,49,Prefer not to answer
138,358457,DepthScenes,duration_manipulation_targetAtFixation,jsons/VE125_randls_74_rotated.json,http://54.235.29.9/FacialAge/BNav_EC2/DepthDuration/v2_depth_duration_MTurk/v2_DepthDuration_HTML.html#94,94,1536,864,1536,864,8-21-2022,9-36-10,139,depth_duration_stimuli/001570_2014-06-20_17-21-09_260595134347_rgbf000135-resize_4/001570_2014-06-20_17-21-09_260595134347_rgbf000135-resize_4-target.png,125,4.467,12,4698,122,feet,jsons/VE125_randls_74_rotated.json,1060251,1346958,49,Prefer not to answer
139,358457,DepthScenes,duration_manipulation_targetAtFixation,jsons/VE125_randls_74_rotated.json,http://54.235.29.9/FacialAge/BNav_EC2/DepthDuration/v2_depth_duration_MTurk/v2_DepthDuration_HTML.html#94,94,1536,864,1536,864,8-21-2022,9-36-10,140,depth_duration_stimuli/003081_2014-06-15_15-19-16_094959634447_rgbf000150-resize_1/003081_2014-06-15_15-19-16_094959634447_rgbf000150-resize_1-target.png,125,3.9125,7,5417,124,feet,jsons/VE125_randls_74_rotated.json,1060251,1346958,49,Prefer not to answer
140,358457,DepthScenes,duration_manipulation_targetAtFixation,jsons/VE125_randls_74_rotated.json,http://54.235.29.9/FacialAge/BNav_EC2/DepthDuration/v2_depth_duration_MTurk/v2_DepthDuration_HTML.html#94,94,1536,864,1536,864,8-21-2022,9-36-10,141,depth_duration_stimuli/001417_2014-06-19_16-25-36_260595134347_rgbf000115-resize_5/001417_2014-06-19_16-25-36_260595134347_rgbf000115-resize_5-target.png,125,4.6255,12,5540,124,feet,jsons/VE125_randls_74_rotated.json,1060251,1346958,49,Prefer not to answer
141,358457,DepthScenes,duration_manipulation_targetAtFixation,jsons/VE125_randls_74_rotated.json,http://54.235.29.9/FacialAge/BNav_EC2/DepthDuration/v2_depth_duration_MTurk/v2_DepthDuration_HTML.html#94,94,1536,864,1536,864,8-21-2022,9-36-10,142,depth_duration_stimuli/001650_2014-06-20_12-09-00_260595134347_rgbf000087-resize_3/001650_2014-06-20_12-09-00_260595134347_rgbf000087-resize_3-target.png,125,1.9505,2,4324,124,feet,jsons/VE125_randls_74_rotated.json,1060251,1346958,49,Prefer not to answer
142,358457,DepthScenes,duration_manipulation_targetAtFixation,jsons/VE125_randls_74_rotated.json,http://54.235.29.9/FacialAge/BNav_EC2/DepthDuration/v2_depth_duration_MTurk/v2_DepthDuration_HTML.html#94,94,1536,864,1536,864,8-21-2022,9-36-10,143,depth_duration_stimuli/000682_2014-06-08_23-14-58_260595134347_rgbf000041-resize_5/000682_2014-06-08_23-14-58_260595134347_rgbf000041-resize_5-target.png,125,2.7239999999999998,6,4494,126,feet,jsons/VE125_randls_74_rotated.json,1060251,1346958,49,Prefer not to answer
143,358457,DepthScenes,duration_manipulation_targetAtFixation,jsons/VE125_randls_74_rotated.json,http://54.235.29.9/FacialAge/BNav_EC2/DepthDuration/v2_depth_duration_MTurk/v2_DepthDuration_HTML.html#94,94,1536,864,1536,864,8-21-2022,9-36-10,144,depth_duration_stimuli/000943_2014-06-09_19-31-07_260595134347_rgbf000128-resize_1/000943_2014-06-09_19-31-07_260595134347_rgbf000128-resize_1-target.png,125,1.9765,3,4049,126,feet,jsons/VE125_randls_74_rotated.json,1060251,1346958,49,Prefer not to answer
144,358457,DepthScenes,duration_manipulation_targetAtFixation,jsons/VE125_randls_74_rotated.json,http://54.235.29.9/FacialAge/BNav_EC2/DepthDuration/v2_depth_duration_MTurk/v2_DepthDuration_HTML.html#94,94,1536,864,1536,864,8-21-2022,9-36-10,145,depth_duration_stimuli/003070_2014-06-15_14-58-27_094959634447_rgbf000150-resize_3/003070_2014-06-15_14-58-27_094959634447_rgbf000150-resize_3-target.png,125,2.9415,8,4415,126,feet,jsons/VE125_randls_74_rotated.json,1060251,1346958,49,Prefer not to answer
145,358457,DepthScenes,duration_manipulation_targetAtFixation,jsons/VE125_randls_74_rotated.json,http://54.235.29.9/FacialAge/BNav_EC2/DepthDuration/v2_depth_duration_MTurk/v2_DepthDuration_HTML.html#94,94,1536,864,1536,864,8-21-2022,9-36-10,146,depth_duration_stimuli/000866_2014-06-09_20-45-42_260595134347_rgbf000139-resize_1/000866_2014-06-09_20-45-42_260595134347_rgbf000139-resize_1-target.png,125,3.2155,5,4505,122,feet,jsons/VE125_randls_74_rotated.json,1060251,1346958,49,Prefer not to answer
146,358457,DepthScenes,duration_manipulation_targetAtFixation,jsons/VE125_randls_74_rotated.json,http://54.235.29.9/FacialAge/BNav_EC2/DepthDuration/v2_depth_duration_MTurk/v2_DepthDuration_HTML.html#94,94,1536,864,1536,864,8-21-2022,9-36-10,147,depth_duration_stimuli/002989_2014-06-15_12-25-03_094959634447_rgbf000150-resize_3/002989_2014-06-15_12-25-03_094959634447_rgbf000150-resize_3-target.png,125,4.1975,5,4591,123,feet,jsons/VE125_randls_74_rotated.json,1060251,1346958,49,Prefer not to answer
147,358457,DepthScenes,duration_manipulation_targetAtFixation,jsons/VE125_randls_74_rotated.json,http://54.235.29.9/FacialAge/BNav_EC2/DepthDuration/v2_depth_duration_MTurk/v2_DepthDuration_HTML.html#94,94,1536,864,1536,864,8-21-2022,9-36-10,148,depth_duration_stimuli/002750_2014-06-22_19-08-03_094959634447_rgbf000094-resize_4/002750_2014-06-22_19-08-03_094959634447_rgbf000094-resize_4-target.png,125,2.354,8,4321,126,feet,jsons/VE125_randls_74_rotated.json,1060251,1346958,49,Prefer not to answer
148,358457,DepthScenes,duration_manipulation_targetAtFixation,jsons/VE125_randls_74_rotated.json,http://54.235.29.9/FacialAge/BNav_EC2/DepthDuration/v2_depth_duration_MTurk/v2_DepthDuration_HTML.html#94,94,1536,864,1536,864,8-21-2022,9-36-10,149,depth_duration_stimuli/002549_2014-06-24_13-41-39_094959634447_rgbf000022-resize_3/002549_2014-06-24_13-41-39_094959634447_rgbf000022-resize_3-target.png,125,1.476,2,3683,123,feet,jsons/VE125_randls_74_rotated.json,1060251,1346958,49,Prefer not to answer
149,358457,DepthScenes,duration_manipulation_targetAtFixation,jsons/VE125_randls_74_rotated.json,http://54.235.29.9/FacialAge/BNav_EC2/DepthDuration/v2_depth_duration_MTurk/v2_DepthDuration_HTML.html#94,94,1536,864,1536,864,8-21-2022,9-36-10,150,depth_duration_stimuli/003079_2014-06-15_15-18-20_094959634447_rgbf000152-resize_8/003079_2014-06-15_15-18-20_094959634447_rgbf000152-resize_8-target.png,125,2.8775,10,5388,124,feet,jsons/VE125_randls_74_rotated.json,1060251,1346958,49,Prefer not to answer
150,358457,DepthScenes,duration_manipulation_targetAtFixation,jsons/VE125_randls_74_rotated.json,http://54.235.29.9/FacialAge/BNav_EC2/DepthDuration/v2_depth_duration_MTurk/v2_DepthDuration_HTML.html#94,94,1536,864,1536,864,8-21-2022,9-36-10,151,depth_duration_stimuli/000506_2014-06-08_23-21-00_260595134347_rgbf000070-resize_7/000506_2014-06-08_23-21-00_260595134347_rgbf000070-resize_7-target.png,125,4.0585,6,4478,140,feet,jsons/VE125_randls_74_rotated.json,1060251,1346958,49,Prefer not to answer
151,358457,DepthScenes,duration_manipulation_targetAtFixation,jsons/VE125_randls_74_rotated.json,http://54.235.29.9/FacialAge/BNav_EC2/DepthDuration/v2_depth_duration_MTurk/v2_DepthDuration_HTML.html#94,94,1536,864,1536,864,8-21-2022,9-36-10,152,depth_duration_stimuli/000569_2014-06-09_22-51-47_260595134347_rgbf000141-resize_3/000569_2014-06-09_22-51-47_260595134347_rgbf000141-resize-original.jpg,125,4.512,0,4758,124,feet,jsons/VE125_randls_74_rotated.json,1060251,1346958,49,Prefer not to answer
152,358457,DepthScenes,duration_manipulation_targetAtFixation,jsons/VE125_randls_74_rotated.json,http://54.235.29.9/FacialAge/BNav_EC2/DepthDuration/v2_depth_duration_MTurk/v2_DepthDuration_HTML.html#94,94,1536,864,1536,864,8-21-2022,9-36-10,153,depth_duration_stimuli/002660_2014-06-13_15-44-18_094959634447_rgbf001878-resize_2/002660_2014-06-13_15-44-18_094959634447_rgbf001878-resize_2-target.png,125,3.576,0,4396,140,feet,jsons/VE125_randls_74_rotated.json,1060251,1346958,49,Prefer not to answer
153,358457,DepthScenes,duration_manipulation_targetAtFixation,jsons/VE125_randls_74_rotated.json,http://54.235.29.9/FacialAge/BNav_EC2/DepthDuration/v2_depth_duration_MTurk/v2_DepthDuration_HTML.html#94,94,1536,864,1536,864,8-21-2022,9-36-10,154,depth_duration_stimuli/002153_2014-06-25_21-27-18_260595134347_rgbf000038-resize_5/002153_2014-06-25_21-27-18_260595134347_rgbf000038-resize_5-target.png,125,2.505,3,4468,125,feet,jsons/VE125_randls_74_rotated.json,1060251,1346958,49,Prefer not to answer
154,358457,DepthScenes,duration_manipulation_targetAtFixation,jsons/VE125_randls_74_rotated.json,http://54.235.29.9/FacialAge/BNav_EC2/DepthDuration/v2_depth_duration_MTurk/v2_DepthDuration_HTML.html#94,94,1536,864,1536,864,8-21-2022,9-36-10,155,depth_duration_stimuli/000749_2014-06-08_21-55-06_260595134347_rgbf000070-resize_2/000749_2014-06-08_21-55-06_260595134347_rgbf000070-resize_2-target.png,125,2.331,6,4783,125,feet,jsons/VE125_randls_74_rotated.json,1060251,1346958,49,Prefer not to answer
155,358457,DepthScenes,duration_manipulation_targetAtFixation,jsons/VE125_randls_74_rotated.json,http://54.235.29.9/FacialAge/BNav_EC2/DepthDuration/v2_depth_duration_MTurk/v2_DepthDuration_HTML.html#94,94,1536,864,1536,864,8-21-2022,9-36-10,156,depth_duration_stimuli/002788_2014-06-22_19-36-03_094959634447_rgbf000088-resize_2/002788_2014-06-22_19-36-03_094959634447_rgbf000088-resize_2-target.png,125,1.6465,8,4306,125,feet,jsons/VE125_randls_74_rotated.json,1060251,1346958,49,Prefer not to answer
156,358457,DepthScenes,duration_manipulation_targetAtFixation,jsons/VE125_randls_74_rotated.json,http://54.235.29.9/FacialAge/BNav_EC2/DepthDuration/v2_depth_duration_MTurk/v2_DepthDuration_HTML.html#94,94,1536,864,1536,864,8-21-2022,9-36-10,157,depth_duration_stimuli/000457_2014-06-08_16-52-43_260595134347_rgbf000199-resize_1/000457_2014-06-08_16-52-43_260595134347_rgbf000199-resize_1-target.png,125,3.6489999999999996,10,6529,125,feet,jsons/VE125_randls_74_rotated.json,1060251,1346958,49,Prefer not to answer
157,358457,DepthScenes,duration_manipulation_targetAtFixation,jsons/VE125_randls_74_rotated.json,http://54.235.29.9/FacialAge/BNav_EC2/DepthDuration/v2_depth_duration_MTurk/v2_DepthDuration_HTML.html#94,94,1536,864,1536,864,8-21-2022,9-36-10,158,depth_duration_stimuli/000929_2014-06-09_16-33-19_260595134347_rgbf000139-resize_0/000929_2014-06-09_16-33-19_260595134347_rgbf000139-resize_0-target.png,125,2.8680000000000003,8,5685,123,feet,jsons/VE125_randls_74_rotated.json,1060251,1346958,49,Prefer not to answer
158,358457,DepthScenes,duration_manipulation_targetAtFixation,jsons/VE125_randls_74_rotated.json,http://54.235.29.9/FacialAge/BNav_EC2/DepthDuration/v2_depth_duration_MTurk/v2_DepthDuration_HTML.html#94,94,1536,864,1536,864,8-21-2022,9-36-10,159,depth_duration_stimuli/002637_2014-06-24_14-51-13_094959634447_rgbf000066-resize_4/002637_2014-06-24_14-51-13_094959634447_rgbf000066-resize_4-target.png,125,1.9955,7,4822,125,feet,jsons/VE125_randls_74_rotated.json,1060251,1346958,49,Prefer not to answer
159,358457,DepthScenes,duration_manipulation_targetAtFixation,jsons/VE125_randls_74_rotated.json,http://54.235.29.9/FacialAge/BNav_EC2/DepthDuration/v2_depth_duration_MTurk/v2_DepthDuration_HTML.html#94,94,1536,864,1536,864,8-21-2022,9-36-10,160,depth_duration_stimuli/003534_2014-05-22_15-06-10_094959634447_rgbf000102-resize_4/003534_2014-05-22_15-06-10_094959634447_rgbf000102-resize_4-target.png,125,1.426,1,4084,124,feet,jsons/VE125_randls_74_rotated.json,1060251,1346958,49,Prefer not to answer
160,358457,DepthScenes,duration_manipulation_targetAtFixation,jsons/VE125_randls_74_rotated.json,http://54.235.29.9/FacialAge/BNav_EC2/DepthDuration/v2_depth_duration_MTurk/v2_DepthDuration_HTML.html#94,94,1536,864,1536,864,8-21-2022,9-36-10,161,depth_duration_stimuli/000191_2014-05-12_17-07-38_260595134347_rgbf000199-resize_0/000191_2014-05-12_17-07-38_260595134347_rgbf000199-resize_0-target.png,125,3.7995,14,7648,124,feet,jsons/VE125_randls_74_rotated.json,1060251,1346958,49,Prefer not to answer
161,358457,DepthScenes,duration_manipulation_targetAtFixation,jsons/VE125_randls_74_rotated.json,http://54.235.29.9/FacialAge/BNav_EC2/DepthDuration/v2_depth_duration_MTurk/v2_DepthDuration_HTML.html#94,94,1536,864,1536,864,8-21-2022,9-36-10,162,depth_duration_stimuli/000493_2014-06-09_21-01-18_260595134347_rgbf000196-resize_3/000493_2014-06-09_21-01-18_260595134347_rgbf000196-resize_3-target.png,125,3.44,7,4437,123,feet,jsons/VE125_randls_74_rotated.json,1060251,1346958,49,Prefer not to answer
162,358457,DepthScenes,duration_manipulation_targetAtFixation,jsons/VE125_randls_74_rotated.json,http://54.235.29.9/FacialAge/BNav_EC2/DepthDuration/v2_depth_duration_MTurk/v2_DepthDuration_HTML.html#94,94,1536,864,1536,864,8-21-2022,9-36-10,163,depth_duration_stimuli/002758_2014-06-22_19-11-20_094959634447_rgbf000128-resize_1/002758_2014-06-22_19-11-20_094959634447_rgbf000128-resize_1-target.png,125,2.555,0,5533,134,feet,jsons/VE125_randls_74_rotated.json,1060251,1346958,49,Prefer not to answer
163,358457,DepthScenes,duration_manipulation_targetAtFixation,jsons/VE125_randls_74_rotated.json,http://54.235.29.9/FacialAge/BNav_EC2/DepthDuration/v2_depth_duration_MTurk/v2_DepthDuration_HTML.html#94,94,1536,864,1536,864,8-21-2022,9-36-10,164,depth_duration_stimuli/002630_2014-06-24_14-47-50_094959634447_rgbf000055-resize_1/002630_2014-06-24_14-47-50_094959634447_rgbf000055-resize_1-target.png,125,3.0095,8,4298,125,feet,jsons/VE125_randls_74_rotated.json,1060251,1346958,49,Prefer not to answer
