,subjID,experimentName,versionName,sequenceName,url,selected_row,windowWidth,windowHeight,screenWidth,screenHeight,startDate,startTime,trial,stimulus,duration,actual_depth,depth_estimate,trial_RT,log_sceneDuration,unitSelection,seq_filepath,experimentTime,totalTime,age,gender
0,358793,DepthScenes,duration_manipulation_targetAtFixation,jsons/VE125_randls_56_rotated.json,http://54.235.29.9/FacialAge/BNav_EC2/DepthDuration/v2_depth_duration_MTurk/v2_DepthDuration_HTML.html#126,126,1366,657,1366,768,8-21-2022,9-44-7,1,depth_duration_stimuli/002805_2014-06-22_19-54-03_094959634447_rgbf000079-resize_1/002805_2014-06-22_19-54-03_094959634447_rgbf000079-resize_1-target.png,125,3.1439999999999997,55.0,3673,125,meters,jsons/VE125_randls_56_rotated.json,1134048,1392354,41,Woman
1,358793,DepthScenes,duration_manipulation_targetAtFixation,jsons/VE125_randls_56_rotated.json,http://54.235.29.9/FacialAge/BNav_EC2/DepthDuration/v2_depth_duration_MTurk/v2_DepthDuration_HTML.html#126,126,1366,657,1366,768,8-21-2022,9-44-7,2,depth_duration_stimuli/000906_2014-06-08_13-35-43_260595134347_rgbf000155-resize_1/000906_2014-06-08_13-35-43_260595134347_rgbf000155-resize_1-target.png,125,2.8489999999999998,45.0,4439,124,meters,jsons/VE125_randls_56_rotated.json,1134048,1392354,41,Woman
2,358793,DepthScenes,duration_manipulation_targetAtFixation,jsons/VE125_randls_56_rotated.json,http://54.235.29.9/FacialAge/BNav_EC2/DepthDuration/v2_depth_duration_MTurk/v2_DepthDuration_HTML.html#126,126,1366,657,1366,768,8-21-2022,9-44-7,3,depth_duration_stimuli/002637_2014-06-24_14-51-13_094959634447_rgbf000066-resize_4/002637_2014-06-24_14-51-13_094959634447_rgbf000066-resize_4-target.png,125,1.9955,60.0,6969,122,meters,jsons/VE125_randls_56_rotated.json,1134048,1392354,41,Woman
3,358793,DepthScenes,duration_manipulation_targetAtFixation,jsons/VE125_randls_56_rotated.json,http://54.235.29.9/FacialAge/BNav_EC2/DepthDuration/v2_depth_duration_MTurk/v2_DepthDuration_HTML.html#126,126,1366,657,1366,768,8-21-2022,9-44-7,4,depth_duration_stimuli/003534_2014-05-22_15-06-10_094959634447_rgbf000102-resize_4/003534_2014-05-22_15-06-10_094959634447_rgbf000102-resize_4-target.png,125,1.426,50.0,4555,124,meters,jsons/VE125_randls_56_rotated.json,1134048,1392354,41,Woman
4,358793,DepthScenes,duration_manipulation_targetAtFixation,jsons/VE125_randls_56_rotated.json,http://54.235.29.9/FacialAge/BNav_EC2/DepthDuration/v2_depth_duration_MTurk/v2_DepthDuration_HTML.html#126,126,1366,657,1366,768,8-21-2022,9-44-7,5,depth_duration_stimuli/001214_2014-06-17_16-13-55_260595134347_rgbf000111-resize_0/001214_2014-06-17_16-13-55_260595134347_rgbf000111-resize_0-target.png,125,2.6505,35.0,5866,124,meters,jsons/VE125_randls_56_rotated.json,1134048,1392354,41,Woman
5,358793,DepthScenes,duration_manipulation_targetAtFixation,jsons/VE125_randls_56_rotated.json,http://54.235.29.9/FacialAge/BNav_EC2/DepthDuration/v2_depth_duration_MTurk/v2_DepthDuration_HTML.html#126,126,1366,657,1366,768,8-21-2022,9-44-7,6,depth_duration_stimuli/000810_2014-06-08_17-20-01_260595134347_rgbf000105-resize_0/000810_2014-06-08_17-20-01_260595134347_rgbf000105-resize_0-target.png,125,1.4865,60.0,4362,123,meters,jsons/VE125_randls_56_rotated.json,1134048,1392354,41,Woman
6,358793,DepthScenes,duration_manipulation_targetAtFixation,jsons/VE125_randls_56_rotated.json,http://54.235.29.9/FacialAge/BNav_EC2/DepthDuration/v2_depth_duration_MTurk/v2_DepthDuration_HTML.html#126,126,1366,657,1366,768,8-21-2022,9-44-7,7,depth_duration_stimuli/003081_2014-06-15_15-19-16_094959634447_rgbf000150-resize_1/003081_2014-06-15_15-19-16_094959634447_rgbf000150-resize_1-target.png,125,3.9125,58.0,3867,126,meters,jsons/VE125_randls_56_rotated.json,1134048,1392354,41,Woman
7,358793,DepthScenes,duration_manipulation_targetAtFixation,jsons/VE125_randls_56_rotated.json,http://54.235.29.9/FacialAge/BNav_EC2/DepthDuration/v2_depth_duration_MTurk/v2_DepthDuration_HTML.html#126,126,1366,657,1366,768,8-21-2022,9-44-7,8,depth_duration_stimuli/001417_2014-06-19_16-25-36_260595134347_rgbf000115-resize_5/001417_2014-06-19_16-25-36_260595134347_rgbf000115-resize_5-target.png,125,4.6255,50.0,9256,122,meters,jsons/VE125_randls_56_rotated.json,1134048,1392354,41,Woman
8,358793,DepthScenes,duration_manipulation_targetAtFixation,jsons/VE125_randls_56_rotated.json,http://54.235.29.9/FacialAge/BNav_EC2/DepthDuration/v2_depth_duration_MTurk/v2_DepthDuration_HTML.html#126,126,1366,657,1366,768,8-21-2022,9-44-7,9,depth_duration_stimuli/002678_2014-06-13_16-15-32_094959634447_rgbf000151-resize_6/002678_2014-06-13_16-15-32_094959634447_rgbf000151-resize_6-target.png,125,2.1830000000000003,55.0,10521,126,meters,jsons/VE125_randls_56_rotated.json,1134048,1392354,41,Woman
9,358793,DepthScenes,duration_manipulation_targetAtFixation,jsons/VE125_randls_56_rotated.json,http://54.235.29.9/FacialAge/BNav_EC2/DepthDuration/v2_depth_duration_MTurk/v2_DepthDuration_HTML.html#126,126,1366,657,1366,768,8-21-2022,9-44-7,10,depth_duration_stimuli/000368_2014-06-09_15-53-01_260595134347_rgbf000155-resize_2/000368_2014-06-09_15-53-01_260595134347_rgbf000155-resize_2-target.png,125,2.4859999999999998,60.0,3210,124,meters,jsons/VE125_randls_56_rotated.json,1134048,1392354,41,Woman
10,358793,DepthScenes,duration_manipulation_targetAtFixation,jsons/VE125_randls_56_rotated.json,http://54.235.29.9/FacialAge/BNav_EC2/DepthDuration/v2_depth_duration_MTurk/v2_DepthDuration_HTML.html#126,126,1366,657,1366,768,8-21-2022,9-44-7,11,depth_duration_stimuli/001815_2014-06-26_20-52-55_260595134347_rgbf000020-resize_0/001815_2014-06-26_20-52-55_260595134347_rgbf000020-resize_0-target.png,125,3.3865,52.0,3450,124,meters,jsons/VE125_randls_56_rotated.json,1134048,1392354,41,Woman
11,358793,DepthScenes,duration_manipulation_targetAtFixation,jsons/VE125_randls_56_rotated.json,http://54.235.29.9/FacialAge/BNav_EC2/DepthDuration/v2_depth_duration_MTurk/v2_DepthDuration_HTML.html#126,126,1366,657,1366,768,8-21-2022,9-44-7,12,depth_duration_stimuli/001808_2014-06-26_20-50-58_260595134347_rgbf000029-resize_1/001808_2014-06-26_20-50-58_260595134347_rgbf000029-resize_1-target.png,125,4.249,60.0,2442,124,meters,jsons/VE125_randls_56_rotated.json,1134048,1392354,41,Woman
12,358793,DepthScenes,duration_manipulation_targetAtFixation,jsons/VE125_randls_56_rotated.json,http://54.235.29.9/FacialAge/BNav_EC2/DepthDuration/v2_depth_duration_MTurk/v2_DepthDuration_HTML.html#126,126,1366,657,1366,768,8-21-2022,9-44-7,13,depth_duration_stimuli/003338_2014-05-20_11-01-23_094959634447_rgbf000051-resize_6/003338_2014-05-20_11-01-23_094959634447_rgbf000051-resize_6-target.png,125,1.693,5.0,3353,124,meters,jsons/VE125_randls_56_rotated.json,1134048,1392354,41,Woman
13,358793,DepthScenes,duration_manipulation_targetAtFixation,jsons/VE125_randls_56_rotated.json,http://54.235.29.9/FacialAge/BNav_EC2/DepthDuration/v2_depth_duration_MTurk/v2_DepthDuration_HTML.html#126,126,1366,657,1366,768,8-21-2022,9-44-7,14,depth_duration_stimuli/002509_2014-06-24_13-19-22_094959634447_rgbf000077-resize_0/002509_2014-06-24_13-19-22_094959634447_rgbf000077-resize_0-target.png,125,1.3065,50.0,2843,126,meters,jsons/VE125_randls_56_rotated.json,1134048,1392354,41,Woman
14,358793,DepthScenes,duration_manipulation_targetAtFixation,jsons/VE125_randls_56_rotated.json,http://54.235.29.9/FacialAge/BNav_EC2/DepthDuration/v2_depth_duration_MTurk/v2_DepthDuration_HTML.html#126,126,1366,657,1366,768,8-21-2022,9-44-7,15,depth_duration_stimuli/002344_2014-06-28_20-06-29_260595134347_rgbf000030-resize_1/002344_2014-06-28_20-06-29_260595134347_rgbf000030-resize_1-target.png,125,1.5795,55.0,17305,125,meters,jsons/VE125_randls_56_rotated.json,1134048,1392354,41,Woman
15,358793,DepthScenes,duration_manipulation_targetAtFixation,jsons/VE125_randls_56_rotated.json,http://54.235.29.9/FacialAge/BNav_EC2/DepthDuration/v2_depth_duration_MTurk/v2_DepthDuration_HTML.html#126,126,1366,657,1366,768,8-21-2022,9-44-7,16,depth_duration_stimuli/002725_2014-06-22_11-47-51_094959634447_rgbf000070-resize_1/002725_2014-06-22_11-47-51_094959634447_rgbf000070-resize_1-target.png,125,2.195,58.0,7898,125,meters,jsons/VE125_randls_56_rotated.json,1134048,1392354,41,Woman
16,358793,DepthScenes,duration_manipulation_targetAtFixation,jsons/VE125_randls_56_rotated.json,http://54.235.29.9/FacialAge/BNav_EC2/DepthDuration/v2_depth_duration_MTurk/v2_DepthDuration_HTML.html#126,126,1366,657,1366,768,8-21-2022,9-44-7,17,depth_duration_stimuli/000742_2014-06-08_18-48-09_260595134347_rgbf000164-resize_4/000742_2014-06-08_18-48-09_260595134347_rgbf000164-resize_4-target.png,125,4.632,70.0,7529,125,meters,jsons/VE125_randls_56_rotated.json,1134048,1392354,41,Woman
17,358793,DepthScenes,duration_manipulation_targetAtFixation,jsons/VE125_randls_56_rotated.json,http://54.235.29.9/FacialAge/BNav_EC2/DepthDuration/v2_depth_duration_MTurk/v2_DepthDuration_HTML.html#126,126,1366,657,1366,768,8-21-2022,9-44-7,18,depth_duration_stimuli/001066_2014-06-08_22-03-20_260595134347_rgbf000066-resize_4/001066_2014-06-08_22-03-20_260595134347_rgbf000066-resize_4-target.png,125,4.2330000000000005,55.0,8458,124,meters,jsons/VE125_randls_56_rotated.json,1134048,1392354,41,Woman
18,358793,DepthScenes,duration_manipulation_targetAtFixation,jsons/VE125_randls_56_rotated.json,http://54.235.29.9/FacialAge/BNav_EC2/DepthDuration/v2_depth_duration_MTurk/v2_DepthDuration_HTML.html#126,126,1366,657,1366,768,8-21-2022,9-44-7,19,depth_duration_stimuli/001498_2014-06-19_17-45-14_260595134347_rgbf000129-resize_4/001498_2014-06-19_17-45-14_260595134347_rgbf000129-resize-original.jpg,125,1.4075,60.0,3194,124,meters,jsons/VE125_randls_56_rotated.json,1134048,1392354,41,Woman
19,358793,DepthScenes,duration_manipulation_targetAtFixation,jsons/VE125_randls_56_rotated.json,http://54.235.29.9/FacialAge/BNav_EC2/DepthDuration/v2_depth_duration_MTurk/v2_DepthDuration_HTML.html#126,126,1366,657,1366,768,8-21-2022,9-44-7,20,depth_duration_stimuli/001584_2014-06-20_11-07-43_260595134347_rgbf000002-resize_1/001584_2014-06-20_11-07-43_260595134347_rgbf000002-resize_1-target.png,125,3.53,60.0,7275,125,meters,jsons/VE125_randls_56_rotated.json,1134048,1392354,41,Woman
20,358793,DepthScenes,duration_manipulation_targetAtFixation,jsons/VE125_randls_56_rotated.json,http://54.235.29.9/FacialAge/BNav_EC2/DepthDuration/v2_depth_duration_MTurk/v2_DepthDuration_HTML.html#126,126,1366,657,1366,768,8-21-2022,9-44-7,21,depth_duration_stimuli/003621_2014-05-23_18-06-08_094959634447_rgbf000101-resize_1/003621_2014-05-23_18-06-08_094959634447_rgbf000101-resize_1-target.png,125,3.9835,56.0,7995,126,meters,jsons/VE125_randls_56_rotated.json,1134048,1392354,41,Woman
21,358793,DepthScenes,duration_manipulation_targetAtFixation,jsons/VE125_randls_56_rotated.json,http://54.235.29.9/FacialAge/BNav_EC2/DepthDuration/v2_depth_duration_MTurk/v2_DepthDuration_HTML.html#126,126,1366,657,1366,768,8-21-2022,9-44-7,22,depth_duration_stimuli/003048_2014-06-15_13-49-43_094959634447_rgbf000150-resize_1/003048_2014-06-15_13-49-43_094959634447_rgbf000150-resize_1-target.png,125,4.0035,55.0,7690,125,meters,jsons/VE125_randls_56_rotated.json,1134048,1392354,41,Woman
22,358793,DepthScenes,duration_manipulation_targetAtFixation,jsons/VE125_randls_56_rotated.json,http://54.235.29.9/FacialAge/BNav_EC2/DepthDuration/v2_depth_duration_MTurk/v2_DepthDuration_HTML.html#126,126,1366,657,1366,768,8-21-2022,9-44-7,23,depth_duration_stimuli/002043_2014-06-24_20-29-38_260595134347_rgbf000039-resize_4/002043_2014-06-24_20-29-38_260595134347_rgbf000039-resize_4-target.png,125,2.8435,60.0,7259,124,meters,jsons/VE125_randls_56_rotated.json,1134048,1392354,41,Woman
23,358793,DepthScenes,duration_manipulation_targetAtFixation,jsons/VE125_randls_56_rotated.json,http://54.235.29.9/FacialAge/BNav_EC2/DepthDuration/v2_depth_duration_MTurk/v2_DepthDuration_HTML.html#126,126,1366,657,1366,768,8-21-2022,9-44-7,24,depth_duration_stimuli/001392_2014-06-19_16-07-59_260595134347_rgbf000046-resize_1/001392_2014-06-19_16-07-59_260595134347_rgbf000046-resize_1-target.png,125,4.135,65.0,11773,124,meters,jsons/VE125_randls_56_rotated.json,1134048,1392354,41,Woman
24,358793,DepthScenes,duration_manipulation_targetAtFixation,jsons/VE125_randls_56_rotated.json,http://54.235.29.9/FacialAge/BNav_EC2/DepthDuration/v2_depth_duration_MTurk/v2_DepthDuration_HTML.html#126,126,1366,657,1366,768,8-21-2022,9-44-7,25,depth_duration_stimuli/001570_2014-06-20_17-21-09_260595134347_rgbf000135-resize_4/001570_2014-06-20_17-21-09_260595134347_rgbf000135-resize_4-target.png,125,4.467,55.0,7897,124,meters,jsons/VE125_randls_56_rotated.json,1134048,1392354,41,Woman
25,358793,DepthScenes,duration_manipulation_targetAtFixation,jsons/VE125_randls_56_rotated.json,http://54.235.29.9/FacialAge/BNav_EC2/DepthDuration/v2_depth_duration_MTurk/v2_DepthDuration_HTML.html#126,126,1366,657,1366,768,8-21-2022,9-44-7,26,depth_duration_stimuli/002444_2014-06-28_20-32-08_260595134347_rgbf000027-resize_0/002444_2014-06-28_20-32-08_260595134347_rgbf000027-resize_0-target.png,125,4.388999999999999,60.0,7882,126,meters,jsons/VE125_randls_56_rotated.json,1134048,1392354,41,Woman
26,358793,DepthScenes,duration_manipulation_targetAtFixation,jsons/VE125_randls_56_rotated.json,http://54.235.29.9/FacialAge/BNav_EC2/DepthDuration/v2_depth_duration_MTurk/v2_DepthDuration_HTML.html#126,126,1366,657,1366,768,8-21-2022,9-44-7,27,depth_duration_stimuli/000436_2014-06-09_22-25-11_260595134347_rgbf000137-resize_1/000436_2014-06-09_22-25-11_260595134347_rgbf000137-resize_1-target.png,125,4.0705,65.0,3131,124,meters,jsons/VE125_randls_56_rotated.json,1134048,1392354,41,Woman
27,358793,DepthScenes,duration_manipulation_targetAtFixation,jsons/VE125_randls_56_rotated.json,http://54.235.29.9/FacialAge/BNav_EC2/DepthDuration/v2_depth_duration_MTurk/v2_DepthDuration_HTML.html#126,126,1366,657,1366,768,8-21-2022,9-44-7,28,depth_duration_stimuli/002949_2014-06-26_15-57-42_094959634447_rgbf000079-resize_1/002949_2014-06-26_15-57-42_094959634447_rgbf000079-resize_1-target.png,125,1.8915,65.0,7464,125,meters,jsons/VE125_randls_56_rotated.json,1134048,1392354,41,Woman
28,358793,DepthScenes,duration_manipulation_targetAtFixation,jsons/VE125_randls_56_rotated.json,http://54.235.29.9/FacialAge/BNav_EC2/DepthDuration/v2_depth_duration_MTurk/v2_DepthDuration_HTML.html#126,126,1366,657,1366,768,8-21-2022,9-44-7,29,depth_duration_stimuli/000522_2014-06-08_13-35-06_260595134347_rgbf000244-resize_1/000522_2014-06-08_13-35-06_260595134347_rgbf000244-resize_1-target.png,125,2.3715,55.0,3435,125,meters,jsons/VE125_randls_56_rotated.json,1134048,1392354,41,Woman
29,358793,DepthScenes,duration_manipulation_targetAtFixation,jsons/VE125_randls_56_rotated.json,http://54.235.29.9/FacialAge/BNav_EC2/DepthDuration/v2_depth_duration_MTurk/v2_DepthDuration_HTML.html#126,126,1366,657,1366,768,8-21-2022,9-44-7,30,depth_duration_stimuli/002072_2014-06-24_21-48-06_260595134347_rgbf000115-resize_0/002072_2014-06-24_21-48-06_260595134347_rgbf000115-resize-original.jpg,125,4.702,60.0,7817,125,meters,jsons/VE125_randls_56_rotated.json,1134048,1392354,41,Woman
30,358793,DepthScenes,duration_manipulation_targetAtFixation,jsons/VE125_randls_56_rotated.json,http://54.235.29.9/FacialAge/BNav_EC2/DepthDuration/v2_depth_duration_MTurk/v2_DepthDuration_HTML.html#126,126,1366,657,1366,768,8-21-2022,9-44-7,31,depth_duration_stimuli/003079_2014-06-15_15-18-20_094959634447_rgbf000152-resize_8/003079_2014-06-15_15-18-20_094959634447_rgbf000152-resize_8-target.png,125,2.8775,65.0,12093,125,meters,jsons/VE125_randls_56_rotated.json,1134048,1392354,41,Woman
31,358793,DepthScenes,duration_manipulation_targetAtFixation,jsons/VE125_randls_56_rotated.json,http://54.235.29.9/FacialAge/BNav_EC2/DepthDuration/v2_depth_duration_MTurk/v2_DepthDuration_HTML.html#126,126,1366,657,1366,768,8-21-2022,9-44-7,32,depth_duration_stimuli/000506_2014-06-08_23-21-00_260595134347_rgbf000070-resize_7/000506_2014-06-08_23-21-00_260595134347_rgbf000070-resize_7-target.png,125,4.0585,65.0,7641,124,meters,jsons/VE125_randls_56_rotated.json,1134048,1392354,41,Woman
32,358793,DepthScenes,duration_manipulation_targetAtFixation,jsons/VE125_randls_56_rotated.json,http://54.235.29.9/FacialAge/BNav_EC2/DepthDuration/v2_depth_duration_MTurk/v2_DepthDuration_HTML.html#126,126,1366,657,1366,768,8-21-2022,9-44-7,33,depth_duration_stimuli/002467_2014-06-28_20-38-07_260595134347_rgbf000026-resize_2/002467_2014-06-28_20-38-07_260595134347_rgbf000026-resize_2-target.png,125,4.742,65.0,7226,125,meters,jsons/VE125_randls_56_rotated.json,1134048,1392354,41,Woman
33,358793,DepthScenes,duration_manipulation_targetAtFixation,jsons/VE125_randls_56_rotated.json,http://54.235.29.9/FacialAge/BNav_EC2/DepthDuration/v2_depth_duration_MTurk/v2_DepthDuration_HTML.html#126,126,1366,657,1366,768,8-21-2022,9-44-7,34,depth_duration_stimuli/002570_2014-06-24_13-59-54_094959634447_rgbf000059-resize_0/002570_2014-06-24_13-59-54_094959634447_rgbf000059-resize_0-target.png,125,4.037,66.0,7865,124,meters,jsons/VE125_randls_56_rotated.json,1134048,1392354,41,Woman
34,358793,DepthScenes,duration_manipulation_targetAtFixation,jsons/VE125_randls_56_rotated.json,http://54.235.29.9/FacialAge/BNav_EC2/DepthDuration/v2_depth_duration_MTurk/v2_DepthDuration_HTML.html#126,126,1366,657,1366,768,8-21-2022,9-44-7,35,depth_duration_stimuli/001450_2014-06-19_17-02-03_260595134347_rgbf000203-resize_4/001450_2014-06-19_17-02-03_260595134347_rgbf000203-resize_4-target.png,125,4.0106666666667,55.0,7739,125,meters,jsons/VE125_randls_56_rotated.json,1134048,1392354,41,Woman
35,358793,DepthScenes,duration_manipulation_targetAtFixation,jsons/VE125_randls_56_rotated.json,http://54.235.29.9/FacialAge/BNav_EC2/DepthDuration/v2_depth_duration_MTurk/v2_DepthDuration_HTML.html#126,126,1366,657,1366,768,8-21-2022,9-44-7,36,depth_duration_stimuli/001449_2014-06-19_17-01-27_260595134347_rgbf000116-resize_2/001449_2014-06-19_17-01-27_260595134347_rgbf000116-resize_2-target.png,125,3.452,55.0,19911,124,meters,jsons/VE125_randls_56_rotated.json,1134048,1392354,41,Woman
36,358793,DepthScenes,duration_manipulation_targetAtFixation,jsons/VE125_randls_56_rotated.json,http://54.235.29.9/FacialAge/BNav_EC2/DepthDuration/v2_depth_duration_MTurk/v2_DepthDuration_HTML.html#126,126,1366,657,1366,768,8-21-2022,9-44-7,37,depth_duration_stimuli/000409_2014-06-04_19-23-33_260595134347_rgbf000067-resize_0/000409_2014-06-04_19-23-33_260595134347_rgbf000067-resize_0-target.png,125,3.7335,65.0,4971,125,meters,jsons/VE125_randls_56_rotated.json,1134048,1392354,41,Woman
37,358793,DepthScenes,duration_manipulation_targetAtFixation,jsons/VE125_randls_56_rotated.json,http://54.235.29.9/FacialAge/BNav_EC2/DepthDuration/v2_depth_duration_MTurk/v2_DepthDuration_HTML.html#126,126,1366,657,1366,768,8-21-2022,9-44-7,38,depth_duration_stimuli/002663_2014-06-13_15-50-26_094959634447_rgbf000075-resize_1/002663_2014-06-13_15-50-26_094959634447_rgbf000075-resize_1-target.png,125,4.7495,50.0,16089,125,meters,jsons/VE125_randls_56_rotated.json,1134048,1392354,41,Woman
38,358793,DepthScenes,duration_manipulation_targetAtFixation,jsons/VE125_randls_56_rotated.json,http://54.235.29.9/FacialAge/BNav_EC2/DepthDuration/v2_depth_duration_MTurk/v2_DepthDuration_HTML.html#126,126,1366,657,1366,768,8-21-2022,9-44-7,39,depth_duration_stimuli/003228_2014-05-14_13-42-35_094959634447_rgbf000101-resize_1/003228_2014-05-14_13-42-35_094959634447_rgbf000101-resize_1-target.png,125,1.9680000000000002,65.0,30888,126,meters,jsons/VE125_randls_56_rotated.json,1134048,1392354,41,Woman
39,358793,DepthScenes,duration_manipulation_targetAtFixation,jsons/VE125_randls_56_rotated.json,http://54.235.29.9/FacialAge/BNav_EC2/DepthDuration/v2_depth_duration_MTurk/v2_DepthDuration_HTML.html#126,126,1366,657,1366,768,8-21-2022,9-44-7,40,depth_duration_stimuli/002600_2014-06-24_14-27-04_094959634447_rgbf000074-resize_2/002600_2014-06-24_14-27-04_094959634447_rgbf000074-resize_2-target.png,125,2.7575,68.0,4058,124,meters,jsons/VE125_randls_56_rotated.json,1134048,1392354,41,Woman
40,358793,DepthScenes,duration_manipulation_targetAtFixation,jsons/VE125_randls_56_rotated.json,http://54.235.29.9/FacialAge/BNav_EC2/DepthDuration/v2_depth_duration_MTurk/v2_DepthDuration_HTML.html#126,126,1366,657,1366,768,8-21-2022,9-44-7,41,depth_duration_stimuli/000734_2014-06-08_17-39-11_260595134347_rgbf000128-resize_2/000734_2014-06-08_17-39-11_260595134347_rgbf000128-resize_2-target.png,125,4.098,50.0,38391,123,meters,jsons/VE125_randls_56_rotated.json,1134048,1392354,41,Woman
41,358793,DepthScenes,duration_manipulation_targetAtFixation,jsons/VE125_randls_56_rotated.json,http://54.235.29.9/FacialAge/BNav_EC2/DepthDuration/v2_depth_duration_MTurk/v2_DepthDuration_HTML.html#126,126,1366,657,1366,768,8-21-2022,9-44-7,42,depth_duration_stimuli/000739_2014-06-08_18-45-58_260595134347_rgbf000068-resize_1/000739_2014-06-08_18-45-58_260595134347_rgbf000068-resize_1-target.png,125,3.534,60.0,8026,124,meters,jsons/VE125_randls_56_rotated.json,1134048,1392354,41,Woman
42,358793,DepthScenes,duration_manipulation_targetAtFixation,jsons/VE125_randls_56_rotated.json,http://54.235.29.9/FacialAge/BNav_EC2/DepthDuration/v2_depth_duration_MTurk/v2_DepthDuration_HTML.html#126,126,1366,657,1366,768,8-21-2022,9-44-7,43,depth_duration_stimuli/001052_2014-06-08_18-24-54_260595134347_rgbf000130-resize_1/001052_2014-06-08_18-24-54_260595134347_rgbf000130-resize_1-target.png,125,4.1045,56.0,25463,125,meters,jsons/VE125_randls_56_rotated.json,1134048,1392354,41,Woman
43,358793,DepthScenes,duration_manipulation_targetAtFixation,jsons/VE125_randls_56_rotated.json,http://54.235.29.9/FacialAge/BNav_EC2/DepthDuration/v2_depth_duration_MTurk/v2_DepthDuration_HTML.html#126,126,1366,657,1366,768,8-21-2022,9-44-7,44,depth_duration_stimuli/002988_2014-06-15_12-24-20_094959634447_rgbf000150-resize_1/002988_2014-06-15_12-24-20_094959634447_rgbf000150-resize_1-target.png,125,4.7669999999999995,0.0,3354,125,meters,jsons/VE125_randls_56_rotated.json,1134048,1392354,41,Woman
44,358793,DepthScenes,duration_manipulation_targetAtFixation,jsons/VE125_randls_56_rotated.json,http://54.235.29.9/FacialAge/BNav_EC2/DepthDuration/v2_depth_duration_MTurk/v2_DepthDuration_HTML.html#126,126,1366,657,1366,768,8-21-2022,9-44-7,45,depth_duration_stimuli/000749_2014-06-08_21-55-06_260595134347_rgbf000070-resize_2/000749_2014-06-08_21-55-06_260595134347_rgbf000070-resize_2-target.png,125,2.331,60.0,7577,124,meters,jsons/VE125_randls_56_rotated.json,1134048,1392354,41,Woman
45,358793,DepthScenes,duration_manipulation_targetAtFixation,jsons/VE125_randls_56_rotated.json,http://54.235.29.9/FacialAge/BNav_EC2/DepthDuration/v2_depth_duration_MTurk/v2_DepthDuration_HTML.html#126,126,1366,657,1366,768,8-21-2022,9-44-7,46,depth_duration_stimuli/002788_2014-06-22_19-36-03_094959634447_rgbf000088-resize_2/002788_2014-06-22_19-36-03_094959634447_rgbf000088-resize_2-target.png,125,1.6465,55.0,21131,125,meters,jsons/VE125_randls_56_rotated.json,1134048,1392354,41,Woman
46,358793,DepthScenes,duration_manipulation_targetAtFixation,jsons/VE125_randls_56_rotated.json,http://54.235.29.9/FacialAge/BNav_EC2/DepthDuration/v2_depth_duration_MTurk/v2_DepthDuration_HTML.html#126,126,1366,657,1366,768,8-21-2022,9-44-7,47,depth_duration_stimuli/002545_2014-06-24_13-38-53_094959634447_rgbf000080-resize_4/002545_2014-06-24_13-38-53_094959634447_rgbf000080-resize_4-target.png,125,1.9205,50.0,15690,126,meters,jsons/VE125_randls_56_rotated.json,1134048,1392354,41,Woman
47,358793,DepthScenes,duration_manipulation_targetAtFixation,jsons/VE125_randls_56_rotated.json,http://54.235.29.9/FacialAge/BNav_EC2/DepthDuration/v2_depth_duration_MTurk/v2_DepthDuration_HTML.html#126,126,1366,657,1366,768,8-21-2022,9-44-7,48,depth_duration_stimuli/001092_2014-06-15_17-34-58_260595134347_rgbf000171-resize_3/001092_2014-06-15_17-34-58_260595134347_rgbf000171-resize_3-target.png,125,2.6935,50.0,30377,125,meters,jsons/VE125_randls_56_rotated.json,1134048,1392354,41,Woman
48,358793,DepthScenes,duration_manipulation_targetAtFixation,jsons/VE125_randls_56_rotated.json,http://54.235.29.9/FacialAge/BNav_EC2/DepthDuration/v2_depth_duration_MTurk/v2_DepthDuration_HTML.html#126,126,1366,657,1366,768,8-21-2022,9-44-7,49,depth_duration_stimuli/001170_2014-06-17_15-43-44_260595134347_rgbf000096-resize_6/001170_2014-06-17_15-43-44_260595134347_rgbf000096-resize-original.jpg,125,1.1909999999999998,0.0,3338,125,meters,jsons/VE125_randls_56_rotated.json,1134048,1392354,41,Woman
49,358793,DepthScenes,duration_manipulation_targetAtFixation,jsons/VE125_randls_56_rotated.json,http://54.235.29.9/FacialAge/BNav_EC2/DepthDuration/v2_depth_duration_MTurk/v2_DepthDuration_HTML.html#126,126,1366,657,1366,768,8-21-2022,9-44-7,50,depth_duration_stimuli/000137_2014-05-20_17-04-49_260595134347_rgbf000120-resize_1/000137_2014-05-20_17-04-49_260595134347_rgbf000120-resize_1-target.png,125,3.786,55.0,5337,124,meters,jsons/VE125_randls_56_rotated.json,1134048,1392354,41,Woman
50,358793,DepthScenes,duration_manipulation_targetAtFixation,jsons/VE125_randls_56_rotated.json,http://54.235.29.9/FacialAge/BNav_EC2/DepthDuration/v2_depth_duration_MTurk/v2_DepthDuration_HTML.html#126,126,1366,657,1366,768,8-21-2022,9-44-7,51,depth_duration_stimuli/000736_2014-06-08_18-24-15_260595134347_rgbf000206-resize_3/000736_2014-06-08_18-24-15_260595134347_rgbf000206-resize_3-target.png,125,3.515,60.0,8877,127,meters,jsons/VE125_randls_56_rotated.json,1134048,1392354,41,Woman
51,358793,DepthScenes,duration_manipulation_targetAtFixation,jsons/VE125_randls_56_rotated.json,http://54.235.29.9/FacialAge/BNav_EC2/DepthDuration/v2_depth_duration_MTurk/v2_DepthDuration_HTML.html#126,126,1366,657,1366,768,8-21-2022,9-44-7,52,depth_duration_stimuli/002414_2014-06-28_20-24-58_260595134347_rgbf000067-resize_4/002414_2014-06-28_20-24-58_260595134347_rgbf000067-resize_4-target.png,125,4.363,50.0,21628,124,meters,jsons/VE125_randls_56_rotated.json,1134048,1392354,41,Woman
52,358793,DepthScenes,duration_manipulation_targetAtFixation,jsons/VE125_randls_56_rotated.json,http://54.235.29.9/FacialAge/BNav_EC2/DepthDuration/v2_depth_duration_MTurk/v2_DepthDuration_HTML.html#126,126,1366,657,1366,768,8-21-2022,9-44-7,53,depth_duration_stimuli/000773_2014-06-08_22-24-54_260595134347_rgbf000093-resize_1/000773_2014-06-08_22-24-54_260595134347_rgbf000093-resize_1-target.png,125,4.973,55.0,5096,124,meters,jsons/VE125_randls_56_rotated.json,1134048,1392354,41,Woman
53,358793,DepthScenes,duration_manipulation_targetAtFixation,jsons/VE125_randls_56_rotated.json,http://54.235.29.9/FacialAge/BNav_EC2/DepthDuration/v2_depth_duration_MTurk/v2_DepthDuration_HTML.html#126,126,1366,657,1366,768,8-21-2022,9-44-7,54,depth_duration_stimuli/003495_2014-05-21_16-01-51_094959634447_rgbf000100-resize_3/003495_2014-05-21_16-01-51_094959634447_rgbf000100-resize_3-target.png,125,1.6255,55.0,3738,124,meters,jsons/VE125_randls_56_rotated.json,1134048,1392354,41,Woman
54,358793,DepthScenes,duration_manipulation_targetAtFixation,jsons/VE125_randls_56_rotated.json,http://54.235.29.9/FacialAge/BNav_EC2/DepthDuration/v2_depth_duration_MTurk/v2_DepthDuration_HTML.html#126,126,1366,657,1366,768,8-21-2022,9-44-7,55,depth_duration_stimuli/001244_2014-06-17_16-47-45_260595134347_rgbf000030-resize_4/001244_2014-06-17_16-47-45_260595134347_rgbf000030-resize_4-target.png,125,2.0425,44.0,7930,126,meters,jsons/VE125_randls_56_rotated.json,1134048,1392354,41,Woman
55,358793,DepthScenes,duration_manipulation_targetAtFixation,jsons/VE125_randls_56_rotated.json,http://54.235.29.9/FacialAge/BNav_EC2/DepthDuration/v2_depth_duration_MTurk/v2_DepthDuration_HTML.html#126,126,1366,657,1366,768,8-21-2022,9-44-7,56,depth_duration_stimuli/003490_2014-05-21_15-50-11_094959634447_rgbf000101-resize_3/003490_2014-05-21_15-50-11_094959634447_rgbf000101-resize_3-target.png,125,3.6445,50.0,14203,124,meters,jsons/VE125_randls_56_rotated.json,1134048,1392354,41,Woman
56,358793,DepthScenes,duration_manipulation_targetAtFixation,jsons/VE125_randls_56_rotated.json,http://54.235.29.9/FacialAge/BNav_EC2/DepthDuration/v2_depth_duration_MTurk/v2_DepthDuration_HTML.html#126,126,1366,657,1366,768,8-21-2022,9-44-7,57,depth_duration_stimuli/001175_2014-06-17_15-45-55_260595134347_rgbf000129-resize_4/001175_2014-06-17_15-45-55_260595134347_rgbf000129-resize_4-target.png,125,4.255,55.0,11578,124,meters,jsons/VE125_randls_56_rotated.json,1134048,1392354,41,Woman
57,358793,DepthScenes,duration_manipulation_targetAtFixation,jsons/VE125_randls_56_rotated.json,http://54.235.29.9/FacialAge/BNav_EC2/DepthDuration/v2_depth_duration_MTurk/v2_DepthDuration_HTML.html#126,126,1366,657,1366,768,8-21-2022,9-44-7,58,depth_duration_stimuli/000665_2014-06-09_20-42-35_260595134347_rgbf000110-resize_1/000665_2014-06-09_20-42-35_260595134347_rgbf000110-resize_1-target.png,125,3.057,65.0,14298,124,meters,jsons/VE125_randls_56_rotated.json,1134048,1392354,41,Woman
58,358793,DepthScenes,duration_manipulation_targetAtFixation,jsons/VE125_randls_56_rotated.json,http://54.235.29.9/FacialAge/BNav_EC2/DepthDuration/v2_depth_duration_MTurk/v2_DepthDuration_HTML.html#126,126,1366,657,1366,768,8-21-2022,9-44-7,59,depth_duration_stimuli/001150_2014-06-17_15-27-34_260595134347_rgbf000108-resize_2/001150_2014-06-17_15-27-34_260595134347_rgbf000108-resize_2-target.png,125,4.0325,65.0,11416,125,meters,jsons/VE125_randls_56_rotated.json,1134048,1392354,41,Woman
59,358793,DepthScenes,duration_manipulation_targetAtFixation,jsons/VE125_randls_56_rotated.json,http://54.235.29.9/FacialAge/BNav_EC2/DepthDuration/v2_depth_duration_MTurk/v2_DepthDuration_HTML.html#126,126,1366,657,1366,768,8-21-2022,9-44-7,60,depth_duration_stimuli/001650_2014-06-20_12-09-00_260595134347_rgbf000087-resize_3/001650_2014-06-20_12-09-00_260595134347_rgbf000087-resize_3-target.png,125,1.9505,55.0,3147,125,meters,jsons/VE125_randls_56_rotated.json,1134048,1392354,41,Woman
60,358793,DepthScenes,duration_manipulation_targetAtFixation,jsons/VE125_randls_56_rotated.json,http://54.235.29.9/FacialAge/BNav_EC2/DepthDuration/v2_depth_duration_MTurk/v2_DepthDuration_HTML.html#126,126,1366,657,1366,768,8-21-2022,9-44-7,61,depth_duration_stimuli/000682_2014-06-08_23-14-58_260595134347_rgbf000041-resize_5/000682_2014-06-08_23-14-58_260595134347_rgbf000041-resize_5-target.png,125,2.7239999999999998,55.0,20169,123,meters,jsons/VE125_randls_56_rotated.json,1134048,1392354,41,Woman
61,358793,DepthScenes,duration_manipulation_targetAtFixation,jsons/VE125_randls_56_rotated.json,http://54.235.29.9/FacialAge/BNav_EC2/DepthDuration/v2_depth_duration_MTurk/v2_DepthDuration_HTML.html#126,126,1366,657,1366,768,8-21-2022,9-44-7,62,depth_duration_stimuli/001136_2014-06-17_15-19-41_260595134347_rgbf000076-resize_3/001136_2014-06-17_15-19-41_260595134347_rgbf000076-resize_3-target.png,125,1.8655,50.0,4314,125,meters,jsons/VE125_randls_56_rotated.json,1134048,1392354,41,Woman
62,358793,DepthScenes,duration_manipulation_targetAtFixation,jsons/VE125_randls_56_rotated.json,http://54.235.29.9/FacialAge/BNav_EC2/DepthDuration/v2_depth_duration_MTurk/v2_DepthDuration_HTML.html#126,126,1366,657,1366,768,8-21-2022,9-44-7,63,depth_duration_stimuli/001164_2014-06-17_15-35-46_260595134347_rgbf000085-resize_3/001164_2014-06-17_15-35-46_260595134347_rgbf000085-resize_3-target.png,125,2.354,60.0,13674,125,meters,jsons/VE125_randls_56_rotated.json,1134048,1392354,41,Woman
63,358793,DepthScenes,duration_manipulation_targetAtFixation,jsons/VE125_randls_56_rotated.json,http://54.235.29.9/FacialAge/BNav_EC2/DepthDuration/v2_depth_duration_MTurk/v2_DepthDuration_HTML.html#126,126,1366,657,1366,768,8-21-2022,9-44-7,64,depth_duration_stimuli/000635_2014-06-08_16-38-42_260595134347_rgbf000106-resize_1/000635_2014-06-08_16-38-42_260595134347_rgbf000106-resize_1-target.png,125,2.074,55.0,10233,124,meters,jsons/VE125_randls_56_rotated.json,1134048,1392354,41,Woman
64,358793,DepthScenes,duration_manipulation_targetAtFixation,jsons/VE125_randls_56_rotated.json,http://54.235.29.9/FacialAge/BNav_EC2/DepthDuration/v2_depth_duration_MTurk/v2_DepthDuration_HTML.html#126,126,1366,657,1366,768,8-21-2022,9-44-7,65,depth_duration_stimuli/002279_2014-06-28_18-55-32_260595134347_rgbf000040-resize_5/002279_2014-06-28_18-55-32_260595134347_rgbf000040-resize_5-target.png,125,1.5043333333333,65.0,10042,124,meters,jsons/VE125_randls_56_rotated.json,1134048,1392354,41,Woman
65,358793,DepthScenes,duration_manipulation_targetAtFixation,jsons/VE125_randls_56_rotated.json,http://54.235.29.9/FacialAge/BNav_EC2/DepthDuration/v2_depth_duration_MTurk/v2_DepthDuration_HTML.html#126,126,1366,657,1366,768,8-21-2022,9-44-7,66,depth_duration_stimuli/001540_2014-06-20_17-01-05_260595134347_rgbf000086-resize_2/001540_2014-06-20_17-01-05_260595134347_rgbf000086-resize-original.jpg,125,1.459,55.0,6681,125,meters,jsons/VE125_randls_56_rotated.json,1134048,1392354,41,Woman
66,358793,DepthScenes,duration_manipulation_targetAtFixation,jsons/VE125_randls_56_rotated.json,http://54.235.29.9/FacialAge/BNav_EC2/DepthDuration/v2_depth_duration_MTurk/v2_DepthDuration_HTML.html#126,126,1366,657,1366,768,8-21-2022,9-44-7,67,depth_duration_stimuli/000866_2014-06-09_20-45-42_260595134347_rgbf000139-resize_1/000866_2014-06-09_20-45-42_260595134347_rgbf000139-resize_1-target.png,125,3.2155,60.0,13804,125,meters,jsons/VE125_randls_56_rotated.json,1134048,1392354,41,Woman
67,358793,DepthScenes,duration_manipulation_targetAtFixation,jsons/VE125_randls_56_rotated.json,http://54.235.29.9/FacialAge/BNav_EC2/DepthDuration/v2_depth_duration_MTurk/v2_DepthDuration_HTML.html#126,126,1366,657,1366,768,8-21-2022,9-44-7,68,depth_duration_stimuli/002989_2014-06-15_12-25-03_094959634447_rgbf000150-resize_3/002989_2014-06-15_12-25-03_094959634447_rgbf000150-resize_3-target.png,125,4.1975,65.0,13802,125,meters,jsons/VE125_randls_56_rotated.json,1134048,1392354,41,Woman
68,358793,DepthScenes,duration_manipulation_targetAtFixation,jsons/VE125_randls_56_rotated.json,http://54.235.29.9/FacialAge/BNav_EC2/DepthDuration/v2_depth_duration_MTurk/v2_DepthDuration_HTML.html#126,126,1366,657,1366,768,8-21-2022,9-44-7,69,depth_duration_stimuli/000943_2014-06-09_19-31-07_260595134347_rgbf000128-resize_1/000943_2014-06-09_19-31-07_260595134347_rgbf000128-resize_1-target.png,125,1.9765,654.0,3098,125,meters,jsons/VE125_randls_56_rotated.json,1134048,1392354,41,Woman
69,358793,DepthScenes,duration_manipulation_targetAtFixation,jsons/VE125_randls_56_rotated.json,http://54.235.29.9/FacialAge/BNav_EC2/DepthDuration/v2_depth_duration_MTurk/v2_DepthDuration_HTML.html#126,126,1366,657,1366,768,8-21-2022,9-44-7,70,depth_duration_stimuli/003070_2014-06-15_14-58-27_094959634447_rgbf000150-resize_3/003070_2014-06-15_14-58-27_094959634447_rgbf000150-resize_3-target.png,125,2.9415,65.0,13547,125,meters,jsons/VE125_randls_56_rotated.json,1134048,1392354,41,Woman
70,358793,DepthScenes,duration_manipulation_targetAtFixation,jsons/VE125_randls_56_rotated.json,http://54.235.29.9/FacialAge/BNav_EC2/DepthDuration/v2_depth_duration_MTurk/v2_DepthDuration_HTML.html#126,126,1366,657,1366,768,8-21-2022,9-44-7,71,depth_duration_stimuli/002875_2014-06-01_15-19-00_094959634447_rgbf000151-resize_1/002875_2014-06-01_15-19-00_094959634447_rgbf000151-resize_1-target.png,125,1.9675,25.0,7480,125,meters,jsons/VE125_randls_56_rotated.json,1134048,1392354,41,Woman
71,358793,DepthScenes,duration_manipulation_targetAtFixation,jsons/VE125_randls_56_rotated.json,http://54.235.29.9/FacialAge/BNav_EC2/DepthDuration/v2_depth_duration_MTurk/v2_DepthDuration_HTML.html#126,126,1366,657,1366,768,8-21-2022,9-44-7,72,depth_duration_stimuli/001011_2014-06-08_23-18-54_260595134347_rgbf000044-resize_4/001011_2014-06-08_23-18-54_260595134347_rgbf000044-resize_4-target.png,125,2.4730000000000003,30.0,3131,124,meters,jsons/VE125_randls_56_rotated.json,1134048,1392354,41,Woman
72,358793,DepthScenes,duration_manipulation_targetAtFixation,jsons/VE125_randls_56_rotated.json,http://54.235.29.9/FacialAge/BNav_EC2/DepthDuration/v2_depth_duration_MTurk/v2_DepthDuration_HTML.html#126,126,1366,657,1366,768,8-21-2022,9-44-7,73,depth_duration_stimuli/002995_2014-06-15_12-31-26_094959634447_rgbf000150-resize_1/002995_2014-06-15_12-31-26_094959634447_rgbf000150-resize_1-target.png,125,3.8360000000000003,45.0,3034,124,meters,jsons/VE125_randls_56_rotated.json,1134048,1392354,41,Woman
73,358793,DepthScenes,duration_manipulation_targetAtFixation,jsons/VE125_randls_56_rotated.json,http://54.235.29.9/FacialAge/BNav_EC2/DepthDuration/v2_depth_duration_MTurk/v2_DepthDuration_HTML.html#126,126,1366,657,1366,768,8-21-2022,9-44-7,74,depth_duration_stimuli/002748_2014-06-22_19-07-22_094959634447_rgbf000078-resize_1/002748_2014-06-22_19-07-22_094959634447_rgbf000078-resize_1-target.png,125,4.6705,25.0,11533,125,meters,jsons/VE125_randls_56_rotated.json,1134048,1392354,41,Woman
74,358793,DepthScenes,duration_manipulation_targetAtFixation,jsons/VE125_randls_56_rotated.json,http://54.235.29.9/FacialAge/BNav_EC2/DepthDuration/v2_depth_duration_MTurk/v2_DepthDuration_HTML.html#126,126,1366,657,1366,768,8-21-2022,9-44-7,75,depth_duration_stimuli/002750_2014-06-22_19-08-03_094959634447_rgbf000094-resize_4/002750_2014-06-22_19-08-03_094959634447_rgbf000094-resize_4-target.png,125,2.354,35.0,2603,125,meters,jsons/VE125_randls_56_rotated.json,1134048,1392354,41,Woman
75,358793,DepthScenes,duration_manipulation_targetAtFixation,jsons/VE125_randls_56_rotated.json,http://54.235.29.9/FacialAge/BNav_EC2/DepthDuration/v2_depth_duration_MTurk/v2_DepthDuration_HTML.html#126,126,1366,657,1366,768,8-21-2022,9-44-7,76,depth_duration_stimuli/002549_2014-06-24_13-41-39_094959634447_rgbf000022-resize_3/002549_2014-06-24_13-41-39_094959634447_rgbf000022-resize_3-target.png,125,1.476,55.0,2730,124,meters,jsons/VE125_randls_56_rotated.json,1134048,1392354,41,Woman
76,358793,DepthScenes,duration_manipulation_targetAtFixation,jsons/VE125_randls_56_rotated.json,http://54.235.29.9/FacialAge/BNav_EC2/DepthDuration/v2_depth_duration_MTurk/v2_DepthDuration_HTML.html#126,126,1366,657,1366,768,8-21-2022,9-44-7,77,depth_duration_stimuli/002199_2014-06-28_18-33-56_260595134347_rgbf000074-resize_0/002199_2014-06-28_18-33-56_260595134347_rgbf000074-resize_0-target.png,125,1.996,50.0,2490,124,meters,jsons/VE125_randls_56_rotated.json,1134048,1392354,41,Woman
77,358793,DepthScenes,duration_manipulation_targetAtFixation,jsons/VE125_randls_56_rotated.json,http://54.235.29.9/FacialAge/BNav_EC2/DepthDuration/v2_depth_duration_MTurk/v2_DepthDuration_HTML.html#126,126,1366,657,1366,768,8-21-2022,9-44-7,78,depth_duration_stimuli/001056_2014-06-08_18-46-44_260595134347_rgbf000068-resize_0/001056_2014-06-08_18-46-44_260595134347_rgbf000068-resize_0-target.png,125,2.6625,30.0,2555,126,meters,jsons/VE125_randls_56_rotated.json,1134048,1392354,41,Woman
78,358793,DepthScenes,duration_manipulation_targetAtFixation,jsons/VE125_randls_56_rotated.json,http://54.235.29.9/FacialAge/BNav_EC2/DepthDuration/v2_depth_duration_MTurk/v2_DepthDuration_HTML.html#126,126,1366,657,1366,768,8-21-2022,9-44-7,79,depth_duration_stimuli/001617_2014-06-20_11-35-32_260595134347_rgbf000066-resize_1/001617_2014-06-20_11-35-32_260595134347_rgbf000066-resize_1-target.png,125,3.7910000000000004,25.0,2601,126,meters,jsons/VE125_randls_56_rotated.json,1134048,1392354,41,Woman
79,358793,DepthScenes,duration_manipulation_targetAtFixation,jsons/VE125_randls_56_rotated.json,http://54.235.29.9/FacialAge/BNav_EC2/DepthDuration/v2_depth_duration_MTurk/v2_DepthDuration_HTML.html#126,126,1366,657,1366,768,8-21-2022,9-44-7,80,depth_duration_stimuli/001806_2014-06-26_20-50-20_260595134347_rgbf000091-resize_1/001806_2014-06-26_20-50-20_260595134347_rgbf000091-resize_1-target.png,125,2.7305,30.0,2426,125,meters,jsons/VE125_randls_56_rotated.json,1134048,1392354,41,Woman
80,358793,DepthScenes,duration_manipulation_targetAtFixation,jsons/VE125_randls_56_rotated.json,http://54.235.29.9/FacialAge/BNav_EC2/DepthDuration/v2_depth_duration_MTurk/v2_DepthDuration_HTML.html#126,126,1366,657,1366,768,8-21-2022,9-44-7,81,depth_duration_stimuli/002758_2014-06-22_19-11-20_094959634447_rgbf000128-resize_1/002758_2014-06-22_19-11-20_094959634447_rgbf000128-resize_1-target.png,125,2.555,35.0,2377,125,meters,jsons/VE125_randls_56_rotated.json,1134048,1392354,41,Woman
81,358793,DepthScenes,duration_manipulation_targetAtFixation,jsons/VE125_randls_56_rotated.json,http://54.235.29.9/FacialAge/BNav_EC2/DepthDuration/v2_depth_duration_MTurk/v2_DepthDuration_HTML.html#126,126,1366,657,1366,768,8-21-2022,9-44-7,82,depth_duration_stimuli/002630_2014-06-24_14-47-50_094959634447_rgbf000055-resize_1/002630_2014-06-24_14-47-50_094959634447_rgbf000055-resize_1-target.png,125,3.0095,30.0,2538,125,meters,jsons/VE125_randls_56_rotated.json,1134048,1392354,41,Woman
82,358793,DepthScenes,duration_manipulation_targetAtFixation,jsons/VE125_randls_56_rotated.json,http://54.235.29.9/FacialAge/BNav_EC2/DepthDuration/v2_depth_duration_MTurk/v2_DepthDuration_HTML.html#126,126,1366,657,1366,768,8-21-2022,9-44-7,83,depth_duration_stimuli/000502_2014-06-08_23-02-32_260595134347_rgbf000063-resize_4/000502_2014-06-08_23-02-32_260595134347_rgbf000063-resize_4-target.png,125,2.431,50.0,7979,124,meters,jsons/VE125_randls_56_rotated.json,1134048,1392354,41,Woman
83,358793,DepthScenes,duration_manipulation_targetAtFixation,jsons/VE125_randls_56_rotated.json,http://54.235.29.9/FacialAge/BNav_EC2/DepthDuration/v2_depth_duration_MTurk/v2_DepthDuration_HTML.html#126,126,1366,657,1366,768,8-21-2022,9-44-7,84,depth_duration_stimuli/001199_2014-06-17_16-03-48_260595134347_rgbf000077-resize_0/001199_2014-06-17_16-03-48_260595134347_rgbf000077-resize_0-target.png,125,3.4375,15.0,2490,125,meters,jsons/VE125_randls_56_rotated.json,1134048,1392354,41,Woman
84,358793,DepthScenes,duration_manipulation_targetAtFixation,jsons/VE125_randls_56_rotated.json,http://54.235.29.9/FacialAge/BNav_EC2/DepthDuration/v2_depth_duration_MTurk/v2_DepthDuration_HTML.html#126,126,1366,657,1366,768,8-21-2022,9-44-7,85,depth_duration_stimuli/000709_2014-06-08_13-51-55_260595134347_rgbf000068-resize_3/000709_2014-06-08_13-51-55_260595134347_rgbf000068-resize_3-target.png,125,1.8030000000000002,20.0,2968,125,meters,jsons/VE125_randls_56_rotated.json,1134048,1392354,41,Woman
85,358793,DepthScenes,duration_manipulation_targetAtFixation,jsons/VE125_randls_56_rotated.json,http://54.235.29.9/FacialAge/BNav_EC2/DepthDuration/v2_depth_duration_MTurk/v2_DepthDuration_HTML.html#126,126,1366,657,1366,768,8-21-2022,9-44-7,86,depth_duration_stimuli/002057_2014-06-24_21-00-13_260595134347_rgbf000120-resize_1/002057_2014-06-24_21-00-13_260595134347_rgbf000120-resize_1-target.png,125,2.967,25.0,2571,125,meters,jsons/VE125_randls_56_rotated.json,1134048,1392354,41,Woman
86,358793,DepthScenes,duration_manipulation_targetAtFixation,jsons/VE125_randls_56_rotated.json,http://54.235.29.9/FacialAge/BNav_EC2/DepthDuration/v2_depth_duration_MTurk/v2_DepthDuration_HTML.html#126,126,1366,657,1366,768,8-21-2022,9-44-7,87,depth_duration_stimuli/001132_2014-06-17_14-48-54_260595134347_rgbf000100-resize_2/001132_2014-06-17_14-48-54_260595134347_rgbf000100-resize_2-target.png,125,3.753,30.0,2489,124,meters,jsons/VE125_randls_56_rotated.json,1134048,1392354,41,Woman
87,358793,DepthScenes,duration_manipulation_targetAtFixation,jsons/VE125_randls_56_rotated.json,http://54.235.29.9/FacialAge/BNav_EC2/DepthDuration/v2_depth_duration_MTurk/v2_DepthDuration_HTML.html#126,126,1366,657,1366,768,8-21-2022,9-44-7,88,depth_duration_stimuli/001133_2014-06-17_14-49-16_260595134347_rgbf000100-resize_0/001133_2014-06-17_14-49-16_260595134347_rgbf000100-resize_0-target.png,125,4.2115,35.0,3621,121,meters,jsons/VE125_randls_56_rotated.json,1134048,1392354,41,Woman
88,358793,DepthScenes,duration_manipulation_targetAtFixation,jsons/VE125_randls_56_rotated.json,http://54.235.29.9/FacialAge/BNav_EC2/DepthDuration/v2_depth_duration_MTurk/v2_DepthDuration_HTML.html#126,126,1366,657,1366,768,8-21-2022,9-44-7,89,depth_duration_stimuli/001235_2014-06-17_16-37-36_260595134347_rgbf000084-resize_4/001235_2014-06-17_16-37-36_260595134347_rgbf000084-resize_4-target.png,125,3.6605,35.0,2506,124,meters,jsons/VE125_randls_56_rotated.json,1134048,1392354,41,Woman
89,358793,DepthScenes,duration_manipulation_targetAtFixation,jsons/VE125_randls_56_rotated.json,http://54.235.29.9/FacialAge/BNav_EC2/DepthDuration/v2_depth_duration_MTurk/v2_DepthDuration_HTML.html#126,126,1366,657,1366,768,8-21-2022,9-44-7,90,depth_duration_stimuli/000788_2014-06-08_22-34-36_260595134347_rgbf000131-resize_1/000788_2014-06-08_22-34-36_260595134347_rgbf000131-resize_1-target.png,125,3.359,25.0,2234,124,meters,jsons/VE125_randls_56_rotated.json,1134048,1392354,41,Woman
90,358793,DepthScenes,duration_manipulation_targetAtFixation,jsons/VE125_randls_56_rotated.json,http://54.235.29.9/FacialAge/BNav_EC2/DepthDuration/v2_depth_duration_MTurk/v2_DepthDuration_HTML.html#126,126,1366,657,1366,768,8-21-2022,9-44-7,91,depth_duration_stimuli/003083_2014-06-15_15-21-03_094959634447_rgbf000063-resize_1/003083_2014-06-15_15-21-03_094959634447_rgbf000063-resize_1-target.png,125,4.1405,50.0,13995,124,meters,jsons/VE125_randls_56_rotated.json,1134048,1392354,41,Woman
91,358793,DepthScenes,duration_manipulation_targetAtFixation,jsons/VE125_randls_56_rotated.json,http://54.235.29.9/FacialAge/BNav_EC2/DepthDuration/v2_depth_duration_MTurk/v2_DepthDuration_HTML.html#126,126,1366,657,1366,768,8-21-2022,9-44-7,92,depth_duration_stimuli/000486_2014-06-09_20-47-20_260595134347_rgbf000143-resize_2/000486_2014-06-09_20-47-20_260595134347_rgbf000143-resize_2-target.png,125,4.8325,25.0,3738,124,meters,jsons/VE125_randls_56_rotated.json,1134048,1392354,41,Woman
92,358793,DepthScenes,duration_manipulation_targetAtFixation,jsons/VE125_randls_56_rotated.json,http://54.235.29.9/FacialAge/BNav_EC2/DepthDuration/v2_depth_duration_MTurk/v2_DepthDuration_HTML.html#126,126,1366,657,1366,768,8-21-2022,9-44-7,93,depth_duration_stimuli/001516_2014-06-20_16-25-09_260595134347_rgbf000076-resize_2/001516_2014-06-20_16-25-09_260595134347_rgbf000076-resize_2-target.png,125,1.7445,50.0,5484,126,meters,jsons/VE125_randls_56_rotated.json,1134048,1392354,41,Woman
93,358793,DepthScenes,duration_manipulation_targetAtFixation,jsons/VE125_randls_56_rotated.json,http://54.235.29.9/FacialAge/BNav_EC2/DepthDuration/v2_depth_duration_MTurk/v2_DepthDuration_HTML.html#126,126,1366,657,1366,768,8-21-2022,9-44-7,94,depth_duration_stimuli/002118_2014-06-25_20-32-08_260595134347_rgbf000078-resize_1/002118_2014-06-25_20-32-08_260595134347_rgbf000078-resize_1-target.png,125,2.6460000000000004,25.0,2600,125,meters,jsons/VE125_randls_56_rotated.json,1134048,1392354,41,Woman
94,358793,DepthScenes,duration_manipulation_targetAtFixation,jsons/VE125_randls_56_rotated.json,http://54.235.29.9/FacialAge/BNav_EC2/DepthDuration/v2_depth_duration_MTurk/v2_DepthDuration_HTML.html#126,126,1366,657,1366,768,8-21-2022,9-44-7,95,depth_duration_stimuli/002425_2014-06-28_20-27-29_260595134347_rgbf000031-resize_8/002425_2014-06-28_20-27-29_260595134347_rgbf000031-resize_8-target.png,125,3.8960000000000004,20.0,3227,126,meters,jsons/VE125_randls_56_rotated.json,1134048,1392354,41,Woman
95,358793,DepthScenes,duration_manipulation_targetAtFixation,jsons/VE125_randls_56_rotated.json,http://54.235.29.9/FacialAge/BNav_EC2/DepthDuration/v2_depth_duration_MTurk/v2_DepthDuration_HTML.html#126,126,1366,657,1366,768,8-21-2022,9-44-7,96,depth_duration_stimuli/000642_2014-06-08_16-59-25_260595134347_rgbf000098-resize_2/000642_2014-06-08_16-59-25_260595134347_rgbf000098-resize_2-target.png,125,2.8815,25.0,2811,125,meters,jsons/VE125_randls_56_rotated.json,1134048,1392354,41,Woman
96,358793,DepthScenes,duration_manipulation_targetAtFixation,jsons/VE125_randls_56_rotated.json,http://54.235.29.9/FacialAge/BNav_EC2/DepthDuration/v2_depth_duration_MTurk/v2_DepthDuration_HTML.html#126,126,1366,657,1366,768,8-21-2022,9-44-7,97,depth_duration_stimuli/000483_2014-06-09_20-41-45_260595134347_rgbf000116-resize_4/000483_2014-06-09_20-41-45_260595134347_rgbf000116-resize_4-target.png,125,1.337,30.0,2474,124,meters,jsons/VE125_randls_56_rotated.json,1134048,1392354,41,Woman
97,358793,DepthScenes,duration_manipulation_targetAtFixation,jsons/VE125_randls_56_rotated.json,http://54.235.29.9/FacialAge/BNav_EC2/DepthDuration/v2_depth_duration_MTurk/v2_DepthDuration_HTML.html#126,126,1366,657,1366,768,8-21-2022,9-44-7,98,depth_duration_stimuli/000469_2014-06-09_19-42-10_260595134347_rgbf000081-resize_1/000469_2014-06-09_19-42-10_260595134347_rgbf000081-resize_1-target.png,125,1.652,25.0,3514,124,meters,jsons/VE125_randls_56_rotated.json,1134048,1392354,41,Woman
98,358793,DepthScenes,duration_manipulation_targetAtFixation,jsons/VE125_randls_56_rotated.json,http://54.235.29.9/FacialAge/BNav_EC2/DepthDuration/v2_depth_duration_MTurk/v2_DepthDuration_HTML.html#126,126,1366,657,1366,768,8-21-2022,9-44-7,99,depth_duration_stimuli/001222_2014-06-17_16-24-06_260595134347_rgbf000073-resize_0/001222_2014-06-17_16-24-06_260595134347_rgbf000073-resize-original.jpg,125,1.4385,15.0,3292,125,meters,jsons/VE125_randls_56_rotated.json,1134048,1392354,41,Woman
99,358793,DepthScenes,duration_manipulation_targetAtFixation,jsons/VE125_randls_56_rotated.json,http://54.235.29.9/FacialAge/BNav_EC2/DepthDuration/v2_depth_duration_MTurk/v2_DepthDuration_HTML.html#126,126,1366,657,1366,768,8-21-2022,9-44-7,100,depth_duration_stimuli/000691_2014-06-08_13-08-50_260595134347_rgbf000132-resize_3/000691_2014-06-08_13-08-50_260595134347_rgbf000132-resize_3-target.png,125,4.1530000000000005,20.0,5832,125,meters,jsons/VE125_randls_56_rotated.json,1134048,1392354,41,Woman
100,358793,DepthScenes,duration_manipulation_targetAtFixation,jsons/VE125_randls_56_rotated.json,http://54.235.29.9/FacialAge/BNav_EC2/DepthDuration/v2_depth_duration_MTurk/v2_DepthDuration_HTML.html#126,126,1366,657,1366,768,8-21-2022,9-44-7,101,depth_duration_stimuli/002213_2014-06-28_18-37-58_260595134347_rgbf000055-resize_1/002213_2014-06-28_18-37-58_260595134347_rgbf000055-resize_1-target.png,125,3.62,25.0,2810,125,meters,jsons/VE125_randls_56_rotated.json,1134048,1392354,41,Woman
101,358793,DepthScenes,duration_manipulation_targetAtFixation,jsons/VE125_randls_56_rotated.json,http://54.235.29.9/FacialAge/BNav_EC2/DepthDuration/v2_depth_duration_MTurk/v2_DepthDuration_HTML.html#126,126,1366,657,1366,768,8-21-2022,9-44-7,102,depth_duration_stimuli/002657_2014-06-13_15-29-54_094959634447_rgbf000150-resize_1/002657_2014-06-13_15-29-54_094959634447_rgbf000150-resize_1-target.png,125,4.919,30.0,5034,125,meters,jsons/VE125_randls_56_rotated.json,1134048,1392354,41,Woman
102,358793,DepthScenes,duration_manipulation_targetAtFixation,jsons/VE125_randls_56_rotated.json,http://54.235.29.9/FacialAge/BNav_EC2/DepthDuration/v2_depth_duration_MTurk/v2_DepthDuration_HTML.html#126,126,1366,657,1366,768,8-21-2022,9-44-7,103,depth_duration_stimuli/002375_2014-06-28_20-13-44_260595134347_rgbf000032-resize_1/002375_2014-06-28_20-13-44_260595134347_rgbf000032-resize_1-target.png,125,4.0175,25.0,3642,124,meters,jsons/VE125_randls_56_rotated.json,1134048,1392354,41,Woman
103,358793,DepthScenes,duration_manipulation_targetAtFixation,jsons/VE125_randls_56_rotated.json,http://54.235.29.9/FacialAge/BNav_EC2/DepthDuration/v2_depth_duration_MTurk/v2_DepthDuration_HTML.html#126,126,1366,657,1366,768,8-21-2022,9-44-7,104,depth_duration_stimuli/000927_2014-06-09_16-32-30_260595134347_rgbf000123-resize_3/000927_2014-06-09_16-32-30_260595134347_rgbf000123-resize_3-target.png,125,2.6785,30.0,4203,125,meters,jsons/VE125_randls_56_rotated.json,1134048,1392354,41,Woman
104,358793,DepthScenes,duration_manipulation_targetAtFixation,jsons/VE125_randls_56_rotated.json,http://54.235.29.9/FacialAge/BNav_EC2/DepthDuration/v2_depth_duration_MTurk/v2_DepthDuration_HTML.html#126,126,1366,657,1366,768,8-21-2022,9-44-7,105,depth_duration_stimuli/001110_2014-06-15_17-25-28_260595134347_rgbf000150-resize_1/001110_2014-06-15_17-25-28_260595134347_rgbf000150-resize_1-target.png,125,1.7115,65.0,4732,125,meters,jsons/VE125_randls_56_rotated.json,1134048,1392354,41,Woman
105,358793,DepthScenes,duration_manipulation_targetAtFixation,jsons/VE125_randls_56_rotated.json,http://54.235.29.9/FacialAge/BNav_EC2/DepthDuration/v2_depth_duration_MTurk/v2_DepthDuration_HTML.html#126,126,1366,657,1366,768,8-21-2022,9-44-7,106,depth_duration_stimuli/001447_2014-06-19_17-00-32_260595134347_rgbf000082-resize_5/001447_2014-06-19_17-00-32_260595134347_rgbf000082-resize_5-target.png,125,4.13775,30.0,4506,125,meters,jsons/VE125_randls_56_rotated.json,1134048,1392354,41,Woman
106,358793,DepthScenes,duration_manipulation_targetAtFixation,jsons/VE125_randls_56_rotated.json,http://54.235.29.9/FacialAge/BNav_EC2/DepthDuration/v2_depth_duration_MTurk/v2_DepthDuration_HTML.html#126,126,1366,657,1366,768,8-21-2022,9-44-7,107,depth_duration_stimuli/000447_2014-06-08_16-15-46_260595134347_rgbf000130-resize_1/000447_2014-06-08_16-15-46_260595134347_rgbf000130-resize_1-target.png,125,4.479,25.0,3370,126,meters,jsons/VE125_randls_56_rotated.json,1134048,1392354,41,Woman
107,358793,DepthScenes,duration_manipulation_targetAtFixation,jsons/VE125_randls_56_rotated.json,http://54.235.29.9/FacialAge/BNav_EC2/DepthDuration/v2_depth_duration_MTurk/v2_DepthDuration_HTML.html#126,126,1366,657,1366,768,8-21-2022,9-44-7,108,depth_duration_stimuli/000854_2014-06-09_19-43-13_260595134347_rgbf000066-resize_0/000854_2014-06-09_19-43-13_260595134347_rgbf000066-resize_0-target.png,125,3.068,25.0,8091,125,meters,jsons/VE125_randls_56_rotated.json,1134048,1392354,41,Woman
108,358793,DepthScenes,duration_manipulation_targetAtFixation,jsons/VE125_randls_56_rotated.json,http://54.235.29.9/FacialAge/BNav_EC2/DepthDuration/v2_depth_duration_MTurk/v2_DepthDuration_HTML.html#126,126,1366,657,1366,768,8-21-2022,9-44-7,109,depth_duration_stimuli/000758_2014-06-08_22-05-08_260595134347_rgbf000085-resize_0/000758_2014-06-08_22-05-08_260595134347_rgbf000085-resize_0-target.png,125,3.3810000000000002,20.0,16808,125,meters,jsons/VE125_randls_56_rotated.json,1134048,1392354,41,Woman
109,358793,DepthScenes,duration_manipulation_targetAtFixation,jsons/VE125_randls_56_rotated.json,http://54.235.29.9/FacialAge/BNav_EC2/DepthDuration/v2_depth_duration_MTurk/v2_DepthDuration_HTML.html#126,126,1366,657,1366,768,8-21-2022,9-44-7,110,depth_duration_stimuli/000780_2014-06-08_22-28-29_260595134347_rgbf000126-resize_1/000780_2014-06-08_22-28-29_260595134347_rgbf000126-resize_1-target.png,125,3.3825,50.0,10281,126,meters,jsons/VE125_randls_56_rotated.json,1134048,1392354,41,Woman
110,358793,DepthScenes,duration_manipulation_targetAtFixation,jsons/VE125_randls_56_rotated.json,http://54.235.29.9/FacialAge/BNav_EC2/DepthDuration/v2_depth_duration_MTurk/v2_DepthDuration_HTML.html#126,126,1366,657,1366,768,8-21-2022,9-44-7,111,depth_duration_stimuli/002445_2014-06-28_20-32-16_260595134347_rgbf000029-resize_4/002445_2014-06-28_20-32-16_260595134347_rgbf000029-resize_4-target.png,125,2.5315,25.0,4026,125,meters,jsons/VE125_randls_56_rotated.json,1134048,1392354,41,Woman
111,358793,DepthScenes,duration_manipulation_targetAtFixation,jsons/VE125_randls_56_rotated.json,http://54.235.29.9/FacialAge/BNav_EC2/DepthDuration/v2_depth_duration_MTurk/v2_DepthDuration_HTML.html#126,126,1366,657,1366,768,8-21-2022,9-44-7,112,depth_duration_stimuli/001032_2014-06-08_13-23-17_260595134347_rgbf000021-resize_3/001032_2014-06-08_13-23-17_260595134347_rgbf000021-resize_3-target.png,125,3.2725,20.0,2619,125,meters,jsons/VE125_randls_56_rotated.json,1134048,1392354,41,Woman
112,358793,DepthScenes,duration_manipulation_targetAtFixation,jsons/VE125_randls_56_rotated.json,http://54.235.29.9/FacialAge/BNav_EC2/DepthDuration/v2_depth_duration_MTurk/v2_DepthDuration_HTML.html#126,126,1366,657,1366,768,8-21-2022,9-44-7,113,depth_duration_stimuli/001059_2014-06-08_21-53-27_260595134347_rgbf000061-resize_4/001059_2014-06-08_21-53-27_260595134347_rgbf000061-resize_4-target.png,125,2.4185,30.0,2777,126,meters,jsons/VE125_randls_56_rotated.json,1134048,1392354,41,Woman
113,358793,DepthScenes,duration_manipulation_targetAtFixation,jsons/VE125_randls_56_rotated.json,http://54.235.29.9/FacialAge/BNav_EC2/DepthDuration/v2_depth_duration_MTurk/v2_DepthDuration_HTML.html#126,126,1366,657,1366,768,8-21-2022,9-44-7,114,depth_duration_stimuli/003587_2014-05-23_16-48-02_094959634447_rgbf002384-resize_2/003587_2014-05-23_16-48-02_094959634447_rgbf002384-resize_2-target.png,125,1.357,0.3,5645,125,meters,jsons/VE125_randls_56_rotated.json,1134048,1392354,41,Woman
114,358793,DepthScenes,duration_manipulation_targetAtFixation,jsons/VE125_randls_56_rotated.json,http://54.235.29.9/FacialAge/BNav_EC2/DepthDuration/v2_depth_duration_MTurk/v2_DepthDuration_HTML.html#126,126,1366,657,1366,768,8-21-2022,9-44-7,115,depth_duration_stimuli/001167_2014-06-17_15-38-07_260595134347_rgbf000108-resize_0/001167_2014-06-17_15-38-07_260595134347_rgbf000108-resize_0-target.png,125,1.8505,25.0,5626,124,meters,jsons/VE125_randls_56_rotated.json,1134048,1392354,41,Woman
115,358793,DepthScenes,duration_manipulation_targetAtFixation,jsons/VE125_randls_56_rotated.json,http://54.235.29.9/FacialAge/BNav_EC2/DepthDuration/v2_depth_duration_MTurk/v2_DepthDuration_HTML.html#126,126,1366,657,1366,768,8-21-2022,9-44-7,116,depth_duration_stimuli/000457_2014-06-08_16-52-43_260595134347_rgbf000199-resize_1/000457_2014-06-08_16-52-43_260595134347_rgbf000199-resize_1-target.png,125,3.6489999999999996,15.0,2907,125,meters,jsons/VE125_randls_56_rotated.json,1134048,1392354,41,Woman
116,358793,DepthScenes,duration_manipulation_targetAtFixation,jsons/VE125_randls_56_rotated.json,http://54.235.29.9/FacialAge/BNav_EC2/DepthDuration/v2_depth_duration_MTurk/v2_DepthDuration_HTML.html#126,126,1366,657,1366,768,8-21-2022,9-44-7,117,depth_duration_stimuli/000929_2014-06-09_16-33-19_260595134347_rgbf000139-resize_0/000929_2014-06-09_16-33-19_260595134347_rgbf000139-resize_0-target.png,125,2.8680000000000003,20.0,4936,125,meters,jsons/VE125_randls_56_rotated.json,1134048,1392354,41,Woman
117,358793,DepthScenes,duration_manipulation_targetAtFixation,jsons/VE125_randls_56_rotated.json,http://54.235.29.9/FacialAge/BNav_EC2/DepthDuration/v2_depth_duration_MTurk/v2_DepthDuration_HTML.html#126,126,1366,657,1366,768,8-21-2022,9-44-7,118,depth_duration_stimuli/002660_2014-06-13_15-44-18_094959634447_rgbf001878-resize_2/002660_2014-06-13_15-44-18_094959634447_rgbf001878-resize_2-target.png,125,3.576,50.0,2939,126,meters,jsons/VE125_randls_56_rotated.json,1134048,1392354,41,Woman
118,358793,DepthScenes,duration_manipulation_targetAtFixation,jsons/VE125_randls_56_rotated.json,http://54.235.29.9/FacialAge/BNav_EC2/DepthDuration/v2_depth_duration_MTurk/v2_DepthDuration_HTML.html#126,126,1366,657,1366,768,8-21-2022,9-44-7,119,depth_duration_stimuli/002153_2014-06-25_21-27-18_260595134347_rgbf000038-resize_5/002153_2014-06-25_21-27-18_260595134347_rgbf000038-resize_5-target.png,125,2.505,25.0,2442,126,meters,jsons/VE125_randls_56_rotated.json,1134048,1392354,41,Woman
119,358793,DepthScenes,duration_manipulation_targetAtFixation,jsons/VE125_randls_56_rotated.json,http://54.235.29.9/FacialAge/BNav_EC2/DepthDuration/v2_depth_duration_MTurk/v2_DepthDuration_HTML.html#126,126,1366,657,1366,768,8-21-2022,9-44-7,120,depth_duration_stimuli/000787_2014-06-08_22-33-53_260595134347_rgbf000175-resize_1/000787_2014-06-08_22-33-53_260595134347_rgbf000175-resize-original.jpg,125,4.784,20.0,2506,124,meters,jsons/VE125_randls_56_rotated.json,1134048,1392354,41,Woman
120,358793,DepthScenes,duration_manipulation_targetAtFixation,jsons/VE125_randls_56_rotated.json,http://54.235.29.9/FacialAge/BNav_EC2/DepthDuration/v2_depth_duration_MTurk/v2_DepthDuration_HTML.html#126,126,1366,657,1366,768,8-21-2022,9-44-7,121,depth_duration_stimuli/002953_2014-06-08_17-32-18_094959634447_rgbf000059-resize_5/002953_2014-06-08_17-32-18_094959634447_rgbf000059-resize_5-target.png,125,1.551,20.0,2769,125,meters,jsons/VE125_randls_56_rotated.json,1134048,1392354,41,Woman
121,358793,DepthScenes,duration_manipulation_targetAtFixation,jsons/VE125_randls_56_rotated.json,http://54.235.29.9/FacialAge/BNav_EC2/DepthDuration/v2_depth_duration_MTurk/v2_DepthDuration_HTML.html#126,126,1366,657,1366,768,8-21-2022,9-44-7,122,depth_duration_stimuli/000878_2014-06-08_22-52-45_260595134347_rgbf000045-resize_2/000878_2014-06-08_22-52-45_260595134347_rgbf000045-resize_2-target.png,125,2.092,25.0,2837,124,meters,jsons/VE125_randls_56_rotated.json,1134048,1392354,41,Woman
122,358793,DepthScenes,duration_manipulation_targetAtFixation,jsons/VE125_randls_56_rotated.json,http://54.235.29.9/FacialAge/BNav_EC2/DepthDuration/v2_depth_duration_MTurk/v2_DepthDuration_HTML.html#126,126,1366,657,1366,768,8-21-2022,9-44-7,123,depth_duration_stimuli/003423_2014-05-21_10-23-26_094959634447_rgbf002665-resize_2/003423_2014-05-21_10-23-26_094959634447_rgbf002665-resize_2-target.png,125,3.2575,30.0,4188,124,meters,jsons/VE125_randls_56_rotated.json,1134048,1392354,41,Woman
123,358793,DepthScenes,duration_manipulation_targetAtFixation,jsons/VE125_randls_56_rotated.json,http://54.235.29.9/FacialAge/BNav_EC2/DepthDuration/v2_depth_duration_MTurk/v2_DepthDuration_HTML.html#126,126,1366,657,1366,768,8-21-2022,9-44-7,124,depth_duration_stimuli/002905_2014-06-03_18-04-43_094959634447_rgbf000151-resize_2/002905_2014-06-03_18-04-43_094959634447_rgbf000151-resize_2-target.png,125,2.0295,20.0,3657,124,meters,jsons/VE125_randls_56_rotated.json,1134048,1392354,41,Woman
124,358793,DepthScenes,duration_manipulation_targetAtFixation,jsons/VE125_randls_56_rotated.json,http://54.235.29.9/FacialAge/BNav_EC2/DepthDuration/v2_depth_duration_MTurk/v2_DepthDuration_HTML.html#126,126,1366,657,1366,768,8-21-2022,9-44-7,125,depth_duration_stimuli/000191_2014-05-12_17-07-38_260595134347_rgbf000199-resize_0/000191_2014-05-12_17-07-38_260595134347_rgbf000199-resize_0-target.png,125,3.7995,25.0,3451,125,meters,jsons/VE125_randls_56_rotated.json,1134048,1392354,41,Woman
125,358793,DepthScenes,duration_manipulation_targetAtFixation,jsons/VE125_randls_56_rotated.json,http://54.235.29.9/FacialAge/BNav_EC2/DepthDuration/v2_depth_duration_MTurk/v2_DepthDuration_HTML.html#126,126,1366,657,1366,768,8-21-2022,9-44-7,126,depth_duration_stimuli/000493_2014-06-09_21-01-18_260595134347_rgbf000196-resize_3/000493_2014-06-09_21-01-18_260595134347_rgbf000196-resize_3-target.png,125,3.44,30.0,2522,124,meters,jsons/VE125_randls_56_rotated.json,1134048,1392354,41,Woman
126,358793,DepthScenes,duration_manipulation_targetAtFixation,jsons/VE125_randls_56_rotated.json,http://54.235.29.9/FacialAge/BNav_EC2/DepthDuration/v2_depth_duration_MTurk/v2_DepthDuration_HTML.html#126,126,1366,657,1366,768,8-21-2022,9-44-7,127,depth_duration_stimuli/001571_2014-06-20_17-21-32_260595134347_rgbf000089-resize_1/001571_2014-06-20_17-21-32_260595134347_rgbf000089-resize_1-target.png,125,1.86,35.0,4587,124,meters,jsons/VE125_randls_56_rotated.json,1134048,1392354,41,Woman
127,358793,DepthScenes,duration_manipulation_targetAtFixation,jsons/VE125_randls_56_rotated.json,http://54.235.29.9/FacialAge/BNav_EC2/DepthDuration/v2_depth_duration_MTurk/v2_DepthDuration_HTML.html#126,126,1366,657,1366,768,8-21-2022,9-44-7,128,depth_duration_stimuli/002272_2014-06-28_18-53-56_260595134347_rgbf000067-resize_2/002272_2014-06-28_18-53-56_260595134347_rgbf000067-resize_2-target.png,125,1.138,25.0,2586,124,meters,jsons/VE125_randls_56_rotated.json,1134048,1392354,41,Woman
128,358793,DepthScenes,duration_manipulation_targetAtFixation,jsons/VE125_randls_56_rotated.json,http://54.235.29.9/FacialAge/BNav_EC2/DepthDuration/v2_depth_duration_MTurk/v2_DepthDuration_HTML.html#126,126,1366,657,1366,768,8-21-2022,9-44-7,129,depth_duration_stimuli/002568_2014-06-24_13-59-21_094959634447_rgbf000062-resize_4/002568_2014-06-24_13-59-21_094959634447_rgbf000062-resize_4-target.png,125,3.015,15.0,2876,125,meters,jsons/VE125_randls_56_rotated.json,1134048,1392354,41,Woman
129,358793,DepthScenes,duration_manipulation_targetAtFixation,jsons/VE125_randls_56_rotated.json,http://54.235.29.9/FacialAge/BNav_EC2/DepthDuration/v2_depth_duration_MTurk/v2_DepthDuration_HTML.html#126,126,1366,657,1366,768,8-21-2022,9-44-7,130,depth_duration_stimuli/003492_2014-05-21_15-50-55_094959634447_rgbf000828-resize_1/003492_2014-05-21_15-50-55_094959634447_rgbf000828-resize_1-target.png,125,4.06875,26.0,3547,124,meters,jsons/VE125_randls_56_rotated.json,1134048,1392354,41,Woman
130,358793,DepthScenes,duration_manipulation_targetAtFixation,jsons/VE125_randls_56_rotated.json,http://54.235.29.9/FacialAge/BNav_EC2/DepthDuration/v2_depth_duration_MTurk/v2_DepthDuration_HTML.html#126,126,1366,657,1366,768,8-21-2022,9-44-7,131,depth_duration_stimuli/000549_2014-06-08_22-10-24_260595134347_rgbf000247-resize_3/000549_2014-06-08_22-10-24_260595134347_rgbf000247-resize_3-target.png,125,1.841,50.0,8649,125,meters,jsons/VE125_randls_56_rotated.json,1134048,1392354,41,Woman
131,358793,DepthScenes,duration_manipulation_targetAtFixation,jsons/VE125_randls_56_rotated.json,http://54.235.29.9/FacialAge/BNav_EC2/DepthDuration/v2_depth_duration_MTurk/v2_DepthDuration_HTML.html#126,126,1366,657,1366,768,8-21-2022,9-44-7,132,depth_duration_stimuli/001055_2014-06-08_18-45-35_260595134347_rgbf000111-resize_4/001055_2014-06-08_18-45-35_260595134347_rgbf000111-resize_4-target.png,125,2.4290000000000003,22.0,2972,124,meters,jsons/VE125_randls_56_rotated.json,1134048,1392354,41,Woman
132,358793,DepthScenes,duration_manipulation_targetAtFixation,jsons/VE125_randls_56_rotated.json,http://54.235.29.9/FacialAge/BNav_EC2/DepthDuration/v2_depth_duration_MTurk/v2_DepthDuration_HTML.html#126,126,1366,657,1366,768,8-21-2022,9-44-7,133,depth_duration_stimuli/002323_2014-06-28_20-01-54_260595134347_rgbf000051-resize_4/002323_2014-06-28_20-01-54_260595134347_rgbf000051-resize_4-target.png,125,3.7310000000000003,20.0,2777,124,meters,jsons/VE125_randls_56_rotated.json,1134048,1392354,41,Woman
133,358793,DepthScenes,duration_manipulation_targetAtFixation,jsons/VE125_randls_56_rotated.json,http://54.235.29.9/FacialAge/BNav_EC2/DepthDuration/v2_depth_duration_MTurk/v2_DepthDuration_HTML.html#126,126,1366,657,1366,768,8-21-2022,9-44-7,134,depth_duration_stimuli/000917_2014-06-09_22-45-29_260595134347_rgbf000149-resize_3/000917_2014-06-09_22-45-29_260595134347_rgbf000149-resize_3-target.png,125,4.1865,25.0,2650,124,meters,jsons/VE125_randls_56_rotated.json,1134048,1392354,41,Woman
134,358793,DepthScenes,duration_manipulation_targetAtFixation,jsons/VE125_randls_56_rotated.json,http://54.235.29.9/FacialAge/BNav_EC2/DepthDuration/v2_depth_duration_MTurk/v2_DepthDuration_HTML.html#126,126,1366,657,1366,768,8-21-2022,9-44-7,135,depth_duration_stimuli/000375_2014-06-08_11-17-29_260595134347_rgbf000133-resize_2/000375_2014-06-08_11-17-29_260595134347_rgbf000133-resize-original.jpg,125,4.718,15.0,3354,124,meters,jsons/VE125_randls_56_rotated.json,1134048,1392354,41,Woman
135,358793,DepthScenes,duration_manipulation_targetAtFixation,jsons/VE125_randls_56_rotated.json,http://54.235.29.9/FacialAge/BNav_EC2/DepthDuration/v2_depth_duration_MTurk/v2_DepthDuration_HTML.html#126,126,1366,657,1366,768,8-21-2022,9-44-7,136,depth_duration_stimuli/001828_2014-06-26_21-40-03_260595134347_rgbf000024-resize_0/001828_2014-06-26_21-40-03_260595134347_rgbf000024-resize_0-target.png,125,4.8260000000000005,25.0,2313,124,meters,jsons/VE125_randls_56_rotated.json,1134048,1392354,41,Woman
136,358793,DepthScenes,duration_manipulation_targetAtFixation,jsons/VE125_randls_56_rotated.json,http://54.235.29.9/FacialAge/BNav_EC2/DepthDuration/v2_depth_duration_MTurk/v2_DepthDuration_HTML.html#126,126,1366,657,1366,768,8-21-2022,9-44-7,137,depth_duration_stimuli/000009_2014-05-26_14-32-05_260595134347_rgbf000034-resize_3/000009_2014-05-26_14-32-05_260595134347_rgbf000034-resize_3-target.png,125,3.8715,30.0,2650,123,meters,jsons/VE125_randls_56_rotated.json,1134048,1392354,41,Woman
137,358793,DepthScenes,duration_manipulation_targetAtFixation,jsons/VE125_randls_56_rotated.json,http://54.235.29.9/FacialAge/BNav_EC2/DepthDuration/v2_depth_duration_MTurk/v2_DepthDuration_HTML.html#126,126,1366,657,1366,768,8-21-2022,9-44-7,138,depth_duration_stimuli/001100_2014-06-15_17-46-26_260595134347_rgbf000225-resize_2/001100_2014-06-15_17-46-26_260595134347_rgbf000225-resize_2-target.png,125,2.24,15.0,3915,125,meters,jsons/VE125_randls_56_rotated.json,1134048,1392354,41,Woman
138,358793,DepthScenes,duration_manipulation_targetAtFixation,jsons/VE125_randls_56_rotated.json,http://54.235.29.9/FacialAge/BNav_EC2/DepthDuration/v2_depth_duration_MTurk/v2_DepthDuration_HTML.html#126,126,1366,657,1366,768,8-21-2022,9-44-7,139,depth_duration_stimuli/002784_2014-06-22_19-26-30_094959634447_rgbf000083-resize_3/002784_2014-06-22_19-26-30_094959634447_rgbf000083-resize_3-target.png,125,1.8046666666667,25.0,4394,125,meters,jsons/VE125_randls_56_rotated.json,1134048,1392354,41,Woman
139,358793,DepthScenes,duration_manipulation_targetAtFixation,jsons/VE125_randls_56_rotated.json,http://54.235.29.9/FacialAge/BNav_EC2/DepthDuration/v2_depth_duration_MTurk/v2_DepthDuration_HTML.html#126,126,1366,657,1366,768,8-21-2022,9-44-7,140,depth_duration_stimuli/002103_2014-06-25_20-00-40_260595134347_rgbf000049-resize_0/002103_2014-06-25_20-00-40_260595134347_rgbf000049-resize_0-target.png,125,4.105,15.0,2875,124,meters,jsons/VE125_randls_56_rotated.json,1134048,1392354,41,Woman
140,358793,DepthScenes,duration_manipulation_targetAtFixation,jsons/VE125_randls_56_rotated.json,http://54.235.29.9/FacialAge/BNav_EC2/DepthDuration/v2_depth_duration_MTurk/v2_DepthDuration_HTML.html#126,126,1366,657,1366,768,8-21-2022,9-44-7,141,depth_duration_stimuli/002039_2014-06-24_20-22-38_260595134347_rgbf000084-resize_1/002039_2014-06-24_20-22-38_260595134347_rgbf000084-resize_1-target.png,125,4.408,25.0,4154,124,meters,jsons/VE125_randls_56_rotated.json,1134048,1392354,41,Woman
141,358793,DepthScenes,duration_manipulation_targetAtFixation,jsons/VE125_randls_56_rotated.json,http://54.235.29.9/FacialAge/BNav_EC2/DepthDuration/v2_depth_duration_MTurk/v2_DepthDuration_HTML.html#126,126,1366,657,1366,768,8-21-2022,9-44-7,142,depth_duration_stimuli/002639_2014-06-24_14-51-37_094959634447_rgbf000074-resize_4/002639_2014-06-24_14-51-37_094959634447_rgbf000074-resize_4-target.png,125,4.0375,25.0,4489,125,meters,jsons/VE125_randls_56_rotated.json,1134048,1392354,41,Woman
142,358793,DepthScenes,duration_manipulation_targetAtFixation,jsons/VE125_randls_56_rotated.json,http://54.235.29.9/FacialAge/BNav_EC2/DepthDuration/v2_depth_duration_MTurk/v2_DepthDuration_HTML.html#126,126,1366,657,1366,768,8-21-2022,9-44-7,143,depth_duration_stimuli/003292_2014-05-14_21-53-49_094959634447_rgbf000100-resize_2/003292_2014-05-14_21-53-49_094959634447_rgbf000100-resize_2-target.png,125,3.4815,30.0,2620,123,meters,jsons/VE125_randls_56_rotated.json,1134048,1392354,41,Woman
143,358793,DepthScenes,duration_manipulation_targetAtFixation,jsons/VE125_randls_56_rotated.json,http://54.235.29.9/FacialAge/BNav_EC2/DepthDuration/v2_depth_duration_MTurk/v2_DepthDuration_HTML.html#126,126,1366,657,1366,768,8-21-2022,9-44-7,144,depth_duration_stimuli/000109_2014-05-14_23-41-52_260595134347_rgbf000035-resize_9/000109_2014-05-14_23-41-52_260595134347_rgbf000035-resize_9-target.png,125,1.3545,35.0,2988,124,meters,jsons/VE125_randls_56_rotated.json,1134048,1392354,41,Woman
144,358793,DepthScenes,duration_manipulation_targetAtFixation,jsons/VE125_randls_56_rotated.json,http://54.235.29.9/FacialAge/BNav_EC2/DepthDuration/v2_depth_duration_MTurk/v2_DepthDuration_HTML.html#126,126,1366,657,1366,768,8-21-2022,9-44-7,145,depth_duration_stimuli/000470_2014-06-09_19-42-40_260595134347_rgbf000094-resize_1/000470_2014-06-09_19-42-40_260595134347_rgbf000094-resize_1-target.png,125,1.831,30.0,2810,124,meters,jsons/VE125_randls_56_rotated.json,1134048,1392354,41,Woman
145,358793,DepthScenes,duration_manipulation_targetAtFixation,jsons/VE125_randls_56_rotated.json,http://54.235.29.9/FacialAge/BNav_EC2/DepthDuration/v2_depth_duration_MTurk/v2_DepthDuration_HTML.html#126,126,1366,657,1366,768,8-21-2022,9-44-7,146,depth_duration_stimuli/001094_2014-06-15_17-36-00_260595134347_rgbf000205-resize_0/001094_2014-06-15_17-36-00_260595134347_rgbf000205-resize_0-target.png,125,4.2175,25.0,2537,125,meters,jsons/VE125_randls_56_rotated.json,1134048,1392354,41,Woman
146,358793,DepthScenes,duration_manipulation_targetAtFixation,jsons/VE125_randls_56_rotated.json,http://54.235.29.9/FacialAge/BNav_EC2/DepthDuration/v2_depth_duration_MTurk/v2_DepthDuration_HTML.html#126,126,1366,657,1366,768,8-21-2022,9-44-7,147,depth_duration_stimuli/000692_2014-06-08_13-09-42_260595134347_rgbf000199-resize_2/000692_2014-06-08_13-09-42_260595134347_rgbf000199-resize_2-target.png,125,3.661,35.0,4138,124,meters,jsons/VE125_randls_56_rotated.json,1134048,1392354,41,Woman
147,358793,DepthScenes,duration_manipulation_targetAtFixation,jsons/VE125_randls_56_rotated.json,http://54.235.29.9/FacialAge/BNav_EC2/DepthDuration/v2_depth_duration_MTurk/v2_DepthDuration_HTML.html#126,126,1366,657,1366,768,8-21-2022,9-44-7,148,depth_duration_stimuli/000556_2014-06-09_22-42-56_260595134347_rgbf000214-resize_1/000556_2014-06-09_22-42-56_260595134347_rgbf000214-resize_1-target.png,125,4.8415,20.0,3801,125,meters,jsons/VE125_randls_56_rotated.json,1134048,1392354,41,Woman
148,358793,DepthScenes,duration_manipulation_targetAtFixation,jsons/VE125_randls_56_rotated.json,http://54.235.29.9/FacialAge/BNav_EC2/DepthDuration/v2_depth_duration_MTurk/v2_DepthDuration_HTML.html#126,126,1366,657,1366,768,8-21-2022,9-44-7,149,depth_duration_stimuli/001158_2014-06-17_15-32-16_260595134347_rgbf000138-resize_2/001158_2014-06-17_15-32-16_260595134347_rgbf000138-resize_2-target.png,125,4.5315,35.0,3418,125,meters,jsons/VE125_randls_56_rotated.json,1134048,1392354,41,Woman
149,358793,DepthScenes,duration_manipulation_targetAtFixation,jsons/VE125_randls_56_rotated.json,http://54.235.29.9/FacialAge/BNav_EC2/DepthDuration/v2_depth_duration_MTurk/v2_DepthDuration_HTML.html#126,126,1366,657,1366,768,8-21-2022,9-44-7,150,depth_duration_stimuli/003010_2014-06-15_12-54-35_094959634447_rgbf000112-resize_0/003010_2014-06-15_12-54-35_094959634447_rgbf000112-resize_0-target.png,125,3.1185,20.0,3082,125,meters,jsons/VE125_randls_56_rotated.json,1134048,1392354,41,Woman
150,358793,DepthScenes,duration_manipulation_targetAtFixation,jsons/VE125_randls_56_rotated.json,http://54.235.29.9/FacialAge/BNav_EC2/DepthDuration/v2_depth_duration_MTurk/v2_DepthDuration_HTML.html#126,126,1366,657,1366,768,8-21-2022,9-44-7,151,depth_duration_stimuli/001810_2014-06-26_20-51-35_260595134347_rgbf000040-resize_3/001810_2014-06-26_20-51-35_260595134347_rgbf000040-resize_3-target.png,125,2.2525,50.0,3595,123,meters,jsons/VE125_randls_56_rotated.json,1134048,1392354,41,Woman
151,358793,DepthScenes,duration_manipulation_targetAtFixation,jsons/VE125_randls_56_rotated.json,http://54.235.29.9/FacialAge/BNav_EC2/DepthDuration/v2_depth_duration_MTurk/v2_DepthDuration_HTML.html#126,126,1366,657,1366,768,8-21-2022,9-44-7,152,depth_duration_stimuli/000569_2014-06-09_22-51-47_260595134347_rgbf000141-resize_3/000569_2014-06-09_22-51-47_260595134347_rgbf000141-resize-original.jpg,125,4.512,25.0,4729,124,meters,jsons/VE125_randls_56_rotated.json,1134048,1392354,41,Woman
152,358793,DepthScenes,duration_manipulation_targetAtFixation,jsons/VE125_randls_56_rotated.json,http://54.235.29.9/FacialAge/BNav_EC2/DepthDuration/v2_depth_duration_MTurk/v2_DepthDuration_HTML.html#126,126,1366,657,1366,768,8-21-2022,9-44-7,153,depth_duration_stimuli/002136_2014-06-25_21-18-03_260595134347_rgbf000109-resize_3/002136_2014-06-25_21-18-03_260595134347_rgbf000109-resize_3-target.png,125,1.9569999999999999,25.0,5084,125,meters,jsons/VE125_randls_56_rotated.json,1134048,1392354,41,Woman
153,358793,DepthScenes,duration_manipulation_targetAtFixation,jsons/VE125_randls_56_rotated.json,http://54.235.29.9/FacialAge/BNav_EC2/DepthDuration/v2_depth_duration_MTurk/v2_DepthDuration_HTML.html#126,126,1366,657,1366,768,8-21-2022,9-44-7,154,depth_duration_stimuli/002964_2014-06-08_17-46-11_094959634447_rgbf000091-resize_4/002964_2014-06-08_17-46-11_094959634447_rgbf000091-resize_4-target.png,125,1.6909999999999998,35.0,3273,126,meters,jsons/VE125_randls_56_rotated.json,1134048,1392354,41,Woman
154,358793,DepthScenes,duration_manipulation_targetAtFixation,jsons/VE125_randls_56_rotated.json,http://54.235.29.9/FacialAge/BNav_EC2/DepthDuration/v2_depth_duration_MTurk/v2_DepthDuration_HTML.html#126,126,1366,657,1366,768,8-21-2022,9-44-7,155,depth_duration_stimuli/002209_2014-06-28_18-36-10_260595134347_rgbf000051-resize_1/002209_2014-06-28_18-36-10_260595134347_rgbf000051-resize_1-target.png,125,2.057,30.0,3066,125,meters,jsons/VE125_randls_56_rotated.json,1134048,1392354,41,Woman
155,358793,DepthScenes,duration_manipulation_targetAtFixation,jsons/VE125_randls_56_rotated.json,http://54.235.29.9/FacialAge/BNav_EC2/DepthDuration/v2_depth_duration_MTurk/v2_DepthDuration_HTML.html#126,126,1366,657,1366,768,8-21-2022,9-44-7,156,depth_duration_stimuli/002763_2014-06-22_19-13-10_094959634447_rgbf000075-resize_4/002763_2014-06-22_19-13-10_094959634447_rgbf000075-resize_4-target.png,125,1.68375,0.0,3339,125,meters,jsons/VE125_randls_56_rotated.json,1134048,1392354,41,Woman
156,358793,DepthScenes,duration_manipulation_targetAtFixation,jsons/VE125_randls_56_rotated.json,http://54.235.29.9/FacialAge/BNav_EC2/DepthDuration/v2_depth_duration_MTurk/v2_DepthDuration_HTML.html#126,126,1366,657,1366,768,8-21-2022,9-44-7,157,depth_duration_stimuli/000103_2014-05-14_22-01-17_260595134347_rgbf000152-resize_5/000103_2014-05-14_22-01-17_260595134347_rgbf000152-resize_5-target.png,125,1.993,25.0,3897,124,meters,jsons/VE125_randls_56_rotated.json,1134048,1392354,41,Woman
157,358793,DepthScenes,duration_manipulation_targetAtFixation,jsons/VE125_randls_56_rotated.json,http://54.235.29.9/FacialAge/BNav_EC2/DepthDuration/v2_depth_duration_MTurk/v2_DepthDuration_HTML.html#126,126,1366,657,1366,768,8-21-2022,9-44-7,158,depth_duration_stimuli/001555_2014-06-20_17-12-10_260595134347_rgbf000065-resize_4/001555_2014-06-20_17-12-10_260595134347_rgbf000065-resize_4-target.png,125,1.633,35.0,2830,125,meters,jsons/VE125_randls_56_rotated.json,1134048,1392354,41,Woman
158,358793,DepthScenes,duration_manipulation_targetAtFixation,jsons/VE125_randls_56_rotated.json,http://54.235.29.9/FacialAge/BNav_EC2/DepthDuration/v2_depth_duration_MTurk/v2_DepthDuration_HTML.html#126,126,1366,657,1366,768,8-21-2022,9-44-7,159,depth_duration_stimuli/000677_2014-06-08_23-10-32_260595134347_rgbf000158-resize_6/000677_2014-06-08_23-10-32_260595134347_rgbf000158-resize_6-target.png,125,3.556,25.0,3370,125,meters,jsons/VE125_randls_56_rotated.json,1134048,1392354,41,Woman
159,358793,DepthScenes,duration_manipulation_targetAtFixation,jsons/VE125_randls_56_rotated.json,http://54.235.29.9/FacialAge/BNav_EC2/DepthDuration/v2_depth_duration_MTurk/v2_DepthDuration_HTML.html#126,126,1366,657,1366,768,8-21-2022,9-44-7,160,depth_duration_stimuli/001029_2014-06-08_13-17-57_260595134347_rgbf000065-resize_1/001029_2014-06-08_13-17-57_260595134347_rgbf000065-resize_1-target.png,125,3.0835,15.0,3115,124,meters,jsons/VE125_randls_56_rotated.json,1134048,1392354,41,Woman
160,358793,DepthScenes,duration_manipulation_targetAtFixation,jsons/VE125_randls_56_rotated.json,http://54.235.29.9/FacialAge/BNav_EC2/DepthDuration/v2_depth_duration_MTurk/v2_DepthDuration_HTML.html#126,126,1366,657,1366,768,8-21-2022,9-44-7,161,depth_duration_stimuli/003129_2014-05-12_10-48-10_094959634447_rgbf000100-resize_0/003129_2014-05-12_10-48-10_094959634447_rgbf000100-resize_0-target.png,125,4.9305,20.0,2682,124,meters,jsons/VE125_randls_56_rotated.json,1134048,1392354,41,Woman
161,358793,DepthScenes,duration_manipulation_targetAtFixation,jsons/VE125_randls_56_rotated.json,http://54.235.29.9/FacialAge/BNav_EC2/DepthDuration/v2_depth_duration_MTurk/v2_DepthDuration_HTML.html#126,126,1366,657,1366,768,8-21-2022,9-44-7,162,depth_duration_stimuli/000414_2014-06-04_19-49-13_260595134347_rgbf000044-resize_0/000414_2014-06-04_19-49-13_260595134347_rgbf000044-resize_0-target.png,125,4.329,25.0,2570,124,meters,jsons/VE125_randls_56_rotated.json,1134048,1392354,41,Woman
162,358793,DepthScenes,duration_manipulation_targetAtFixation,jsons/VE125_randls_56_rotated.json,http://54.235.29.9/FacialAge/BNav_EC2/DepthDuration/v2_depth_duration_MTurk/v2_DepthDuration_HTML.html#126,126,1366,657,1366,768,8-21-2022,9-44-7,163,depth_duration_stimuli/002340_2014-06-28_20-05-46_260595134347_rgbf000113-resize_0/002340_2014-06-28_20-05-46_260595134347_rgbf000113-resize_0-target.png,125,2.4735,35.0,2906,125,meters,jsons/VE125_randls_56_rotated.json,1134048,1392354,41,Woman
163,358793,DepthScenes,duration_manipulation_targetAtFixation,jsons/VE125_randls_56_rotated.json,http://54.235.29.9/FacialAge/BNav_EC2/DepthDuration/v2_depth_duration_MTurk/v2_DepthDuration_HTML.html#126,126,1366,657,1366,768,8-21-2022,9-44-7,164,depth_duration_stimuli/001016_2014-06-09_16-16-10_260595134347_rgbf000112-resize_5/001016_2014-06-09_16-16-10_260595134347_rgbf000112-resize_5-target.png,125,1.6565,35.0,3242,125,meters,jsons/VE125_randls_56_rotated.json,1134048,1392354,41,Woman
