,subjID,experimentName,versionName,sequenceName,url,selected_row,windowWidth,windowHeight,screenWidth,screenHeight,startDate,startTime,trial,stimulus,duration,actual_depth,depth_estimate,trial_RT,log_sceneDuration,unitSelection,seq_filepath,experimentTime,totalTime,age,gender
0,360771,DepthScenes,duration_manipulation_targetAtFixation,jsons/VE125_randls_72.json,http://54.235.29.9/FacialAge/BNav_EC2/DepthDuration/v2_depth_duration_MTurk/v2_DepthDuration_HTML.html#126,126,1280,609,1280,720,9-3-2022,9-11-20,1,depth_duration_stimuli/001449_2014-06-19_17-01-27_260595134347_rgbf000116-resize_2/001449_2014-06-19_17-01-27_260595134347_rgbf000116-resize_2-target.png,125,3.452,6,7060,124,feet,jsons/VE125_randls_72.json,1090787,2635581,31,Woman
1,360771,DepthScenes,duration_manipulation_targetAtFixation,jsons/VE125_randls_72.json,http://54.235.29.9/FacialAge/BNav_EC2/DepthDuration/v2_depth_duration_MTurk/v2_DepthDuration_HTML.html#126,126,1280,609,1280,720,9-3-2022,9-11-20,2,depth_duration_stimuli/001450_2014-06-19_17-02-03_260595134347_rgbf000203-resize_4/001450_2014-06-19_17-02-03_260595134347_rgbf000203-resize_4-target.png,125,4.0106666666667,0,5218,122,feet,jsons/VE125_randls_72.json,1090787,2635581,31,Woman
2,360771,DepthScenes,duration_manipulation_targetAtFixation,jsons/VE125_randls_72.json,http://54.235.29.9/FacialAge/BNav_EC2/DepthDuration/v2_depth_duration_MTurk/v2_DepthDuration_HTML.html#126,126,1280,609,1280,720,9-3-2022,9-11-20,3,depth_duration_stimuli/001199_2014-06-17_16-03-48_260595134347_rgbf000077-resize_0/001199_2014-06-17_16-03-48_260595134347_rgbf000077-resize_0-target.png,125,3.4375,7,2972,132,feet,jsons/VE125_randls_72.json,1090787,2635581,31,Woman
3,360771,DepthScenes,duration_manipulation_targetAtFixation,jsons/VE125_randls_72.json,http://54.235.29.9/FacialAge/BNav_EC2/DepthDuration/v2_depth_duration_MTurk/v2_DepthDuration_HTML.html#126,126,1280,609,1280,720,9-3-2022,9-11-20,4,depth_duration_stimuli/000502_2014-06-08_23-02-32_260595134347_rgbf000063-resize_4/000502_2014-06-08_23-02-32_260595134347_rgbf000063-resize_4-target.png,125,2.431,7,3031,122,feet,jsons/VE125_randls_72.json,1090787,2635581,31,Woman
4,360771,DepthScenes,duration_manipulation_targetAtFixation,jsons/VE125_randls_72.json,http://54.235.29.9/FacialAge/BNav_EC2/DepthDuration/v2_depth_duration_MTurk/v2_DepthDuration_HTML.html#126,126,1280,609,1280,720,9-3-2022,9-11-20,5,depth_duration_stimuli/000929_2014-06-09_16-33-19_260595134347_rgbf000139-resize_0/000929_2014-06-09_16-33-19_260595134347_rgbf000139-resize_0-target.png,125,2.8680000000000003,4,5032,137,feet,jsons/VE125_randls_72.json,1090787,2635581,31,Woman
5,360771,DepthScenes,duration_manipulation_targetAtFixation,jsons/VE125_randls_72.json,http://54.235.29.9/FacialAge/BNav_EC2/DepthDuration/v2_depth_duration_MTurk/v2_DepthDuration_HTML.html#126,126,1280,609,1280,720,9-3-2022,9-11-20,6,depth_duration_stimuli/000457_2014-06-08_16-52-43_260595134347_rgbf000199-resize_1/000457_2014-06-08_16-52-43_260595134347_rgbf000199-resize_1-target.png,125,3.6489999999999996,0,3981,123,feet,jsons/VE125_randls_72.json,1090787,2635581,31,Woman
6,360771,DepthScenes,duration_manipulation_targetAtFixation,jsons/VE125_randls_72.json,http://54.235.29.9/FacialAge/BNav_EC2/DepthDuration/v2_depth_duration_MTurk/v2_DepthDuration_HTML.html#126,126,1280,609,1280,720,9-3-2022,9-11-20,7,depth_duration_stimuli/000470_2014-06-09_19-42-40_260595134347_rgbf000094-resize_1/000470_2014-06-09_19-42-40_260595134347_rgbf000094-resize_1-target.png,125,1.831,6,100520,130,feet,jsons/VE125_randls_72.json,1090787,2635581,31,Woman
7,360771,DepthScenes,duration_manipulation_targetAtFixation,jsons/VE125_randls_72.json,http://54.235.29.9/FacialAge/BNav_EC2/DepthDuration/v2_depth_duration_MTurk/v2_DepthDuration_HTML.html#126,126,1280,609,1280,720,9-3-2022,9-11-20,8,depth_duration_stimuli/000109_2014-05-14_23-41-52_260595134347_rgbf000035-resize_9/000109_2014-05-14_23-41-52_260595134347_rgbf000035-resize_9-target.png,125,1.3545,4,3027,110,feet,jsons/VE125_randls_72.json,1090787,2635581,31,Woman
8,360771,DepthScenes,duration_manipulation_targetAtFixation,jsons/VE125_randls_72.json,http://54.235.29.9/FacialAge/BNav_EC2/DepthDuration/v2_depth_duration_MTurk/v2_DepthDuration_HTML.html#126,126,1280,609,1280,720,9-3-2022,9-11-20,9,depth_duration_stimuli/001150_2014-06-17_15-27-34_260595134347_rgbf000108-resize_2/001150_2014-06-17_15-27-34_260595134347_rgbf000108-resize_2-target.png,125,4.0325,0,3020,129,feet,jsons/VE125_randls_72.json,1090787,2635581,31,Woman
9,360771,DepthScenes,duration_manipulation_targetAtFixation,jsons/VE125_randls_72.json,http://54.235.29.9/FacialAge/BNav_EC2/DepthDuration/v2_depth_duration_MTurk/v2_DepthDuration_HTML.html#126,126,1280,609,1280,720,9-3-2022,9-11-20,10,depth_duration_stimuli/000665_2014-06-09_20-42-35_260595134347_rgbf000110-resize_1/000665_2014-06-09_20-42-35_260595134347_rgbf000110-resize_1-target.png,125,3.057,8,2839,131,feet,jsons/VE125_randls_72.json,1090787,2635581,31,Woman
10,360771,DepthScenes,duration_manipulation_targetAtFixation,jsons/VE125_randls_72.json,http://54.235.29.9/FacialAge/BNav_EC2/DepthDuration/v2_depth_duration_MTurk/v2_DepthDuration_HTML.html#126,126,1280,609,1280,720,9-3-2022,9-11-20,11,depth_duration_stimuli/001016_2014-06-09_16-16-10_260595134347_rgbf000112-resize_5/001016_2014-06-09_16-16-10_260595134347_rgbf000112-resize_5-target.png,125,1.6565,9,3080,133,feet,jsons/VE125_randls_72.json,1090787,2635581,31,Woman
11,360771,DepthScenes,duration_manipulation_targetAtFixation,jsons/VE125_randls_72.json,http://54.235.29.9/FacialAge/BNav_EC2/DepthDuration/v2_depth_duration_MTurk/v2_DepthDuration_HTML.html#126,126,1280,609,1280,720,9-3-2022,9-11-20,12,depth_duration_stimuli/002340_2014-06-28_20-05-46_260595134347_rgbf000113-resize_0/002340_2014-06-28_20-05-46_260595134347_rgbf000113-resize_0-target.png,125,2.4735,6,2573,128,feet,jsons/VE125_randls_72.json,1090787,2635581,31,Woman
12,360771,DepthScenes,duration_manipulation_targetAtFixation,jsons/VE125_randls_72.json,http://54.235.29.9/FacialAge/BNav_EC2/DepthDuration/v2_depth_duration_MTurk/v2_DepthDuration_HTML.html#126,126,1280,609,1280,720,9-3-2022,9-11-20,13,depth_duration_stimuli/000569_2014-06-09_22-51-47_260595134347_rgbf000141-resize_3/000569_2014-06-09_22-51-47_260595134347_rgbf000141-resize-original.jpg,125,4.512,0,2850,118,feet,jsons/VE125_randls_72.json,1090787,2635581,31,Woman
13,360771,DepthScenes,duration_manipulation_targetAtFixation,jsons/VE125_randls_72.json,http://54.235.29.9/FacialAge/BNav_EC2/DepthDuration/v2_depth_duration_MTurk/v2_DepthDuration_HTML.html#126,126,1280,609,1280,720,9-3-2022,9-11-20,14,depth_duration_stimuli/003492_2014-05-21_15-50-55_094959634447_rgbf000828-resize_1/003492_2014-05-21_15-50-55_094959634447_rgbf000828-resize_1-target.png,125,4.06875,8,3012,126,feet,jsons/VE125_randls_72.json,1090787,2635581,31,Woman
14,360771,DepthScenes,duration_manipulation_targetAtFixation,jsons/VE125_randls_72.json,http://54.235.29.9/FacialAge/BNav_EC2/DepthDuration/v2_depth_duration_MTurk/v2_DepthDuration_HTML.html#126,126,1280,609,1280,720,9-3-2022,9-11-20,15,depth_duration_stimuli/002568_2014-06-24_13-59-21_094959634447_rgbf000062-resize_4/002568_2014-06-24_13-59-21_094959634447_rgbf000062-resize_4-target.png,125,3.015,7,2649,113,feet,jsons/VE125_randls_72.json,1090787,2635581,31,Woman
15,360771,DepthScenes,duration_manipulation_targetAtFixation,jsons/VE125_randls_72.json,http://54.235.29.9/FacialAge/BNav_EC2/DepthDuration/v2_depth_duration_MTurk/v2_DepthDuration_HTML.html#126,126,1280,609,1280,720,9-3-2022,9-11-20,16,depth_duration_stimuli/002784_2014-06-22_19-26-30_094959634447_rgbf000083-resize_3/002784_2014-06-22_19-26-30_094959634447_rgbf000083-resize_3-target.png,125,1.8046666666667,4,2833,136,feet,jsons/VE125_randls_72.json,1090787,2635581,31,Woman
16,360771,DepthScenes,duration_manipulation_targetAtFixation,jsons/VE125_randls_72.json,http://54.235.29.9/FacialAge/BNav_EC2/DepthDuration/v2_depth_duration_MTurk/v2_DepthDuration_HTML.html#126,126,1280,609,1280,720,9-3-2022,9-11-20,17,depth_duration_stimuli/001100_2014-06-15_17-46-26_260595134347_rgbf000225-resize_2/001100_2014-06-15_17-46-26_260595134347_rgbf000225-resize_2-target.png,125,2.24,6,2882,115,feet,jsons/VE125_randls_72.json,1090787,2635581,31,Woman
17,360771,DepthScenes,duration_manipulation_targetAtFixation,jsons/VE125_randls_72.json,http://54.235.29.9/FacialAge/BNav_EC2/DepthDuration/v2_depth_duration_MTurk/v2_DepthDuration_HTML.html#126,126,1280,609,1280,720,9-3-2022,9-11-20,18,depth_duration_stimuli/001175_2014-06-17_15-45-55_260595134347_rgbf000129-resize_4/001175_2014-06-17_15-45-55_260595134347_rgbf000129-resize_4-target.png,125,4.255,11,4940,122,feet,jsons/VE125_randls_72.json,1090787,2635581,31,Woman
18,360771,DepthScenes,duration_manipulation_targetAtFixation,jsons/VE125_randls_72.json,http://54.235.29.9/FacialAge/BNav_EC2/DepthDuration/v2_depth_duration_MTurk/v2_DepthDuration_HTML.html#126,126,1280,609,1280,720,9-3-2022,9-11-20,19,depth_duration_stimuli/003490_2014-05-21_15-50-11_094959634447_rgbf000101-resize_3/003490_2014-05-21_15-50-11_094959634447_rgbf000101-resize_3-target.png,125,3.6445,8,2606,126,feet,jsons/VE125_randls_72.json,1090787,2635581,31,Woman
19,360771,DepthScenes,duration_manipulation_targetAtFixation,jsons/VE125_randls_72.json,http://54.235.29.9/FacialAge/BNav_EC2/DepthDuration/v2_depth_duration_MTurk/v2_DepthDuration_HTML.html#126,126,1280,609,1280,720,9-3-2022,9-11-20,20,depth_duration_stimuli/001110_2014-06-15_17-25-28_260595134347_rgbf000150-resize_1/001110_2014-06-15_17-25-28_260595134347_rgbf000150-resize_1-target.png,125,1.7115,7,2626,125,feet,jsons/VE125_randls_72.json,1090787,2635581,31,Woman
20,360771,DepthScenes,duration_manipulation_targetAtFixation,jsons/VE125_randls_72.json,http://54.235.29.9/FacialAge/BNav_EC2/DepthDuration/v2_depth_duration_MTurk/v2_DepthDuration_HTML.html#126,126,1280,609,1280,720,9-3-2022,9-11-20,21,depth_duration_stimuli/000927_2014-06-09_16-32-30_260595134347_rgbf000123-resize_3/000927_2014-06-09_16-32-30_260595134347_rgbf000123-resize_3-target.png,125,2.6785,9,3008,128,feet,jsons/VE125_randls_72.json,1090787,2635581,31,Woman
21,360771,DepthScenes,duration_manipulation_targetAtFixation,jsons/VE125_randls_72.json,http://54.235.29.9/FacialAge/BNav_EC2/DepthDuration/v2_depth_duration_MTurk/v2_DepthDuration_HTML.html#126,126,1280,609,1280,720,9-3-2022,9-11-20,22,depth_duration_stimuli/002663_2014-06-13_15-50-26_094959634447_rgbf000075-resize_1/002663_2014-06-13_15-50-26_094959634447_rgbf000075-resize_1-target.png,125,4.7495,6,3078,132,feet,jsons/VE125_randls_72.json,1090787,2635581,31,Woman
22,360771,DepthScenes,duration_manipulation_targetAtFixation,jsons/VE125_randls_72.json,http://54.235.29.9/FacialAge/BNav_EC2/DepthDuration/v2_depth_duration_MTurk/v2_DepthDuration_HTML.html#126,126,1280,609,1280,720,9-3-2022,9-11-20,23,depth_duration_stimuli/000409_2014-06-04_19-23-33_260595134347_rgbf000067-resize_0/000409_2014-06-04_19-23-33_260595134347_rgbf000067-resize_0-target.png,125,3.7335,7,102730,123,feet,jsons/VE125_randls_72.json,1090787,2635581,31,Woman
23,360771,DepthScenes,duration_manipulation_targetAtFixation,jsons/VE125_randls_72.json,http://54.235.29.9/FacialAge/BNav_EC2/DepthDuration/v2_depth_duration_MTurk/v2_DepthDuration_HTML.html#126,126,1280,609,1280,720,9-3-2022,9-11-20,24,depth_duration_stimuli/000522_2014-06-08_13-35-06_260595134347_rgbf000244-resize_1/000522_2014-06-08_13-35-06_260595134347_rgbf000244-resize_1-target.png,125,2.3715,6,5120,127,feet,jsons/VE125_randls_72.json,1090787,2635581,31,Woman
24,360771,DepthScenes,duration_manipulation_targetAtFixation,jsons/VE125_randls_72.json,http://54.235.29.9/FacialAge/BNav_EC2/DepthDuration/v2_depth_duration_MTurk/v2_DepthDuration_HTML.html#126,126,1280,609,1280,720,9-3-2022,9-11-20,25,depth_duration_stimuli/002949_2014-06-26_15-57-42_094959634447_rgbf000079-resize_1/002949_2014-06-26_15-57-42_094959634447_rgbf000079-resize_1-target.png,125,1.8915,7,4163,121,feet,jsons/VE125_randls_72.json,1090787,2635581,31,Woman
25,360771,DepthScenes,duration_manipulation_targetAtFixation,jsons/VE125_randls_72.json,http://54.235.29.9/FacialAge/BNav_EC2/DepthDuration/v2_depth_duration_MTurk/v2_DepthDuration_HTML.html#126,126,1280,609,1280,720,9-3-2022,9-11-20,26,depth_duration_stimuli/001806_2014-06-26_20-50-20_260595134347_rgbf000091-resize_1/001806_2014-06-26_20-50-20_260595134347_rgbf000091-resize_1-target.png,125,2.7305,5,4541,122,feet,jsons/VE125_randls_72.json,1090787,2635581,31,Woman
26,360771,DepthScenes,duration_manipulation_targetAtFixation,jsons/VE125_randls_72.json,http://54.235.29.9/FacialAge/BNav_EC2/DepthDuration/v2_depth_duration_MTurk/v2_DepthDuration_HTML.html#126,126,1280,609,1280,720,9-3-2022,9-11-20,27,depth_duration_stimuli/001617_2014-06-20_11-35-32_260595134347_rgbf000066-resize_1/001617_2014-06-20_11-35-32_260595134347_rgbf000066-resize_1-target.png,125,3.7910000000000004,8,2758,128,feet,jsons/VE125_randls_72.json,1090787,2635581,31,Woman
27,360771,DepthScenes,duration_manipulation_targetAtFixation,jsons/VE125_randls_72.json,http://54.235.29.9/FacialAge/BNav_EC2/DepthDuration/v2_depth_duration_MTurk/v2_DepthDuration_HTML.html#126,126,1280,609,1280,720,9-3-2022,9-11-20,28,depth_duration_stimuli/000414_2014-06-04_19-49-13_260595134347_rgbf000044-resize_0/000414_2014-06-04_19-49-13_260595134347_rgbf000044-resize_0-target.png,125,4.329,7,2486,127,feet,jsons/VE125_randls_72.json,1090787,2635581,31,Woman
28,360771,DepthScenes,duration_manipulation_targetAtFixation,jsons/VE125_randls_72.json,http://54.235.29.9/FacialAge/BNav_EC2/DepthDuration/v2_depth_duration_MTurk/v2_DepthDuration_HTML.html#126,126,1280,609,1280,720,9-3-2022,9-11-20,29,depth_duration_stimuli/003129_2014-05-12_10-48-10_094959634447_rgbf000100-resize_0/003129_2014-05-12_10-48-10_094959634447_rgbf000100-resize_0-target.png,125,4.9305,4,3433,131,feet,jsons/VE125_randls_72.json,1090787,2635581,31,Woman
29,360771,DepthScenes,duration_manipulation_targetAtFixation,jsons/VE125_randls_72.json,http://54.235.29.9/FacialAge/BNav_EC2/DepthDuration/v2_depth_duration_MTurk/v2_DepthDuration_HTML.html#126,126,1280,609,1280,720,9-3-2022,9-11-20,30,depth_duration_stimuli/000375_2014-06-08_11-17-29_260595134347_rgbf000133-resize_2/000375_2014-06-08_11-17-29_260595134347_rgbf000133-resize-original.jpg,125,4.718,5,3839,123,feet,jsons/VE125_randls_72.json,1090787,2635581,31,Woman
30,360771,DepthScenes,duration_manipulation_targetAtFixation,jsons/VE125_randls_72.json,http://54.235.29.9/FacialAge/BNav_EC2/DepthDuration/v2_depth_duration_MTurk/v2_DepthDuration_HTML.html#126,126,1280,609,1280,720,9-3-2022,9-11-20,31,depth_duration_stimuli/001164_2014-06-17_15-35-46_260595134347_rgbf000085-resize_3/001164_2014-06-17_15-35-46_260595134347_rgbf000085-resize_3-target.png,125,2.354,8,2959,118,feet,jsons/VE125_randls_72.json,1090787,2635581,31,Woman
31,360771,DepthScenes,duration_manipulation_targetAtFixation,jsons/VE125_randls_72.json,http://54.235.29.9/FacialAge/BNav_EC2/DepthDuration/v2_depth_duration_MTurk/v2_DepthDuration_HTML.html#126,126,1280,609,1280,720,9-3-2022,9-11-20,32,depth_duration_stimuli/001136_2014-06-17_15-19-41_260595134347_rgbf000076-resize_3/001136_2014-06-17_15-19-41_260595134347_rgbf000076-resize_3-target.png,125,1.8655,5,4158,132,feet,jsons/VE125_randls_72.json,1090787,2635581,31,Woman
32,360771,DepthScenes,duration_manipulation_targetAtFixation,jsons/VE125_randls_72.json,http://54.235.29.9/FacialAge/BNav_EC2/DepthDuration/v2_depth_duration_MTurk/v2_DepthDuration_HTML.html#126,126,1280,609,1280,720,9-3-2022,9-11-20,33,depth_duration_stimuli/001808_2014-06-26_20-50-58_260595134347_rgbf000029-resize_1/001808_2014-06-26_20-50-58_260595134347_rgbf000029-resize_1-target.png,125,4.249,7,2873,126,feet,jsons/VE125_randls_72.json,1090787,2635581,31,Woman
33,360771,DepthScenes,duration_manipulation_targetAtFixation,jsons/VE125_randls_72.json,http://54.235.29.9/FacialAge/BNav_EC2/DepthDuration/v2_depth_duration_MTurk/v2_DepthDuration_HTML.html#126,126,1280,609,1280,720,9-3-2022,9-11-20,34,depth_duration_stimuli/001815_2014-06-26_20-52-55_260595134347_rgbf000020-resize_0/001815_2014-06-26_20-52-55_260595134347_rgbf000020-resize_0-target.png,125,3.3865,6,2617,122,feet,jsons/VE125_randls_72.json,1090787,2635581,31,Woman
34,360771,DepthScenes,duration_manipulation_targetAtFixation,jsons/VE125_randls_72.json,http://54.235.29.9/FacialAge/BNav_EC2/DepthDuration/v2_depth_duration_MTurk/v2_DepthDuration_HTML.html#126,126,1280,609,1280,720,9-3-2022,9-11-20,35,depth_duration_stimuli/000486_2014-06-09_20-47-20_260595134347_rgbf000143-resize_2/000486_2014-06-09_20-47-20_260595134347_rgbf000143-resize_2-target.png,125,4.8325,9,6427,120,feet,jsons/VE125_randls_72.json,1090787,2635581,31,Woman
35,360771,DepthScenes,duration_manipulation_targetAtFixation,jsons/VE125_randls_72.json,http://54.235.29.9/FacialAge/BNav_EC2/DepthDuration/v2_depth_duration_MTurk/v2_DepthDuration_HTML.html#126,126,1280,609,1280,720,9-3-2022,9-11-20,36,depth_duration_stimuli/003083_2014-06-15_15-21-03_094959634447_rgbf000063-resize_1/003083_2014-06-15_15-21-03_094959634447_rgbf000063-resize_1-target.png,125,4.1405,9,3887,132,feet,jsons/VE125_randls_72.json,1090787,2635581,31,Woman
36,360771,DepthScenes,duration_manipulation_targetAtFixation,jsons/VE125_randls_72.json,http://54.235.29.9/FacialAge/BNav_EC2/DepthDuration/v2_depth_duration_MTurk/v2_DepthDuration_HTML.html#126,126,1280,609,1280,720,9-3-2022,9-11-20,37,depth_duration_stimuli/001092_2014-06-15_17-34-58_260595134347_rgbf000171-resize_3/001092_2014-06-15_17-34-58_260595134347_rgbf000171-resize_3-target.png,125,2.6935,8,3002,115,feet,jsons/VE125_randls_72.json,1090787,2635581,31,Woman
37,360771,DepthScenes,duration_manipulation_targetAtFixation,jsons/VE125_randls_72.json,http://54.235.29.9/FacialAge/BNav_EC2/DepthDuration/v2_depth_duration_MTurk/v2_DepthDuration_HTML.html#126,126,1280,609,1280,720,9-3-2022,9-11-20,38,depth_duration_stimuli/002545_2014-06-24_13-38-53_094959634447_rgbf000080-resize_4/002545_2014-06-24_13-38-53_094959634447_rgbf000080-resize_4-target.png,125,1.9205,7,4040,127,feet,jsons/VE125_randls_72.json,1090787,2635581,31,Woman
38,360771,DepthScenes,duration_manipulation_targetAtFixation,jsons/VE125_randls_72.json,http://54.235.29.9/FacialAge/BNav_EC2/DepthDuration/v2_depth_duration_MTurk/v2_DepthDuration_HTML.html#126,126,1280,609,1280,720,9-3-2022,9-11-20,39,depth_duration_stimuli/000739_2014-06-08_18-45-58_260595134347_rgbf000068-resize_1/000739_2014-06-08_18-45-58_260595134347_rgbf000068-resize_1-target.png,125,3.534,8,114722,111,feet,jsons/VE125_randls_72.json,1090787,2635581,31,Woman
39,360771,DepthScenes,duration_manipulation_targetAtFixation,jsons/VE125_randls_72.json,http://54.235.29.9/FacialAge/BNav_EC2/DepthDuration/v2_depth_duration_MTurk/v2_DepthDuration_HTML.html#126,126,1280,609,1280,720,9-3-2022,9-11-20,40,depth_duration_stimuli/000734_2014-06-08_17-39-11_260595134347_rgbf000128-resize_2/000734_2014-06-08_17-39-11_260595134347_rgbf000128-resize_2-target.png,125,4.098,9,14373,123,feet,jsons/VE125_randls_72.json,1090787,2635581,31,Woman
40,360771,DepthScenes,duration_manipulation_targetAtFixation,jsons/VE125_randls_72.json,http://54.235.29.9/FacialAge/BNav_EC2/DepthDuration/v2_depth_duration_MTurk/v2_DepthDuration_HTML.html#126,126,1280,609,1280,720,9-3-2022,9-11-20,41,depth_duration_stimuli/001167_2014-06-17_15-38-07_260595134347_rgbf000108-resize_0/001167_2014-06-17_15-38-07_260595134347_rgbf000108-resize_0-target.png,125,1.8505,7,8034,135,feet,jsons/VE125_randls_72.json,1090787,2635581,31,Woman
41,360771,DepthScenes,duration_manipulation_targetAtFixation,jsons/VE125_randls_72.json,http://54.235.29.9/FacialAge/BNav_EC2/DepthDuration/v2_depth_duration_MTurk/v2_DepthDuration_HTML.html#126,126,1280,609,1280,720,9-3-2022,9-11-20,42,depth_duration_stimuli/003587_2014-05-23_16-48-02_094959634447_rgbf002384-resize_2/003587_2014-05-23_16-48-02_094959634447_rgbf002384-resize_2-target.png,125,1.357,7,2765,131,feet,jsons/VE125_randls_72.json,1090787,2635581,31,Woman
42,360771,DepthScenes,duration_manipulation_targetAtFixation,jsons/VE125_randls_72.json,http://54.235.29.9/FacialAge/BNav_EC2/DepthDuration/v2_depth_duration_MTurk/v2_DepthDuration_HTML.html#126,126,1280,609,1280,720,9-3-2022,9-11-20,43,depth_duration_stimuli/002213_2014-06-28_18-37-58_260595134347_rgbf000055-resize_1/002213_2014-06-28_18-37-58_260595134347_rgbf000055-resize_1-target.png,125,3.62,9,2738,117,feet,jsons/VE125_randls_72.json,1090787,2635581,31,Woman
43,360771,DepthScenes,duration_manipulation_targetAtFixation,jsons/VE125_randls_72.json,http://54.235.29.9/FacialAge/BNav_EC2/DepthDuration/v2_depth_duration_MTurk/v2_DepthDuration_HTML.html#126,126,1280,609,1280,720,9-3-2022,9-11-20,44,depth_duration_stimuli/000691_2014-06-08_13-08-50_260595134347_rgbf000132-resize_3/000691_2014-06-08_13-08-50_260595134347_rgbf000132-resize_3-target.png,125,4.1530000000000005,7,2938,120,feet,jsons/VE125_randls_72.json,1090787,2635581,31,Woman
44,360771,DepthScenes,duration_manipulation_targetAtFixation,jsons/VE125_randls_72.json,http://54.235.29.9/FacialAge/BNav_EC2/DepthDuration/v2_depth_duration_MTurk/v2_DepthDuration_HTML.html#126,126,1280,609,1280,720,9-3-2022,9-11-20,45,depth_duration_stimuli/000787_2014-06-08_22-33-53_260595134347_rgbf000175-resize_1/000787_2014-06-08_22-33-53_260595134347_rgbf000175-resize-original.jpg,125,4.784,6,6441,131,feet,jsons/VE125_randls_72.json,1090787,2635581,31,Woman
45,360771,DepthScenes,duration_manipulation_targetAtFixation,jsons/VE125_randls_72.json,http://54.235.29.9/FacialAge/BNav_EC2/DepthDuration/v2_depth_duration_MTurk/v2_DepthDuration_HTML.html#126,126,1280,609,1280,720,9-3-2022,9-11-20,46,depth_duration_stimuli/000788_2014-06-08_22-34-36_260595134347_rgbf000131-resize_1/000788_2014-06-08_22-34-36_260595134347_rgbf000131-resize_1-target.png,125,3.359,6,6376,109,feet,jsons/VE125_randls_72.json,1090787,2635581,31,Woman
46,360771,DepthScenes,duration_manipulation_targetAtFixation,jsons/VE125_randls_72.json,http://54.235.29.9/FacialAge/BNav_EC2/DepthDuration/v2_depth_duration_MTurk/v2_DepthDuration_HTML.html#126,126,1280,609,1280,720,9-3-2022,9-11-20,47,depth_duration_stimuli/001235_2014-06-17_16-37-36_260595134347_rgbf000084-resize_4/001235_2014-06-17_16-37-36_260595134347_rgbf000084-resize_4-target.png,125,3.6605,9,2541,120,feet,jsons/VE125_randls_72.json,1090787,2635581,31,Woman
47,360771,DepthScenes,duration_manipulation_targetAtFixation,jsons/VE125_randls_72.json,http://54.235.29.9/FacialAge/BNav_EC2/DepthDuration/v2_depth_duration_MTurk/v2_DepthDuration_HTML.html#126,126,1280,609,1280,720,9-3-2022,9-11-20,48,depth_duration_stimuli/001056_2014-06-08_18-46-44_260595134347_rgbf000068-resize_0/001056_2014-06-08_18-46-44_260595134347_rgbf000068-resize_0-target.png,125,2.6625,8,3416,117,feet,jsons/VE125_randls_72.json,1090787,2635581,31,Woman
48,360771,DepthScenes,duration_manipulation_targetAtFixation,jsons/VE125_randls_72.json,http://54.235.29.9/FacialAge/BNav_EC2/DepthDuration/v2_depth_duration_MTurk/v2_DepthDuration_HTML.html#126,126,1280,609,1280,720,9-3-2022,9-11-20,49,depth_duration_stimuli/002199_2014-06-28_18-33-56_260595134347_rgbf000074-resize_0/002199_2014-06-28_18-33-56_260595134347_rgbf000074-resize_0-target.png,125,1.996,9,2735,111,feet,jsons/VE125_randls_72.json,1090787,2635581,31,Woman
49,360771,DepthScenes,duration_manipulation_targetAtFixation,jsons/VE125_randls_72.json,http://54.235.29.9/FacialAge/BNav_EC2/DepthDuration/v2_depth_duration_MTurk/v2_DepthDuration_HTML.html#126,126,1280,609,1280,720,9-3-2022,9-11-20,50,depth_duration_stimuli/000878_2014-06-08_22-52-45_260595134347_rgbf000045-resize_2/000878_2014-06-08_22-52-45_260595134347_rgbf000045-resize_2-target.png,125,2.092,9,2537,123,feet,jsons/VE125_randls_72.json,1090787,2635581,31,Woman
50,360771,DepthScenes,duration_manipulation_targetAtFixation,jsons/VE125_randls_72.json,http://54.235.29.9/FacialAge/BNav_EC2/DepthDuration/v2_depth_duration_MTurk/v2_DepthDuration_HTML.html#126,126,1280,609,1280,720,9-3-2022,9-11-20,51,depth_duration_stimuli/002953_2014-06-08_17-32-18_094959634447_rgbf000059-resize_5/002953_2014-06-08_17-32-18_094959634447_rgbf000059-resize_5-target.png,125,1.551,9,2682,124,feet,jsons/VE125_randls_72.json,1090787,2635581,31,Woman
51,360771,DepthScenes,duration_manipulation_targetAtFixation,jsons/VE125_randls_72.json,http://54.235.29.9/FacialAge/BNav_EC2/DepthDuration/v2_depth_duration_MTurk/v2_DepthDuration_HTML.html#126,126,1280,609,1280,720,9-3-2022,9-11-20,52,depth_duration_stimuli/000493_2014-06-09_21-01-18_260595134347_rgbf000196-resize_3/000493_2014-06-09_21-01-18_260595134347_rgbf000196-resize_3-target.png,125,3.44,7,4076,126,feet,jsons/VE125_randls_72.json,1090787,2635581,31,Woman
52,360771,DepthScenes,duration_manipulation_targetAtFixation,jsons/VE125_randls_72.json,http://54.235.29.9/FacialAge/BNav_EC2/DepthDuration/v2_depth_duration_MTurk/v2_DepthDuration_HTML.html#126,126,1280,609,1280,720,9-3-2022,9-11-20,53,depth_duration_stimuli/000191_2014-05-12_17-07-38_260595134347_rgbf000199-resize_0/000191_2014-05-12_17-07-38_260595134347_rgbf000199-resize_0-target.png,125,3.7995,9,2576,134,feet,jsons/VE125_randls_72.json,1090787,2635581,31,Woman
53,360771,DepthScenes,duration_manipulation_targetAtFixation,jsons/VE125_randls_72.json,http://54.235.29.9/FacialAge/BNav_EC2/DepthDuration/v2_depth_duration_MTurk/v2_DepthDuration_HTML.html#126,126,1280,609,1280,720,9-3-2022,9-11-20,54,depth_duration_stimuli/002549_2014-06-24_13-41-39_094959634447_rgbf000022-resize_3/002549_2014-06-24_13-41-39_094959634447_rgbf000022-resize_3-target.png,125,1.476,9,2583,131,feet,jsons/VE125_randls_72.json,1090787,2635581,31,Woman
54,360771,DepthScenes,duration_manipulation_targetAtFixation,jsons/VE125_randls_72.json,http://54.235.29.9/FacialAge/BNav_EC2/DepthDuration/v2_depth_duration_MTurk/v2_DepthDuration_HTML.html#126,126,1280,609,1280,720,9-3-2022,9-11-20,55,depth_duration_stimuli/002750_2014-06-22_19-08-03_094959634447_rgbf000094-resize_4/002750_2014-06-22_19-08-03_094959634447_rgbf000094-resize_4-target.png,125,2.354,6,3914,126,feet,jsons/VE125_randls_72.json,1090787,2635581,31,Woman
55,360771,DepthScenes,duration_manipulation_targetAtFixation,jsons/VE125_randls_72.json,http://54.235.29.9/FacialAge/BNav_EC2/DepthDuration/v2_depth_duration_MTurk/v2_DepthDuration_HTML.html#126,126,1280,609,1280,720,9-3-2022,9-11-20,56,depth_duration_stimuli/002964_2014-06-08_17-46-11_094959634447_rgbf000091-resize_4/002964_2014-06-08_17-46-11_094959634447_rgbf000091-resize_4-target.png,125,1.6909999999999998,7,2921,125,feet,jsons/VE125_randls_72.json,1090787,2635581,31,Woman
56,360771,DepthScenes,duration_manipulation_targetAtFixation,jsons/VE125_randls_72.json,http://54.235.29.9/FacialAge/BNav_EC2/DepthDuration/v2_depth_duration_MTurk/v2_DepthDuration_HTML.html#126,126,1280,609,1280,720,9-3-2022,9-11-20,57,depth_duration_stimuli/002136_2014-06-25_21-18-03_260595134347_rgbf000109-resize_3/002136_2014-06-25_21-18-03_260595134347_rgbf000109-resize_3-target.png,125,1.9569999999999999,9,19258,127,feet,jsons/VE125_randls_72.json,1090787,2635581,31,Woman
57,360771,DepthScenes,duration_manipulation_targetAtFixation,jsons/VE125_randls_72.json,http://54.235.29.9/FacialAge/BNav_EC2/DepthDuration/v2_depth_duration_MTurk/v2_DepthDuration_HTML.html#126,126,1280,609,1280,720,9-3-2022,9-11-20,58,depth_duration_stimuli/000682_2014-06-08_23-14-58_260595134347_rgbf000041-resize_5/000682_2014-06-08_23-14-58_260595134347_rgbf000041-resize_5-target.png,125,2.7239999999999998,7,3598,120,feet,jsons/VE125_randls_72.json,1090787,2635581,31,Woman
58,360771,DepthScenes,duration_manipulation_targetAtFixation,jsons/VE125_randls_72.json,http://54.235.29.9/FacialAge/BNav_EC2/DepthDuration/v2_depth_duration_MTurk/v2_DepthDuration_HTML.html#126,126,1280,609,1280,720,9-3-2022,9-11-20,59,depth_duration_stimuli/001650_2014-06-20_12-09-00_260595134347_rgbf000087-resize_3/001650_2014-06-20_12-09-00_260595134347_rgbf000087-resize_3-target.png,125,1.9505,9,4937,133,feet,jsons/VE125_randls_72.json,1090787,2635581,31,Woman
59,360771,DepthScenes,duration_manipulation_targetAtFixation,jsons/VE125_randls_72.json,http://54.235.29.9/FacialAge/BNav_EC2/DepthDuration/v2_depth_duration_MTurk/v2_DepthDuration_HTML.html#126,126,1280,609,1280,720,9-3-2022,9-11-20,60,depth_duration_stimuli/001570_2014-06-20_17-21-09_260595134347_rgbf000135-resize_4/001570_2014-06-20_17-21-09_260595134347_rgbf000135-resize_4-target.png,125,4.467,7,2963,123,feet,jsons/VE125_randls_72.json,1090787,2635581,31,Woman
60,360771,DepthScenes,duration_manipulation_targetAtFixation,jsons/VE125_randls_72.json,http://54.235.29.9/FacialAge/BNav_EC2/DepthDuration/v2_depth_duration_MTurk/v2_DepthDuration_HTML.html#126,126,1280,609,1280,720,9-3-2022,9-11-20,61,depth_duration_stimuli/001392_2014-06-19_16-07-59_260595134347_rgbf000046-resize_1/001392_2014-06-19_16-07-59_260595134347_rgbf000046-resize_1-target.png,125,4.135,8,2738,115,feet,jsons/VE125_randls_72.json,1090787,2635581,31,Woman
61,360771,DepthScenes,duration_manipulation_targetAtFixation,jsons/VE125_randls_72.json,http://54.235.29.9/FacialAge/BNav_EC2/DepthDuration/v2_depth_duration_MTurk/v2_DepthDuration_HTML.html#126,126,1280,609,1280,720,9-3-2022,9-11-20,62,depth_duration_stimuli/002988_2014-06-15_12-24-20_094959634447_rgbf000150-resize_1/002988_2014-06-15_12-24-20_094959634447_rgbf000150-resize_1-target.png,125,4.7669999999999995,5,3709,56,feet,jsons/VE125_randls_72.json,1090787,2635581,31,Woman
62,360771,DepthScenes,duration_manipulation_targetAtFixation,jsons/VE125_randls_72.json,http://54.235.29.9/FacialAge/BNav_EC2/DepthDuration/v2_depth_duration_MTurk/v2_DepthDuration_HTML.html#126,126,1280,609,1280,720,9-3-2022,9-11-20,63,depth_duration_stimuli/001052_2014-06-08_18-24-54_260595134347_rgbf000130-resize_1/001052_2014-06-08_18-24-54_260595134347_rgbf000130-resize_1-target.png,125,4.1045,8,4259,132,feet,jsons/VE125_randls_72.json,1090787,2635581,31,Woman
63,360771,DepthScenes,duration_manipulation_targetAtFixation,jsons/VE125_randls_72.json,http://54.235.29.9/FacialAge/BNav_EC2/DepthDuration/v2_depth_duration_MTurk/v2_DepthDuration_HTML.html#126,126,1280,609,1280,720,9-3-2022,9-11-20,64,depth_duration_stimuli/002748_2014-06-22_19-07-22_094959634447_rgbf000078-resize_1/002748_2014-06-22_19-07-22_094959634447_rgbf000078-resize_1-target.png,125,4.6705,8,4738,119,feet,jsons/VE125_randls_72.json,1090787,2635581,31,Woman
64,360771,DepthScenes,duration_manipulation_targetAtFixation,jsons/VE125_randls_72.json,http://54.235.29.9/FacialAge/BNav_EC2/DepthDuration/v2_depth_duration_MTurk/v2_DepthDuration_HTML.html#126,126,1280,609,1280,720,9-3-2022,9-11-20,65,depth_duration_stimuli/002995_2014-06-15_12-31-26_094959634447_rgbf000150-resize_1/002995_2014-06-15_12-31-26_094959634447_rgbf000150-resize_1-target.png,125,3.8360000000000003,6,4285,121,feet,jsons/VE125_randls_72.json,1090787,2635581,31,Woman
65,360771,DepthScenes,duration_manipulation_targetAtFixation,jsons/VE125_randls_72.json,http://54.235.29.9/FacialAge/BNav_EC2/DepthDuration/v2_depth_duration_MTurk/v2_DepthDuration_HTML.html#126,126,1280,609,1280,720,9-3-2022,9-11-20,66,depth_duration_stimuli/001222_2014-06-17_16-24-06_260595134347_rgbf000073-resize_0/001222_2014-06-17_16-24-06_260595134347_rgbf000073-resize-original.jpg,125,1.4385,7,3065,120,feet,jsons/VE125_randls_72.json,1090787,2635581,31,Woman
66,360771,DepthScenes,duration_manipulation_targetAtFixation,jsons/VE125_randls_72.json,http://54.235.29.9/FacialAge/BNav_EC2/DepthDuration/v2_depth_duration_MTurk/v2_DepthDuration_HTML.html#126,126,1280,609,1280,720,9-3-2022,9-11-20,67,depth_duration_stimuli/002725_2014-06-22_11-47-51_094959634447_rgbf000070-resize_1/002725_2014-06-22_11-47-51_094959634447_rgbf000070-resize_1-target.png,125,2.195,6,2710,138,feet,jsons/VE125_randls_72.json,1090787,2635581,31,Woman
67,360771,DepthScenes,duration_manipulation_targetAtFixation,jsons/VE125_randls_72.json,http://54.235.29.9/FacialAge/BNav_EC2/DepthDuration/v2_depth_duration_MTurk/v2_DepthDuration_HTML.html#126,126,1280,609,1280,720,9-3-2022,9-11-20,68,depth_duration_stimuli/002344_2014-06-28_20-06-29_260595134347_rgbf000030-resize_1/002344_2014-06-28_20-06-29_260595134347_rgbf000030-resize_1-target.png,125,1.5795,7,2828,121,feet,jsons/VE125_randls_72.json,1090787,2635581,31,Woman
68,360771,DepthScenes,duration_manipulation_targetAtFixation,jsons/VE125_randls_72.json,http://54.235.29.9/FacialAge/BNav_EC2/DepthDuration/v2_depth_duration_MTurk/v2_DepthDuration_HTML.html#126,126,1280,609,1280,720,9-3-2022,9-11-20,69,depth_duration_stimuli/003621_2014-05-23_18-06-08_094959634447_rgbf000101-resize_1/003621_2014-05-23_18-06-08_094959634447_rgbf000101-resize_1-target.png,125,3.9835,5,2545,134,feet,jsons/VE125_randls_72.json,1090787,2635581,31,Woman
69,360771,DepthScenes,duration_manipulation_targetAtFixation,jsons/VE125_randls_72.json,http://54.235.29.9/FacialAge/BNav_EC2/DepthDuration/v2_depth_duration_MTurk/v2_DepthDuration_HTML.html#126,126,1280,609,1280,720,9-3-2022,9-11-20,70,depth_duration_stimuli/001584_2014-06-20_11-07-43_260595134347_rgbf000002-resize_1/001584_2014-06-20_11-07-43_260595134347_rgbf000002-resize_1-target.png,125,3.53,9,2941,115,feet,jsons/VE125_randls_72.json,1090787,2635581,31,Woman
70,360771,DepthScenes,duration_manipulation_targetAtFixation,jsons/VE125_randls_72.json,http://54.235.29.9/FacialAge/BNav_EC2/DepthDuration/v2_depth_duration_MTurk/v2_DepthDuration_HTML.html#126,126,1280,609,1280,720,9-3-2022,9-11-20,71,depth_duration_stimuli/001059_2014-06-08_21-53-27_260595134347_rgbf000061-resize_4/001059_2014-06-08_21-53-27_260595134347_rgbf000061-resize_4-target.png,125,2.4185,9,3406,132,feet,jsons/VE125_randls_72.json,1090787,2635581,31,Woman
71,360771,DepthScenes,duration_manipulation_targetAtFixation,jsons/VE125_randls_72.json,http://54.235.29.9/FacialAge/BNav_EC2/DepthDuration/v2_depth_duration_MTurk/v2_DepthDuration_HTML.html#126,126,1280,609,1280,720,9-3-2022,9-11-20,72,depth_duration_stimuli/001032_2014-06-08_13-23-17_260595134347_rgbf000021-resize_3/001032_2014-06-08_13-23-17_260595134347_rgbf000021-resize_3-target.png,125,3.2725,8,2638,113,feet,jsons/VE125_randls_72.json,1090787,2635581,31,Woman
72,360771,DepthScenes,duration_manipulation_targetAtFixation,jsons/VE125_randls_72.json,http://54.235.29.9/FacialAge/BNav_EC2/DepthDuration/v2_depth_duration_MTurk/v2_DepthDuration_HTML.html#126,126,1280,609,1280,720,9-3-2022,9-11-20,73,depth_duration_stimuli/000009_2014-05-26_14-32-05_260595134347_rgbf000034-resize_3/000009_2014-05-26_14-32-05_260595134347_rgbf000034-resize_3-target.png,125,3.8715,7,2494,118,feet,jsons/VE125_randls_72.json,1090787,2635581,31,Woman
73,360771,DepthScenes,duration_manipulation_targetAtFixation,jsons/VE125_randls_72.json,http://54.235.29.9/FacialAge/BNav_EC2/DepthDuration/v2_depth_duration_MTurk/v2_DepthDuration_HTML.html#126,126,1280,609,1280,720,9-3-2022,9-11-20,74,depth_duration_stimuli/001828_2014-06-26_21-40-03_260595134347_rgbf000024-resize_0/001828_2014-06-26_21-40-03_260595134347_rgbf000024-resize_0-target.png,125,4.8260000000000005,8,3854,125,feet,jsons/VE125_randls_72.json,1090787,2635581,31,Woman
74,360771,DepthScenes,duration_manipulation_targetAtFixation,jsons/VE125_randls_72.json,http://54.235.29.9/FacialAge/BNav_EC2/DepthDuration/v2_depth_duration_MTurk/v2_DepthDuration_HTML.html#126,126,1280,609,1280,720,9-3-2022,9-11-20,75,depth_duration_stimuli/000642_2014-06-08_16-59-25_260595134347_rgbf000098-resize_2/000642_2014-06-08_16-59-25_260595134347_rgbf000098-resize_2-target.png,125,2.8815,5,4613,131,feet,jsons/VE125_randls_72.json,1090787,2635581,31,Woman
75,360771,DepthScenes,duration_manipulation_targetAtFixation,jsons/VE125_randls_72.json,http://54.235.29.9/FacialAge/BNav_EC2/DepthDuration/v2_depth_duration_MTurk/v2_DepthDuration_HTML.html#126,126,1280,609,1280,720,9-3-2022,9-11-20,76,depth_duration_stimuli/002425_2014-06-28_20-27-29_260595134347_rgbf000031-resize_8/002425_2014-06-28_20-27-29_260595134347_rgbf000031-resize_8-target.png,125,3.8960000000000004,6,3558,126,feet,jsons/VE125_randls_72.json,1090787,2635581,31,Woman
76,360771,DepthScenes,duration_manipulation_targetAtFixation,jsons/VE125_randls_72.json,http://54.235.29.9/FacialAge/BNav_EC2/DepthDuration/v2_depth_duration_MTurk/v2_DepthDuration_HTML.html#126,126,1280,609,1280,720,9-3-2022,9-11-20,77,depth_duration_stimuli/002630_2014-06-24_14-47-50_094959634447_rgbf000055-resize_1/002630_2014-06-24_14-47-50_094959634447_rgbf000055-resize_1-target.png,125,3.0095,9,3114,120,feet,jsons/VE125_randls_72.json,1090787,2635581,31,Woman
77,360771,DepthScenes,duration_manipulation_targetAtFixation,jsons/VE125_randls_72.json,http://54.235.29.9/FacialAge/BNav_EC2/DepthDuration/v2_depth_duration_MTurk/v2_DepthDuration_HTML.html#126,126,1280,609,1280,720,9-3-2022,9-11-20,78,depth_duration_stimuli/002758_2014-06-22_19-11-20_094959634447_rgbf000128-resize_1/002758_2014-06-22_19-11-20_094959634447_rgbf000128-resize_1-target.png,125,2.555,7,2601,133,feet,jsons/VE125_randls_72.json,1090787,2635581,31,Woman
78,360771,DepthScenes,duration_manipulation_targetAtFixation,jsons/VE125_randls_72.json,http://54.235.29.9/FacialAge/BNav_EC2/DepthDuration/v2_depth_duration_MTurk/v2_DepthDuration_HTML.html#126,126,1280,609,1280,720,9-3-2022,9-11-20,79,depth_duration_stimuli/002118_2014-06-25_20-32-08_260595134347_rgbf000078-resize_1/002118_2014-06-25_20-32-08_260595134347_rgbf000078-resize_1-target.png,125,2.6460000000000004,8,2550,125,feet,jsons/VE125_randls_72.json,1090787,2635581,31,Woman
79,360771,DepthScenes,duration_manipulation_targetAtFixation,jsons/VE125_randls_72.json,http://54.235.29.9/FacialAge/BNav_EC2/DepthDuration/v2_depth_duration_MTurk/v2_DepthDuration_HTML.html#126,126,1280,609,1280,720,9-3-2022,9-11-20,80,depth_duration_stimuli/001516_2014-06-20_16-25-09_260595134347_rgbf000076-resize_2/001516_2014-06-20_16-25-09_260595134347_rgbf000076-resize_2-target.png,125,1.7445,9,2947,120,feet,jsons/VE125_randls_72.json,1090787,2635581,31,Woman
80,360771,DepthScenes,duration_manipulation_targetAtFixation,jsons/VE125_randls_72.json,http://54.235.29.9/FacialAge/BNav_EC2/DepthDuration/v2_depth_duration_MTurk/v2_DepthDuration_HTML.html#126,126,1280,609,1280,720,9-3-2022,9-11-20,81,depth_duration_stimuli/001555_2014-06-20_17-12-10_260595134347_rgbf000065-resize_4/001555_2014-06-20_17-12-10_260595134347_rgbf000065-resize_4-target.png,125,1.633,7,2615,118,feet,jsons/VE125_randls_72.json,1090787,2635581,31,Woman
81,360771,DepthScenes,duration_manipulation_targetAtFixation,jsons/VE125_randls_72.json,http://54.235.29.9/FacialAge/BNav_EC2/DepthDuration/v2_depth_duration_MTurk/v2_DepthDuration_HTML.html#126,126,1280,609,1280,720,9-3-2022,9-11-20,82,depth_duration_stimuli/000103_2014-05-14_22-01-17_260595134347_rgbf000152-resize_5/000103_2014-05-14_22-01-17_260595134347_rgbf000152-resize_5-target.png,125,1.993,9,2532,123,feet,jsons/VE125_randls_72.json,1090787,2635581,31,Woman
82,360771,DepthScenes,duration_manipulation_targetAtFixation,jsons/VE125_randls_72.json,http://54.235.29.9/FacialAge/BNav_EC2/DepthDuration/v2_depth_duration_MTurk/v2_DepthDuration_HTML.html#126,126,1280,609,1280,720,9-3-2022,9-11-20,83,depth_duration_stimuli/001029_2014-06-08_13-17-57_260595134347_rgbf000065-resize_1/001029_2014-06-08_13-17-57_260595134347_rgbf000065-resize_1-target.png,125,3.0835,9,2586,138,feet,jsons/VE125_randls_72.json,1090787,2635581,31,Woman
83,360771,DepthScenes,duration_manipulation_targetAtFixation,jsons/VE125_randls_72.json,http://54.235.29.9/FacialAge/BNav_EC2/DepthDuration/v2_depth_duration_MTurk/v2_DepthDuration_HTML.html#126,126,1280,609,1280,720,9-3-2022,9-11-20,84,depth_duration_stimuli/000677_2014-06-08_23-10-32_260595134347_rgbf000158-resize_6/000677_2014-06-08_23-10-32_260595134347_rgbf000158-resize_6-target.png,125,3.556,7,3112,131,feet,jsons/VE125_randls_72.json,1090787,2635581,31,Woman
84,360771,DepthScenes,duration_manipulation_targetAtFixation,jsons/VE125_randls_72.json,http://54.235.29.9/FacialAge/BNav_EC2/DepthDuration/v2_depth_duration_MTurk/v2_DepthDuration_HTML.html#126,126,1280,609,1280,720,9-3-2022,9-11-20,85,depth_duration_stimuli/003070_2014-06-15_14-58-27_094959634447_rgbf000150-resize_3/003070_2014-06-15_14-58-27_094959634447_rgbf000150-resize_3-target.png,125,2.9415,8,2649,129,feet,jsons/VE125_randls_72.json,1090787,2635581,31,Woman
85,360771,DepthScenes,duration_manipulation_targetAtFixation,jsons/VE125_randls_72.json,http://54.235.29.9/FacialAge/BNav_EC2/DepthDuration/v2_depth_duration_MTurk/v2_DepthDuration_HTML.html#126,126,1280,609,1280,720,9-3-2022,9-11-20,86,depth_duration_stimuli/000943_2014-06-09_19-31-07_260595134347_rgbf000128-resize_1/000943_2014-06-09_19-31-07_260595134347_rgbf000128-resize_1-target.png,125,1.9765,7,2501,133,feet,jsons/VE125_randls_72.json,1090787,2635581,31,Woman
86,360771,DepthScenes,duration_manipulation_targetAtFixation,jsons/VE125_randls_72.json,http://54.235.29.9/FacialAge/BNav_EC2/DepthDuration/v2_depth_duration_MTurk/v2_DepthDuration_HTML.html#126,126,1280,609,1280,720,9-3-2022,9-11-20,87,depth_duration_stimuli/000506_2014-06-08_23-21-00_260595134347_rgbf000070-resize_7/000506_2014-06-08_23-21-00_260595134347_rgbf000070-resize_7-target.png,125,4.0585,7,2551,111,feet,jsons/VE125_randls_72.json,1090787,2635581,31,Woman
87,360771,DepthScenes,duration_manipulation_targetAtFixation,jsons/VE125_randls_72.json,http://54.235.29.9/FacialAge/BNav_EC2/DepthDuration/v2_depth_duration_MTurk/v2_DepthDuration_HTML.html#126,126,1280,609,1280,720,9-3-2022,9-11-20,88,depth_duration_stimuli/003079_2014-06-15_15-18-20_094959634447_rgbf000152-resize_8/003079_2014-06-15_15-18-20_094959634447_rgbf000152-resize_8-target.png,125,2.8775,9,2698,131,feet,jsons/VE125_randls_72.json,1090787,2635581,31,Woman
88,360771,DepthScenes,duration_manipulation_targetAtFixation,jsons/VE125_randls_72.json,http://54.235.29.9/FacialAge/BNav_EC2/DepthDuration/v2_depth_duration_MTurk/v2_DepthDuration_HTML.html#126,126,1280,609,1280,720,9-3-2022,9-11-20,89,depth_duration_stimuli/001158_2014-06-17_15-32-16_260595134347_rgbf000138-resize_2/001158_2014-06-17_15-32-16_260595134347_rgbf000138-resize_2-target.png,125,4.5315,9,2484,122,feet,jsons/VE125_randls_72.json,1090787,2635581,31,Woman
89,360771,DepthScenes,duration_manipulation_targetAtFixation,jsons/VE125_randls_72.json,http://54.235.29.9/FacialAge/BNav_EC2/DepthDuration/v2_depth_duration_MTurk/v2_DepthDuration_HTML.html#126,126,1280,609,1280,720,9-3-2022,9-11-20,90,depth_duration_stimuli/000556_2014-06-09_22-42-56_260595134347_rgbf000214-resize_1/000556_2014-06-09_22-42-56_260595134347_rgbf000214-resize_1-target.png,125,4.8415,9,2388,120,feet,jsons/VE125_randls_72.json,1090787,2635581,31,Woman
90,360771,DepthScenes,duration_manipulation_targetAtFixation,jsons/VE125_randls_72.json,http://54.235.29.9/FacialAge/BNav_EC2/DepthDuration/v2_depth_duration_MTurk/v2_DepthDuration_HTML.html#126,126,1280,609,1280,720,9-3-2022,9-11-20,91,depth_duration_stimuli/002153_2014-06-25_21-27-18_260595134347_rgbf000038-resize_5/002153_2014-06-25_21-27-18_260595134347_rgbf000038-resize_5-target.png,125,2.505,7,2450,125,feet,jsons/VE125_randls_72.json,1090787,2635581,31,Woman
91,360771,DepthScenes,duration_manipulation_targetAtFixation,jsons/VE125_randls_72.json,http://54.235.29.9/FacialAge/BNav_EC2/DepthDuration/v2_depth_duration_MTurk/v2_DepthDuration_HTML.html#126,126,1280,609,1280,720,9-3-2022,9-11-20,92,depth_duration_stimuli/002660_2014-06-13_15-44-18_094959634447_rgbf001878-resize_2/002660_2014-06-13_15-44-18_094959634447_rgbf001878-resize_2-target.png,125,3.576,5,2551,129,feet,jsons/VE125_randls_72.json,1090787,2635581,31,Woman
92,360771,DepthScenes,duration_manipulation_targetAtFixation,jsons/VE125_randls_72.json,http://54.235.29.9/FacialAge/BNav_EC2/DepthDuration/v2_depth_duration_MTurk/v2_DepthDuration_HTML.html#126,126,1280,609,1280,720,9-3-2022,9-11-20,93,depth_duration_stimuli/002905_2014-06-03_18-04-43_094959634447_rgbf000151-resize_2/002905_2014-06-03_18-04-43_094959634447_rgbf000151-resize_2-target.png,125,2.0295,8,2454,140,feet,jsons/VE125_randls_72.json,1090787,2635581,31,Woman
93,360771,DepthScenes,duration_manipulation_targetAtFixation,jsons/VE125_randls_72.json,http://54.235.29.9/FacialAge/BNav_EC2/DepthDuration/v2_depth_duration_MTurk/v2_DepthDuration_HTML.html#126,126,1280,609,1280,720,9-3-2022,9-11-20,94,depth_duration_stimuli/003423_2014-05-21_10-23-26_094959634447_rgbf002665-resize_2/003423_2014-05-21_10-23-26_094959634447_rgbf002665-resize_2-target.png,125,3.2575,7,2919,121,feet,jsons/VE125_randls_72.json,1090787,2635581,31,Woman
94,360771,DepthScenes,duration_manipulation_targetAtFixation,jsons/VE125_randls_72.json,http://54.235.29.9/FacialAge/BNav_EC2/DepthDuration/v2_depth_duration_MTurk/v2_DepthDuration_HTML.html#126,126,1280,609,1280,720,9-3-2022,9-11-20,95,depth_duration_stimuli/000736_2014-06-08_18-24-15_260595134347_rgbf000206-resize_3/000736_2014-06-08_18-24-15_260595134347_rgbf000206-resize_3-target.png,125,3.515,8,7791,123,feet,jsons/VE125_randls_72.json,1090787,2635581,31,Woman
95,360771,DepthScenes,duration_manipulation_targetAtFixation,jsons/VE125_randls_72.json,http://54.235.29.9/FacialAge/BNav_EC2/DepthDuration/v2_depth_duration_MTurk/v2_DepthDuration_HTML.html#126,126,1280,609,1280,720,9-3-2022,9-11-20,96,depth_duration_stimuli/000137_2014-05-20_17-04-49_260595134347_rgbf000120-resize_1/000137_2014-05-20_17-04-49_260595134347_rgbf000120-resize_1-target.png,125,3.786,8,3785,136,feet,jsons/VE125_randls_72.json,1090787,2635581,31,Woman
96,360771,DepthScenes,duration_manipulation_targetAtFixation,jsons/VE125_randls_72.json,http://54.235.29.9/FacialAge/BNav_EC2/DepthDuration/v2_depth_duration_MTurk/v2_DepthDuration_HTML.html#126,126,1280,609,1280,720,9-3-2022,9-11-20,97,depth_duration_stimuli/002043_2014-06-24_20-29-38_260595134347_rgbf000039-resize_4/002043_2014-06-24_20-29-38_260595134347_rgbf000039-resize_4-target.png,125,2.8435,8,3156,107,feet,jsons/VE125_randls_72.json,1090787,2635581,31,Woman
97,360771,DepthScenes,duration_manipulation_targetAtFixation,jsons/VE125_randls_72.json,http://54.235.29.9/FacialAge/BNav_EC2/DepthDuration/v2_depth_duration_MTurk/v2_DepthDuration_HTML.html#126,126,1280,609,1280,720,9-3-2022,9-11-20,98,depth_duration_stimuli/003048_2014-06-15_13-49-43_094959634447_rgbf000150-resize_1/003048_2014-06-15_13-49-43_094959634447_rgbf000150-resize_1-target.png,125,4.0035,7,3456,77,feet,jsons/VE125_randls_72.json,1090787,2635581,31,Woman
98,360771,DepthScenes,duration_manipulation_targetAtFixation,jsons/VE125_randls_72.json,http://54.235.29.9/FacialAge/BNav_EC2/DepthDuration/v2_depth_duration_MTurk/v2_DepthDuration_HTML.html#126,126,1280,609,1280,720,9-3-2022,9-11-20,99,depth_duration_stimuli/001540_2014-06-20_17-01-05_260595134347_rgbf000086-resize_2/001540_2014-06-20_17-01-05_260595134347_rgbf000086-resize-original.jpg,125,1.459,0,2549,128,feet,jsons/VE125_randls_72.json,1090787,2635581,31,Woman
99,360771,DepthScenes,duration_manipulation_targetAtFixation,jsons/VE125_randls_72.json,http://54.235.29.9/FacialAge/BNav_EC2/DepthDuration/v2_depth_duration_MTurk/v2_DepthDuration_HTML.html#126,126,1280,609,1280,720,9-3-2022,9-11-20,100,depth_duration_stimuli/002600_2014-06-24_14-27-04_094959634447_rgbf000074-resize_2/002600_2014-06-24_14-27-04_094959634447_rgbf000074-resize_2-target.png,125,2.7575,8,2566,107,feet,jsons/VE125_randls_72.json,1090787,2635581,31,Woman
100,360771,DepthScenes,duration_manipulation_targetAtFixation,jsons/VE125_randls_72.json,http://54.235.29.9/FacialAge/BNav_EC2/DepthDuration/v2_depth_duration_MTurk/v2_DepthDuration_HTML.html#126,126,1280,609,1280,720,9-3-2022,9-11-20,101,depth_duration_stimuli/003228_2014-05-14_13-42-35_094959634447_rgbf000101-resize_1/003228_2014-05-14_13-42-35_094959634447_rgbf000101-resize_1-target.png,125,1.9680000000000002,9,3401,134,feet,jsons/VE125_randls_72.json,1090787,2635581,31,Woman
101,360771,DepthScenes,duration_manipulation_targetAtFixation,jsons/VE125_randls_72.json,http://54.235.29.9/FacialAge/BNav_EC2/DepthDuration/v2_depth_duration_MTurk/v2_DepthDuration_HTML.html#126,126,1280,609,1280,720,9-3-2022,9-11-20,102,depth_duration_stimuli/002445_2014-06-28_20-32-16_260595134347_rgbf000029-resize_4/002445_2014-06-28_20-32-16_260595134347_rgbf000029-resize_4-target.png,125,2.5315,8,2366,130,feet,jsons/VE125_randls_72.json,1090787,2635581,31,Woman
102,360771,DepthScenes,duration_manipulation_targetAtFixation,jsons/VE125_randls_72.json,http://54.235.29.9/FacialAge/BNav_EC2/DepthDuration/v2_depth_duration_MTurk/v2_DepthDuration_HTML.html#126,126,1280,609,1280,720,9-3-2022,9-11-20,103,depth_duration_stimuli/000780_2014-06-08_22-28-29_260595134347_rgbf000126-resize_1/000780_2014-06-08_22-28-29_260595134347_rgbf000126-resize_1-target.png,125,3.3825,8,5083,123,feet,jsons/VE125_randls_72.json,1090787,2635581,31,Woman
103,360771,DepthScenes,duration_manipulation_targetAtFixation,jsons/VE125_randls_72.json,http://54.235.29.9/FacialAge/BNav_EC2/DepthDuration/v2_depth_duration_MTurk/v2_DepthDuration_HTML.html#126,126,1280,609,1280,720,9-3-2022,9-11-20,104,depth_duration_stimuli/002039_2014-06-24_20-22-38_260595134347_rgbf000084-resize_1/002039_2014-06-24_20-22-38_260595134347_rgbf000084-resize_1-target.png,125,4.408,7,3118,124,feet,jsons/VE125_randls_72.json,1090787,2635581,31,Woman
104,360771,DepthScenes,duration_manipulation_targetAtFixation,jsons/VE125_randls_72.json,http://54.235.29.9/FacialAge/BNav_EC2/DepthDuration/v2_depth_duration_MTurk/v2_DepthDuration_HTML.html#126,126,1280,609,1280,720,9-3-2022,9-11-20,105,depth_duration_stimuli/002103_2014-06-25_20-00-40_260595134347_rgbf000049-resize_0/002103_2014-06-25_20-00-40_260595134347_rgbf000049-resize_0-target.png,125,4.105,7,3935,123,feet,jsons/VE125_randls_72.json,1090787,2635581,31,Woman
105,360771,DepthScenes,duration_manipulation_targetAtFixation,jsons/VE125_randls_72.json,http://54.235.29.9/FacialAge/BNav_EC2/DepthDuration/v2_depth_duration_MTurk/v2_DepthDuration_HTML.html#126,126,1280,609,1280,720,9-3-2022,9-11-20,106,depth_duration_stimuli/002788_2014-06-22_19-36-03_094959634447_rgbf000088-resize_2/002788_2014-06-22_19-36-03_094959634447_rgbf000088-resize_2-target.png,125,1.6465,5,4695,120,feet,jsons/VE125_randls_72.json,1090787,2635581,31,Woman
106,360771,DepthScenes,duration_manipulation_targetAtFixation,jsons/VE125_randls_72.json,http://54.235.29.9/FacialAge/BNav_EC2/DepthDuration/v2_depth_duration_MTurk/v2_DepthDuration_HTML.html#126,126,1280,609,1280,720,9-3-2022,9-11-20,107,depth_duration_stimuli/000749_2014-06-08_21-55-06_260595134347_rgbf000070-resize_2/000749_2014-06-08_21-55-06_260595134347_rgbf000070-resize_2-target.png,125,2.331,6,3917,130,feet,jsons/VE125_randls_72.json,1090787,2635581,31,Woman
107,360771,DepthScenes,duration_manipulation_targetAtFixation,jsons/VE125_randls_72.json,http://54.235.29.9/FacialAge/BNav_EC2/DepthDuration/v2_depth_duration_MTurk/v2_DepthDuration_HTML.html#126,126,1280,609,1280,720,9-3-2022,9-11-20,108,depth_duration_stimuli/000692_2014-06-08_13-09-42_260595134347_rgbf000199-resize_2/000692_2014-06-08_13-09-42_260595134347_rgbf000199-resize_2-target.png,125,3.661,6,8171,135,feet,jsons/VE125_randls_72.json,1090787,2635581,31,Woman
108,360771,DepthScenes,duration_manipulation_targetAtFixation,jsons/VE125_randls_72.json,http://54.235.29.9/FacialAge/BNav_EC2/DepthDuration/v2_depth_duration_MTurk/v2_DepthDuration_HTML.html#126,126,1280,609,1280,720,9-3-2022,9-11-20,109,depth_duration_stimuli/001094_2014-06-15_17-36-00_260595134347_rgbf000205-resize_0/001094_2014-06-15_17-36-00_260595134347_rgbf000205-resize_0-target.png,125,4.2175,8,3061,125,feet,jsons/VE125_randls_72.json,1090787,2635581,31,Woman
109,360771,DepthScenes,duration_manipulation_targetAtFixation,jsons/VE125_randls_72.json,http://54.235.29.9/FacialAge/BNav_EC2/DepthDuration/v2_depth_duration_MTurk/v2_DepthDuration_HTML.html#126,126,1280,609,1280,720,9-3-2022,9-11-20,110,depth_duration_stimuli/002509_2014-06-24_13-19-22_094959634447_rgbf000077-resize_0/002509_2014-06-24_13-19-22_094959634447_rgbf000077-resize_0-target.png,125,1.3065,6,28810,118,feet,jsons/VE125_randls_72.json,1090787,2635581,31,Woman
110,360771,DepthScenes,duration_manipulation_targetAtFixation,jsons/VE125_randls_72.json,http://54.235.29.9/FacialAge/BNav_EC2/DepthDuration/v2_depth_duration_MTurk/v2_DepthDuration_HTML.html#126,126,1280,609,1280,720,9-3-2022,9-11-20,111,depth_duration_stimuli/003338_2014-05-20_11-01-23_094959634447_rgbf000051-resize_6/003338_2014-05-20_11-01-23_094959634447_rgbf000051-resize_6-target.png,125,1.693,7,11576,126,feet,jsons/VE125_randls_72.json,1090787,2635581,31,Woman
111,360771,DepthScenes,duration_manipulation_targetAtFixation,jsons/VE125_randls_72.json,http://54.235.29.9/FacialAge/BNav_EC2/DepthDuration/v2_depth_duration_MTurk/v2_DepthDuration_HTML.html#126,126,1280,609,1280,720,9-3-2022,9-11-20,112,depth_duration_stimuli/000906_2014-06-08_13-35-43_260595134347_rgbf000155-resize_1/000906_2014-06-08_13-35-43_260595134347_rgbf000155-resize_1-target.png,125,2.8489999999999998,8,26181,121,feet,jsons/VE125_randls_72.json,1090787,2635581,31,Woman
112,360771,DepthScenes,duration_manipulation_targetAtFixation,jsons/VE125_randls_72.json,http://54.235.29.9/FacialAge/BNav_EC2/DepthDuration/v2_depth_duration_MTurk/v2_DepthDuration_HTML.html#126,126,1280,609,1280,720,9-3-2022,9-11-20,113,depth_duration_stimuli/002805_2014-06-22_19-54-03_094959634447_rgbf000079-resize_1/002805_2014-06-22_19-54-03_094959634447_rgbf000079-resize_1-target.png,125,3.1439999999999997,5,3763,127,feet,jsons/VE125_randls_72.json,1090787,2635581,31,Woman
113,360771,DepthScenes,duration_manipulation_targetAtFixation,jsons/VE125_randls_72.json,http://54.235.29.9/FacialAge/BNav_EC2/DepthDuration/v2_depth_duration_MTurk/v2_DepthDuration_HTML.html#126,126,1280,609,1280,720,9-3-2022,9-11-20,114,depth_duration_stimuli/001244_2014-06-17_16-47-45_260595134347_rgbf000030-resize_4/001244_2014-06-17_16-47-45_260595134347_rgbf000030-resize_4-target.png,125,2.0425,6,2749,123,feet,jsons/VE125_randls_72.json,1090787,2635581,31,Woman
114,360771,DepthScenes,duration_manipulation_targetAtFixation,jsons/VE125_randls_72.json,http://54.235.29.9/FacialAge/BNav_EC2/DepthDuration/v2_depth_duration_MTurk/v2_DepthDuration_HTML.html#126,126,1280,609,1280,720,9-3-2022,9-11-20,115,depth_duration_stimuli/003495_2014-05-21_16-01-51_094959634447_rgbf000100-resize_3/003495_2014-05-21_16-01-51_094959634447_rgbf000100-resize_3-target.png,125,1.6255,7,18939,128,feet,jsons/VE125_randls_72.json,1090787,2635581,31,Woman
115,360771,DepthScenes,duration_manipulation_targetAtFixation,jsons/VE125_randls_72.json,http://54.235.29.9/FacialAge/BNav_EC2/DepthDuration/v2_depth_duration_MTurk/v2_DepthDuration_HTML.html#126,126,1280,609,1280,720,9-3-2022,9-11-20,116,depth_duration_stimuli/001170_2014-06-17_15-43-44_260595134347_rgbf000096-resize_6/001170_2014-06-17_15-43-44_260595134347_rgbf000096-resize-original.jpg,125,1.1909999999999998,8,6901,121,feet,jsons/VE125_randls_72.json,1090787,2635581,31,Woman
116,360771,DepthScenes,duration_manipulation_targetAtFixation,jsons/VE125_randls_72.json,http://54.235.29.9/FacialAge/BNav_EC2/DepthDuration/v2_depth_duration_MTurk/v2_DepthDuration_HTML.html#126,126,1280,609,1280,720,9-3-2022,9-11-20,117,depth_duration_stimuli/003534_2014-05-22_15-06-10_094959634447_rgbf000102-resize_4/003534_2014-05-22_15-06-10_094959634447_rgbf000102-resize_4-target.png,125,1.426,6,11261,114,feet,jsons/VE125_randls_72.json,1090787,2635581,31,Woman
117,360771,DepthScenes,duration_manipulation_targetAtFixation,jsons/VE125_randls_72.json,http://54.235.29.9/FacialAge/BNav_EC2/DepthDuration/v2_depth_duration_MTurk/v2_DepthDuration_HTML.html#126,126,1280,609,1280,720,9-3-2022,9-11-20,118,depth_duration_stimuli/002637_2014-06-24_14-51-13_094959634447_rgbf000066-resize_4/002637_2014-06-24_14-51-13_094959634447_rgbf000066-resize_4-target.png,125,1.9955,6,3768,120,feet,jsons/VE125_randls_72.json,1090787,2635581,31,Woman
118,360771,DepthScenes,duration_manipulation_targetAtFixation,jsons/VE125_randls_72.json,http://54.235.29.9/FacialAge/BNav_EC2/DepthDuration/v2_depth_duration_MTurk/v2_DepthDuration_HTML.html#126,126,1280,609,1280,720,9-3-2022,9-11-20,119,depth_duration_stimuli/002279_2014-06-28_18-55-32_260595134347_rgbf000040-resize_5/002279_2014-06-28_18-55-32_260595134347_rgbf000040-resize_5-target.png,125,1.5043333333333,7,2657,124,feet,jsons/VE125_randls_72.json,1090787,2635581,31,Woman
119,360771,DepthScenes,duration_manipulation_targetAtFixation,jsons/VE125_randls_72.json,http://54.235.29.9/FacialAge/BNav_EC2/DepthDuration/v2_depth_duration_MTurk/v2_DepthDuration_HTML.html#126,126,1280,609,1280,720,9-3-2022,9-11-20,120,depth_duration_stimuli/000635_2014-06-08_16-38-42_260595134347_rgbf000106-resize_1/000635_2014-06-08_16-38-42_260595134347_rgbf000106-resize_1-target.png,125,2.074,6,20016,112,feet,jsons/VE125_randls_72.json,1090787,2635581,31,Woman
120,360771,DepthScenes,duration_manipulation_targetAtFixation,jsons/VE125_randls_72.json,http://54.235.29.9/FacialAge/BNav_EC2/DepthDuration/v2_depth_duration_MTurk/v2_DepthDuration_HTML.html#126,126,1280,609,1280,720,9-3-2022,9-11-20,121,depth_duration_stimuli/002272_2014-06-28_18-53-56_260595134347_rgbf000067-resize_2/002272_2014-06-28_18-53-56_260595134347_rgbf000067-resize_2-target.png,125,1.138,8,7344,126,feet,jsons/VE125_randls_72.json,1090787,2635581,31,Woman
121,360771,DepthScenes,duration_manipulation_targetAtFixation,jsons/VE125_randls_72.json,http://54.235.29.9/FacialAge/BNav_EC2/DepthDuration/v2_depth_duration_MTurk/v2_DepthDuration_HTML.html#126,126,1280,609,1280,720,9-3-2022,9-11-20,122,depth_duration_stimuli/001571_2014-06-20_17-21-32_260595134347_rgbf000089-resize_1/001571_2014-06-20_17-21-32_260595134347_rgbf000089-resize_1-target.png,125,1.86,5,3912,112,feet,jsons/VE125_randls_72.json,1090787,2635581,31,Woman
122,360771,DepthScenes,duration_manipulation_targetAtFixation,jsons/VE125_randls_72.json,http://54.235.29.9/FacialAge/BNav_EC2/DepthDuration/v2_depth_duration_MTurk/v2_DepthDuration_HTML.html#126,126,1280,609,1280,720,9-3-2022,9-11-20,123,depth_duration_stimuli/001011_2014-06-08_23-18-54_260595134347_rgbf000044-resize_4/001011_2014-06-08_23-18-54_260595134347_rgbf000044-resize_4-target.png,125,2.4730000000000003,5,3086,119,feet,jsons/VE125_randls_72.json,1090787,2635581,31,Woman
123,360771,DepthScenes,duration_manipulation_targetAtFixation,jsons/VE125_randls_72.json,http://54.235.29.9/FacialAge/BNav_EC2/DepthDuration/v2_depth_duration_MTurk/v2_DepthDuration_HTML.html#126,126,1280,609,1280,720,9-3-2022,9-11-20,124,depth_duration_stimuli/002875_2014-06-01_15-19-00_094959634447_rgbf000151-resize_1/002875_2014-06-01_15-19-00_094959634447_rgbf000151-resize_1-target.png,125,1.9675,8,5339,99,feet,jsons/VE125_randls_72.json,1090787,2635581,31,Woman
124,360771,DepthScenes,duration_manipulation_targetAtFixation,jsons/VE125_randls_72.json,http://54.235.29.9/FacialAge/BNav_EC2/DepthDuration/v2_depth_duration_MTurk/v2_DepthDuration_HTML.html#126,126,1280,609,1280,720,9-3-2022,9-11-20,125,depth_duration_stimuli/000773_2014-06-08_22-24-54_260595134347_rgbf000093-resize_1/000773_2014-06-08_22-24-54_260595134347_rgbf000093-resize_1-target.png,125,4.973,9,4691,122,feet,jsons/VE125_randls_72.json,1090787,2635581,31,Woman
125,360771,DepthScenes,duration_manipulation_targetAtFixation,jsons/VE125_randls_72.json,http://54.235.29.9/FacialAge/BNav_EC2/DepthDuration/v2_depth_duration_MTurk/v2_DepthDuration_HTML.html#126,126,1280,609,1280,720,9-3-2022,9-11-20,126,depth_duration_stimuli/002414_2014-06-28_20-24-58_260595134347_rgbf000067-resize_4/002414_2014-06-28_20-24-58_260595134347_rgbf000067-resize_4-target.png,125,4.363,8,2854,141,feet,jsons/VE125_randls_72.json,1090787,2635581,31,Woman
126,360771,DepthScenes,duration_manipulation_targetAtFixation,jsons/VE125_randls_72.json,http://54.235.29.9/FacialAge/BNav_EC2/DepthDuration/v2_depth_duration_MTurk/v2_DepthDuration_HTML.html#126,126,1280,609,1280,720,9-3-2022,9-11-20,127,depth_duration_stimuli/001055_2014-06-08_18-45-35_260595134347_rgbf000111-resize_4/001055_2014-06-08_18-45-35_260595134347_rgbf000111-resize_4-target.png,125,2.4290000000000003,5,7035,137,feet,jsons/VE125_randls_72.json,1090787,2635581,31,Woman
127,360771,DepthScenes,duration_manipulation_targetAtFixation,jsons/VE125_randls_72.json,http://54.235.29.9/FacialAge/BNav_EC2/DepthDuration/v2_depth_duration_MTurk/v2_DepthDuration_HTML.html#126,126,1280,609,1280,720,9-3-2022,9-11-20,128,depth_duration_stimuli/000549_2014-06-08_22-10-24_260595134347_rgbf000247-resize_3/000549_2014-06-08_22-10-24_260595134347_rgbf000247-resize_3-target.png,125,1.841,8,3127,124,feet,jsons/VE125_randls_72.json,1090787,2635581,31,Woman
128,360771,DepthScenes,duration_manipulation_targetAtFixation,jsons/VE125_randls_72.json,http://54.235.29.9/FacialAge/BNav_EC2/DepthDuration/v2_depth_duration_MTurk/v2_DepthDuration_HTML.html#126,126,1280,609,1280,720,9-3-2022,9-11-20,129,depth_duration_stimuli/000917_2014-06-09_22-45-29_260595134347_rgbf000149-resize_3/000917_2014-06-09_22-45-29_260595134347_rgbf000149-resize_3-target.png,125,4.1865,6,2937,118,feet,jsons/VE125_randls_72.json,1090787,2635581,31,Woman
129,360771,DepthScenes,duration_manipulation_targetAtFixation,jsons/VE125_randls_72.json,http://54.235.29.9/FacialAge/BNav_EC2/DepthDuration/v2_depth_duration_MTurk/v2_DepthDuration_HTML.html#126,126,1280,609,1280,720,9-3-2022,9-11-20,130,depth_duration_stimuli/002323_2014-06-28_20-01-54_260595134347_rgbf000051-resize_4/002323_2014-06-28_20-01-54_260595134347_rgbf000051-resize_4-target.png,125,3.7310000000000003,6,2807,115,feet,jsons/VE125_randls_72.json,1090787,2635581,31,Woman
130,360771,DepthScenes,duration_manipulation_targetAtFixation,jsons/VE125_randls_72.json,http://54.235.29.9/FacialAge/BNav_EC2/DepthDuration/v2_depth_duration_MTurk/v2_DepthDuration_HTML.html#126,126,1280,609,1280,720,9-3-2022,9-11-20,131,depth_duration_stimuli/002057_2014-06-24_21-00-13_260595134347_rgbf000120-resize_1/002057_2014-06-24_21-00-13_260595134347_rgbf000120-resize_1-target.png,125,2.967,9,4023,119,feet,jsons/VE125_randls_72.json,1090787,2635581,31,Woman
131,360771,DepthScenes,duration_manipulation_targetAtFixation,jsons/VE125_randls_72.json,http://54.235.29.9/FacialAge/BNav_EC2/DepthDuration/v2_depth_duration_MTurk/v2_DepthDuration_HTML.html#126,126,1280,609,1280,720,9-3-2022,9-11-20,132,depth_duration_stimuli/000709_2014-06-08_13-51-55_260595134347_rgbf000068-resize_3/000709_2014-06-08_13-51-55_260595134347_rgbf000068-resize_3-target.png,125,1.8030000000000002,7,2652,136,feet,jsons/VE125_randls_72.json,1090787,2635581,31,Woman
132,360771,DepthScenes,duration_manipulation_targetAtFixation,jsons/VE125_randls_72.json,http://54.235.29.9/FacialAge/BNav_EC2/DepthDuration/v2_depth_duration_MTurk/v2_DepthDuration_HTML.html#126,126,1280,609,1280,720,9-3-2022,9-11-20,133,depth_duration_stimuli/002989_2014-06-15_12-25-03_094959634447_rgbf000150-resize_3/002989_2014-06-15_12-25-03_094959634447_rgbf000150-resize_3-target.png,125,4.1975,9,2641,124,feet,jsons/VE125_randls_72.json,1090787,2635581,31,Woman
133,360771,DepthScenes,duration_manipulation_targetAtFixation,jsons/VE125_randls_72.json,http://54.235.29.9/FacialAge/BNav_EC2/DepthDuration/v2_depth_duration_MTurk/v2_DepthDuration_HTML.html#126,126,1280,609,1280,720,9-3-2022,9-11-20,134,depth_duration_stimuli/000866_2014-06-09_20-45-42_260595134347_rgbf000139-resize_1/000866_2014-06-09_20-45-42_260595134347_rgbf000139-resize_1-target.png,125,3.2155,6,2523,118,feet,jsons/VE125_randls_72.json,1090787,2635581,31,Woman
134,360771,DepthScenes,duration_manipulation_targetAtFixation,jsons/VE125_randls_72.json,http://54.235.29.9/FacialAge/BNav_EC2/DepthDuration/v2_depth_duration_MTurk/v2_DepthDuration_HTML.html#126,126,1280,609,1280,720,9-3-2022,9-11-20,135,depth_duration_stimuli/002072_2014-06-24_21-48-06_260595134347_rgbf000115-resize_0/002072_2014-06-24_21-48-06_260595134347_rgbf000115-resize-original.jpg,125,4.702,8,3556,144,feet,jsons/VE125_randls_72.json,1090787,2635581,31,Woman
135,360771,DepthScenes,duration_manipulation_targetAtFixation,jsons/VE125_randls_72.json,http://54.235.29.9/FacialAge/BNav_EC2/DepthDuration/v2_depth_duration_MTurk/v2_DepthDuration_HTML.html#126,126,1280,609,1280,720,9-3-2022,9-11-20,136,depth_duration_stimuli/001133_2014-06-17_14-49-16_260595134347_rgbf000100-resize_0/001133_2014-06-17_14-49-16_260595134347_rgbf000100-resize_0-target.png,125,4.2115,9,2831,128,feet,jsons/VE125_randls_72.json,1090787,2635581,31,Woman
136,360771,DepthScenes,duration_manipulation_targetAtFixation,jsons/VE125_randls_72.json,http://54.235.29.9/FacialAge/BNav_EC2/DepthDuration/v2_depth_duration_MTurk/v2_DepthDuration_HTML.html#126,126,1280,609,1280,720,9-3-2022,9-11-20,137,depth_duration_stimuli/001132_2014-06-17_14-48-54_260595134347_rgbf000100-resize_2/001132_2014-06-17_14-48-54_260595134347_rgbf000100-resize_2-target.png,125,3.753,5,2748,120,feet,jsons/VE125_randls_72.json,1090787,2635581,31,Woman
137,360771,DepthScenes,duration_manipulation_targetAtFixation,jsons/VE125_randls_72.json,http://54.235.29.9/FacialAge/BNav_EC2/DepthDuration/v2_depth_duration_MTurk/v2_DepthDuration_HTML.html#126,126,1280,609,1280,720,9-3-2022,9-11-20,138,depth_duration_stimuli/000469_2014-06-09_19-42-10_260595134347_rgbf000081-resize_1/000469_2014-06-09_19-42-10_260595134347_rgbf000081-resize_1-target.png,125,1.652,4,2876,117,feet,jsons/VE125_randls_72.json,1090787,2635581,31,Woman
138,360771,DepthScenes,duration_manipulation_targetAtFixation,jsons/VE125_randls_72.json,http://54.235.29.9/FacialAge/BNav_EC2/DepthDuration/v2_depth_duration_MTurk/v2_DepthDuration_HTML.html#126,126,1280,609,1280,720,9-3-2022,9-11-20,139,depth_duration_stimuli/000483_2014-06-09_20-41-45_260595134347_rgbf000116-resize_4/000483_2014-06-09_20-41-45_260595134347_rgbf000116-resize_4-target.png,125,1.337,7,3035,128,feet,jsons/VE125_randls_72.json,1090787,2635581,31,Woman
139,360771,DepthScenes,duration_manipulation_targetAtFixation,jsons/VE125_randls_72.json,http://54.235.29.9/FacialAge/BNav_EC2/DepthDuration/v2_depth_duration_MTurk/v2_DepthDuration_HTML.html#126,126,1280,609,1280,720,9-3-2022,9-11-20,140,depth_duration_stimuli/001417_2014-06-19_16-25-36_260595134347_rgbf000115-resize_5/001417_2014-06-19_16-25-36_260595134347_rgbf000115-resize_5-target.png,125,4.6255,8,2549,130,feet,jsons/VE125_randls_72.json,1090787,2635581,31,Woman
140,360771,DepthScenes,duration_manipulation_targetAtFixation,jsons/VE125_randls_72.json,http://54.235.29.9/FacialAge/BNav_EC2/DepthDuration/v2_depth_duration_MTurk/v2_DepthDuration_HTML.html#126,126,1280,609,1280,720,9-3-2022,9-11-20,141,depth_duration_stimuli/003081_2014-06-15_15-19-16_094959634447_rgbf000150-resize_1/003081_2014-06-15_15-19-16_094959634447_rgbf000150-resize_1-target.png,125,3.9125,8,2981,117,feet,jsons/VE125_randls_72.json,1090787,2635581,31,Woman
141,360771,DepthScenes,duration_manipulation_targetAtFixation,jsons/VE125_randls_72.json,http://54.235.29.9/FacialAge/BNav_EC2/DepthDuration/v2_depth_duration_MTurk/v2_DepthDuration_HTML.html#126,126,1280,609,1280,720,9-3-2022,9-11-20,142,depth_duration_stimuli/002375_2014-06-28_20-13-44_260595134347_rgbf000032-resize_1/002375_2014-06-28_20-13-44_260595134347_rgbf000032-resize_1-target.png,125,4.0175,8,3527,126,feet,jsons/VE125_randls_72.json,1090787,2635581,31,Woman
142,360771,DepthScenes,duration_manipulation_targetAtFixation,jsons/VE125_randls_72.json,http://54.235.29.9/FacialAge/BNav_EC2/DepthDuration/v2_depth_duration_MTurk/v2_DepthDuration_HTML.html#126,126,1280,609,1280,720,9-3-2022,9-11-20,143,depth_duration_stimuli/002657_2014-06-13_15-29-54_094959634447_rgbf000150-resize_1/002657_2014-06-13_15-29-54_094959634447_rgbf000150-resize_1-target.png,125,4.919,9,3065,132,feet,jsons/VE125_randls_72.json,1090787,2635581,31,Woman
143,360771,DepthScenes,duration_manipulation_targetAtFixation,jsons/VE125_randls_72.json,http://54.235.29.9/FacialAge/BNav_EC2/DepthDuration/v2_depth_duration_MTurk/v2_DepthDuration_HTML.html#126,126,1280,609,1280,720,9-3-2022,9-11-20,144,depth_duration_stimuli/000810_2014-06-08_17-20-01_260595134347_rgbf000105-resize_0/000810_2014-06-08_17-20-01_260595134347_rgbf000105-resize_0-target.png,125,1.4865,11,2950,130,feet,jsons/VE125_randls_72.json,1090787,2635581,31,Woman
144,360771,DepthScenes,duration_manipulation_targetAtFixation,jsons/VE125_randls_72.json,http://54.235.29.9/FacialAge/BNav_EC2/DepthDuration/v2_depth_duration_MTurk/v2_DepthDuration_HTML.html#126,126,1280,609,1280,720,9-3-2022,9-11-20,145,depth_duration_stimuli/001214_2014-06-17_16-13-55_260595134347_rgbf000111-resize_0/001214_2014-06-17_16-13-55_260595134347_rgbf000111-resize_0-target.png,125,2.6505,7,2351,134,feet,jsons/VE125_randls_72.json,1090787,2635581,31,Woman
145,360771,DepthScenes,duration_manipulation_targetAtFixation,jsons/VE125_randls_72.json,http://54.235.29.9/FacialAge/BNav_EC2/DepthDuration/v2_depth_duration_MTurk/v2_DepthDuration_HTML.html#126,126,1280,609,1280,720,9-3-2022,9-11-20,146,depth_duration_stimuli/001498_2014-06-19_17-45-14_260595134347_rgbf000129-resize_4/001498_2014-06-19_17-45-14_260595134347_rgbf000129-resize-original.jpg,125,1.4075,7,2636,113,feet,jsons/VE125_randls_72.json,1090787,2635581,31,Woman
146,360771,DepthScenes,duration_manipulation_targetAtFixation,jsons/VE125_randls_72.json,http://54.235.29.9/FacialAge/BNav_EC2/DepthDuration/v2_depth_duration_MTurk/v2_DepthDuration_HTML.html#126,126,1280,609,1280,720,9-3-2022,9-11-20,147,depth_duration_stimuli/002570_2014-06-24_13-59-54_094959634447_rgbf000059-resize_0/002570_2014-06-24_13-59-54_094959634447_rgbf000059-resize_0-target.png,125,4.037,9,3263,122,feet,jsons/VE125_randls_72.json,1090787,2635581,31,Woman
147,360771,DepthScenes,duration_manipulation_targetAtFixation,jsons/VE125_randls_72.json,http://54.235.29.9/FacialAge/BNav_EC2/DepthDuration/v2_depth_duration_MTurk/v2_DepthDuration_HTML.html#126,126,1280,609,1280,720,9-3-2022,9-11-20,148,depth_duration_stimuli/002467_2014-06-28_20-38-07_260595134347_rgbf000026-resize_2/002467_2014-06-28_20-38-07_260595134347_rgbf000026-resize_2-target.png,125,4.742,5,3006,138,feet,jsons/VE125_randls_72.json,1090787,2635581,31,Woman
148,360771,DepthScenes,duration_manipulation_targetAtFixation,jsons/VE125_randls_72.json,http://54.235.29.9/FacialAge/BNav_EC2/DepthDuration/v2_depth_duration_MTurk/v2_DepthDuration_HTML.html#126,126,1280,609,1280,720,9-3-2022,9-11-20,149,depth_duration_stimuli/001066_2014-06-08_22-03-20_260595134347_rgbf000066-resize_4/001066_2014-06-08_22-03-20_260595134347_rgbf000066-resize_4-target.png,125,4.2330000000000005,11,4831,126,feet,jsons/VE125_randls_72.json,1090787,2635581,31,Woman
149,360771,DepthScenes,duration_manipulation_targetAtFixation,jsons/VE125_randls_72.json,http://54.235.29.9/FacialAge/BNav_EC2/DepthDuration/v2_depth_duration_MTurk/v2_DepthDuration_HTML.html#126,126,1280,609,1280,720,9-3-2022,9-11-20,150,depth_duration_stimuli/000742_2014-06-08_18-48-09_260595134347_rgbf000164-resize_4/000742_2014-06-08_18-48-09_260595134347_rgbf000164-resize_4-target.png,125,4.632,7,3469,117,feet,jsons/VE125_randls_72.json,1090787,2635581,31,Woman
150,360771,DepthScenes,duration_manipulation_targetAtFixation,jsons/VE125_randls_72.json,http://54.235.29.9/FacialAge/BNav_EC2/DepthDuration/v2_depth_duration_MTurk/v2_DepthDuration_HTML.html#126,126,1280,609,1280,720,9-3-2022,9-11-20,151,depth_duration_stimuli/000436_2014-06-09_22-25-11_260595134347_rgbf000137-resize_1/000436_2014-06-09_22-25-11_260595134347_rgbf000137-resize_1-target.png,125,4.0705,12,3401,123,feet,jsons/VE125_randls_72.json,1090787,2635581,31,Woman
151,360771,DepthScenes,duration_manipulation_targetAtFixation,jsons/VE125_randls_72.json,http://54.235.29.9/FacialAge/BNav_EC2/DepthDuration/v2_depth_duration_MTurk/v2_DepthDuration_HTML.html#126,126,1280,609,1280,720,9-3-2022,9-11-20,152,depth_duration_stimuli/002444_2014-06-28_20-32-08_260595134347_rgbf000027-resize_0/002444_2014-06-28_20-32-08_260595134347_rgbf000027-resize_0-target.png,125,4.388999999999999,12,6540,123,feet,jsons/VE125_randls_72.json,1090787,2635581,31,Woman
152,360771,DepthScenes,duration_manipulation_targetAtFixation,jsons/VE125_randls_72.json,http://54.235.29.9/FacialAge/BNav_EC2/DepthDuration/v2_depth_duration_MTurk/v2_DepthDuration_HTML.html#126,126,1280,609,1280,720,9-3-2022,9-11-20,153,depth_duration_stimuli/000447_2014-06-08_16-15-46_260595134347_rgbf000130-resize_1/000447_2014-06-08_16-15-46_260595134347_rgbf000130-resize_1-target.png,125,4.479,5,6146,122,feet,jsons/VE125_randls_72.json,1090787,2635581,31,Woman
153,360771,DepthScenes,duration_manipulation_targetAtFixation,jsons/VE125_randls_72.json,http://54.235.29.9/FacialAge/BNav_EC2/DepthDuration/v2_depth_duration_MTurk/v2_DepthDuration_HTML.html#126,126,1280,609,1280,720,9-3-2022,9-11-20,154,depth_duration_stimuli/001447_2014-06-19_17-00-32_260595134347_rgbf000082-resize_5/001447_2014-06-19_17-00-32_260595134347_rgbf000082-resize_5-target.png,125,4.13775,8,3118,124,feet,jsons/VE125_randls_72.json,1090787,2635581,31,Woman
154,360771,DepthScenes,duration_manipulation_targetAtFixation,jsons/VE125_randls_72.json,http://54.235.29.9/FacialAge/BNav_EC2/DepthDuration/v2_depth_duration_MTurk/v2_DepthDuration_HTML.html#126,126,1280,609,1280,720,9-3-2022,9-11-20,155,depth_duration_stimuli/002763_2014-06-22_19-13-10_094959634447_rgbf000075-resize_4/002763_2014-06-22_19-13-10_094959634447_rgbf000075-resize_4-target.png,125,1.68375,9,2937,115,feet,jsons/VE125_randls_72.json,1090787,2635581,31,Woman
155,360771,DepthScenes,duration_manipulation_targetAtFixation,jsons/VE125_randls_72.json,http://54.235.29.9/FacialAge/BNav_EC2/DepthDuration/v2_depth_duration_MTurk/v2_DepthDuration_HTML.html#126,126,1280,609,1280,720,9-3-2022,9-11-20,156,depth_duration_stimuli/002209_2014-06-28_18-36-10_260595134347_rgbf000051-resize_1/002209_2014-06-28_18-36-10_260595134347_rgbf000051-resize_1-target.png,125,2.057,5,2446,106,feet,jsons/VE125_randls_72.json,1090787,2635581,31,Woman
156,360771,DepthScenes,duration_manipulation_targetAtFixation,jsons/VE125_randls_72.json,http://54.235.29.9/FacialAge/BNav_EC2/DepthDuration/v2_depth_duration_MTurk/v2_DepthDuration_HTML.html#126,126,1280,609,1280,720,9-3-2022,9-11-20,157,depth_duration_stimuli/000368_2014-06-09_15-53-01_260595134347_rgbf000155-resize_2/000368_2014-06-09_15-53-01_260595134347_rgbf000155-resize_2-target.png,125,2.4859999999999998,8,4242,124,feet,jsons/VE125_randls_72.json,1090787,2635581,31,Woman
157,360771,DepthScenes,duration_manipulation_targetAtFixation,jsons/VE125_randls_72.json,http://54.235.29.9/FacialAge/BNav_EC2/DepthDuration/v2_depth_duration_MTurk/v2_DepthDuration_HTML.html#126,126,1280,609,1280,720,9-3-2022,9-11-20,158,depth_duration_stimuli/002678_2014-06-13_16-15-32_094959634447_rgbf000151-resize_6/002678_2014-06-13_16-15-32_094959634447_rgbf000151-resize_6-target.png,125,2.1830000000000003,7,2892,117,feet,jsons/VE125_randls_72.json,1090787,2635581,31,Woman
158,360771,DepthScenes,duration_manipulation_targetAtFixation,jsons/VE125_randls_72.json,http://54.235.29.9/FacialAge/BNav_EC2/DepthDuration/v2_depth_duration_MTurk/v2_DepthDuration_HTML.html#126,126,1280,609,1280,720,9-3-2022,9-11-20,159,depth_duration_stimuli/001810_2014-06-26_20-51-35_260595134347_rgbf000040-resize_3/001810_2014-06-26_20-51-35_260595134347_rgbf000040-resize_3-target.png,125,2.2525,7,2557,138,feet,jsons/VE125_randls_72.json,1090787,2635581,31,Woman
159,360771,DepthScenes,duration_manipulation_targetAtFixation,jsons/VE125_randls_72.json,http://54.235.29.9/FacialAge/BNav_EC2/DepthDuration/v2_depth_duration_MTurk/v2_DepthDuration_HTML.html#126,126,1280,609,1280,720,9-3-2022,9-11-20,160,depth_duration_stimuli/003010_2014-06-15_12-54-35_094959634447_rgbf000112-resize_0/003010_2014-06-15_12-54-35_094959634447_rgbf000112-resize_0-target.png,125,3.1185,6,3228,138,feet,jsons/VE125_randls_72.json,1090787,2635581,31,Woman
160,360771,DepthScenes,duration_manipulation_targetAtFixation,jsons/VE125_randls_72.json,http://54.235.29.9/FacialAge/BNav_EC2/DepthDuration/v2_depth_duration_MTurk/v2_DepthDuration_HTML.html#126,126,1280,609,1280,720,9-3-2022,9-11-20,161,depth_duration_stimuli/000758_2014-06-08_22-05-08_260595134347_rgbf000085-resize_0/000758_2014-06-08_22-05-08_260595134347_rgbf000085-resize_0-target.png,125,3.3810000000000002,9,3065,113,feet,jsons/VE125_randls_72.json,1090787,2635581,31,Woman
161,360771,DepthScenes,duration_manipulation_targetAtFixation,jsons/VE125_randls_72.json,http://54.235.29.9/FacialAge/BNav_EC2/DepthDuration/v2_depth_duration_MTurk/v2_DepthDuration_HTML.html#126,126,1280,609,1280,720,9-3-2022,9-11-20,162,depth_duration_stimuli/000854_2014-06-09_19-43-13_260595134347_rgbf000066-resize_0/000854_2014-06-09_19-43-13_260595134347_rgbf000066-resize_0-target.png,125,3.068,7,5882,112,feet,jsons/VE125_randls_72.json,1090787,2635581,31,Woman
162,360771,DepthScenes,duration_manipulation_targetAtFixation,jsons/VE125_randls_72.json,http://54.235.29.9/FacialAge/BNav_EC2/DepthDuration/v2_depth_duration_MTurk/v2_DepthDuration_HTML.html#126,126,1280,609,1280,720,9-3-2022,9-11-20,163,depth_duration_stimuli/003292_2014-05-14_21-53-49_094959634447_rgbf000100-resize_2/003292_2014-05-14_21-53-49_094959634447_rgbf000100-resize_2-target.png,125,3.4815,9,2813,122,feet,jsons/VE125_randls_72.json,1090787,2635581,31,Woman
163,360771,DepthScenes,duration_manipulation_targetAtFixation,jsons/VE125_randls_72.json,http://54.235.29.9/FacialAge/BNav_EC2/DepthDuration/v2_depth_duration_MTurk/v2_DepthDuration_HTML.html#126,126,1280,609,1280,720,9-3-2022,9-11-20,164,depth_duration_stimuli/002639_2014-06-24_14-51-37_094959634447_rgbf000074-resize_4/002639_2014-06-24_14-51-37_094959634447_rgbf000074-resize_4-target.png,125,4.0375,8,2561,123,feet,jsons/VE125_randls_72.json,1090787,2635581,31,Woman
