,subjID,experimentName,versionName,sequenceName,url,selected_row,windowWidth,windowHeight,screenWidth,screenHeight,startDate,startTime,trial,stimulus,duration,actual_depth,depth_estimate,trial_RT,log_sceneDuration,unitSelection,seq_filepath,experimentTime,totalTime,age,gender
0,361293,DepthScenes,duration_manipulation_targetAtFixation,jsons/v1_VE250_randls_63_rotated.json,http://54.235.29.9/FacialAge/BNav_EC2/DepthDuration/v2_depth_duration_MTurk/v2_DepthDuration_HTML.html#6,6,1366,635,1366,768,8-29-2022,11-37-53,1,depth_duration_stimuli/003129_2014-05-12_10-48-10_094959634447_rgbf000100-resize_0/003129_2014-05-12_10-48-10_094959634447_rgbf000100-resize_0-target.png,250,4.9305,10,4630,248,feet,jsons/v1_VE250_randls_63_rotated.json,695663,900354,34,Woman
1,361293,DepthScenes,duration_manipulation_targetAtFixation,jsons/v1_VE250_randls_63_rotated.json,http://54.235.29.9/FacialAge/BNav_EC2/DepthDuration/v2_depth_duration_MTurk/v2_DepthDuration_HTML.html#6,6,1366,635,1366,768,8-29-2022,11-37-53,2,depth_duration_stimuli/000414_2014-06-04_19-49-13_260595134347_rgbf000044-resize_0/000414_2014-06-04_19-49-13_260595134347_rgbf000044-resize_0-target.png,250,4.329,20,4449,247,feet,jsons/v1_VE250_randls_63_rotated.json,695663,900354,34,Woman
2,361293,DepthScenes,duration_manipulation_targetAtFixation,jsons/v1_VE250_randls_63_rotated.json,http://54.235.29.9/FacialAge/BNav_EC2/DepthDuration/v2_depth_duration_MTurk/v2_DepthDuration_HTML.html#6,6,1366,635,1366,768,8-29-2022,11-37-53,3,depth_duration_stimuli/000109_2014-05-14_23-41-52_260595134347_rgbf000035-resize_9/000109_2014-05-14_23-41-52_260595134347_rgbf000035-resize_9-target.png,250,1.3545,3,3151,248,feet,jsons/v1_VE250_randls_63_rotated.json,695663,900354,34,Woman
3,361293,DepthScenes,duration_manipulation_targetAtFixation,jsons/v1_VE250_randls_63_rotated.json,http://54.235.29.9/FacialAge/BNav_EC2/DepthDuration/v2_depth_duration_MTurk/v2_DepthDuration_HTML.html#6,6,1366,635,1366,768,8-29-2022,11-37-53,4,depth_duration_stimuli/000470_2014-06-09_19-42-40_260595134347_rgbf000094-resize_1/000470_2014-06-09_19-42-40_260595134347_rgbf000094-resize_1-target.png,250,1.831,2,3608,247,feet,jsons/v1_VE250_randls_63_rotated.json,695663,900354,34,Woman
4,361293,DepthScenes,duration_manipulation_targetAtFixation,jsons/v1_VE250_randls_63_rotated.json,http://54.235.29.9/FacialAge/BNav_EC2/DepthDuration/v2_depth_duration_MTurk/v2_DepthDuration_HTML.html#6,6,1366,635,1366,768,8-29-2022,11-37-53,5,depth_duration_stimuli/003338_2014-05-20_11-01-23_094959634447_rgbf000051-resize_6/003338_2014-05-20_11-01-23_094959634447_rgbf000051-resize_6-target.png,250,1.693,3,3446,247,feet,jsons/v1_VE250_randls_63_rotated.json,695663,900354,34,Woman
5,361293,DepthScenes,duration_manipulation_targetAtFixation,jsons/v1_VE250_randls_63_rotated.json,http://54.235.29.9/FacialAge/BNav_EC2/DepthDuration/v2_depth_duration_MTurk/v2_DepthDuration_HTML.html#6,6,1366,635,1366,768,8-29-2022,11-37-53,6,depth_duration_stimuli/002509_2014-06-24_13-19-22_094959634447_rgbf000077-resize_0/002509_2014-06-24_13-19-22_094959634447_rgbf000077-resize_0-target.png,250,1.3065,4,4396,247,feet,jsons/v1_VE250_randls_63_rotated.json,695663,900354,34,Woman
6,361293,DepthScenes,duration_manipulation_targetAtFixation,jsons/v1_VE250_randls_63_rotated.json,http://54.235.29.9/FacialAge/BNav_EC2/DepthDuration/v2_depth_duration_MTurk/v2_DepthDuration_HTML.html#6,6,1366,635,1366,768,8-29-2022,11-37-53,7,depth_duration_stimuli/003010_2014-06-15_12-54-35_094959634447_rgbf000112-resize_0/003010_2014-06-15_12-54-35_094959634447_rgbf000112-resize_0-target.png,250,3.1185,7,5301,249,feet,jsons/v1_VE250_randls_63_rotated.json,695663,900354,34,Woman
7,361293,DepthScenes,duration_manipulation_targetAtFixation,jsons/v1_VE250_randls_63_rotated.json,http://54.235.29.9/FacialAge/BNav_EC2/DepthDuration/v2_depth_duration_MTurk/v2_DepthDuration_HTML.html#6,6,1366,635,1366,768,8-29-2022,11-37-53,8,depth_duration_stimuli/001810_2014-06-26_20-51-35_260595134347_rgbf000040-resize_3/001810_2014-06-26_20-51-35_260595134347_rgbf000040-resize_3-target.png,250,2.2525,6,3503,247,feet,jsons/v1_VE250_randls_63_rotated.json,695663,900354,34,Woman
8,361293,DepthScenes,duration_manipulation_targetAtFixation,jsons/v1_VE250_randls_63_rotated.json,http://54.235.29.9/FacialAge/BNav_EC2/DepthDuration/v2_depth_duration_MTurk/v2_DepthDuration_HTML.html#6,6,1366,635,1366,768,8-29-2022,11-37-53,9,depth_duration_stimuli/003228_2014-05-14_13-42-35_094959634447_rgbf000101-resize_1/003228_2014-05-14_13-42-35_094959634447_rgbf000101-resize_1-target.png,250,1.9680000000000002,4,3182,248,feet,jsons/v1_VE250_randls_63_rotated.json,695663,900354,34,Woman
9,361293,DepthScenes,duration_manipulation_targetAtFixation,jsons/v1_VE250_randls_63_rotated.json,http://54.235.29.9/FacialAge/BNav_EC2/DepthDuration/v2_depth_duration_MTurk/v2_DepthDuration_HTML.html#6,6,1366,635,1366,768,8-29-2022,11-37-53,10,depth_duration_stimuli/002600_2014-06-24_14-27-04_094959634447_rgbf000074-resize_2/002600_2014-06-24_14-27-04_094959634447_rgbf000074-resize_2-target.png,250,2.7575,5,3846,248,feet,jsons/v1_VE250_randls_63_rotated.json,695663,900354,34,Woman
10,361293,DepthScenes,duration_manipulation_targetAtFixation,jsons/v1_VE250_randls_63_rotated.json,http://54.235.29.9/FacialAge/BNav_EC2/DepthDuration/v2_depth_duration_MTurk/v2_DepthDuration_HTML.html#6,6,1366,635,1366,768,8-29-2022,11-37-53,11,depth_duration_stimuli/002805_2014-06-22_19-54-03_094959634447_rgbf000079-resize_1/002805_2014-06-22_19-54-03_094959634447_rgbf000079-resize_1-target.png,250,3.1439999999999997,7,4204,241,feet,jsons/v1_VE250_randls_63_rotated.json,695663,900354,34,Woman
11,361293,DepthScenes,duration_manipulation_targetAtFixation,jsons/v1_VE250_randls_63_rotated.json,http://54.235.29.9/FacialAge/BNav_EC2/DepthDuration/v2_depth_duration_MTurk/v2_DepthDuration_HTML.html#6,6,1366,635,1366,768,8-29-2022,11-37-53,12,depth_duration_stimuli/000906_2014-06-08_13-35-43_260595134347_rgbf000155-resize_1/000906_2014-06-08_13-35-43_260595134347_rgbf000155-resize_1-target.png,250,2.8489999999999998,8,4536,247,feet,jsons/v1_VE250_randls_63_rotated.json,695663,900354,34,Woman
12,361293,DepthScenes,duration_manipulation_targetAtFixation,jsons/v1_VE250_randls_63_rotated.json,http://54.235.29.9/FacialAge/BNav_EC2/DepthDuration/v2_depth_duration_MTurk/v2_DepthDuration_HTML.html#6,6,1366,635,1366,768,8-29-2022,11-37-53,13,depth_duration_stimuli/003587_2014-05-23_16-48-02_094959634447_rgbf002384-resize_2/003587_2014-05-23_16-48-02_094959634447_rgbf002384-resize_2-target.png,250,1.357,1,3401,248,feet,jsons/v1_VE250_randls_63_rotated.json,695663,900354,34,Woman
13,361293,DepthScenes,duration_manipulation_targetAtFixation,jsons/v1_VE250_randls_63_rotated.json,http://54.235.29.9/FacialAge/BNav_EC2/DepthDuration/v2_depth_duration_MTurk/v2_DepthDuration_HTML.html#6,6,1366,635,1366,768,8-29-2022,11-37-53,14,depth_duration_stimuli/001167_2014-06-17_15-38-07_260595134347_rgbf000108-resize_0/001167_2014-06-17_15-38-07_260595134347_rgbf000108-resize_0-target.png,250,1.8505,3,3071,249,feet,jsons/v1_VE250_randls_63_rotated.json,695663,900354,34,Woman
14,361293,DepthScenes,duration_manipulation_targetAtFixation,jsons/v1_VE250_randls_63_rotated.json,http://54.235.29.9/FacialAge/BNav_EC2/DepthDuration/v2_depth_duration_MTurk/v2_DepthDuration_HTML.html#6,6,1366,635,1366,768,8-29-2022,11-37-53,15,depth_duration_stimuli/002995_2014-06-15_12-31-26_094959634447_rgbf000150-resize_1/002995_2014-06-15_12-31-26_094959634447_rgbf000150-resize_1-target.png,250,3.8360000000000003,6,3260,247,feet,jsons/v1_VE250_randls_63_rotated.json,695663,900354,34,Woman
15,361293,DepthScenes,duration_manipulation_targetAtFixation,jsons/v1_VE250_randls_63_rotated.json,http://54.235.29.9/FacialAge/BNav_EC2/DepthDuration/v2_depth_duration_MTurk/v2_DepthDuration_HTML.html#6,6,1366,635,1366,768,8-29-2022,11-37-53,16,depth_duration_stimuli/002748_2014-06-22_19-07-22_094959634447_rgbf000078-resize_1/002748_2014-06-22_19-07-22_094959634447_rgbf000078-resize_1-target.png,250,4.6705,10,3717,250,feet,jsons/v1_VE250_randls_63_rotated.json,695663,900354,34,Woman
16,361293,DepthScenes,duration_manipulation_targetAtFixation,jsons/v1_VE250_randls_63_rotated.json,http://54.235.29.9/FacialAge/BNav_EC2/DepthDuration/v2_depth_duration_MTurk/v2_DepthDuration_HTML.html#6,6,1366,635,1366,768,8-29-2022,11-37-53,17,depth_duration_stimuli/001584_2014-06-20_11-07-43_260595134347_rgbf000002-resize_1/001584_2014-06-20_11-07-43_260595134347_rgbf000002-resize_1-target.png,250,3.53,6,3048,248,feet,jsons/v1_VE250_randls_63_rotated.json,695663,900354,34,Woman
17,361293,DepthScenes,duration_manipulation_targetAtFixation,jsons/v1_VE250_randls_63_rotated.json,http://54.235.29.9/FacialAge/BNav_EC2/DepthDuration/v2_depth_duration_MTurk/v2_DepthDuration_HTML.html#6,6,1366,635,1366,768,8-29-2022,11-37-53,18,depth_duration_stimuli/003621_2014-05-23_18-06-08_094959634447_rgbf000101-resize_1/003621_2014-05-23_18-06-08_094959634447_rgbf000101-resize_1-target.png,250,3.9835,10,4021,248,feet,jsons/v1_VE250_randls_63_rotated.json,695663,900354,34,Woman
18,361293,DepthScenes,duration_manipulation_targetAtFixation,jsons/v1_VE250_randls_63_rotated.json,http://54.235.29.9/FacialAge/BNav_EC2/DepthDuration/v2_depth_duration_MTurk/v2_DepthDuration_HTML.html#6,6,1366,635,1366,768,8-29-2022,11-37-53,19,depth_duration_stimuli/001498_2014-06-19_17-45-14_260595134347_rgbf000129-resize_4/001498_2014-06-19_17-45-14_260595134347_rgbf000129-resize-original.jpg,250,1.4075,2,4231,249,feet,jsons/v1_VE250_randls_63_rotated.json,695663,900354,34,Woman
19,361293,DepthScenes,duration_manipulation_targetAtFixation,jsons/v1_VE250_randls_63_rotated.json,http://54.235.29.9/FacialAge/BNav_EC2/DepthDuration/v2_depth_duration_MTurk/v2_DepthDuration_HTML.html#6,6,1366,635,1366,768,8-29-2022,11-37-53,20,depth_duration_stimuli/001447_2014-06-19_17-00-32_260595134347_rgbf000082-resize_5/001447_2014-06-19_17-00-32_260595134347_rgbf000082-resize_5-target.png,250,4.13775,4,3710,249,feet,jsons/v1_VE250_randls_63_rotated.json,695663,900354,34,Woman
20,361293,DepthScenes,duration_manipulation_targetAtFixation,jsons/v1_VE250_randls_63_rotated.json,http://54.235.29.9/FacialAge/BNav_EC2/DepthDuration/v2_depth_duration_MTurk/v2_DepthDuration_HTML.html#6,6,1366,635,1366,768,8-29-2022,11-37-53,21,depth_duration_stimuli/000447_2014-06-08_16-15-46_260595134347_rgbf000130-resize_1/000447_2014-06-08_16-15-46_260595134347_rgbf000130-resize_1-target.png,250,4.479,7,5613,248,feet,jsons/v1_VE250_randls_63_rotated.json,695663,900354,34,Woman
21,361293,DepthScenes,duration_manipulation_targetAtFixation,jsons/v1_VE250_randls_63_rotated.json,http://54.235.29.9/FacialAge/BNav_EC2/DepthDuration/v2_depth_duration_MTurk/v2_DepthDuration_HTML.html#6,6,1366,635,1366,768,8-29-2022,11-37-53,22,depth_duration_stimuli/001136_2014-06-17_15-19-41_260595134347_rgbf000076-resize_3/001136_2014-06-17_15-19-41_260595134347_rgbf000076-resize_3-target.png,250,1.8655,2,2692,247,feet,jsons/v1_VE250_randls_63_rotated.json,695663,900354,34,Woman
22,361293,DepthScenes,duration_manipulation_targetAtFixation,jsons/v1_VE250_randls_63_rotated.json,http://54.235.29.9/FacialAge/BNav_EC2/DepthDuration/v2_depth_duration_MTurk/v2_DepthDuration_HTML.html#6,6,1366,635,1366,768,8-29-2022,11-37-53,23,depth_duration_stimuli/001164_2014-06-17_15-35-46_260595134347_rgbf000085-resize_3/001164_2014-06-17_15-35-46_260595134347_rgbf000085-resize_3-target.png,250,2.354,3,2794,249,feet,jsons/v1_VE250_randls_63_rotated.json,695663,900354,34,Woman
23,361293,DepthScenes,duration_manipulation_targetAtFixation,jsons/v1_VE250_randls_63_rotated.json,http://54.235.29.9/FacialAge/BNav_EC2/DepthDuration/v2_depth_duration_MTurk/v2_DepthDuration_HTML.html#6,6,1366,635,1366,768,8-29-2022,11-37-53,24,depth_duration_stimuli/002467_2014-06-28_20-38-07_260595134347_rgbf000026-resize_2/002467_2014-06-28_20-38-07_260595134347_rgbf000026-resize_2-target.png,250,4.742,9,4948,246,feet,jsons/v1_VE250_randls_63_rotated.json,695663,900354,34,Woman
24,361293,DepthScenes,duration_manipulation_targetAtFixation,jsons/v1_VE250_randls_63_rotated.json,http://54.235.29.9/FacialAge/BNav_EC2/DepthDuration/v2_depth_duration_MTurk/v2_DepthDuration_HTML.html#6,6,1366,635,1366,768,8-29-2022,11-37-53,25,depth_duration_stimuli/002570_2014-06-24_13-59-54_094959634447_rgbf000059-resize_0/002570_2014-06-24_13-59-54_094959634447_rgbf000059-resize_0-target.png,250,4.037,9,4548,235,feet,jsons/v1_VE250_randls_63_rotated.json,695663,900354,34,Woman
25,361293,DepthScenes,duration_manipulation_targetAtFixation,jsons/v1_VE250_randls_63_rotated.json,http://54.235.29.9/FacialAge/BNav_EC2/DepthDuration/v2_depth_duration_MTurk/v2_DepthDuration_HTML.html#6,6,1366,635,1366,768,8-29-2022,11-37-53,26,depth_duration_stimuli/002209_2014-06-28_18-36-10_260595134347_rgbf000051-resize_1/002209_2014-06-28_18-36-10_260595134347_rgbf000051-resize_1-target.png,250,2.057,3,2888,248,feet,jsons/v1_VE250_randls_63_rotated.json,695663,900354,34,Woman
26,361293,DepthScenes,duration_manipulation_targetAtFixation,jsons/v1_VE250_randls_63_rotated.json,http://54.235.29.9/FacialAge/BNav_EC2/DepthDuration/v2_depth_duration_MTurk/v2_DepthDuration_HTML.html#6,6,1366,635,1366,768,8-29-2022,11-37-53,27,depth_duration_stimuli/002763_2014-06-22_19-13-10_094959634447_rgbf000075-resize_4/002763_2014-06-22_19-13-10_094959634447_rgbf000075-resize_4-target.png,250,1.68375,3,3475,247,feet,jsons/v1_VE250_randls_63_rotated.json,695663,900354,34,Woman
27,361293,DepthScenes,duration_manipulation_targetAtFixation,jsons/v1_VE250_randls_63_rotated.json,http://54.235.29.9/FacialAge/BNav_EC2/DepthDuration/v2_depth_duration_MTurk/v2_DepthDuration_HTML.html#6,6,1366,635,1366,768,8-29-2022,11-37-53,28,depth_duration_stimuli/001214_2014-06-17_16-13-55_260595134347_rgbf000111-resize_0/001214_2014-06-17_16-13-55_260595134347_rgbf000111-resize_0-target.png,250,2.6505,4,3075,247,feet,jsons/v1_VE250_randls_63_rotated.json,695663,900354,34,Woman
28,361293,DepthScenes,duration_manipulation_targetAtFixation,jsons/v1_VE250_randls_63_rotated.json,http://54.235.29.9/FacialAge/BNav_EC2/DepthDuration/v2_depth_duration_MTurk/v2_DepthDuration_HTML.html#6,6,1366,635,1366,768,8-29-2022,11-37-53,29,depth_duration_stimuli/000810_2014-06-08_17-20-01_260595134347_rgbf000105-resize_0/000810_2014-06-08_17-20-01_260595134347_rgbf000105-resize_0-target.png,250,1.4865,3,4588,248,feet,jsons/v1_VE250_randls_63_rotated.json,695663,900354,34,Woman
29,361293,DepthScenes,duration_manipulation_targetAtFixation,jsons/v1_VE250_randls_63_rotated.json,http://54.235.29.9/FacialAge/BNav_EC2/DepthDuration/v2_depth_duration_MTurk/v2_DepthDuration_HTML.html#6,6,1366,635,1366,768,8-29-2022,11-37-53,30,depth_duration_stimuli/002072_2014-06-24_21-48-06_260595134347_rgbf000115-resize_0/002072_2014-06-24_21-48-06_260595134347_rgbf000115-resize-original.jpg,250,4.702,0,6367,248,feet,jsons/v1_VE250_randls_63_rotated.json,695663,900354,34,Woman
30,361293,DepthScenes,duration_manipulation_targetAtFixation,jsons/v1_VE250_randls_63_rotated.json,http://54.235.29.9/FacialAge/BNav_EC2/DepthDuration/v2_depth_duration_MTurk/v2_DepthDuration_HTML.html#6,6,1366,635,1366,768,8-29-2022,11-37-53,31,depth_duration_stimuli/002414_2014-06-28_20-24-58_260595134347_rgbf000067-resize_4/002414_2014-06-28_20-24-58_260595134347_rgbf000067-resize_4-target.png,250,4.363,6,5041,247,feet,jsons/v1_VE250_randls_63_rotated.json,695663,900354,34,Woman
31,361293,DepthScenes,duration_manipulation_targetAtFixation,jsons/v1_VE250_randls_63_rotated.json,http://54.235.29.9/FacialAge/BNav_EC2/DepthDuration/v2_depth_duration_MTurk/v2_DepthDuration_HTML.html#6,6,1366,635,1366,768,8-29-2022,11-37-53,32,depth_duration_stimuli/000773_2014-06-08_22-24-54_260595134347_rgbf000093-resize_1/000773_2014-06-08_22-24-54_260595134347_rgbf000093-resize_1-target.png,250,4.973,8,4574,248,feet,jsons/v1_VE250_randls_63_rotated.json,695663,900354,34,Woman
32,361293,DepthScenes,duration_manipulation_targetAtFixation,jsons/v1_VE250_randls_63_rotated.json,http://54.235.29.9/FacialAge/BNav_EC2/DepthDuration/v2_depth_duration_MTurk/v2_DepthDuration_HTML.html#6,6,1366,635,1366,768,8-29-2022,11-37-53,33,depth_duration_stimuli/003423_2014-05-21_10-23-26_094959634447_rgbf002665-resize_2/003423_2014-05-21_10-23-26_094959634447_rgbf002665-resize_2-target.png,250,3.2575,10,5759,247,feet,jsons/v1_VE250_randls_63_rotated.json,695663,900354,34,Woman
33,361293,DepthScenes,duration_manipulation_targetAtFixation,jsons/v1_VE250_randls_63_rotated.json,http://54.235.29.9/FacialAge/BNav_EC2/DepthDuration/v2_depth_duration_MTurk/v2_DepthDuration_HTML.html#6,6,1366,635,1366,768,8-29-2022,11-37-53,34,depth_duration_stimuli/002905_2014-06-03_18-04-43_094959634447_rgbf000151-resize_2/002905_2014-06-03_18-04-43_094959634447_rgbf000151-resize_2-target.png,250,2.0295,4,3564,248,feet,jsons/v1_VE250_randls_63_rotated.json,695663,900354,34,Woman
34,361293,DepthScenes,duration_manipulation_targetAtFixation,jsons/v1_VE250_randls_63_rotated.json,http://54.235.29.9/FacialAge/BNav_EC2/DepthDuration/v2_depth_duration_MTurk/v2_DepthDuration_HTML.html#6,6,1366,635,1366,768,8-29-2022,11-37-53,35,depth_duration_stimuli/000691_2014-06-08_13-08-50_260595134347_rgbf000132-resize_3/000691_2014-06-08_13-08-50_260595134347_rgbf000132-resize_3-target.png,250,4.1530000000000005,7,5715,241,feet,jsons/v1_VE250_randls_63_rotated.json,695663,900354,34,Woman
35,361293,DepthScenes,duration_manipulation_targetAtFixation,jsons/v1_VE250_randls_63_rotated.json,http://54.235.29.9/FacialAge/BNav_EC2/DepthDuration/v2_depth_duration_MTurk/v2_DepthDuration_HTML.html#6,6,1366,635,1366,768,8-29-2022,11-37-53,36,depth_duration_stimuli/002213_2014-06-28_18-37-58_260595134347_rgbf000055-resize_1/002213_2014-06-28_18-37-58_260595134347_rgbf000055-resize_1-target.png,250,3.62,8,4859,249,feet,jsons/v1_VE250_randls_63_rotated.json,695663,900354,34,Woman
36,361293,DepthScenes,duration_manipulation_targetAtFixation,jsons/v1_VE250_randls_63_rotated.json,http://54.235.29.9/FacialAge/BNav_EC2/DepthDuration/v2_depth_duration_MTurk/v2_DepthDuration_HTML.html#6,6,1366,635,1366,768,8-29-2022,11-37-53,37,depth_duration_stimuli/003083_2014-06-15_15-21-03_094959634447_rgbf000063-resize_1/003083_2014-06-15_15-21-03_094959634447_rgbf000063-resize_1-target.png,250,4.1405,10,4064,248,feet,jsons/v1_VE250_randls_63_rotated.json,695663,900354,34,Woman
37,361293,DepthScenes,duration_manipulation_targetAtFixation,jsons/v1_VE250_randls_63_rotated.json,http://54.235.29.9/FacialAge/BNav_EC2/DepthDuration/v2_depth_duration_MTurk/v2_DepthDuration_HTML.html#6,6,1366,635,1366,768,8-29-2022,11-37-53,38,depth_duration_stimuli/000486_2014-06-09_20-47-20_260595134347_rgbf000143-resize_2/000486_2014-06-09_20-47-20_260595134347_rgbf000143-resize_2-target.png,250,4.8325,8,5240,248,feet,jsons/v1_VE250_randls_63_rotated.json,695663,900354,34,Woman
38,361293,DepthScenes,duration_manipulation_targetAtFixation,jsons/v1_VE250_randls_63_rotated.json,http://54.235.29.9/FacialAge/BNav_EC2/DepthDuration/v2_depth_duration_MTurk/v2_DepthDuration_HTML.html#6,6,1366,635,1366,768,8-29-2022,11-37-53,39,depth_duration_stimuli/001617_2014-06-20_11-35-32_260595134347_rgbf000066-resize_1/001617_2014-06-20_11-35-32_260595134347_rgbf000066-resize_1-target.png,250,3.7910000000000004,8,5011,247,feet,jsons/v1_VE250_randls_63_rotated.json,695663,900354,34,Woman
39,361293,DepthScenes,duration_manipulation_targetAtFixation,jsons/v1_VE250_randls_63_rotated.json,http://54.235.29.9/FacialAge/BNav_EC2/DepthDuration/v2_depth_duration_MTurk/v2_DepthDuration_HTML.html#6,6,1366,635,1366,768,8-29-2022,11-37-53,40,depth_duration_stimuli/001806_2014-06-26_20-50-20_260595134347_rgbf000091-resize_1/001806_2014-06-26_20-50-20_260595134347_rgbf000091-resize_1-target.png,250,2.7305,5,3196,247,feet,jsons/v1_VE250_randls_63_rotated.json,695663,900354,34,Woman
40,361293,DepthScenes,duration_manipulation_targetAtFixation,jsons/v1_VE250_randls_63_rotated.json,http://54.235.29.9/FacialAge/BNav_EC2/DepthDuration/v2_depth_duration_MTurk/v2_DepthDuration_HTML.html#6,6,1366,635,1366,768,8-29-2022,11-37-53,41,depth_duration_stimuli/000866_2014-06-09_20-45-42_260595134347_rgbf000139-resize_1/000866_2014-06-09_20-45-42_260595134347_rgbf000139-resize_1-target.png,250,3.2155,4,2610,249,feet,jsons/v1_VE250_randls_63_rotated.json,695663,900354,34,Woman
41,361293,DepthScenes,duration_manipulation_targetAtFixation,jsons/v1_VE250_randls_63_rotated.json,http://54.235.29.9/FacialAge/BNav_EC2/DepthDuration/v2_depth_duration_MTurk/v2_DepthDuration_HTML.html#6,6,1366,635,1366,768,8-29-2022,11-37-53,42,depth_duration_stimuli/002989_2014-06-15_12-25-03_094959634447_rgbf000150-resize_3/002989_2014-06-15_12-25-03_094959634447_rgbf000150-resize_3-target.png,250,4.1975,10,3376,247,feet,jsons/v1_VE250_randls_63_rotated.json,695663,900354,34,Woman
42,361293,DepthScenes,duration_manipulation_targetAtFixation,jsons/v1_VE250_randls_63_rotated.json,http://54.235.29.9/FacialAge/BNav_EC2/DepthDuration/v2_depth_duration_MTurk/v2_DepthDuration_HTML.html#6,6,1366,635,1366,768,8-29-2022,11-37-53,43,depth_duration_stimuli/000927_2014-06-09_16-32-30_260595134347_rgbf000123-resize_3/000927_2014-06-09_16-32-30_260595134347_rgbf000123-resize_3-target.png,250,2.6785,8,2455,249,feet,jsons/v1_VE250_randls_63_rotated.json,695663,900354,34,Woman
43,361293,DepthScenes,duration_manipulation_targetAtFixation,jsons/v1_VE250_randls_63_rotated.json,http://54.235.29.9/FacialAge/BNav_EC2/DepthDuration/v2_depth_duration_MTurk/v2_DepthDuration_HTML.html#6,6,1366,635,1366,768,8-29-2022,11-37-53,44,depth_duration_stimuli/001110_2014-06-15_17-25-28_260595134347_rgbf000150-resize_1/001110_2014-06-15_17-25-28_260595134347_rgbf000150-resize_1-target.png,250,1.7115,3,2941,245,feet,jsons/v1_VE250_randls_63_rotated.json,695663,900354,34,Woman
44,361293,DepthScenes,duration_manipulation_targetAtFixation,jsons/v1_VE250_randls_63_rotated.json,http://54.235.29.9/FacialAge/BNav_EC2/DepthDuration/v2_depth_duration_MTurk/v2_DepthDuration_HTML.html#6,6,1366,635,1366,768,8-29-2022,11-37-53,45,depth_duration_stimuli/001100_2014-06-15_17-46-26_260595134347_rgbf000225-resize_2/001100_2014-06-15_17-46-26_260595134347_rgbf000225-resize_2-target.png,250,2.24,3,2737,248,feet,jsons/v1_VE250_randls_63_rotated.json,695663,900354,34,Woman
45,361293,DepthScenes,duration_manipulation_targetAtFixation,jsons/v1_VE250_randls_63_rotated.json,http://54.235.29.9/FacialAge/BNav_EC2/DepthDuration/v2_depth_duration_MTurk/v2_DepthDuration_HTML.html#6,6,1366,635,1366,768,8-29-2022,11-37-53,46,depth_duration_stimuli/002784_2014-06-22_19-26-30_094959634447_rgbf000083-resize_3/002784_2014-06-22_19-26-30_094959634447_rgbf000083-resize_3-target.png,250,1.8046666666667,2,2410,248,feet,jsons/v1_VE250_randls_63_rotated.json,695663,900354,34,Woman
46,361293,DepthScenes,duration_manipulation_targetAtFixation,jsons/v1_VE250_randls_63_rotated.json,http://54.235.29.9/FacialAge/BNav_EC2/DepthDuration/v2_depth_duration_MTurk/v2_DepthDuration_HTML.html#6,6,1366,635,1366,768,8-29-2022,11-37-53,47,depth_duration_stimuli/001032_2014-06-08_13-23-17_260595134347_rgbf000021-resize_3/001032_2014-06-08_13-23-17_260595134347_rgbf000021-resize_3-target.png,250,3.2725,4,2896,245,feet,jsons/v1_VE250_randls_63_rotated.json,695663,900354,34,Woman
47,361293,DepthScenes,duration_manipulation_targetAtFixation,jsons/v1_VE250_randls_63_rotated.json,http://54.235.29.9/FacialAge/BNav_EC2/DepthDuration/v2_depth_duration_MTurk/v2_DepthDuration_HTML.html#6,6,1366,635,1366,768,8-29-2022,11-37-53,48,depth_duration_stimuli/001059_2014-06-08_21-53-27_260595134347_rgbf000061-resize_4/001059_2014-06-08_21-53-27_260595134347_rgbf000061-resize_4-target.png,250,2.4185,3,3567,248,feet,jsons/v1_VE250_randls_63_rotated.json,695663,900354,34,Woman
48,361293,DepthScenes,duration_manipulation_targetAtFixation,jsons/v1_VE250_randls_63_rotated.json,http://54.235.29.9/FacialAge/BNav_EC2/DepthDuration/v2_depth_duration_MTurk/v2_DepthDuration_HTML.html#6,6,1366,635,1366,768,8-29-2022,11-37-53,49,depth_duration_stimuli/001170_2014-06-17_15-43-44_260595134347_rgbf000096-resize_6/001170_2014-06-17_15-43-44_260595134347_rgbf000096-resize-original.jpg,250,1.1909999999999998,0,5478,246,feet,jsons/v1_VE250_randls_63_rotated.json,695663,900354,34,Woman
49,361293,DepthScenes,duration_manipulation_targetAtFixation,jsons/v1_VE250_randls_63_rotated.json,http://54.235.29.9/FacialAge/BNav_EC2/DepthDuration/v2_depth_duration_MTurk/v2_DepthDuration_HTML.html#6,6,1366,635,1366,768,8-29-2022,11-37-53,50,depth_duration_stimuli/001235_2014-06-17_16-37-36_260595134347_rgbf000084-resize_4/001235_2014-06-17_16-37-36_260595134347_rgbf000084-resize_4-target.png,250,3.6605,4,3024,245,feet,jsons/v1_VE250_randls_63_rotated.json,695663,900354,34,Woman
50,361293,DepthScenes,duration_manipulation_targetAtFixation,jsons/v1_VE250_randls_63_rotated.json,http://54.235.29.9/FacialAge/BNav_EC2/DepthDuration/v2_depth_duration_MTurk/v2_DepthDuration_HTML.html#6,6,1366,635,1366,768,8-29-2022,11-37-53,51,depth_duration_stimuli/000788_2014-06-08_22-34-36_260595134347_rgbf000131-resize_1/000788_2014-06-08_22-34-36_260595134347_rgbf000131-resize_1-target.png,250,3.359,5,3944,248,feet,jsons/v1_VE250_randls_63_rotated.json,695663,900354,34,Woman
51,361293,DepthScenes,duration_manipulation_targetAtFixation,jsons/v1_VE250_randls_63_rotated.json,http://54.235.29.9/FacialAge/BNav_EC2/DepthDuration/v2_depth_duration_MTurk/v2_DepthDuration_HTML.html#6,6,1366,635,1366,768,8-29-2022,11-37-53,52,depth_duration_stimuli/001516_2014-06-20_16-25-09_260595134347_rgbf000076-resize_2/001516_2014-06-20_16-25-09_260595134347_rgbf000076-resize_2-target.png,250,1.7445,4,3584,247,feet,jsons/v1_VE250_randls_63_rotated.json,695663,900354,34,Woman
52,361293,DepthScenes,duration_manipulation_targetAtFixation,jsons/v1_VE250_randls_63_rotated.json,http://54.235.29.9/FacialAge/BNav_EC2/DepthDuration/v2_depth_duration_MTurk/v2_DepthDuration_HTML.html#6,6,1366,635,1366,768,8-29-2022,11-37-53,53,depth_duration_stimuli/002118_2014-06-25_20-32-08_260595134347_rgbf000078-resize_1/002118_2014-06-25_20-32-08_260595134347_rgbf000078-resize_1-target.png,250,2.6460000000000004,4,3736,248,feet,jsons/v1_VE250_randls_63_rotated.json,695663,900354,34,Woman
53,361293,DepthScenes,duration_manipulation_targetAtFixation,jsons/v1_VE250_randls_63_rotated.json,http://54.235.29.9/FacialAge/BNav_EC2/DepthDuration/v2_depth_duration_MTurk/v2_DepthDuration_HTML.html#6,6,1366,635,1366,768,8-29-2022,11-37-53,54,depth_duration_stimuli/000854_2014-06-09_19-43-13_260595134347_rgbf000066-resize_0/000854_2014-06-09_19-43-13_260595134347_rgbf000066-resize_0-target.png,250,3.068,3,3478,248,feet,jsons/v1_VE250_randls_63_rotated.json,695663,900354,34,Woman
54,361293,DepthScenes,duration_manipulation_targetAtFixation,jsons/v1_VE250_randls_63_rotated.json,http://54.235.29.9/FacialAge/BNav_EC2/DepthDuration/v2_depth_duration_MTurk/v2_DepthDuration_HTML.html#6,6,1366,635,1366,768,8-29-2022,11-37-53,55,depth_duration_stimuli/000758_2014-06-08_22-05-08_260595134347_rgbf000085-resize_0/000758_2014-06-08_22-05-08_260595134347_rgbf000085-resize_0-target.png,250,3.3810000000000002,10,3536,248,feet,jsons/v1_VE250_randls_63_rotated.json,695663,900354,34,Woman
55,361293,DepthScenes,duration_manipulation_targetAtFixation,jsons/v1_VE250_randls_63_rotated.json,http://54.235.29.9/FacialAge/BNav_EC2/DepthDuration/v2_depth_duration_MTurk/v2_DepthDuration_HTML.html#6,6,1366,635,1366,768,8-29-2022,11-37-53,56,depth_duration_stimuli/000137_2014-05-20_17-04-49_260595134347_rgbf000120-resize_1/000137_2014-05-20_17-04-49_260595134347_rgbf000120-resize_1-target.png,250,3.786,13,4790,248,feet,jsons/v1_VE250_randls_63_rotated.json,695663,900354,34,Woman
56,361293,DepthScenes,duration_manipulation_targetAtFixation,jsons/v1_VE250_randls_63_rotated.json,http://54.235.29.9/FacialAge/BNav_EC2/DepthDuration/v2_depth_duration_MTurk/v2_DepthDuration_HTML.html#6,6,1366,635,1366,768,8-29-2022,11-37-53,57,depth_duration_stimuli/000736_2014-06-08_18-24-15_260595134347_rgbf000206-resize_3/000736_2014-06-08_18-24-15_260595134347_rgbf000206-resize_3-target.png,250,3.515,6,4692,247,feet,jsons/v1_VE250_randls_63_rotated.json,695663,900354,34,Woman
57,361293,DepthScenes,duration_manipulation_targetAtFixation,jsons/v1_VE250_randls_63_rotated.json,http://54.235.29.9/FacialAge/BNav_EC2/DepthDuration/v2_depth_duration_MTurk/v2_DepthDuration_HTML.html#6,6,1366,635,1366,768,8-29-2022,11-37-53,58,depth_duration_stimuli/001571_2014-06-20_17-21-32_260595134347_rgbf000089-resize_1/001571_2014-06-20_17-21-32_260595134347_rgbf000089-resize_1-target.png,250,1.86,3,2752,246,feet,jsons/v1_VE250_randls_63_rotated.json,695663,900354,34,Woman
58,361293,DepthScenes,duration_manipulation_targetAtFixation,jsons/v1_VE250_randls_63_rotated.json,http://54.235.29.9/FacialAge/BNav_EC2/DepthDuration/v2_depth_duration_MTurk/v2_DepthDuration_HTML.html#6,6,1366,635,1366,768,8-29-2022,11-37-53,59,depth_duration_stimuli/002272_2014-06-28_18-53-56_260595134347_rgbf000067-resize_2/002272_2014-06-28_18-53-56_260595134347_rgbf000067-resize_2-target.png,250,1.138,2,2943,247,feet,jsons/v1_VE250_randls_63_rotated.json,695663,900354,34,Woman
59,361293,DepthScenes,duration_manipulation_targetAtFixation,jsons/v1_VE250_randls_63_rotated.json,http://54.235.29.9/FacialAge/BNav_EC2/DepthDuration/v2_depth_duration_MTurk/v2_DepthDuration_HTML.html#6,6,1366,635,1366,768,8-29-2022,11-37-53,60,depth_duration_stimuli/002660_2014-06-13_15-44-18_094959634447_rgbf001878-resize_2/002660_2014-06-13_15-44-18_094959634447_rgbf001878-resize_2-target.png,250,3.576,5,2768,248,feet,jsons/v1_VE250_randls_63_rotated.json,695663,900354,34,Woman
60,361293,DepthScenes,duration_manipulation_targetAtFixation,jsons/v1_VE250_randls_63_rotated.json,http://54.235.29.9/FacialAge/BNav_EC2/DepthDuration/v2_depth_duration_MTurk/v2_DepthDuration_HTML.html#6,6,1366,635,1366,768,8-29-2022,11-37-53,61,depth_duration_stimuli/002153_2014-06-25_21-27-18_260595134347_rgbf000038-resize_5/002153_2014-06-25_21-27-18_260595134347_rgbf000038-resize_5-target.png,250,2.505,5,3199,249,feet,jsons/v1_VE250_randls_63_rotated.json,695663,900354,34,Woman
61,361293,DepthScenes,duration_manipulation_targetAtFixation,jsons/v1_VE250_randls_63_rotated.json,http://54.235.29.9/FacialAge/BNav_EC2/DepthDuration/v2_depth_duration_MTurk/v2_DepthDuration_HTML.html#6,6,1366,635,1366,768,8-29-2022,11-37-53,62,depth_duration_stimuli/000103_2014-05-14_22-01-17_260595134347_rgbf000152-resize_5/000103_2014-05-14_22-01-17_260595134347_rgbf000152-resize_5-target.png,250,1.993,4,3083,247,feet,jsons/v1_VE250_randls_63_rotated.json,695663,900354,34,Woman
62,361293,DepthScenes,duration_manipulation_targetAtFixation,jsons/v1_VE250_randls_63_rotated.json,http://54.235.29.9/FacialAge/BNav_EC2/DepthDuration/v2_depth_duration_MTurk/v2_DepthDuration_HTML.html#6,6,1366,635,1366,768,8-29-2022,11-37-53,63,depth_duration_stimuli/001555_2014-06-20_17-12-10_260595134347_rgbf000065-resize_4/001555_2014-06-20_17-12-10_260595134347_rgbf000065-resize_4-target.png,250,1.633,3,2828,247,feet,jsons/v1_VE250_randls_63_rotated.json,695663,900354,34,Woman
63,361293,DepthScenes,duration_manipulation_targetAtFixation,jsons/v1_VE250_randls_63_rotated.json,http://54.235.29.9/FacialAge/BNav_EC2/DepthDuration/v2_depth_duration_MTurk/v2_DepthDuration_HTML.html#6,6,1366,635,1366,768,8-29-2022,11-37-53,64,depth_duration_stimuli/000502_2014-06-08_23-02-32_260595134347_rgbf000063-resize_4/000502_2014-06-08_23-02-32_260595134347_rgbf000063-resize_4-target.png,250,2.431,4,3488,247,feet,jsons/v1_VE250_randls_63_rotated.json,695663,900354,34,Woman
64,361293,DepthScenes,duration_manipulation_targetAtFixation,jsons/v1_VE250_randls_63_rotated.json,http://54.235.29.9/FacialAge/BNav_EC2/DepthDuration/v2_depth_duration_MTurk/v2_DepthDuration_HTML.html#6,6,1366,635,1366,768,8-29-2022,11-37-53,65,depth_duration_stimuli/001199_2014-06-17_16-03-48_260595134347_rgbf000077-resize_0/001199_2014-06-17_16-03-48_260595134347_rgbf000077-resize_0-target.png,250,3.4375,8,3768,242,feet,jsons/v1_VE250_randls_63_rotated.json,695663,900354,34,Woman
65,361293,DepthScenes,duration_manipulation_targetAtFixation,jsons/v1_VE250_randls_63_rotated.json,http://54.235.29.9/FacialAge/BNav_EC2/DepthDuration/v2_depth_duration_MTurk/v2_DepthDuration_HTML.html#6,6,1366,635,1366,768,8-29-2022,11-37-53,66,depth_duration_stimuli/001540_2014-06-20_17-01-05_260595134347_rgbf000086-resize_2/001540_2014-06-20_17-01-05_260595134347_rgbf000086-resize-original.jpg,250,1.459,0,7886,248,feet,jsons/v1_VE250_randls_63_rotated.json,695663,900354,34,Woman
66,361293,DepthScenes,duration_manipulation_targetAtFixation,jsons/v1_VE250_randls_63_rotated.json,http://54.235.29.9/FacialAge/BNav_EC2/DepthDuration/v2_depth_duration_MTurk/v2_DepthDuration_HTML.html#6,6,1366,635,1366,768,8-29-2022,11-37-53,67,depth_duration_stimuli/000556_2014-06-09_22-42-56_260595134347_rgbf000214-resize_1/000556_2014-06-09_22-42-56_260595134347_rgbf000214-resize_1-target.png,250,4.8415,10,5076,247,feet,jsons/v1_VE250_randls_63_rotated.json,695663,900354,34,Woman
67,361293,DepthScenes,duration_manipulation_targetAtFixation,jsons/v1_VE250_randls_63_rotated.json,http://54.235.29.9/FacialAge/BNav_EC2/DepthDuration/v2_depth_duration_MTurk/v2_DepthDuration_HTML.html#6,6,1366,635,1366,768,8-29-2022,11-37-53,68,depth_duration_stimuli/001158_2014-06-17_15-32-16_260595134347_rgbf000138-resize_2/001158_2014-06-17_15-32-16_260595134347_rgbf000138-resize_2-target.png,250,4.5315,10,6772,247,feet,jsons/v1_VE250_randls_63_rotated.json,695663,900354,34,Woman
68,361293,DepthScenes,duration_manipulation_targetAtFixation,jsons/v1_VE250_randls_63_rotated.json,http://54.235.29.9/FacialAge/BNav_EC2/DepthDuration/v2_depth_duration_MTurk/v2_DepthDuration_HTML.html#6,6,1366,635,1366,768,8-29-2022,11-37-53,69,depth_duration_stimuli/000709_2014-06-08_13-51-55_260595134347_rgbf000068-resize_3/000709_2014-06-08_13-51-55_260595134347_rgbf000068-resize_3-target.png,250,1.8030000000000002,4,3861,247,feet,jsons/v1_VE250_randls_63_rotated.json,695663,900354,34,Woman
69,361293,DepthScenes,duration_manipulation_targetAtFixation,jsons/v1_VE250_randls_63_rotated.json,http://54.235.29.9/FacialAge/BNav_EC2/DepthDuration/v2_depth_duration_MTurk/v2_DepthDuration_HTML.html#6,6,1366,635,1366,768,8-29-2022,11-37-53,70,depth_duration_stimuli/002057_2014-06-24_21-00-13_260595134347_rgbf000120-resize_1/002057_2014-06-24_21-00-13_260595134347_rgbf000120-resize_1-target.png,250,2.967,4,7310,251,feet,jsons/v1_VE250_randls_63_rotated.json,695663,900354,34,Woman
70,361293,DepthScenes,duration_manipulation_targetAtFixation,jsons/v1_VE250_randls_63_rotated.json,http://54.235.29.9/FacialAge/BNav_EC2/DepthDuration/v2_depth_duration_MTurk/v2_DepthDuration_HTML.html#6,6,1366,635,1366,768,8-29-2022,11-37-53,71,depth_duration_stimuli/002545_2014-06-24_13-38-53_094959634447_rgbf000080-resize_4/002545_2014-06-24_13-38-53_094959634447_rgbf000080-resize_4-target.png,250,1.9205,4,5148,246,feet,jsons/v1_VE250_randls_63_rotated.json,695663,900354,34,Woman
71,361293,DepthScenes,duration_manipulation_targetAtFixation,jsons/v1_VE250_randls_63_rotated.json,http://54.235.29.9/FacialAge/BNav_EC2/DepthDuration/v2_depth_duration_MTurk/v2_DepthDuration_HTML.html#6,6,1366,635,1366,768,8-29-2022,11-37-53,72,depth_duration_stimuli/001092_2014-06-15_17-34-58_260595134347_rgbf000171-resize_3/001092_2014-06-15_17-34-58_260595134347_rgbf000171-resize_3-target.png,250,2.6935,4,2312,250,feet,jsons/v1_VE250_randls_63_rotated.json,695663,900354,34,Woman
72,361293,DepthScenes,duration_manipulation_targetAtFixation,jsons/v1_VE250_randls_63_rotated.json,http://54.235.29.9/FacialAge/BNav_EC2/DepthDuration/v2_depth_duration_MTurk/v2_DepthDuration_HTML.html#6,6,1366,635,1366,768,8-29-2022,11-37-53,73,depth_duration_stimuli/002344_2014-06-28_20-06-29_260595134347_rgbf000030-resize_1/002344_2014-06-28_20-06-29_260595134347_rgbf000030-resize_1-target.png,250,1.5795,2,3109,248,feet,jsons/v1_VE250_randls_63_rotated.json,695663,900354,34,Woman
73,361293,DepthScenes,duration_manipulation_targetAtFixation,jsons/v1_VE250_randls_63_rotated.json,http://54.235.29.9/FacialAge/BNav_EC2/DepthDuration/v2_depth_duration_MTurk/v2_DepthDuration_HTML.html#6,6,1366,635,1366,768,8-29-2022,11-37-53,74,depth_duration_stimuli/002725_2014-06-22_11-47-51_094959634447_rgbf000070-resize_1/002725_2014-06-22_11-47-51_094959634447_rgbf000070-resize_1-target.png,250,2.195,3,4249,247,feet,jsons/v1_VE250_randls_63_rotated.json,695663,900354,34,Woman
74,361293,DepthScenes,duration_manipulation_targetAtFixation,jsons/v1_VE250_randls_63_rotated.json,http://54.235.29.9/FacialAge/BNav_EC2/DepthDuration/v2_depth_duration_MTurk/v2_DepthDuration_HTML.html#6,6,1366,635,1366,768,8-29-2022,11-37-53,75,depth_duration_stimuli/002323_2014-06-28_20-01-54_260595134347_rgbf000051-resize_4/002323_2014-06-28_20-01-54_260595134347_rgbf000051-resize_4-target.png,250,3.7310000000000003,5,5827,247,feet,jsons/v1_VE250_randls_63_rotated.json,695663,900354,34,Woman
75,361293,DepthScenes,duration_manipulation_targetAtFixation,jsons/v1_VE250_randls_63_rotated.json,http://54.235.29.9/FacialAge/BNav_EC2/DepthDuration/v2_depth_duration_MTurk/v2_DepthDuration_HTML.html#6,6,1366,635,1366,768,8-29-2022,11-37-53,76,depth_duration_stimuli/000917_2014-06-09_22-45-29_260595134347_rgbf000149-resize_3/000917_2014-06-09_22-45-29_260595134347_rgbf000149-resize_3-target.png,250,4.1865,6,4005,246,feet,jsons/v1_VE250_randls_63_rotated.json,695663,900354,34,Woman
76,361293,DepthScenes,duration_manipulation_targetAtFixation,jsons/v1_VE250_randls_63_rotated.json,http://54.235.29.9/FacialAge/BNav_EC2/DepthDuration/v2_depth_duration_MTurk/v2_DepthDuration_HTML.html#6,6,1366,635,1366,768,8-29-2022,11-37-53,77,depth_duration_stimuli/001828_2014-06-26_21-40-03_260595134347_rgbf000024-resize_0/001828_2014-06-26_21-40-03_260595134347_rgbf000024-resize_0-target.png,250,4.8260000000000005,7,9481,248,feet,jsons/v1_VE250_randls_63_rotated.json,695663,900354,34,Woman
77,361293,DepthScenes,duration_manipulation_targetAtFixation,jsons/v1_VE250_randls_63_rotated.json,http://54.235.29.9/FacialAge/BNav_EC2/DepthDuration/v2_depth_duration_MTurk/v2_DepthDuration_HTML.html#6,6,1366,635,1366,768,8-29-2022,11-37-53,78,depth_duration_stimuli/000009_2014-05-26_14-32-05_260595134347_rgbf000034-resize_3/000009_2014-05-26_14-32-05_260595134347_rgbf000034-resize_3-target.png,250,3.8715,8,6691,247,feet,jsons/v1_VE250_randls_63_rotated.json,695663,900354,34,Woman
78,361293,DepthScenes,duration_manipulation_targetAtFixation,jsons/v1_VE250_randls_63_rotated.json,http://54.235.29.9/FacialAge/BNav_EC2/DepthDuration/v2_depth_duration_MTurk/v2_DepthDuration_HTML.html#6,6,1366,635,1366,768,8-29-2022,11-37-53,79,depth_duration_stimuli/003495_2014-05-21_16-01-51_094959634447_rgbf000100-resize_3/003495_2014-05-21_16-01-51_094959634447_rgbf000100-resize_3-target.png,250,1.6255,2,2797,245,feet,jsons/v1_VE250_randls_63_rotated.json,695663,900354,34,Woman
79,361293,DepthScenes,duration_manipulation_targetAtFixation,jsons/v1_VE250_randls_63_rotated.json,http://54.235.29.9/FacialAge/BNav_EC2/DepthDuration/v2_depth_duration_MTurk/v2_DepthDuration_HTML.html#6,6,1366,635,1366,768,8-29-2022,11-37-53,80,depth_duration_stimuli/001244_2014-06-17_16-47-45_260595134347_rgbf000030-resize_4/001244_2014-06-17_16-47-45_260595134347_rgbf000030-resize_4-target.png,250,2.0425,3,3375,248,feet,jsons/v1_VE250_randls_63_rotated.json,695663,900354,34,Woman
80,361293,DepthScenes,duration_manipulation_targetAtFixation,jsons/v1_VE250_randls_63_rotated.json,http://54.235.29.9/FacialAge/BNav_EC2/DepthDuration/v2_depth_duration_MTurk/v2_DepthDuration_HTML.html#6,6,1366,635,1366,768,8-29-2022,11-37-53,81,depth_duration_stimuli/000549_2014-06-08_22-10-24_260595134347_rgbf000247-resize_3/000549_2014-06-08_22-10-24_260595134347_rgbf000247-resize_3-target.png,250,1.841,2,2018,249,feet,jsons/v1_VE250_randls_63_rotated.json,695663,900354,34,Woman
81,361293,DepthScenes,duration_manipulation_targetAtFixation,jsons/v1_VE250_randls_63_rotated.json,http://54.235.29.9/FacialAge/BNav_EC2/DepthDuration/v2_depth_duration_MTurk/v2_DepthDuration_HTML.html#6,6,1366,635,1366,768,8-29-2022,11-37-53,82,depth_duration_stimuli/001055_2014-06-08_18-45-35_260595134347_rgbf000111-resize_4/001055_2014-06-08_18-45-35_260595134347_rgbf000111-resize_4-target.png,250,2.4290000000000003,4,4594,245,feet,jsons/v1_VE250_randls_63_rotated.json,695663,900354,34,Woman
82,361293,DepthScenes,duration_manipulation_targetAtFixation,jsons/v1_VE250_randls_63_rotated.json,http://54.235.29.9/FacialAge/BNav_EC2/DepthDuration/v2_depth_duration_MTurk/v2_DepthDuration_HTML.html#6,6,1366,635,1366,768,8-29-2022,11-37-53,83,depth_duration_stimuli/000635_2014-06-08_16-38-42_260595134347_rgbf000106-resize_1/000635_2014-06-08_16-38-42_260595134347_rgbf000106-resize_1-target.png,250,2.074,4,3470,247,feet,jsons/v1_VE250_randls_63_rotated.json,695663,900354,34,Woman
83,361293,DepthScenes,duration_manipulation_targetAtFixation,jsons/v1_VE250_randls_63_rotated.json,http://54.235.29.9/FacialAge/BNav_EC2/DepthDuration/v2_depth_duration_MTurk/v2_DepthDuration_HTML.html#6,6,1366,635,1366,768,8-29-2022,11-37-53,84,depth_duration_stimuli/002279_2014-06-28_18-55-32_260595134347_rgbf000040-resize_5/002279_2014-06-28_18-55-32_260595134347_rgbf000040-resize_5-target.png,250,1.5043333333333,2,4209,247,feet,jsons/v1_VE250_randls_63_rotated.json,695663,900354,34,Woman
84,361293,DepthScenes,duration_manipulation_targetAtFixation,jsons/v1_VE250_randls_63_rotated.json,http://54.235.29.9/FacialAge/BNav_EC2/DepthDuration/v2_depth_duration_MTurk/v2_DepthDuration_HTML.html#6,6,1366,635,1366,768,8-29-2022,11-37-53,85,depth_duration_stimuli/000409_2014-06-04_19-23-33_260595134347_rgbf000067-resize_0/000409_2014-06-04_19-23-33_260595134347_rgbf000067-resize_0-target.png,250,3.7335,5,3424,248,feet,jsons/v1_VE250_randls_63_rotated.json,695663,900354,34,Woman
85,361293,DepthScenes,duration_manipulation_targetAtFixation,jsons/v1_VE250_randls_63_rotated.json,http://54.235.29.9/FacialAge/BNav_EC2/DepthDuration/v2_depth_duration_MTurk/v2_DepthDuration_HTML.html#6,6,1366,635,1366,768,8-29-2022,11-37-53,86,depth_duration_stimuli/002663_2014-06-13_15-50-26_094959634447_rgbf000075-resize_1/002663_2014-06-13_15-50-26_094959634447_rgbf000075-resize_1-target.png,250,4.7495,6,6110,248,feet,jsons/v1_VE250_randls_63_rotated.json,695663,900354,34,Woman
86,361293,DepthScenes,duration_manipulation_targetAtFixation,jsons/v1_VE250_randls_63_rotated.json,http://54.235.29.9/FacialAge/BNav_EC2/DepthDuration/v2_depth_duration_MTurk/v2_DepthDuration_HTML.html#6,6,1366,635,1366,768,8-29-2022,11-37-53,87,depth_duration_stimuli/002953_2014-06-08_17-32-18_094959634447_rgbf000059-resize_5/002953_2014-06-08_17-32-18_094959634447_rgbf000059-resize_5-target.png,250,1.551,1,2335,248,feet,jsons/v1_VE250_randls_63_rotated.json,695663,900354,34,Woman
87,361293,DepthScenes,duration_manipulation_targetAtFixation,jsons/v1_VE250_randls_63_rotated.json,http://54.235.29.9/FacialAge/BNav_EC2/DepthDuration/v2_depth_duration_MTurk/v2_DepthDuration_HTML.html#6,6,1366,635,1366,768,8-29-2022,11-37-53,88,depth_duration_stimuli/000878_2014-06-08_22-52-45_260595134347_rgbf000045-resize_2/000878_2014-06-08_22-52-45_260595134347_rgbf000045-resize_2-target.png,250,2.092,3,2399,248,feet,jsons/v1_VE250_randls_63_rotated.json,695663,900354,34,Woman
88,361293,DepthScenes,duration_manipulation_targetAtFixation,jsons/v1_VE250_randls_63_rotated.json,http://54.235.29.9/FacialAge/BNav_EC2/DepthDuration/v2_depth_duration_MTurk/v2_DepthDuration_HTML.html#6,6,1366,635,1366,768,8-29-2022,11-37-53,89,depth_duration_stimuli/002678_2014-06-13_16-15-32_094959634447_rgbf000151-resize_6/002678_2014-06-13_16-15-32_094959634447_rgbf000151-resize_6-target.png,250,2.1830000000000003,4,4393,246,feet,jsons/v1_VE250_randls_63_rotated.json,695663,900354,34,Woman
89,361293,DepthScenes,duration_manipulation_targetAtFixation,jsons/v1_VE250_randls_63_rotated.json,http://54.235.29.9/FacialAge/BNav_EC2/DepthDuration/v2_depth_duration_MTurk/v2_DepthDuration_HTML.html#6,6,1366,635,1366,768,8-29-2022,11-37-53,90,depth_duration_stimuli/000368_2014-06-09_15-53-01_260595134347_rgbf000155-resize_2/000368_2014-06-09_15-53-01_260595134347_rgbf000155-resize_2-target.png,250,2.4859999999999998,6,3287,247,feet,jsons/v1_VE250_randls_63_rotated.json,695663,900354,34,Woman
90,361293,DepthScenes,duration_manipulation_targetAtFixation,jsons/v1_VE250_randls_63_rotated.json,http://54.235.29.9/FacialAge/BNav_EC2/DepthDuration/v2_depth_duration_MTurk/v2_DepthDuration_HTML.html#6,6,1366,635,1366,768,8-29-2022,11-37-53,91,depth_duration_stimuli/001132_2014-06-17_14-48-54_260595134347_rgbf000100-resize_2/001132_2014-06-17_14-48-54_260595134347_rgbf000100-resize_2-target.png,250,3.753,5,4081,246,feet,jsons/v1_VE250_randls_63_rotated.json,695663,900354,34,Woman
91,361293,DepthScenes,duration_manipulation_targetAtFixation,jsons/v1_VE250_randls_63_rotated.json,http://54.235.29.9/FacialAge/BNav_EC2/DepthDuration/v2_depth_duration_MTurk/v2_DepthDuration_HTML.html#6,6,1366,635,1366,768,8-29-2022,11-37-53,92,depth_duration_stimuli/001133_2014-06-17_14-49-16_260595134347_rgbf000100-resize_0/001133_2014-06-17_14-49-16_260595134347_rgbf000100-resize_0-target.png,250,4.2115,8,4120,246,feet,jsons/v1_VE250_randls_63_rotated.json,695663,900354,34,Woman
92,361293,DepthScenes,duration_manipulation_targetAtFixation,jsons/v1_VE250_randls_63_rotated.json,http://54.235.29.9/FacialAge/BNav_EC2/DepthDuration/v2_depth_duration_MTurk/v2_DepthDuration_HTML.html#6,6,1366,635,1366,768,8-29-2022,11-37-53,93,depth_duration_stimuli/003490_2014-05-21_15-50-11_094959634447_rgbf000101-resize_3/003490_2014-05-21_15-50-11_094959634447_rgbf000101-resize_3-target.png,250,3.6445,8,3941,242,feet,jsons/v1_VE250_randls_63_rotated.json,695663,900354,34,Woman
93,361293,DepthScenes,duration_manipulation_targetAtFixation,jsons/v1_VE250_randls_63_rotated.json,http://54.235.29.9/FacialAge/BNav_EC2/DepthDuration/v2_depth_duration_MTurk/v2_DepthDuration_HTML.html#6,6,1366,635,1366,768,8-29-2022,11-37-53,94,depth_duration_stimuli/001175_2014-06-17_15-45-55_260595134347_rgbf000129-resize_4/001175_2014-06-17_15-45-55_260595134347_rgbf000129-resize_4-target.png,250,4.255,10,3537,248,feet,jsons/v1_VE250_randls_63_rotated.json,695663,900354,34,Woman
94,361293,DepthScenes,duration_manipulation_targetAtFixation,jsons/v1_VE250_randls_63_rotated.json,http://54.235.29.9/FacialAge/BNav_EC2/DepthDuration/v2_depth_duration_MTurk/v2_DepthDuration_HTML.html#6,6,1366,635,1366,768,8-29-2022,11-37-53,95,depth_duration_stimuli/000943_2014-06-09_19-31-07_260595134347_rgbf000128-resize_1/000943_2014-06-09_19-31-07_260595134347_rgbf000128-resize_1-target.png,250,1.9765,4,2478,248,feet,jsons/v1_VE250_randls_63_rotated.json,695663,900354,34,Woman
95,361293,DepthScenes,duration_manipulation_targetAtFixation,jsons/v1_VE250_randls_63_rotated.json,http://54.235.29.9/FacialAge/BNav_EC2/DepthDuration/v2_depth_duration_MTurk/v2_DepthDuration_HTML.html#6,6,1366,635,1366,768,8-29-2022,11-37-53,96,depth_duration_stimuli/003070_2014-06-15_14-58-27_094959634447_rgbf000150-resize_3/003070_2014-06-15_14-58-27_094959634447_rgbf000150-resize_3-target.png,250,2.9415,5,3228,247,feet,jsons/v1_VE250_randls_63_rotated.json,695663,900354,34,Woman
96,361293,DepthScenes,duration_manipulation_targetAtFixation,jsons/v1_VE250_randls_63_rotated.json,http://54.235.29.9/FacialAge/BNav_EC2/DepthDuration/v2_depth_duration_MTurk/v2_DepthDuration_HTML.html#6,6,1366,635,1366,768,8-29-2022,11-37-53,97,depth_duration_stimuli/002103_2014-06-25_20-00-40_260595134347_rgbf000049-resize_0/002103_2014-06-25_20-00-40_260595134347_rgbf000049-resize_0-target.png,250,4.105,13,5809,246,feet,jsons/v1_VE250_randls_63_rotated.json,695663,900354,34,Woman
97,361293,DepthScenes,duration_manipulation_targetAtFixation,jsons/v1_VE250_randls_63_rotated.json,http://54.235.29.9/FacialAge/BNav_EC2/DepthDuration/v2_depth_duration_MTurk/v2_DepthDuration_HTML.html#6,6,1366,635,1366,768,8-29-2022,11-37-53,98,depth_duration_stimuli/002039_2014-06-24_20-22-38_260595134347_rgbf000084-resize_1/002039_2014-06-24_20-22-38_260595134347_rgbf000084-resize_1-target.png,250,4.408,14,7093,247,feet,jsons/v1_VE250_randls_63_rotated.json,695663,900354,34,Woman
98,361293,DepthScenes,duration_manipulation_targetAtFixation,jsons/v1_VE250_randls_63_rotated.json,http://54.235.29.9/FacialAge/BNav_EC2/DepthDuration/v2_depth_duration_MTurk/v2_DepthDuration_HTML.html#6,6,1366,635,1366,768,8-29-2022,11-37-53,99,depth_duration_stimuli/001222_2014-06-17_16-24-06_260595134347_rgbf000073-resize_0/001222_2014-06-17_16-24-06_260595134347_rgbf000073-resize-original.jpg,250,1.4385,0,2814,247,feet,jsons/v1_VE250_randls_63_rotated.json,695663,900354,34,Woman
99,361293,DepthScenes,duration_manipulation_targetAtFixation,jsons/v1_VE250_randls_63_rotated.json,http://54.235.29.9/FacialAge/BNav_EC2/DepthDuration/v2_depth_duration_MTurk/v2_DepthDuration_HTML.html#6,6,1366,635,1366,768,8-29-2022,11-37-53,100,depth_duration_stimuli/000191_2014-05-12_17-07-38_260595134347_rgbf000199-resize_0/000191_2014-05-12_17-07-38_260595134347_rgbf000199-resize_0-target.png,250,3.7995,10,3184,246,feet,jsons/v1_VE250_randls_63_rotated.json,695663,900354,34,Woman
100,361293,DepthScenes,duration_manipulation_targetAtFixation,jsons/v1_VE250_randls_63_rotated.json,http://54.235.29.9/FacialAge/BNav_EC2/DepthDuration/v2_depth_duration_MTurk/v2_DepthDuration_HTML.html#6,6,1366,635,1366,768,8-29-2022,11-37-53,101,depth_duration_stimuli/000493_2014-06-09_21-01-18_260595134347_rgbf000196-resize_3/000493_2014-06-09_21-01-18_260595134347_rgbf000196-resize_3-target.png,250,3.44,5,2560,247,feet,jsons/v1_VE250_randls_63_rotated.json,695663,900354,34,Woman
101,361293,DepthScenes,duration_manipulation_targetAtFixation,jsons/v1_VE250_randls_63_rotated.json,http://54.235.29.9/FacialAge/BNav_EC2/DepthDuration/v2_depth_duration_MTurk/v2_DepthDuration_HTML.html#6,6,1366,635,1366,768,8-29-2022,11-37-53,102,depth_duration_stimuli/003081_2014-06-15_15-19-16_094959634447_rgbf000150-resize_1/003081_2014-06-15_15-19-16_094959634447_rgbf000150-resize_1-target.png,250,3.9125,9,4088,245,feet,jsons/v1_VE250_randls_63_rotated.json,695663,900354,34,Woman
102,361293,DepthScenes,duration_manipulation_targetAtFixation,jsons/v1_VE250_randls_63_rotated.json,http://54.235.29.9/FacialAge/BNav_EC2/DepthDuration/v2_depth_duration_MTurk/v2_DepthDuration_HTML.html#6,6,1366,635,1366,768,8-29-2022,11-37-53,103,depth_duration_stimuli/001417_2014-06-19_16-25-36_260595134347_rgbf000115-resize_5/001417_2014-06-19_16-25-36_260595134347_rgbf000115-resize_5-target.png,250,4.6255,7,4840,243,feet,jsons/v1_VE250_randls_63_rotated.json,695663,900354,34,Woman
103,361293,DepthScenes,duration_manipulation_targetAtFixation,jsons/v1_VE250_randls_63_rotated.json,http://54.235.29.9/FacialAge/BNav_EC2/DepthDuration/v2_depth_duration_MTurk/v2_DepthDuration_HTML.html#6,6,1366,635,1366,768,8-29-2022,11-37-53,104,depth_duration_stimuli/002657_2014-06-13_15-29-54_094959634447_rgbf000150-resize_1/002657_2014-06-13_15-29-54_094959634447_rgbf000150-resize_1-target.png,250,4.919,10,4112,247,feet,jsons/v1_VE250_randls_63_rotated.json,695663,900354,34,Woman
104,361293,DepthScenes,duration_manipulation_targetAtFixation,jsons/v1_VE250_randls_63_rotated.json,http://54.235.29.9/FacialAge/BNav_EC2/DepthDuration/v2_depth_duration_MTurk/v2_DepthDuration_HTML.html#6,6,1366,635,1366,768,8-29-2022,11-37-53,105,depth_duration_stimuli/002375_2014-06-28_20-13-44_260595134347_rgbf000032-resize_1/002375_2014-06-28_20-13-44_260595134347_rgbf000032-resize_1-target.png,250,4.0175,8,2679,257,feet,jsons/v1_VE250_randls_63_rotated.json,695663,900354,34,Woman
105,361293,DepthScenes,duration_manipulation_targetAtFixation,jsons/v1_VE250_randls_63_rotated.json,http://54.235.29.9/FacialAge/BNav_EC2/DepthDuration/v2_depth_duration_MTurk/v2_DepthDuration_HTML.html#6,6,1366,635,1366,768,8-29-2022,11-37-53,106,depth_duration_stimuli/002758_2014-06-22_19-11-20_094959634447_rgbf000128-resize_1/002758_2014-06-22_19-11-20_094959634447_rgbf000128-resize_1-target.png,250,2.555,4,3680,247,feet,jsons/v1_VE250_randls_63_rotated.json,695663,900354,34,Woman
106,361293,DepthScenes,duration_manipulation_targetAtFixation,jsons/v1_VE250_randls_63_rotated.json,http://54.235.29.9/FacialAge/BNav_EC2/DepthDuration/v2_depth_duration_MTurk/v2_DepthDuration_HTML.html#6,6,1366,635,1366,768,8-29-2022,11-37-53,107,depth_duration_stimuli/002630_2014-06-24_14-47-50_094959634447_rgbf000055-resize_1/002630_2014-06-24_14-47-50_094959634447_rgbf000055-resize_1-target.png,250,3.0095,6,5843,247,feet,jsons/v1_VE250_randls_63_rotated.json,695663,900354,34,Woman
107,361293,DepthScenes,duration_manipulation_targetAtFixation,jsons/v1_VE250_randls_63_rotated.json,http://54.235.29.9/FacialAge/BNav_EC2/DepthDuration/v2_depth_duration_MTurk/v2_DepthDuration_HTML.html#6,6,1366,635,1366,768,8-29-2022,11-37-53,108,depth_duration_stimuli/000665_2014-06-09_20-42-35_260595134347_rgbf000110-resize_1/000665_2014-06-09_20-42-35_260595134347_rgbf000110-resize_1-target.png,250,3.057,5,4446,246,feet,jsons/v1_VE250_randls_63_rotated.json,695663,900354,34,Woman
108,361293,DepthScenes,duration_manipulation_targetAtFixation,jsons/v1_VE250_randls_63_rotated.json,http://54.235.29.9/FacialAge/BNav_EC2/DepthDuration/v2_depth_duration_MTurk/v2_DepthDuration_HTML.html#6,6,1366,635,1366,768,8-29-2022,11-37-53,109,depth_duration_stimuli/001150_2014-06-17_15-27-34_260595134347_rgbf000108-resize_2/001150_2014-06-17_15-27-34_260595134347_rgbf000108-resize_2-target.png,250,4.0325,5,4491,248,feet,jsons/v1_VE250_randls_63_rotated.json,695663,900354,34,Woman
109,361293,DepthScenes,duration_manipulation_targetAtFixation,jsons/v1_VE250_randls_63_rotated.json,http://54.235.29.9/FacialAge/BNav_EC2/DepthDuration/v2_depth_duration_MTurk/v2_DepthDuration_HTML.html#6,6,1366,635,1366,768,8-29-2022,11-37-53,110,depth_duration_stimuli/002425_2014-06-28_20-27-29_260595134347_rgbf000031-resize_8/002425_2014-06-28_20-27-29_260595134347_rgbf000031-resize_8-target.png,250,3.8960000000000004,6,4114,248,feet,jsons/v1_VE250_randls_63_rotated.json,695663,900354,34,Woman
110,361293,DepthScenes,duration_manipulation_targetAtFixation,jsons/v1_VE250_randls_63_rotated.json,http://54.235.29.9/FacialAge/BNav_EC2/DepthDuration/v2_depth_duration_MTurk/v2_DepthDuration_HTML.html#6,6,1366,635,1366,768,8-29-2022,11-37-53,111,depth_duration_stimuli/000642_2014-06-08_16-59-25_260595134347_rgbf000098-resize_2/000642_2014-06-08_16-59-25_260595134347_rgbf000098-resize_2-target.png,250,2.8815,6,3704,248,feet,jsons/v1_VE250_randls_63_rotated.json,695663,900354,34,Woman
111,361293,DepthScenes,duration_manipulation_targetAtFixation,jsons/v1_VE250_randls_63_rotated.json,http://54.235.29.9/FacialAge/BNav_EC2/DepthDuration/v2_depth_duration_MTurk/v2_DepthDuration_HTML.html#6,6,1366,635,1366,768,8-29-2022,11-37-53,112,depth_duration_stimuli/002444_2014-06-28_20-32-08_260595134347_rgbf000027-resize_0/002444_2014-06-28_20-32-08_260595134347_rgbf000027-resize_0-target.png,250,4.388999999999999,6,3735,246,feet,jsons/v1_VE250_randls_63_rotated.json,695663,900354,34,Woman
112,361293,DepthScenes,duration_manipulation_targetAtFixation,jsons/v1_VE250_randls_63_rotated.json,http://54.235.29.9/FacialAge/BNav_EC2/DepthDuration/v2_depth_duration_MTurk/v2_DepthDuration_HTML.html#6,6,1366,635,1366,768,8-29-2022,11-37-53,113,depth_duration_stimuli/000436_2014-06-09_22-25-11_260595134347_rgbf000137-resize_1/000436_2014-06-09_22-25-11_260595134347_rgbf000137-resize_1-target.png,250,4.0705,8,4925,247,feet,jsons/v1_VE250_randls_63_rotated.json,695663,900354,34,Woman
113,361293,DepthScenes,duration_manipulation_targetAtFixation,jsons/v1_VE250_randls_63_rotated.json,http://54.235.29.9/FacialAge/BNav_EC2/DepthDuration/v2_depth_duration_MTurk/v2_DepthDuration_HTML.html#6,6,1366,635,1366,768,8-29-2022,11-37-53,114,depth_duration_stimuli/001392_2014-06-19_16-07-59_260595134347_rgbf000046-resize_1/001392_2014-06-19_16-07-59_260595134347_rgbf000046-resize_1-target.png,250,4.135,8,3596,248,feet,jsons/v1_VE250_randls_63_rotated.json,695663,900354,34,Woman
114,361293,DepthScenes,duration_manipulation_targetAtFixation,jsons/v1_VE250_randls_63_rotated.json,http://54.235.29.9/FacialAge/BNav_EC2/DepthDuration/v2_depth_duration_MTurk/v2_DepthDuration_HTML.html#6,6,1366,635,1366,768,8-29-2022,11-37-53,115,depth_duration_stimuli/001570_2014-06-20_17-21-09_260595134347_rgbf000135-resize_4/001570_2014-06-20_17-21-09_260595134347_rgbf000135-resize_4-target.png,250,4.467,7,6583,248,feet,jsons/v1_VE250_randls_63_rotated.json,695663,900354,34,Woman
115,361293,DepthScenes,duration_manipulation_targetAtFixation,jsons/v1_VE250_randls_63_rotated.json,http://54.235.29.9/FacialAge/BNav_EC2/DepthDuration/v2_depth_duration_MTurk/v2_DepthDuration_HTML.html#6,6,1366,635,1366,768,8-29-2022,11-37-53,116,depth_duration_stimuli/001815_2014-06-26_20-52-55_260595134347_rgbf000020-resize_0/001815_2014-06-26_20-52-55_260595134347_rgbf000020-resize_0-target.png,250,3.3865,6,2629,246,feet,jsons/v1_VE250_randls_63_rotated.json,695663,900354,34,Woman
116,361293,DepthScenes,duration_manipulation_targetAtFixation,jsons/v1_VE250_randls_63_rotated.json,http://54.235.29.9/FacialAge/BNav_EC2/DepthDuration/v2_depth_duration_MTurk/v2_DepthDuration_HTML.html#6,6,1366,635,1366,768,8-29-2022,11-37-53,117,depth_duration_stimuli/001808_2014-06-26_20-50-58_260595134347_rgbf000029-resize_1/001808_2014-06-26_20-50-58_260595134347_rgbf000029-resize_1-target.png,250,4.249,6,5047,248,feet,jsons/v1_VE250_randls_63_rotated.json,695663,900354,34,Woman
117,361293,DepthScenes,duration_manipulation_targetAtFixation,jsons/v1_VE250_randls_63_rotated.json,http://54.235.29.9/FacialAge/BNav_EC2/DepthDuration/v2_depth_duration_MTurk/v2_DepthDuration_HTML.html#6,6,1366,635,1366,768,8-29-2022,11-37-53,118,depth_duration_stimuli/002750_2014-06-22_19-08-03_094959634447_rgbf000094-resize_4/002750_2014-06-22_19-08-03_094959634447_rgbf000094-resize_4-target.png,250,2.354,5,3149,248,feet,jsons/v1_VE250_randls_63_rotated.json,695663,900354,34,Woman
118,361293,DepthScenes,duration_manipulation_targetAtFixation,jsons/v1_VE250_randls_63_rotated.json,http://54.235.29.9/FacialAge/BNav_EC2/DepthDuration/v2_depth_duration_MTurk/v2_DepthDuration_HTML.html#6,6,1366,635,1366,768,8-29-2022,11-37-53,119,depth_duration_stimuli/002549_2014-06-24_13-41-39_094959634447_rgbf000022-resize_3/002549_2014-06-24_13-41-39_094959634447_rgbf000022-resize_3-target.png,250,1.476,0,5047,246,feet,jsons/v1_VE250_randls_63_rotated.json,695663,900354,34,Woman
119,361293,DepthScenes,duration_manipulation_targetAtFixation,jsons/v1_VE250_randls_63_rotated.json,http://54.235.29.9/FacialAge/BNav_EC2/DepthDuration/v2_depth_duration_MTurk/v2_DepthDuration_HTML.html#6,6,1366,635,1366,768,8-29-2022,11-37-53,120,depth_duration_stimuli/000787_2014-06-08_22-33-53_260595134347_rgbf000175-resize_1/000787_2014-06-08_22-33-53_260595134347_rgbf000175-resize-original.jpg,250,4.784,0,2732,244,feet,jsons/v1_VE250_randls_63_rotated.json,695663,900354,34,Woman
120,361293,DepthScenes,duration_manipulation_targetAtFixation,jsons/v1_VE250_randls_63_rotated.json,http://54.235.29.9/FacialAge/BNav_EC2/DepthDuration/v2_depth_duration_MTurk/v2_DepthDuration_HTML.html#6,6,1366,635,1366,768,8-29-2022,11-37-53,121,depth_duration_stimuli/003048_2014-06-15_13-49-43_094959634447_rgbf000150-resize_1/003048_2014-06-15_13-49-43_094959634447_rgbf000150-resize_1-target.png,250,4.0035,4,6071,241,feet,jsons/v1_VE250_randls_63_rotated.json,695663,900354,34,Woman
121,361293,DepthScenes,duration_manipulation_targetAtFixation,jsons/v1_VE250_randls_63_rotated.json,http://54.235.29.9/FacialAge/BNav_EC2/DepthDuration/v2_depth_duration_MTurk/v2_DepthDuration_HTML.html#6,6,1366,635,1366,768,8-29-2022,11-37-53,122,depth_duration_stimuli/002043_2014-06-24_20-29-38_260595134347_rgbf000039-resize_4/002043_2014-06-24_20-29-38_260595134347_rgbf000039-resize_4-target.png,250,2.8435,5,5072,249,feet,jsons/v1_VE250_randls_63_rotated.json,695663,900354,34,Woman
122,361293,DepthScenes,duration_manipulation_targetAtFixation,jsons/v1_VE250_randls_63_rotated.json,http://54.235.29.9/FacialAge/BNav_EC2/DepthDuration/v2_depth_duration_MTurk/v2_DepthDuration_HTML.html#6,6,1366,635,1366,768,8-29-2022,11-37-53,123,depth_duration_stimuli/001650_2014-06-20_12-09-00_260595134347_rgbf000087-resize_3/001650_2014-06-20_12-09-00_260595134347_rgbf000087-resize_3-target.png,250,1.9505,2,7490,247,feet,jsons/v1_VE250_randls_63_rotated.json,695663,900354,34,Woman
123,361293,DepthScenes,duration_manipulation_targetAtFixation,jsons/v1_VE250_randls_63_rotated.json,http://54.235.29.9/FacialAge/BNav_EC2/DepthDuration/v2_depth_duration_MTurk/v2_DepthDuration_HTML.html#6,6,1366,635,1366,768,8-29-2022,11-37-53,124,depth_duration_stimuli/000682_2014-06-08_23-14-58_260595134347_rgbf000041-resize_5/000682_2014-06-08_23-14-58_260595134347_rgbf000041-resize_5-target.png,250,2.7239999999999998,3,3046,247,feet,jsons/v1_VE250_randls_63_rotated.json,695663,900354,34,Woman
124,361293,DepthScenes,duration_manipulation_targetAtFixation,jsons/v1_VE250_randls_63_rotated.json,http://54.235.29.9/FacialAge/BNav_EC2/DepthDuration/v2_depth_duration_MTurk/v2_DepthDuration_HTML.html#6,6,1366,635,1366,768,8-29-2022,11-37-53,125,depth_duration_stimuli/001094_2014-06-15_17-36-00_260595134347_rgbf000205-resize_0/001094_2014-06-15_17-36-00_260595134347_rgbf000205-resize_0-target.png,250,4.2175,5,3567,247,feet,jsons/v1_VE250_randls_63_rotated.json,695663,900354,34,Woman
125,361293,DepthScenes,duration_manipulation_targetAtFixation,jsons/v1_VE250_randls_63_rotated.json,http://54.235.29.9/FacialAge/BNav_EC2/DepthDuration/v2_depth_duration_MTurk/v2_DepthDuration_HTML.html#6,6,1366,635,1366,768,8-29-2022,11-37-53,126,depth_duration_stimuli/000692_2014-06-08_13-09-42_260595134347_rgbf000199-resize_2/000692_2014-06-08_13-09-42_260595134347_rgbf000199-resize_2-target.png,250,3.661,5,2927,282,feet,jsons/v1_VE250_randls_63_rotated.json,695663,900354,34,Woman
126,361293,DepthScenes,duration_manipulation_targetAtFixation,jsons/v1_VE250_randls_63_rotated.json,http://54.235.29.9/FacialAge/BNav_EC2/DepthDuration/v2_depth_duration_MTurk/v2_DepthDuration_HTML.html#6,6,1366,635,1366,768,8-29-2022,11-37-53,127,depth_duration_stimuli/002875_2014-06-01_15-19-00_094959634447_rgbf000151-resize_1/002875_2014-06-01_15-19-00_094959634447_rgbf000151-resize_1-target.png,250,1.9675,2,3122,247,feet,jsons/v1_VE250_randls_63_rotated.json,695663,900354,34,Woman
127,361293,DepthScenes,duration_manipulation_targetAtFixation,jsons/v1_VE250_randls_63_rotated.json,http://54.235.29.9/FacialAge/BNav_EC2/DepthDuration/v2_depth_duration_MTurk/v2_DepthDuration_HTML.html#6,6,1366,635,1366,768,8-29-2022,11-37-53,128,depth_duration_stimuli/001011_2014-06-08_23-18-54_260595134347_rgbf000044-resize_4/001011_2014-06-08_23-18-54_260595134347_rgbf000044-resize_4-target.png,250,2.4730000000000003,2,1876,252,feet,jsons/v1_VE250_randls_63_rotated.json,695663,900354,34,Woman
128,361293,DepthScenes,duration_manipulation_targetAtFixation,jsons/v1_VE250_randls_63_rotated.json,http://54.235.29.9/FacialAge/BNav_EC2/DepthDuration/v2_depth_duration_MTurk/v2_DepthDuration_HTML.html#6,6,1366,635,1366,768,8-29-2022,11-37-53,129,depth_duration_stimuli/000742_2014-06-08_18-48-09_260595134347_rgbf000164-resize_4/000742_2014-06-08_18-48-09_260595134347_rgbf000164-resize_4-target.png,250,4.632,6,2671,248,feet,jsons/v1_VE250_randls_63_rotated.json,695663,900354,34,Woman
129,361293,DepthScenes,duration_manipulation_targetAtFixation,jsons/v1_VE250_randls_63_rotated.json,http://54.235.29.9/FacialAge/BNav_EC2/DepthDuration/v2_depth_duration_MTurk/v2_DepthDuration_HTML.html#6,6,1366,635,1366,768,8-29-2022,11-37-53,130,depth_duration_stimuli/001066_2014-06-08_22-03-20_260595134347_rgbf000066-resize_4/001066_2014-06-08_22-03-20_260595134347_rgbf000066-resize_4-target.png,250,4.2330000000000005,6,1977,248,feet,jsons/v1_VE250_randls_63_rotated.json,695663,900354,34,Woman
130,361293,DepthScenes,duration_manipulation_targetAtFixation,jsons/v1_VE250_randls_63_rotated.json,http://54.235.29.9/FacialAge/BNav_EC2/DepthDuration/v2_depth_duration_MTurk/v2_DepthDuration_HTML.html#6,6,1366,635,1366,768,8-29-2022,11-37-53,131,depth_duration_stimuli/002949_2014-06-26_15-57-42_094959634447_rgbf000079-resize_1/002949_2014-06-26_15-57-42_094959634447_rgbf000079-resize_1-target.png,250,1.8915,2,2633,246,feet,jsons/v1_VE250_randls_63_rotated.json,695663,900354,34,Woman
131,361293,DepthScenes,duration_manipulation_targetAtFixation,jsons/v1_VE250_randls_63_rotated.json,http://54.235.29.9/FacialAge/BNav_EC2/DepthDuration/v2_depth_duration_MTurk/v2_DepthDuration_HTML.html#6,6,1366,635,1366,768,8-29-2022,11-37-53,132,depth_duration_stimuli/000522_2014-06-08_13-35-06_260595134347_rgbf000244-resize_1/000522_2014-06-08_13-35-06_260595134347_rgbf000244-resize_1-target.png,250,2.3715,1,2103,248,feet,jsons/v1_VE250_randls_63_rotated.json,695663,900354,34,Woman
132,361293,DepthScenes,duration_manipulation_targetAtFixation,jsons/v1_VE250_randls_63_rotated.json,http://54.235.29.9/FacialAge/BNav_EC2/DepthDuration/v2_depth_duration_MTurk/v2_DepthDuration_HTML.html#6,6,1366,635,1366,768,8-29-2022,11-37-53,133,depth_duration_stimuli/002199_2014-06-28_18-33-56_260595134347_rgbf000074-resize_0/002199_2014-06-28_18-33-56_260595134347_rgbf000074-resize_0-target.png,250,1.996,1,2599,248,feet,jsons/v1_VE250_randls_63_rotated.json,695663,900354,34,Woman
133,361293,DepthScenes,duration_manipulation_targetAtFixation,jsons/v1_VE250_randls_63_rotated.json,http://54.235.29.9/FacialAge/BNav_EC2/DepthDuration/v2_depth_duration_MTurk/v2_DepthDuration_HTML.html#6,6,1366,635,1366,768,8-29-2022,11-37-53,134,depth_duration_stimuli/001056_2014-06-08_18-46-44_260595134347_rgbf000068-resize_0/001056_2014-06-08_18-46-44_260595134347_rgbf000068-resize_0-target.png,250,2.6625,4,2455,247,feet,jsons/v1_VE250_randls_63_rotated.json,695663,900354,34,Woman
134,361293,DepthScenes,duration_manipulation_targetAtFixation,jsons/v1_VE250_randls_63_rotated.json,http://54.235.29.9/FacialAge/BNav_EC2/DepthDuration/v2_depth_duration_MTurk/v2_DepthDuration_HTML.html#6,6,1366,635,1366,768,8-29-2022,11-37-53,135,depth_duration_stimuli/000375_2014-06-08_11-17-29_260595134347_rgbf000133-resize_2/000375_2014-06-08_11-17-29_260595134347_rgbf000133-resize-original.jpg,250,4.718,0,2636,246,feet,jsons/v1_VE250_randls_63_rotated.json,695663,900354,34,Woman
135,361293,DepthScenes,duration_manipulation_targetAtFixation,jsons/v1_VE250_randls_63_rotated.json,http://54.235.29.9/FacialAge/BNav_EC2/DepthDuration/v2_depth_duration_MTurk/v2_DepthDuration_HTML.html#6,6,1366,635,1366,768,8-29-2022,11-37-53,136,depth_duration_stimuli/002637_2014-06-24_14-51-13_094959634447_rgbf000066-resize_4/002637_2014-06-24_14-51-13_094959634447_rgbf000066-resize_4-target.png,250,1.9955,3,3071,249,feet,jsons/v1_VE250_randls_63_rotated.json,695663,900354,34,Woman
136,361293,DepthScenes,duration_manipulation_targetAtFixation,jsons/v1_VE250_randls_63_rotated.json,http://54.235.29.9/FacialAge/BNav_EC2/DepthDuration/v2_depth_duration_MTurk/v2_DepthDuration_HTML.html#6,6,1366,635,1366,768,8-29-2022,11-37-53,137,depth_duration_stimuli/003534_2014-05-22_15-06-10_094959634447_rgbf000102-resize_4/003534_2014-05-22_15-06-10_094959634447_rgbf000102-resize_4-target.png,250,1.426,1,2552,249,feet,jsons/v1_VE250_randls_63_rotated.json,695663,900354,34,Woman
137,361293,DepthScenes,duration_manipulation_targetAtFixation,jsons/v1_VE250_randls_63_rotated.json,http://54.235.29.9/FacialAge/BNav_EC2/DepthDuration/v2_depth_duration_MTurk/v2_DepthDuration_HTML.html#6,6,1366,635,1366,768,8-29-2022,11-37-53,138,depth_duration_stimuli/000749_2014-06-08_21-55-06_260595134347_rgbf000070-resize_2/000749_2014-06-08_21-55-06_260595134347_rgbf000070-resize_2-target.png,250,2.331,2,2376,257,feet,jsons/v1_VE250_randls_63_rotated.json,695663,900354,34,Woman
138,361293,DepthScenes,duration_manipulation_targetAtFixation,jsons/v1_VE250_randls_63_rotated.json,http://54.235.29.9/FacialAge/BNav_EC2/DepthDuration/v2_depth_duration_MTurk/v2_DepthDuration_HTML.html#6,6,1366,635,1366,768,8-29-2022,11-37-53,139,depth_duration_stimuli/002788_2014-06-22_19-36-03_094959634447_rgbf000088-resize_2/002788_2014-06-22_19-36-03_094959634447_rgbf000088-resize_2-target.png,250,1.6465,4,3591,245,feet,jsons/v1_VE250_randls_63_rotated.json,695663,900354,34,Woman
139,361293,DepthScenes,duration_manipulation_targetAtFixation,jsons/v1_VE250_randls_63_rotated.json,http://54.235.29.9/FacialAge/BNav_EC2/DepthDuration/v2_depth_duration_MTurk/v2_DepthDuration_HTML.html#6,6,1366,635,1366,768,8-29-2022,11-37-53,140,depth_duration_stimuli/002340_2014-06-28_20-05-46_260595134347_rgbf000113-resize_0/002340_2014-06-28_20-05-46_260595134347_rgbf000113-resize_0-target.png,250,2.4735,5,2119,248,feet,jsons/v1_VE250_randls_63_rotated.json,695663,900354,34,Woman
140,361293,DepthScenes,duration_manipulation_targetAtFixation,jsons/v1_VE250_randls_63_rotated.json,http://54.235.29.9/FacialAge/BNav_EC2/DepthDuration/v2_depth_duration_MTurk/v2_DepthDuration_HTML.html#6,6,1366,635,1366,768,8-29-2022,11-37-53,141,depth_duration_stimuli/001016_2014-06-09_16-16-10_260595134347_rgbf000112-resize_5/001016_2014-06-09_16-16-10_260595134347_rgbf000112-resize_5-target.png,250,1.6565,3,3258,237,feet,jsons/v1_VE250_randls_63_rotated.json,695663,900354,34,Woman
141,361293,DepthScenes,duration_manipulation_targetAtFixation,jsons/v1_VE250_randls_63_rotated.json,http://54.235.29.9/FacialAge/BNav_EC2/DepthDuration/v2_depth_duration_MTurk/v2_DepthDuration_HTML.html#6,6,1366,635,1366,768,8-29-2022,11-37-53,142,depth_duration_stimuli/001450_2014-06-19_17-02-03_260595134347_rgbf000203-resize_4/001450_2014-06-19_17-02-03_260595134347_rgbf000203-resize_4-target.png,250,4.0106666666667,7,2561,248,feet,jsons/v1_VE250_randls_63_rotated.json,695663,900354,34,Woman
142,361293,DepthScenes,duration_manipulation_targetAtFixation,jsons/v1_VE250_randls_63_rotated.json,http://54.235.29.9/FacialAge/BNav_EC2/DepthDuration/v2_depth_duration_MTurk/v2_DepthDuration_HTML.html#6,6,1366,635,1366,768,8-29-2022,11-37-53,143,depth_duration_stimuli/001449_2014-06-19_17-01-27_260595134347_rgbf000116-resize_2/001449_2014-06-19_17-01-27_260595134347_rgbf000116-resize_2-target.png,250,3.452,4,3026,247,feet,jsons/v1_VE250_randls_63_rotated.json,695663,900354,34,Woman
143,361293,DepthScenes,duration_manipulation_targetAtFixation,jsons/v1_VE250_randls_63_rotated.json,http://54.235.29.9/FacialAge/BNav_EC2/DepthDuration/v2_depth_duration_MTurk/v2_DepthDuration_HTML.html#6,6,1366,635,1366,768,8-29-2022,11-37-53,144,depth_duration_stimuli/003079_2014-06-15_15-18-20_094959634447_rgbf000152-resize_8/003079_2014-06-15_15-18-20_094959634447_rgbf000152-resize_8-target.png,250,2.8775,5,3760,244,feet,jsons/v1_VE250_randls_63_rotated.json,695663,900354,34,Woman
144,361293,DepthScenes,duration_manipulation_targetAtFixation,jsons/v1_VE250_randls_63_rotated.json,http://54.235.29.9/FacialAge/BNav_EC2/DepthDuration/v2_depth_duration_MTurk/v2_DepthDuration_HTML.html#6,6,1366,635,1366,768,8-29-2022,11-37-53,145,depth_duration_stimuli/000506_2014-06-08_23-21-00_260595134347_rgbf000070-resize_7/000506_2014-06-08_23-21-00_260595134347_rgbf000070-resize_7-target.png,250,4.0585,6,3107,248,feet,jsons/v1_VE250_randls_63_rotated.json,695663,900354,34,Woman
145,361293,DepthScenes,duration_manipulation_targetAtFixation,jsons/v1_VE250_randls_63_rotated.json,http://54.235.29.9/FacialAge/BNav_EC2/DepthDuration/v2_depth_duration_MTurk/v2_DepthDuration_HTML.html#6,6,1366,635,1366,768,8-29-2022,11-37-53,146,depth_duration_stimuli/002136_2014-06-25_21-18-03_260595134347_rgbf000109-resize_3/002136_2014-06-25_21-18-03_260595134347_rgbf000109-resize_3-target.png,250,1.9569999999999999,3,2070,245,feet,jsons/v1_VE250_randls_63_rotated.json,695663,900354,34,Woman
146,361293,DepthScenes,duration_manipulation_targetAtFixation,jsons/v1_VE250_randls_63_rotated.json,http://54.235.29.9/FacialAge/BNav_EC2/DepthDuration/v2_depth_duration_MTurk/v2_DepthDuration_HTML.html#6,6,1366,635,1366,768,8-29-2022,11-37-53,147,depth_duration_stimuli/002964_2014-06-08_17-46-11_094959634447_rgbf000091-resize_4/002964_2014-06-08_17-46-11_094959634447_rgbf000091-resize_4-target.png,250,1.6909999999999998,2,2893,247,feet,jsons/v1_VE250_randls_63_rotated.json,695663,900354,34,Woman
147,361293,DepthScenes,duration_manipulation_targetAtFixation,jsons/v1_VE250_randls_63_rotated.json,http://54.235.29.9/FacialAge/BNav_EC2/DepthDuration/v2_depth_duration_MTurk/v2_DepthDuration_HTML.html#6,6,1366,635,1366,768,8-29-2022,11-37-53,148,depth_duration_stimuli/000483_2014-06-09_20-41-45_260595134347_rgbf000116-resize_4/000483_2014-06-09_20-41-45_260595134347_rgbf000116-resize_4-target.png,250,1.337,2,2341,247,feet,jsons/v1_VE250_randls_63_rotated.json,695663,900354,34,Woman
148,361293,DepthScenes,duration_manipulation_targetAtFixation,jsons/v1_VE250_randls_63_rotated.json,http://54.235.29.9/FacialAge/BNav_EC2/DepthDuration/v2_depth_duration_MTurk/v2_DepthDuration_HTML.html#6,6,1366,635,1366,768,8-29-2022,11-37-53,149,depth_duration_stimuli/000469_2014-06-09_19-42-10_260595134347_rgbf000081-resize_1/000469_2014-06-09_19-42-10_260595134347_rgbf000081-resize_1-target.png,250,1.652,2,2074,247,feet,jsons/v1_VE250_randls_63_rotated.json,695663,900354,34,Woman
149,361293,DepthScenes,duration_manipulation_targetAtFixation,jsons/v1_VE250_randls_63_rotated.json,http://54.235.29.9/FacialAge/BNav_EC2/DepthDuration/v2_depth_duration_MTurk/v2_DepthDuration_HTML.html#6,6,1366,635,1366,768,8-29-2022,11-37-53,150,depth_duration_stimuli/000457_2014-06-08_16-52-43_260595134347_rgbf000199-resize_1/000457_2014-06-08_16-52-43_260595134347_rgbf000199-resize_1-target.png,250,3.6489999999999996,3,1814,248,feet,jsons/v1_VE250_randls_63_rotated.json,695663,900354,34,Woman
150,361293,DepthScenes,duration_manipulation_targetAtFixation,jsons/v1_VE250_randls_63_rotated.json,http://54.235.29.9/FacialAge/BNav_EC2/DepthDuration/v2_depth_duration_MTurk/v2_DepthDuration_HTML.html#6,6,1366,635,1366,768,8-29-2022,11-37-53,151,depth_duration_stimuli/000929_2014-06-09_16-33-19_260595134347_rgbf000139-resize_0/000929_2014-06-09_16-33-19_260595134347_rgbf000139-resize_0-target.png,250,2.8680000000000003,3,2609,247,feet,jsons/v1_VE250_randls_63_rotated.json,695663,900354,34,Woman
151,361293,DepthScenes,duration_manipulation_targetAtFixation,jsons/v1_VE250_randls_63_rotated.json,http://54.235.29.9/FacialAge/BNav_EC2/DepthDuration/v2_depth_duration_MTurk/v2_DepthDuration_HTML.html#6,6,1366,635,1366,768,8-29-2022,11-37-53,152,depth_duration_stimuli/000569_2014-06-09_22-51-47_260595134347_rgbf000141-resize_3/000569_2014-06-09_22-51-47_260595134347_rgbf000141-resize-original.jpg,250,4.512,0,2093,248,feet,jsons/v1_VE250_randls_63_rotated.json,695663,900354,34,Woman
152,361293,DepthScenes,duration_manipulation_targetAtFixation,jsons/v1_VE250_randls_63_rotated.json,http://54.235.29.9/FacialAge/BNav_EC2/DepthDuration/v2_depth_duration_MTurk/v2_DepthDuration_HTML.html#6,6,1366,635,1366,768,8-29-2022,11-37-53,153,depth_duration_stimuli/002568_2014-06-24_13-59-21_094959634447_rgbf000062-resize_4/002568_2014-06-24_13-59-21_094959634447_rgbf000062-resize_4-target.png,250,3.015,2,2518,240,feet,jsons/v1_VE250_randls_63_rotated.json,695663,900354,34,Woman
153,361293,DepthScenes,duration_manipulation_targetAtFixation,jsons/v1_VE250_randls_63_rotated.json,http://54.235.29.9/FacialAge/BNav_EC2/DepthDuration/v2_depth_duration_MTurk/v2_DepthDuration_HTML.html#6,6,1366,635,1366,768,8-29-2022,11-37-53,154,depth_duration_stimuli/003492_2014-05-21_15-50-55_094959634447_rgbf000828-resize_1/003492_2014-05-21_15-50-55_094959634447_rgbf000828-resize_1-target.png,250,4.06875,4,2131,248,feet,jsons/v1_VE250_randls_63_rotated.json,695663,900354,34,Woman
154,361293,DepthScenes,duration_manipulation_targetAtFixation,jsons/v1_VE250_randls_63_rotated.json,http://54.235.29.9/FacialAge/BNav_EC2/DepthDuration/v2_depth_duration_MTurk/v2_DepthDuration_HTML.html#6,6,1366,635,1366,768,8-29-2022,11-37-53,155,depth_duration_stimuli/000677_2014-06-08_23-10-32_260595134347_rgbf000158-resize_6/000677_2014-06-08_23-10-32_260595134347_rgbf000158-resize_6-target.png,250,3.556,4,2150,247,feet,jsons/v1_VE250_randls_63_rotated.json,695663,900354,34,Woman
155,361293,DepthScenes,duration_manipulation_targetAtFixation,jsons/v1_VE250_randls_63_rotated.json,http://54.235.29.9/FacialAge/BNav_EC2/DepthDuration/v2_depth_duration_MTurk/v2_DepthDuration_HTML.html#6,6,1366,635,1366,768,8-29-2022,11-37-53,156,depth_duration_stimuli/001029_2014-06-08_13-17-57_260595134347_rgbf000065-resize_1/001029_2014-06-08_13-17-57_260595134347_rgbf000065-resize_1-target.png,250,3.0835,4,1962,248,feet,jsons/v1_VE250_randls_63_rotated.json,695663,900354,34,Woman
156,361293,DepthScenes,duration_manipulation_targetAtFixation,jsons/v1_VE250_randls_63_rotated.json,http://54.235.29.9/FacialAge/BNav_EC2/DepthDuration/v2_depth_duration_MTurk/v2_DepthDuration_HTML.html#6,6,1366,635,1366,768,8-29-2022,11-37-53,157,depth_duration_stimuli/001052_2014-06-08_18-24-54_260595134347_rgbf000130-resize_1/001052_2014-06-08_18-24-54_260595134347_rgbf000130-resize_1-target.png,250,4.1045,4,2253,248,feet,jsons/v1_VE250_randls_63_rotated.json,695663,900354,34,Woman
157,361293,DepthScenes,duration_manipulation_targetAtFixation,jsons/v1_VE250_randls_63_rotated.json,http://54.235.29.9/FacialAge/BNav_EC2/DepthDuration/v2_depth_duration_MTurk/v2_DepthDuration_HTML.html#6,6,1366,635,1366,768,8-29-2022,11-37-53,158,depth_duration_stimuli/002988_2014-06-15_12-24-20_094959634447_rgbf000150-resize_1/002988_2014-06-15_12-24-20_094959634447_rgbf000150-resize_1-target.png,250,4.7669999999999995,5,2710,247,feet,jsons/v1_VE250_randls_63_rotated.json,695663,900354,34,Woman
158,361293,DepthScenes,duration_manipulation_targetAtFixation,jsons/v1_VE250_randls_63_rotated.json,http://54.235.29.9/FacialAge/BNav_EC2/DepthDuration/v2_depth_duration_MTurk/v2_DepthDuration_HTML.html#6,6,1366,635,1366,768,8-29-2022,11-37-53,159,depth_duration_stimuli/000780_2014-06-08_22-28-29_260595134347_rgbf000126-resize_1/000780_2014-06-08_22-28-29_260595134347_rgbf000126-resize_1-target.png,250,3.3825,5,2224,248,feet,jsons/v1_VE250_randls_63_rotated.json,695663,900354,34,Woman
159,361293,DepthScenes,duration_manipulation_targetAtFixation,jsons/v1_VE250_randls_63_rotated.json,http://54.235.29.9/FacialAge/BNav_EC2/DepthDuration/v2_depth_duration_MTurk/v2_DepthDuration_HTML.html#6,6,1366,635,1366,768,8-29-2022,11-37-53,160,depth_duration_stimuli/002445_2014-06-28_20-32-16_260595134347_rgbf000029-resize_4/002445_2014-06-28_20-32-16_260595134347_rgbf000029-resize_4-target.png,250,2.5315,3,2125,248,feet,jsons/v1_VE250_randls_63_rotated.json,695663,900354,34,Woman
160,361293,DepthScenes,duration_manipulation_targetAtFixation,jsons/v1_VE250_randls_63_rotated.json,http://54.235.29.9/FacialAge/BNav_EC2/DepthDuration/v2_depth_duration_MTurk/v2_DepthDuration_HTML.html#6,6,1366,635,1366,768,8-29-2022,11-37-53,161,depth_duration_stimuli/000734_2014-06-08_17-39-11_260595134347_rgbf000128-resize_2/000734_2014-06-08_17-39-11_260595134347_rgbf000128-resize_2-target.png,250,4.098,3,1983,238,feet,jsons/v1_VE250_randls_63_rotated.json,695663,900354,34,Woman
161,361293,DepthScenes,duration_manipulation_targetAtFixation,jsons/v1_VE250_randls_63_rotated.json,http://54.235.29.9/FacialAge/BNav_EC2/DepthDuration/v2_depth_duration_MTurk/v2_DepthDuration_HTML.html#6,6,1366,635,1366,768,8-29-2022,11-37-53,162,depth_duration_stimuli/000739_2014-06-08_18-45-58_260595134347_rgbf000068-resize_1/000739_2014-06-08_18-45-58_260595134347_rgbf000068-resize_1-target.png,250,3.534,3,4022,249,feet,jsons/v1_VE250_randls_63_rotated.json,695663,900354,34,Woman
162,361293,DepthScenes,duration_manipulation_targetAtFixation,jsons/v1_VE250_randls_63_rotated.json,http://54.235.29.9/FacialAge/BNav_EC2/DepthDuration/v2_depth_duration_MTurk/v2_DepthDuration_HTML.html#6,6,1366,635,1366,768,8-29-2022,11-37-53,163,depth_duration_stimuli/002639_2014-06-24_14-51-37_094959634447_rgbf000074-resize_4/002639_2014-06-24_14-51-37_094959634447_rgbf000074-resize_4-target.png,250,4.0375,5,3505,248,feet,jsons/v1_VE250_randls_63_rotated.json,695663,900354,34,Woman
163,361293,DepthScenes,duration_manipulation_targetAtFixation,jsons/v1_VE250_randls_63_rotated.json,http://54.235.29.9/FacialAge/BNav_EC2/DepthDuration/v2_depth_duration_MTurk/v2_DepthDuration_HTML.html#6,6,1366,635,1366,768,8-29-2022,11-37-53,164,depth_duration_stimuli/003292_2014-05-14_21-53-49_094959634447_rgbf000100-resize_2/003292_2014-05-14_21-53-49_094959634447_rgbf000100-resize_2-target.png,250,3.4815,4,4550,248,feet,jsons/v1_VE250_randls_63_rotated.json,695663,900354,34,Woman
