,subjID,experimentName,versionName,sequenceName,url,selected_row,windowWidth,windowHeight,screenWidth,screenHeight,startDate,startTime,trial,stimulus,duration,actual_depth,depth_estimate,trial_RT,log_sceneDuration,unitSelection,seq_filepath,experimentTime,totalTime,age,gender
0,367249,DepthScenes,duration_manipulation_targetAtFixation,jsons/VE125_randls_72.json,http://54.235.29.9/FacialAge/BNav_EC2/DepthDuration/v2_depth_duration_MTurk/v2_DepthDuration_HTML.html#41,41,1366,625,1366,768,8-21-2022,13-44-52,1,depth_duration_stimuli/001449_2014-06-19_17-01-27_260595134347_rgbf000116-resize_2/001449_2014-06-19_17-01-27_260595134347_rgbf000116-resize_2-target.png,125,3.452,3,5001,126,meters,jsons/VE125_randls_72.json,1234212,1442217,1963,59
1,367249,DepthScenes,duration_manipulation_targetAtFixation,jsons/VE125_randls_72.json,http://54.235.29.9/FacialAge/BNav_EC2/DepthDuration/v2_depth_duration_MTurk/v2_DepthDuration_HTML.html#41,41,1366,625,1366,768,8-21-2022,13-44-52,2,depth_duration_stimuli/001450_2014-06-19_17-02-03_260595134347_rgbf000203-resize_4/001450_2014-06-19_17-02-03_260595134347_rgbf000203-resize_4-target.png,125,4.0106666666667,4,4735,135,meters,jsons/VE125_randls_72.json,1234212,1442217,1963,59
2,367249,DepthScenes,duration_manipulation_targetAtFixation,jsons/VE125_randls_72.json,http://54.235.29.9/FacialAge/BNav_EC2/DepthDuration/v2_depth_duration_MTurk/v2_DepthDuration_HTML.html#41,41,1366,625,1366,768,8-21-2022,13-44-52,3,depth_duration_stimuli/001199_2014-06-17_16-03-48_260595134347_rgbf000077-resize_0/001199_2014-06-17_16-03-48_260595134347_rgbf000077-resize_0-target.png,125,3.4375,0,329856,133,meters,jsons/VE125_randls_72.json,1234212,1442217,1963,59
3,367249,DepthScenes,duration_manipulation_targetAtFixation,jsons/VE125_randls_72.json,http://54.235.29.9/FacialAge/BNav_EC2/DepthDuration/v2_depth_duration_MTurk/v2_DepthDuration_HTML.html#41,41,1366,625,1366,768,8-21-2022,13-44-52,4,depth_duration_stimuli/000502_2014-06-08_23-02-32_260595134347_rgbf000063-resize_4/000502_2014-06-08_23-02-32_260595134347_rgbf000063-resize_4-target.png,125,2.431,3,4110,133,meters,jsons/VE125_randls_72.json,1234212,1442217,1963,59
4,367249,DepthScenes,duration_manipulation_targetAtFixation,jsons/VE125_randls_72.json,http://54.235.29.9/FacialAge/BNav_EC2/DepthDuration/v2_depth_duration_MTurk/v2_DepthDuration_HTML.html#41,41,1366,625,1366,768,8-21-2022,13-44-52,5,depth_duration_stimuli/000929_2014-06-09_16-33-19_260595134347_rgbf000139-resize_0/000929_2014-06-09_16-33-19_260595134347_rgbf000139-resize_0-target.png,125,2.8680000000000003,4,5210,118,meters,jsons/VE125_randls_72.json,1234212,1442217,1963,59
5,367249,DepthScenes,duration_manipulation_targetAtFixation,jsons/VE125_randls_72.json,http://54.235.29.9/FacialAge/BNav_EC2/DepthDuration/v2_depth_duration_MTurk/v2_DepthDuration_HTML.html#41,41,1366,625,1366,768,8-21-2022,13-44-52,6,depth_duration_stimuli/000457_2014-06-08_16-52-43_260595134347_rgbf000199-resize_1/000457_2014-06-08_16-52-43_260595134347_rgbf000199-resize_1-target.png,125,3.6489999999999996,3,4282,120,meters,jsons/VE125_randls_72.json,1234212,1442217,1963,59
6,367249,DepthScenes,duration_manipulation_targetAtFixation,jsons/VE125_randls_72.json,http://54.235.29.9/FacialAge/BNav_EC2/DepthDuration/v2_depth_duration_MTurk/v2_DepthDuration_HTML.html#41,41,1366,625,1366,768,8-21-2022,13-44-52,7,depth_duration_stimuli/000470_2014-06-09_19-42-40_260595134347_rgbf000094-resize_1/000470_2014-06-09_19-42-40_260595134347_rgbf000094-resize_1-target.png,125,1.831,2,4048,132,meters,jsons/VE125_randls_72.json,1234212,1442217,1963,59
7,367249,DepthScenes,duration_manipulation_targetAtFixation,jsons/VE125_randls_72.json,http://54.235.29.9/FacialAge/BNav_EC2/DepthDuration/v2_depth_duration_MTurk/v2_DepthDuration_HTML.html#41,41,1366,625,1366,768,8-21-2022,13-44-52,8,depth_duration_stimuli/000109_2014-05-14_23-41-52_260595134347_rgbf000035-resize_9/000109_2014-05-14_23-41-52_260595134347_rgbf000035-resize_9-target.png,125,1.3545,5,4367,118,meters,jsons/VE125_randls_72.json,1234212,1442217,1963,59
8,367249,DepthScenes,duration_manipulation_targetAtFixation,jsons/VE125_randls_72.json,http://54.235.29.9/FacialAge/BNav_EC2/DepthDuration/v2_depth_duration_MTurk/v2_DepthDuration_HTML.html#41,41,1366,625,1366,768,8-21-2022,13-44-52,9,depth_duration_stimuli/001150_2014-06-17_15-27-34_260595134347_rgbf000108-resize_2/001150_2014-06-17_15-27-34_260595134347_rgbf000108-resize_2-target.png,125,4.0325,5,4131,131,meters,jsons/VE125_randls_72.json,1234212,1442217,1963,59
9,367249,DepthScenes,duration_manipulation_targetAtFixation,jsons/VE125_randls_72.json,http://54.235.29.9/FacialAge/BNav_EC2/DepthDuration/v2_depth_duration_MTurk/v2_DepthDuration_HTML.html#41,41,1366,625,1366,768,8-21-2022,13-44-52,10,depth_duration_stimuli/000665_2014-06-09_20-42-35_260595134347_rgbf000110-resize_1/000665_2014-06-09_20-42-35_260595134347_rgbf000110-resize_1-target.png,125,3.057,4,4308,117,meters,jsons/VE125_randls_72.json,1234212,1442217,1963,59
10,367249,DepthScenes,duration_manipulation_targetAtFixation,jsons/VE125_randls_72.json,http://54.235.29.9/FacialAge/BNav_EC2/DepthDuration/v2_depth_duration_MTurk/v2_DepthDuration_HTML.html#41,41,1366,625,1366,768,8-21-2022,13-44-52,11,depth_duration_stimuli/001016_2014-06-09_16-16-10_260595134347_rgbf000112-resize_5/001016_2014-06-09_16-16-10_260595134347_rgbf000112-resize_5-target.png,125,1.6565,0,25694,131,meters,jsons/VE125_randls_72.json,1234212,1442217,1963,59
11,367249,DepthScenes,duration_manipulation_targetAtFixation,jsons/VE125_randls_72.json,http://54.235.29.9/FacialAge/BNav_EC2/DepthDuration/v2_depth_duration_MTurk/v2_DepthDuration_HTML.html#41,41,1366,625,1366,768,8-21-2022,13-44-52,12,depth_duration_stimuli/002340_2014-06-28_20-05-46_260595134347_rgbf000113-resize_0/002340_2014-06-28_20-05-46_260595134347_rgbf000113-resize_0-target.png,125,2.4735,3,3382,134,meters,jsons/VE125_randls_72.json,1234212,1442217,1963,59
12,367249,DepthScenes,duration_manipulation_targetAtFixation,jsons/VE125_randls_72.json,http://54.235.29.9/FacialAge/BNav_EC2/DepthDuration/v2_depth_duration_MTurk/v2_DepthDuration_HTML.html#41,41,1366,625,1366,768,8-21-2022,13-44-52,13,depth_duration_stimuli/000569_2014-06-09_22-51-47_260595134347_rgbf000141-resize_3/000569_2014-06-09_22-51-47_260595134347_rgbf000141-resize-original.jpg,125,4.512,4,3781,119,meters,jsons/VE125_randls_72.json,1234212,1442217,1963,59
13,367249,DepthScenes,duration_manipulation_targetAtFixation,jsons/VE125_randls_72.json,http://54.235.29.9/FacialAge/BNav_EC2/DepthDuration/v2_depth_duration_MTurk/v2_DepthDuration_HTML.html#41,41,1366,625,1366,768,8-21-2022,13-44-52,14,depth_duration_stimuli/003492_2014-05-21_15-50-55_094959634447_rgbf000828-resize_1/003492_2014-05-21_15-50-55_094959634447_rgbf000828-resize_1-target.png,125,4.06875,5,3962,130,meters,jsons/VE125_randls_72.json,1234212,1442217,1963,59
14,367249,DepthScenes,duration_manipulation_targetAtFixation,jsons/VE125_randls_72.json,http://54.235.29.9/FacialAge/BNav_EC2/DepthDuration/v2_depth_duration_MTurk/v2_DepthDuration_HTML.html#41,41,1366,625,1366,768,8-21-2022,13-44-52,15,depth_duration_stimuli/002568_2014-06-24_13-59-21_094959634447_rgbf000062-resize_4/002568_2014-06-24_13-59-21_094959634447_rgbf000062-resize_4-target.png,125,3.015,6,3690,133,meters,jsons/VE125_randls_72.json,1234212,1442217,1963,59
15,367249,DepthScenes,duration_manipulation_targetAtFixation,jsons/VE125_randls_72.json,http://54.235.29.9/FacialAge/BNav_EC2/DepthDuration/v2_depth_duration_MTurk/v2_DepthDuration_HTML.html#41,41,1366,625,1366,768,8-21-2022,13-44-52,16,depth_duration_stimuli/002784_2014-06-22_19-26-30_094959634447_rgbf000083-resize_3/002784_2014-06-22_19-26-30_094959634447_rgbf000083-resize_3-target.png,125,1.8046666666667,3,7790,130,meters,jsons/VE125_randls_72.json,1234212,1442217,1963,59
16,367249,DepthScenes,duration_manipulation_targetAtFixation,jsons/VE125_randls_72.json,http://54.235.29.9/FacialAge/BNav_EC2/DepthDuration/v2_depth_duration_MTurk/v2_DepthDuration_HTML.html#41,41,1366,625,1366,768,8-21-2022,13-44-52,17,depth_duration_stimuli/001100_2014-06-15_17-46-26_260595134347_rgbf000225-resize_2/001100_2014-06-15_17-46-26_260595134347_rgbf000225-resize_2-target.png,125,2.24,3,5031,132,meters,jsons/VE125_randls_72.json,1234212,1442217,1963,59
17,367249,DepthScenes,duration_manipulation_targetAtFixation,jsons/VE125_randls_72.json,http://54.235.29.9/FacialAge/BNav_EC2/DepthDuration/v2_depth_duration_MTurk/v2_DepthDuration_HTML.html#41,41,1366,625,1366,768,8-21-2022,13-44-52,18,depth_duration_stimuli/001175_2014-06-17_15-45-55_260595134347_rgbf000129-resize_4/001175_2014-06-17_15-45-55_260595134347_rgbf000129-resize_4-target.png,125,4.255,4,4021,118,meters,jsons/VE125_randls_72.json,1234212,1442217,1963,59
18,367249,DepthScenes,duration_manipulation_targetAtFixation,jsons/VE125_randls_72.json,http://54.235.29.9/FacialAge/BNav_EC2/DepthDuration/v2_depth_duration_MTurk/v2_DepthDuration_HTML.html#41,41,1366,625,1366,768,8-21-2022,13-44-52,19,depth_duration_stimuli/003490_2014-05-21_15-50-11_094959634447_rgbf000101-resize_3/003490_2014-05-21_15-50-11_094959634447_rgbf000101-resize_3-target.png,125,3.6445,4,4073,111,meters,jsons/VE125_randls_72.json,1234212,1442217,1963,59
19,367249,DepthScenes,duration_manipulation_targetAtFixation,jsons/VE125_randls_72.json,http://54.235.29.9/FacialAge/BNav_EC2/DepthDuration/v2_depth_duration_MTurk/v2_DepthDuration_HTML.html#41,41,1366,625,1366,768,8-21-2022,13-44-52,20,depth_duration_stimuli/001110_2014-06-15_17-25-28_260595134347_rgbf000150-resize_1/001110_2014-06-15_17-25-28_260595134347_rgbf000150-resize_1-target.png,125,1.7115,5,4350,133,meters,jsons/VE125_randls_72.json,1234212,1442217,1963,59
20,367249,DepthScenes,duration_manipulation_targetAtFixation,jsons/VE125_randls_72.json,http://54.235.29.9/FacialAge/BNav_EC2/DepthDuration/v2_depth_duration_MTurk/v2_DepthDuration_HTML.html#41,41,1366,625,1366,768,8-21-2022,13-44-52,21,depth_duration_stimuli/000927_2014-06-09_16-32-30_260595134347_rgbf000123-resize_3/000927_2014-06-09_16-32-30_260595134347_rgbf000123-resize_3-target.png,125,2.6785,5,4414,119,meters,jsons/VE125_randls_72.json,1234212,1442217,1963,59
21,367249,DepthScenes,duration_manipulation_targetAtFixation,jsons/VE125_randls_72.json,http://54.235.29.9/FacialAge/BNav_EC2/DepthDuration/v2_depth_duration_MTurk/v2_DepthDuration_HTML.html#41,41,1366,625,1366,768,8-21-2022,13-44-52,22,depth_duration_stimuli/002663_2014-06-13_15-50-26_094959634447_rgbf000075-resize_1/002663_2014-06-13_15-50-26_094959634447_rgbf000075-resize_1-target.png,125,4.7495,3,4361,135,meters,jsons/VE125_randls_72.json,1234212,1442217,1963,59
22,367249,DepthScenes,duration_manipulation_targetAtFixation,jsons/VE125_randls_72.json,http://54.235.29.9/FacialAge/BNav_EC2/DepthDuration/v2_depth_duration_MTurk/v2_DepthDuration_HTML.html#41,41,1366,625,1366,768,8-21-2022,13-44-52,23,depth_duration_stimuli/000409_2014-06-04_19-23-33_260595134347_rgbf000067-resize_0/000409_2014-06-04_19-23-33_260595134347_rgbf000067-resize_0-target.png,125,3.7335,4,3870,132,meters,jsons/VE125_randls_72.json,1234212,1442217,1963,59
23,367249,DepthScenes,duration_manipulation_targetAtFixation,jsons/VE125_randls_72.json,http://54.235.29.9/FacialAge/BNav_EC2/DepthDuration/v2_depth_duration_MTurk/v2_DepthDuration_HTML.html#41,41,1366,625,1366,768,8-21-2022,13-44-52,24,depth_duration_stimuli/000522_2014-06-08_13-35-06_260595134347_rgbf000244-resize_1/000522_2014-06-08_13-35-06_260595134347_rgbf000244-resize_1-target.png,125,2.3715,4,4035,123,meters,jsons/VE125_randls_72.json,1234212,1442217,1963,59
24,367249,DepthScenes,duration_manipulation_targetAtFixation,jsons/VE125_randls_72.json,http://54.235.29.9/FacialAge/BNav_EC2/DepthDuration/v2_depth_duration_MTurk/v2_DepthDuration_HTML.html#41,41,1366,625,1366,768,8-21-2022,13-44-52,25,depth_duration_stimuli/002949_2014-06-26_15-57-42_094959634447_rgbf000079-resize_1/002949_2014-06-26_15-57-42_094959634447_rgbf000079-resize_1-target.png,125,1.8915,5,4102,130,meters,jsons/VE125_randls_72.json,1234212,1442217,1963,59
25,367249,DepthScenes,duration_manipulation_targetAtFixation,jsons/VE125_randls_72.json,http://54.235.29.9/FacialAge/BNav_EC2/DepthDuration/v2_depth_duration_MTurk/v2_DepthDuration_HTML.html#41,41,1366,625,1366,768,8-21-2022,13-44-52,26,depth_duration_stimuli/001806_2014-06-26_20-50-20_260595134347_rgbf000091-resize_1/001806_2014-06-26_20-50-20_260595134347_rgbf000091-resize_1-target.png,125,2.7305,4,3278,125,meters,jsons/VE125_randls_72.json,1234212,1442217,1963,59
26,367249,DepthScenes,duration_manipulation_targetAtFixation,jsons/VE125_randls_72.json,http://54.235.29.9/FacialAge/BNav_EC2/DepthDuration/v2_depth_duration_MTurk/v2_DepthDuration_HTML.html#41,41,1366,625,1366,768,8-21-2022,13-44-52,27,depth_duration_stimuli/001617_2014-06-20_11-35-32_260595134347_rgbf000066-resize_1/001617_2014-06-20_11-35-32_260595134347_rgbf000066-resize_1-target.png,125,3.7910000000000004,5,3303,125,meters,jsons/VE125_randls_72.json,1234212,1442217,1963,59
27,367249,DepthScenes,duration_manipulation_targetAtFixation,jsons/VE125_randls_72.json,http://54.235.29.9/FacialAge/BNav_EC2/DepthDuration/v2_depth_duration_MTurk/v2_DepthDuration_HTML.html#41,41,1366,625,1366,768,8-21-2022,13-44-52,28,depth_duration_stimuli/000414_2014-06-04_19-49-13_260595134347_rgbf000044-resize_0/000414_2014-06-04_19-49-13_260595134347_rgbf000044-resize_0-target.png,125,4.329,4,36210,124,meters,jsons/VE125_randls_72.json,1234212,1442217,1963,59
28,367249,DepthScenes,duration_manipulation_targetAtFixation,jsons/VE125_randls_72.json,http://54.235.29.9/FacialAge/BNav_EC2/DepthDuration/v2_depth_duration_MTurk/v2_DepthDuration_HTML.html#41,41,1366,625,1366,768,8-21-2022,13-44-52,29,depth_duration_stimuli/003129_2014-05-12_10-48-10_094959634447_rgbf000100-resize_0/003129_2014-05-12_10-48-10_094959634447_rgbf000100-resize_0-target.png,125,4.9305,5,7759,116,meters,jsons/VE125_randls_72.json,1234212,1442217,1963,59
29,367249,DepthScenes,duration_manipulation_targetAtFixation,jsons/VE125_randls_72.json,http://54.235.29.9/FacialAge/BNav_EC2/DepthDuration/v2_depth_duration_MTurk/v2_DepthDuration_HTML.html#41,41,1366,625,1366,768,8-21-2022,13-44-52,30,depth_duration_stimuli/000375_2014-06-08_11-17-29_260595134347_rgbf000133-resize_2/000375_2014-06-08_11-17-29_260595134347_rgbf000133-resize-original.jpg,125,4.718,4,4054,137,meters,jsons/VE125_randls_72.json,1234212,1442217,1963,59
30,367249,DepthScenes,duration_manipulation_targetAtFixation,jsons/VE125_randls_72.json,http://54.235.29.9/FacialAge/BNav_EC2/DepthDuration/v2_depth_duration_MTurk/v2_DepthDuration_HTML.html#41,41,1366,625,1366,768,8-21-2022,13-44-52,31,depth_duration_stimuli/001164_2014-06-17_15-35-46_260595134347_rgbf000085-resize_3/001164_2014-06-17_15-35-46_260595134347_rgbf000085-resize_3-target.png,125,2.354,5,3468,126,meters,jsons/VE125_randls_72.json,1234212,1442217,1963,59
31,367249,DepthScenes,duration_manipulation_targetAtFixation,jsons/VE125_randls_72.json,http://54.235.29.9/FacialAge/BNav_EC2/DepthDuration/v2_depth_duration_MTurk/v2_DepthDuration_HTML.html#41,41,1366,625,1366,768,8-21-2022,13-44-52,32,depth_duration_stimuli/001136_2014-06-17_15-19-41_260595134347_rgbf000076-resize_3/001136_2014-06-17_15-19-41_260595134347_rgbf000076-resize_3-target.png,125,1.8655,4,3417,129,meters,jsons/VE125_randls_72.json,1234212,1442217,1963,59
32,367249,DepthScenes,duration_manipulation_targetAtFixation,jsons/VE125_randls_72.json,http://54.235.29.9/FacialAge/BNav_EC2/DepthDuration/v2_depth_duration_MTurk/v2_DepthDuration_HTML.html#41,41,1366,625,1366,768,8-21-2022,13-44-52,33,depth_duration_stimuli/001808_2014-06-26_20-50-58_260595134347_rgbf000029-resize_1/001808_2014-06-26_20-50-58_260595134347_rgbf000029-resize_1-target.png,125,4.249,5,3675,125,meters,jsons/VE125_randls_72.json,1234212,1442217,1963,59
33,367249,DepthScenes,duration_manipulation_targetAtFixation,jsons/VE125_randls_72.json,http://54.235.29.9/FacialAge/BNav_EC2/DepthDuration/v2_depth_duration_MTurk/v2_DepthDuration_HTML.html#41,41,1366,625,1366,768,8-21-2022,13-44-52,34,depth_duration_stimuli/001815_2014-06-26_20-52-55_260595134347_rgbf000020-resize_0/001815_2014-06-26_20-52-55_260595134347_rgbf000020-resize_0-target.png,125,3.3865,5,3292,128,meters,jsons/VE125_randls_72.json,1234212,1442217,1963,59
34,367249,DepthScenes,duration_manipulation_targetAtFixation,jsons/VE125_randls_72.json,http://54.235.29.9/FacialAge/BNav_EC2/DepthDuration/v2_depth_duration_MTurk/v2_DepthDuration_HTML.html#41,41,1366,625,1366,768,8-21-2022,13-44-52,35,depth_duration_stimuli/000486_2014-06-09_20-47-20_260595134347_rgbf000143-resize_2/000486_2014-06-09_20-47-20_260595134347_rgbf000143-resize_2-target.png,125,4.8325,4,3601,133,meters,jsons/VE125_randls_72.json,1234212,1442217,1963,59
35,367249,DepthScenes,duration_manipulation_targetAtFixation,jsons/VE125_randls_72.json,http://54.235.29.9/FacialAge/BNav_EC2/DepthDuration/v2_depth_duration_MTurk/v2_DepthDuration_HTML.html#41,41,1366,625,1366,768,8-21-2022,13-44-52,36,depth_duration_stimuli/003083_2014-06-15_15-21-03_094959634447_rgbf000063-resize_1/003083_2014-06-15_15-21-03_094959634447_rgbf000063-resize_1-target.png,125,4.1405,5,37785,110,meters,jsons/VE125_randls_72.json,1234212,1442217,1963,59
36,367249,DepthScenes,duration_manipulation_targetAtFixation,jsons/VE125_randls_72.json,http://54.235.29.9/FacialAge/BNav_EC2/DepthDuration/v2_depth_duration_MTurk/v2_DepthDuration_HTML.html#41,41,1366,625,1366,768,8-21-2022,13-44-52,37,depth_duration_stimuli/001092_2014-06-15_17-34-58_260595134347_rgbf000171-resize_3/001092_2014-06-15_17-34-58_260595134347_rgbf000171-resize_3-target.png,125,2.6935,4,3373,124,meters,jsons/VE125_randls_72.json,1234212,1442217,1963,59
37,367249,DepthScenes,duration_manipulation_targetAtFixation,jsons/VE125_randls_72.json,http://54.235.29.9/FacialAge/BNav_EC2/DepthDuration/v2_depth_duration_MTurk/v2_DepthDuration_HTML.html#41,41,1366,625,1366,768,8-21-2022,13-44-52,38,depth_duration_stimuli/002545_2014-06-24_13-38-53_094959634447_rgbf000080-resize_4/002545_2014-06-24_13-38-53_094959634447_rgbf000080-resize_4-target.png,125,1.9205,5,3447,136,meters,jsons/VE125_randls_72.json,1234212,1442217,1963,59
38,367249,DepthScenes,duration_manipulation_targetAtFixation,jsons/VE125_randls_72.json,http://54.235.29.9/FacialAge/BNav_EC2/DepthDuration/v2_depth_duration_MTurk/v2_DepthDuration_HTML.html#41,41,1366,625,1366,768,8-21-2022,13-44-52,39,depth_duration_stimuli/000739_2014-06-08_18-45-58_260595134347_rgbf000068-resize_1/000739_2014-06-08_18-45-58_260595134347_rgbf000068-resize_1-target.png,125,3.534,4,3631,118,meters,jsons/VE125_randls_72.json,1234212,1442217,1963,59
39,367249,DepthScenes,duration_manipulation_targetAtFixation,jsons/VE125_randls_72.json,http://54.235.29.9/FacialAge/BNav_EC2/DepthDuration/v2_depth_duration_MTurk/v2_DepthDuration_HTML.html#41,41,1366,625,1366,768,8-21-2022,13-44-52,40,depth_duration_stimuli/000734_2014-06-08_17-39-11_260595134347_rgbf000128-resize_2/000734_2014-06-08_17-39-11_260595134347_rgbf000128-resize_2-target.png,125,4.098,5,3373,117,meters,jsons/VE125_randls_72.json,1234212,1442217,1963,59
40,367249,DepthScenes,duration_manipulation_targetAtFixation,jsons/VE125_randls_72.json,http://54.235.29.9/FacialAge/BNav_EC2/DepthDuration/v2_depth_duration_MTurk/v2_DepthDuration_HTML.html#41,41,1366,625,1366,768,8-21-2022,13-44-52,41,depth_duration_stimuli/001167_2014-06-17_15-38-07_260595134347_rgbf000108-resize_0/001167_2014-06-17_15-38-07_260595134347_rgbf000108-resize_0-target.png,125,1.8505,4,3288,127,meters,jsons/VE125_randls_72.json,1234212,1442217,1963,59
41,367249,DepthScenes,duration_manipulation_targetAtFixation,jsons/VE125_randls_72.json,http://54.235.29.9/FacialAge/BNav_EC2/DepthDuration/v2_depth_duration_MTurk/v2_DepthDuration_HTML.html#41,41,1366,625,1366,768,8-21-2022,13-44-52,42,depth_duration_stimuli/003587_2014-05-23_16-48-02_094959634447_rgbf002384-resize_2/003587_2014-05-23_16-48-02_094959634447_rgbf002384-resize_2-target.png,125,1.357,5,3319,119,meters,jsons/VE125_randls_72.json,1234212,1442217,1963,59
42,367249,DepthScenes,duration_manipulation_targetAtFixation,jsons/VE125_randls_72.json,http://54.235.29.9/FacialAge/BNav_EC2/DepthDuration/v2_depth_duration_MTurk/v2_DepthDuration_HTML.html#41,41,1366,625,1366,768,8-21-2022,13-44-52,43,depth_duration_stimuli/002213_2014-06-28_18-37-58_260595134347_rgbf000055-resize_1/002213_2014-06-28_18-37-58_260595134347_rgbf000055-resize_1-target.png,125,3.62,4,7109,119,meters,jsons/VE125_randls_72.json,1234212,1442217,1963,59
43,367249,DepthScenes,duration_manipulation_targetAtFixation,jsons/VE125_randls_72.json,http://54.235.29.9/FacialAge/BNav_EC2/DepthDuration/v2_depth_duration_MTurk/v2_DepthDuration_HTML.html#41,41,1366,625,1366,768,8-21-2022,13-44-52,44,depth_duration_stimuli/000691_2014-06-08_13-08-50_260595134347_rgbf000132-resize_3/000691_2014-06-08_13-08-50_260595134347_rgbf000132-resize_3-target.png,125,4.1530000000000005,4,3192,124,meters,jsons/VE125_randls_72.json,1234212,1442217,1963,59
44,367249,DepthScenes,duration_manipulation_targetAtFixation,jsons/VE125_randls_72.json,http://54.235.29.9/FacialAge/BNav_EC2/DepthDuration/v2_depth_duration_MTurk/v2_DepthDuration_HTML.html#41,41,1366,625,1366,768,8-21-2022,13-44-52,45,depth_duration_stimuli/000787_2014-06-08_22-33-53_260595134347_rgbf000175-resize_1/000787_2014-06-08_22-33-53_260595134347_rgbf000175-resize-original.jpg,125,4.784,5,4064,112,meters,jsons/VE125_randls_72.json,1234212,1442217,1963,59
45,367249,DepthScenes,duration_manipulation_targetAtFixation,jsons/VE125_randls_72.json,http://54.235.29.9/FacialAge/BNav_EC2/DepthDuration/v2_depth_duration_MTurk/v2_DepthDuration_HTML.html#41,41,1366,625,1366,768,8-21-2022,13-44-52,46,depth_duration_stimuli/000788_2014-06-08_22-34-36_260595134347_rgbf000131-resize_1/000788_2014-06-08_22-34-36_260595134347_rgbf000131-resize_1-target.png,125,3.359,4,3036,131,meters,jsons/VE125_randls_72.json,1234212,1442217,1963,59
46,367249,DepthScenes,duration_manipulation_targetAtFixation,jsons/VE125_randls_72.json,http://54.235.29.9/FacialAge/BNav_EC2/DepthDuration/v2_depth_duration_MTurk/v2_DepthDuration_HTML.html#41,41,1366,625,1366,768,8-21-2022,13-44-52,47,depth_duration_stimuli/001235_2014-06-17_16-37-36_260595134347_rgbf000084-resize_4/001235_2014-06-17_16-37-36_260595134347_rgbf000084-resize_4-target.png,125,3.6605,5,3343,117,meters,jsons/VE125_randls_72.json,1234212,1442217,1963,59
47,367249,DepthScenes,duration_manipulation_targetAtFixation,jsons/VE125_randls_72.json,http://54.235.29.9/FacialAge/BNav_EC2/DepthDuration/v2_depth_duration_MTurk/v2_DepthDuration_HTML.html#41,41,1366,625,1366,768,8-21-2022,13-44-52,48,depth_duration_stimuli/001056_2014-06-08_18-46-44_260595134347_rgbf000068-resize_0/001056_2014-06-08_18-46-44_260595134347_rgbf000068-resize_0-target.png,125,2.6625,4,3183,125,meters,jsons/VE125_randls_72.json,1234212,1442217,1963,59
48,367249,DepthScenes,duration_manipulation_targetAtFixation,jsons/VE125_randls_72.json,http://54.235.29.9/FacialAge/BNav_EC2/DepthDuration/v2_depth_duration_MTurk/v2_DepthDuration_HTML.html#41,41,1366,625,1366,768,8-21-2022,13-44-52,49,depth_duration_stimuli/002199_2014-06-28_18-33-56_260595134347_rgbf000074-resize_0/002199_2014-06-28_18-33-56_260595134347_rgbf000074-resize_0-target.png,125,1.996,5,4794,127,meters,jsons/VE125_randls_72.json,1234212,1442217,1963,59
49,367249,DepthScenes,duration_manipulation_targetAtFixation,jsons/VE125_randls_72.json,http://54.235.29.9/FacialAge/BNav_EC2/DepthDuration/v2_depth_duration_MTurk/v2_DepthDuration_HTML.html#41,41,1366,625,1366,768,8-21-2022,13-44-52,50,depth_duration_stimuli/000878_2014-06-08_22-52-45_260595134347_rgbf000045-resize_2/000878_2014-06-08_22-52-45_260595134347_rgbf000045-resize_2-target.png,125,2.092,4,3375,114,meters,jsons/VE125_randls_72.json,1234212,1442217,1963,59
50,367249,DepthScenes,duration_manipulation_targetAtFixation,jsons/VE125_randls_72.json,http://54.235.29.9/FacialAge/BNav_EC2/DepthDuration/v2_depth_duration_MTurk/v2_DepthDuration_HTML.html#41,41,1366,625,1366,768,8-21-2022,13-44-52,51,depth_duration_stimuli/002953_2014-06-08_17-32-18_094959634447_rgbf000059-resize_5/002953_2014-06-08_17-32-18_094959634447_rgbf000059-resize_5-target.png,125,1.551,5,3664,120,meters,jsons/VE125_randls_72.json,1234212,1442217,1963,59
51,367249,DepthScenes,duration_manipulation_targetAtFixation,jsons/VE125_randls_72.json,http://54.235.29.9/FacialAge/BNav_EC2/DepthDuration/v2_depth_duration_MTurk/v2_DepthDuration_HTML.html#41,41,1366,625,1366,768,8-21-2022,13-44-52,52,depth_duration_stimuli/000493_2014-06-09_21-01-18_260595134347_rgbf000196-resize_3/000493_2014-06-09_21-01-18_260595134347_rgbf000196-resize_3-target.png,125,3.44,4,5412,118,meters,jsons/VE125_randls_72.json,1234212,1442217,1963,59
52,367249,DepthScenes,duration_manipulation_targetAtFixation,jsons/VE125_randls_72.json,http://54.235.29.9/FacialAge/BNav_EC2/DepthDuration/v2_depth_duration_MTurk/v2_DepthDuration_HTML.html#41,41,1366,625,1366,768,8-21-2022,13-44-52,53,depth_duration_stimuli/000191_2014-05-12_17-07-38_260595134347_rgbf000199-resize_0/000191_2014-05-12_17-07-38_260595134347_rgbf000199-resize_0-target.png,125,3.7995,5,3587,117,meters,jsons/VE125_randls_72.json,1234212,1442217,1963,59
53,367249,DepthScenes,duration_manipulation_targetAtFixation,jsons/VE125_randls_72.json,http://54.235.29.9/FacialAge/BNav_EC2/DepthDuration/v2_depth_duration_MTurk/v2_DepthDuration_HTML.html#41,41,1366,625,1366,768,8-21-2022,13-44-52,54,depth_duration_stimuli/002549_2014-06-24_13-41-39_094959634447_rgbf000022-resize_3/002549_2014-06-24_13-41-39_094959634447_rgbf000022-resize_3-target.png,125,1.476,4,3174,124,meters,jsons/VE125_randls_72.json,1234212,1442217,1963,59
54,367249,DepthScenes,duration_manipulation_targetAtFixation,jsons/VE125_randls_72.json,http://54.235.29.9/FacialAge/BNav_EC2/DepthDuration/v2_depth_duration_MTurk/v2_DepthDuration_HTML.html#41,41,1366,625,1366,768,8-21-2022,13-44-52,55,depth_duration_stimuli/002750_2014-06-22_19-08-03_094959634447_rgbf000094-resize_4/002750_2014-06-22_19-08-03_094959634447_rgbf000094-resize_4-target.png,125,2.354,5,7010,124,meters,jsons/VE125_randls_72.json,1234212,1442217,1963,59
55,367249,DepthScenes,duration_manipulation_targetAtFixation,jsons/VE125_randls_72.json,http://54.235.29.9/FacialAge/BNav_EC2/DepthDuration/v2_depth_duration_MTurk/v2_DepthDuration_HTML.html#41,41,1366,625,1366,768,8-21-2022,13-44-52,56,depth_duration_stimuli/002964_2014-06-08_17-46-11_094959634447_rgbf000091-resize_4/002964_2014-06-08_17-46-11_094959634447_rgbf000091-resize_4-target.png,125,1.6909999999999998,4,3723,124,meters,jsons/VE125_randls_72.json,1234212,1442217,1963,59
56,367249,DepthScenes,duration_manipulation_targetAtFixation,jsons/VE125_randls_72.json,http://54.235.29.9/FacialAge/BNav_EC2/DepthDuration/v2_depth_duration_MTurk/v2_DepthDuration_HTML.html#41,41,1366,625,1366,768,8-21-2022,13-44-52,57,depth_duration_stimuli/002136_2014-06-25_21-18-03_260595134347_rgbf000109-resize_3/002136_2014-06-25_21-18-03_260595134347_rgbf000109-resize_3-target.png,125,1.9569999999999999,5,4241,125,meters,jsons/VE125_randls_72.json,1234212,1442217,1963,59
57,367249,DepthScenes,duration_manipulation_targetAtFixation,jsons/VE125_randls_72.json,http://54.235.29.9/FacialAge/BNav_EC2/DepthDuration/v2_depth_duration_MTurk/v2_DepthDuration_HTML.html#41,41,1366,625,1366,768,8-21-2022,13-44-52,58,depth_duration_stimuli/000682_2014-06-08_23-14-58_260595134347_rgbf000041-resize_5/000682_2014-06-08_23-14-58_260595134347_rgbf000041-resize_5-target.png,125,2.7239999999999998,4,3420,126,meters,jsons/VE125_randls_72.json,1234212,1442217,1963,59
58,367249,DepthScenes,duration_manipulation_targetAtFixation,jsons/VE125_randls_72.json,http://54.235.29.9/FacialAge/BNav_EC2/DepthDuration/v2_depth_duration_MTurk/v2_DepthDuration_HTML.html#41,41,1366,625,1366,768,8-21-2022,13-44-52,59,depth_duration_stimuli/001650_2014-06-20_12-09-00_260595134347_rgbf000087-resize_3/001650_2014-06-20_12-09-00_260595134347_rgbf000087-resize_3-target.png,125,1.9505,5,3462,140,meters,jsons/VE125_randls_72.json,1234212,1442217,1963,59
59,367249,DepthScenes,duration_manipulation_targetAtFixation,jsons/VE125_randls_72.json,http://54.235.29.9/FacialAge/BNav_EC2/DepthDuration/v2_depth_duration_MTurk/v2_DepthDuration_HTML.html#41,41,1366,625,1366,768,8-21-2022,13-44-52,60,depth_duration_stimuli/001570_2014-06-20_17-21-09_260595134347_rgbf000135-resize_4/001570_2014-06-20_17-21-09_260595134347_rgbf000135-resize_4-target.png,125,4.467,5,21035,125,meters,jsons/VE125_randls_72.json,1234212,1442217,1963,59
60,367249,DepthScenes,duration_manipulation_targetAtFixation,jsons/VE125_randls_72.json,http://54.235.29.9/FacialAge/BNav_EC2/DepthDuration/v2_depth_duration_MTurk/v2_DepthDuration_HTML.html#41,41,1366,625,1366,768,8-21-2022,13-44-52,61,depth_duration_stimuli/001392_2014-06-19_16-07-59_260595134347_rgbf000046-resize_1/001392_2014-06-19_16-07-59_260595134347_rgbf000046-resize_1-target.png,125,4.135,4,3767,115,meters,jsons/VE125_randls_72.json,1234212,1442217,1963,59
61,367249,DepthScenes,duration_manipulation_targetAtFixation,jsons/VE125_randls_72.json,http://54.235.29.9/FacialAge/BNav_EC2/DepthDuration/v2_depth_duration_MTurk/v2_DepthDuration_HTML.html#41,41,1366,625,1366,768,8-21-2022,13-44-52,62,depth_duration_stimuli/002988_2014-06-15_12-24-20_094959634447_rgbf000150-resize_1/002988_2014-06-15_12-24-20_094959634447_rgbf000150-resize_1-target.png,125,4.7669999999999995,5,3819,127,meters,jsons/VE125_randls_72.json,1234212,1442217,1963,59
62,367249,DepthScenes,duration_manipulation_targetAtFixation,jsons/VE125_randls_72.json,http://54.235.29.9/FacialAge/BNav_EC2/DepthDuration/v2_depth_duration_MTurk/v2_DepthDuration_HTML.html#41,41,1366,625,1366,768,8-21-2022,13-44-52,63,depth_duration_stimuli/001052_2014-06-08_18-24-54_260595134347_rgbf000130-resize_1/001052_2014-06-08_18-24-54_260595134347_rgbf000130-resize_1-target.png,125,4.1045,4,5879,119,meters,jsons/VE125_randls_72.json,1234212,1442217,1963,59
63,367249,DepthScenes,duration_manipulation_targetAtFixation,jsons/VE125_randls_72.json,http://54.235.29.9/FacialAge/BNav_EC2/DepthDuration/v2_depth_duration_MTurk/v2_DepthDuration_HTML.html#41,41,1366,625,1366,768,8-21-2022,13-44-52,64,depth_duration_stimuli/002748_2014-06-22_19-07-22_094959634447_rgbf000078-resize_1/002748_2014-06-22_19-07-22_094959634447_rgbf000078-resize_1-target.png,125,4.6705,0,3858,117,meters,jsons/VE125_randls_72.json,1234212,1442217,1963,59
64,367249,DepthScenes,duration_manipulation_targetAtFixation,jsons/VE125_randls_72.json,http://54.235.29.9/FacialAge/BNav_EC2/DepthDuration/v2_depth_duration_MTurk/v2_DepthDuration_HTML.html#41,41,1366,625,1366,768,8-21-2022,13-44-52,65,depth_duration_stimuli/002995_2014-06-15_12-31-26_094959634447_rgbf000150-resize_1/002995_2014-06-15_12-31-26_094959634447_rgbf000150-resize_1-target.png,125,3.8360000000000003,4,3366,132,meters,jsons/VE125_randls_72.json,1234212,1442217,1963,59
65,367249,DepthScenes,duration_manipulation_targetAtFixation,jsons/VE125_randls_72.json,http://54.235.29.9/FacialAge/BNav_EC2/DepthDuration/v2_depth_duration_MTurk/v2_DepthDuration_HTML.html#41,41,1366,625,1366,768,8-21-2022,13-44-52,66,depth_duration_stimuli/001222_2014-06-17_16-24-06_260595134347_rgbf000073-resize_0/001222_2014-06-17_16-24-06_260595134347_rgbf000073-resize-original.jpg,125,1.4385,0,3361,134,meters,jsons/VE125_randls_72.json,1234212,1442217,1963,59
66,367249,DepthScenes,duration_manipulation_targetAtFixation,jsons/VE125_randls_72.json,http://54.235.29.9/FacialAge/BNav_EC2/DepthDuration/v2_depth_duration_MTurk/v2_DepthDuration_HTML.html#41,41,1366,625,1366,768,8-21-2022,13-44-52,67,depth_duration_stimuli/002725_2014-06-22_11-47-51_094959634447_rgbf000070-resize_1/002725_2014-06-22_11-47-51_094959634447_rgbf000070-resize_1-target.png,125,2.195,4,3248,130,meters,jsons/VE125_randls_72.json,1234212,1442217,1963,59
67,367249,DepthScenes,duration_manipulation_targetAtFixation,jsons/VE125_randls_72.json,http://54.235.29.9/FacialAge/BNav_EC2/DepthDuration/v2_depth_duration_MTurk/v2_DepthDuration_HTML.html#41,41,1366,625,1366,768,8-21-2022,13-44-52,68,depth_duration_stimuli/002344_2014-06-28_20-06-29_260595134347_rgbf000030-resize_1/002344_2014-06-28_20-06-29_260595134347_rgbf000030-resize_1-target.png,125,1.5795,4,3709,119,meters,jsons/VE125_randls_72.json,1234212,1442217,1963,59
68,367249,DepthScenes,duration_manipulation_targetAtFixation,jsons/VE125_randls_72.json,http://54.235.29.9/FacialAge/BNav_EC2/DepthDuration/v2_depth_duration_MTurk/v2_DepthDuration_HTML.html#41,41,1366,625,1366,768,8-21-2022,13-44-52,69,depth_duration_stimuli/003621_2014-05-23_18-06-08_094959634447_rgbf000101-resize_1/003621_2014-05-23_18-06-08_094959634447_rgbf000101-resize_1-target.png,125,3.9835,5,3388,117,meters,jsons/VE125_randls_72.json,1234212,1442217,1963,59
69,367249,DepthScenes,duration_manipulation_targetAtFixation,jsons/VE125_randls_72.json,http://54.235.29.9/FacialAge/BNav_EC2/DepthDuration/v2_depth_duration_MTurk/v2_DepthDuration_HTML.html#41,41,1366,625,1366,768,8-21-2022,13-44-52,70,depth_duration_stimuli/001584_2014-06-20_11-07-43_260595134347_rgbf000002-resize_1/001584_2014-06-20_11-07-43_260595134347_rgbf000002-resize_1-target.png,125,3.53,4,3896,125,meters,jsons/VE125_randls_72.json,1234212,1442217,1963,59
70,367249,DepthScenes,duration_manipulation_targetAtFixation,jsons/VE125_randls_72.json,http://54.235.29.9/FacialAge/BNav_EC2/DepthDuration/v2_depth_duration_MTurk/v2_DepthDuration_HTML.html#41,41,1366,625,1366,768,8-21-2022,13-44-52,71,depth_duration_stimuli/001059_2014-06-08_21-53-27_260595134347_rgbf000061-resize_4/001059_2014-06-08_21-53-27_260595134347_rgbf000061-resize_4-target.png,125,2.4185,5,3234,118,meters,jsons/VE125_randls_72.json,1234212,1442217,1963,59
71,367249,DepthScenes,duration_manipulation_targetAtFixation,jsons/VE125_randls_72.json,http://54.235.29.9/FacialAge/BNav_EC2/DepthDuration/v2_depth_duration_MTurk/v2_DepthDuration_HTML.html#41,41,1366,625,1366,768,8-21-2022,13-44-52,72,depth_duration_stimuli/001032_2014-06-08_13-23-17_260595134347_rgbf000021-resize_3/001032_2014-06-08_13-23-17_260595134347_rgbf000021-resize_3-target.png,125,3.2725,4,3635,125,meters,jsons/VE125_randls_72.json,1234212,1442217,1963,59
72,367249,DepthScenes,duration_manipulation_targetAtFixation,jsons/VE125_randls_72.json,http://54.235.29.9/FacialAge/BNav_EC2/DepthDuration/v2_depth_duration_MTurk/v2_DepthDuration_HTML.html#41,41,1366,625,1366,768,8-21-2022,13-44-52,73,depth_duration_stimuli/000009_2014-05-26_14-32-05_260595134347_rgbf000034-resize_3/000009_2014-05-26_14-32-05_260595134347_rgbf000034-resize_3-target.png,125,3.8715,5,3380,132,meters,jsons/VE125_randls_72.json,1234212,1442217,1963,59
73,367249,DepthScenes,duration_manipulation_targetAtFixation,jsons/VE125_randls_72.json,http://54.235.29.9/FacialAge/BNav_EC2/DepthDuration/v2_depth_duration_MTurk/v2_DepthDuration_HTML.html#41,41,1366,625,1366,768,8-21-2022,13-44-52,74,depth_duration_stimuli/001828_2014-06-26_21-40-03_260595134347_rgbf000024-resize_0/001828_2014-06-26_21-40-03_260595134347_rgbf000024-resize_0-target.png,125,4.8260000000000005,0,3460,113,meters,jsons/VE125_randls_72.json,1234212,1442217,1963,59
74,367249,DepthScenes,duration_manipulation_targetAtFixation,jsons/VE125_randls_72.json,http://54.235.29.9/FacialAge/BNav_EC2/DepthDuration/v2_depth_duration_MTurk/v2_DepthDuration_HTML.html#41,41,1366,625,1366,768,8-21-2022,13-44-52,75,depth_duration_stimuli/000642_2014-06-08_16-59-25_260595134347_rgbf000098-resize_2/000642_2014-06-08_16-59-25_260595134347_rgbf000098-resize_2-target.png,125,2.8815,4,3453,116,meters,jsons/VE125_randls_72.json,1234212,1442217,1963,59
75,367249,DepthScenes,duration_manipulation_targetAtFixation,jsons/VE125_randls_72.json,http://54.235.29.9/FacialAge/BNav_EC2/DepthDuration/v2_depth_duration_MTurk/v2_DepthDuration_HTML.html#41,41,1366,625,1366,768,8-21-2022,13-44-52,76,depth_duration_stimuli/002425_2014-06-28_20-27-29_260595134347_rgbf000031-resize_8/002425_2014-06-28_20-27-29_260595134347_rgbf000031-resize_8-target.png,125,3.8960000000000004,5,3218,131,meters,jsons/VE125_randls_72.json,1234212,1442217,1963,59
76,367249,DepthScenes,duration_manipulation_targetAtFixation,jsons/VE125_randls_72.json,http://54.235.29.9/FacialAge/BNav_EC2/DepthDuration/v2_depth_duration_MTurk/v2_DepthDuration_HTML.html#41,41,1366,625,1366,768,8-21-2022,13-44-52,77,depth_duration_stimuli/002630_2014-06-24_14-47-50_094959634447_rgbf000055-resize_1/002630_2014-06-24_14-47-50_094959634447_rgbf000055-resize_1-target.png,125,3.0095,4,5973,117,meters,jsons/VE125_randls_72.json,1234212,1442217,1963,59
77,367249,DepthScenes,duration_manipulation_targetAtFixation,jsons/VE125_randls_72.json,http://54.235.29.9/FacialAge/BNav_EC2/DepthDuration/v2_depth_duration_MTurk/v2_DepthDuration_HTML.html#41,41,1366,625,1366,768,8-21-2022,13-44-52,78,depth_duration_stimuli/002758_2014-06-22_19-11-20_094959634447_rgbf000128-resize_1/002758_2014-06-22_19-11-20_094959634447_rgbf000128-resize_1-target.png,125,2.555,0,3745,119,meters,jsons/VE125_randls_72.json,1234212,1442217,1963,59
78,367249,DepthScenes,duration_manipulation_targetAtFixation,jsons/VE125_randls_72.json,http://54.235.29.9/FacialAge/BNav_EC2/DepthDuration/v2_depth_duration_MTurk/v2_DepthDuration_HTML.html#41,41,1366,625,1366,768,8-21-2022,13-44-52,79,depth_duration_stimuli/002118_2014-06-25_20-32-08_260595134347_rgbf000078-resize_1/002118_2014-06-25_20-32-08_260595134347_rgbf000078-resize_1-target.png,125,2.6460000000000004,4,3783,134,meters,jsons/VE125_randls_72.json,1234212,1442217,1963,59
79,367249,DepthScenes,duration_manipulation_targetAtFixation,jsons/VE125_randls_72.json,http://54.235.29.9/FacialAge/BNav_EC2/DepthDuration/v2_depth_duration_MTurk/v2_DepthDuration_HTML.html#41,41,1366,625,1366,768,8-21-2022,13-44-52,80,depth_duration_stimuli/001516_2014-06-20_16-25-09_260595134347_rgbf000076-resize_2/001516_2014-06-20_16-25-09_260595134347_rgbf000076-resize_2-target.png,125,1.7445,0,30658,132,meters,jsons/VE125_randls_72.json,1234212,1442217,1963,59
80,367249,DepthScenes,duration_manipulation_targetAtFixation,jsons/VE125_randls_72.json,http://54.235.29.9/FacialAge/BNav_EC2/DepthDuration/v2_depth_duration_MTurk/v2_DepthDuration_HTML.html#41,41,1366,625,1366,768,8-21-2022,13-44-52,81,depth_duration_stimuli/001555_2014-06-20_17-12-10_260595134347_rgbf000065-resize_4/001555_2014-06-20_17-12-10_260595134347_rgbf000065-resize_4-target.png,125,1.633,4,3112,117,meters,jsons/VE125_randls_72.json,1234212,1442217,1963,59
81,367249,DepthScenes,duration_manipulation_targetAtFixation,jsons/VE125_randls_72.json,http://54.235.29.9/FacialAge/BNav_EC2/DepthDuration/v2_depth_duration_MTurk/v2_DepthDuration_HTML.html#41,41,1366,625,1366,768,8-21-2022,13-44-52,82,depth_duration_stimuli/000103_2014-05-14_22-01-17_260595134347_rgbf000152-resize_5/000103_2014-05-14_22-01-17_260595134347_rgbf000152-resize_5-target.png,125,1.993,5,3498,119,meters,jsons/VE125_randls_72.json,1234212,1442217,1963,59
82,367249,DepthScenes,duration_manipulation_targetAtFixation,jsons/VE125_randls_72.json,http://54.235.29.9/FacialAge/BNav_EC2/DepthDuration/v2_depth_duration_MTurk/v2_DepthDuration_HTML.html#41,41,1366,625,1366,768,8-21-2022,13-44-52,83,depth_duration_stimuli/001029_2014-06-08_13-17-57_260595134347_rgbf000065-resize_1/001029_2014-06-08_13-17-57_260595134347_rgbf000065-resize_1-target.png,125,3.0835,4,4127,131,meters,jsons/VE125_randls_72.json,1234212,1442217,1963,59
83,367249,DepthScenes,duration_manipulation_targetAtFixation,jsons/VE125_randls_72.json,http://54.235.29.9/FacialAge/BNav_EC2/DepthDuration/v2_depth_duration_MTurk/v2_DepthDuration_HTML.html#41,41,1366,625,1366,768,8-21-2022,13-44-52,84,depth_duration_stimuli/000677_2014-06-08_23-10-32_260595134347_rgbf000158-resize_6/000677_2014-06-08_23-10-32_260595134347_rgbf000158-resize_6-target.png,125,3.556,5,3044,129,meters,jsons/VE125_randls_72.json,1234212,1442217,1963,59
84,367249,DepthScenes,duration_manipulation_targetAtFixation,jsons/VE125_randls_72.json,http://54.235.29.9/FacialAge/BNav_EC2/DepthDuration/v2_depth_duration_MTurk/v2_DepthDuration_HTML.html#41,41,1366,625,1366,768,8-21-2022,13-44-52,85,depth_duration_stimuli/003070_2014-06-15_14-58-27_094959634447_rgbf000150-resize_3/003070_2014-06-15_14-58-27_094959634447_rgbf000150-resize_3-target.png,125,2.9415,4,4445,117,meters,jsons/VE125_randls_72.json,1234212,1442217,1963,59
85,367249,DepthScenes,duration_manipulation_targetAtFixation,jsons/VE125_randls_72.json,http://54.235.29.9/FacialAge/BNav_EC2/DepthDuration/v2_depth_duration_MTurk/v2_DepthDuration_HTML.html#41,41,1366,625,1366,768,8-21-2022,13-44-52,86,depth_duration_stimuli/000943_2014-06-09_19-31-07_260595134347_rgbf000128-resize_1/000943_2014-06-09_19-31-07_260595134347_rgbf000128-resize_1-target.png,125,1.9765,5,3171,118,meters,jsons/VE125_randls_72.json,1234212,1442217,1963,59
86,367249,DepthScenes,duration_manipulation_targetAtFixation,jsons/VE125_randls_72.json,http://54.235.29.9/FacialAge/BNav_EC2/DepthDuration/v2_depth_duration_MTurk/v2_DepthDuration_HTML.html#41,41,1366,625,1366,768,8-21-2022,13-44-52,87,depth_duration_stimuli/000506_2014-06-08_23-21-00_260595134347_rgbf000070-resize_7/000506_2014-06-08_23-21-00_260595134347_rgbf000070-resize_7-target.png,125,4.0585,4,3224,133,meters,jsons/VE125_randls_72.json,1234212,1442217,1963,59
87,367249,DepthScenes,duration_manipulation_targetAtFixation,jsons/VE125_randls_72.json,http://54.235.29.9/FacialAge/BNav_EC2/DepthDuration/v2_depth_duration_MTurk/v2_DepthDuration_HTML.html#41,41,1366,625,1366,768,8-21-2022,13-44-52,88,depth_duration_stimuli/003079_2014-06-15_15-18-20_094959634447_rgbf000152-resize_8/003079_2014-06-15_15-18-20_094959634447_rgbf000152-resize_8-target.png,125,2.8775,5,2788,117,meters,jsons/VE125_randls_72.json,1234212,1442217,1963,59
88,367249,DepthScenes,duration_manipulation_targetAtFixation,jsons/VE125_randls_72.json,http://54.235.29.9/FacialAge/BNav_EC2/DepthDuration/v2_depth_duration_MTurk/v2_DepthDuration_HTML.html#41,41,1366,625,1366,768,8-21-2022,13-44-52,89,depth_duration_stimuli/001158_2014-06-17_15-32-16_260595134347_rgbf000138-resize_2/001158_2014-06-17_15-32-16_260595134347_rgbf000138-resize_2-target.png,125,4.5315,4,3148,115,meters,jsons/VE125_randls_72.json,1234212,1442217,1963,59
89,367249,DepthScenes,duration_manipulation_targetAtFixation,jsons/VE125_randls_72.json,http://54.235.29.9/FacialAge/BNav_EC2/DepthDuration/v2_depth_duration_MTurk/v2_DepthDuration_HTML.html#41,41,1366,625,1366,768,8-21-2022,13-44-52,90,depth_duration_stimuli/000556_2014-06-09_22-42-56_260595134347_rgbf000214-resize_1/000556_2014-06-09_22-42-56_260595134347_rgbf000214-resize_1-target.png,125,4.8415,5,2669,134,meters,jsons/VE125_randls_72.json,1234212,1442217,1963,59
90,367249,DepthScenes,duration_manipulation_targetAtFixation,jsons/VE125_randls_72.json,http://54.235.29.9/FacialAge/BNav_EC2/DepthDuration/v2_depth_duration_MTurk/v2_DepthDuration_HTML.html#41,41,1366,625,1366,768,8-21-2022,13-44-52,91,depth_duration_stimuli/002153_2014-06-25_21-27-18_260595134347_rgbf000038-resize_5/002153_2014-06-25_21-27-18_260595134347_rgbf000038-resize_5-target.png,125,2.505,4,2851,120,meters,jsons/VE125_randls_72.json,1234212,1442217,1963,59
91,367249,DepthScenes,duration_manipulation_targetAtFixation,jsons/VE125_randls_72.json,http://54.235.29.9/FacialAge/BNav_EC2/DepthDuration/v2_depth_duration_MTurk/v2_DepthDuration_HTML.html#41,41,1366,625,1366,768,8-21-2022,13-44-52,92,depth_duration_stimuli/002660_2014-06-13_15-44-18_094959634447_rgbf001878-resize_2/002660_2014-06-13_15-44-18_094959634447_rgbf001878-resize_2-target.png,125,3.576,5,2891,110,meters,jsons/VE125_randls_72.json,1234212,1442217,1963,59
92,367249,DepthScenes,duration_manipulation_targetAtFixation,jsons/VE125_randls_72.json,http://54.235.29.9/FacialAge/BNav_EC2/DepthDuration/v2_depth_duration_MTurk/v2_DepthDuration_HTML.html#41,41,1366,625,1366,768,8-21-2022,13-44-52,93,depth_duration_stimuli/002905_2014-06-03_18-04-43_094959634447_rgbf000151-resize_2/002905_2014-06-03_18-04-43_094959634447_rgbf000151-resize_2-target.png,125,2.0295,4,2674,132,meters,jsons/VE125_randls_72.json,1234212,1442217,1963,59
93,367249,DepthScenes,duration_manipulation_targetAtFixation,jsons/VE125_randls_72.json,http://54.235.29.9/FacialAge/BNav_EC2/DepthDuration/v2_depth_duration_MTurk/v2_DepthDuration_HTML.html#41,41,1366,625,1366,768,8-21-2022,13-44-52,94,depth_duration_stimuli/003423_2014-05-21_10-23-26_094959634447_rgbf002665-resize_2/003423_2014-05-21_10-23-26_094959634447_rgbf002665-resize_2-target.png,125,3.2575,4,2689,119,meters,jsons/VE125_randls_72.json,1234212,1442217,1963,59
94,367249,DepthScenes,duration_manipulation_targetAtFixation,jsons/VE125_randls_72.json,http://54.235.29.9/FacialAge/BNav_EC2/DepthDuration/v2_depth_duration_MTurk/v2_DepthDuration_HTML.html#41,41,1366,625,1366,768,8-21-2022,13-44-52,95,depth_duration_stimuli/000736_2014-06-08_18-24-15_260595134347_rgbf000206-resize_3/000736_2014-06-08_18-24-15_260595134347_rgbf000206-resize_3-target.png,125,3.515,5,2950,133,meters,jsons/VE125_randls_72.json,1234212,1442217,1963,59
95,367249,DepthScenes,duration_manipulation_targetAtFixation,jsons/VE125_randls_72.json,http://54.235.29.9/FacialAge/BNav_EC2/DepthDuration/v2_depth_duration_MTurk/v2_DepthDuration_HTML.html#41,41,1366,625,1366,768,8-21-2022,13-44-52,96,depth_duration_stimuli/000137_2014-05-20_17-04-49_260595134347_rgbf000120-resize_1/000137_2014-05-20_17-04-49_260595134347_rgbf000120-resize_1-target.png,125,3.786,4,2735,131,meters,jsons/VE125_randls_72.json,1234212,1442217,1963,59
96,367249,DepthScenes,duration_manipulation_targetAtFixation,jsons/VE125_randls_72.json,http://54.235.29.9/FacialAge/BNav_EC2/DepthDuration/v2_depth_duration_MTurk/v2_DepthDuration_HTML.html#41,41,1366,625,1366,768,8-21-2022,13-44-52,97,depth_duration_stimuli/002043_2014-06-24_20-29-38_260595134347_rgbf000039-resize_4/002043_2014-06-24_20-29-38_260595134347_rgbf000039-resize_4-target.png,125,2.8435,4,2762,117,meters,jsons/VE125_randls_72.json,1234212,1442217,1963,59
97,367249,DepthScenes,duration_manipulation_targetAtFixation,jsons/VE125_randls_72.json,http://54.235.29.9/FacialAge/BNav_EC2/DepthDuration/v2_depth_duration_MTurk/v2_DepthDuration_HTML.html#41,41,1366,625,1366,768,8-21-2022,13-44-52,98,depth_duration_stimuli/003048_2014-06-15_13-49-43_094959634447_rgbf000150-resize_1/003048_2014-06-15_13-49-43_094959634447_rgbf000150-resize_1-target.png,125,4.0035,5,2915,133,meters,jsons/VE125_randls_72.json,1234212,1442217,1963,59
98,367249,DepthScenes,duration_manipulation_targetAtFixation,jsons/VE125_randls_72.json,http://54.235.29.9/FacialAge/BNav_EC2/DepthDuration/v2_depth_duration_MTurk/v2_DepthDuration_HTML.html#41,41,1366,625,1366,768,8-21-2022,13-44-52,99,depth_duration_stimuli/001540_2014-06-20_17-01-05_260595134347_rgbf000086-resize_2/001540_2014-06-20_17-01-05_260595134347_rgbf000086-resize-original.jpg,125,1.459,0,3293,131,meters,jsons/VE125_randls_72.json,1234212,1442217,1963,59
99,367249,DepthScenes,duration_manipulation_targetAtFixation,jsons/VE125_randls_72.json,http://54.235.29.9/FacialAge/BNav_EC2/DepthDuration/v2_depth_duration_MTurk/v2_DepthDuration_HTML.html#41,41,1366,625,1366,768,8-21-2022,13-44-52,100,depth_duration_stimuli/002600_2014-06-24_14-27-04_094959634447_rgbf000074-resize_2/002600_2014-06-24_14-27-04_094959634447_rgbf000074-resize_2-target.png,125,2.7575,4,3168,135,meters,jsons/VE125_randls_72.json,1234212,1442217,1963,59
100,367249,DepthScenes,duration_manipulation_targetAtFixation,jsons/VE125_randls_72.json,http://54.235.29.9/FacialAge/BNav_EC2/DepthDuration/v2_depth_duration_MTurk/v2_DepthDuration_HTML.html#41,41,1366,625,1366,768,8-21-2022,13-44-52,101,depth_duration_stimuli/003228_2014-05-14_13-42-35_094959634447_rgbf000101-resize_1/003228_2014-05-14_13-42-35_094959634447_rgbf000101-resize_1-target.png,125,1.9680000000000002,5,2620,135,meters,jsons/VE125_randls_72.json,1234212,1442217,1963,59
101,367249,DepthScenes,duration_manipulation_targetAtFixation,jsons/VE125_randls_72.json,http://54.235.29.9/FacialAge/BNav_EC2/DepthDuration/v2_depth_duration_MTurk/v2_DepthDuration_HTML.html#41,41,1366,625,1366,768,8-21-2022,13-44-52,102,depth_duration_stimuli/002445_2014-06-28_20-32-16_260595134347_rgbf000029-resize_4/002445_2014-06-28_20-32-16_260595134347_rgbf000029-resize_4-target.png,125,2.5315,4,3010,134,meters,jsons/VE125_randls_72.json,1234212,1442217,1963,59
102,367249,DepthScenes,duration_manipulation_targetAtFixation,jsons/VE125_randls_72.json,http://54.235.29.9/FacialAge/BNav_EC2/DepthDuration/v2_depth_duration_MTurk/v2_DepthDuration_HTML.html#41,41,1366,625,1366,768,8-21-2022,13-44-52,103,depth_duration_stimuli/000780_2014-06-08_22-28-29_260595134347_rgbf000126-resize_1/000780_2014-06-08_22-28-29_260595134347_rgbf000126-resize_1-target.png,125,3.3825,5,2756,132,meters,jsons/VE125_randls_72.json,1234212,1442217,1963,59
103,367249,DepthScenes,duration_manipulation_targetAtFixation,jsons/VE125_randls_72.json,http://54.235.29.9/FacialAge/BNav_EC2/DepthDuration/v2_depth_duration_MTurk/v2_DepthDuration_HTML.html#41,41,1366,625,1366,768,8-21-2022,13-44-52,104,depth_duration_stimuli/002039_2014-06-24_20-22-38_260595134347_rgbf000084-resize_1/002039_2014-06-24_20-22-38_260595134347_rgbf000084-resize_1-target.png,125,4.408,4,4237,116,meters,jsons/VE125_randls_72.json,1234212,1442217,1963,59
104,367249,DepthScenes,duration_manipulation_targetAtFixation,jsons/VE125_randls_72.json,http://54.235.29.9/FacialAge/BNav_EC2/DepthDuration/v2_depth_duration_MTurk/v2_DepthDuration_HTML.html#41,41,1366,625,1366,768,8-21-2022,13-44-52,105,depth_duration_stimuli/002103_2014-06-25_20-00-40_260595134347_rgbf000049-resize_0/002103_2014-06-25_20-00-40_260595134347_rgbf000049-resize_0-target.png,125,4.105,5,3290,118,meters,jsons/VE125_randls_72.json,1234212,1442217,1963,59
105,367249,DepthScenes,duration_manipulation_targetAtFixation,jsons/VE125_randls_72.json,http://54.235.29.9/FacialAge/BNav_EC2/DepthDuration/v2_depth_duration_MTurk/v2_DepthDuration_HTML.html#41,41,1366,625,1366,768,8-21-2022,13-44-52,106,depth_duration_stimuli/002788_2014-06-22_19-36-03_094959634447_rgbf000088-resize_2/002788_2014-06-22_19-36-03_094959634447_rgbf000088-resize_2-target.png,125,1.6465,0,8429,126,meters,jsons/VE125_randls_72.json,1234212,1442217,1963,59
106,367249,DepthScenes,duration_manipulation_targetAtFixation,jsons/VE125_randls_72.json,http://54.235.29.9/FacialAge/BNav_EC2/DepthDuration/v2_depth_duration_MTurk/v2_DepthDuration_HTML.html#41,41,1366,625,1366,768,8-21-2022,13-44-52,107,depth_duration_stimuli/000749_2014-06-08_21-55-06_260595134347_rgbf000070-resize_2/000749_2014-06-08_21-55-06_260595134347_rgbf000070-resize_2-target.png,125,2.331,4,3331,111,meters,jsons/VE125_randls_72.json,1234212,1442217,1963,59
107,367249,DepthScenes,duration_manipulation_targetAtFixation,jsons/VE125_randls_72.json,http://54.235.29.9/FacialAge/BNav_EC2/DepthDuration/v2_depth_duration_MTurk/v2_DepthDuration_HTML.html#41,41,1366,625,1366,768,8-21-2022,13-44-52,108,depth_duration_stimuli/000692_2014-06-08_13-09-42_260595134347_rgbf000199-resize_2/000692_2014-06-08_13-09-42_260595134347_rgbf000199-resize_2-target.png,125,3.661,5,3182,117,meters,jsons/VE125_randls_72.json,1234212,1442217,1963,59
108,367249,DepthScenes,duration_manipulation_targetAtFixation,jsons/VE125_randls_72.json,http://54.235.29.9/FacialAge/BNav_EC2/DepthDuration/v2_depth_duration_MTurk/v2_DepthDuration_HTML.html#41,41,1366,625,1366,768,8-21-2022,13-44-52,109,depth_duration_stimuli/001094_2014-06-15_17-36-00_260595134347_rgbf000205-resize_0/001094_2014-06-15_17-36-00_260595134347_rgbf000205-resize_0-target.png,125,4.2175,5,3478,128,meters,jsons/VE125_randls_72.json,1234212,1442217,1963,59
109,367249,DepthScenes,duration_manipulation_targetAtFixation,jsons/VE125_randls_72.json,http://54.235.29.9/FacialAge/BNav_EC2/DepthDuration/v2_depth_duration_MTurk/v2_DepthDuration_HTML.html#41,41,1366,625,1366,768,8-21-2022,13-44-52,110,depth_duration_stimuli/002509_2014-06-24_13-19-22_094959634447_rgbf000077-resize_0/002509_2014-06-24_13-19-22_094959634447_rgbf000077-resize_0-target.png,125,1.3065,0,84086,122,meters,jsons/VE125_randls_72.json,1234212,1442217,1963,59
110,367249,DepthScenes,duration_manipulation_targetAtFixation,jsons/VE125_randls_72.json,http://54.235.29.9/FacialAge/BNav_EC2/DepthDuration/v2_depth_duration_MTurk/v2_DepthDuration_HTML.html#41,41,1366,625,1366,768,8-21-2022,13-44-52,111,depth_duration_stimuli/003338_2014-05-20_11-01-23_094959634447_rgbf000051-resize_6/003338_2014-05-20_11-01-23_094959634447_rgbf000051-resize_6-target.png,125,1.693,0,7470,126,meters,jsons/VE125_randls_72.json,1234212,1442217,1963,59
111,367249,DepthScenes,duration_manipulation_targetAtFixation,jsons/VE125_randls_72.json,http://54.235.29.9/FacialAge/BNav_EC2/DepthDuration/v2_depth_duration_MTurk/v2_DepthDuration_HTML.html#41,41,1366,625,1366,768,8-21-2022,13-44-52,112,depth_duration_stimuli/000906_2014-06-08_13-35-43_260595134347_rgbf000155-resize_1/000906_2014-06-08_13-35-43_260595134347_rgbf000155-resize_1-target.png,125,2.8489999999999998,4,3192,123,meters,jsons/VE125_randls_72.json,1234212,1442217,1963,59
112,367249,DepthScenes,duration_manipulation_targetAtFixation,jsons/VE125_randls_72.json,http://54.235.29.9/FacialAge/BNav_EC2/DepthDuration/v2_depth_duration_MTurk/v2_DepthDuration_HTML.html#41,41,1366,625,1366,768,8-21-2022,13-44-52,113,depth_duration_stimuli/002805_2014-06-22_19-54-03_094959634447_rgbf000079-resize_1/002805_2014-06-22_19-54-03_094959634447_rgbf000079-resize_1-target.png,125,3.1439999999999997,5,4670,136,meters,jsons/VE125_randls_72.json,1234212,1442217,1963,59
113,367249,DepthScenes,duration_manipulation_targetAtFixation,jsons/VE125_randls_72.json,http://54.235.29.9/FacialAge/BNav_EC2/DepthDuration/v2_depth_duration_MTurk/v2_DepthDuration_HTML.html#41,41,1366,625,1366,768,8-21-2022,13-44-52,114,depth_duration_stimuli/001244_2014-06-17_16-47-45_260595134347_rgbf000030-resize_4/001244_2014-06-17_16-47-45_260595134347_rgbf000030-resize_4-target.png,125,2.0425,4,3025,134,meters,jsons/VE125_randls_72.json,1234212,1442217,1963,59
114,367249,DepthScenes,duration_manipulation_targetAtFixation,jsons/VE125_randls_72.json,http://54.235.29.9/FacialAge/BNav_EC2/DepthDuration/v2_depth_duration_MTurk/v2_DepthDuration_HTML.html#41,41,1366,625,1366,768,8-21-2022,13-44-52,115,depth_duration_stimuli/003495_2014-05-21_16-01-51_094959634447_rgbf000100-resize_3/003495_2014-05-21_16-01-51_094959634447_rgbf000100-resize_3-target.png,125,1.6255,5,3131,139,meters,jsons/VE125_randls_72.json,1234212,1442217,1963,59
115,367249,DepthScenes,duration_manipulation_targetAtFixation,jsons/VE125_randls_72.json,http://54.235.29.9/FacialAge/BNav_EC2/DepthDuration/v2_depth_duration_MTurk/v2_DepthDuration_HTML.html#41,41,1366,625,1366,768,8-21-2022,13-44-52,116,depth_duration_stimuli/001170_2014-06-17_15-43-44_260595134347_rgbf000096-resize_6/001170_2014-06-17_15-43-44_260595134347_rgbf000096-resize-original.jpg,125,1.1909999999999998,0,3365,119,meters,jsons/VE125_randls_72.json,1234212,1442217,1963,59
116,367249,DepthScenes,duration_manipulation_targetAtFixation,jsons/VE125_randls_72.json,http://54.235.29.9/FacialAge/BNav_EC2/DepthDuration/v2_depth_duration_MTurk/v2_DepthDuration_HTML.html#41,41,1366,625,1366,768,8-21-2022,13-44-52,117,depth_duration_stimuli/003534_2014-05-22_15-06-10_094959634447_rgbf000102-resize_4/003534_2014-05-22_15-06-10_094959634447_rgbf000102-resize_4-target.png,125,1.426,4,2811,117,meters,jsons/VE125_randls_72.json,1234212,1442217,1963,59
117,367249,DepthScenes,duration_manipulation_targetAtFixation,jsons/VE125_randls_72.json,http://54.235.29.9/FacialAge/BNav_EC2/DepthDuration/v2_depth_duration_MTurk/v2_DepthDuration_HTML.html#41,41,1366,625,1366,768,8-21-2022,13-44-52,118,depth_duration_stimuli/002637_2014-06-24_14-51-13_094959634447_rgbf000066-resize_4/002637_2014-06-24_14-51-13_094959634447_rgbf000066-resize_4-target.png,125,1.9955,5,2732,125,meters,jsons/VE125_randls_72.json,1234212,1442217,1963,59
118,367249,DepthScenes,duration_manipulation_targetAtFixation,jsons/VE125_randls_72.json,http://54.235.29.9/FacialAge/BNav_EC2/DepthDuration/v2_depth_duration_MTurk/v2_DepthDuration_HTML.html#41,41,1366,625,1366,768,8-21-2022,13-44-52,119,depth_duration_stimuli/002279_2014-06-28_18-55-32_260595134347_rgbf000040-resize_5/002279_2014-06-28_18-55-32_260595134347_rgbf000040-resize_5-target.png,125,1.5043333333333,4,2945,126,meters,jsons/VE125_randls_72.json,1234212,1442217,1963,59
119,367249,DepthScenes,duration_manipulation_targetAtFixation,jsons/VE125_randls_72.json,http://54.235.29.9/FacialAge/BNav_EC2/DepthDuration/v2_depth_duration_MTurk/v2_DepthDuration_HTML.html#41,41,1366,625,1366,768,8-21-2022,13-44-52,120,depth_duration_stimuli/000635_2014-06-08_16-38-42_260595134347_rgbf000106-resize_1/000635_2014-06-08_16-38-42_260595134347_rgbf000106-resize_1-target.png,125,2.074,5,3081,125,meters,jsons/VE125_randls_72.json,1234212,1442217,1963,59
120,367249,DepthScenes,duration_manipulation_targetAtFixation,jsons/VE125_randls_72.json,http://54.235.29.9/FacialAge/BNav_EC2/DepthDuration/v2_depth_duration_MTurk/v2_DepthDuration_HTML.html#41,41,1366,625,1366,768,8-21-2022,13-44-52,121,depth_duration_stimuli/002272_2014-06-28_18-53-56_260595134347_rgbf000067-resize_2/002272_2014-06-28_18-53-56_260595134347_rgbf000067-resize_2-target.png,125,1.138,4,3325,126,meters,jsons/VE125_randls_72.json,1234212,1442217,1963,59
121,367249,DepthScenes,duration_manipulation_targetAtFixation,jsons/VE125_randls_72.json,http://54.235.29.9/FacialAge/BNav_EC2/DepthDuration/v2_depth_duration_MTurk/v2_DepthDuration_HTML.html#41,41,1366,625,1366,768,8-21-2022,13-44-52,122,depth_duration_stimuli/001571_2014-06-20_17-21-32_260595134347_rgbf000089-resize_1/001571_2014-06-20_17-21-32_260595134347_rgbf000089-resize_1-target.png,125,1.86,0,12126,123,meters,jsons/VE125_randls_72.json,1234212,1442217,1963,59
122,367249,DepthScenes,duration_manipulation_targetAtFixation,jsons/VE125_randls_72.json,http://54.235.29.9/FacialAge/BNav_EC2/DepthDuration/v2_depth_duration_MTurk/v2_DepthDuration_HTML.html#41,41,1366,625,1366,768,8-21-2022,13-44-52,123,depth_duration_stimuli/001011_2014-06-08_23-18-54_260595134347_rgbf000044-resize_4/001011_2014-06-08_23-18-54_260595134347_rgbf000044-resize_4-target.png,125,2.4730000000000003,4,3034,129,meters,jsons/VE125_randls_72.json,1234212,1442217,1963,59
123,367249,DepthScenes,duration_manipulation_targetAtFixation,jsons/VE125_randls_72.json,http://54.235.29.9/FacialAge/BNav_EC2/DepthDuration/v2_depth_duration_MTurk/v2_DepthDuration_HTML.html#41,41,1366,625,1366,768,8-21-2022,13-44-52,124,depth_duration_stimuli/002875_2014-06-01_15-19-00_094959634447_rgbf000151-resize_1/002875_2014-06-01_15-19-00_094959634447_rgbf000151-resize_1-target.png,125,1.9675,5,3295,117,meters,jsons/VE125_randls_72.json,1234212,1442217,1963,59
124,367249,DepthScenes,duration_manipulation_targetAtFixation,jsons/VE125_randls_72.json,http://54.235.29.9/FacialAge/BNav_EC2/DepthDuration/v2_depth_duration_MTurk/v2_DepthDuration_HTML.html#41,41,1366,625,1366,768,8-21-2022,13-44-52,125,depth_duration_stimuli/000773_2014-06-08_22-24-54_260595134347_rgbf000093-resize_1/000773_2014-06-08_22-24-54_260595134347_rgbf000093-resize_1-target.png,125,4.973,0,3022,134,meters,jsons/VE125_randls_72.json,1234212,1442217,1963,59
125,367249,DepthScenes,duration_manipulation_targetAtFixation,jsons/VE125_randls_72.json,http://54.235.29.9/FacialAge/BNav_EC2/DepthDuration/v2_depth_duration_MTurk/v2_DepthDuration_HTML.html#41,41,1366,625,1366,768,8-21-2022,13-44-52,126,depth_duration_stimuli/002414_2014-06-28_20-24-58_260595134347_rgbf000067-resize_4/002414_2014-06-28_20-24-58_260595134347_rgbf000067-resize_4-target.png,125,4.363,4,2602,120,meters,jsons/VE125_randls_72.json,1234212,1442217,1963,59
126,367249,DepthScenes,duration_manipulation_targetAtFixation,jsons/VE125_randls_72.json,http://54.235.29.9/FacialAge/BNav_EC2/DepthDuration/v2_depth_duration_MTurk/v2_DepthDuration_HTML.html#41,41,1366,625,1366,768,8-21-2022,13-44-52,127,depth_duration_stimuli/001055_2014-06-08_18-45-35_260595134347_rgbf000111-resize_4/001055_2014-06-08_18-45-35_260595134347_rgbf000111-resize_4-target.png,125,2.4290000000000003,5,2973,122,meters,jsons/VE125_randls_72.json,1234212,1442217,1963,59
127,367249,DepthScenes,duration_manipulation_targetAtFixation,jsons/VE125_randls_72.json,http://54.235.29.9/FacialAge/BNav_EC2/DepthDuration/v2_depth_duration_MTurk/v2_DepthDuration_HTML.html#41,41,1366,625,1366,768,8-21-2022,13-44-52,128,depth_duration_stimuli/000549_2014-06-08_22-10-24_260595134347_rgbf000247-resize_3/000549_2014-06-08_22-10-24_260595134347_rgbf000247-resize_3-target.png,125,1.841,4,3045,127,meters,jsons/VE125_randls_72.json,1234212,1442217,1963,59
128,367249,DepthScenes,duration_manipulation_targetAtFixation,jsons/VE125_randls_72.json,http://54.235.29.9/FacialAge/BNav_EC2/DepthDuration/v2_depth_duration_MTurk/v2_DepthDuration_HTML.html#41,41,1366,625,1366,768,8-21-2022,13-44-52,129,depth_duration_stimuli/000917_2014-06-09_22-45-29_260595134347_rgbf000149-resize_3/000917_2014-06-09_22-45-29_260595134347_rgbf000149-resize_3-target.png,125,4.1865,5,2958,125,meters,jsons/VE125_randls_72.json,1234212,1442217,1963,59
129,367249,DepthScenes,duration_manipulation_targetAtFixation,jsons/VE125_randls_72.json,http://54.235.29.9/FacialAge/BNav_EC2/DepthDuration/v2_depth_duration_MTurk/v2_DepthDuration_HTML.html#41,41,1366,625,1366,768,8-21-2022,13-44-52,130,depth_duration_stimuli/002323_2014-06-28_20-01-54_260595134347_rgbf000051-resize_4/002323_2014-06-28_20-01-54_260595134347_rgbf000051-resize_4-target.png,125,3.7310000000000003,4,4123,125,meters,jsons/VE125_randls_72.json,1234212,1442217,1963,59
130,367249,DepthScenes,duration_manipulation_targetAtFixation,jsons/VE125_randls_72.json,http://54.235.29.9/FacialAge/BNav_EC2/DepthDuration/v2_depth_duration_MTurk/v2_DepthDuration_HTML.html#41,41,1366,625,1366,768,8-21-2022,13-44-52,131,depth_duration_stimuli/002057_2014-06-24_21-00-13_260595134347_rgbf000120-resize_1/002057_2014-06-24_21-00-13_260595134347_rgbf000120-resize_1-target.png,125,2.967,5,2696,133,meters,jsons/VE125_randls_72.json,1234212,1442217,1963,59
131,367249,DepthScenes,duration_manipulation_targetAtFixation,jsons/VE125_randls_72.json,http://54.235.29.9/FacialAge/BNav_EC2/DepthDuration/v2_depth_duration_MTurk/v2_DepthDuration_HTML.html#41,41,1366,625,1366,768,8-21-2022,13-44-52,132,depth_duration_stimuli/000709_2014-06-08_13-51-55_260595134347_rgbf000068-resize_3/000709_2014-06-08_13-51-55_260595134347_rgbf000068-resize_3-target.png,125,1.8030000000000002,0,4555,125,meters,jsons/VE125_randls_72.json,1234212,1442217,1963,59
132,367249,DepthScenes,duration_manipulation_targetAtFixation,jsons/VE125_randls_72.json,http://54.235.29.9/FacialAge/BNav_EC2/DepthDuration/v2_depth_duration_MTurk/v2_DepthDuration_HTML.html#41,41,1366,625,1366,768,8-21-2022,13-44-52,133,depth_duration_stimuli/002989_2014-06-15_12-25-03_094959634447_rgbf000150-resize_3/002989_2014-06-15_12-25-03_094959634447_rgbf000150-resize_3-target.png,125,4.1975,5,3133,118,meters,jsons/VE125_randls_72.json,1234212,1442217,1963,59
133,367249,DepthScenes,duration_manipulation_targetAtFixation,jsons/VE125_randls_72.json,http://54.235.29.9/FacialAge/BNav_EC2/DepthDuration/v2_depth_duration_MTurk/v2_DepthDuration_HTML.html#41,41,1366,625,1366,768,8-21-2022,13-44-52,134,depth_duration_stimuli/000866_2014-06-09_20-45-42_260595134347_rgbf000139-resize_1/000866_2014-06-09_20-45-42_260595134347_rgbf000139-resize_1-target.png,125,3.2155,4,3781,118,meters,jsons/VE125_randls_72.json,1234212,1442217,1963,59
134,367249,DepthScenes,duration_manipulation_targetAtFixation,jsons/VE125_randls_72.json,http://54.235.29.9/FacialAge/BNav_EC2/DepthDuration/v2_depth_duration_MTurk/v2_DepthDuration_HTML.html#41,41,1366,625,1366,768,8-21-2022,13-44-52,135,depth_duration_stimuli/002072_2014-06-24_21-48-06_260595134347_rgbf000115-resize_0/002072_2014-06-24_21-48-06_260595134347_rgbf000115-resize-original.jpg,125,4.702,0,3056,125,meters,jsons/VE125_randls_72.json,1234212,1442217,1963,59
135,367249,DepthScenes,duration_manipulation_targetAtFixation,jsons/VE125_randls_72.json,http://54.235.29.9/FacialAge/BNav_EC2/DepthDuration/v2_depth_duration_MTurk/v2_DepthDuration_HTML.html#41,41,1366,625,1366,768,8-21-2022,13-44-52,136,depth_duration_stimuli/001133_2014-06-17_14-49-16_260595134347_rgbf000100-resize_0/001133_2014-06-17_14-49-16_260595134347_rgbf000100-resize_0-target.png,125,4.2115,5,2656,126,meters,jsons/VE125_randls_72.json,1234212,1442217,1963,59
136,367249,DepthScenes,duration_manipulation_targetAtFixation,jsons/VE125_randls_72.json,http://54.235.29.9/FacialAge/BNav_EC2/DepthDuration/v2_depth_duration_MTurk/v2_DepthDuration_HTML.html#41,41,1366,625,1366,768,8-21-2022,13-44-52,137,depth_duration_stimuli/001132_2014-06-17_14-48-54_260595134347_rgbf000100-resize_2/001132_2014-06-17_14-48-54_260595134347_rgbf000100-resize_2-target.png,125,3.753,4,3215,124,meters,jsons/VE125_randls_72.json,1234212,1442217,1963,59
137,367249,DepthScenes,duration_manipulation_targetAtFixation,jsons/VE125_randls_72.json,http://54.235.29.9/FacialAge/BNav_EC2/DepthDuration/v2_depth_duration_MTurk/v2_DepthDuration_HTML.html#41,41,1366,625,1366,768,8-21-2022,13-44-52,138,depth_duration_stimuli/000469_2014-06-09_19-42-10_260595134347_rgbf000081-resize_1/000469_2014-06-09_19-42-10_260595134347_rgbf000081-resize_1-target.png,125,1.652,5,3001,126,meters,jsons/VE125_randls_72.json,1234212,1442217,1963,59
138,367249,DepthScenes,duration_manipulation_targetAtFixation,jsons/VE125_randls_72.json,http://54.235.29.9/FacialAge/BNav_EC2/DepthDuration/v2_depth_duration_MTurk/v2_DepthDuration_HTML.html#41,41,1366,625,1366,768,8-21-2022,13-44-52,139,depth_duration_stimuli/000483_2014-06-09_20-41-45_260595134347_rgbf000116-resize_4/000483_2014-06-09_20-41-45_260595134347_rgbf000116-resize_4-target.png,125,1.337,4,3017,124,meters,jsons/VE125_randls_72.json,1234212,1442217,1963,59
139,367249,DepthScenes,duration_manipulation_targetAtFixation,jsons/VE125_randls_72.json,http://54.235.29.9/FacialAge/BNav_EC2/DepthDuration/v2_depth_duration_MTurk/v2_DepthDuration_HTML.html#41,41,1366,625,1366,768,8-21-2022,13-44-52,140,depth_duration_stimuli/001417_2014-06-19_16-25-36_260595134347_rgbf000115-resize_5/001417_2014-06-19_16-25-36_260595134347_rgbf000115-resize_5-target.png,125,4.6255,5,3086,132,meters,jsons/VE125_randls_72.json,1234212,1442217,1963,59
140,367249,DepthScenes,duration_manipulation_targetAtFixation,jsons/VE125_randls_72.json,http://54.235.29.9/FacialAge/BNav_EC2/DepthDuration/v2_depth_duration_MTurk/v2_DepthDuration_HTML.html#41,41,1366,625,1366,768,8-21-2022,13-44-52,141,depth_duration_stimuli/003081_2014-06-15_15-19-16_094959634447_rgbf000150-resize_1/003081_2014-06-15_15-19-16_094959634447_rgbf000150-resize_1-target.png,125,3.9125,4,2555,124,meters,jsons/VE125_randls_72.json,1234212,1442217,1963,59
141,367249,DepthScenes,duration_manipulation_targetAtFixation,jsons/VE125_randls_72.json,http://54.235.29.9/FacialAge/BNav_EC2/DepthDuration/v2_depth_duration_MTurk/v2_DepthDuration_HTML.html#41,41,1366,625,1366,768,8-21-2022,13-44-52,142,depth_duration_stimuli/002375_2014-06-28_20-13-44_260595134347_rgbf000032-resize_1/002375_2014-06-28_20-13-44_260595134347_rgbf000032-resize_1-target.png,125,4.0175,5,2940,115,meters,jsons/VE125_randls_72.json,1234212,1442217,1963,59
142,367249,DepthScenes,duration_manipulation_targetAtFixation,jsons/VE125_randls_72.json,http://54.235.29.9/FacialAge/BNav_EC2/DepthDuration/v2_depth_duration_MTurk/v2_DepthDuration_HTML.html#41,41,1366,625,1366,768,8-21-2022,13-44-52,143,depth_duration_stimuli/002657_2014-06-13_15-29-54_094959634447_rgbf000150-resize_1/002657_2014-06-13_15-29-54_094959634447_rgbf000150-resize_1-target.png,125,4.919,4,2715,117,meters,jsons/VE125_randls_72.json,1234212,1442217,1963,59
143,367249,DepthScenes,duration_manipulation_targetAtFixation,jsons/VE125_randls_72.json,http://54.235.29.9/FacialAge/BNav_EC2/DepthDuration/v2_depth_duration_MTurk/v2_DepthDuration_HTML.html#41,41,1366,625,1366,768,8-21-2022,13-44-52,144,depth_duration_stimuli/000810_2014-06-08_17-20-01_260595134347_rgbf000105-resize_0/000810_2014-06-08_17-20-01_260595134347_rgbf000105-resize_0-target.png,125,1.4865,5,2873,124,meters,jsons/VE125_randls_72.json,1234212,1442217,1963,59
144,367249,DepthScenes,duration_manipulation_targetAtFixation,jsons/VE125_randls_72.json,http://54.235.29.9/FacialAge/BNav_EC2/DepthDuration/v2_depth_duration_MTurk/v2_DepthDuration_HTML.html#41,41,1366,625,1366,768,8-21-2022,13-44-52,145,depth_duration_stimuli/001214_2014-06-17_16-13-55_260595134347_rgbf000111-resize_0/001214_2014-06-17_16-13-55_260595134347_rgbf000111-resize_0-target.png,125,2.6505,4,2923,128,meters,jsons/VE125_randls_72.json,1234212,1442217,1963,59
145,367249,DepthScenes,duration_manipulation_targetAtFixation,jsons/VE125_randls_72.json,http://54.235.29.9/FacialAge/BNav_EC2/DepthDuration/v2_depth_duration_MTurk/v2_DepthDuration_HTML.html#41,41,1366,625,1366,768,8-21-2022,13-44-52,146,depth_duration_stimuli/001498_2014-06-19_17-45-14_260595134347_rgbf000129-resize_4/001498_2014-06-19_17-45-14_260595134347_rgbf000129-resize-original.jpg,125,1.4075,0,3099,125,meters,jsons/VE125_randls_72.json,1234212,1442217,1963,59
146,367249,DepthScenes,duration_manipulation_targetAtFixation,jsons/VE125_randls_72.json,http://54.235.29.9/FacialAge/BNav_EC2/DepthDuration/v2_depth_duration_MTurk/v2_DepthDuration_HTML.html#41,41,1366,625,1366,768,8-21-2022,13-44-52,147,depth_duration_stimuli/002570_2014-06-24_13-59-54_094959634447_rgbf000059-resize_0/002570_2014-06-24_13-59-54_094959634447_rgbf000059-resize_0-target.png,125,4.037,5,2803,126,meters,jsons/VE125_randls_72.json,1234212,1442217,1963,59
147,367249,DepthScenes,duration_manipulation_targetAtFixation,jsons/VE125_randls_72.json,http://54.235.29.9/FacialAge/BNav_EC2/DepthDuration/v2_depth_duration_MTurk/v2_DepthDuration_HTML.html#41,41,1366,625,1366,768,8-21-2022,13-44-52,148,depth_duration_stimuli/002467_2014-06-28_20-38-07_260595134347_rgbf000026-resize_2/002467_2014-06-28_20-38-07_260595134347_rgbf000026-resize_2-target.png,125,4.742,4,2701,127,meters,jsons/VE125_randls_72.json,1234212,1442217,1963,59
148,367249,DepthScenes,duration_manipulation_targetAtFixation,jsons/VE125_randls_72.json,http://54.235.29.9/FacialAge/BNav_EC2/DepthDuration/v2_depth_duration_MTurk/v2_DepthDuration_HTML.html#41,41,1366,625,1366,768,8-21-2022,13-44-52,149,depth_duration_stimuli/001066_2014-06-08_22-03-20_260595134347_rgbf000066-resize_4/001066_2014-06-08_22-03-20_260595134347_rgbf000066-resize_4-target.png,125,4.2330000000000005,5,2783,120,meters,jsons/VE125_randls_72.json,1234212,1442217,1963,59
149,367249,DepthScenes,duration_manipulation_targetAtFixation,jsons/VE125_randls_72.json,http://54.235.29.9/FacialAge/BNav_EC2/DepthDuration/v2_depth_duration_MTurk/v2_DepthDuration_HTML.html#41,41,1366,625,1366,768,8-21-2022,13-44-52,150,depth_duration_stimuli/000742_2014-06-08_18-48-09_260595134347_rgbf000164-resize_4/000742_2014-06-08_18-48-09_260595134347_rgbf000164-resize_4-target.png,125,4.632,4,2791,112,meters,jsons/VE125_randls_72.json,1234212,1442217,1963,59
150,367249,DepthScenes,duration_manipulation_targetAtFixation,jsons/VE125_randls_72.json,http://54.235.29.9/FacialAge/BNav_EC2/DepthDuration/v2_depth_duration_MTurk/v2_DepthDuration_HTML.html#41,41,1366,625,1366,768,8-21-2022,13-44-52,151,depth_duration_stimuli/000436_2014-06-09_22-25-11_260595134347_rgbf000137-resize_1/000436_2014-06-09_22-25-11_260595134347_rgbf000137-resize_1-target.png,125,4.0705,5,2917,135,meters,jsons/VE125_randls_72.json,1234212,1442217,1963,59
151,367249,DepthScenes,duration_manipulation_targetAtFixation,jsons/VE125_randls_72.json,http://54.235.29.9/FacialAge/BNav_EC2/DepthDuration/v2_depth_duration_MTurk/v2_DepthDuration_HTML.html#41,41,1366,625,1366,768,8-21-2022,13-44-52,152,depth_duration_stimuli/002444_2014-06-28_20-32-08_260595134347_rgbf000027-resize_0/002444_2014-06-28_20-32-08_260595134347_rgbf000027-resize_0-target.png,125,4.388999999999999,4,2819,133,meters,jsons/VE125_randls_72.json,1234212,1442217,1963,59
152,367249,DepthScenes,duration_manipulation_targetAtFixation,jsons/VE125_randls_72.json,http://54.235.29.9/FacialAge/BNav_EC2/DepthDuration/v2_depth_duration_MTurk/v2_DepthDuration_HTML.html#41,41,1366,625,1366,768,8-21-2022,13-44-52,153,depth_duration_stimuli/000447_2014-06-08_16-15-46_260595134347_rgbf000130-resize_1/000447_2014-06-08_16-15-46_260595134347_rgbf000130-resize_1-target.png,125,4.479,5,3180,117,meters,jsons/VE125_randls_72.json,1234212,1442217,1963,59
153,367249,DepthScenes,duration_manipulation_targetAtFixation,jsons/VE125_randls_72.json,http://54.235.29.9/FacialAge/BNav_EC2/DepthDuration/v2_depth_duration_MTurk/v2_DepthDuration_HTML.html#41,41,1366,625,1366,768,8-21-2022,13-44-52,154,depth_duration_stimuli/001447_2014-06-19_17-00-32_260595134347_rgbf000082-resize_5/001447_2014-06-19_17-00-32_260595134347_rgbf000082-resize_5-target.png,125,4.13775,4,3115,131,meters,jsons/VE125_randls_72.json,1234212,1442217,1963,59
154,367249,DepthScenes,duration_manipulation_targetAtFixation,jsons/VE125_randls_72.json,http://54.235.29.9/FacialAge/BNav_EC2/DepthDuration/v2_depth_duration_MTurk/v2_DepthDuration_HTML.html#41,41,1366,625,1366,768,8-21-2022,13-44-52,155,depth_duration_stimuli/002763_2014-06-22_19-13-10_094959634447_rgbf000075-resize_4/002763_2014-06-22_19-13-10_094959634447_rgbf000075-resize_4-target.png,125,1.68375,5,4068,133,meters,jsons/VE125_randls_72.json,1234212,1442217,1963,59
155,367249,DepthScenes,duration_manipulation_targetAtFixation,jsons/VE125_randls_72.json,http://54.235.29.9/FacialAge/BNav_EC2/DepthDuration/v2_depth_duration_MTurk/v2_DepthDuration_HTML.html#41,41,1366,625,1366,768,8-21-2022,13-44-52,156,depth_duration_stimuli/002209_2014-06-28_18-36-10_260595134347_rgbf000051-resize_1/002209_2014-06-28_18-36-10_260595134347_rgbf000051-resize_1-target.png,125,2.057,4,2830,119,meters,jsons/VE125_randls_72.json,1234212,1442217,1963,59
156,367249,DepthScenes,duration_manipulation_targetAtFixation,jsons/VE125_randls_72.json,http://54.235.29.9/FacialAge/BNav_EC2/DepthDuration/v2_depth_duration_MTurk/v2_DepthDuration_HTML.html#41,41,1366,625,1366,768,8-21-2022,13-44-52,157,depth_duration_stimuli/000368_2014-06-09_15-53-01_260595134347_rgbf000155-resize_2/000368_2014-06-09_15-53-01_260595134347_rgbf000155-resize_2-target.png,125,2.4859999999999998,5,2922,119,meters,jsons/VE125_randls_72.json,1234212,1442217,1963,59
157,367249,DepthScenes,duration_manipulation_targetAtFixation,jsons/VE125_randls_72.json,http://54.235.29.9/FacialAge/BNav_EC2/DepthDuration/v2_depth_duration_MTurk/v2_DepthDuration_HTML.html#41,41,1366,625,1366,768,8-21-2022,13-44-52,158,depth_duration_stimuli/002678_2014-06-13_16-15-32_094959634447_rgbf000151-resize_6/002678_2014-06-13_16-15-32_094959634447_rgbf000151-resize_6-target.png,125,2.1830000000000003,0,12820,130,meters,jsons/VE125_randls_72.json,1234212,1442217,1963,59
158,367249,DepthScenes,duration_manipulation_targetAtFixation,jsons/VE125_randls_72.json,http://54.235.29.9/FacialAge/BNav_EC2/DepthDuration/v2_depth_duration_MTurk/v2_DepthDuration_HTML.html#41,41,1366,625,1366,768,8-21-2022,13-44-52,159,depth_duration_stimuli/001810_2014-06-26_20-51-35_260595134347_rgbf000040-resize_3/001810_2014-06-26_20-51-35_260595134347_rgbf000040-resize_3-target.png,125,2.2525,5,3269,125,meters,jsons/VE125_randls_72.json,1234212,1442217,1963,59
159,367249,DepthScenes,duration_manipulation_targetAtFixation,jsons/VE125_randls_72.json,http://54.235.29.9/FacialAge/BNav_EC2/DepthDuration/v2_depth_duration_MTurk/v2_DepthDuration_HTML.html#41,41,1366,625,1366,768,8-21-2022,13-44-52,160,depth_duration_stimuli/003010_2014-06-15_12-54-35_094959634447_rgbf000112-resize_0/003010_2014-06-15_12-54-35_094959634447_rgbf000112-resize_0-target.png,125,3.1185,4,2760,122,meters,jsons/VE125_randls_72.json,1234212,1442217,1963,59
160,367249,DepthScenes,duration_manipulation_targetAtFixation,jsons/VE125_randls_72.json,http://54.235.29.9/FacialAge/BNav_EC2/DepthDuration/v2_depth_duration_MTurk/v2_DepthDuration_HTML.html#41,41,1366,625,1366,768,8-21-2022,13-44-52,161,depth_duration_stimuli/000758_2014-06-08_22-05-08_260595134347_rgbf000085-resize_0/000758_2014-06-08_22-05-08_260595134347_rgbf000085-resize_0-target.png,125,3.3810000000000002,0,2958,132,meters,jsons/VE125_randls_72.json,1234212,1442217,1963,59
161,367249,DepthScenes,duration_manipulation_targetAtFixation,jsons/VE125_randls_72.json,http://54.235.29.9/FacialAge/BNav_EC2/DepthDuration/v2_depth_duration_MTurk/v2_DepthDuration_HTML.html#41,41,1366,625,1366,768,8-21-2022,13-44-52,162,depth_duration_stimuli/000854_2014-06-09_19-43-13_260595134347_rgbf000066-resize_0/000854_2014-06-09_19-43-13_260595134347_rgbf000066-resize_0-target.png,125,3.068,5,3128,118,meters,jsons/VE125_randls_72.json,1234212,1442217,1963,59
162,367249,DepthScenes,duration_manipulation_targetAtFixation,jsons/VE125_randls_72.json,http://54.235.29.9/FacialAge/BNav_EC2/DepthDuration/v2_depth_duration_MTurk/v2_DepthDuration_HTML.html#41,41,1366,625,1366,768,8-21-2022,13-44-52,163,depth_duration_stimuli/003292_2014-05-14_21-53-49_094959634447_rgbf000100-resize_2/003292_2014-05-14_21-53-49_094959634447_rgbf000100-resize_2-target.png,125,3.4815,0,3014,116,meters,jsons/VE125_randls_72.json,1234212,1442217,1963,59
163,367249,DepthScenes,duration_manipulation_targetAtFixation,jsons/VE125_randls_72.json,http://54.235.29.9/FacialAge/BNav_EC2/DepthDuration/v2_depth_duration_MTurk/v2_DepthDuration_HTML.html#41,41,1366,625,1366,768,8-21-2022,13-44-52,164,depth_duration_stimuli/002639_2014-06-24_14-51-37_094959634447_rgbf000074-resize_4/002639_2014-06-24_14-51-37_094959634447_rgbf000074-resize_4-target.png,125,4.0375,4,3032,127,meters,jsons/VE125_randls_72.json,1234212,1442217,1963,59
