,subjID,experimentName,versionName,sequenceName,url,selected_row,windowWidth,windowHeight,screenWidth,screenHeight,startDate,startTime,trial,stimulus,duration,actual_depth,depth_estimate,trial_RT,log_sceneDuration,unitSelection,seq_filepath,experimentTime,totalTime,age,gender
0,368455,DepthScenes,duration_manipulation_targetAtFixation,jsons/VE125_randls_68_rotated.json,http://54.235.29.9/FacialAge/BNav_EC2/DepthDuration/v2_depth_duration_MTurk/v2_DepthDuration_HTML.html#88,88,1364,768,1364,768,9-4-2022,10-14-25,1,depth_duration_stimuli/001617_2014-06-20_11-35-32_260595134347_rgbf000066-resize_1/001617_2014-06-20_11-35-32_260595134347_rgbf000066-resize_1-target.png,125,3.7910000000000004,3,3808,124,feet,jsons/VE125_randls_68_rotated.json,666888,1228709,30,Woman
1,368455,DepthScenes,duration_manipulation_targetAtFixation,jsons/VE125_randls_68_rotated.json,http://54.235.29.9/FacialAge/BNav_EC2/DepthDuration/v2_depth_duration_MTurk/v2_DepthDuration_HTML.html#88,88,1364,768,1364,768,9-4-2022,10-14-25,2,depth_duration_stimuli/001806_2014-06-26_20-50-20_260595134347_rgbf000091-resize_1/001806_2014-06-26_20-50-20_260595134347_rgbf000091-resize_1-target.png,125,2.7305,3,3211,125,feet,jsons/VE125_randls_68_rotated.json,666888,1228709,30,Woman
2,368455,DepthScenes,duration_manipulation_targetAtFixation,jsons/VE125_randls_68_rotated.json,http://54.235.29.9/FacialAge/BNav_EC2/DepthDuration/v2_depth_duration_MTurk/v2_DepthDuration_HTML.html#88,88,1364,768,1364,768,9-4-2022,10-14-25,3,depth_duration_stimuli/000742_2014-06-08_18-48-09_260595134347_rgbf000164-resize_4/000742_2014-06-08_18-48-09_260595134347_rgbf000164-resize_4-target.png,125,4.632,4,4274,134,feet,jsons/VE125_randls_68_rotated.json,666888,1228709,30,Woman
3,368455,DepthScenes,duration_manipulation_targetAtFixation,jsons/VE125_randls_68_rotated.json,http://54.235.29.9/FacialAge/BNav_EC2/DepthDuration/v2_depth_duration_MTurk/v2_DepthDuration_HTML.html#88,88,1364,768,1364,768,9-4-2022,10-14-25,4,depth_duration_stimuli/001066_2014-06-08_22-03-20_260595134347_rgbf000066-resize_4/001066_2014-06-08_22-03-20_260595134347_rgbf000066-resize_4-target.png,125,4.2330000000000005,5,4592,124,feet,jsons/VE125_randls_68_rotated.json,666888,1228709,30,Woman
4,368455,DepthScenes,duration_manipulation_targetAtFixation,jsons/VE125_randls_68_rotated.json,http://54.235.29.9/FacialAge/BNav_EC2/DepthDuration/v2_depth_duration_MTurk/v2_DepthDuration_HTML.html#88,88,1364,768,1364,768,9-4-2022,10-14-25,5,depth_duration_stimuli/000927_2014-06-09_16-32-30_260595134347_rgbf000123-resize_3/000927_2014-06-09_16-32-30_260595134347_rgbf000123-resize_3-target.png,125,2.6785,3,3793,125,feet,jsons/VE125_randls_68_rotated.json,666888,1228709,30,Woman
5,368455,DepthScenes,duration_manipulation_targetAtFixation,jsons/VE125_randls_68_rotated.json,http://54.235.29.9/FacialAge/BNav_EC2/DepthDuration/v2_depth_duration_MTurk/v2_DepthDuration_HTML.html#88,88,1364,768,1364,768,9-4-2022,10-14-25,6,depth_duration_stimuli/001110_2014-06-15_17-25-28_260595134347_rgbf000150-resize_1/001110_2014-06-15_17-25-28_260595134347_rgbf000150-resize_1-target.png,125,1.7115,3,2900,114,feet,jsons/VE125_randls_68_rotated.json,666888,1228709,30,Woman
6,368455,DepthScenes,duration_manipulation_targetAtFixation,jsons/VE125_randls_68_rotated.json,http://54.235.29.9/FacialAge/BNav_EC2/DepthDuration/v2_depth_duration_MTurk/v2_DepthDuration_HTML.html#88,88,1364,768,1364,768,9-4-2022,10-14-25,7,depth_duration_stimuli/002340_2014-06-28_20-05-46_260595134347_rgbf000113-resize_0/002340_2014-06-28_20-05-46_260595134347_rgbf000113-resize_0-target.png,125,2.4735,3,3026,123,feet,jsons/VE125_randls_68_rotated.json,666888,1228709,30,Woman
7,368455,DepthScenes,duration_manipulation_targetAtFixation,jsons/VE125_randls_68_rotated.json,http://54.235.29.9/FacialAge/BNav_EC2/DepthDuration/v2_depth_duration_MTurk/v2_DepthDuration_HTML.html#88,88,1364,768,1364,768,9-4-2022,10-14-25,8,depth_duration_stimuli/001016_2014-06-09_16-16-10_260595134347_rgbf000112-resize_5/001016_2014-06-09_16-16-10_260595134347_rgbf000112-resize_5-target.png,125,1.6565,3,3594,124,feet,jsons/VE125_randls_68_rotated.json,666888,1228709,30,Woman
8,368455,DepthScenes,duration_manipulation_targetAtFixation,jsons/VE125_randls_68_rotated.json,http://54.235.29.9/FacialAge/BNav_EC2/DepthDuration/v2_depth_duration_MTurk/v2_DepthDuration_HTML.html#88,88,1364,768,1364,768,9-4-2022,10-14-25,9,depth_duration_stimuli/001571_2014-06-20_17-21-32_260595134347_rgbf000089-resize_1/001571_2014-06-20_17-21-32_260595134347_rgbf000089-resize_1-target.png,125,1.86,2,3252,126,feet,jsons/VE125_randls_68_rotated.json,666888,1228709,30,Woman
9,368455,DepthScenes,duration_manipulation_targetAtFixation,jsons/VE125_randls_68_rotated.json,http://54.235.29.9/FacialAge/BNav_EC2/DepthDuration/v2_depth_duration_MTurk/v2_DepthDuration_HTML.html#88,88,1364,768,1364,768,9-4-2022,10-14-25,10,depth_duration_stimuli/002272_2014-06-28_18-53-56_260595134347_rgbf000067-resize_2/002272_2014-06-28_18-53-56_260595134347_rgbf000067-resize_2-target.png,125,1.138,2,2741,125,feet,jsons/VE125_randls_68_rotated.json,666888,1228709,30,Woman
10,368455,DepthScenes,duration_manipulation_targetAtFixation,jsons/VE125_randls_68_rotated.json,http://54.235.29.9/FacialAge/BNav_EC2/DepthDuration/v2_depth_duration_MTurk/v2_DepthDuration_HTML.html#88,88,1364,768,1364,768,9-4-2022,10-14-25,11,depth_duration_stimuli/002875_2014-06-01_15-19-00_094959634447_rgbf000151-resize_1/002875_2014-06-01_15-19-00_094959634447_rgbf000151-resize_1-target.png,125,1.9675,4,6138,125,feet,jsons/VE125_randls_68_rotated.json,666888,1228709,30,Woman
11,368455,DepthScenes,duration_manipulation_targetAtFixation,jsons/VE125_randls_68_rotated.json,http://54.235.29.9/FacialAge/BNav_EC2/DepthDuration/v2_depth_duration_MTurk/v2_DepthDuration_HTML.html#88,88,1364,768,1364,768,9-4-2022,10-14-25,12,depth_duration_stimuli/001011_2014-06-08_23-18-54_260595134347_rgbf000044-resize_4/001011_2014-06-08_23-18-54_260595134347_rgbf000044-resize_4-target.png,125,2.4730000000000003,2,5442,125,feet,jsons/VE125_randls_68_rotated.json,666888,1228709,30,Woman
12,368455,DepthScenes,duration_manipulation_targetAtFixation,jsons/VE125_randls_68_rotated.json,http://54.235.29.9/FacialAge/BNav_EC2/DepthDuration/v2_depth_duration_MTurk/v2_DepthDuration_HTML.html#88,88,1364,768,1364,768,9-4-2022,10-14-25,13,depth_duration_stimuli/002639_2014-06-24_14-51-37_094959634447_rgbf000074-resize_4/002639_2014-06-24_14-51-37_094959634447_rgbf000074-resize_4-target.png,125,4.0375,4,5992,123,feet,jsons/VE125_randls_68_rotated.json,666888,1228709,30,Woman
13,368455,DepthScenes,duration_manipulation_targetAtFixation,jsons/VE125_randls_68_rotated.json,http://54.235.29.9/FacialAge/BNav_EC2/DepthDuration/v2_depth_duration_MTurk/v2_DepthDuration_HTML.html#88,88,1364,768,1364,768,9-4-2022,10-14-25,14,depth_duration_stimuli/003292_2014-05-14_21-53-49_094959634447_rgbf000100-resize_2/003292_2014-05-14_21-53-49_094959634447_rgbf000100-resize_2-target.png,125,3.4815,3,7747,108,feet,jsons/VE125_randls_68_rotated.json,666888,1228709,30,Woman
14,368455,DepthScenes,duration_manipulation_targetAtFixation,jsons/VE125_randls_68_rotated.json,http://54.235.29.9/FacialAge/BNav_EC2/DepthDuration/v2_depth_duration_MTurk/v2_DepthDuration_HTML.html#88,88,1364,768,1364,768,9-4-2022,10-14-25,15,depth_duration_stimuli/002678_2014-06-13_16-15-32_094959634447_rgbf000151-resize_6/002678_2014-06-13_16-15-32_094959634447_rgbf000151-resize_6-target.png,125,2.1830000000000003,5,4025,125,feet,jsons/VE125_randls_68_rotated.json,666888,1228709,30,Woman
15,368455,DepthScenes,duration_manipulation_targetAtFixation,jsons/VE125_randls_68_rotated.json,http://54.235.29.9/FacialAge/BNav_EC2/DepthDuration/v2_depth_duration_MTurk/v2_DepthDuration_HTML.html#88,88,1364,768,1364,768,9-4-2022,10-14-25,16,depth_duration_stimuli/000368_2014-06-09_15-53-01_260595134347_rgbf000155-resize_2/000368_2014-06-09_15-53-01_260595134347_rgbf000155-resize_2-target.png,125,2.4859999999999998,3,3062,125,feet,jsons/VE125_randls_68_rotated.json,666888,1228709,30,Woman
16,368455,DepthScenes,duration_manipulation_targetAtFixation,jsons/VE125_randls_68_rotated.json,http://54.235.29.9/FacialAge/BNav_EC2/DepthDuration/v2_depth_duration_MTurk/v2_DepthDuration_HTML.html#88,88,1364,768,1364,768,9-4-2022,10-14-25,17,depth_duration_stimuli/001447_2014-06-19_17-00-32_260595134347_rgbf000082-resize_5/001447_2014-06-19_17-00-32_260595134347_rgbf000082-resize_5-target.png,125,4.13775,3,11120,80,feet,jsons/VE125_randls_68_rotated.json,666888,1228709,30,Woman
17,368455,DepthScenes,duration_manipulation_targetAtFixation,jsons/VE125_randls_68_rotated.json,http://54.235.29.9/FacialAge/BNav_EC2/DepthDuration/v2_depth_duration_MTurk/v2_DepthDuration_HTML.html#88,88,1364,768,1364,768,9-4-2022,10-14-25,18,depth_duration_stimuli/000447_2014-06-08_16-15-46_260595134347_rgbf000130-resize_1/000447_2014-06-08_16-15-46_260595134347_rgbf000130-resize_1-target.png,125,4.479,3,4052,124,feet,jsons/VE125_randls_68_rotated.json,666888,1228709,30,Woman
18,368455,DepthScenes,duration_manipulation_targetAtFixation,jsons/VE125_randls_68_rotated.json,http://54.235.29.9/FacialAge/BNav_EC2/DepthDuration/v2_depth_duration_MTurk/v2_DepthDuration_HTML.html#88,88,1364,768,1364,768,9-4-2022,10-14-25,19,depth_duration_stimuli/001498_2014-06-19_17-45-14_260595134347_rgbf000129-resize_4/001498_2014-06-19_17-45-14_260595134347_rgbf000129-resize-original.jpg,125,1.4075,0,2995,123,feet,jsons/VE125_randls_68_rotated.json,666888,1228709,30,Woman
19,368455,DepthScenes,duration_manipulation_targetAtFixation,jsons/VE125_randls_68_rotated.json,http://54.235.29.9/FacialAge/BNav_EC2/DepthDuration/v2_depth_duration_MTurk/v2_DepthDuration_HTML.html#88,88,1364,768,1364,768,9-4-2022,10-14-25,20,depth_duration_stimuli/002995_2014-06-15_12-31-26_094959634447_rgbf000150-resize_1/002995_2014-06-15_12-31-26_094959634447_rgbf000150-resize_1-target.png,125,3.8360000000000003,5,3557,124,feet,jsons/VE125_randls_68_rotated.json,666888,1228709,30,Woman
20,368455,DepthScenes,duration_manipulation_targetAtFixation,jsons/VE125_randls_68_rotated.json,http://54.235.29.9/FacialAge/BNav_EC2/DepthDuration/v2_depth_duration_MTurk/v2_DepthDuration_HTML.html#88,88,1364,768,1364,768,9-4-2022,10-14-25,21,depth_duration_stimuli/002748_2014-06-22_19-07-22_094959634447_rgbf000078-resize_1/002748_2014-06-22_19-07-22_094959634447_rgbf000078-resize_1-target.png,125,4.6705,5,2314,122,feet,jsons/VE125_randls_68_rotated.json,666888,1228709,30,Woman
21,368455,DepthScenes,duration_manipulation_targetAtFixation,jsons/VE125_randls_68_rotated.json,http://54.235.29.9/FacialAge/BNav_EC2/DepthDuration/v2_depth_duration_MTurk/v2_DepthDuration_HTML.html#88,88,1364,768,1364,768,9-4-2022,10-14-25,22,depth_duration_stimuli/002136_2014-06-25_21-18-03_260595134347_rgbf000109-resize_3/002136_2014-06-25_21-18-03_260595134347_rgbf000109-resize_3-target.png,125,1.9569999999999999,3,3714,123,feet,jsons/VE125_randls_68_rotated.json,666888,1228709,30,Woman
22,368455,DepthScenes,duration_manipulation_targetAtFixation,jsons/VE125_randls_68_rotated.json,http://54.235.29.9/FacialAge/BNav_EC2/DepthDuration/v2_depth_duration_MTurk/v2_DepthDuration_HTML.html#88,88,1364,768,1364,768,9-4-2022,10-14-25,23,depth_duration_stimuli/002964_2014-06-08_17-46-11_094959634447_rgbf000091-resize_4/002964_2014-06-08_17-46-11_094959634447_rgbf000091-resize_4-target.png,125,1.6909999999999998,3,5580,125,feet,jsons/VE125_randls_68_rotated.json,666888,1228709,30,Woman
23,368455,DepthScenes,duration_manipulation_targetAtFixation,jsons/VE125_randls_68_rotated.json,http://54.235.29.9/FacialAge/BNav_EC2/DepthDuration/v2_depth_duration_MTurk/v2_DepthDuration_HTML.html#88,88,1364,768,1364,768,9-4-2022,10-14-25,24,depth_duration_stimuli/000103_2014-05-14_22-01-17_260595134347_rgbf000152-resize_5/000103_2014-05-14_22-01-17_260595134347_rgbf000152-resize_5-target.png,125,1.993,3,5666,125,feet,jsons/VE125_randls_68_rotated.json,666888,1228709,30,Woman
24,368455,DepthScenes,duration_manipulation_targetAtFixation,jsons/VE125_randls_68_rotated.json,http://54.235.29.9/FacialAge/BNav_EC2/DepthDuration/v2_depth_duration_MTurk/v2_DepthDuration_HTML.html#88,88,1364,768,1364,768,9-4-2022,10-14-25,25,depth_duration_stimuli/001555_2014-06-20_17-12-10_260595134347_rgbf000065-resize_4/001555_2014-06-20_17-12-10_260595134347_rgbf000065-resize_4-target.png,125,1.633,2,2437,124,feet,jsons/VE125_randls_68_rotated.json,666888,1228709,30,Woman
25,368455,DepthScenes,duration_manipulation_targetAtFixation,jsons/VE125_randls_68_rotated.json,http://54.235.29.9/FacialAge/BNav_EC2/DepthDuration/v2_depth_duration_MTurk/v2_DepthDuration_HTML.html#88,88,1364,768,1364,768,9-4-2022,10-14-25,26,depth_duration_stimuli/003083_2014-06-15_15-21-03_094959634447_rgbf000063-resize_1/003083_2014-06-15_15-21-03_094959634447_rgbf000063-resize_1-target.png,125,4.1405,5,2990,123,feet,jsons/VE125_randls_68_rotated.json,666888,1228709,30,Woman
26,368455,DepthScenes,duration_manipulation_targetAtFixation,jsons/VE125_randls_68_rotated.json,http://54.235.29.9/FacialAge/BNav_EC2/DepthDuration/v2_depth_duration_MTurk/v2_DepthDuration_HTML.html#88,88,1364,768,1364,768,9-4-2022,10-14-25,27,depth_duration_stimuli/000486_2014-06-09_20-47-20_260595134347_rgbf000143-resize_2/000486_2014-06-09_20-47-20_260595134347_rgbf000143-resize_2-target.png,125,4.8325,4,4289,125,feet,jsons/VE125_randls_68_rotated.json,666888,1228709,30,Woman
27,368455,DepthScenes,duration_manipulation_targetAtFixation,jsons/VE125_randls_68_rotated.json,http://54.235.29.9/FacialAge/BNav_EC2/DepthDuration/v2_depth_duration_MTurk/v2_DepthDuration_HTML.html#88,88,1364,768,1364,768,9-4-2022,10-14-25,28,depth_duration_stimuli/000457_2014-06-08_16-52-43_260595134347_rgbf000199-resize_1/000457_2014-06-08_16-52-43_260595134347_rgbf000199-resize_1-target.png,125,3.6489999999999996,4,5514,125,feet,jsons/VE125_randls_68_rotated.json,666888,1228709,30,Woman
28,368455,DepthScenes,duration_manipulation_targetAtFixation,jsons/VE125_randls_68_rotated.json,http://54.235.29.9/FacialAge/BNav_EC2/DepthDuration/v2_depth_duration_MTurk/v2_DepthDuration_HTML.html#88,88,1364,768,1364,768,9-4-2022,10-14-25,29,depth_duration_stimuli/000929_2014-06-09_16-33-19_260595134347_rgbf000139-resize_0/000929_2014-06-09_16-33-19_260595134347_rgbf000139-resize_0-target.png,125,2.8680000000000003,3,3235,123,feet,jsons/VE125_randls_68_rotated.json,666888,1228709,30,Woman
29,368455,DepthScenes,duration_manipulation_targetAtFixation,jsons/VE125_randls_68_rotated.json,http://54.235.29.9/FacialAge/BNav_EC2/DepthDuration/v2_depth_duration_MTurk/v2_DepthDuration_HTML.html#88,88,1364,768,1364,768,9-4-2022,10-14-25,30,depth_duration_stimuli/002072_2014-06-24_21-48-06_260595134347_rgbf000115-resize_0/002072_2014-06-24_21-48-06_260595134347_rgbf000115-resize-original.jpg,125,4.702,0,4195,126,feet,jsons/VE125_randls_68_rotated.json,666888,1228709,30,Woman
30,368455,DepthScenes,duration_manipulation_targetAtFixation,jsons/VE125_randls_68_rotated.json,http://54.235.29.9/FacialAge/BNav_EC2/DepthDuration/v2_depth_duration_MTurk/v2_DepthDuration_HTML.html#88,88,1364,768,1364,768,9-4-2022,10-14-25,31,depth_duration_stimuli/000734_2014-06-08_17-39-11_260595134347_rgbf000128-resize_2/000734_2014-06-08_17-39-11_260595134347_rgbf000128-resize_2-target.png,125,4.098,4,4825,125,feet,jsons/VE125_randls_68_rotated.json,666888,1228709,30,Woman
31,368455,DepthScenes,duration_manipulation_targetAtFixation,jsons/VE125_randls_68_rotated.json,http://54.235.29.9/FacialAge/BNav_EC2/DepthDuration/v2_depth_duration_MTurk/v2_DepthDuration_HTML.html#88,88,1364,768,1364,768,9-4-2022,10-14-25,32,depth_duration_stimuli/000739_2014-06-08_18-45-58_260595134347_rgbf000068-resize_1/000739_2014-06-08_18-45-58_260595134347_rgbf000068-resize_1-target.png,125,3.534,1,3221,124,feet,jsons/VE125_randls_68_rotated.json,666888,1228709,30,Woman
32,368455,DepthScenes,duration_manipulation_targetAtFixation,jsons/VE125_randls_68_rotated.json,http://54.235.29.9/FacialAge/BNav_EC2/DepthDuration/v2_depth_duration_MTurk/v2_DepthDuration_HTML.html#88,88,1364,768,1364,768,9-4-2022,10-14-25,33,depth_duration_stimuli/003129_2014-05-12_10-48-10_094959634447_rgbf000100-resize_0/003129_2014-05-12_10-48-10_094959634447_rgbf000100-resize_0-target.png,125,4.9305,5,8209,125,feet,jsons/VE125_randls_68_rotated.json,666888,1228709,30,Woman
33,368455,DepthScenes,duration_manipulation_targetAtFixation,jsons/VE125_randls_68_rotated.json,http://54.235.29.9/FacialAge/BNav_EC2/DepthDuration/v2_depth_duration_MTurk/v2_DepthDuration_HTML.html#88,88,1364,768,1364,768,9-4-2022,10-14-25,34,depth_duration_stimuli/000414_2014-06-04_19-49-13_260595134347_rgbf000044-resize_0/000414_2014-06-04_19-49-13_260595134347_rgbf000044-resize_0-target.png,125,4.329,5,2297,128,feet,jsons/VE125_randls_68_rotated.json,666888,1228709,30,Woman
34,368455,DepthScenes,duration_manipulation_targetAtFixation,jsons/VE125_randls_68_rotated.json,http://54.235.29.9/FacialAge/BNav_EC2/DepthDuration/v2_depth_duration_MTurk/v2_DepthDuration_HTML.html#88,88,1364,768,1364,768,9-4-2022,10-14-25,35,depth_duration_stimuli/002657_2014-06-13_15-29-54_094959634447_rgbf000150-resize_1/002657_2014-06-13_15-29-54_094959634447_rgbf000150-resize_1-target.png,125,4.919,5,3025,82,feet,jsons/VE125_randls_68_rotated.json,666888,1228709,30,Woman
35,368455,DepthScenes,duration_manipulation_targetAtFixation,jsons/VE125_randls_68_rotated.json,http://54.235.29.9/FacialAge/BNav_EC2/DepthDuration/v2_depth_duration_MTurk/v2_DepthDuration_HTML.html#88,88,1364,768,1364,768,9-4-2022,10-14-25,36,depth_duration_stimuli/002375_2014-06-28_20-13-44_260595134347_rgbf000032-resize_1/002375_2014-06-28_20-13-44_260595134347_rgbf000032-resize_1-target.png,125,4.0175,2,2635,125,feet,jsons/VE125_randls_68_rotated.json,666888,1228709,30,Woman
36,368455,DepthScenes,duration_manipulation_targetAtFixation,jsons/VE125_randls_68_rotated.json,http://54.235.29.9/FacialAge/BNav_EC2/DepthDuration/v2_depth_duration_MTurk/v2_DepthDuration_HTML.html#88,88,1364,768,1364,768,9-4-2022,10-14-25,37,depth_duration_stimuli/001132_2014-06-17_14-48-54_260595134347_rgbf000100-resize_2/001132_2014-06-17_14-48-54_260595134347_rgbf000100-resize_2-target.png,125,3.753,5,3808,123,feet,jsons/VE125_randls_68_rotated.json,666888,1228709,30,Woman
37,368455,DepthScenes,duration_manipulation_targetAtFixation,jsons/VE125_randls_68_rotated.json,http://54.235.29.9/FacialAge/BNav_EC2/DepthDuration/v2_depth_duration_MTurk/v2_DepthDuration_HTML.html#88,88,1364,768,1364,768,9-4-2022,10-14-25,38,depth_duration_stimuli/001133_2014-06-17_14-49-16_260595134347_rgbf000100-resize_0/001133_2014-06-17_14-49-16_260595134347_rgbf000100-resize_0-target.png,125,4.2115,7,2409,124,feet,jsons/VE125_randls_68_rotated.json,666888,1228709,30,Woman
38,368455,DepthScenes,duration_manipulation_targetAtFixation,jsons/VE125_randls_68_rotated.json,http://54.235.29.9/FacialAge/BNav_EC2/DepthDuration/v2_depth_duration_MTurk/v2_DepthDuration_HTML.html#88,88,1364,768,1364,768,9-4-2022,10-14-25,39,depth_duration_stimuli/000556_2014-06-09_22-42-56_260595134347_rgbf000214-resize_1/000556_2014-06-09_22-42-56_260595134347_rgbf000214-resize_1-target.png,125,4.8415,6,4555,124,feet,jsons/VE125_randls_68_rotated.json,666888,1228709,30,Woman
39,368455,DepthScenes,duration_manipulation_targetAtFixation,jsons/VE125_randls_68_rotated.json,http://54.235.29.9/FacialAge/BNav_EC2/DepthDuration/v2_depth_duration_MTurk/v2_DepthDuration_HTML.html#88,88,1364,768,1364,768,9-4-2022,10-14-25,40,depth_duration_stimuli/001158_2014-06-17_15-32-16_260595134347_rgbf000138-resize_2/001158_2014-06-17_15-32-16_260595134347_rgbf000138-resize_2-target.png,125,4.5315,5,2626,125,feet,jsons/VE125_randls_68_rotated.json,666888,1228709,30,Woman
40,368455,DepthScenes,duration_manipulation_targetAtFixation,jsons/VE125_randls_68_rotated.json,http://54.235.29.9/FacialAge/BNav_EC2/DepthDuration/v2_depth_duration_MTurk/v2_DepthDuration_HTML.html#88,88,1364,768,1364,768,9-4-2022,10-14-25,41,depth_duration_stimuli/002568_2014-06-24_13-59-21_094959634447_rgbf000062-resize_4/002568_2014-06-24_13-59-21_094959634447_rgbf000062-resize_4-target.png,125,3.015,4,19017,123,feet,jsons/VE125_randls_68_rotated.json,666888,1228709,30,Woman
41,368455,DepthScenes,duration_manipulation_targetAtFixation,jsons/VE125_randls_68_rotated.json,http://54.235.29.9/FacialAge/BNav_EC2/DepthDuration/v2_depth_duration_MTurk/v2_DepthDuration_HTML.html#88,88,1364,768,1364,768,9-4-2022,10-14-25,42,depth_duration_stimuli/003492_2014-05-21_15-50-55_094959634447_rgbf000828-resize_1/003492_2014-05-21_15-50-55_094959634447_rgbf000828-resize_1-target.png,125,4.06875,5,4380,123,feet,jsons/VE125_randls_68_rotated.json,666888,1228709,30,Woman
42,368455,DepthScenes,duration_manipulation_targetAtFixation,jsons/VE125_randls_68_rotated.json,http://54.235.29.9/FacialAge/BNav_EC2/DepthDuration/v2_depth_duration_MTurk/v2_DepthDuration_HTML.html#88,88,1364,768,1364,768,9-4-2022,10-14-25,43,depth_duration_stimuli/003490_2014-05-21_15-50-11_094959634447_rgbf000101-resize_3/003490_2014-05-21_15-50-11_094959634447_rgbf000101-resize_3-target.png,125,3.6445,4,9382,124,feet,jsons/VE125_randls_68_rotated.json,666888,1228709,30,Woman
43,368455,DepthScenes,duration_manipulation_targetAtFixation,jsons/VE125_randls_68_rotated.json,http://54.235.29.9/FacialAge/BNav_EC2/DepthDuration/v2_depth_duration_MTurk/v2_DepthDuration_HTML.html#88,88,1364,768,1364,768,9-4-2022,10-14-25,44,depth_duration_stimuli/001175_2014-06-17_15-45-55_260595134347_rgbf000129-resize_4/001175_2014-06-17_15-45-55_260595134347_rgbf000129-resize_4-target.png,125,4.255,3,5947,125,feet,jsons/VE125_randls_68_rotated.json,666888,1228709,30,Woman
44,368455,DepthScenes,duration_manipulation_targetAtFixation,jsons/VE125_randls_68_rotated.json,http://54.235.29.9/FacialAge/BNav_EC2/DepthDuration/v2_depth_duration_MTurk/v2_DepthDuration_HTML.html#88,88,1364,768,1364,768,9-4-2022,10-14-25,45,depth_duration_stimuli/002467_2014-06-28_20-38-07_260595134347_rgbf000026-resize_2/002467_2014-06-28_20-38-07_260595134347_rgbf000026-resize_2-target.png,125,4.742,4,5163,125,feet,jsons/VE125_randls_68_rotated.json,666888,1228709,30,Woman
45,368455,DepthScenes,duration_manipulation_targetAtFixation,jsons/VE125_randls_68_rotated.json,http://54.235.29.9/FacialAge/BNav_EC2/DepthDuration/v2_depth_duration_MTurk/v2_DepthDuration_HTML.html#88,88,1364,768,1364,768,9-4-2022,10-14-25,46,depth_duration_stimuli/002570_2014-06-24_13-59-54_094959634447_rgbf000059-resize_0/002570_2014-06-24_13-59-54_094959634447_rgbf000059-resize_0-target.png,125,4.037,3,4432,124,feet,jsons/VE125_randls_68_rotated.json,666888,1228709,30,Woman
46,368455,DepthScenes,duration_manipulation_targetAtFixation,jsons/VE125_randls_68_rotated.json,http://54.235.29.9/FacialAge/BNav_EC2/DepthDuration/v2_depth_duration_MTurk/v2_DepthDuration_HTML.html#88,88,1364,768,1364,768,9-4-2022,10-14-25,47,depth_duration_stimuli/003228_2014-05-14_13-42-35_094959634447_rgbf000101-resize_1/003228_2014-05-14_13-42-35_094959634447_rgbf000101-resize_1-target.png,125,1.9680000000000002,4,5771,124,feet,jsons/VE125_randls_68_rotated.json,666888,1228709,30,Woman
47,368455,DepthScenes,duration_manipulation_targetAtFixation,jsons/VE125_randls_68_rotated.json,http://54.235.29.9/FacialAge/BNav_EC2/DepthDuration/v2_depth_duration_MTurk/v2_DepthDuration_HTML.html#88,88,1364,768,1364,768,9-4-2022,10-14-25,48,depth_duration_stimuli/002600_2014-06-24_14-27-04_094959634447_rgbf000074-resize_2/002600_2014-06-24_14-27-04_094959634447_rgbf000074-resize_2-target.png,125,2.7575,4,4594,124,feet,jsons/VE125_randls_68_rotated.json,666888,1228709,30,Woman
48,368455,DepthScenes,duration_manipulation_targetAtFixation,jsons/VE125_randls_68_rotated.json,http://54.235.29.9/FacialAge/BNav_EC2/DepthDuration/v2_depth_duration_MTurk/v2_DepthDuration_HTML.html#88,88,1364,768,1364,768,9-4-2022,10-14-25,49,depth_duration_stimuli/001170_2014-06-17_15-43-44_260595134347_rgbf000096-resize_6/001170_2014-06-17_15-43-44_260595134347_rgbf000096-resize-original.jpg,125,1.1909999999999998,0,3609,125,feet,jsons/VE125_randls_68_rotated.json,666888,1228709,30,Woman
49,368455,DepthScenes,duration_manipulation_targetAtFixation,jsons/VE125_randls_68_rotated.json,http://54.235.29.9/FacialAge/BNav_EC2/DepthDuration/v2_depth_duration_MTurk/v2_DepthDuration_HTML.html#88,88,1364,768,1364,768,9-4-2022,10-14-25,50,depth_duration_stimuli/001584_2014-06-20_11-07-43_260595134347_rgbf000002-resize_1/001584_2014-06-20_11-07-43_260595134347_rgbf000002-resize_1-target.png,125,3.53,3,3634,124,feet,jsons/VE125_randls_68_rotated.json,666888,1228709,30,Woman
50,368455,DepthScenes,duration_manipulation_targetAtFixation,jsons/VE125_randls_68_rotated.json,http://54.235.29.9/FacialAge/BNav_EC2/DepthDuration/v2_depth_duration_MTurk/v2_DepthDuration_HTML.html#88,88,1364,768,1364,768,9-4-2022,10-14-25,51,depth_duration_stimuli/003621_2014-05-23_18-06-08_094959634447_rgbf000101-resize_1/003621_2014-05-23_18-06-08_094959634447_rgbf000101-resize_1-target.png,125,3.9835,3,2982,124,feet,jsons/VE125_randls_68_rotated.json,666888,1228709,30,Woman
51,368455,DepthScenes,duration_manipulation_targetAtFixation,jsons/VE125_randls_68_rotated.json,http://54.235.29.9/FacialAge/BNav_EC2/DepthDuration/v2_depth_duration_MTurk/v2_DepthDuration_HTML.html#88,88,1364,768,1364,768,9-4-2022,10-14-25,52,depth_duration_stimuli/002323_2014-06-28_20-01-54_260595134347_rgbf000051-resize_4/002323_2014-06-28_20-01-54_260595134347_rgbf000051-resize_4-target.png,125,3.7310000000000003,4,3591,123,feet,jsons/VE125_randls_68_rotated.json,666888,1228709,30,Woman
52,368455,DepthScenes,duration_manipulation_targetAtFixation,jsons/VE125_randls_68_rotated.json,http://54.235.29.9/FacialAge/BNav_EC2/DepthDuration/v2_depth_duration_MTurk/v2_DepthDuration_HTML.html#88,88,1364,768,1364,768,9-4-2022,10-14-25,53,depth_duration_stimuli/000917_2014-06-09_22-45-29_260595134347_rgbf000149-resize_3/000917_2014-06-09_22-45-29_260595134347_rgbf000149-resize_3-target.png,125,4.1865,3,2643,124,feet,jsons/VE125_randls_68_rotated.json,666888,1228709,30,Woman
53,368455,DepthScenes,duration_manipulation_targetAtFixation,jsons/VE125_randls_68_rotated.json,http://54.235.29.9/FacialAge/BNav_EC2/DepthDuration/v2_depth_duration_MTurk/v2_DepthDuration_HTML.html#88,88,1364,768,1364,768,9-4-2022,10-14-25,54,depth_duration_stimuli/000677_2014-06-08_23-10-32_260595134347_rgbf000158-resize_6/000677_2014-06-08_23-10-32_260595134347_rgbf000158-resize_6-target.png,125,3.556,4,8059,123,feet,jsons/VE125_randls_68_rotated.json,666888,1228709,30,Woman
54,368455,DepthScenes,duration_manipulation_targetAtFixation,jsons/VE125_randls_68_rotated.json,http://54.235.29.9/FacialAge/BNav_EC2/DepthDuration/v2_depth_duration_MTurk/v2_DepthDuration_HTML.html#88,88,1364,768,1364,768,9-4-2022,10-14-25,55,depth_duration_stimuli/001029_2014-06-08_13-17-57_260595134347_rgbf000065-resize_1/001029_2014-06-08_13-17-57_260595134347_rgbf000065-resize_1-target.png,125,3.0835,4,11642,147,feet,jsons/VE125_randls_68_rotated.json,666888,1228709,30,Woman
55,368455,DepthScenes,duration_manipulation_targetAtFixation,jsons/VE125_randls_68_rotated.json,http://54.235.29.9/FacialAge/BNav_EC2/DepthDuration/v2_depth_duration_MTurk/v2_DepthDuration_HTML.html#88,88,1364,768,1364,768,9-4-2022,10-14-25,56,depth_duration_stimuli/002637_2014-06-24_14-51-13_094959634447_rgbf000066-resize_4/002637_2014-06-24_14-51-13_094959634447_rgbf000066-resize_4-target.png,125,1.9955,4,3541,124,feet,jsons/VE125_randls_68_rotated.json,666888,1228709,30,Woman
56,368455,DepthScenes,duration_manipulation_targetAtFixation,jsons/VE125_randls_68_rotated.json,http://54.235.29.9/FacialAge/BNav_EC2/DepthDuration/v2_depth_duration_MTurk/v2_DepthDuration_HTML.html#88,88,1364,768,1364,768,9-4-2022,10-14-25,57,depth_duration_stimuli/003534_2014-05-22_15-06-10_094959634447_rgbf000102-resize_4/003534_2014-05-22_15-06-10_094959634447_rgbf000102-resize_4-target.png,125,1.426,1,5333,119,feet,jsons/VE125_randls_68_rotated.json,666888,1228709,30,Woman
57,368455,DepthScenes,duration_manipulation_targetAtFixation,jsons/VE125_randls_68_rotated.json,http://54.235.29.9/FacialAge/BNav_EC2/DepthDuration/v2_depth_duration_MTurk/v2_DepthDuration_HTML.html#88,88,1364,768,1364,768,9-4-2022,10-14-25,58,depth_duration_stimuli/001100_2014-06-15_17-46-26_260595134347_rgbf000225-resize_2/001100_2014-06-15_17-46-26_260595134347_rgbf000225-resize_2-target.png,125,2.24,2,4148,175,feet,jsons/VE125_randls_68_rotated.json,666888,1228709,30,Woman
58,368455,DepthScenes,duration_manipulation_targetAtFixation,jsons/VE125_randls_68_rotated.json,http://54.235.29.9/FacialAge/BNav_EC2/DepthDuration/v2_depth_duration_MTurk/v2_DepthDuration_HTML.html#88,88,1364,768,1364,768,9-4-2022,10-14-25,59,depth_duration_stimuli/002784_2014-06-22_19-26-30_094959634447_rgbf000083-resize_3/002784_2014-06-22_19-26-30_094959634447_rgbf000083-resize_3-target.png,125,1.8046666666667,1,1983,99,feet,jsons/VE125_randls_68_rotated.json,666888,1228709,30,Woman
59,368455,DepthScenes,duration_manipulation_targetAtFixation,jsons/VE125_randls_68_rotated.json,http://54.235.29.9/FacialAge/BNav_EC2/DepthDuration/v2_depth_duration_MTurk/v2_DepthDuration_HTML.html#88,88,1364,768,1364,768,9-4-2022,10-14-25,60,depth_duration_stimuli/000409_2014-06-04_19-23-33_260595134347_rgbf000067-resize_0/000409_2014-06-04_19-23-33_260595134347_rgbf000067-resize_0-target.png,125,3.7335,4,2081,188,feet,jsons/VE125_randls_68_rotated.json,666888,1228709,30,Woman
60,368455,DepthScenes,duration_manipulation_targetAtFixation,jsons/VE125_randls_68_rotated.json,http://54.235.29.9/FacialAge/BNav_EC2/DepthDuration/v2_depth_duration_MTurk/v2_DepthDuration_HTML.html#88,88,1364,768,1364,768,9-4-2022,10-14-25,61,depth_duration_stimuli/002663_2014-06-13_15-50-26_094959634447_rgbf000075-resize_1/002663_2014-06-13_15-50-26_094959634447_rgbf000075-resize_1-target.png,125,4.7495,3,3316,125,feet,jsons/VE125_randls_68_rotated.json,666888,1228709,30,Woman
61,368455,DepthScenes,duration_manipulation_targetAtFixation,jsons/VE125_randls_68_rotated.json,http://54.235.29.9/FacialAge/BNav_EC2/DepthDuration/v2_depth_duration_MTurk/v2_DepthDuration_HTML.html#88,88,1364,768,1364,768,9-4-2022,10-14-25,62,depth_duration_stimuli/002199_2014-06-28_18-33-56_260595134347_rgbf000074-resize_0/002199_2014-06-28_18-33-56_260595134347_rgbf000074-resize_0-target.png,125,1.996,1,2805,200,feet,jsons/VE125_randls_68_rotated.json,666888,1228709,30,Woman
62,368455,DepthScenes,duration_manipulation_targetAtFixation,jsons/VE125_randls_68_rotated.json,http://54.235.29.9/FacialAge/BNav_EC2/DepthDuration/v2_depth_duration_MTurk/v2_DepthDuration_HTML.html#88,88,1364,768,1364,768,9-4-2022,10-14-25,63,depth_duration_stimuli/001056_2014-06-08_18-46-44_260595134347_rgbf000068-resize_0/001056_2014-06-08_18-46-44_260595134347_rgbf000068-resize_0-target.png,125,2.6625,1,2360,123,feet,jsons/VE125_randls_68_rotated.json,666888,1228709,30,Woman
63,368455,DepthScenes,duration_manipulation_targetAtFixation,jsons/VE125_randls_68_rotated.json,http://54.235.29.9/FacialAge/BNav_EC2/DepthDuration/v2_depth_duration_MTurk/v2_DepthDuration_HTML.html#88,88,1364,768,1364,768,9-4-2022,10-14-25,64,depth_duration_stimuli/001052_2014-06-08_18-24-54_260595134347_rgbf000130-resize_1/001052_2014-06-08_18-24-54_260595134347_rgbf000130-resize_1-target.png,125,4.1045,4,2650,124,feet,jsons/VE125_randls_68_rotated.json,666888,1228709,30,Woman
64,368455,DepthScenes,duration_manipulation_targetAtFixation,jsons/VE125_randls_68_rotated.json,http://54.235.29.9/FacialAge/BNav_EC2/DepthDuration/v2_depth_duration_MTurk/v2_DepthDuration_HTML.html#88,88,1364,768,1364,768,9-4-2022,10-14-25,65,depth_duration_stimuli/002988_2014-06-15_12-24-20_094959634447_rgbf000150-resize_1/002988_2014-06-15_12-24-20_094959634447_rgbf000150-resize_1-target.png,125,4.7669999999999995,3,2564,125,feet,jsons/VE125_randls_68_rotated.json,666888,1228709,30,Woman
65,368455,DepthScenes,duration_manipulation_targetAtFixation,jsons/VE125_randls_68_rotated.json,http://54.235.29.9/FacialAge/BNav_EC2/DepthDuration/v2_depth_duration_MTurk/v2_DepthDuration_HTML.html#88,88,1364,768,1364,768,9-4-2022,10-14-25,66,depth_duration_stimuli/001540_2014-06-20_17-01-05_260595134347_rgbf000086-resize_2/001540_2014-06-20_17-01-05_260595134347_rgbf000086-resize-original.jpg,125,1.459,0,3115,118,feet,jsons/VE125_randls_68_rotated.json,666888,1228709,30,Woman
66,368455,DepthScenes,duration_manipulation_targetAtFixation,jsons/VE125_randls_68_rotated.json,http://54.235.29.9/FacialAge/BNav_EC2/DepthDuration/v2_depth_duration_MTurk/v2_DepthDuration_HTML.html#88,88,1364,768,1364,768,9-4-2022,10-14-25,67,depth_duration_stimuli/001650_2014-06-20_12-09-00_260595134347_rgbf000087-resize_3/001650_2014-06-20_12-09-00_260595134347_rgbf000087-resize_3-target.png,125,1.9505,3,3148,126,feet,jsons/VE125_randls_68_rotated.json,666888,1228709,30,Woman
67,368455,DepthScenes,duration_manipulation_targetAtFixation,jsons/VE125_randls_68_rotated.json,http://54.235.29.9/FacialAge/BNav_EC2/DepthDuration/v2_depth_duration_MTurk/v2_DepthDuration_HTML.html#88,88,1364,768,1364,768,9-4-2022,10-14-25,68,depth_duration_stimuli/000682_2014-06-08_23-14-58_260595134347_rgbf000041-resize_5/000682_2014-06-08_23-14-58_260595134347_rgbf000041-resize_5-target.png,125,2.7239999999999998,1,2617,186,feet,jsons/VE125_randls_68_rotated.json,666888,1228709,30,Woman
68,368455,DepthScenes,duration_manipulation_targetAtFixation,jsons/VE125_randls_68_rotated.json,http://54.235.29.9/FacialAge/BNav_EC2/DepthDuration/v2_depth_duration_MTurk/v2_DepthDuration_HTML.html#88,88,1364,768,1364,768,9-4-2022,10-14-25,69,depth_duration_stimuli/001516_2014-06-20_16-25-09_260595134347_rgbf000076-resize_2/001516_2014-06-20_16-25-09_260595134347_rgbf000076-resize_2-target.png,125,1.7445,4,2552,124,feet,jsons/VE125_randls_68_rotated.json,666888,1228709,30,Woman
69,368455,DepthScenes,duration_manipulation_targetAtFixation,jsons/VE125_randls_68_rotated.json,http://54.235.29.9/FacialAge/BNav_EC2/DepthDuration/v2_depth_duration_MTurk/v2_DepthDuration_HTML.html#88,88,1364,768,1364,768,9-4-2022,10-14-25,70,depth_duration_stimuli/002118_2014-06-25_20-32-08_260595134347_rgbf000078-resize_1/002118_2014-06-25_20-32-08_260595134347_rgbf000078-resize_1-target.png,125,2.6460000000000004,3,1974,125,feet,jsons/VE125_randls_68_rotated.json,666888,1228709,30,Woman
70,368455,DepthScenes,duration_manipulation_targetAtFixation,jsons/VE125_randls_68_rotated.json,http://54.235.29.9/FacialAge/BNav_EC2/DepthDuration/v2_depth_duration_MTurk/v2_DepthDuration_HTML.html#88,88,1364,768,1364,768,9-4-2022,10-14-25,71,depth_duration_stimuli/003079_2014-06-15_15-18-20_094959634447_rgbf000152-resize_8/003079_2014-06-15_15-18-20_094959634447_rgbf000152-resize_8-target.png,125,2.8775,5,2627,126,feet,jsons/VE125_randls_68_rotated.json,666888,1228709,30,Woman
71,368455,DepthScenes,duration_manipulation_targetAtFixation,jsons/VE125_randls_68_rotated.json,http://54.235.29.9/FacialAge/BNav_EC2/DepthDuration/v2_depth_duration_MTurk/v2_DepthDuration_HTML.html#88,88,1364,768,1364,768,9-4-2022,10-14-25,72,depth_duration_stimuli/000506_2014-06-08_23-21-00_260595134347_rgbf000070-resize_7/000506_2014-06-08_23-21-00_260595134347_rgbf000070-resize_7-target.png,125,4.0585,7,2202,117,feet,jsons/VE125_randls_68_rotated.json,666888,1228709,30,Woman
72,368455,DepthScenes,duration_manipulation_targetAtFixation,jsons/VE125_randls_68_rotated.json,http://54.235.29.9/FacialAge/BNav_EC2/DepthDuration/v2_depth_duration_MTurk/v2_DepthDuration_HTML.html#88,88,1364,768,1364,768,9-4-2022,10-14-25,73,depth_duration_stimuli/002758_2014-06-22_19-11-20_094959634447_rgbf000128-resize_1/002758_2014-06-22_19-11-20_094959634447_rgbf000128-resize_1-target.png,125,2.555,6,2867,125,feet,jsons/VE125_randls_68_rotated.json,666888,1228709,30,Woman
73,368455,DepthScenes,duration_manipulation_targetAtFixation,jsons/VE125_randls_68_rotated.json,http://54.235.29.9/FacialAge/BNav_EC2/DepthDuration/v2_depth_duration_MTurk/v2_DepthDuration_HTML.html#88,88,1364,768,1364,768,9-4-2022,10-14-25,74,depth_duration_stimuli/002630_2014-06-24_14-47-50_094959634447_rgbf000055-resize_1/002630_2014-06-24_14-47-50_094959634447_rgbf000055-resize_1-target.png,125,3.0095,5,2137,124,feet,jsons/VE125_randls_68_rotated.json,666888,1228709,30,Woman
74,368455,DepthScenes,duration_manipulation_targetAtFixation,jsons/VE125_randls_68_rotated.json,http://54.235.29.9/FacialAge/BNav_EC2/DepthDuration/v2_depth_duration_MTurk/v2_DepthDuration_HTML.html#88,88,1364,768,1364,768,9-4-2022,10-14-25,75,depth_duration_stimuli/000137_2014-05-20_17-04-49_260595134347_rgbf000120-resize_1/000137_2014-05-20_17-04-49_260595134347_rgbf000120-resize_1-target.png,125,3.786,5,3120,124,feet,jsons/VE125_randls_68_rotated.json,666888,1228709,30,Woman
75,368455,DepthScenes,duration_manipulation_targetAtFixation,jsons/VE125_randls_68_rotated.json,http://54.235.29.9/FacialAge/BNav_EC2/DepthDuration/v2_depth_duration_MTurk/v2_DepthDuration_HTML.html#88,88,1364,768,1364,768,9-4-2022,10-14-25,76,depth_duration_stimuli/000736_2014-06-08_18-24-15_260595134347_rgbf000206-resize_3/000736_2014-06-08_18-24-15_260595134347_rgbf000206-resize_3-target.png,125,3.515,5,2220,109,feet,jsons/VE125_randls_68_rotated.json,666888,1228709,30,Woman
76,368455,DepthScenes,duration_manipulation_targetAtFixation,jsons/VE125_randls_68_rotated.json,http://54.235.29.9/FacialAge/BNav_EC2/DepthDuration/v2_depth_duration_MTurk/v2_DepthDuration_HTML.html#88,88,1364,768,1364,768,9-4-2022,10-14-25,77,depth_duration_stimuli/000691_2014-06-08_13-08-50_260595134347_rgbf000132-resize_3/000691_2014-06-08_13-08-50_260595134347_rgbf000132-resize_3-target.png,125,4.1530000000000005,8,2989,125,feet,jsons/VE125_randls_68_rotated.json,666888,1228709,30,Woman
77,368455,DepthScenes,duration_manipulation_targetAtFixation,jsons/VE125_randls_68_rotated.json,http://54.235.29.9/FacialAge/BNav_EC2/DepthDuration/v2_depth_duration_MTurk/v2_DepthDuration_HTML.html#88,88,1364,768,1364,768,9-4-2022,10-14-25,78,depth_duration_stimuli/002213_2014-06-28_18-37-58_260595134347_rgbf000055-resize_1/002213_2014-06-28_18-37-58_260595134347_rgbf000055-resize_1-target.png,125,3.62,6,1977,125,feet,jsons/VE125_randls_68_rotated.json,666888,1228709,30,Woman
78,368455,DepthScenes,duration_manipulation_targetAtFixation,jsons/VE125_randls_68_rotated.json,http://54.235.29.9/FacialAge/BNav_EC2/DepthDuration/v2_depth_duration_MTurk/v2_DepthDuration_HTML.html#88,88,1364,768,1364,768,9-4-2022,10-14-25,79,depth_duration_stimuli/000109_2014-05-14_23-41-52_260595134347_rgbf000035-resize_9/000109_2014-05-14_23-41-52_260595134347_rgbf000035-resize_9-target.png,125,1.3545,3,2401,154,feet,jsons/VE125_randls_68_rotated.json,666888,1228709,30,Woman
79,368455,DepthScenes,duration_manipulation_targetAtFixation,jsons/VE125_randls_68_rotated.json,http://54.235.29.9/FacialAge/BNav_EC2/DepthDuration/v2_depth_duration_MTurk/v2_DepthDuration_HTML.html#88,88,1364,768,1364,768,9-4-2022,10-14-25,80,depth_duration_stimuli/000470_2014-06-09_19-42-40_260595134347_rgbf000094-resize_1/000470_2014-06-09_19-42-40_260595134347_rgbf000094-resize_1-target.png,125,1.831,2,2720,125,feet,jsons/VE125_randls_68_rotated.json,666888,1228709,30,Woman
80,368455,DepthScenes,duration_manipulation_targetAtFixation,jsons/VE125_randls_68_rotated.json,http://54.235.29.9/FacialAge/BNav_EC2/DepthDuration/v2_depth_duration_MTurk/v2_DepthDuration_HTML.html#88,88,1364,768,1364,768,9-4-2022,10-14-25,81,depth_duration_stimuli/002103_2014-06-25_20-00-40_260595134347_rgbf000049-resize_0/002103_2014-06-25_20-00-40_260595134347_rgbf000049-resize_0-target.png,125,4.105,5,4747,125,feet,jsons/VE125_randls_68_rotated.json,666888,1228709,30,Woman
81,368455,DepthScenes,duration_manipulation_targetAtFixation,jsons/VE125_randls_68_rotated.json,http://54.235.29.9/FacialAge/BNav_EC2/DepthDuration/v2_depth_duration_MTurk/v2_DepthDuration_HTML.html#88,88,1364,768,1364,768,9-4-2022,10-14-25,82,depth_duration_stimuli/002039_2014-06-24_20-22-38_260595134347_rgbf000084-resize_1/002039_2014-06-24_20-22-38_260595134347_rgbf000084-resize_1-target.png,125,4.408,3,3818,126,feet,jsons/VE125_randls_68_rotated.json,666888,1228709,30,Woman
82,368455,DepthScenes,duration_manipulation_targetAtFixation,jsons/VE125_randls_68_rotated.json,http://54.235.29.9/FacialAge/BNav_EC2/DepthDuration/v2_depth_duration_MTurk/v2_DepthDuration_HTML.html#88,88,1364,768,1364,768,9-4-2022,10-14-25,83,depth_duration_stimuli/002660_2014-06-13_15-44-18_094959634447_rgbf001878-resize_2/002660_2014-06-13_15-44-18_094959634447_rgbf001878-resize_2-target.png,125,3.576,4,2652,126,feet,jsons/VE125_randls_68_rotated.json,666888,1228709,30,Woman
83,368455,DepthScenes,duration_manipulation_targetAtFixation,jsons/VE125_randls_68_rotated.json,http://54.235.29.9/FacialAge/BNav_EC2/DepthDuration/v2_depth_duration_MTurk/v2_DepthDuration_HTML.html#88,88,1364,768,1364,768,9-4-2022,10-14-25,84,depth_duration_stimuli/002153_2014-06-25_21-27-18_260595134347_rgbf000038-resize_5/002153_2014-06-25_21-27-18_260595134347_rgbf000038-resize_5-target.png,125,2.505,3,3345,114,feet,jsons/VE125_randls_68_rotated.json,666888,1228709,30,Woman
84,368455,DepthScenes,duration_manipulation_targetAtFixation,jsons/VE125_randls_68_rotated.json,http://54.235.29.9/FacialAge/BNav_EC2/DepthDuration/v2_depth_duration_MTurk/v2_DepthDuration_HTML.html#88,88,1364,768,1364,768,9-4-2022,10-14-25,85,depth_duration_stimuli/003338_2014-05-20_11-01-23_094959634447_rgbf000051-resize_6/003338_2014-05-20_11-01-23_094959634447_rgbf000051-resize_6-target.png,125,1.693,1,3336,69,feet,jsons/VE125_randls_68_rotated.json,666888,1228709,30,Woman
85,368455,DepthScenes,duration_manipulation_targetAtFixation,jsons/VE125_randls_68_rotated.json,http://54.235.29.9/FacialAge/BNav_EC2/DepthDuration/v2_depth_duration_MTurk/v2_DepthDuration_HTML.html#88,88,1364,768,1364,768,9-4-2022,10-14-25,86,depth_duration_stimuli/002509_2014-06-24_13-19-22_094959634447_rgbf000077-resize_0/002509_2014-06-24_13-19-22_094959634447_rgbf000077-resize_0-target.png,125,1.3065,3,3118,123,feet,jsons/VE125_randls_68_rotated.json,666888,1228709,30,Woman
86,368455,DepthScenes,duration_manipulation_targetAtFixation,jsons/VE125_randls_68_rotated.json,http://54.235.29.9/FacialAge/BNav_EC2/DepthDuration/v2_depth_duration_MTurk/v2_DepthDuration_HTML.html#88,88,1364,768,1364,768,9-4-2022,10-14-25,87,depth_duration_stimuli/000635_2014-06-08_16-38-42_260595134347_rgbf000106-resize_1/000635_2014-06-08_16-38-42_260595134347_rgbf000106-resize_1-target.png,125,2.074,3,2706,132,feet,jsons/VE125_randls_68_rotated.json,666888,1228709,30,Woman
87,368455,DepthScenes,duration_manipulation_targetAtFixation,jsons/VE125_randls_68_rotated.json,http://54.235.29.9/FacialAge/BNav_EC2/DepthDuration/v2_depth_duration_MTurk/v2_DepthDuration_HTML.html#88,88,1364,768,1364,768,9-4-2022,10-14-25,88,depth_duration_stimuli/002279_2014-06-28_18-55-32_260595134347_rgbf000040-resize_5/002279_2014-06-28_18-55-32_260595134347_rgbf000040-resize_5-target.png,125,1.5043333333333,4,2387,124,feet,jsons/VE125_randls_68_rotated.json,666888,1228709,30,Woman
88,368455,DepthScenes,duration_manipulation_targetAtFixation,jsons/VE125_randls_68_rotated.json,http://54.235.29.9/FacialAge/BNav_EC2/DepthDuration/v2_depth_duration_MTurk/v2_DepthDuration_HTML.html#88,88,1364,768,1364,768,9-4-2022,10-14-25,89,depth_duration_stimuli/002953_2014-06-08_17-32-18_094959634447_rgbf000059-resize_5/002953_2014-06-08_17-32-18_094959634447_rgbf000059-resize_5-target.png,125,1.551,3,4601,124,feet,jsons/VE125_randls_68_rotated.json,666888,1228709,30,Woman
89,368455,DepthScenes,duration_manipulation_targetAtFixation,jsons/VE125_randls_68_rotated.json,http://54.235.29.9/FacialAge/BNav_EC2/DepthDuration/v2_depth_duration_MTurk/v2_DepthDuration_HTML.html#88,88,1364,768,1364,768,9-4-2022,10-14-25,90,depth_duration_stimuli/000878_2014-06-08_22-52-45_260595134347_rgbf000045-resize_2/000878_2014-06-08_22-52-45_260595134347_rgbf000045-resize_2-target.png,125,2.092,2,1989,124,feet,jsons/VE125_randls_68_rotated.json,666888,1228709,30,Woman
90,368455,DepthScenes,duration_manipulation_targetAtFixation,jsons/VE125_randls_68_rotated.json,http://54.235.29.9/FacialAge/BNav_EC2/DepthDuration/v2_depth_duration_MTurk/v2_DepthDuration_HTML.html#88,88,1364,768,1364,768,9-4-2022,10-14-25,91,depth_duration_stimuli/002344_2014-06-28_20-06-29_260595134347_rgbf000030-resize_1/002344_2014-06-28_20-06-29_260595134347_rgbf000030-resize_1-target.png,125,1.5795,2,5172,126,feet,jsons/VE125_randls_68_rotated.json,666888,1228709,30,Woman
91,368455,DepthScenes,duration_manipulation_targetAtFixation,jsons/VE125_randls_68_rotated.json,http://54.235.29.9/FacialAge/BNav_EC2/DepthDuration/v2_depth_duration_MTurk/v2_DepthDuration_HTML.html#88,88,1364,768,1364,768,9-4-2022,10-14-25,92,depth_duration_stimuli/002725_2014-06-22_11-47-51_094959634447_rgbf000070-resize_1/002725_2014-06-22_11-47-51_094959634447_rgbf000070-resize_1-target.png,125,2.195,2,2318,111,feet,jsons/VE125_randls_68_rotated.json,666888,1228709,30,Woman
92,368455,DepthScenes,duration_manipulation_targetAtFixation,jsons/VE125_randls_68_rotated.json,http://54.235.29.9/FacialAge/BNav_EC2/DepthDuration/v2_depth_duration_MTurk/v2_DepthDuration_HTML.html#88,88,1364,768,1364,768,9-4-2022,10-14-25,93,depth_duration_stimuli/002444_2014-06-28_20-32-08_260595134347_rgbf000027-resize_0/002444_2014-06-28_20-32-08_260595134347_rgbf000027-resize_0-target.png,125,4.388999999999999,7,3492,133,feet,jsons/VE125_randls_68_rotated.json,666888,1228709,30,Woman
93,368455,DepthScenes,duration_manipulation_targetAtFixation,jsons/VE125_randls_68_rotated.json,http://54.235.29.9/FacialAge/BNav_EC2/DepthDuration/v2_depth_duration_MTurk/v2_DepthDuration_HTML.html#88,88,1364,768,1364,768,9-4-2022,10-14-25,94,depth_duration_stimuli/000436_2014-06-09_22-25-11_260595134347_rgbf000137-resize_1/000436_2014-06-09_22-25-11_260595134347_rgbf000137-resize_1-target.png,125,4.0705,4,2481,132,feet,jsons/VE125_randls_68_rotated.json,666888,1228709,30,Woman
94,368455,DepthScenes,duration_manipulation_targetAtFixation,jsons/VE125_randls_68_rotated.json,http://54.235.29.9/FacialAge/BNav_EC2/DepthDuration/v2_depth_duration_MTurk/v2_DepthDuration_HTML.html#88,88,1364,768,1364,768,9-4-2022,10-14-25,95,depth_duration_stimuli/001094_2014-06-15_17-36-00_260595134347_rgbf000205-resize_0/001094_2014-06-15_17-36-00_260595134347_rgbf000205-resize_0-target.png,125,4.2175,6,3596,135,feet,jsons/VE125_randls_68_rotated.json,666888,1228709,30,Woman
95,368455,DepthScenes,duration_manipulation_targetAtFixation,jsons/VE125_randls_68_rotated.json,http://54.235.29.9/FacialAge/BNav_EC2/DepthDuration/v2_depth_duration_MTurk/v2_DepthDuration_HTML.html#88,88,1364,768,1364,768,9-4-2022,10-14-25,96,depth_duration_stimuli/000692_2014-06-08_13-09-42_260595134347_rgbf000199-resize_2/000692_2014-06-08_13-09-42_260595134347_rgbf000199-resize_2-target.png,125,3.661,7,2938,125,feet,jsons/VE125_randls_68_rotated.json,666888,1228709,30,Woman
96,368455,DepthScenes,duration_manipulation_targetAtFixation,jsons/VE125_randls_68_rotated.json,http://54.235.29.9/FacialAge/BNav_EC2/DepthDuration/v2_depth_duration_MTurk/v2_DepthDuration_HTML.html#88,88,1364,768,1364,768,9-4-2022,10-14-25,97,depth_duration_stimuli/000665_2014-06-09_20-42-35_260595134347_rgbf000110-resize_1/000665_2014-06-09_20-42-35_260595134347_rgbf000110-resize_1-target.png,125,3.057,6,3434,124,feet,jsons/VE125_randls_68_rotated.json,666888,1228709,30,Woman
97,368455,DepthScenes,duration_manipulation_targetAtFixation,jsons/VE125_randls_68_rotated.json,http://54.235.29.9/FacialAge/BNav_EC2/DepthDuration/v2_depth_duration_MTurk/v2_DepthDuration_HTML.html#88,88,1364,768,1364,768,9-4-2022,10-14-25,98,depth_duration_stimuli/001150_2014-06-17_15-27-34_260595134347_rgbf000108-resize_2/001150_2014-06-17_15-27-34_260595134347_rgbf000108-resize_2-target.png,125,4.0325,5,2514,125,feet,jsons/VE125_randls_68_rotated.json,666888,1228709,30,Woman
98,368455,DepthScenes,duration_manipulation_targetAtFixation,jsons/VE125_randls_68_rotated.json,http://54.235.29.9/FacialAge/BNav_EC2/DepthDuration/v2_depth_duration_MTurk/v2_DepthDuration_HTML.html#88,88,1364,768,1364,768,9-4-2022,10-14-25,99,depth_duration_stimuli/001222_2014-06-17_16-24-06_260595134347_rgbf000073-resize_0/001222_2014-06-17_16-24-06_260595134347_rgbf000073-resize-original.jpg,125,1.4385,0,2504,124,feet,jsons/VE125_randls_68_rotated.json,666888,1228709,30,Woman
99,368455,DepthScenes,duration_manipulation_targetAtFixation,jsons/VE125_randls_68_rotated.json,http://54.235.29.9/FacialAge/BNav_EC2/DepthDuration/v2_depth_duration_MTurk/v2_DepthDuration_HTML.html#88,88,1364,768,1364,768,9-4-2022,10-14-25,100,depth_duration_stimuli/002414_2014-06-28_20-24-58_260595134347_rgbf000067-resize_4/002414_2014-06-28_20-24-58_260595134347_rgbf000067-resize_4-target.png,125,4.363,5,2727,124,feet,jsons/VE125_randls_68_rotated.json,666888,1228709,30,Woman
100,368455,DepthScenes,duration_manipulation_targetAtFixation,jsons/VE125_randls_68_rotated.json,http://54.235.29.9/FacialAge/BNav_EC2/DepthDuration/v2_depth_duration_MTurk/v2_DepthDuration_HTML.html#88,88,1364,768,1364,768,9-4-2022,10-14-25,101,depth_duration_stimuli/000773_2014-06-08_22-24-54_260595134347_rgbf000093-resize_1/000773_2014-06-08_22-24-54_260595134347_rgbf000093-resize_1-target.png,125,4.973,4,2349,124,feet,jsons/VE125_randls_68_rotated.json,666888,1228709,30,Woman
101,368455,DepthScenes,duration_manipulation_targetAtFixation,jsons/VE125_randls_68_rotated.json,http://54.235.29.9/FacialAge/BNav_EC2/DepthDuration/v2_depth_duration_MTurk/v2_DepthDuration_HTML.html#88,88,1364,768,1364,768,9-4-2022,10-14-25,102,depth_duration_stimuli/003048_2014-06-15_13-49-43_094959634447_rgbf000150-resize_1/003048_2014-06-15_13-49-43_094959634447_rgbf000150-resize_1-target.png,125,4.0035,6,3068,137,feet,jsons/VE125_randls_68_rotated.json,666888,1228709,30,Woman
102,368455,DepthScenes,duration_manipulation_targetAtFixation,jsons/VE125_randls_68_rotated.json,http://54.235.29.9/FacialAge/BNav_EC2/DepthDuration/v2_depth_duration_MTurk/v2_DepthDuration_HTML.html#88,88,1364,768,1364,768,9-4-2022,10-14-25,103,depth_duration_stimuli/002043_2014-06-24_20-29-38_260595134347_rgbf000039-resize_4/002043_2014-06-24_20-29-38_260595134347_rgbf000039-resize_4-target.png,125,2.8435,0,2116,124,feet,jsons/VE125_randls_68_rotated.json,666888,1228709,30,Woman
103,368455,DepthScenes,duration_manipulation_targetAtFixation,jsons/VE125_randls_68_rotated.json,http://54.235.29.9/FacialAge/BNav_EC2/DepthDuration/v2_depth_duration_MTurk/v2_DepthDuration_HTML.html#88,88,1364,768,1364,768,9-4-2022,10-14-25,104,depth_duration_stimuli/003495_2014-05-21_16-01-51_094959634447_rgbf000100-resize_3/003495_2014-05-21_16-01-51_094959634447_rgbf000100-resize_3-target.png,125,1.6255,3,1993,123,feet,jsons/VE125_randls_68_rotated.json,666888,1228709,30,Woman
104,368455,DepthScenes,duration_manipulation_targetAtFixation,jsons/VE125_randls_68_rotated.json,http://54.235.29.9/FacialAge/BNav_EC2/DepthDuration/v2_depth_duration_MTurk/v2_DepthDuration_HTML.html#88,88,1364,768,1364,768,9-4-2022,10-14-25,105,depth_duration_stimuli/001244_2014-06-17_16-47-45_260595134347_rgbf000030-resize_4/001244_2014-06-17_16-47-45_260595134347_rgbf000030-resize_4-target.png,125,2.0425,2,2220,125,feet,jsons/VE125_randls_68_rotated.json,666888,1228709,30,Woman
105,368455,DepthScenes,duration_manipulation_targetAtFixation,jsons/VE125_randls_68_rotated.json,http://54.235.29.9/FacialAge/BNav_EC2/DepthDuration/v2_depth_duration_MTurk/v2_DepthDuration_HTML.html#88,88,1364,768,1364,768,9-4-2022,10-14-25,106,depth_duration_stimuli/000866_2014-06-09_20-45-42_260595134347_rgbf000139-resize_1/000866_2014-06-09_20-45-42_260595134347_rgbf000139-resize_1-target.png,125,3.2155,4,2409,124,feet,jsons/VE125_randls_68_rotated.json,666888,1228709,30,Woman
106,368455,DepthScenes,duration_manipulation_targetAtFixation,jsons/VE125_randls_68_rotated.json,http://54.235.29.9/FacialAge/BNav_EC2/DepthDuration/v2_depth_duration_MTurk/v2_DepthDuration_HTML.html#88,88,1364,768,1364,768,9-4-2022,10-14-25,107,depth_duration_stimuli/002989_2014-06-15_12-25-03_094959634447_rgbf000150-resize_3/002989_2014-06-15_12-25-03_094959634447_rgbf000150-resize_3-target.png,125,4.1975,1,2425,124,feet,jsons/VE125_randls_68_rotated.json,666888,1228709,30,Woman
107,368455,DepthScenes,duration_manipulation_targetAtFixation,jsons/VE125_randls_68_rotated.json,http://54.235.29.9/FacialAge/BNav_EC2/DepthDuration/v2_depth_duration_MTurk/v2_DepthDuration_HTML.html#88,88,1364,768,1364,768,9-4-2022,10-14-25,108,depth_duration_stimuli/002545_2014-06-24_13-38-53_094959634447_rgbf000080-resize_4/002545_2014-06-24_13-38-53_094959634447_rgbf000080-resize_4-target.png,125,1.9205,3,2938,124,feet,jsons/VE125_randls_68_rotated.json,666888,1228709,30,Woman
108,368455,DepthScenes,duration_manipulation_targetAtFixation,jsons/VE125_randls_68_rotated.json,http://54.235.29.9/FacialAge/BNav_EC2/DepthDuration/v2_depth_duration_MTurk/v2_DepthDuration_HTML.html#88,88,1364,768,1364,768,9-4-2022,10-14-25,109,depth_duration_stimuli/001092_2014-06-15_17-34-58_260595134347_rgbf000171-resize_3/001092_2014-06-15_17-34-58_260595134347_rgbf000171-resize_3-target.png,125,2.6935,3,3204,208,feet,jsons/VE125_randls_68_rotated.json,666888,1228709,30,Woman
109,368455,DepthScenes,duration_manipulation_targetAtFixation,jsons/VE125_randls_68_rotated.json,http://54.235.29.9/FacialAge/BNav_EC2/DepthDuration/v2_depth_duration_MTurk/v2_DepthDuration_HTML.html#88,88,1364,768,1364,768,9-4-2022,10-14-25,110,depth_duration_stimuli/001214_2014-06-17_16-13-55_260595134347_rgbf000111-resize_0/001214_2014-06-17_16-13-55_260595134347_rgbf000111-resize_0-target.png,125,2.6505,4,3321,125,feet,jsons/VE125_randls_68_rotated.json,666888,1228709,30,Woman
110,368455,DepthScenes,duration_manipulation_targetAtFixation,jsons/VE125_randls_68_rotated.json,http://54.235.29.9/FacialAge/BNav_EC2/DepthDuration/v2_depth_duration_MTurk/v2_DepthDuration_HTML.html#88,88,1364,768,1364,768,9-4-2022,10-14-25,111,depth_duration_stimuli/000810_2014-06-08_17-20-01_260595134347_rgbf000105-resize_0/000810_2014-06-08_17-20-01_260595134347_rgbf000105-resize_0-target.png,125,1.4865,3,2067,124,feet,jsons/VE125_randls_68_rotated.json,666888,1228709,30,Woman
111,368455,DepthScenes,duration_manipulation_targetAtFixation,jsons/VE125_randls_68_rotated.json,http://54.235.29.9/FacialAge/BNav_EC2/DepthDuration/v2_depth_duration_MTurk/v2_DepthDuration_HTML.html#88,88,1364,768,1364,768,9-4-2022,10-14-25,112,depth_duration_stimuli/000549_2014-06-08_22-10-24_260595134347_rgbf000247-resize_3/000549_2014-06-08_22-10-24_260595134347_rgbf000247-resize_3-target.png,125,1.841,2,4020,126,feet,jsons/VE125_randls_68_rotated.json,666888,1228709,30,Woman
112,368455,DepthScenes,duration_manipulation_targetAtFixation,jsons/VE125_randls_68_rotated.json,http://54.235.29.9/FacialAge/BNav_EC2/DepthDuration/v2_depth_duration_MTurk/v2_DepthDuration_HTML.html#88,88,1364,768,1364,768,9-4-2022,10-14-25,113,depth_duration_stimuli/001055_2014-06-08_18-45-35_260595134347_rgbf000111-resize_4/001055_2014-06-08_18-45-35_260595134347_rgbf000111-resize_4-target.png,125,2.4290000000000003,3,3323,126,feet,jsons/VE125_randls_68_rotated.json,666888,1228709,30,Woman
113,368455,DepthScenes,duration_manipulation_targetAtFixation,jsons/VE125_randls_68_rotated.json,http://54.235.29.9/FacialAge/BNav_EC2/DepthDuration/v2_depth_duration_MTurk/v2_DepthDuration_HTML.html#88,88,1364,768,1364,768,9-4-2022,10-14-25,114,depth_duration_stimuli/000483_2014-06-09_20-41-45_260595134347_rgbf000116-resize_4/000483_2014-06-09_20-41-45_260595134347_rgbf000116-resize_4-target.png,125,1.337,2,3063,123,feet,jsons/VE125_randls_68_rotated.json,666888,1228709,30,Woman
114,368455,DepthScenes,duration_manipulation_targetAtFixation,jsons/VE125_randls_68_rotated.json,http://54.235.29.9/FacialAge/BNav_EC2/DepthDuration/v2_depth_duration_MTurk/v2_DepthDuration_HTML.html#88,88,1364,768,1364,768,9-4-2022,10-14-25,115,depth_duration_stimuli/000469_2014-06-09_19-42-10_260595134347_rgbf000081-resize_1/000469_2014-06-09_19-42-10_260595134347_rgbf000081-resize_1-target.png,125,1.652,3,1837,126,feet,jsons/VE125_randls_68_rotated.json,666888,1228709,30,Woman
115,368455,DepthScenes,duration_manipulation_targetAtFixation,jsons/VE125_randls_68_rotated.json,http://54.235.29.9/FacialAge/BNav_EC2/DepthDuration/v2_depth_duration_MTurk/v2_DepthDuration_HTML.html#88,88,1364,768,1364,768,9-4-2022,10-14-25,116,depth_duration_stimuli/000749_2014-06-08_21-55-06_260595134347_rgbf000070-resize_2/000749_2014-06-08_21-55-06_260595134347_rgbf000070-resize_2-target.png,125,2.331,5,2208,124,feet,jsons/VE125_randls_68_rotated.json,666888,1228709,30,Woman
116,368455,DepthScenes,duration_manipulation_targetAtFixation,jsons/VE125_randls_68_rotated.json,http://54.235.29.9/FacialAge/BNav_EC2/DepthDuration/v2_depth_duration_MTurk/v2_DepthDuration_HTML.html#88,88,1364,768,1364,768,9-4-2022,10-14-25,117,depth_duration_stimuli/002788_2014-06-22_19-36-03_094959634447_rgbf000088-resize_2/002788_2014-06-22_19-36-03_094959634447_rgbf000088-resize_2-target.png,125,1.6465,3,2387,123,feet,jsons/VE125_randls_68_rotated.json,666888,1228709,30,Woman
117,368455,DepthScenes,duration_manipulation_targetAtFixation,jsons/VE125_randls_68_rotated.json,http://54.235.29.9/FacialAge/BNav_EC2/DepthDuration/v2_depth_duration_MTurk/v2_DepthDuration_HTML.html#88,88,1364,768,1364,768,9-4-2022,10-14-25,118,depth_duration_stimuli/001032_2014-06-08_13-23-17_260595134347_rgbf000021-resize_3/001032_2014-06-08_13-23-17_260595134347_rgbf000021-resize_3-target.png,125,3.2725,3,2737,124,feet,jsons/VE125_randls_68_rotated.json,666888,1228709,30,Woman
118,368455,DepthScenes,duration_manipulation_targetAtFixation,jsons/VE125_randls_68_rotated.json,http://54.235.29.9/FacialAge/BNav_EC2/DepthDuration/v2_depth_duration_MTurk/v2_DepthDuration_HTML.html#88,88,1364,768,1364,768,9-4-2022,10-14-25,119,depth_duration_stimuli/001059_2014-06-08_21-53-27_260595134347_rgbf000061-resize_4/001059_2014-06-08_21-53-27_260595134347_rgbf000061-resize_4-target.png,125,2.4185,4,2274,123,feet,jsons/VE125_randls_68_rotated.json,666888,1228709,30,Woman
119,368455,DepthScenes,duration_manipulation_targetAtFixation,jsons/VE125_randls_68_rotated.json,http://54.235.29.9/FacialAge/BNav_EC2/DepthDuration/v2_depth_duration_MTurk/v2_DepthDuration_HTML.html#88,88,1364,768,1364,768,9-4-2022,10-14-25,120,depth_duration_stimuli/000787_2014-06-08_22-33-53_260595134347_rgbf000175-resize_1/000787_2014-06-08_22-33-53_260595134347_rgbf000175-resize-original.jpg,125,4.784,0,2034,124,feet,jsons/VE125_randls_68_rotated.json,666888,1228709,30,Woman
120,368455,DepthScenes,duration_manipulation_targetAtFixation,jsons/VE125_randls_68_rotated.json,http://54.235.29.9/FacialAge/BNav_EC2/DepthDuration/v2_depth_duration_MTurk/v2_DepthDuration_HTML.html#88,88,1364,768,1364,768,9-4-2022,10-14-25,121,depth_duration_stimuli/002209_2014-06-28_18-36-10_260595134347_rgbf000051-resize_1/002209_2014-06-28_18-36-10_260595134347_rgbf000051-resize_1-target.png,125,2.057,3,3139,125,feet,jsons/VE125_randls_68_rotated.json,666888,1228709,30,Woman
121,368455,DepthScenes,duration_manipulation_targetAtFixation,jsons/VE125_randls_68_rotated.json,http://54.235.29.9/FacialAge/BNav_EC2/DepthDuration/v2_depth_duration_MTurk/v2_DepthDuration_HTML.html#88,88,1364,768,1364,768,9-4-2022,10-14-25,122,depth_duration_stimuli/002763_2014-06-22_19-13-10_094959634447_rgbf000075-resize_4/002763_2014-06-22_19-13-10_094959634447_rgbf000075-resize_4-target.png,125,1.68375,4,2469,125,feet,jsons/VE125_randls_68_rotated.json,666888,1228709,30,Woman
122,368455,DepthScenes,duration_manipulation_targetAtFixation,jsons/VE125_randls_68_rotated.json,http://54.235.29.9/FacialAge/BNav_EC2/DepthDuration/v2_depth_duration_MTurk/v2_DepthDuration_HTML.html#88,88,1364,768,1364,768,9-4-2022,10-14-25,123,depth_duration_stimuli/001235_2014-06-17_16-37-36_260595134347_rgbf000084-resize_4/001235_2014-06-17_16-37-36_260595134347_rgbf000084-resize_4-target.png,125,3.6605,5,2286,125,feet,jsons/VE125_randls_68_rotated.json,666888,1228709,30,Woman
123,368455,DepthScenes,duration_manipulation_targetAtFixation,jsons/VE125_randls_68_rotated.json,http://54.235.29.9/FacialAge/BNav_EC2/DepthDuration/v2_depth_duration_MTurk/v2_DepthDuration_HTML.html#88,88,1364,768,1364,768,9-4-2022,10-14-25,124,depth_duration_stimuli/000788_2014-06-08_22-34-36_260595134347_rgbf000131-resize_1/000788_2014-06-08_22-34-36_260595134347_rgbf000131-resize_1-target.png,125,3.359,0,1890,123,feet,jsons/VE125_randls_68_rotated.json,666888,1228709,30,Woman
124,368455,DepthScenes,duration_manipulation_targetAtFixation,jsons/VE125_randls_68_rotated.json,http://54.235.29.9/FacialAge/BNav_EC2/DepthDuration/v2_depth_duration_MTurk/v2_DepthDuration_HTML.html#88,88,1364,768,1364,768,9-4-2022,10-14-25,125,depth_duration_stimuli/002425_2014-06-28_20-27-29_260595134347_rgbf000031-resize_8/002425_2014-06-28_20-27-29_260595134347_rgbf000031-resize_8-target.png,125,3.8960000000000004,8,3114,125,feet,jsons/VE125_randls_68_rotated.json,666888,1228709,30,Woman
125,368455,DepthScenes,duration_manipulation_targetAtFixation,jsons/VE125_randls_68_rotated.json,http://54.235.29.9/FacialAge/BNav_EC2/DepthDuration/v2_depth_duration_MTurk/v2_DepthDuration_HTML.html#88,88,1364,768,1364,768,9-4-2022,10-14-25,126,depth_duration_stimuli/000642_2014-06-08_16-59-25_260595134347_rgbf000098-resize_2/000642_2014-06-08_16-59-25_260595134347_rgbf000098-resize_2-target.png,125,2.8815,2,2123,124,feet,jsons/VE125_randls_68_rotated.json,666888,1228709,30,Woman
126,368455,DepthScenes,duration_manipulation_targetAtFixation,jsons/VE125_randls_68_rotated.json,http://54.235.29.9/FacialAge/BNav_EC2/DepthDuration/v2_depth_duration_MTurk/v2_DepthDuration_HTML.html#88,88,1364,768,1364,768,9-4-2022,10-14-25,127,depth_duration_stimuli/001828_2014-06-26_21-40-03_260595134347_rgbf000024-resize_0/001828_2014-06-26_21-40-03_260595134347_rgbf000024-resize_0-target.png,125,4.8260000000000005,8,2564,123,feet,jsons/VE125_randls_68_rotated.json,666888,1228709,30,Woman
127,368455,DepthScenes,duration_manipulation_targetAtFixation,jsons/VE125_randls_68_rotated.json,http://54.235.29.9/FacialAge/BNav_EC2/DepthDuration/v2_depth_duration_MTurk/v2_DepthDuration_HTML.html#88,88,1364,768,1364,768,9-4-2022,10-14-25,128,depth_duration_stimuli/000009_2014-05-26_14-32-05_260595134347_rgbf000034-resize_3/000009_2014-05-26_14-32-05_260595134347_rgbf000034-resize_3-target.png,125,3.8715,1,1817,125,feet,jsons/VE125_randls_68_rotated.json,666888,1228709,30,Woman
128,368455,DepthScenes,duration_manipulation_targetAtFixation,jsons/VE125_randls_68_rotated.json,http://54.235.29.9/FacialAge/BNav_EC2/DepthDuration/v2_depth_duration_MTurk/v2_DepthDuration_HTML.html#88,88,1364,768,1364,768,9-4-2022,10-14-25,129,depth_duration_stimuli/000780_2014-06-08_22-28-29_260595134347_rgbf000126-resize_1/000780_2014-06-08_22-28-29_260595134347_rgbf000126-resize_1-target.png,125,3.3825,3,23537,125,feet,jsons/VE125_randls_68_rotated.json,666888,1228709,30,Woman
129,368455,DepthScenes,duration_manipulation_targetAtFixation,jsons/VE125_randls_68_rotated.json,http://54.235.29.9/FacialAge/BNav_EC2/DepthDuration/v2_depth_duration_MTurk/v2_DepthDuration_HTML.html#88,88,1364,768,1364,768,9-4-2022,10-14-25,130,depth_duration_stimuli/002445_2014-06-28_20-32-16_260595134347_rgbf000029-resize_4/002445_2014-06-28_20-32-16_260595134347_rgbf000029-resize_4-target.png,125,2.5315,3,2909,125,feet,jsons/VE125_randls_68_rotated.json,666888,1228709,30,Woman
130,368455,DepthScenes,duration_manipulation_targetAtFixation,jsons/VE125_randls_68_rotated.json,http://54.235.29.9/FacialAge/BNav_EC2/DepthDuration/v2_depth_duration_MTurk/v2_DepthDuration_HTML.html#88,88,1364,768,1364,768,9-4-2022,10-14-25,131,depth_duration_stimuli/003423_2014-05-21_10-23-26_094959634447_rgbf002665-resize_2/003423_2014-05-21_10-23-26_094959634447_rgbf002665-resize_2-target.png,125,3.2575,8,3314,124,feet,jsons/VE125_randls_68_rotated.json,666888,1228709,30,Woman
131,368455,DepthScenes,duration_manipulation_targetAtFixation,jsons/VE125_randls_68_rotated.json,http://54.235.29.9/FacialAge/BNav_EC2/DepthDuration/v2_depth_duration_MTurk/v2_DepthDuration_HTML.html#88,88,1364,768,1364,768,9-4-2022,10-14-25,132,depth_duration_stimuli/002905_2014-06-03_18-04-43_094959634447_rgbf000151-resize_2/002905_2014-06-03_18-04-43_094959634447_rgbf000151-resize_2-target.png,125,2.0295,3,2458,125,feet,jsons/VE125_randls_68_rotated.json,666888,1228709,30,Woman
132,368455,DepthScenes,duration_manipulation_targetAtFixation,jsons/VE125_randls_68_rotated.json,http://54.235.29.9/FacialAge/BNav_EC2/DepthDuration/v2_depth_duration_MTurk/v2_DepthDuration_HTML.html#88,88,1364,768,1364,768,9-4-2022,10-14-25,133,depth_duration_stimuli/001450_2014-06-19_17-02-03_260595134347_rgbf000203-resize_4/001450_2014-06-19_17-02-03_260595134347_rgbf000203-resize_4-target.png,125,4.0106666666667,3,2415,125,feet,jsons/VE125_randls_68_rotated.json,666888,1228709,30,Woman
133,368455,DepthScenes,duration_manipulation_targetAtFixation,jsons/VE125_randls_68_rotated.json,http://54.235.29.9/FacialAge/BNav_EC2/DepthDuration/v2_depth_duration_MTurk/v2_DepthDuration_HTML.html#88,88,1364,768,1364,768,9-4-2022,10-14-25,134,depth_duration_stimuli/001449_2014-06-19_17-01-27_260595134347_rgbf000116-resize_2/001449_2014-06-19_17-01-27_260595134347_rgbf000116-resize_2-target.png,125,3.452,5,2440,124,feet,jsons/VE125_randls_68_rotated.json,666888,1228709,30,Woman
134,368455,DepthScenes,duration_manipulation_targetAtFixation,jsons/VE125_randls_68_rotated.json,http://54.235.29.9/FacialAge/BNav_EC2/DepthDuration/v2_depth_duration_MTurk/v2_DepthDuration_HTML.html#88,88,1364,768,1364,768,9-4-2022,10-14-25,135,depth_duration_stimuli/000375_2014-06-08_11-17-29_260595134347_rgbf000133-resize_2/000375_2014-06-08_11-17-29_260595134347_rgbf000133-resize-original.jpg,125,4.718,0,1858,124,feet,jsons/VE125_randls_68_rotated.json,666888,1228709,30,Woman
135,368455,DepthScenes,duration_manipulation_targetAtFixation,jsons/VE125_randls_68_rotated.json,http://54.235.29.9/FacialAge/BNav_EC2/DepthDuration/v2_depth_duration_MTurk/v2_DepthDuration_HTML.html#88,88,1364,768,1364,768,9-4-2022,10-14-25,136,depth_duration_stimuli/001392_2014-06-19_16-07-59_260595134347_rgbf000046-resize_1/001392_2014-06-19_16-07-59_260595134347_rgbf000046-resize_1-target.png,125,4.135,8,1969,106,feet,jsons/VE125_randls_68_rotated.json,666888,1228709,30,Woman
136,368455,DepthScenes,duration_manipulation_targetAtFixation,jsons/VE125_randls_68_rotated.json,http://54.235.29.9/FacialAge/BNav_EC2/DepthDuration/v2_depth_duration_MTurk/v2_DepthDuration_HTML.html#88,88,1364,768,1364,768,9-4-2022,10-14-25,137,depth_duration_stimuli/001570_2014-06-20_17-21-09_260595134347_rgbf000135-resize_4/001570_2014-06-20_17-21-09_260595134347_rgbf000135-resize_4-target.png,125,4.467,2,2284,125,feet,jsons/VE125_randls_68_rotated.json,666888,1228709,30,Woman
137,368455,DepthScenes,duration_manipulation_targetAtFixation,jsons/VE125_randls_68_rotated.json,http://54.235.29.9/FacialAge/BNav_EC2/DepthDuration/v2_depth_duration_MTurk/v2_DepthDuration_HTML.html#88,88,1364,768,1364,768,9-4-2022,10-14-25,138,depth_duration_stimuli/002750_2014-06-22_19-08-03_094959634447_rgbf000094-resize_4/002750_2014-06-22_19-08-03_094959634447_rgbf000094-resize_4-target.png,125,2.354,5,1865,125,feet,jsons/VE125_randls_68_rotated.json,666888,1228709,30,Woman
138,368455,DepthScenes,duration_manipulation_targetAtFixation,jsons/VE125_randls_68_rotated.json,http://54.235.29.9/FacialAge/BNav_EC2/DepthDuration/v2_depth_duration_MTurk/v2_DepthDuration_HTML.html#88,88,1364,768,1364,768,9-4-2022,10-14-25,139,depth_duration_stimuli/002549_2014-06-24_13-41-39_094959634447_rgbf000022-resize_3/002549_2014-06-24_13-41-39_094959634447_rgbf000022-resize_3-target.png,125,1.476,3,2110,126,feet,jsons/VE125_randls_68_rotated.json,666888,1228709,30,Woman
139,368455,DepthScenes,duration_manipulation_targetAtFixation,jsons/VE125_randls_68_rotated.json,http://54.235.29.9/FacialAge/BNav_EC2/DepthDuration/v2_depth_duration_MTurk/v2_DepthDuration_HTML.html#88,88,1364,768,1364,768,9-4-2022,10-14-25,140,depth_duration_stimuli/002805_2014-06-22_19-54-03_094959634447_rgbf000079-resize_1/002805_2014-06-22_19-54-03_094959634447_rgbf000079-resize_1-target.png,125,3.1439999999999997,6,2360,118,feet,jsons/VE125_randls_68_rotated.json,666888,1228709,30,Woman
140,368455,DepthScenes,duration_manipulation_targetAtFixation,jsons/VE125_randls_68_rotated.json,http://54.235.29.9/FacialAge/BNav_EC2/DepthDuration/v2_depth_duration_MTurk/v2_DepthDuration_HTML.html#88,88,1364,768,1364,768,9-4-2022,10-14-25,141,depth_duration_stimuli/000906_2014-06-08_13-35-43_260595134347_rgbf000155-resize_1/000906_2014-06-08_13-35-43_260595134347_rgbf000155-resize_1-target.png,125,2.8489999999999998,2,1666,125,feet,jsons/VE125_randls_68_rotated.json,666888,1228709,30,Woman
141,368455,DepthScenes,duration_manipulation_targetAtFixation,jsons/VE125_randls_68_rotated.json,http://54.235.29.9/FacialAge/BNav_EC2/DepthDuration/v2_depth_duration_MTurk/v2_DepthDuration_HTML.html#88,88,1364,768,1364,768,9-4-2022,10-14-25,142,depth_duration_stimuli/001815_2014-06-26_20-52-55_260595134347_rgbf000020-resize_0/001815_2014-06-26_20-52-55_260595134347_rgbf000020-resize_0-target.png,125,3.3865,4,2320,125,feet,jsons/VE125_randls_68_rotated.json,666888,1228709,30,Woman
142,368455,DepthScenes,duration_manipulation_targetAtFixation,jsons/VE125_randls_68_rotated.json,http://54.235.29.9/FacialAge/BNav_EC2/DepthDuration/v2_depth_duration_MTurk/v2_DepthDuration_HTML.html#88,88,1364,768,1364,768,9-4-2022,10-14-25,143,depth_duration_stimuli/001808_2014-06-26_20-50-58_260595134347_rgbf000029-resize_1/001808_2014-06-26_20-50-58_260595134347_rgbf000029-resize_1-target.png,125,4.249,5,2541,122,feet,jsons/VE125_randls_68_rotated.json,666888,1228709,30,Woman
143,368455,DepthScenes,duration_manipulation_targetAtFixation,jsons/VE125_randls_68_rotated.json,http://54.235.29.9/FacialAge/BNav_EC2/DepthDuration/v2_depth_duration_MTurk/v2_DepthDuration_HTML.html#88,88,1364,768,1364,768,9-4-2022,10-14-25,144,depth_duration_stimuli/000191_2014-05-12_17-07-38_260595134347_rgbf000199-resize_0/000191_2014-05-12_17-07-38_260595134347_rgbf000199-resize_0-target.png,125,3.7995,6,2016,127,feet,jsons/VE125_randls_68_rotated.json,666888,1228709,30,Woman
144,368455,DepthScenes,duration_manipulation_targetAtFixation,jsons/VE125_randls_68_rotated.json,http://54.235.29.9/FacialAge/BNav_EC2/DepthDuration/v2_depth_duration_MTurk/v2_DepthDuration_HTML.html#88,88,1364,768,1364,768,9-4-2022,10-14-25,145,depth_duration_stimuli/000493_2014-06-09_21-01-18_260595134347_rgbf000196-resize_3/000493_2014-06-09_21-01-18_260595134347_rgbf000196-resize_3-target.png,125,3.44,3,2702,123,feet,jsons/VE125_randls_68_rotated.json,666888,1228709,30,Woman
145,368455,DepthScenes,duration_manipulation_targetAtFixation,jsons/VE125_randls_68_rotated.json,http://54.235.29.9/FacialAge/BNav_EC2/DepthDuration/v2_depth_duration_MTurk/v2_DepthDuration_HTML.html#88,88,1364,768,1364,768,9-4-2022,10-14-25,146,depth_duration_stimuli/000502_2014-06-08_23-02-32_260595134347_rgbf000063-resize_4/000502_2014-06-08_23-02-32_260595134347_rgbf000063-resize_4-target.png,125,2.431,4,2415,127,feet,jsons/VE125_randls_68_rotated.json,666888,1228709,30,Woman
146,368455,DepthScenes,duration_manipulation_targetAtFixation,jsons/VE125_randls_68_rotated.json,http://54.235.29.9/FacialAge/BNav_EC2/DepthDuration/v2_depth_duration_MTurk/v2_DepthDuration_HTML.html#88,88,1364,768,1364,768,9-4-2022,10-14-25,147,depth_duration_stimuli/001199_2014-06-17_16-03-48_260595134347_rgbf000077-resize_0/001199_2014-06-17_16-03-48_260595134347_rgbf000077-resize_0-target.png,125,3.4375,3,1633,16,feet,jsons/VE125_randls_68_rotated.json,666888,1228709,30,Woman
147,368455,DepthScenes,duration_manipulation_targetAtFixation,jsons/VE125_randls_68_rotated.json,http://54.235.29.9/FacialAge/BNav_EC2/DepthDuration/v2_depth_duration_MTurk/v2_DepthDuration_HTML.html#88,88,1364,768,1364,768,9-4-2022,10-14-25,148,depth_duration_stimuli/000709_2014-06-08_13-51-55_260595134347_rgbf000068-resize_3/000709_2014-06-08_13-51-55_260595134347_rgbf000068-resize_3-target.png,125,1.8030000000000002,3,2633,133,feet,jsons/VE125_randls_68_rotated.json,666888,1228709,30,Woman
148,368455,DepthScenes,duration_manipulation_targetAtFixation,jsons/VE125_randls_68_rotated.json,http://54.235.29.9/FacialAge/BNav_EC2/DepthDuration/v2_depth_duration_MTurk/v2_DepthDuration_HTML.html#88,88,1364,768,1364,768,9-4-2022,10-14-25,149,depth_duration_stimuli/002057_2014-06-24_21-00-13_260595134347_rgbf000120-resize_1/002057_2014-06-24_21-00-13_260595134347_rgbf000120-resize_1-target.png,125,2.967,4,2132,124,feet,jsons/VE125_randls_68_rotated.json,666888,1228709,30,Woman
149,368455,DepthScenes,duration_manipulation_targetAtFixation,jsons/VE125_randls_68_rotated.json,http://54.235.29.9/FacialAge/BNav_EC2/DepthDuration/v2_depth_duration_MTurk/v2_DepthDuration_HTML.html#88,88,1364,768,1364,768,9-4-2022,10-14-25,150,depth_duration_stimuli/001136_2014-06-17_15-19-41_260595134347_rgbf000076-resize_3/001136_2014-06-17_15-19-41_260595134347_rgbf000076-resize_3-target.png,125,1.8655,5,1940,126,feet,jsons/VE125_randls_68_rotated.json,666888,1228709,30,Woman
150,368455,DepthScenes,duration_manipulation_targetAtFixation,jsons/VE125_randls_68_rotated.json,http://54.235.29.9/FacialAge/BNav_EC2/DepthDuration/v2_depth_duration_MTurk/v2_DepthDuration_HTML.html#88,88,1364,768,1364,768,9-4-2022,10-14-25,151,depth_duration_stimuli/001164_2014-06-17_15-35-46_260595134347_rgbf000085-resize_3/001164_2014-06-17_15-35-46_260595134347_rgbf000085-resize_3-target.png,125,2.354,3,2339,123,feet,jsons/VE125_randls_68_rotated.json,666888,1228709,30,Woman
151,368455,DepthScenes,duration_manipulation_targetAtFixation,jsons/VE125_randls_68_rotated.json,http://54.235.29.9/FacialAge/BNav_EC2/DepthDuration/v2_depth_duration_MTurk/v2_DepthDuration_HTML.html#88,88,1364,768,1364,768,9-4-2022,10-14-25,152,depth_duration_stimuli/000569_2014-06-09_22-51-47_260595134347_rgbf000141-resize_3/000569_2014-06-09_22-51-47_260595134347_rgbf000141-resize-original.jpg,125,4.512,0,2051,124,feet,jsons/VE125_randls_68_rotated.json,666888,1228709,30,Woman
152,368455,DepthScenes,duration_manipulation_targetAtFixation,jsons/VE125_randls_68_rotated.json,http://54.235.29.9/FacialAge/BNav_EC2/DepthDuration/v2_depth_duration_MTurk/v2_DepthDuration_HTML.html#88,88,1364,768,1364,768,9-4-2022,10-14-25,153,depth_duration_stimuli/003081_2014-06-15_15-19-16_094959634447_rgbf000150-resize_1/003081_2014-06-15_15-19-16_094959634447_rgbf000150-resize_1-target.png,125,3.9125,6,2217,125,feet,jsons/VE125_randls_68_rotated.json,666888,1228709,30,Woman
153,368455,DepthScenes,duration_manipulation_targetAtFixation,jsons/VE125_randls_68_rotated.json,http://54.235.29.9/FacialAge/BNav_EC2/DepthDuration/v2_depth_duration_MTurk/v2_DepthDuration_HTML.html#88,88,1364,768,1364,768,9-4-2022,10-14-25,154,depth_duration_stimuli/001417_2014-06-19_16-25-36_260595134347_rgbf000115-resize_5/001417_2014-06-19_16-25-36_260595134347_rgbf000115-resize_5-target.png,125,4.6255,5,2068,126,feet,jsons/VE125_randls_68_rotated.json,666888,1228709,30,Woman
154,368455,DepthScenes,duration_manipulation_targetAtFixation,jsons/VE125_randls_68_rotated.json,http://54.235.29.9/FacialAge/BNav_EC2/DepthDuration/v2_depth_duration_MTurk/v2_DepthDuration_HTML.html#88,88,1364,768,1364,768,9-4-2022,10-14-25,155,depth_duration_stimuli/000854_2014-06-09_19-43-13_260595134347_rgbf000066-resize_0/000854_2014-06-09_19-43-13_260595134347_rgbf000066-resize_0-target.png,125,3.068,3,11644,125,feet,jsons/VE125_randls_68_rotated.json,666888,1228709,30,Woman
155,368455,DepthScenes,duration_manipulation_targetAtFixation,jsons/VE125_randls_68_rotated.json,http://54.235.29.9/FacialAge/BNav_EC2/DepthDuration/v2_depth_duration_MTurk/v2_DepthDuration_HTML.html#88,88,1364,768,1364,768,9-4-2022,10-14-25,156,depth_duration_stimuli/000758_2014-06-08_22-05-08_260595134347_rgbf000085-resize_0/000758_2014-06-08_22-05-08_260595134347_rgbf000085-resize_0-target.png,125,3.3810000000000002,3,4080,125,feet,jsons/VE125_randls_68_rotated.json,666888,1228709,30,Woman
156,368455,DepthScenes,duration_manipulation_targetAtFixation,jsons/VE125_randls_68_rotated.json,http://54.235.29.9/FacialAge/BNav_EC2/DepthDuration/v2_depth_duration_MTurk/v2_DepthDuration_HTML.html#88,88,1364,768,1364,768,9-4-2022,10-14-25,157,depth_duration_stimuli/003010_2014-06-15_12-54-35_094959634447_rgbf000112-resize_0/003010_2014-06-15_12-54-35_094959634447_rgbf000112-resize_0-target.png,125,3.1185,5,4682,125,feet,jsons/VE125_randls_68_rotated.json,666888,1228709,30,Woman
157,368455,DepthScenes,duration_manipulation_targetAtFixation,jsons/VE125_randls_68_rotated.json,http://54.235.29.9/FacialAge/BNav_EC2/DepthDuration/v2_depth_duration_MTurk/v2_DepthDuration_HTML.html#88,88,1364,768,1364,768,9-4-2022,10-14-25,158,depth_duration_stimuli/001810_2014-06-26_20-51-35_260595134347_rgbf000040-resize_3/001810_2014-06-26_20-51-35_260595134347_rgbf000040-resize_3-target.png,125,2.2525,6,2426,125,feet,jsons/VE125_randls_68_rotated.json,666888,1228709,30,Woman
158,368455,DepthScenes,duration_manipulation_targetAtFixation,jsons/VE125_randls_68_rotated.json,http://54.235.29.9/FacialAge/BNav_EC2/DepthDuration/v2_depth_duration_MTurk/v2_DepthDuration_HTML.html#88,88,1364,768,1364,768,9-4-2022,10-14-25,159,depth_duration_stimuli/000943_2014-06-09_19-31-07_260595134347_rgbf000128-resize_1/000943_2014-06-09_19-31-07_260595134347_rgbf000128-resize_1-target.png,125,1.9765,3,2863,123,feet,jsons/VE125_randls_68_rotated.json,666888,1228709,30,Woman
159,368455,DepthScenes,duration_manipulation_targetAtFixation,jsons/VE125_randls_68_rotated.json,http://54.235.29.9/FacialAge/BNav_EC2/DepthDuration/v2_depth_duration_MTurk/v2_DepthDuration_HTML.html#88,88,1364,768,1364,768,9-4-2022,10-14-25,160,depth_duration_stimuli/003070_2014-06-15_14-58-27_094959634447_rgbf000150-resize_3/003070_2014-06-15_14-58-27_094959634447_rgbf000150-resize_3-target.png,125,2.9415,5,2028,177,feet,jsons/VE125_randls_68_rotated.json,666888,1228709,30,Woman
160,368455,DepthScenes,duration_manipulation_targetAtFixation,jsons/VE125_randls_68_rotated.json,http://54.235.29.9/FacialAge/BNav_EC2/DepthDuration/v2_depth_duration_MTurk/v2_DepthDuration_HTML.html#88,88,1364,768,1364,768,9-4-2022,10-14-25,161,depth_duration_stimuli/003587_2014-05-23_16-48-02_094959634447_rgbf002384-resize_2/003587_2014-05-23_16-48-02_094959634447_rgbf002384-resize_2-target.png,125,1.357,2,2551,123,feet,jsons/VE125_randls_68_rotated.json,666888,1228709,30,Woman
161,368455,DepthScenes,duration_manipulation_targetAtFixation,jsons/VE125_randls_68_rotated.json,http://54.235.29.9/FacialAge/BNav_EC2/DepthDuration/v2_depth_duration_MTurk/v2_DepthDuration_HTML.html#88,88,1364,768,1364,768,9-4-2022,10-14-25,162,depth_duration_stimuli/001167_2014-06-17_15-38-07_260595134347_rgbf000108-resize_0/001167_2014-06-17_15-38-07_260595134347_rgbf000108-resize_0-target.png,125,1.8505,1,3094,123,feet,jsons/VE125_randls_68_rotated.json,666888,1228709,30,Woman
162,368455,DepthScenes,duration_manipulation_targetAtFixation,jsons/VE125_randls_68_rotated.json,http://54.235.29.9/FacialAge/BNav_EC2/DepthDuration/v2_depth_duration_MTurk/v2_DepthDuration_HTML.html#88,88,1364,768,1364,768,9-4-2022,10-14-25,163,depth_duration_stimuli/002949_2014-06-26_15-57-42_094959634447_rgbf000079-resize_1/002949_2014-06-26_15-57-42_094959634447_rgbf000079-resize_1-target.png,125,1.8915,3,2338,126,feet,jsons/VE125_randls_68_rotated.json,666888,1228709,30,Woman
163,368455,DepthScenes,duration_manipulation_targetAtFixation,jsons/VE125_randls_68_rotated.json,http://54.235.29.9/FacialAge/BNav_EC2/DepthDuration/v2_depth_duration_MTurk/v2_DepthDuration_HTML.html#88,88,1364,768,1364,768,9-4-2022,10-14-25,164,depth_duration_stimuli/000522_2014-06-08_13-35-06_260595134347_rgbf000244-resize_1/000522_2014-06-08_13-35-06_260595134347_rgbf000244-resize_1-target.png,125,2.3715,5,1873,124,feet,jsons/VE125_randls_68_rotated.json,666888,1228709,30,Woman
