,subjID,experimentName,versionName,sequenceName,url,selected_row,windowWidth,windowHeight,screenWidth,screenHeight,startDate,startTime,trial,stimulus,duration,actual_depth,depth_estimate,trial_RT,log_sceneDuration,unitSelection,seq_filepath,experimentTime,totalTime,age,gender
0,369540,DepthScenes,duration_manipulation_targetAtFixation,jsons/v1_VE1000_randls_0_rotated.json,http://54.235.29.9/FacialAge/BNav_EC2/DepthDuration/v2_depth_duration_MTurk/v2_DepthDuration_HTML.html#80,80,1364,768,1364,768,8-22-2022,5-36-29,1,depth_duration_stimuli/000854_2014-06-09_19-43-13_260595134347_rgbf000066-resize_0/000854_2014-06-09_19-43-13_260595134347_rgbf000066-resize_0-target.png,1000,3.068,2,8731,998,meters,jsons/v1_VE1000_randls_0_rotated.json,689956,814507,26,Man
1,369540,DepthScenes,duration_manipulation_targetAtFixation,jsons/v1_VE1000_randls_0_rotated.json,http://54.235.29.9/FacialAge/BNav_EC2/DepthDuration/v2_depth_duration_MTurk/v2_DepthDuration_HTML.html#80,80,1364,768,1364,768,8-22-2022,5-36-29,2,depth_duration_stimuli/000758_2014-06-08_22-05-08_260595134347_rgbf000085-resize_0/000758_2014-06-08_22-05-08_260595134347_rgbf000085-resize_0-target.png,1000,3.3810000000000002,2,2874,999,meters,jsons/v1_VE1000_randls_0_rotated.json,689956,814507,26,Man
2,369540,DepthScenes,duration_manipulation_targetAtFixation,jsons/v1_VE1000_randls_0_rotated.json,http://54.235.29.9/FacialAge/BNav_EC2/DepthDuration/v2_depth_duration_MTurk/v2_DepthDuration_HTML.html#80,80,1364,768,1364,768,8-22-2022,5-36-29,3,depth_duration_stimuli/002103_2014-06-25_20-00-40_260595134347_rgbf000049-resize_0/002103_2014-06-25_20-00-40_260595134347_rgbf000049-resize_0-target.png,1000,4.105,5,3298,999,meters,jsons/v1_VE1000_randls_0_rotated.json,689956,814507,26,Man
3,369540,DepthScenes,duration_manipulation_targetAtFixation,jsons/v1_VE1000_randls_0_rotated.json,http://54.235.29.9/FacialAge/BNav_EC2/DepthDuration/v2_depth_duration_MTurk/v2_DepthDuration_HTML.html#80,80,1364,768,1364,768,8-22-2022,5-36-29,4,depth_duration_stimuli/002039_2014-06-24_20-22-38_260595134347_rgbf000084-resize_1/002039_2014-06-24_20-22-38_260595134347_rgbf000084-resize_1-target.png,1000,4.408,1,4826,998,meters,jsons/v1_VE1000_randls_0_rotated.json,689956,814507,26,Man
4,369540,DepthScenes,duration_manipulation_targetAtFixation,jsons/v1_VE1000_randls_0_rotated.json,http://54.235.29.9/FacialAge/BNav_EC2/DepthDuration/v2_depth_duration_MTurk/v2_DepthDuration_HTML.html#80,80,1364,768,1364,768,8-22-2022,5-36-29,5,depth_duration_stimuli/000742_2014-06-08_18-48-09_260595134347_rgbf000164-resize_4/000742_2014-06-08_18-48-09_260595134347_rgbf000164-resize_4-target.png,1000,4.632,0,3057,999,meters,jsons/v1_VE1000_randls_0_rotated.json,689956,814507,26,Man
5,369540,DepthScenes,duration_manipulation_targetAtFixation,jsons/v1_VE1000_randls_0_rotated.json,http://54.235.29.9/FacialAge/BNav_EC2/DepthDuration/v2_depth_duration_MTurk/v2_DepthDuration_HTML.html#80,80,1364,768,1364,768,8-22-2022,5-36-29,6,depth_duration_stimuli/001066_2014-06-08_22-03-20_260595134347_rgbf000066-resize_4/001066_2014-06-08_22-03-20_260595134347_rgbf000066-resize_4-target.png,1000,4.2330000000000005,5,2819,1000,meters,jsons/v1_VE1000_randls_0_rotated.json,689956,814507,26,Man
6,369540,DepthScenes,duration_manipulation_targetAtFixation,jsons/v1_VE1000_randls_0_rotated.json,http://54.235.29.9/FacialAge/BNav_EC2/DepthDuration/v2_depth_duration_MTurk/v2_DepthDuration_HTML.html#80,80,1364,768,1364,768,8-22-2022,5-36-29,7,depth_duration_stimuli/002568_2014-06-24_13-59-21_094959634447_rgbf000062-resize_4/002568_2014-06-24_13-59-21_094959634447_rgbf000062-resize_4-target.png,1000,3.015,2,11121,999,meters,jsons/v1_VE1000_randls_0_rotated.json,689956,814507,26,Man
7,369540,DepthScenes,duration_manipulation_targetAtFixation,jsons/v1_VE1000_randls_0_rotated.json,http://54.235.29.9/FacialAge/BNav_EC2/DepthDuration/v2_depth_duration_MTurk/v2_DepthDuration_HTML.html#80,80,1364,768,1364,768,8-22-2022,5-36-29,8,depth_duration_stimuli/003492_2014-05-21_15-50-55_094959634447_rgbf000828-resize_1/003492_2014-05-21_15-50-55_094959634447_rgbf000828-resize_1-target.png,1000,4.06875,1,5176,998,meters,jsons/v1_VE1000_randls_0_rotated.json,689956,814507,26,Man
8,369540,DepthScenes,duration_manipulation_targetAtFixation,jsons/v1_VE1000_randls_0_rotated.json,http://54.235.29.9/FacialAge/BNav_EC2/DepthDuration/v2_depth_duration_MTurk/v2_DepthDuration_HTML.html#80,80,1364,768,1364,768,8-22-2022,5-36-29,9,depth_duration_stimuli/002637_2014-06-24_14-51-13_094959634447_rgbf000066-resize_4/002637_2014-06-24_14-51-13_094959634447_rgbf000066-resize_4-target.png,1000,1.9955,2,3012,1000,meters,jsons/v1_VE1000_randls_0_rotated.json,689956,814507,26,Man
9,369540,DepthScenes,duration_manipulation_targetAtFixation,jsons/v1_VE1000_randls_0_rotated.json,http://54.235.29.9/FacialAge/BNav_EC2/DepthDuration/v2_depth_duration_MTurk/v2_DepthDuration_HTML.html#80,80,1364,768,1364,768,8-22-2022,5-36-29,10,depth_duration_stimuli/003534_2014-05-22_15-06-10_094959634447_rgbf000102-resize_4/003534_2014-05-22_15-06-10_094959634447_rgbf000102-resize_4-target.png,1000,1.426,4,2698,1000,meters,jsons/v1_VE1000_randls_0_rotated.json,689956,814507,26,Man
10,369540,DepthScenes,duration_manipulation_targetAtFixation,jsons/v1_VE1000_randls_0_rotated.json,http://54.235.29.9/FacialAge/BNav_EC2/DepthDuration/v2_depth_duration_MTurk/v2_DepthDuration_HTML.html#80,80,1364,768,1364,768,8-22-2022,5-36-29,11,depth_duration_stimuli/000556_2014-06-09_22-42-56_260595134347_rgbf000214-resize_1/000556_2014-06-09_22-42-56_260595134347_rgbf000214-resize_1-target.png,1000,4.8415,5,3001,999,meters,jsons/v1_VE1000_randls_0_rotated.json,689956,814507,26,Man
11,369540,DepthScenes,duration_manipulation_targetAtFixation,jsons/v1_VE1000_randls_0_rotated.json,http://54.235.29.9/FacialAge/BNav_EC2/DepthDuration/v2_depth_duration_MTurk/v2_DepthDuration_HTML.html#80,80,1364,768,1364,768,8-22-2022,5-36-29,12,depth_duration_stimuli/001158_2014-06-17_15-32-16_260595134347_rgbf000138-resize_2/001158_2014-06-17_15-32-16_260595134347_rgbf000138-resize_2-target.png,1000,4.5315,0,4554,1000,meters,jsons/v1_VE1000_randls_0_rotated.json,689956,814507,26,Man
12,369540,DepthScenes,duration_manipulation_targetAtFixation,jsons/v1_VE1000_randls_0_rotated.json,http://54.235.29.9/FacialAge/BNav_EC2/DepthDuration/v2_depth_duration_MTurk/v2_DepthDuration_HTML.html#80,80,1364,768,1364,768,8-22-2022,5-36-29,13,depth_duration_stimuli/002545_2014-06-24_13-38-53_094959634447_rgbf000080-resize_4/002545_2014-06-24_13-38-53_094959634447_rgbf000080-resize_4-target.png,1000,1.9205,2,2762,999,meters,jsons/v1_VE1000_randls_0_rotated.json,689956,814507,26,Man
13,369540,DepthScenes,duration_manipulation_targetAtFixation,jsons/v1_VE1000_randls_0_rotated.json,http://54.235.29.9/FacialAge/BNav_EC2/DepthDuration/v2_depth_duration_MTurk/v2_DepthDuration_HTML.html#80,80,1364,768,1364,768,8-22-2022,5-36-29,14,depth_duration_stimuli/001092_2014-06-15_17-34-58_260595134347_rgbf000171-resize_3/001092_2014-06-15_17-34-58_260595134347_rgbf000171-resize_3-target.png,1000,2.6935,0,2242,998,meters,jsons/v1_VE1000_randls_0_rotated.json,689956,814507,26,Man
14,369540,DepthScenes,duration_manipulation_targetAtFixation,jsons/v1_VE1000_randls_0_rotated.json,http://54.235.29.9/FacialAge/BNav_EC2/DepthDuration/v2_depth_duration_MTurk/v2_DepthDuration_HTML.html#80,80,1364,768,1364,768,8-22-2022,5-36-29,15,depth_duration_stimuli/000191_2014-05-12_17-07-38_260595134347_rgbf000199-resize_0/000191_2014-05-12_17-07-38_260595134347_rgbf000199-resize_0-target.png,1000,3.7995,0,6211,1000,meters,jsons/v1_VE1000_randls_0_rotated.json,689956,814507,26,Man
15,369540,DepthScenes,duration_manipulation_targetAtFixation,jsons/v1_VE1000_randls_0_rotated.json,http://54.235.29.9/FacialAge/BNav_EC2/DepthDuration/v2_depth_duration_MTurk/v2_DepthDuration_HTML.html#80,80,1364,768,1364,768,8-22-2022,5-36-29,16,depth_duration_stimuli/000493_2014-06-09_21-01-18_260595134347_rgbf000196-resize_3/000493_2014-06-09_21-01-18_260595134347_rgbf000196-resize_3-target.png,1000,3.44,3,2648,999,meters,jsons/v1_VE1000_randls_0_rotated.json,689956,814507,26,Man
16,369540,DepthScenes,duration_manipulation_targetAtFixation,jsons/v1_VE1000_randls_0_rotated.json,http://54.235.29.9/FacialAge/BNav_EC2/DepthDuration/v2_depth_duration_MTurk/v2_DepthDuration_HTML.html#80,80,1364,768,1364,768,8-22-2022,5-36-29,17,depth_duration_stimuli/002444_2014-06-28_20-32-08_260595134347_rgbf000027-resize_0/002444_2014-06-28_20-32-08_260595134347_rgbf000027-resize_0-target.png,1000,4.388999999999999,2,2986,998,meters,jsons/v1_VE1000_randls_0_rotated.json,689956,814507,26,Man
17,369540,DepthScenes,duration_manipulation_targetAtFixation,jsons/v1_VE1000_randls_0_rotated.json,http://54.235.29.9/FacialAge/BNav_EC2/DepthDuration/v2_depth_duration_MTurk/v2_DepthDuration_HTML.html#80,80,1364,768,1364,768,8-22-2022,5-36-29,18,depth_duration_stimuli/000436_2014-06-09_22-25-11_260595134347_rgbf000137-resize_1/000436_2014-06-09_22-25-11_260595134347_rgbf000137-resize_1-target.png,1000,4.0705,5,2714,998,meters,jsons/v1_VE1000_randls_0_rotated.json,689956,814507,26,Man
18,369540,DepthScenes,duration_manipulation_targetAtFixation,jsons/v1_VE1000_randls_0_rotated.json,http://54.235.29.9/FacialAge/BNav_EC2/DepthDuration/v2_depth_duration_MTurk/v2_DepthDuration_HTML.html#80,80,1364,768,1364,768,8-22-2022,5-36-29,19,depth_duration_stimuli/001498_2014-06-19_17-45-14_260595134347_rgbf000129-resize_4/001498_2014-06-19_17-45-14_260595134347_rgbf000129-resize-original.jpg,1000,1.4075,1,3026,998,meters,jsons/v1_VE1000_randls_0_rotated.json,689956,814507,26,Man
19,369540,DepthScenes,duration_manipulation_targetAtFixation,jsons/v1_VE1000_randls_0_rotated.json,http://54.235.29.9/FacialAge/BNav_EC2/DepthDuration/v2_depth_duration_MTurk/v2_DepthDuration_HTML.html#80,80,1364,768,1364,768,8-22-2022,5-36-29,20,depth_duration_stimuli/000109_2014-05-14_23-41-52_260595134347_rgbf000035-resize_9/000109_2014-05-14_23-41-52_260595134347_rgbf000035-resize_9-target.png,1000,1.3545,0,2833,999,meters,jsons/v1_VE1000_randls_0_rotated.json,689956,814507,26,Man
20,369540,DepthScenes,duration_manipulation_targetAtFixation,jsons/v1_VE1000_randls_0_rotated.json,http://54.235.29.9/FacialAge/BNav_EC2/DepthDuration/v2_depth_duration_MTurk/v2_DepthDuration_HTML.html#80,80,1364,768,1364,768,8-22-2022,5-36-29,21,depth_duration_stimuli/000470_2014-06-09_19-42-40_260595134347_rgbf000094-resize_1/000470_2014-06-09_19-42-40_260595134347_rgbf000094-resize_1-target.png,1000,1.831,2,3377,998,meters,jsons/v1_VE1000_randls_0_rotated.json,689956,814507,26,Man
21,369540,DepthScenes,duration_manipulation_targetAtFixation,jsons/v1_VE1000_randls_0_rotated.json,http://54.235.29.9/FacialAge/BNav_EC2/DepthDuration/v2_depth_duration_MTurk/v2_DepthDuration_HTML.html#80,80,1364,768,1364,768,8-22-2022,5-36-29,22,depth_duration_stimuli/002414_2014-06-28_20-24-58_260595134347_rgbf000067-resize_4/002414_2014-06-28_20-24-58_260595134347_rgbf000067-resize_4-target.png,1000,4.363,4,3921,998,meters,jsons/v1_VE1000_randls_0_rotated.json,689956,814507,26,Man
22,369540,DepthScenes,duration_manipulation_targetAtFixation,jsons/v1_VE1000_randls_0_rotated.json,http://54.235.29.9/FacialAge/BNav_EC2/DepthDuration/v2_depth_duration_MTurk/v2_DepthDuration_HTML.html#80,80,1364,768,1364,768,8-22-2022,5-36-29,23,depth_duration_stimuli/000773_2014-06-08_22-24-54_260595134347_rgbf000093-resize_1/000773_2014-06-08_22-24-54_260595134347_rgbf000093-resize_1-target.png,1000,4.973,1,2698,999,meters,jsons/v1_VE1000_randls_0_rotated.json,689956,814507,26,Man
23,369540,DepthScenes,duration_manipulation_targetAtFixation,jsons/v1_VE1000_randls_0_rotated.json,http://54.235.29.9/FacialAge/BNav_EC2/DepthDuration/v2_depth_duration_MTurk/v2_DepthDuration_HTML.html#80,80,1364,768,1364,768,8-22-2022,5-36-29,24,depth_duration_stimuli/000927_2014-06-09_16-32-30_260595134347_rgbf000123-resize_3/000927_2014-06-09_16-32-30_260595134347_rgbf000123-resize_3-target.png,1000,2.6785,2,2833,998,meters,jsons/v1_VE1000_randls_0_rotated.json,689956,814507,26,Man
24,369540,DepthScenes,duration_manipulation_targetAtFixation,jsons/v1_VE1000_randls_0_rotated.json,http://54.235.29.9/FacialAge/BNav_EC2/DepthDuration/v2_depth_duration_MTurk/v2_DepthDuration_HTML.html#80,80,1364,768,1364,768,8-22-2022,5-36-29,25,depth_duration_stimuli/001110_2014-06-15_17-25-28_260595134347_rgbf000150-resize_1/001110_2014-06-15_17-25-28_260595134347_rgbf000150-resize_1-target.png,1000,1.7115,5,3467,1000,meters,jsons/v1_VE1000_randls_0_rotated.json,689956,814507,26,Man
25,369540,DepthScenes,duration_manipulation_targetAtFixation,jsons/v1_VE1000_randls_0_rotated.json,http://54.235.29.9/FacialAge/BNav_EC2/DepthDuration/v2_depth_duration_MTurk/v2_DepthDuration_HTML.html#80,80,1364,768,1364,768,8-22-2022,5-36-29,26,depth_duration_stimuli/000665_2014-06-09_20-42-35_260595134347_rgbf000110-resize_1/000665_2014-06-09_20-42-35_260595134347_rgbf000110-resize_1-target.png,1000,3.057,0,3834,999,meters,jsons/v1_VE1000_randls_0_rotated.json,689956,814507,26,Man
26,369540,DepthScenes,duration_manipulation_targetAtFixation,jsons/v1_VE1000_randls_0_rotated.json,http://54.235.29.9/FacialAge/BNav_EC2/DepthDuration/v2_depth_duration_MTurk/v2_DepthDuration_HTML.html#80,80,1364,768,1364,768,8-22-2022,5-36-29,27,depth_duration_stimuli/001150_2014-06-17_15-27-34_260595134347_rgbf000108-resize_2/001150_2014-06-17_15-27-34_260595134347_rgbf000108-resize_2-target.png,1000,4.0325,2,2314,999,meters,jsons/v1_VE1000_randls_0_rotated.json,689956,814507,26,Man
27,369540,DepthScenes,duration_manipulation_targetAtFixation,jsons/v1_VE1000_randls_0_rotated.json,http://54.235.29.9/FacialAge/BNav_EC2/DepthDuration/v2_depth_duration_MTurk/v2_DepthDuration_HTML.html#80,80,1364,768,1364,768,8-22-2022,5-36-29,28,depth_duration_stimuli/002875_2014-06-01_15-19-00_094959634447_rgbf000151-resize_1/002875_2014-06-01_15-19-00_094959634447_rgbf000151-resize_1-target.png,1000,1.9675,0,2746,999,meters,jsons/v1_VE1000_randls_0_rotated.json,689956,814507,26,Man
28,369540,DepthScenes,duration_manipulation_targetAtFixation,jsons/v1_VE1000_randls_0_rotated.json,http://54.235.29.9/FacialAge/BNav_EC2/DepthDuration/v2_depth_duration_MTurk/v2_DepthDuration_HTML.html#80,80,1364,768,1364,768,8-22-2022,5-36-29,29,depth_duration_stimuli/001011_2014-06-08_23-18-54_260595134347_rgbf000044-resize_4/001011_2014-06-08_23-18-54_260595134347_rgbf000044-resize_4-target.png,1000,2.4730000000000003,2,2722,998,meters,jsons/v1_VE1000_randls_0_rotated.json,689956,814507,26,Man
29,369540,DepthScenes,duration_manipulation_targetAtFixation,jsons/v1_VE1000_randls_0_rotated.json,http://54.235.29.9/FacialAge/BNav_EC2/DepthDuration/v2_depth_duration_MTurk/v2_DepthDuration_HTML.html#80,80,1364,768,1364,768,8-22-2022,5-36-29,30,depth_duration_stimuli/002072_2014-06-24_21-48-06_260595134347_rgbf000115-resize_0/002072_2014-06-24_21-48-06_260595134347_rgbf000115-resize-original.jpg,1000,4.702,4,3050,999,meters,jsons/v1_VE1000_randls_0_rotated.json,689956,814507,26,Man
30,369540,DepthScenes,duration_manipulation_targetAtFixation,jsons/v1_VE1000_randls_0_rotated.json,http://54.235.29.9/FacialAge/BNav_EC2/DepthDuration/v2_depth_duration_MTurk/v2_DepthDuration_HTML.html#80,80,1364,768,1364,768,8-22-2022,5-36-29,31,depth_duration_stimuli/000549_2014-06-08_22-10-24_260595134347_rgbf000247-resize_3/000549_2014-06-08_22-10-24_260595134347_rgbf000247-resize_3-target.png,1000,1.841,5,2674,998,meters,jsons/v1_VE1000_randls_0_rotated.json,689956,814507,26,Man
31,369540,DepthScenes,duration_manipulation_targetAtFixation,jsons/v1_VE1000_randls_0_rotated.json,http://54.235.29.9/FacialAge/BNav_EC2/DepthDuration/v2_depth_duration_MTurk/v2_DepthDuration_HTML.html#80,80,1364,768,1364,768,8-22-2022,5-36-29,32,depth_duration_stimuli/001055_2014-06-08_18-45-35_260595134347_rgbf000111-resize_4/001055_2014-06-08_18-45-35_260595134347_rgbf000111-resize_4-target.png,1000,2.4290000000000003,3,2960,999,meters,jsons/v1_VE1000_randls_0_rotated.json,689956,814507,26,Man
32,369540,DepthScenes,duration_manipulation_targetAtFixation,jsons/v1_VE1000_randls_0_rotated.json,http://54.235.29.9/FacialAge/BNav_EC2/DepthDuration/v2_depth_duration_MTurk/v2_DepthDuration_HTML.html#80,80,1364,768,1364,768,8-22-2022,5-36-29,33,depth_duration_stimuli/000502_2014-06-08_23-02-32_260595134347_rgbf000063-resize_4/000502_2014-06-08_23-02-32_260595134347_rgbf000063-resize_4-target.png,1000,2.431,1,2736,998,meters,jsons/v1_VE1000_randls_0_rotated.json,689956,814507,26,Man
33,369540,DepthScenes,duration_manipulation_targetAtFixation,jsons/v1_VE1000_randls_0_rotated.json,http://54.235.29.9/FacialAge/BNav_EC2/DepthDuration/v2_depth_duration_MTurk/v2_DepthDuration_HTML.html#80,80,1364,768,1364,768,8-22-2022,5-36-29,34,depth_duration_stimuli/001199_2014-06-17_16-03-48_260595134347_rgbf000077-resize_0/001199_2014-06-17_16-03-48_260595134347_rgbf000077-resize_0-target.png,1000,3.4375,3,3209,998,meters,jsons/v1_VE1000_randls_0_rotated.json,689956,814507,26,Man
34,369540,DepthScenes,duration_manipulation_targetAtFixation,jsons/v1_VE1000_randls_0_rotated.json,http://54.235.29.9/FacialAge/BNav_EC2/DepthDuration/v2_depth_duration_MTurk/v2_DepthDuration_HTML.html#80,80,1364,768,1364,768,8-22-2022,5-36-29,35,depth_duration_stimuli/003490_2014-05-21_15-50-11_094959634447_rgbf000101-resize_3/003490_2014-05-21_15-50-11_094959634447_rgbf000101-resize_3-target.png,1000,3.6445,0,5826,998,meters,jsons/v1_VE1000_randls_0_rotated.json,689956,814507,26,Man
35,369540,DepthScenes,duration_manipulation_targetAtFixation,jsons/v1_VE1000_randls_0_rotated.json,http://54.235.29.9/FacialAge/BNav_EC2/DepthDuration/v2_depth_duration_MTurk/v2_DepthDuration_HTML.html#80,80,1364,768,1364,768,8-22-2022,5-36-29,36,depth_duration_stimuli/001175_2014-06-17_15-45-55_260595134347_rgbf000129-resize_4/001175_2014-06-17_15-45-55_260595134347_rgbf000129-resize_4-target.png,1000,4.255,5,3633,999,meters,jsons/v1_VE1000_randls_0_rotated.json,689956,814507,26,Man
36,369540,DepthScenes,duration_manipulation_targetAtFixation,jsons/v1_VE1000_randls_0_rotated.json,http://54.235.29.9/FacialAge/BNav_EC2/DepthDuration/v2_depth_duration_MTurk/v2_DepthDuration_HTML.html#80,80,1364,768,1364,768,8-22-2022,5-36-29,37,depth_duration_stimuli/002949_2014-06-26_15-57-42_094959634447_rgbf000079-resize_1/002949_2014-06-26_15-57-42_094959634447_rgbf000079-resize_1-target.png,1000,1.8915,1,2913,997,meters,jsons/v1_VE1000_randls_0_rotated.json,689956,814507,26,Man
37,369540,DepthScenes,duration_manipulation_targetAtFixation,jsons/v1_VE1000_randls_0_rotated.json,http://54.235.29.9/FacialAge/BNav_EC2/DepthDuration/v2_depth_duration_MTurk/v2_DepthDuration_HTML.html#80,80,1364,768,1364,768,8-22-2022,5-36-29,38,depth_duration_stimuli/000522_2014-06-08_13-35-06_260595134347_rgbf000244-resize_1/000522_2014-06-08_13-35-06_260595134347_rgbf000244-resize_1-target.png,1000,2.3715,2,7043,998,meters,jsons/v1_VE1000_randls_0_rotated.json,689956,814507,26,Man
38,369540,DepthScenes,duration_manipulation_targetAtFixation,jsons/v1_VE1000_randls_0_rotated.json,http://54.235.29.9/FacialAge/BNav_EC2/DepthDuration/v2_depth_duration_MTurk/v2_DepthDuration_HTML.html#80,80,1364,768,1364,768,8-22-2022,5-36-29,39,depth_duration_stimuli/002340_2014-06-28_20-05-46_260595134347_rgbf000113-resize_0/002340_2014-06-28_20-05-46_260595134347_rgbf000113-resize_0-target.png,1000,2.4735,1,2458,999,meters,jsons/v1_VE1000_randls_0_rotated.json,689956,814507,26,Man
39,369540,DepthScenes,duration_manipulation_targetAtFixation,jsons/v1_VE1000_randls_0_rotated.json,http://54.235.29.9/FacialAge/BNav_EC2/DepthDuration/v2_depth_duration_MTurk/v2_DepthDuration_HTML.html#80,80,1364,768,1364,768,8-22-2022,5-36-29,40,depth_duration_stimuli/001016_2014-06-09_16-16-10_260595134347_rgbf000112-resize_5/001016_2014-06-09_16-16-10_260595134347_rgbf000112-resize_5-target.png,1000,1.6565,1,3281,998,meters,jsons/v1_VE1000_randls_0_rotated.json,689956,814507,26,Man
40,369540,DepthScenes,duration_manipulation_targetAtFixation,jsons/v1_VE1000_randls_0_rotated.json,http://54.235.29.9/FacialAge/BNav_EC2/DepthDuration/v2_depth_duration_MTurk/v2_DepthDuration_HTML.html#80,80,1364,768,1364,768,8-22-2022,5-36-29,41,depth_duration_stimuli/001100_2014-06-15_17-46-26_260595134347_rgbf000225-resize_2/001100_2014-06-15_17-46-26_260595134347_rgbf000225-resize_2-target.png,1000,2.24,3,3938,999,meters,jsons/v1_VE1000_randls_0_rotated.json,689956,814507,26,Man
41,369540,DepthScenes,duration_manipulation_targetAtFixation,jsons/v1_VE1000_randls_0_rotated.json,http://54.235.29.9/FacialAge/BNav_EC2/DepthDuration/v2_depth_duration_MTurk/v2_DepthDuration_HTML.html#80,80,1364,768,1364,768,8-22-2022,5-36-29,42,depth_duration_stimuli/002784_2014-06-22_19-26-30_094959634447_rgbf000083-resize_3/002784_2014-06-22_19-26-30_094959634447_rgbf000083-resize_3-target.png,1000,1.8046666666667,0,9258,999,meters,jsons/v1_VE1000_randls_0_rotated.json,689956,814507,26,Man
42,369540,DepthScenes,duration_manipulation_targetAtFixation,jsons/v1_VE1000_randls_0_rotated.json,http://54.235.29.9/FacialAge/BNav_EC2/DepthDuration/v2_depth_duration_MTurk/v2_DepthDuration_HTML.html#80,80,1364,768,1364,768,8-22-2022,5-36-29,43,depth_duration_stimuli/001235_2014-06-17_16-37-36_260595134347_rgbf000084-resize_4/001235_2014-06-17_16-37-36_260595134347_rgbf000084-resize_4-target.png,1000,3.6605,3,4049,999,meters,jsons/v1_VE1000_randls_0_rotated.json,689956,814507,26,Man
43,369540,DepthScenes,duration_manipulation_targetAtFixation,jsons/v1_VE1000_randls_0_rotated.json,http://54.235.29.9/FacialAge/BNav_EC2/DepthDuration/v2_depth_duration_MTurk/v2_DepthDuration_HTML.html#80,80,1364,768,1364,768,8-22-2022,5-36-29,44,depth_duration_stimuli/000788_2014-06-08_22-34-36_260595134347_rgbf000131-resize_1/000788_2014-06-08_22-34-36_260595134347_rgbf000131-resize_1-target.png,1000,3.359,4,4028,1000,meters,jsons/v1_VE1000_randls_0_rotated.json,689956,814507,26,Man
44,369540,DepthScenes,duration_manipulation_targetAtFixation,jsons/v1_VE1000_randls_0_rotated.json,http://54.235.29.9/FacialAge/BNav_EC2/DepthDuration/v2_depth_duration_MTurk/v2_DepthDuration_HTML.html#80,80,1364,768,1364,768,8-22-2022,5-36-29,45,depth_duration_stimuli/002639_2014-06-24_14-51-37_094959634447_rgbf000074-resize_4/002639_2014-06-24_14-51-37_094959634447_rgbf000074-resize_4-target.png,1000,4.0375,1,2593,998,meters,jsons/v1_VE1000_randls_0_rotated.json,689956,814507,26,Man
45,369540,DepthScenes,duration_manipulation_targetAtFixation,jsons/v1_VE1000_randls_0_rotated.json,http://54.235.29.9/FacialAge/BNav_EC2/DepthDuration/v2_depth_duration_MTurk/v2_DepthDuration_HTML.html#80,80,1364,768,1364,768,8-22-2022,5-36-29,46,depth_duration_stimuli/003292_2014-05-14_21-53-49_094959634447_rgbf000100-resize_2/003292_2014-05-14_21-53-49_094959634447_rgbf000100-resize_2-target.png,1000,3.4815,3,2696,999,meters,jsons/v1_VE1000_randls_0_rotated.json,689956,814507,26,Man
46,369540,DepthScenes,duration_manipulation_targetAtFixation,jsons/v1_VE1000_randls_0_rotated.json,http://54.235.29.9/FacialAge/BNav_EC2/DepthDuration/v2_depth_duration_MTurk/v2_DepthDuration_HTML.html#80,80,1364,768,1364,768,8-22-2022,5-36-29,47,depth_duration_stimuli/003423_2014-05-21_10-23-26_094959634447_rgbf002665-resize_2/003423_2014-05-21_10-23-26_094959634447_rgbf002665-resize_2-target.png,1000,3.2575,5,3274,998,meters,jsons/v1_VE1000_randls_0_rotated.json,689956,814507,26,Man
47,369540,DepthScenes,duration_manipulation_targetAtFixation,jsons/v1_VE1000_randls_0_rotated.json,http://54.235.29.9/FacialAge/BNav_EC2/DepthDuration/v2_depth_duration_MTurk/v2_DepthDuration_HTML.html#80,80,1364,768,1364,768,8-22-2022,5-36-29,48,depth_duration_stimuli/002905_2014-06-03_18-04-43_094959634447_rgbf000151-resize_2/002905_2014-06-03_18-04-43_094959634447_rgbf000151-resize_2-target.png,1000,2.0295,2,6929,998,meters,jsons/v1_VE1000_randls_0_rotated.json,689956,814507,26,Man
48,369540,DepthScenes,duration_manipulation_targetAtFixation,jsons/v1_VE1000_randls_0_rotated.json,http://54.235.29.9/FacialAge/BNav_EC2/DepthDuration/v2_depth_duration_MTurk/v2_DepthDuration_HTML.html#80,80,1364,768,1364,768,8-22-2022,5-36-29,49,depth_duration_stimuli/001170_2014-06-17_15-43-44_260595134347_rgbf000096-resize_6/001170_2014-06-17_15-43-44_260595134347_rgbf000096-resize-original.jpg,1000,1.1909999999999998,0,2841,998,meters,jsons/v1_VE1000_randls_0_rotated.json,689956,814507,26,Man
49,369540,DepthScenes,duration_manipulation_targetAtFixation,jsons/v1_VE1000_randls_0_rotated.json,http://54.235.29.9/FacialAge/BNav_EC2/DepthDuration/v2_depth_duration_MTurk/v2_DepthDuration_HTML.html#80,80,1364,768,1364,768,8-22-2022,5-36-29,50,depth_duration_stimuli/003048_2014-06-15_13-49-43_094959634447_rgbf000150-resize_1/003048_2014-06-15_13-49-43_094959634447_rgbf000150-resize_1-target.png,1000,4.0035,2,3067,999,meters,jsons/v1_VE1000_randls_0_rotated.json,689956,814507,26,Man
50,369540,DepthScenes,duration_manipulation_targetAtFixation,jsons/v1_VE1000_randls_0_rotated.json,http://54.235.29.9/FacialAge/BNav_EC2/DepthDuration/v2_depth_duration_MTurk/v2_DepthDuration_HTML.html#80,80,1364,768,1364,768,8-22-2022,5-36-29,51,depth_duration_stimuli/002043_2014-06-24_20-29-38_260595134347_rgbf000039-resize_4/002043_2014-06-24_20-29-38_260595134347_rgbf000039-resize_4-target.png,1000,2.8435,1,2666,997,meters,jsons/v1_VE1000_randls_0_rotated.json,689956,814507,26,Man
51,369540,DepthScenes,duration_manipulation_targetAtFixation,jsons/v1_VE1000_randls_0_rotated.json,http://54.235.29.9/FacialAge/BNav_EC2/DepthDuration/v2_depth_duration_MTurk/v2_DepthDuration_HTML.html#80,80,1364,768,1364,768,8-22-2022,5-36-29,52,depth_duration_stimuli/003129_2014-05-12_10-48-10_094959634447_rgbf000100-resize_0/003129_2014-05-12_10-48-10_094959634447_rgbf000100-resize_0-target.png,1000,4.9305,0,2777,999,meters,jsons/v1_VE1000_randls_0_rotated.json,689956,814507,26,Man
52,369540,DepthScenes,duration_manipulation_targetAtFixation,jsons/v1_VE1000_randls_0_rotated.json,http://54.235.29.9/FacialAge/BNav_EC2/DepthDuration/v2_depth_duration_MTurk/v2_DepthDuration_HTML.html#80,80,1364,768,1364,768,8-22-2022,5-36-29,53,depth_duration_stimuli/000414_2014-06-04_19-49-13_260595134347_rgbf000044-resize_0/000414_2014-06-04_19-49-13_260595134347_rgbf000044-resize_0-target.png,1000,4.329,4,8673,1000,meters,jsons/v1_VE1000_randls_0_rotated.json,689956,814507,26,Man
53,369540,DepthScenes,duration_manipulation_targetAtFixation,jsons/v1_VE1000_randls_0_rotated.json,http://54.235.29.9/FacialAge/BNav_EC2/DepthDuration/v2_depth_duration_MTurk/v2_DepthDuration_HTML.html#80,80,1364,768,1364,768,8-22-2022,5-36-29,54,depth_duration_stimuli/003228_2014-05-14_13-42-35_094959634447_rgbf000101-resize_1/003228_2014-05-14_13-42-35_094959634447_rgbf000101-resize_1-target.png,1000,1.9680000000000002,1,2617,998,meters,jsons/v1_VE1000_randls_0_rotated.json,689956,814507,26,Man
54,369540,DepthScenes,duration_manipulation_targetAtFixation,jsons/v1_VE1000_randls_0_rotated.json,http://54.235.29.9/FacialAge/BNav_EC2/DepthDuration/v2_depth_duration_MTurk/v2_DepthDuration_HTML.html#80,80,1364,768,1364,768,8-22-2022,5-36-29,55,depth_duration_stimuli/002600_2014-06-24_14-27-04_094959634447_rgbf000074-resize_2/002600_2014-06-24_14-27-04_094959634447_rgbf000074-resize_2-target.png,1000,2.7575,0,4817,998,meters,jsons/v1_VE1000_randls_0_rotated.json,689956,814507,26,Man
55,369540,DepthScenes,duration_manipulation_targetAtFixation,jsons/v1_VE1000_randls_0_rotated.json,http://54.235.29.9/FacialAge/BNav_EC2/DepthDuration/v2_depth_duration_MTurk/v2_DepthDuration_HTML.html#80,80,1364,768,1364,768,8-22-2022,5-36-29,56,depth_duration_stimuli/000709_2014-06-08_13-51-55_260595134347_rgbf000068-resize_3/000709_2014-06-08_13-51-55_260595134347_rgbf000068-resize_3-target.png,1000,1.8030000000000002,3,2752,999,meters,jsons/v1_VE1000_randls_0_rotated.json,689956,814507,26,Man
56,369540,DepthScenes,duration_manipulation_targetAtFixation,jsons/v1_VE1000_randls_0_rotated.json,http://54.235.29.9/FacialAge/BNav_EC2/DepthDuration/v2_depth_duration_MTurk/v2_DepthDuration_HTML.html#80,80,1364,768,1364,768,8-22-2022,5-36-29,57,depth_duration_stimuli/002057_2014-06-24_21-00-13_260595134347_rgbf000120-resize_1/002057_2014-06-24_21-00-13_260595134347_rgbf000120-resize_1-target.png,1000,2.967,5,2771,998,meters,jsons/v1_VE1000_randls_0_rotated.json,689956,814507,26,Man
57,369540,DepthScenes,duration_manipulation_targetAtFixation,jsons/v1_VE1000_randls_0_rotated.json,http://54.235.29.9/FacialAge/BNav_EC2/DepthDuration/v2_depth_duration_MTurk/v2_DepthDuration_HTML.html#80,80,1364,768,1364,768,8-22-2022,5-36-29,58,depth_duration_stimuli/000483_2014-06-09_20-41-45_260595134347_rgbf000116-resize_4/000483_2014-06-09_20-41-45_260595134347_rgbf000116-resize_4-target.png,1000,1.337,1,2810,999,meters,jsons/v1_VE1000_randls_0_rotated.json,689956,814507,26,Man
58,369540,DepthScenes,duration_manipulation_targetAtFixation,jsons/v1_VE1000_randls_0_rotated.json,http://54.235.29.9/FacialAge/BNav_EC2/DepthDuration/v2_depth_duration_MTurk/v2_DepthDuration_HTML.html#80,80,1364,768,1364,768,8-22-2022,5-36-29,59,depth_duration_stimuli/000469_2014-06-09_19-42-10_260595134347_rgbf000081-resize_1/000469_2014-06-09_19-42-10_260595134347_rgbf000081-resize_1-target.png,1000,1.652,0,5914,999,meters,jsons/v1_VE1000_randls_0_rotated.json,689956,814507,26,Man
59,369540,DepthScenes,duration_manipulation_targetAtFixation,jsons/v1_VE1000_randls_0_rotated.json,http://54.235.29.9/FacialAge/BNav_EC2/DepthDuration/v2_depth_duration_MTurk/v2_DepthDuration_HTML.html#80,80,1364,768,1364,768,8-22-2022,5-36-29,60,depth_duration_stimuli/001516_2014-06-20_16-25-09_260595134347_rgbf000076-resize_2/001516_2014-06-20_16-25-09_260595134347_rgbf000076-resize_2-target.png,1000,1.7445,1,3007,998,meters,jsons/v1_VE1000_randls_0_rotated.json,689956,814507,26,Man
60,369540,DepthScenes,duration_manipulation_targetAtFixation,jsons/v1_VE1000_randls_0_rotated.json,http://54.235.29.9/FacialAge/BNav_EC2/DepthDuration/v2_depth_duration_MTurk/v2_DepthDuration_HTML.html#80,80,1364,768,1364,768,8-22-2022,5-36-29,61,depth_duration_stimuli/002118_2014-06-25_20-32-08_260595134347_rgbf000078-resize_1/002118_2014-06-25_20-32-08_260595134347_rgbf000078-resize_1-target.png,1000,2.6460000000000004,0,2796,1000,meters,jsons/v1_VE1000_randls_0_rotated.json,689956,814507,26,Man
61,369540,DepthScenes,duration_manipulation_targetAtFixation,jsons/v1_VE1000_randls_0_rotated.json,http://54.235.29.9/FacialAge/BNav_EC2/DepthDuration/v2_depth_duration_MTurk/v2_DepthDuration_HTML.html#80,80,1364,768,1364,768,8-22-2022,5-36-29,62,depth_duration_stimuli/000691_2014-06-08_13-08-50_260595134347_rgbf000132-resize_3/000691_2014-06-08_13-08-50_260595134347_rgbf000132-resize_3-target.png,1000,4.1530000000000005,1,2618,998,meters,jsons/v1_VE1000_randls_0_rotated.json,689956,814507,26,Man
62,369540,DepthScenes,duration_manipulation_targetAtFixation,jsons/v1_VE1000_randls_0_rotated.json,http://54.235.29.9/FacialAge/BNav_EC2/DepthDuration/v2_depth_duration_MTurk/v2_DepthDuration_HTML.html#80,80,1364,768,1364,768,8-22-2022,5-36-29,63,depth_duration_stimuli/002213_2014-06-28_18-37-58_260595134347_rgbf000055-resize_1/002213_2014-06-28_18-37-58_260595134347_rgbf000055-resize_1-target.png,1000,3.62,3,2906,998,meters,jsons/v1_VE1000_randls_0_rotated.json,689956,814507,26,Man
63,369540,DepthScenes,duration_manipulation_targetAtFixation,jsons/v1_VE1000_randls_0_rotated.json,http://54.235.29.9/FacialAge/BNav_EC2/DepthDuration/v2_depth_duration_MTurk/v2_DepthDuration_HTML.html#80,80,1364,768,1364,768,8-22-2022,5-36-29,64,depth_duration_stimuli/003495_2014-05-21_16-01-51_094959634447_rgbf000100-resize_3/003495_2014-05-21_16-01-51_094959634447_rgbf000100-resize_3-target.png,1000,1.6255,2,2731,999,meters,jsons/v1_VE1000_randls_0_rotated.json,689956,814507,26,Man
64,369540,DepthScenes,duration_manipulation_targetAtFixation,jsons/v1_VE1000_randls_0_rotated.json,http://54.235.29.9/FacialAge/BNav_EC2/DepthDuration/v2_depth_duration_MTurk/v2_DepthDuration_HTML.html#80,80,1364,768,1364,768,8-22-2022,5-36-29,65,depth_duration_stimuli/001244_2014-06-17_16-47-45_260595134347_rgbf000030-resize_4/001244_2014-06-17_16-47-45_260595134347_rgbf000030-resize_4-target.png,1000,2.0425,0,2993,999,meters,jsons/v1_VE1000_randls_0_rotated.json,689956,814507,26,Man
65,369540,DepthScenes,duration_manipulation_targetAtFixation,jsons/v1_VE1000_randls_0_rotated.json,http://54.235.29.9/FacialAge/BNav_EC2/DepthDuration/v2_depth_duration_MTurk/v2_DepthDuration_HTML.html#80,80,1364,768,1364,768,8-22-2022,5-36-29,66,depth_duration_stimuli/001540_2014-06-20_17-01-05_260595134347_rgbf000086-resize_2/001540_2014-06-20_17-01-05_260595134347_rgbf000086-resize-original.jpg,1000,1.459,2,4969,999,meters,jsons/v1_VE1000_randls_0_rotated.json,689956,814507,26,Man
66,369540,DepthScenes,duration_manipulation_targetAtFixation,jsons/v1_VE1000_randls_0_rotated.json,http://54.235.29.9/FacialAge/BNav_EC2/DepthDuration/v2_depth_duration_MTurk/v2_DepthDuration_HTML.html#80,80,1364,768,1364,768,8-22-2022,5-36-29,67,depth_duration_stimuli/001032_2014-06-08_13-23-17_260595134347_rgbf000021-resize_3/001032_2014-06-08_13-23-17_260595134347_rgbf000021-resize_3-target.png,1000,3.2725,0,5466,999,meters,jsons/v1_VE1000_randls_0_rotated.json,689956,814507,26,Man
67,369540,DepthScenes,duration_manipulation_targetAtFixation,jsons/v1_VE1000_randls_0_rotated.json,http://54.235.29.9/FacialAge/BNav_EC2/DepthDuration/v2_depth_duration_MTurk/v2_DepthDuration_HTML.html#80,80,1364,768,1364,768,8-22-2022,5-36-29,68,depth_duration_stimuli/001059_2014-06-08_21-53-27_260595134347_rgbf000061-resize_4/001059_2014-06-08_21-53-27_260595134347_rgbf000061-resize_4-target.png,1000,2.4185,5,8355,993,meters,jsons/v1_VE1000_randls_0_rotated.json,689956,814507,26,Man
68,369540,DepthScenes,duration_manipulation_targetAtFixation,jsons/v1_VE1000_randls_0_rotated.json,http://54.235.29.9/FacialAge/BNav_EC2/DepthDuration/v2_depth_duration_MTurk/v2_DepthDuration_HTML.html#80,80,1364,768,1364,768,8-22-2022,5-36-29,69,depth_duration_stimuli/000635_2014-06-08_16-38-42_260595134347_rgbf000106-resize_1/000635_2014-06-08_16-38-42_260595134347_rgbf000106-resize_1-target.png,1000,2.074,1,2618,999,meters,jsons/v1_VE1000_randls_0_rotated.json,689956,814507,26,Man
69,369540,DepthScenes,duration_manipulation_targetAtFixation,jsons/v1_VE1000_randls_0_rotated.json,http://54.235.29.9/FacialAge/BNav_EC2/DepthDuration/v2_depth_duration_MTurk/v2_DepthDuration_HTML.html#80,80,1364,768,1364,768,8-22-2022,5-36-29,70,depth_duration_stimuli/002279_2014-06-28_18-55-32_260595134347_rgbf000040-resize_5/002279_2014-06-28_18-55-32_260595134347_rgbf000040-resize_5-target.png,1000,1.5043333333333,0,4065,999,meters,jsons/v1_VE1000_randls_0_rotated.json,689956,814507,26,Man
70,369540,DepthScenes,duration_manipulation_targetAtFixation,jsons/v1_VE1000_randls_0_rotated.json,http://54.235.29.9/FacialAge/BNav_EC2/DepthDuration/v2_depth_duration_MTurk/v2_DepthDuration_HTML.html#80,80,1364,768,1364,768,8-22-2022,5-36-29,71,depth_duration_stimuli/001094_2014-06-15_17-36-00_260595134347_rgbf000205-resize_0/001094_2014-06-15_17-36-00_260595134347_rgbf000205-resize_0-target.png,1000,4.2175,5,3042,998,meters,jsons/v1_VE1000_randls_0_rotated.json,689956,814507,26,Man
71,369540,DepthScenes,duration_manipulation_targetAtFixation,jsons/v1_VE1000_randls_0_rotated.json,http://54.235.29.9/FacialAge/BNav_EC2/DepthDuration/v2_depth_duration_MTurk/v2_DepthDuration_HTML.html#80,80,1364,768,1364,768,8-22-2022,5-36-29,72,depth_duration_stimuli/000692_2014-06-08_13-09-42_260595134347_rgbf000199-resize_2/000692_2014-06-08_13-09-42_260595134347_rgbf000199-resize_2-target.png,1000,3.661,4,2145,1000,meters,jsons/v1_VE1000_randls_0_rotated.json,689956,814507,26,Man
72,369540,DepthScenes,duration_manipulation_targetAtFixation,jsons/v1_VE1000_randls_0_rotated.json,http://54.235.29.9/FacialAge/BNav_EC2/DepthDuration/v2_depth_duration_MTurk/v2_DepthDuration_HTML.html#80,80,1364,768,1364,768,8-22-2022,5-36-29,73,depth_duration_stimuli/003010_2014-06-15_12-54-35_094959634447_rgbf000112-resize_0/003010_2014-06-15_12-54-35_094959634447_rgbf000112-resize_0-target.png,1000,3.1185,1,2618,999,meters,jsons/v1_VE1000_randls_0_rotated.json,689956,814507,26,Man
73,369540,DepthScenes,duration_manipulation_targetAtFixation,jsons/v1_VE1000_randls_0_rotated.json,http://54.235.29.9/FacialAge/BNav_EC2/DepthDuration/v2_depth_duration_MTurk/v2_DepthDuration_HTML.html#80,80,1364,768,1364,768,8-22-2022,5-36-29,74,depth_duration_stimuli/001810_2014-06-26_20-51-35_260595134347_rgbf000040-resize_3/001810_2014-06-26_20-51-35_260595134347_rgbf000040-resize_3-target.png,1000,2.2525,3,3185,998,meters,jsons/v1_VE1000_randls_0_rotated.json,689956,814507,26,Man
74,369540,DepthScenes,duration_manipulation_targetAtFixation,jsons/v1_VE1000_randls_0_rotated.json,http://54.235.29.9/FacialAge/BNav_EC2/DepthDuration/v2_depth_duration_MTurk/v2_DepthDuration_HTML.html#80,80,1364,768,1364,768,8-22-2022,5-36-29,75,depth_duration_stimuli/002805_2014-06-22_19-54-03_094959634447_rgbf000079-resize_1/002805_2014-06-22_19-54-03_094959634447_rgbf000079-resize_1-target.png,1000,3.1439999999999997,0,2996,999,meters,jsons/v1_VE1000_randls_0_rotated.json,689956,814507,26,Man
75,369540,DepthScenes,duration_manipulation_targetAtFixation,jsons/v1_VE1000_randls_0_rotated.json,http://54.235.29.9/FacialAge/BNav_EC2/DepthDuration/v2_depth_duration_MTurk/v2_DepthDuration_HTML.html#80,80,1364,768,1364,768,8-22-2022,5-36-29,76,depth_duration_stimuli/000906_2014-06-08_13-35-43_260595134347_rgbf000155-resize_1/000906_2014-06-08_13-35-43_260595134347_rgbf000155-resize_1-target.png,1000,2.8489999999999998,2,2402,998,meters,jsons/v1_VE1000_randls_0_rotated.json,689956,814507,26,Man
76,369540,DepthScenes,duration_manipulation_targetAtFixation,jsons/v1_VE1000_randls_0_rotated.json,http://54.235.29.9/FacialAge/BNav_EC2/DepthDuration/v2_depth_duration_MTurk/v2_DepthDuration_HTML.html#80,80,1364,768,1364,768,8-22-2022,5-36-29,77,depth_duration_stimuli/001584_2014-06-20_11-07-43_260595134347_rgbf000002-resize_1/001584_2014-06-20_11-07-43_260595134347_rgbf000002-resize_1-target.png,1000,3.53,4,4347,998,meters,jsons/v1_VE1000_randls_0_rotated.json,689956,814507,26,Man
77,369540,DepthScenes,duration_manipulation_targetAtFixation,jsons/v1_VE1000_randls_0_rotated.json,http://54.235.29.9/FacialAge/BNav_EC2/DepthDuration/v2_depth_duration_MTurk/v2_DepthDuration_HTML.html#80,80,1364,768,1364,768,8-22-2022,5-36-29,78,depth_duration_stimuli/003621_2014-05-23_18-06-08_094959634447_rgbf000101-resize_1/003621_2014-05-23_18-06-08_094959634447_rgbf000101-resize_1-target.png,1000,3.9835,52,3929,1000,meters,jsons/v1_VE1000_randls_0_rotated.json,689956,814507,26,Man
78,369540,DepthScenes,duration_manipulation_targetAtFixation,jsons/v1_VE1000_randls_0_rotated.json,http://54.235.29.9/FacialAge/BNav_EC2/DepthDuration/v2_depth_duration_MTurk/v2_DepthDuration_HTML.html#80,80,1364,768,1364,768,8-22-2022,5-36-29,79,depth_duration_stimuli/000866_2014-06-09_20-45-42_260595134347_rgbf000139-resize_1/000866_2014-06-09_20-45-42_260595134347_rgbf000139-resize_1-target.png,1000,3.2155,1,2193,999,meters,jsons/v1_VE1000_randls_0_rotated.json,689956,814507,26,Man
79,369540,DepthScenes,duration_manipulation_targetAtFixation,jsons/v1_VE1000_randls_0_rotated.json,http://54.235.29.9/FacialAge/BNav_EC2/DepthDuration/v2_depth_duration_MTurk/v2_DepthDuration_HTML.html#80,80,1364,768,1364,768,8-22-2022,5-36-29,80,depth_duration_stimuli/002989_2014-06-15_12-25-03_094959634447_rgbf000150-resize_3/002989_2014-06-15_12-25-03_094959634447_rgbf000150-resize_3-target.png,1000,4.1975,2,2729,999,meters,jsons/v1_VE1000_randls_0_rotated.json,689956,814507,26,Man
80,369540,DepthScenes,duration_manipulation_targetAtFixation,jsons/v1_VE1000_randls_0_rotated.json,http://54.235.29.9/FacialAge/BNav_EC2/DepthDuration/v2_depth_duration_MTurk/v2_DepthDuration_HTML.html#80,80,1364,768,1364,768,8-22-2022,5-36-29,81,depth_duration_stimuli/002344_2014-06-28_20-06-29_260595134347_rgbf000030-resize_1/002344_2014-06-28_20-06-29_260595134347_rgbf000030-resize_1-target.png,1000,1.5795,2,4145,998,meters,jsons/v1_VE1000_randls_0_rotated.json,689956,814507,26,Man
81,369540,DepthScenes,duration_manipulation_targetAtFixation,jsons/v1_VE1000_randls_0_rotated.json,http://54.235.29.9/FacialAge/BNav_EC2/DepthDuration/v2_depth_duration_MTurk/v2_DepthDuration_HTML.html#80,80,1364,768,1364,768,8-22-2022,5-36-29,82,depth_duration_stimuli/002725_2014-06-22_11-47-51_094959634447_rgbf000070-resize_1/002725_2014-06-22_11-47-51_094959634447_rgbf000070-resize_1-target.png,1000,2.195,0,7755,1000,meters,jsons/v1_VE1000_randls_0_rotated.json,689956,814507,26,Man
82,369540,DepthScenes,duration_manipulation_targetAtFixation,jsons/v1_VE1000_randls_0_rotated.json,http://54.235.29.9/FacialAge/BNav_EC2/DepthDuration/v2_depth_duration_MTurk/v2_DepthDuration_HTML.html#80,80,1364,768,1364,768,8-22-2022,5-36-29,83,depth_duration_stimuli/001052_2014-06-08_18-24-54_260595134347_rgbf000130-resize_1/001052_2014-06-08_18-24-54_260595134347_rgbf000130-resize_1-target.png,1000,4.1045,1,4330,997,meters,jsons/v1_VE1000_randls_0_rotated.json,689956,814507,26,Man
83,369540,DepthScenes,duration_manipulation_targetAtFixation,jsons/v1_VE1000_randls_0_rotated.json,http://54.235.29.9/FacialAge/BNav_EC2/DepthDuration/v2_depth_duration_MTurk/v2_DepthDuration_HTML.html#80,80,1364,768,1364,768,8-22-2022,5-36-29,84,depth_duration_stimuli/002988_2014-06-15_12-24-20_094959634447_rgbf000150-resize_1/002988_2014-06-15_12-24-20_094959634447_rgbf000150-resize_1-target.png,1000,4.7669999999999995,5,2817,998,meters,jsons/v1_VE1000_randls_0_rotated.json,689956,814507,26,Man
84,369540,DepthScenes,duration_manipulation_targetAtFixation,jsons/v1_VE1000_randls_0_rotated.json,http://54.235.29.9/FacialAge/BNav_EC2/DepthDuration/v2_depth_duration_MTurk/v2_DepthDuration_HTML.html#80,80,1364,768,1364,768,8-22-2022,5-36-29,85,depth_duration_stimuli/002750_2014-06-22_19-08-03_094959634447_rgbf000094-resize_4/002750_2014-06-22_19-08-03_094959634447_rgbf000094-resize_4-target.png,1000,2.354,3,2837,999,meters,jsons/v1_VE1000_randls_0_rotated.json,689956,814507,26,Man
85,369540,DepthScenes,duration_manipulation_targetAtFixation,jsons/v1_VE1000_randls_0_rotated.json,http://54.235.29.9/FacialAge/BNav_EC2/DepthDuration/v2_depth_duration_MTurk/v2_DepthDuration_HTML.html#80,80,1364,768,1364,768,8-22-2022,5-36-29,86,depth_duration_stimuli/002549_2014-06-24_13-41-39_094959634447_rgbf000022-resize_3/002549_2014-06-24_13-41-39_094959634447_rgbf000022-resize_3-target.png,1000,1.476,1,2745,999,meters,jsons/v1_VE1000_randls_0_rotated.json,689956,814507,26,Man
86,369540,DepthScenes,duration_manipulation_targetAtFixation,jsons/v1_VE1000_randls_0_rotated.json,http://54.235.29.9/FacialAge/BNav_EC2/DepthDuration/v2_depth_duration_MTurk/v2_DepthDuration_HTML.html#80,80,1364,768,1364,768,8-22-2022,5-36-29,87,depth_duration_stimuli/000780_2014-06-08_22-28-29_260595134347_rgbf000126-resize_1/000780_2014-06-08_22-28-29_260595134347_rgbf000126-resize_1-target.png,1000,3.3825,2,4500,999,meters,jsons/v1_VE1000_randls_0_rotated.json,689956,814507,26,Man
87,369540,DepthScenes,duration_manipulation_targetAtFixation,jsons/v1_VE1000_randls_0_rotated.json,http://54.235.29.9/FacialAge/BNav_EC2/DepthDuration/v2_depth_duration_MTurk/v2_DepthDuration_HTML.html#80,80,1364,768,1364,768,8-22-2022,5-36-29,88,depth_duration_stimuli/002445_2014-06-28_20-32-16_260595134347_rgbf000029-resize_4/002445_2014-06-28_20-32-16_260595134347_rgbf000029-resize_4-target.png,1000,2.5315,1,2602,1007,meters,jsons/v1_VE1000_randls_0_rotated.json,689956,814507,26,Man
88,369540,DepthScenes,duration_manipulation_targetAtFixation,jsons/v1_VE1000_randls_0_rotated.json,http://54.235.29.9/FacialAge/BNav_EC2/DepthDuration/v2_depth_duration_MTurk/v2_DepthDuration_HTML.html#80,80,1364,768,1364,768,8-22-2022,5-36-29,89,depth_duration_stimuli/001447_2014-06-19_17-00-32_260595134347_rgbf000082-resize_5/001447_2014-06-19_17-00-32_260595134347_rgbf000082-resize_5-target.png,1000,4.13775,0,3019,998,meters,jsons/v1_VE1000_randls_0_rotated.json,689956,814507,26,Man
89,369540,DepthScenes,duration_manipulation_targetAtFixation,jsons/v1_VE1000_randls_0_rotated.json,http://54.235.29.9/FacialAge/BNav_EC2/DepthDuration/v2_depth_duration_MTurk/v2_DepthDuration_HTML.html#80,80,1364,768,1364,768,8-22-2022,5-36-29,90,depth_duration_stimuli/000447_2014-06-08_16-15-46_260595134347_rgbf000130-resize_1/000447_2014-06-08_16-15-46_260595134347_rgbf000130-resize_1-target.png,1000,4.479,4,2769,998,meters,jsons/v1_VE1000_randls_0_rotated.json,689956,814507,26,Man
90,369540,DepthScenes,duration_manipulation_targetAtFixation,jsons/v1_VE1000_randls_0_rotated.json,http://54.235.29.9/FacialAge/BNav_EC2/DepthDuration/v2_depth_duration_MTurk/v2_DepthDuration_HTML.html#80,80,1364,768,1364,768,8-22-2022,5-36-29,91,depth_duration_stimuli/000457_2014-06-08_16-52-43_260595134347_rgbf000199-resize_1/000457_2014-06-08_16-52-43_260595134347_rgbf000199-resize_1-target.png,1000,3.6489999999999996,2,2818,999,meters,jsons/v1_VE1000_randls_0_rotated.json,689956,814507,26,Man
91,369540,DepthScenes,duration_manipulation_targetAtFixation,jsons/v1_VE1000_randls_0_rotated.json,http://54.235.29.9/FacialAge/BNav_EC2/DepthDuration/v2_depth_duration_MTurk/v2_DepthDuration_HTML.html#80,80,1364,768,1364,768,8-22-2022,5-36-29,92,depth_duration_stimuli/000929_2014-06-09_16-33-19_260595134347_rgbf000139-resize_0/000929_2014-06-09_16-33-19_260595134347_rgbf000139-resize_0-target.png,1000,2.8680000000000003,1,2664,998,meters,jsons/v1_VE1000_randls_0_rotated.json,689956,814507,26,Man
92,369540,DepthScenes,duration_manipulation_targetAtFixation,jsons/v1_VE1000_randls_0_rotated.json,http://54.235.29.9/FacialAge/BNav_EC2/DepthDuration/v2_depth_duration_MTurk/v2_DepthDuration_HTML.html#80,80,1364,768,1364,768,8-22-2022,5-36-29,93,depth_duration_stimuli/002660_2014-06-13_15-44-18_094959634447_rgbf001878-resize_2/002660_2014-06-13_15-44-18_094959634447_rgbf001878-resize_2-target.png,1000,3.576,3,4234,999,meters,jsons/v1_VE1000_randls_0_rotated.json,689956,814507,26,Man
93,369540,DepthScenes,duration_manipulation_targetAtFixation,jsons/v1_VE1000_randls_0_rotated.json,http://54.235.29.9/FacialAge/BNav_EC2/DepthDuration/v2_depth_duration_MTurk/v2_DepthDuration_HTML.html#80,80,1364,768,1364,768,8-22-2022,5-36-29,94,depth_duration_stimuli/002153_2014-06-25_21-27-18_260595134347_rgbf000038-resize_5/002153_2014-06-25_21-27-18_260595134347_rgbf000038-resize_5-target.png,1000,2.505,2,2115,999,meters,jsons/v1_VE1000_randls_0_rotated.json,689956,814507,26,Man
94,369540,DepthScenes,duration_manipulation_targetAtFixation,jsons/v1_VE1000_randls_0_rotated.json,http://54.235.29.9/FacialAge/BNav_EC2/DepthDuration/v2_depth_duration_MTurk/v2_DepthDuration_HTML.html#80,80,1364,768,1364,768,8-22-2022,5-36-29,95,depth_duration_stimuli/001392_2014-06-19_16-07-59_260595134347_rgbf000046-resize_1/001392_2014-06-19_16-07-59_260595134347_rgbf000046-resize_1-target.png,1000,4.135,2,2697,998,meters,jsons/v1_VE1000_randls_0_rotated.json,689956,814507,26,Man
95,369540,DepthScenes,duration_manipulation_targetAtFixation,jsons/v1_VE1000_randls_0_rotated.json,http://54.235.29.9/FacialAge/BNav_EC2/DepthDuration/v2_depth_duration_MTurk/v2_DepthDuration_HTML.html#80,80,1364,768,1364,768,8-22-2022,5-36-29,96,depth_duration_stimuli/001570_2014-06-20_17-21-09_260595134347_rgbf000135-resize_4/001570_2014-06-20_17-21-09_260595134347_rgbf000135-resize_4-target.png,1000,4.467,1,2618,999,meters,jsons/v1_VE1000_randls_0_rotated.json,689956,814507,26,Man
96,369540,DepthScenes,duration_manipulation_targetAtFixation,jsons/v1_VE1000_randls_0_rotated.json,http://54.235.29.9/FacialAge/BNav_EC2/DepthDuration/v2_depth_duration_MTurk/v2_DepthDuration_HTML.html#80,80,1364,768,1364,768,8-22-2022,5-36-29,97,depth_duration_stimuli/002425_2014-06-28_20-27-29_260595134347_rgbf000031-resize_8/002425_2014-06-28_20-27-29_260595134347_rgbf000031-resize_8-target.png,1000,3.8960000000000004,2,6682,998,meters,jsons/v1_VE1000_randls_0_rotated.json,689956,814507,26,Man
97,369540,DepthScenes,duration_manipulation_targetAtFixation,jsons/v1_VE1000_randls_0_rotated.json,http://54.235.29.9/FacialAge/BNav_EC2/DepthDuration/v2_depth_duration_MTurk/v2_DepthDuration_HTML.html#80,80,1364,768,1364,768,8-22-2022,5-36-29,98,depth_duration_stimuli/000642_2014-06-08_16-59-25_260595134347_rgbf000098-resize_2/000642_2014-06-08_16-59-25_260595134347_rgbf000098-resize_2-target.png,1000,2.8815,1,4153,999,meters,jsons/v1_VE1000_randls_0_rotated.json,689956,814507,26,Man
98,369540,DepthScenes,duration_manipulation_targetAtFixation,jsons/v1_VE1000_randls_0_rotated.json,http://54.235.29.9/FacialAge/BNav_EC2/DepthDuration/v2_depth_duration_MTurk/v2_DepthDuration_HTML.html#80,80,1364,768,1364,768,8-22-2022,5-36-29,99,depth_duration_stimuli/001222_2014-06-17_16-24-06_260595134347_rgbf000073-resize_0/001222_2014-06-17_16-24-06_260595134347_rgbf000073-resize-original.jpg,1000,1.4385,0,2874,999,meters,jsons/v1_VE1000_randls_0_rotated.json,689956,814507,26,Man
99,369540,DepthScenes,duration_manipulation_targetAtFixation,jsons/v1_VE1000_randls_0_rotated.json,http://54.235.29.9/FacialAge/BNav_EC2/DepthDuration/v2_depth_duration_MTurk/v2_DepthDuration_HTML.html#80,80,1364,768,1364,768,8-22-2022,5-36-29,100,depth_duration_stimuli/000103_2014-05-14_22-01-17_260595134347_rgbf000152-resize_5/000103_2014-05-14_22-01-17_260595134347_rgbf000152-resize_5-target.png,1000,1.993,3,3536,998,meters,jsons/v1_VE1000_randls_0_rotated.json,689956,814507,26,Man
100,369540,DepthScenes,duration_manipulation_targetAtFixation,jsons/v1_VE1000_randls_0_rotated.json,http://54.235.29.9/FacialAge/BNav_EC2/DepthDuration/v2_depth_duration_MTurk/v2_DepthDuration_HTML.html#80,80,1364,768,1364,768,8-22-2022,5-36-29,101,depth_duration_stimuli/001555_2014-06-20_17-12-10_260595134347_rgbf000065-resize_4/001555_2014-06-20_17-12-10_260595134347_rgbf000065-resize_4-target.png,1000,1.633,2,2699,999,meters,jsons/v1_VE1000_randls_0_rotated.json,689956,814507,26,Man
101,369540,DepthScenes,duration_manipulation_targetAtFixation,jsons/v1_VE1000_randls_0_rotated.json,http://54.235.29.9/FacialAge/BNav_EC2/DepthDuration/v2_depth_duration_MTurk/v2_DepthDuration_HTML.html#80,80,1364,768,1364,768,8-22-2022,5-36-29,102,depth_duration_stimuli/000734_2014-06-08_17-39-11_260595134347_rgbf000128-resize_2/000734_2014-06-08_17-39-11_260595134347_rgbf000128-resize_2-target.png,1000,4.098,0,2755,999,meters,jsons/v1_VE1000_randls_0_rotated.json,689956,814507,26,Man
102,369540,DepthScenes,duration_manipulation_targetAtFixation,jsons/v1_VE1000_randls_0_rotated.json,http://54.235.29.9/FacialAge/BNav_EC2/DepthDuration/v2_depth_duration_MTurk/v2_DepthDuration_HTML.html#80,80,1364,768,1364,768,8-22-2022,5-36-29,103,depth_duration_stimuli/000739_2014-06-08_18-45-58_260595134347_rgbf000068-resize_1/000739_2014-06-08_18-45-58_260595134347_rgbf000068-resize_1-target.png,1000,3.534,1,3255,999,meters,jsons/v1_VE1000_randls_0_rotated.json,689956,814507,26,Man
103,369540,DepthScenes,duration_manipulation_targetAtFixation,jsons/v1_VE1000_randls_0_rotated.json,http://54.235.29.9/FacialAge/BNav_EC2/DepthDuration/v2_depth_duration_MTurk/v2_DepthDuration_HTML.html#80,80,1364,768,1364,768,8-22-2022,5-36-29,104,depth_duration_stimuli/003079_2014-06-15_15-18-20_094959634447_rgbf000152-resize_8/003079_2014-06-15_15-18-20_094959634447_rgbf000152-resize_8-target.png,1000,2.8775,5,3073,998,meters,jsons/v1_VE1000_randls_0_rotated.json,689956,814507,26,Man
104,369540,DepthScenes,duration_manipulation_targetAtFixation,jsons/v1_VE1000_randls_0_rotated.json,http://54.235.29.9/FacialAge/BNav_EC2/DepthDuration/v2_depth_duration_MTurk/v2_DepthDuration_HTML.html#80,80,1364,768,1364,768,8-22-2022,5-36-29,105,depth_duration_stimuli/000506_2014-06-08_23-21-00_260595134347_rgbf000070-resize_7/000506_2014-06-08_23-21-00_260595134347_rgbf000070-resize_7-target.png,1000,4.0585,4,3050,999,meters,jsons/v1_VE1000_randls_0_rotated.json,689956,814507,26,Man
105,369540,DepthScenes,duration_manipulation_targetAtFixation,jsons/v1_VE1000_randls_0_rotated.json,http://54.235.29.9/FacialAge/BNav_EC2/DepthDuration/v2_depth_duration_MTurk/v2_DepthDuration_HTML.html#80,80,1364,768,1364,768,8-22-2022,5-36-29,106,depth_duration_stimuli/001136_2014-06-17_15-19-41_260595134347_rgbf000076-resize_3/001136_2014-06-17_15-19-41_260595134347_rgbf000076-resize_3-target.png,1000,1.8655,2,3739,999,meters,jsons/v1_VE1000_randls_0_rotated.json,689956,814507,26,Man
106,369540,DepthScenes,duration_manipulation_targetAtFixation,jsons/v1_VE1000_randls_0_rotated.json,http://54.235.29.9/FacialAge/BNav_EC2/DepthDuration/v2_depth_duration_MTurk/v2_DepthDuration_HTML.html#80,80,1364,768,1364,768,8-22-2022,5-36-29,107,depth_duration_stimuli/001164_2014-06-17_15-35-46_260595134347_rgbf000085-resize_3/001164_2014-06-17_15-35-46_260595134347_rgbf000085-resize_3-target.png,1000,2.354,2,7657,998,meters,jsons/v1_VE1000_randls_0_rotated.json,689956,814507,26,Man
107,369540,DepthScenes,duration_manipulation_targetAtFixation,jsons/v1_VE1000_randls_0_rotated.json,http://54.235.29.9/FacialAge/BNav_EC2/DepthDuration/v2_depth_duration_MTurk/v2_DepthDuration_HTML.html#80,80,1364,768,1364,768,8-22-2022,5-36-29,108,depth_duration_stimuli/001815_2014-06-26_20-52-55_260595134347_rgbf000020-resize_0/001815_2014-06-26_20-52-55_260595134347_rgbf000020-resize_0-target.png,1000,3.3865,5,3393,999,meters,jsons/v1_VE1000_randls_0_rotated.json,689956,814507,26,Man
108,369540,DepthScenes,duration_manipulation_targetAtFixation,jsons/v1_VE1000_randls_0_rotated.json,http://54.235.29.9/FacialAge/BNav_EC2/DepthDuration/v2_depth_duration_MTurk/v2_DepthDuration_HTML.html#80,80,1364,768,1364,768,8-22-2022,5-36-29,109,depth_duration_stimuli/001808_2014-06-26_20-50-58_260595134347_rgbf000029-resize_1/001808_2014-06-26_20-50-58_260595134347_rgbf000029-resize_1-target.png,1000,4.249,1,2955,999,meters,jsons/v1_VE1000_randls_0_rotated.json,689956,814507,26,Man
109,369540,DepthScenes,duration_manipulation_targetAtFixation,jsons/v1_VE1000_randls_0_rotated.json,http://54.235.29.9/FacialAge/BNav_EC2/DepthDuration/v2_depth_duration_MTurk/v2_DepthDuration_HTML.html#80,80,1364,768,1364,768,8-22-2022,5-36-29,110,depth_duration_stimuli/002995_2014-06-15_12-31-26_094959634447_rgbf000150-resize_1/002995_2014-06-15_12-31-26_094959634447_rgbf000150-resize_1-target.png,1000,3.8360000000000003,4,3362,999,meters,jsons/v1_VE1000_randls_0_rotated.json,689956,814507,26,Man
110,369540,DepthScenes,duration_manipulation_targetAtFixation,jsons/v1_VE1000_randls_0_rotated.json,http://54.235.29.9/FacialAge/BNav_EC2/DepthDuration/v2_depth_duration_MTurk/v2_DepthDuration_HTML.html#80,80,1364,768,1364,768,8-22-2022,5-36-29,111,depth_duration_stimuli/002748_2014-06-22_19-07-22_094959634447_rgbf000078-resize_1/002748_2014-06-22_19-07-22_094959634447_rgbf000078-resize_1-target.png,1000,4.6705,3,3226,999,meters,jsons/v1_VE1000_randls_0_rotated.json,689956,814507,26,Man
111,369540,DepthScenes,duration_manipulation_targetAtFixation,jsons/v1_VE1000_randls_0_rotated.json,http://54.235.29.9/FacialAge/BNav_EC2/DepthDuration/v2_depth_duration_MTurk/v2_DepthDuration_HTML.html#80,80,1364,768,1364,768,8-22-2022,5-36-29,112,depth_duration_stimuli/002758_2014-06-22_19-11-20_094959634447_rgbf000128-resize_1/002758_2014-06-22_19-11-20_094959634447_rgbf000128-resize_1-target.png,1000,2.555,0,3057,998,meters,jsons/v1_VE1000_randls_0_rotated.json,689956,814507,26,Man
112,369540,DepthScenes,duration_manipulation_targetAtFixation,jsons/v1_VE1000_randls_0_rotated.json,http://54.235.29.9/FacialAge/BNav_EC2/DepthDuration/v2_depth_duration_MTurk/v2_DepthDuration_HTML.html#80,80,1364,768,1364,768,8-22-2022,5-36-29,113,depth_duration_stimuli/002630_2014-06-24_14-47-50_094959634447_rgbf000055-resize_1/002630_2014-06-24_14-47-50_094959634447_rgbf000055-resize_1-target.png,1000,3.0095,1,3377,998,meters,jsons/v1_VE1000_randls_0_rotated.json,689956,814507,26,Man
113,369540,DepthScenes,duration_manipulation_targetAtFixation,jsons/v1_VE1000_randls_0_rotated.json,http://54.235.29.9/FacialAge/BNav_EC2/DepthDuration/v2_depth_duration_MTurk/v2_DepthDuration_HTML.html#80,80,1364,768,1364,768,8-22-2022,5-36-29,114,depth_duration_stimuli/002678_2014-06-13_16-15-32_094959634447_rgbf000151-resize_6/002678_2014-06-13_16-15-32_094959634447_rgbf000151-resize_6-target.png,1000,2.1830000000000003,2,3170,998,meters,jsons/v1_VE1000_randls_0_rotated.json,689956,814507,26,Man
114,369540,DepthScenes,duration_manipulation_targetAtFixation,jsons/v1_VE1000_randls_0_rotated.json,http://54.235.29.9/FacialAge/BNav_EC2/DepthDuration/v2_depth_duration_MTurk/v2_DepthDuration_HTML.html#80,80,1364,768,1364,768,8-22-2022,5-36-29,115,depth_duration_stimuli/000368_2014-06-09_15-53-01_260595134347_rgbf000155-resize_2/000368_2014-06-09_15-53-01_260595134347_rgbf000155-resize_2-target.png,1000,2.4859999999999998,2,5371,999,meters,jsons/v1_VE1000_randls_0_rotated.json,689956,814507,26,Man
115,369540,DepthScenes,duration_manipulation_targetAtFixation,jsons/v1_VE1000_randls_0_rotated.json,http://54.235.29.9/FacialAge/BNav_EC2/DepthDuration/v2_depth_duration_MTurk/v2_DepthDuration_HTML.html#80,80,1364,768,1364,768,8-22-2022,5-36-29,116,depth_duration_stimuli/001828_2014-06-26_21-40-03_260595134347_rgbf000024-resize_0/001828_2014-06-26_21-40-03_260595134347_rgbf000024-resize_0-target.png,1000,4.8260000000000005,4,3298,999,meters,jsons/v1_VE1000_randls_0_rotated.json,689956,814507,26,Man
116,369540,DepthScenes,duration_manipulation_targetAtFixation,jsons/v1_VE1000_randls_0_rotated.json,http://54.235.29.9/FacialAge/BNav_EC2/DepthDuration/v2_depth_duration_MTurk/v2_DepthDuration_HTML.html#80,80,1364,768,1364,768,8-22-2022,5-36-29,117,depth_duration_stimuli/000009_2014-05-26_14-32-05_260595134347_rgbf000034-resize_3/000009_2014-05-26_14-32-05_260595134347_rgbf000034-resize_3-target.png,1000,3.8715,5,4787,998,meters,jsons/v1_VE1000_randls_0_rotated.json,689956,814507,26,Man
117,369540,DepthScenes,duration_manipulation_targetAtFixation,jsons/v1_VE1000_randls_0_rotated.json,http://54.235.29.9/FacialAge/BNav_EC2/DepthDuration/v2_depth_duration_MTurk/v2_DepthDuration_HTML.html#80,80,1364,768,1364,768,8-22-2022,5-36-29,118,depth_duration_stimuli/002657_2014-06-13_15-29-54_094959634447_rgbf000150-resize_1/002657_2014-06-13_15-29-54_094959634447_rgbf000150-resize_1-target.png,1000,4.919,1,3257,999,meters,jsons/v1_VE1000_randls_0_rotated.json,689956,814507,26,Man
118,369540,DepthScenes,duration_manipulation_targetAtFixation,jsons/v1_VE1000_randls_0_rotated.json,http://54.235.29.9/FacialAge/BNav_EC2/DepthDuration/v2_depth_duration_MTurk/v2_DepthDuration_HTML.html#80,80,1364,768,1364,768,8-22-2022,5-36-29,119,depth_duration_stimuli/002375_2014-06-28_20-13-44_260595134347_rgbf000032-resize_1/002375_2014-06-28_20-13-44_260595134347_rgbf000032-resize_1-target.png,1000,4.0175,0,2754,998,meters,jsons/v1_VE1000_randls_0_rotated.json,689956,814507,26,Man
119,369540,DepthScenes,duration_manipulation_targetAtFixation,jsons/v1_VE1000_randls_0_rotated.json,http://54.235.29.9/FacialAge/BNav_EC2/DepthDuration/v2_depth_duration_MTurk/v2_DepthDuration_HTML.html#80,80,1364,768,1364,768,8-22-2022,5-36-29,120,depth_duration_stimuli/000787_2014-06-08_22-33-53_260595134347_rgbf000175-resize_1/000787_2014-06-08_22-33-53_260595134347_rgbf000175-resize-original.jpg,1000,4.784,0,2876,1000,meters,jsons/v1_VE1000_randls_0_rotated.json,689956,814507,26,Man
120,369540,DepthScenes,duration_manipulation_targetAtFixation,jsons/v1_VE1000_randls_0_rotated.json,http://54.235.29.9/FacialAge/BNav_EC2/DepthDuration/v2_depth_duration_MTurk/v2_DepthDuration_HTML.html#80,80,1364,768,1364,768,8-22-2022,5-36-29,121,depth_duration_stimuli/003587_2014-05-23_16-48-02_094959634447_rgbf002384-resize_2/003587_2014-05-23_16-48-02_094959634447_rgbf002384-resize_2-target.png,1000,1.357,1,2754,1000,meters,jsons/v1_VE1000_randls_0_rotated.json,689956,814507,26,Man
121,369540,DepthScenes,duration_manipulation_targetAtFixation,jsons/v1_VE1000_randls_0_rotated.json,http://54.235.29.9/FacialAge/BNav_EC2/DepthDuration/v2_depth_duration_MTurk/v2_DepthDuration_HTML.html#80,80,1364,768,1364,768,8-22-2022,5-36-29,122,depth_duration_stimuli/001167_2014-06-17_15-38-07_260595134347_rgbf000108-resize_0/001167_2014-06-17_15-38-07_260595134347_rgbf000108-resize_0-target.png,1000,1.8505,1,3058,999,meters,jsons/v1_VE1000_randls_0_rotated.json,689956,814507,26,Man
122,369540,DepthScenes,duration_manipulation_targetAtFixation,jsons/v1_VE1000_randls_0_rotated.json,http://54.235.29.9/FacialAge/BNav_EC2/DepthDuration/v2_depth_duration_MTurk/v2_DepthDuration_HTML.html#80,80,1364,768,1364,768,8-22-2022,5-36-29,123,depth_duration_stimuli/003081_2014-06-15_15-19-16_094959634447_rgbf000150-resize_1/003081_2014-06-15_15-19-16_094959634447_rgbf000150-resize_1-target.png,1000,3.9125,3,2642,998,meters,jsons/v1_VE1000_randls_0_rotated.json,689956,814507,26,Man
123,369540,DepthScenes,duration_manipulation_targetAtFixation,jsons/v1_VE1000_randls_0_rotated.json,http://54.235.29.9/FacialAge/BNav_EC2/DepthDuration/v2_depth_duration_MTurk/v2_DepthDuration_HTML.html#80,80,1364,768,1364,768,8-22-2022,5-36-29,124,depth_duration_stimuli/001417_2014-06-19_16-25-36_260595134347_rgbf000115-resize_5/001417_2014-06-19_16-25-36_260595134347_rgbf000115-resize_5-target.png,1000,4.6255,5,2672,998,meters,jsons/v1_VE1000_randls_0_rotated.json,689956,814507,26,Man
124,369540,DepthScenes,duration_manipulation_targetAtFixation,jsons/v1_VE1000_randls_0_rotated.json,http://54.235.29.9/FacialAge/BNav_EC2/DepthDuration/v2_depth_duration_MTurk/v2_DepthDuration_HTML.html#80,80,1364,768,1364,768,8-22-2022,5-36-29,125,depth_duration_stimuli/002953_2014-06-08_17-32-18_094959634447_rgbf000059-resize_5/002953_2014-06-08_17-32-18_094959634447_rgbf000059-resize_5-target.png,1000,1.551,4,4275,998,meters,jsons/v1_VE1000_randls_0_rotated.json,689956,814507,26,Man
125,369540,DepthScenes,duration_manipulation_targetAtFixation,jsons/v1_VE1000_randls_0_rotated.json,http://54.235.29.9/FacialAge/BNav_EC2/DepthDuration/v2_depth_duration_MTurk/v2_DepthDuration_HTML.html#80,80,1364,768,1364,768,8-22-2022,5-36-29,126,depth_duration_stimuli/000878_2014-06-08_22-52-45_260595134347_rgbf000045-resize_2/000878_2014-06-08_22-52-45_260595134347_rgbf000045-resize_2-target.png,1000,2.092,1,3074,999,meters,jsons/v1_VE1000_randls_0_rotated.json,689956,814507,26,Man
126,369540,DepthScenes,duration_manipulation_targetAtFixation,jsons/v1_VE1000_randls_0_rotated.json,http://54.235.29.9/FacialAge/BNav_EC2/DepthDuration/v2_depth_duration_MTurk/v2_DepthDuration_HTML.html#80,80,1364,768,1364,768,8-22-2022,5-36-29,127,depth_duration_stimuli/001650_2014-06-20_12-09-00_260595134347_rgbf000087-resize_3/001650_2014-06-20_12-09-00_260595134347_rgbf000087-resize_3-target.png,1000,1.9505,1,2778,998,meters,jsons/v1_VE1000_randls_0_rotated.json,689956,814507,26,Man
127,369540,DepthScenes,duration_manipulation_targetAtFixation,jsons/v1_VE1000_randls_0_rotated.json,http://54.235.29.9/FacialAge/BNav_EC2/DepthDuration/v2_depth_duration_MTurk/v2_DepthDuration_HTML.html#80,80,1364,768,1364,768,8-22-2022,5-36-29,128,depth_duration_stimuli/000682_2014-06-08_23-14-58_260595134347_rgbf000041-resize_5/000682_2014-06-08_23-14-58_260595134347_rgbf000041-resize_5-target.png,1000,2.7239999999999998,0,3026,999,meters,jsons/v1_VE1000_randls_0_rotated.json,689956,814507,26,Man
128,369540,DepthScenes,duration_manipulation_targetAtFixation,jsons/v1_VE1000_randls_0_rotated.json,http://54.235.29.9/FacialAge/BNav_EC2/DepthDuration/v2_depth_duration_MTurk/v2_DepthDuration_HTML.html#80,80,1364,768,1364,768,8-22-2022,5-36-29,129,depth_duration_stimuli/002199_2014-06-28_18-33-56_260595134347_rgbf000074-resize_0/002199_2014-06-28_18-33-56_260595134347_rgbf000074-resize_0-target.png,1000,1.996,1,2857,999,meters,jsons/v1_VE1000_randls_0_rotated.json,689956,814507,26,Man
129,369540,DepthScenes,duration_manipulation_targetAtFixation,jsons/v1_VE1000_randls_0_rotated.json,http://54.235.29.9/FacialAge/BNav_EC2/DepthDuration/v2_depth_duration_MTurk/v2_DepthDuration_HTML.html#80,80,1364,768,1364,768,8-22-2022,5-36-29,130,depth_duration_stimuli/001056_2014-06-08_18-46-44_260595134347_rgbf000068-resize_0/001056_2014-06-08_18-46-44_260595134347_rgbf000068-resize_0-target.png,1000,2.6625,0,5699,999,meters,jsons/v1_VE1000_randls_0_rotated.json,689956,814507,26,Man
130,369540,DepthScenes,duration_manipulation_targetAtFixation,jsons/v1_VE1000_randls_0_rotated.json,http://54.235.29.9/FacialAge/BNav_EC2/DepthDuration/v2_depth_duration_MTurk/v2_DepthDuration_HTML.html#80,80,1364,768,1364,768,8-22-2022,5-36-29,131,depth_duration_stimuli/001571_2014-06-20_17-21-32_260595134347_rgbf000089-resize_1/001571_2014-06-20_17-21-32_260595134347_rgbf000089-resize_1-target.png,1000,1.86,1,5457,999,meters,jsons/v1_VE1000_randls_0_rotated.json,689956,814507,26,Man
131,369540,DepthScenes,duration_manipulation_targetAtFixation,jsons/v1_VE1000_randls_0_rotated.json,http://54.235.29.9/FacialAge/BNav_EC2/DepthDuration/v2_depth_duration_MTurk/v2_DepthDuration_HTML.html#80,80,1364,768,1364,768,8-22-2022,5-36-29,132,depth_duration_stimuli/002272_2014-06-28_18-53-56_260595134347_rgbf000067-resize_2/002272_2014-06-28_18-53-56_260595134347_rgbf000067-resize_2-target.png,1000,1.138,2,13180,998,meters,jsons/v1_VE1000_randls_0_rotated.json,689956,814507,26,Man
132,369540,DepthScenes,duration_manipulation_targetAtFixation,jsons/v1_VE1000_randls_0_rotated.json,http://54.235.29.9/FacialAge/BNav_EC2/DepthDuration/v2_depth_duration_MTurk/v2_DepthDuration_HTML.html#80,80,1364,768,1364,768,8-22-2022,5-36-29,133,depth_duration_stimuli/001617_2014-06-20_11-35-32_260595134347_rgbf000066-resize_1/001617_2014-06-20_11-35-32_260595134347_rgbf000066-resize_1-target.png,1000,3.7910000000000004,1,2889,999,meters,jsons/v1_VE1000_randls_0_rotated.json,689956,814507,26,Man
133,369540,DepthScenes,duration_manipulation_targetAtFixation,jsons/v1_VE1000_randls_0_rotated.json,http://54.235.29.9/FacialAge/BNav_EC2/DepthDuration/v2_depth_duration_MTurk/v2_DepthDuration_HTML.html#80,80,1364,768,1364,768,8-22-2022,5-36-29,134,depth_duration_stimuli/001806_2014-06-26_20-50-20_260595134347_rgbf000091-resize_1/001806_2014-06-26_20-50-20_260595134347_rgbf000091-resize_1-target.png,1000,2.7305,2,6539,998,meters,jsons/v1_VE1000_randls_0_rotated.json,689956,814507,26,Man
134,369540,DepthScenes,duration_manipulation_targetAtFixation,jsons/v1_VE1000_randls_0_rotated.json,http://54.235.29.9/FacialAge/BNav_EC2/DepthDuration/v2_depth_duration_MTurk/v2_DepthDuration_HTML.html#80,80,1364,768,1364,768,8-22-2022,5-36-29,135,depth_duration_stimuli/000375_2014-06-08_11-17-29_260595134347_rgbf000133-resize_2/000375_2014-06-08_11-17-29_260595134347_rgbf000133-resize-original.jpg,1000,4.718,1,4107,1000,meters,jsons/v1_VE1000_randls_0_rotated.json,689956,814507,26,Man
135,369540,DepthScenes,duration_manipulation_targetAtFixation,jsons/v1_VE1000_randls_0_rotated.json,http://54.235.29.9/FacialAge/BNav_EC2/DepthDuration/v2_depth_duration_MTurk/v2_DepthDuration_HTML.html#80,80,1364,768,1364,768,8-22-2022,5-36-29,136,depth_duration_stimuli/000409_2014-06-04_19-23-33_260595134347_rgbf000067-resize_0/000409_2014-06-04_19-23-33_260595134347_rgbf000067-resize_0-target.png,1000,3.7335,2,3744,998,meters,jsons/v1_VE1000_randls_0_rotated.json,689956,814507,26,Man
136,369540,DepthScenes,duration_manipulation_targetAtFixation,jsons/v1_VE1000_randls_0_rotated.json,http://54.235.29.9/FacialAge/BNav_EC2/DepthDuration/v2_depth_duration_MTurk/v2_DepthDuration_HTML.html#80,80,1364,768,1364,768,8-22-2022,5-36-29,137,depth_duration_stimuli/002663_2014-06-13_15-50-26_094959634447_rgbf000075-resize_1/002663_2014-06-13_15-50-26_094959634447_rgbf000075-resize_1-target.png,1000,4.7495,4,2553,998,meters,jsons/v1_VE1000_randls_0_rotated.json,689956,814507,26,Man
137,369540,DepthScenes,duration_manipulation_targetAtFixation,jsons/v1_VE1000_randls_0_rotated.json,http://54.235.29.9/FacialAge/BNav_EC2/DepthDuration/v2_depth_duration_MTurk/v2_DepthDuration_HTML.html#80,80,1364,768,1364,768,8-22-2022,5-36-29,138,depth_duration_stimuli/000677_2014-06-08_23-10-32_260595134347_rgbf000158-resize_6/000677_2014-06-08_23-10-32_260595134347_rgbf000158-resize_6-target.png,1000,3.556,5,2250,998,meters,jsons/v1_VE1000_randls_0_rotated.json,689956,814507,26,Man
138,369540,DepthScenes,duration_manipulation_targetAtFixation,jsons/v1_VE1000_randls_0_rotated.json,http://54.235.29.9/FacialAge/BNav_EC2/DepthDuration/v2_depth_duration_MTurk/v2_DepthDuration_HTML.html#80,80,1364,768,1364,768,8-22-2022,5-36-29,139,depth_duration_stimuli/001029_2014-06-08_13-17-57_260595134347_rgbf000065-resize_1/001029_2014-06-08_13-17-57_260595134347_rgbf000065-resize_1-target.png,1000,3.0835,1,2601,999,meters,jsons/v1_VE1000_randls_0_rotated.json,689956,814507,26,Man
139,369540,DepthScenes,duration_manipulation_targetAtFixation,jsons/v1_VE1000_randls_0_rotated.json,http://54.235.29.9/FacialAge/BNav_EC2/DepthDuration/v2_depth_duration_MTurk/v2_DepthDuration_HTML.html#80,80,1364,768,1364,768,8-22-2022,5-36-29,140,depth_duration_stimuli/002209_2014-06-28_18-36-10_260595134347_rgbf000051-resize_1/002209_2014-06-28_18-36-10_260595134347_rgbf000051-resize_1-target.png,1000,2.057,0,7314,999,meters,jsons/v1_VE1000_randls_0_rotated.json,689956,814507,26,Man
140,369540,DepthScenes,duration_manipulation_targetAtFixation,jsons/v1_VE1000_randls_0_rotated.json,http://54.235.29.9/FacialAge/BNav_EC2/DepthDuration/v2_depth_duration_MTurk/v2_DepthDuration_HTML.html#80,80,1364,768,1364,768,8-22-2022,5-36-29,141,depth_duration_stimuli/002763_2014-06-22_19-13-10_094959634447_rgbf000075-resize_4/002763_2014-06-22_19-13-10_094959634447_rgbf000075-resize_4-target.png,1000,1.68375,1,2721,999,meters,jsons/v1_VE1000_randls_0_rotated.json,689956,814507,26,Man
141,369540,DepthScenes,duration_manipulation_targetAtFixation,jsons/v1_VE1000_randls_0_rotated.json,http://54.235.29.9/FacialAge/BNav_EC2/DepthDuration/v2_depth_duration_MTurk/v2_DepthDuration_HTML.html#80,80,1364,768,1364,768,8-22-2022,5-36-29,142,depth_duration_stimuli/000749_2014-06-08_21-55-06_260595134347_rgbf000070-resize_2/000749_2014-06-08_21-55-06_260595134347_rgbf000070-resize_2-target.png,1000,2.331,2,2795,999,meters,jsons/v1_VE1000_randls_0_rotated.json,689956,814507,26,Man
142,369540,DepthScenes,duration_manipulation_targetAtFixation,jsons/v1_VE1000_randls_0_rotated.json,http://54.235.29.9/FacialAge/BNav_EC2/DepthDuration/v2_depth_duration_MTurk/v2_DepthDuration_HTML.html#80,80,1364,768,1364,768,8-22-2022,5-36-29,143,depth_duration_stimuli/002788_2014-06-22_19-36-03_094959634447_rgbf000088-resize_2/002788_2014-06-22_19-36-03_094959634447_rgbf000088-resize_2-target.png,1000,1.6465,0,3194,999,meters,jsons/v1_VE1000_randls_0_rotated.json,689956,814507,26,Man
143,369540,DepthScenes,duration_manipulation_targetAtFixation,jsons/v1_VE1000_randls_0_rotated.json,http://54.235.29.9/FacialAge/BNav_EC2/DepthDuration/v2_depth_duration_MTurk/v2_DepthDuration_HTML.html#80,80,1364,768,1364,768,8-22-2022,5-36-29,144,depth_duration_stimuli/003083_2014-06-15_15-21-03_094959634447_rgbf000063-resize_1/003083_2014-06-15_15-21-03_094959634447_rgbf000063-resize_1-target.png,1000,4.1405,5,7946,998,meters,jsons/v1_VE1000_randls_0_rotated.json,689956,814507,26,Man
144,369540,DepthScenes,duration_manipulation_targetAtFixation,jsons/v1_VE1000_randls_0_rotated.json,http://54.235.29.9/FacialAge/BNav_EC2/DepthDuration/v2_depth_duration_MTurk/v2_DepthDuration_HTML.html#80,80,1364,768,1364,768,8-22-2022,5-36-29,145,depth_duration_stimuli/000486_2014-06-09_20-47-20_260595134347_rgbf000143-resize_2/000486_2014-06-09_20-47-20_260595134347_rgbf000143-resize_2-target.png,1000,4.8325,2,2674,999,meters,jsons/v1_VE1000_randls_0_rotated.json,689956,814507,26,Man
145,369540,DepthScenes,duration_manipulation_targetAtFixation,jsons/v1_VE1000_randls_0_rotated.json,http://54.235.29.9/FacialAge/BNav_EC2/DepthDuration/v2_depth_duration_MTurk/v2_DepthDuration_HTML.html#80,80,1364,768,1364,768,8-22-2022,5-36-29,146,depth_duration_stimuli/001214_2014-06-17_16-13-55_260595134347_rgbf000111-resize_0/001214_2014-06-17_16-13-55_260595134347_rgbf000111-resize_0-target.png,1000,2.6505,0,3115,1000,meters,jsons/v1_VE1000_randls_0_rotated.json,689956,814507,26,Man
146,369540,DepthScenes,duration_manipulation_targetAtFixation,jsons/v1_VE1000_randls_0_rotated.json,http://54.235.29.9/FacialAge/BNav_EC2/DepthDuration/v2_depth_duration_MTurk/v2_DepthDuration_HTML.html#80,80,1364,768,1364,768,8-22-2022,5-36-29,147,depth_duration_stimuli/000810_2014-06-08_17-20-01_260595134347_rgbf000105-resize_0/000810_2014-06-08_17-20-01_260595134347_rgbf000105-resize_0-target.png,1000,1.4865,1,2690,998,meters,jsons/v1_VE1000_randls_0_rotated.json,689956,814507,26,Man
147,369540,DepthScenes,duration_manipulation_targetAtFixation,jsons/v1_VE1000_randls_0_rotated.json,http://54.235.29.9/FacialAge/BNav_EC2/DepthDuration/v2_depth_duration_MTurk/v2_DepthDuration_HTML.html#80,80,1364,768,1364,768,8-22-2022,5-36-29,148,depth_duration_stimuli/003338_2014-05-20_11-01-23_094959634447_rgbf000051-resize_6/003338_2014-05-20_11-01-23_094959634447_rgbf000051-resize_6-target.png,1000,1.693,2,4258,999,meters,jsons/v1_VE1000_randls_0_rotated.json,689956,814507,26,Man
148,369540,DepthScenes,duration_manipulation_targetAtFixation,jsons/v1_VE1000_randls_0_rotated.json,http://54.235.29.9/FacialAge/BNav_EC2/DepthDuration/v2_depth_duration_MTurk/v2_DepthDuration_HTML.html#80,80,1364,768,1364,768,8-22-2022,5-36-29,149,depth_duration_stimuli/002509_2014-06-24_13-19-22_094959634447_rgbf000077-resize_0/002509_2014-06-24_13-19-22_094959634447_rgbf000077-resize_0-target.png,1000,1.3065,4,3849,998,meters,jsons/v1_VE1000_randls_0_rotated.json,689956,814507,26,Man
149,369540,DepthScenes,duration_manipulation_targetAtFixation,jsons/v1_VE1000_randls_0_rotated.json,http://54.235.29.9/FacialAge/BNav_EC2/DepthDuration/v2_depth_duration_MTurk/v2_DepthDuration_HTML.html#80,80,1364,768,1364,768,8-22-2022,5-36-29,150,depth_duration_stimuli/000137_2014-05-20_17-04-49_260595134347_rgbf000120-resize_1/000137_2014-05-20_17-04-49_260595134347_rgbf000120-resize_1-target.png,1000,3.786,3,3418,999,meters,jsons/v1_VE1000_randls_0_rotated.json,689956,814507,26,Man
150,369540,DepthScenes,duration_manipulation_targetAtFixation,jsons/v1_VE1000_randls_0_rotated.json,http://54.235.29.9/FacialAge/BNav_EC2/DepthDuration/v2_depth_duration_MTurk/v2_DepthDuration_HTML.html#80,80,1364,768,1364,768,8-22-2022,5-36-29,151,depth_duration_stimuli/000736_2014-06-08_18-24-15_260595134347_rgbf000206-resize_3/000736_2014-06-08_18-24-15_260595134347_rgbf000206-resize_3-target.png,1000,3.515,1,2736,998,meters,jsons/v1_VE1000_randls_0_rotated.json,689956,814507,26,Man
151,369540,DepthScenes,duration_manipulation_targetAtFixation,jsons/v1_VE1000_randls_0_rotated.json,http://54.235.29.9/FacialAge/BNav_EC2/DepthDuration/v2_depth_duration_MTurk/v2_DepthDuration_HTML.html#80,80,1364,768,1364,768,8-22-2022,5-36-29,152,depth_duration_stimuli/000569_2014-06-09_22-51-47_260595134347_rgbf000141-resize_3/000569_2014-06-09_22-51-47_260595134347_rgbf000141-resize-original.jpg,1000,4.512,0,2938,998,meters,jsons/v1_VE1000_randls_0_rotated.json,689956,814507,26,Man
152,369540,DepthScenes,duration_manipulation_targetAtFixation,jsons/v1_VE1000_randls_0_rotated.json,http://54.235.29.9/FacialAge/BNav_EC2/DepthDuration/v2_depth_duration_MTurk/v2_DepthDuration_HTML.html#80,80,1364,768,1364,768,8-22-2022,5-36-29,153,depth_duration_stimuli/001450_2014-06-19_17-02-03_260595134347_rgbf000203-resize_4/001450_2014-06-19_17-02-03_260595134347_rgbf000203-resize_4-target.png,1000,4.0106666666667,3,3074,999,meters,jsons/v1_VE1000_randls_0_rotated.json,689956,814507,26,Man
153,369540,DepthScenes,duration_manipulation_targetAtFixation,jsons/v1_VE1000_randls_0_rotated.json,http://54.235.29.9/FacialAge/BNav_EC2/DepthDuration/v2_depth_duration_MTurk/v2_DepthDuration_HTML.html#80,80,1364,768,1364,768,8-22-2022,5-36-29,154,depth_duration_stimuli/001449_2014-06-19_17-01-27_260595134347_rgbf000116-resize_2/001449_2014-06-19_17-01-27_260595134347_rgbf000116-resize_2-target.png,1000,3.452,2,3152,997,meters,jsons/v1_VE1000_randls_0_rotated.json,689956,814507,26,Man
154,369540,DepthScenes,duration_manipulation_targetAtFixation,jsons/v1_VE1000_randls_0_rotated.json,http://54.235.29.9/FacialAge/BNav_EC2/DepthDuration/v2_depth_duration_MTurk/v2_DepthDuration_HTML.html#80,80,1364,768,1364,768,8-22-2022,5-36-29,155,depth_duration_stimuli/002467_2014-06-28_20-38-07_260595134347_rgbf000026-resize_2/002467_2014-06-28_20-38-07_260595134347_rgbf000026-resize_2-target.png,1000,4.742,1,3874,999,meters,jsons/v1_VE1000_randls_0_rotated.json,689956,814507,26,Man
155,369540,DepthScenes,duration_manipulation_targetAtFixation,jsons/v1_VE1000_randls_0_rotated.json,http://54.235.29.9/FacialAge/BNav_EC2/DepthDuration/v2_depth_duration_MTurk/v2_DepthDuration_HTML.html#80,80,1364,768,1364,768,8-22-2022,5-36-29,156,depth_duration_stimuli/002570_2014-06-24_13-59-54_094959634447_rgbf000059-resize_0/002570_2014-06-24_13-59-54_094959634447_rgbf000059-resize_0-target.png,1000,4.037,1,3307,1000,meters,jsons/v1_VE1000_randls_0_rotated.json,689956,814507,26,Man
156,369540,DepthScenes,duration_manipulation_targetAtFixation,jsons/v1_VE1000_randls_0_rotated.json,http://54.235.29.9/FacialAge/BNav_EC2/DepthDuration/v2_depth_duration_MTurk/v2_DepthDuration_HTML.html#80,80,1364,768,1364,768,8-22-2022,5-36-29,157,depth_duration_stimuli/002323_2014-06-28_20-01-54_260595134347_rgbf000051-resize_4/002323_2014-06-28_20-01-54_260595134347_rgbf000051-resize_4-target.png,1000,3.7310000000000003,0,2953,999,meters,jsons/v1_VE1000_randls_0_rotated.json,689956,814507,26,Man
157,369540,DepthScenes,duration_manipulation_targetAtFixation,jsons/v1_VE1000_randls_0_rotated.json,http://54.235.29.9/FacialAge/BNav_EC2/DepthDuration/v2_depth_duration_MTurk/v2_DepthDuration_HTML.html#80,80,1364,768,1364,768,8-22-2022,5-36-29,158,depth_duration_stimuli/000917_2014-06-09_22-45-29_260595134347_rgbf000149-resize_3/000917_2014-06-09_22-45-29_260595134347_rgbf000149-resize_3-target.png,1000,4.1865,2,3155,999,meters,jsons/v1_VE1000_randls_0_rotated.json,689956,814507,26,Man
158,369540,DepthScenes,duration_manipulation_targetAtFixation,jsons/v1_VE1000_randls_0_rotated.json,http://54.235.29.9/FacialAge/BNav_EC2/DepthDuration/v2_depth_duration_MTurk/v2_DepthDuration_HTML.html#80,80,1364,768,1364,768,8-22-2022,5-36-29,159,depth_duration_stimuli/002136_2014-06-25_21-18-03_260595134347_rgbf000109-resize_3/002136_2014-06-25_21-18-03_260595134347_rgbf000109-resize_3-target.png,1000,1.9569999999999999,3,3554,998,meters,jsons/v1_VE1000_randls_0_rotated.json,689956,814507,26,Man
159,369540,DepthScenes,duration_manipulation_targetAtFixation,jsons/v1_VE1000_randls_0_rotated.json,http://54.235.29.9/FacialAge/BNav_EC2/DepthDuration/v2_depth_duration_MTurk/v2_DepthDuration_HTML.html#80,80,1364,768,1364,768,8-22-2022,5-36-29,160,depth_duration_stimuli/002964_2014-06-08_17-46-11_094959634447_rgbf000091-resize_4/002964_2014-06-08_17-46-11_094959634447_rgbf000091-resize_4-target.png,1000,1.6909999999999998,1,3011,1000,meters,jsons/v1_VE1000_randls_0_rotated.json,689956,814507,26,Man
160,369540,DepthScenes,duration_manipulation_targetAtFixation,jsons/v1_VE1000_randls_0_rotated.json,http://54.235.29.9/FacialAge/BNav_EC2/DepthDuration/v2_depth_duration_MTurk/v2_DepthDuration_HTML.html#80,80,1364,768,1364,768,8-22-2022,5-36-29,161,depth_duration_stimuli/000943_2014-06-09_19-31-07_260595134347_rgbf000128-resize_1/000943_2014-06-09_19-31-07_260595134347_rgbf000128-resize_1-target.png,1000,1.9765,1,3858,999,meters,jsons/v1_VE1000_randls_0_rotated.json,689956,814507,26,Man
161,369540,DepthScenes,duration_manipulation_targetAtFixation,jsons/v1_VE1000_randls_0_rotated.json,http://54.235.29.9/FacialAge/BNav_EC2/DepthDuration/v2_depth_duration_MTurk/v2_DepthDuration_HTML.html#80,80,1364,768,1364,768,8-22-2022,5-36-29,162,depth_duration_stimuli/003070_2014-06-15_14-58-27_094959634447_rgbf000150-resize_3/003070_2014-06-15_14-58-27_094959634447_rgbf000150-resize_3-target.png,1000,2.9415,2,3940,1002,meters,jsons/v1_VE1000_randls_0_rotated.json,689956,814507,26,Man
162,369540,DepthScenes,duration_manipulation_targetAtFixation,jsons/v1_VE1000_randls_0_rotated.json,http://54.235.29.9/FacialAge/BNav_EC2/DepthDuration/v2_depth_duration_MTurk/v2_DepthDuration_HTML.html#80,80,1364,768,1364,768,8-22-2022,5-36-29,163,depth_duration_stimuli/001132_2014-06-17_14-48-54_260595134347_rgbf000100-resize_2/001132_2014-06-17_14-48-54_260595134347_rgbf000100-resize_2-target.png,1000,3.753,1,2673,998,meters,jsons/v1_VE1000_randls_0_rotated.json,689956,814507,26,Man
163,369540,DepthScenes,duration_manipulation_targetAtFixation,jsons/v1_VE1000_randls_0_rotated.json,http://54.235.29.9/FacialAge/BNav_EC2/DepthDuration/v2_depth_duration_MTurk/v2_DepthDuration_HTML.html#80,80,1364,768,1364,768,8-22-2022,5-36-29,164,depth_duration_stimuli/001133_2014-06-17_14-49-16_260595134347_rgbf000100-resize_0/001133_2014-06-17_14-49-16_260595134347_rgbf000100-resize_0-target.png,1000,4.2115,2,3354,999,meters,jsons/v1_VE1000_randls_0_rotated.json,689956,814507,26,Man
