,subjID,experimentName,versionName,sequenceName,url,selected_row,windowWidth,windowHeight,screenWidth,screenHeight,startDate,startTime,trial,stimulus,duration,actual_depth,depth_estimate,trial_RT,log_sceneDuration,unitSelection,seq_filepath,experimentTime,totalTime,age,gender
0,371842,DepthScenes,duration_manipulation_targetAtFixation,jsons/v1_VE1000_randls_58.json,http://54.235.29.9/FacialAge/BNav_EC2/DepthDuration/v2_depth_duration_MTurk/v2_DepthDuration_HTML.html#396,396,2139,1183,2560,1440,8-30-2022,10-1-41,1,depth_duration_stimuli/001029_2014-06-08_13-17-57_260595134347_rgbf000065-resize_1/001029_2014-06-08_13-17-57_260595134347_rgbf000065-resize_1-target.png,1000,3.0835,9.0,5095,998,feet,jsons/v1_VE1000_randls_58.json,749710,939450,58,Woman
1,371842,DepthScenes,duration_manipulation_targetAtFixation,jsons/v1_VE1000_randls_58.json,http://54.235.29.9/FacialAge/BNav_EC2/DepthDuration/v2_depth_duration_MTurk/v2_DepthDuration_HTML.html#396,396,2139,1183,2560,1440,8-30-2022,10-1-41,2,depth_duration_stimuli/000677_2014-06-08_23-10-32_260595134347_rgbf000158-resize_6/000677_2014-06-08_23-10-32_260595134347_rgbf000158-resize_6-target.png,1000,3.556,8.0,4278,998,feet,jsons/v1_VE1000_randls_58.json,749710,939450,58,Woman
2,371842,DepthScenes,duration_manipulation_targetAtFixation,jsons/v1_VE1000_randls_58.json,http://54.235.29.9/FacialAge/BNav_EC2/DepthDuration/v2_depth_duration_MTurk/v2_DepthDuration_HTML.html#396,396,2139,1183,2560,1440,8-30-2022,10-1-41,3,depth_duration_stimuli/000682_2014-06-08_23-14-58_260595134347_rgbf000041-resize_5/000682_2014-06-08_23-14-58_260595134347_rgbf000041-resize_5-target.png,1000,2.7239999999999998,5.0,4116,1005,feet,jsons/v1_VE1000_randls_58.json,749710,939450,58,Woman
3,371842,DepthScenes,duration_manipulation_targetAtFixation,jsons/v1_VE1000_randls_58.json,http://54.235.29.9/FacialAge/BNav_EC2/DepthDuration/v2_depth_duration_MTurk/v2_DepthDuration_HTML.html#396,396,2139,1183,2560,1440,8-30-2022,10-1-41,4,depth_duration_stimuli/001650_2014-06-20_12-09-00_260595134347_rgbf000087-resize_3/001650_2014-06-20_12-09-00_260595134347_rgbf000087-resize_3-target.png,1000,1.9505,3.0,3880,999,feet,jsons/v1_VE1000_randls_58.json,749710,939450,58,Woman
4,371842,DepthScenes,duration_manipulation_targetAtFixation,jsons/v1_VE1000_randls_58.json,http://54.235.29.9/FacialAge/BNav_EC2/DepthDuration/v2_depth_duration_MTurk/v2_DepthDuration_HTML.html#396,396,2139,1183,2560,1440,8-30-2022,10-1-41,5,depth_duration_stimuli/002213_2014-06-28_18-37-58_260595134347_rgbf000055-resize_1/002213_2014-06-28_18-37-58_260595134347_rgbf000055-resize_1-target.png,1000,3.62,14.0,4783,999,feet,jsons/v1_VE1000_randls_58.json,749710,939450,58,Woman
5,371842,DepthScenes,duration_manipulation_targetAtFixation,jsons/v1_VE1000_randls_58.json,http://54.235.29.9/FacialAge/BNav_EC2/DepthDuration/v2_depth_duration_MTurk/v2_DepthDuration_HTML.html#396,396,2139,1183,2560,1440,8-30-2022,10-1-41,6,depth_duration_stimuli/000691_2014-06-08_13-08-50_260595134347_rgbf000132-resize_3/000691_2014-06-08_13-08-50_260595134347_rgbf000132-resize_3-target.png,1000,4.1530000000000005,11.0,4227,1003,feet,jsons/v1_VE1000_randls_58.json,749710,939450,58,Woman
6,371842,DepthScenes,duration_manipulation_targetAtFixation,jsons/v1_VE1000_randls_58.json,http://54.235.29.9/FacialAge/BNav_EC2/DepthDuration/v2_depth_duration_MTurk/v2_DepthDuration_HTML.html#396,396,2139,1183,2560,1440,8-30-2022,10-1-41,7,depth_duration_stimuli/000739_2014-06-08_18-45-58_260595134347_rgbf000068-resize_1/000739_2014-06-08_18-45-58_260595134347_rgbf000068-resize_1-target.png,1000,3.534,8.0,3952,1000,feet,jsons/v1_VE1000_randls_58.json,749710,939450,58,Woman
7,371842,DepthScenes,duration_manipulation_targetAtFixation,jsons/v1_VE1000_randls_58.json,http://54.235.29.9/FacialAge/BNav_EC2/DepthDuration/v2_depth_duration_MTurk/v2_DepthDuration_HTML.html#396,396,2139,1183,2560,1440,8-30-2022,10-1-41,8,depth_duration_stimuli/000734_2014-06-08_17-39-11_260595134347_rgbf000128-resize_2/000734_2014-06-08_17-39-11_260595134347_rgbf000128-resize_2-target.png,1000,4.098,7.0,3366,1000,feet,jsons/v1_VE1000_randls_58.json,749710,939450,58,Woman
8,371842,DepthScenes,duration_manipulation_targetAtFixation,jsons/v1_VE1000_randls_58.json,http://54.235.29.9/FacialAge/BNav_EC2/DepthDuration/v2_depth_duration_MTurk/v2_DepthDuration_HTML.html#396,396,2139,1183,2560,1440,8-30-2022,10-1-41,9,depth_duration_stimuli/000773_2014-06-08_22-24-54_260595134347_rgbf000093-resize_1/000773_2014-06-08_22-24-54_260595134347_rgbf000093-resize_1-target.png,1000,4.973,12.0,3977,1002,feet,jsons/v1_VE1000_randls_58.json,749710,939450,58,Woman
9,371842,DepthScenes,duration_manipulation_targetAtFixation,jsons/v1_VE1000_randls_58.json,http://54.235.29.9/FacialAge/BNav_EC2/DepthDuration/v2_depth_duration_MTurk/v2_DepthDuration_HTML.html#396,396,2139,1183,2560,1440,8-30-2022,10-1-41,10,depth_duration_stimuli/002414_2014-06-28_20-24-58_260595134347_rgbf000067-resize_4/002414_2014-06-28_20-24-58_260595134347_rgbf000067-resize_4-target.png,1000,4.363,15.0,5688,995,feet,jsons/v1_VE1000_randls_58.json,749710,939450,58,Woman
10,371842,DepthScenes,duration_manipulation_targetAtFixation,jsons/v1_VE1000_randls_58.json,http://54.235.29.9/FacialAge/BNav_EC2/DepthDuration/v2_depth_duration_MTurk/v2_DepthDuration_HTML.html#396,396,2139,1183,2560,1440,8-30-2022,10-1-41,11,depth_duration_stimuli/002988_2014-06-15_12-24-20_094959634447_rgbf000150-resize_1/002988_2014-06-15_12-24-20_094959634447_rgbf000150-resize_1-target.png,1000,4.7669999999999995,18.0,5071,998,feet,jsons/v1_VE1000_randls_58.json,749710,939450,58,Woman
11,371842,DepthScenes,duration_manipulation_targetAtFixation,jsons/v1_VE1000_randls_58.json,http://54.235.29.9/FacialAge/BNav_EC2/DepthDuration/v2_depth_duration_MTurk/v2_DepthDuration_HTML.html#396,396,2139,1183,2560,1440,8-30-2022,10-1-41,12,depth_duration_stimuli/001052_2014-06-08_18-24-54_260595134347_rgbf000130-resize_1/001052_2014-06-08_18-24-54_260595134347_rgbf000130-resize_1-target.png,1000,4.1045,13.0,4146,999,feet,jsons/v1_VE1000_randls_58.json,749710,939450,58,Woman
12,371842,DepthScenes,duration_manipulation_targetAtFixation,jsons/v1_VE1000_randls_58.json,http://54.235.29.9/FacialAge/BNav_EC2/DepthDuration/v2_depth_duration_MTurk/v2_DepthDuration_HTML.html#396,396,2139,1183,2560,1440,8-30-2022,10-1-41,13,depth_duration_stimuli/000569_2014-06-09_22-51-47_260595134347_rgbf000141-resize_3/000569_2014-06-09_22-51-47_260595134347_rgbf000141-resize-original.jpg,1000,4.512,0.0,3928,998,feet,jsons/v1_VE1000_randls_58.json,749710,939450,58,Woman
13,371842,DepthScenes,duration_manipulation_targetAtFixation,jsons/v1_VE1000_randls_58.json,http://54.235.29.9/FacialAge/BNav_EC2/DepthDuration/v2_depth_duration_MTurk/v2_DepthDuration_HTML.html#396,396,2139,1183,2560,1440,8-30-2022,10-1-41,14,depth_duration_stimuli/001806_2014-06-26_20-50-20_260595134347_rgbf000091-resize_1/001806_2014-06-26_20-50-20_260595134347_rgbf000091-resize_1-target.png,1000,2.7305,5.0,7323,1002,feet,jsons/v1_VE1000_randls_58.json,749710,939450,58,Woman
14,371842,DepthScenes,duration_manipulation_targetAtFixation,jsons/v1_VE1000_randls_58.json,http://54.235.29.9/FacialAge/BNav_EC2/DepthDuration/v2_depth_duration_MTurk/v2_DepthDuration_HTML.html#396,396,2139,1183,2560,1440,8-30-2022,10-1-41,15,depth_duration_stimuli/001617_2014-06-20_11-35-32_260595134347_rgbf000066-resize_1/001617_2014-06-20_11-35-32_260595134347_rgbf000066-resize_1-target.png,1000,3.7910000000000004,7.0,3241,1000,feet,jsons/v1_VE1000_randls_58.json,749710,939450,58,Woman
15,371842,DepthScenes,duration_manipulation_targetAtFixation,jsons/v1_VE1000_randls_58.json,http://54.235.29.9/FacialAge/BNav_EC2/DepthDuration/v2_depth_duration_MTurk/v2_DepthDuration_HTML.html#396,396,2139,1183,2560,1440,8-30-2022,10-1-41,16,depth_duration_stimuli/001244_2014-06-17_16-47-45_260595134347_rgbf000030-resize_4/001244_2014-06-17_16-47-45_260595134347_rgbf000030-resize_4-target.png,1000,2.0425,4.0,3833,998,feet,jsons/v1_VE1000_randls_58.json,749710,939450,58,Woman
16,371842,DepthScenes,duration_manipulation_targetAtFixation,jsons/v1_VE1000_randls_58.json,http://54.235.29.9/FacialAge/BNav_EC2/DepthDuration/v2_depth_duration_MTurk/v2_DepthDuration_HTML.html#396,396,2139,1183,2560,1440,8-30-2022,10-1-41,17,depth_duration_stimuli/003495_2014-05-21_16-01-51_094959634447_rgbf000100-resize_3/003495_2014-05-21_16-01-51_094959634447_rgbf000100-resize_3-target.png,1000,1.6255,4.0,3544,998,feet,jsons/v1_VE1000_randls_58.json,749710,939450,58,Woman
17,371842,DepthScenes,duration_manipulation_targetAtFixation,jsons/v1_VE1000_randls_58.json,http://54.235.29.9/FacialAge/BNav_EC2/DepthDuration/v2_depth_duration_MTurk/v2_DepthDuration_HTML.html#396,396,2139,1183,2560,1440,8-30-2022,10-1-41,18,depth_duration_stimuli/002725_2014-06-22_11-47-51_094959634447_rgbf000070-resize_1/002725_2014-06-22_11-47-51_094959634447_rgbf000070-resize_1-target.png,1000,2.195,3.5,5474,999,feet,jsons/v1_VE1000_randls_58.json,749710,939450,58,Woman
18,371842,DepthScenes,duration_manipulation_targetAtFixation,jsons/v1_VE1000_randls_58.json,http://54.235.29.9/FacialAge/BNav_EC2/DepthDuration/v2_depth_duration_MTurk/v2_DepthDuration_HTML.html#396,396,2139,1183,2560,1440,8-30-2022,10-1-41,19,depth_duration_stimuli/002344_2014-06-28_20-06-29_260595134347_rgbf000030-resize_1/002344_2014-06-28_20-06-29_260595134347_rgbf000030-resize_1-target.png,1000,1.5795,3.0,3649,999,feet,jsons/v1_VE1000_randls_58.json,749710,939450,58,Woman
19,371842,DepthScenes,duration_manipulation_targetAtFixation,jsons/v1_VE1000_randls_58.json,http://54.235.29.9/FacialAge/BNav_EC2/DepthDuration/v2_depth_duration_MTurk/v2_DepthDuration_HTML.html#396,396,2139,1183,2560,1440,8-30-2022,10-1-41,20,depth_duration_stimuli/001092_2014-06-15_17-34-58_260595134347_rgbf000171-resize_3/001092_2014-06-15_17-34-58_260595134347_rgbf000171-resize_3-target.png,1000,2.6935,5.0,3730,998,feet,jsons/v1_VE1000_randls_58.json,749710,939450,58,Woman
20,371842,DepthScenes,duration_manipulation_targetAtFixation,jsons/v1_VE1000_randls_58.json,http://54.235.29.9/FacialAge/BNav_EC2/DepthDuration/v2_depth_duration_MTurk/v2_DepthDuration_HTML.html#396,396,2139,1183,2560,1440,8-30-2022,10-1-41,21,depth_duration_stimuli/002545_2014-06-24_13-38-53_094959634447_rgbf000080-resize_4/002545_2014-06-24_13-38-53_094959634447_rgbf000080-resize_4-target.png,1000,1.9205,4.0,3160,1000,feet,jsons/v1_VE1000_randls_58.json,749710,939450,58,Woman
21,371842,DepthScenes,duration_manipulation_targetAtFixation,jsons/v1_VE1000_randls_58.json,http://54.235.29.9/FacialAge/BNav_EC2/DepthDuration/v2_depth_duration_MTurk/v2_DepthDuration_HTML.html#396,396,2139,1183,2560,1440,8-30-2022,10-1-41,22,depth_duration_stimuli/000493_2014-06-09_21-01-18_260595134347_rgbf000196-resize_3/000493_2014-06-09_21-01-18_260595134347_rgbf000196-resize_3-target.png,1000,3.44,11.0,3665,1000,feet,jsons/v1_VE1000_randls_58.json,749710,939450,58,Woman
22,371842,DepthScenes,duration_manipulation_targetAtFixation,jsons/v1_VE1000_randls_58.json,http://54.235.29.9/FacialAge/BNav_EC2/DepthDuration/v2_depth_duration_MTurk/v2_DepthDuration_HTML.html#396,396,2139,1183,2560,1440,8-30-2022,10-1-41,23,depth_duration_stimuli/000191_2014-05-12_17-07-38_260595134347_rgbf000199-resize_0/000191_2014-05-12_17-07-38_260595134347_rgbf000199-resize_0-target.png,1000,3.7995,12.0,3772,1000,feet,jsons/v1_VE1000_randls_58.json,749710,939450,58,Woman
23,371842,DepthScenes,duration_manipulation_targetAtFixation,jsons/v1_VE1000_randls_58.json,http://54.235.29.9/FacialAge/BNav_EC2/DepthDuration/v2_depth_duration_MTurk/v2_DepthDuration_HTML.html#396,396,2139,1183,2560,1440,8-30-2022,10-1-41,24,depth_duration_stimuli/000788_2014-06-08_22-34-36_260595134347_rgbf000131-resize_1/000788_2014-06-08_22-34-36_260595134347_rgbf000131-resize_1-target.png,1000,3.359,10.0,6233,999,feet,jsons/v1_VE1000_randls_58.json,749710,939450,58,Woman
24,371842,DepthScenes,duration_manipulation_targetAtFixation,jsons/v1_VE1000_randls_58.json,http://54.235.29.9/FacialAge/BNav_EC2/DepthDuration/v2_depth_duration_MTurk/v2_DepthDuration_HTML.html#396,396,2139,1183,2560,1440,8-30-2022,10-1-41,25,depth_duration_stimuli/001235_2014-06-17_16-37-36_260595134347_rgbf000084-resize_4/001235_2014-06-17_16-37-36_260595134347_rgbf000084-resize_4-target.png,1000,3.6605,9.0,3491,1002,feet,jsons/v1_VE1000_randls_58.json,749710,939450,58,Woman
25,371842,DepthScenes,duration_manipulation_targetAtFixation,jsons/v1_VE1000_randls_58.json,http://54.235.29.9/FacialAge/BNav_EC2/DepthDuration/v2_depth_duration_MTurk/v2_DepthDuration_HTML.html#396,396,2139,1183,2560,1440,8-30-2022,10-1-41,26,depth_duration_stimuli/002118_2014-06-25_20-32-08_260595134347_rgbf000078-resize_1/002118_2014-06-25_20-32-08_260595134347_rgbf000078-resize_1-target.png,1000,2.6460000000000004,7.0,4073,998,feet,jsons/v1_VE1000_randls_58.json,749710,939450,58,Woman
26,371842,DepthScenes,duration_manipulation_targetAtFixation,jsons/v1_VE1000_randls_58.json,http://54.235.29.9/FacialAge/BNav_EC2/DepthDuration/v2_depth_duration_MTurk/v2_DepthDuration_HTML.html#396,396,2139,1183,2560,1440,8-30-2022,10-1-41,27,depth_duration_stimuli/001516_2014-06-20_16-25-09_260595134347_rgbf000076-resize_2/001516_2014-06-20_16-25-09_260595134347_rgbf000076-resize_2-target.png,1000,1.7445,4.0,4105,1001,feet,jsons/v1_VE1000_randls_58.json,749710,939450,58,Woman
27,371842,DepthScenes,duration_manipulation_targetAtFixation,jsons/v1_VE1000_randls_58.json,http://54.235.29.9/FacialAge/BNav_EC2/DepthDuration/v2_depth_duration_MTurk/v2_DepthDuration_HTML.html#396,396,2139,1183,2560,1440,8-30-2022,10-1-41,28,depth_duration_stimuli/000522_2014-06-08_13-35-06_260595134347_rgbf000244-resize_1/000522_2014-06-08_13-35-06_260595134347_rgbf000244-resize_1-target.png,1000,2.3715,2.5,5051,1002,feet,jsons/v1_VE1000_randls_58.json,749710,939450,58,Woman
28,371842,DepthScenes,duration_manipulation_targetAtFixation,jsons/v1_VE1000_randls_58.json,http://54.235.29.9/FacialAge/BNav_EC2/DepthDuration/v2_depth_duration_MTurk/v2_DepthDuration_HTML.html#396,396,2139,1183,2560,1440,8-30-2022,10-1-41,29,depth_duration_stimuli/002949_2014-06-26_15-57-42_094959634447_rgbf000079-resize_1/002949_2014-06-26_15-57-42_094959634447_rgbf000079-resize_1-target.png,1000,1.8915,3.0,4680,996,feet,jsons/v1_VE1000_randls_58.json,749710,939450,58,Woman
29,371842,DepthScenes,duration_manipulation_targetAtFixation,jsons/v1_VE1000_randls_58.json,http://54.235.29.9/FacialAge/BNav_EC2/DepthDuration/v2_depth_duration_MTurk/v2_DepthDuration_HTML.html#396,396,2139,1183,2560,1440,8-30-2022,10-1-41,30,depth_duration_stimuli/000375_2014-06-08_11-17-29_260595134347_rgbf000133-resize_2/000375_2014-06-08_11-17-29_260595134347_rgbf000133-resize-original.jpg,1000,4.718,0.0,4043,999,feet,jsons/v1_VE1000_randls_58.json,749710,939450,58,Woman
30,371842,DepthScenes,duration_manipulation_targetAtFixation,jsons/v1_VE1000_randls_58.json,http://54.235.29.9/FacialAge/BNav_EC2/DepthDuration/v2_depth_duration_MTurk/v2_DepthDuration_HTML.html#396,396,2139,1183,2560,1440,8-30-2022,10-1-41,31,depth_duration_stimuli/002375_2014-06-28_20-13-44_260595134347_rgbf000032-resize_1/002375_2014-06-28_20-13-44_260595134347_rgbf000032-resize_1-target.png,1000,4.0175,8.0,5271,996,feet,jsons/v1_VE1000_randls_58.json,749710,939450,58,Woman
31,371842,DepthScenes,duration_manipulation_targetAtFixation,jsons/v1_VE1000_randls_58.json,http://54.235.29.9/FacialAge/BNav_EC2/DepthDuration/v2_depth_duration_MTurk/v2_DepthDuration_HTML.html#396,396,2139,1183,2560,1440,8-30-2022,10-1-41,32,depth_duration_stimuli/002657_2014-06-13_15-29-54_094959634447_rgbf000150-resize_1/002657_2014-06-13_15-29-54_094959634447_rgbf000150-resize_1-target.png,1000,4.919,10.0,4456,997,feet,jsons/v1_VE1000_randls_58.json,749710,939450,58,Woman
32,371842,DepthScenes,duration_manipulation_targetAtFixation,jsons/v1_VE1000_randls_58.json,http://54.235.29.9/FacialAge/BNav_EC2/DepthDuration/v2_depth_duration_MTurk/v2_DepthDuration_HTML.html#396,396,2139,1183,2560,1440,8-30-2022,10-1-41,33,depth_duration_stimuli/002445_2014-06-28_20-32-16_260595134347_rgbf000029-resize_4/002445_2014-06-28_20-32-16_260595134347_rgbf000029-resize_4-target.png,1000,2.5315,5.0,4224,999,feet,jsons/v1_VE1000_randls_58.json,749710,939450,58,Woman
33,371842,DepthScenes,duration_manipulation_targetAtFixation,jsons/v1_VE1000_randls_58.json,http://54.235.29.9/FacialAge/BNav_EC2/DepthDuration/v2_depth_duration_MTurk/v2_DepthDuration_HTML.html#396,396,2139,1183,2560,1440,8-30-2022,10-1-41,34,depth_duration_stimuli/000780_2014-06-08_22-28-29_260595134347_rgbf000126-resize_1/000780_2014-06-08_22-28-29_260595134347_rgbf000126-resize_1-target.png,1000,3.3825,10.0,4329,1000,feet,jsons/v1_VE1000_randls_58.json,749710,939450,58,Woman
34,371842,DepthScenes,duration_manipulation_targetAtFixation,jsons/v1_VE1000_randls_58.json,http://54.235.29.9/FacialAge/BNav_EC2/DepthDuration/v2_depth_duration_MTurk/v2_DepthDuration_HTML.html#396,396,2139,1183,2560,1440,8-30-2022,10-1-41,35,depth_duration_stimuli/002509_2014-06-24_13-19-22_094959634447_rgbf000077-resize_0/002509_2014-06-24_13-19-22_094959634447_rgbf000077-resize_0-target.png,1000,1.3065,3.0,3804,1000,feet,jsons/v1_VE1000_randls_58.json,749710,939450,58,Woman
35,371842,DepthScenes,duration_manipulation_targetAtFixation,jsons/v1_VE1000_randls_58.json,http://54.235.29.9/FacialAge/BNav_EC2/DepthDuration/v2_depth_duration_MTurk/v2_DepthDuration_HTML.html#396,396,2139,1183,2560,1440,8-30-2022,10-1-41,36,depth_duration_stimuli/003338_2014-05-20_11-01-23_094959634447_rgbf000051-resize_6/003338_2014-05-20_11-01-23_094959634447_rgbf000051-resize_6-target.png,1000,1.693,2.0,3825,999,feet,jsons/v1_VE1000_randls_58.json,749710,939450,58,Woman
36,371842,DepthScenes,duration_manipulation_targetAtFixation,jsons/v1_VE1000_randls_58.json,http://54.235.29.9/FacialAge/BNav_EC2/DepthDuration/v2_depth_duration_MTurk/v2_DepthDuration_HTML.html#396,396,2139,1183,2560,1440,8-30-2022,10-1-41,37,depth_duration_stimuli/003070_2014-06-15_14-58-27_094959634447_rgbf000150-resize_3/003070_2014-06-15_14-58-27_094959634447_rgbf000150-resize_3-target.png,1000,2.9415,9.0,3624,998,feet,jsons/v1_VE1000_randls_58.json,749710,939450,58,Woman
37,371842,DepthScenes,duration_manipulation_targetAtFixation,jsons/v1_VE1000_randls_58.json,http://54.235.29.9/FacialAge/BNav_EC2/DepthDuration/v2_depth_duration_MTurk/v2_DepthDuration_HTML.html#396,396,2139,1183,2560,1440,8-30-2022,10-1-41,38,depth_duration_stimuli/000943_2014-06-09_19-31-07_260595134347_rgbf000128-resize_1/000943_2014-06-09_19-31-07_260595134347_rgbf000128-resize_1-target.png,1000,1.9765,3.0,3530,1001,feet,jsons/v1_VE1000_randls_58.json,749710,939450,58,Woman
38,371842,DepthScenes,duration_manipulation_targetAtFixation,jsons/v1_VE1000_randls_58.json,http://54.235.29.9/FacialAge/BNav_EC2/DepthDuration/v2_depth_duration_MTurk/v2_DepthDuration_HTML.html#396,396,2139,1183,2560,1440,8-30-2022,10-1-41,39,depth_duration_stimuli/001449_2014-06-19_17-01-27_260595134347_rgbf000116-resize_2/001449_2014-06-19_17-01-27_260595134347_rgbf000116-resize_2-target.png,1000,3.452,5.0,7169,1001,feet,jsons/v1_VE1000_randls_58.json,749710,939450,58,Woman
39,371842,DepthScenes,duration_manipulation_targetAtFixation,jsons/v1_VE1000_randls_58.json,http://54.235.29.9/FacialAge/BNav_EC2/DepthDuration/v2_depth_duration_MTurk/v2_DepthDuration_HTML.html#396,396,2139,1183,2560,1440,8-30-2022,10-1-41,40,depth_duration_stimuli/001450_2014-06-19_17-02-03_260595134347_rgbf000203-resize_4/001450_2014-06-19_17-02-03_260595134347_rgbf000203-resize_4-target.png,1000,4.0106666666667,11.0,5154,1004,feet,jsons/v1_VE1000_randls_58.json,749710,939450,58,Woman
40,371842,DepthScenes,duration_manipulation_targetAtFixation,jsons/v1_VE1000_randls_58.json,http://54.235.29.9/FacialAge/BNav_EC2/DepthDuration/v2_depth_duration_MTurk/v2_DepthDuration_HTML.html#396,396,2139,1183,2560,1440,8-30-2022,10-1-41,41,depth_duration_stimuli/000692_2014-06-08_13-09-42_260595134347_rgbf000199-resize_2/000692_2014-06-08_13-09-42_260595134347_rgbf000199-resize_2-target.png,1000,3.661,20.0,4128,997,feet,jsons/v1_VE1000_randls_58.json,749710,939450,58,Woman
41,371842,DepthScenes,duration_manipulation_targetAtFixation,jsons/v1_VE1000_randls_58.json,http://54.235.29.9/FacialAge/BNav_EC2/DepthDuration/v2_depth_duration_MTurk/v2_DepthDuration_HTML.html#396,396,2139,1183,2560,1440,8-30-2022,10-1-41,42,depth_duration_stimuli/001094_2014-06-15_17-36-00_260595134347_rgbf000205-resize_0/001094_2014-06-15_17-36-00_260595134347_rgbf000205-resize_0-target.png,1000,4.2175,13.0,4391,995,feet,jsons/v1_VE1000_randls_58.json,749710,939450,58,Woman
42,371842,DepthScenes,duration_manipulation_targetAtFixation,jsons/v1_VE1000_randls_58.json,http://54.235.29.9/FacialAge/BNav_EC2/DepthDuration/v2_depth_duration_MTurk/v2_DepthDuration_HTML.html#396,396,2139,1183,2560,1440,8-30-2022,10-1-41,43,depth_duration_stimuli/000436_2014-06-09_22-25-11_260595134347_rgbf000137-resize_1/000436_2014-06-09_22-25-11_260595134347_rgbf000137-resize_1-target.png,1000,4.0705,16.0,4494,995,feet,jsons/v1_VE1000_randls_58.json,749710,939450,58,Woman
43,371842,DepthScenes,duration_manipulation_targetAtFixation,jsons/v1_VE1000_randls_58.json,http://54.235.29.9/FacialAge/BNav_EC2/DepthDuration/v2_depth_duration_MTurk/v2_DepthDuration_HTML.html#396,396,2139,1183,2560,1440,8-30-2022,10-1-41,44,depth_duration_stimuli/002444_2014-06-28_20-32-08_260595134347_rgbf000027-resize_0/002444_2014-06-28_20-32-08_260595134347_rgbf000027-resize_0-target.png,1000,4.388999999999999,15.0,4010,1000,feet,jsons/v1_VE1000_randls_58.json,749710,939450,58,Woman
44,371842,DepthScenes,duration_manipulation_targetAtFixation,jsons/v1_VE1000_randls_58.json,http://54.235.29.9/FacialAge/BNav_EC2/DepthDuration/v2_depth_duration_MTurk/v2_DepthDuration_HTML.html#396,396,2139,1183,2560,1440,8-30-2022,10-1-41,45,depth_duration_stimuli/000787_2014-06-08_22-33-53_260595134347_rgbf000175-resize_1/000787_2014-06-08_22-33-53_260595134347_rgbf000175-resize-original.jpg,1000,4.784,0.0,3774,999,feet,jsons/v1_VE1000_randls_58.json,749710,939450,58,Woman
45,371842,DepthScenes,duration_manipulation_targetAtFixation,jsons/v1_VE1000_randls_58.json,http://54.235.29.9/FacialAge/BNav_EC2/DepthDuration/v2_depth_duration_MTurk/v2_DepthDuration_HTML.html#396,396,2139,1183,2560,1440,8-30-2022,10-1-41,46,depth_duration_stimuli/002600_2014-06-24_14-27-04_094959634447_rgbf000074-resize_2/002600_2014-06-24_14-27-04_094959634447_rgbf000074-resize_2-target.png,1000,2.7575,10.0,4255,999,feet,jsons/v1_VE1000_randls_58.json,749710,939450,58,Woman
46,371842,DepthScenes,duration_manipulation_targetAtFixation,jsons/v1_VE1000_randls_58.json,http://54.235.29.9/FacialAge/BNav_EC2/DepthDuration/v2_depth_duration_MTurk/v2_DepthDuration_HTML.html#396,396,2139,1183,2560,1440,8-30-2022,10-1-41,47,depth_duration_stimuli/003228_2014-05-14_13-42-35_094959634447_rgbf000101-resize_1/003228_2014-05-14_13-42-35_094959634447_rgbf000101-resize_1-target.png,1000,1.9680000000000002,4.0,3681,1001,feet,jsons/v1_VE1000_randls_58.json,749710,939450,58,Woman
47,371842,DepthScenes,duration_manipulation_targetAtFixation,jsons/v1_VE1000_randls_58.json,http://54.235.29.9/FacialAge/BNav_EC2/DepthDuration/v2_depth_duration_MTurk/v2_DepthDuration_HTML.html#396,396,2139,1183,2560,1440,8-30-2022,10-1-41,48,depth_duration_stimuli/001150_2014-06-17_15-27-34_260595134347_rgbf000108-resize_2/001150_2014-06-17_15-27-34_260595134347_rgbf000108-resize_2-target.png,1000,4.0325,8.0,3591,998,feet,jsons/v1_VE1000_randls_58.json,749710,939450,58,Woman
48,371842,DepthScenes,duration_manipulation_targetAtFixation,jsons/v1_VE1000_randls_58.json,http://54.235.29.9/FacialAge/BNav_EC2/DepthDuration/v2_depth_duration_MTurk/v2_DepthDuration_HTML.html#396,396,2139,1183,2560,1440,8-30-2022,10-1-41,49,depth_duration_stimuli/000665_2014-06-09_20-42-35_260595134347_rgbf000110-resize_1/000665_2014-06-09_20-42-35_260595134347_rgbf000110-resize_1-target.png,1000,3.057,7.0,3529,996,feet,jsons/v1_VE1000_randls_58.json,749710,939450,58,Woman
49,371842,DepthScenes,duration_manipulation_targetAtFixation,jsons/v1_VE1000_randls_58.json,http://54.235.29.9/FacialAge/BNav_EC2/DepthDuration/v2_depth_duration_MTurk/v2_DepthDuration_HTML.html#396,396,2139,1183,2560,1440,8-30-2022,10-1-41,50,depth_duration_stimuli/000810_2014-06-08_17-20-01_260595134347_rgbf000105-resize_0/000810_2014-06-08_17-20-01_260595134347_rgbf000105-resize_0-target.png,1000,1.4865,4.0,3728,999,feet,jsons/v1_VE1000_randls_58.json,749710,939450,58,Woman
50,371842,DepthScenes,duration_manipulation_targetAtFixation,jsons/v1_VE1000_randls_58.json,http://54.235.29.9/FacialAge/BNav_EC2/DepthDuration/v2_depth_duration_MTurk/v2_DepthDuration_HTML.html#396,396,2139,1183,2560,1440,8-30-2022,10-1-41,51,depth_duration_stimuli/001214_2014-06-17_16-13-55_260595134347_rgbf000111-resize_0/001214_2014-06-17_16-13-55_260595134347_rgbf000111-resize_0-target.png,1000,2.6505,4.5,4841,1000,feet,jsons/v1_VE1000_randls_58.json,749710,939450,58,Woman
51,371842,DepthScenes,duration_manipulation_targetAtFixation,jsons/v1_VE1000_randls_58.json,http://54.235.29.9/FacialAge/BNav_EC2/DepthDuration/v2_depth_duration_MTurk/v2_DepthDuration_HTML.html#396,396,2139,1183,2560,1440,8-30-2022,10-1-41,52,depth_duration_stimuli/001175_2014-06-17_15-45-55_260595134347_rgbf000129-resize_4/001175_2014-06-17_15-45-55_260595134347_rgbf000129-resize_4-target.png,1000,4.255,16.0,3834,999,feet,jsons/v1_VE1000_randls_58.json,749710,939450,58,Woman
52,371842,DepthScenes,duration_manipulation_targetAtFixation,jsons/v1_VE1000_randls_58.json,http://54.235.29.9/FacialAge/BNav_EC2/DepthDuration/v2_depth_duration_MTurk/v2_DepthDuration_HTML.html#396,396,2139,1183,2560,1440,8-30-2022,10-1-41,53,depth_duration_stimuli/003490_2014-05-21_15-50-11_094959634447_rgbf000101-resize_3/003490_2014-05-21_15-50-11_094959634447_rgbf000101-resize_3-target.png,1000,3.6445,11.0,6225,1000,feet,jsons/v1_VE1000_randls_58.json,749710,939450,58,Woman
53,371842,DepthScenes,duration_manipulation_targetAtFixation,jsons/v1_VE1000_randls_58.json,http://54.235.29.9/FacialAge/BNav_EC2/DepthDuration/v2_depth_duration_MTurk/v2_DepthDuration_HTML.html#396,396,2139,1183,2560,1440,8-30-2022,10-1-41,54,depth_duration_stimuli/000929_2014-06-09_16-33-19_260595134347_rgbf000139-resize_0/000929_2014-06-09_16-33-19_260595134347_rgbf000139-resize_0-target.png,1000,2.8680000000000003,6.0,3513,998,feet,jsons/v1_VE1000_randls_58.json,749710,939450,58,Woman
54,371842,DepthScenes,duration_manipulation_targetAtFixation,jsons/v1_VE1000_randls_58.json,http://54.235.29.9/FacialAge/BNav_EC2/DepthDuration/v2_depth_duration_MTurk/v2_DepthDuration_HTML.html#396,396,2139,1183,2560,1440,8-30-2022,10-1-41,55,depth_duration_stimuli/000457_2014-06-08_16-52-43_260595134347_rgbf000199-resize_1/000457_2014-06-08_16-52-43_260595134347_rgbf000199-resize_1-target.png,1000,3.6489999999999996,9.0,4823,995,feet,jsons/v1_VE1000_randls_58.json,749710,939450,58,Woman
55,371842,DepthScenes,duration_manipulation_targetAtFixation,jsons/v1_VE1000_randls_58.json,http://54.235.29.9/FacialAge/BNav_EC2/DepthDuration/v2_depth_duration_MTurk/v2_DepthDuration_HTML.html#396,396,2139,1183,2560,1440,8-30-2022,10-1-41,56,depth_duration_stimuli/003492_2014-05-21_15-50-55_094959634447_rgbf000828-resize_1/003492_2014-05-21_15-50-55_094959634447_rgbf000828-resize_1-target.png,1000,4.06875,10.0,4595,1000,feet,jsons/v1_VE1000_randls_58.json,749710,939450,58,Woman
56,371842,DepthScenes,duration_manipulation_targetAtFixation,jsons/v1_VE1000_randls_58.json,http://54.235.29.9/FacialAge/BNav_EC2/DepthDuration/v2_depth_duration_MTurk/v2_DepthDuration_HTML.html#396,396,2139,1183,2560,1440,8-30-2022,10-1-41,57,depth_duration_stimuli/002568_2014-06-24_13-59-21_094959634447_rgbf000062-resize_4/002568_2014-06-24_13-59-21_094959634447_rgbf000062-resize_4-target.png,1000,3.015,8.0,3658,1003,feet,jsons/v1_VE1000_randls_58.json,749710,939450,58,Woman
57,371842,DepthScenes,duration_manipulation_targetAtFixation,jsons/v1_VE1000_randls_58.json,http://54.235.29.9/FacialAge/BNav_EC2/DepthDuration/v2_depth_duration_MTurk/v2_DepthDuration_HTML.html#396,396,2139,1183,2560,1440,8-30-2022,10-1-41,58,depth_duration_stimuli/000469_2014-06-09_19-42-10_260595134347_rgbf000081-resize_1/000469_2014-06-09_19-42-10_260595134347_rgbf000081-resize_1-target.png,1000,1.652,4.0,5015,1001,feet,jsons/v1_VE1000_randls_58.json,749710,939450,58,Woman
58,371842,DepthScenes,duration_manipulation_targetAtFixation,jsons/v1_VE1000_randls_58.json,http://54.235.29.9/FacialAge/BNav_EC2/DepthDuration/v2_depth_duration_MTurk/v2_DepthDuration_HTML.html#396,396,2139,1183,2560,1440,8-30-2022,10-1-41,59,depth_duration_stimuli/000483_2014-06-09_20-41-45_260595134347_rgbf000116-resize_4/000483_2014-06-09_20-41-45_260595134347_rgbf000116-resize_4-target.png,1000,1.337,2.0,3386,998,feet,jsons/v1_VE1000_randls_58.json,749710,939450,58,Woman
59,371842,DepthScenes,duration_manipulation_targetAtFixation,jsons/v1_VE1000_randls_58.json,http://54.235.29.9/FacialAge/BNav_EC2/DepthDuration/v2_depth_duration_MTurk/v2_DepthDuration_HTML.html#396,396,2139,1183,2560,1440,8-30-2022,10-1-41,60,depth_duration_stimuli/001555_2014-06-20_17-12-10_260595134347_rgbf000065-resize_4/001555_2014-06-20_17-12-10_260595134347_rgbf000065-resize_4-target.png,1000,1.633,3.0,4563,1003,feet,jsons/v1_VE1000_randls_58.json,749710,939450,58,Woman
60,371842,DepthScenes,duration_manipulation_targetAtFixation,jsons/v1_VE1000_randls_58.json,http://54.235.29.9/FacialAge/BNav_EC2/DepthDuration/v2_depth_duration_MTurk/v2_DepthDuration_HTML.html#396,396,2139,1183,2560,1440,8-30-2022,10-1-41,61,depth_duration_stimuli/000103_2014-05-14_22-01-17_260595134347_rgbf000152-resize_5/000103_2014-05-14_22-01-17_260595134347_rgbf000152-resize_5-target.png,1000,1.993,6.0,3416,1001,feet,jsons/v1_VE1000_randls_58.json,749710,939450,58,Woman
61,371842,DepthScenes,duration_manipulation_targetAtFixation,jsons/v1_VE1000_randls_58.json,http://54.235.29.9/FacialAge/BNav_EC2/DepthDuration/v2_depth_duration_MTurk/v2_DepthDuration_HTML.html#396,396,2139,1183,2560,1440,8-30-2022,10-1-41,62,depth_duration_stimuli/000642_2014-06-08_16-59-25_260595134347_rgbf000098-resize_2/000642_2014-06-08_16-59-25_260595134347_rgbf000098-resize_2-target.png,1000,2.8815,7.0,3906,998,feet,jsons/v1_VE1000_randls_58.json,749710,939450,58,Woman
62,371842,DepthScenes,duration_manipulation_targetAtFixation,jsons/v1_VE1000_randls_58.json,http://54.235.29.9/FacialAge/BNav_EC2/DepthDuration/v2_depth_duration_MTurk/v2_DepthDuration_HTML.html#396,396,2139,1183,2560,1440,8-30-2022,10-1-41,63,depth_duration_stimuli/002425_2014-06-28_20-27-29_260595134347_rgbf000031-resize_8/002425_2014-06-28_20-27-29_260595134347_rgbf000031-resize_8-target.png,1000,3.8960000000000004,9.0,4003,1003,feet,jsons/v1_VE1000_randls_58.json,749710,939450,58,Woman
63,371842,DepthScenes,duration_manipulation_targetAtFixation,jsons/v1_VE1000_randls_58.json,http://54.235.29.9/FacialAge/BNav_EC2/DepthDuration/v2_depth_duration_MTurk/v2_DepthDuration_HTML.html#396,396,2139,1183,2560,1440,8-30-2022,10-1-41,64,depth_duration_stimuli/000368_2014-06-09_15-53-01_260595134347_rgbf000155-resize_2/000368_2014-06-09_15-53-01_260595134347_rgbf000155-resize_2-target.png,1000,2.4859999999999998,5.0,3467,999,feet,jsons/v1_VE1000_randls_58.json,749710,939450,58,Woman
64,371842,DepthScenes,duration_manipulation_targetAtFixation,jsons/v1_VE1000_randls_58.json,http://54.235.29.9/FacialAge/BNav_EC2/DepthDuration/v2_depth_duration_MTurk/v2_DepthDuration_HTML.html#396,396,2139,1183,2560,1440,8-30-2022,10-1-41,65,depth_duration_stimuli/002678_2014-06-13_16-15-32_094959634447_rgbf000151-resize_6/002678_2014-06-13_16-15-32_094959634447_rgbf000151-resize_6-target.png,1000,2.1830000000000003,10.0,4963,999,feet,jsons/v1_VE1000_randls_58.json,749710,939450,58,Woman
65,371842,DepthScenes,duration_manipulation_targetAtFixation,jsons/v1_VE1000_randls_58.json,http://54.235.29.9/FacialAge/BNav_EC2/DepthDuration/v2_depth_duration_MTurk/v2_DepthDuration_HTML.html#396,396,2139,1183,2560,1440,8-30-2022,10-1-41,66,depth_duration_stimuli/001222_2014-06-17_16-24-06_260595134347_rgbf000073-resize_0/001222_2014-06-17_16-24-06_260595134347_rgbf000073-resize-original.jpg,1000,1.4385,0.0,3579,1000,feet,jsons/v1_VE1000_randls_58.json,749710,939450,58,Woman
66,371842,DepthScenes,duration_manipulation_targetAtFixation,jsons/v1_VE1000_randls_58.json,http://54.235.29.9/FacialAge/BNav_EC2/DepthDuration/v2_depth_duration_MTurk/v2_DepthDuration_HTML.html#396,396,2139,1183,2560,1440,8-30-2022,10-1-41,67,depth_duration_stimuli/001417_2014-06-19_16-25-36_260595134347_rgbf000115-resize_5/001417_2014-06-19_16-25-36_260595134347_rgbf000115-resize_5-target.png,1000,4.6255,10.0,3769,998,feet,jsons/v1_VE1000_randls_58.json,749710,939450,58,Woman
67,371842,DepthScenes,duration_manipulation_targetAtFixation,jsons/v1_VE1000_randls_58.json,http://54.235.29.9/FacialAge/BNav_EC2/DepthDuration/v2_depth_duration_MTurk/v2_DepthDuration_HTML.html#396,396,2139,1183,2560,1440,8-30-2022,10-1-41,68,depth_duration_stimuli/003081_2014-06-15_15-19-16_094959634447_rgbf000150-resize_1/003081_2014-06-15_15-19-16_094959634447_rgbf000150-resize_1-target.png,1000,3.9125,9.0,3506,1000,feet,jsons/v1_VE1000_randls_58.json,749710,939450,58,Woman
68,371842,DepthScenes,duration_manipulation_targetAtFixation,jsons/v1_VE1000_randls_58.json,http://54.235.29.9/FacialAge/BNav_EC2/DepthDuration/v2_depth_duration_MTurk/v2_DepthDuration_HTML.html#396,396,2139,1183,2560,1440,8-30-2022,10-1-41,69,depth_duration_stimuli/002784_2014-06-22_19-26-30_094959634447_rgbf000083-resize_3/002784_2014-06-22_19-26-30_094959634447_rgbf000083-resize_3-target.png,1000,1.8046666666667,5.0,4447,996,feet,jsons/v1_VE1000_randls_58.json,749710,939450,58,Woman
69,371842,DepthScenes,duration_manipulation_targetAtFixation,jsons/v1_VE1000_randls_58.json,http://54.235.29.9/FacialAge/BNav_EC2/DepthDuration/v2_depth_duration_MTurk/v2_DepthDuration_HTML.html#396,396,2139,1183,2560,1440,8-30-2022,10-1-41,70,depth_duration_stimuli/001100_2014-06-15_17-46-26_260595134347_rgbf000225-resize_2/001100_2014-06-15_17-46-26_260595134347_rgbf000225-resize_2-target.png,1000,2.24,4.0,3283,1002,feet,jsons/v1_VE1000_randls_58.json,749710,939450,58,Woman
70,371842,DepthScenes,duration_manipulation_targetAtFixation,jsons/v1_VE1000_randls_58.json,http://54.235.29.9/FacialAge/BNav_EC2/DepthDuration/v2_depth_duration_MTurk/v2_DepthDuration_HTML.html#396,396,2139,1183,2560,1440,8-30-2022,10-1-41,71,depth_duration_stimuli/000447_2014-06-08_16-15-46_260595134347_rgbf000130-resize_1/000447_2014-06-08_16-15-46_260595134347_rgbf000130-resize_1-target.png,1000,4.479,14.0,3830,996,feet,jsons/v1_VE1000_randls_58.json,749710,939450,58,Woman
71,371842,DepthScenes,duration_manipulation_targetAtFixation,jsons/v1_VE1000_randls_58.json,http://54.235.29.9/FacialAge/BNav_EC2/DepthDuration/v2_depth_duration_MTurk/v2_DepthDuration_HTML.html#396,396,2139,1183,2560,1440,8-30-2022,10-1-41,72,depth_duration_stimuli/001447_2014-06-19_17-00-32_260595134347_rgbf000082-resize_5/001447_2014-06-19_17-00-32_260595134347_rgbf000082-resize_5-target.png,1000,4.13775,4.5,5062,998,feet,jsons/v1_VE1000_randls_58.json,749710,939450,58,Woman
72,371842,DepthScenes,duration_manipulation_targetAtFixation,jsons/v1_VE1000_randls_58.json,http://54.235.29.9/FacialAge/BNav_EC2/DepthDuration/v2_depth_duration_MTurk/v2_DepthDuration_HTML.html#396,396,2139,1183,2560,1440,8-30-2022,10-1-41,73,depth_duration_stimuli/002043_2014-06-24_20-29-38_260595134347_rgbf000039-resize_4/002043_2014-06-24_20-29-38_260595134347_rgbf000039-resize_4-target.png,1000,2.8435,7.0,4186,999,feet,jsons/v1_VE1000_randls_58.json,749710,939450,58,Woman
73,371842,DepthScenes,duration_manipulation_targetAtFixation,jsons/v1_VE1000_randls_58.json,http://54.235.29.9/FacialAge/BNav_EC2/DepthDuration/v2_depth_duration_MTurk/v2_DepthDuration_HTML.html#396,396,2139,1183,2560,1440,8-30-2022,10-1-41,74,depth_duration_stimuli/003048_2014-06-15_13-49-43_094959634447_rgbf000150-resize_1/003048_2014-06-15_13-49-43_094959634447_rgbf000150-resize_1-target.png,1000,4.0035,12.0,5230,999,feet,jsons/v1_VE1000_randls_58.json,749710,939450,58,Woman
74,371842,DepthScenes,duration_manipulation_targetAtFixation,jsons/v1_VE1000_randls_58.json,http://54.235.29.9/FacialAge/BNav_EC2/DepthDuration/v2_depth_duration_MTurk/v2_DepthDuration_HTML.html#396,396,2139,1183,2560,1440,8-30-2022,10-1-41,75,depth_duration_stimuli/000486_2014-06-09_20-47-20_260595134347_rgbf000143-resize_2/000486_2014-06-09_20-47-20_260595134347_rgbf000143-resize_2-target.png,1000,4.8325,12.0,3321,1001,feet,jsons/v1_VE1000_randls_58.json,749710,939450,58,Woman
75,371842,DepthScenes,duration_manipulation_targetAtFixation,jsons/v1_VE1000_randls_58.json,http://54.235.29.9/FacialAge/BNav_EC2/DepthDuration/v2_depth_duration_MTurk/v2_DepthDuration_HTML.html#396,396,2139,1183,2560,1440,8-30-2022,10-1-41,76,depth_duration_stimuli/003083_2014-06-15_15-21-03_094959634447_rgbf000063-resize_1/003083_2014-06-15_15-21-03_094959634447_rgbf000063-resize_1-target.png,1000,4.1405,15.0,3850,998,feet,jsons/v1_VE1000_randls_58.json,749710,939450,58,Woman
76,371842,DepthScenes,duration_manipulation_targetAtFixation,jsons/v1_VE1000_randls_58.json,http://54.235.29.9/FacialAge/BNav_EC2/DepthDuration/v2_depth_duration_MTurk/v2_DepthDuration_HTML.html#396,396,2139,1183,2560,1440,8-30-2022,10-1-41,77,depth_duration_stimuli/001056_2014-06-08_18-46-44_260595134347_rgbf000068-resize_0/001056_2014-06-08_18-46-44_260595134347_rgbf000068-resize_0-target.png,1000,2.6625,8.0,3347,1000,feet,jsons/v1_VE1000_randls_58.json,749710,939450,58,Woman
77,371842,DepthScenes,duration_manipulation_targetAtFixation,jsons/v1_VE1000_randls_58.json,http://54.235.29.9/FacialAge/BNav_EC2/DepthDuration/v2_depth_duration_MTurk/v2_DepthDuration_HTML.html#396,396,2139,1183,2560,1440,8-30-2022,10-1-41,78,depth_duration_stimuli/002199_2014-06-28_18-33-56_260595134347_rgbf000074-resize_0/002199_2014-06-28_18-33-56_260595134347_rgbf000074-resize_0-target.png,1000,1.996,3.0,3031,1000,feet,jsons/v1_VE1000_randls_58.json,749710,939450,58,Woman
78,371842,DepthScenes,duration_manipulation_targetAtFixation,jsons/v1_VE1000_randls_58.json,http://54.235.29.9/FacialAge/BNav_EC2/DepthDuration/v2_depth_duration_MTurk/v2_DepthDuration_HTML.html#396,396,2139,1183,2560,1440,8-30-2022,10-1-41,79,depth_duration_stimuli/001133_2014-06-17_14-49-16_260595134347_rgbf000100-resize_0/001133_2014-06-17_14-49-16_260595134347_rgbf000100-resize_0-target.png,1000,4.2115,13.0,3395,1001,feet,jsons/v1_VE1000_randls_58.json,749710,939450,58,Woman
79,371842,DepthScenes,duration_manipulation_targetAtFixation,jsons/v1_VE1000_randls_58.json,http://54.235.29.9/FacialAge/BNav_EC2/DepthDuration/v2_depth_duration_MTurk/v2_DepthDuration_HTML.html#396,396,2139,1183,2560,1440,8-30-2022,10-1-41,80,depth_duration_stimuli/001132_2014-06-17_14-48-54_260595134347_rgbf000100-resize_2/001132_2014-06-17_14-48-54_260595134347_rgbf000100-resize_2-target.png,1000,3.753,8.0,3371,1003,feet,jsons/v1_VE1000_randls_58.json,749710,939450,58,Woman
80,371842,DepthScenes,duration_manipulation_targetAtFixation,jsons/v1_VE1000_randls_58.json,http://54.235.29.9/FacialAge/BNav_EC2/DepthDuration/v2_depth_duration_MTurk/v2_DepthDuration_HTML.html#396,396,2139,1183,2560,1440,8-30-2022,10-1-41,81,depth_duration_stimuli/001016_2014-06-09_16-16-10_260595134347_rgbf000112-resize_5/001016_2014-06-09_16-16-10_260595134347_rgbf000112-resize_5-target.png,1000,1.6565,5.0,5648,1000,feet,jsons/v1_VE1000_randls_58.json,749710,939450,58,Woman
81,371842,DepthScenes,duration_manipulation_targetAtFixation,jsons/v1_VE1000_randls_58.json,http://54.235.29.9/FacialAge/BNav_EC2/DepthDuration/v2_depth_duration_MTurk/v2_DepthDuration_HTML.html#396,396,2139,1183,2560,1440,8-30-2022,10-1-41,82,depth_duration_stimuli/002340_2014-06-28_20-05-46_260595134347_rgbf000113-resize_0/002340_2014-06-28_20-05-46_260595134347_rgbf000113-resize_0-target.png,1000,2.4735,6.0,3575,995,feet,jsons/v1_VE1000_randls_58.json,749710,939450,58,Woman
82,371842,DepthScenes,duration_manipulation_targetAtFixation,jsons/v1_VE1000_randls_58.json,http://54.235.29.9/FacialAge/BNav_EC2/DepthDuration/v2_depth_duration_MTurk/v2_DepthDuration_HTML.html#396,396,2139,1183,2560,1440,8-30-2022,10-1-41,83,depth_duration_stimuli/003621_2014-05-23_18-06-08_094959634447_rgbf000101-resize_1/003621_2014-05-23_18-06-08_094959634447_rgbf000101-resize_1-target.png,1000,3.9835,13.0,4048,997,feet,jsons/v1_VE1000_randls_58.json,749710,939450,58,Woman
83,371842,DepthScenes,duration_manipulation_targetAtFixation,jsons/v1_VE1000_randls_58.json,http://54.235.29.9/FacialAge/BNav_EC2/DepthDuration/v2_depth_duration_MTurk/v2_DepthDuration_HTML.html#396,396,2139,1183,2560,1440,8-30-2022,10-1-41,84,depth_duration_stimuli/001584_2014-06-20_11-07-43_260595134347_rgbf000002-resize_1/001584_2014-06-20_11-07-43_260595134347_rgbf000002-resize_1-target.png,1000,3.53,11.0,3379,1004,feet,jsons/v1_VE1000_randls_58.json,749710,939450,58,Woman
84,371842,DepthScenes,duration_manipulation_targetAtFixation,jsons/v1_VE1000_randls_58.json,http://54.235.29.9/FacialAge/BNav_EC2/DepthDuration/v2_depth_duration_MTurk/v2_DepthDuration_HTML.html#396,396,2139,1183,2560,1440,8-30-2022,10-1-41,85,depth_duration_stimuli/000906_2014-06-08_13-35-43_260595134347_rgbf000155-resize_1/000906_2014-06-08_13-35-43_260595134347_rgbf000155-resize_1-target.png,1000,2.8489999999999998,10.0,4691,998,feet,jsons/v1_VE1000_randls_58.json,749710,939450,58,Woman
85,371842,DepthScenes,duration_manipulation_targetAtFixation,jsons/v1_VE1000_randls_58.json,http://54.235.29.9/FacialAge/BNav_EC2/DepthDuration/v2_depth_duration_MTurk/v2_DepthDuration_HTML.html#396,396,2139,1183,2560,1440,8-30-2022,10-1-41,86,depth_duration_stimuli/002805_2014-06-22_19-54-03_094959634447_rgbf000079-resize_1/002805_2014-06-22_19-54-03_094959634447_rgbf000079-resize_1-target.png,1000,3.1439999999999997,9.0,3547,999,feet,jsons/v1_VE1000_randls_58.json,749710,939450,58,Woman
86,371842,DepthScenes,duration_manipulation_targetAtFixation,jsons/v1_VE1000_randls_58.json,http://54.235.29.9/FacialAge/BNav_EC2/DepthDuration/v2_depth_duration_MTurk/v2_DepthDuration_HTML.html#396,396,2139,1183,2560,1440,8-30-2022,10-1-41,87,depth_duration_stimuli/002570_2014-06-24_13-59-54_094959634447_rgbf000059-resize_0/002570_2014-06-24_13-59-54_094959634447_rgbf000059-resize_0-target.png,1000,4.037,12.0,3598,997,feet,jsons/v1_VE1000_randls_58.json,749710,939450,58,Woman
87,371842,DepthScenes,duration_manipulation_targetAtFixation,jsons/v1_VE1000_randls_58.json,http://54.235.29.9/FacialAge/BNav_EC2/DepthDuration/v2_depth_duration_MTurk/v2_DepthDuration_HTML.html#396,396,2139,1183,2560,1440,8-30-2022,10-1-41,88,depth_duration_stimuli/002467_2014-06-28_20-38-07_260595134347_rgbf000026-resize_2/002467_2014-06-28_20-38-07_260595134347_rgbf000026-resize_2-target.png,1000,4.742,15.0,3924,1004,feet,jsons/v1_VE1000_randls_58.json,749710,939450,58,Woman
88,371842,DepthScenes,duration_manipulation_targetAtFixation,jsons/v1_VE1000_randls_58.json,http://54.235.29.9/FacialAge/BNav_EC2/DepthDuration/v2_depth_duration_MTurk/v2_DepthDuration_HTML.html#396,396,2139,1183,2560,1440,8-30-2022,10-1-41,89,depth_duration_stimuli/002748_2014-06-22_19-07-22_094959634447_rgbf000078-resize_1/002748_2014-06-22_19-07-22_094959634447_rgbf000078-resize_1-target.png,1000,4.6705,16.0,4664,996,feet,jsons/v1_VE1000_randls_58.json,749710,939450,58,Woman
89,371842,DepthScenes,duration_manipulation_targetAtFixation,jsons/v1_VE1000_randls_58.json,http://54.235.29.9/FacialAge/BNav_EC2/DepthDuration/v2_depth_duration_MTurk/v2_DepthDuration_HTML.html#396,396,2139,1183,2560,1440,8-30-2022,10-1-41,90,depth_duration_stimuli/002995_2014-06-15_12-31-26_094959634447_rgbf000150-resize_1/002995_2014-06-15_12-31-26_094959634447_rgbf000150-resize_1-target.png,1000,3.8360000000000003,14.0,3664,998,feet,jsons/v1_VE1000_randls_58.json,749710,939450,58,Woman
90,371842,DepthScenes,duration_manipulation_targetAtFixation,jsons/v1_VE1000_randls_58.json,http://54.235.29.9/FacialAge/BNav_EC2/DepthDuration/v2_depth_duration_MTurk/v2_DepthDuration_HTML.html#396,396,2139,1183,2560,1440,8-30-2022,10-1-41,91,depth_duration_stimuli/002272_2014-06-28_18-53-56_260595134347_rgbf000067-resize_2/002272_2014-06-28_18-53-56_260595134347_rgbf000067-resize_2-target.png,1000,1.138,4.0,3659,999,feet,jsons/v1_VE1000_randls_58.json,749710,939450,58,Woman
91,371842,DepthScenes,duration_manipulation_targetAtFixation,jsons/v1_VE1000_randls_58.json,http://54.235.29.9/FacialAge/BNav_EC2/DepthDuration/v2_depth_duration_MTurk/v2_DepthDuration_HTML.html#396,396,2139,1183,2560,1440,8-30-2022,10-1-41,92,depth_duration_stimuli/001571_2014-06-20_17-21-32_260595134347_rgbf000089-resize_1/001571_2014-06-20_17-21-32_260595134347_rgbf000089-resize_1-target.png,1000,1.86,5.0,3508,1000,feet,jsons/v1_VE1000_randls_58.json,749710,939450,58,Woman
92,371842,DepthScenes,duration_manipulation_targetAtFixation,jsons/v1_VE1000_randls_58.json,http://54.235.29.9/FacialAge/BNav_EC2/DepthDuration/v2_depth_duration_MTurk/v2_DepthDuration_HTML.html#396,396,2139,1183,2560,1440,8-30-2022,10-1-41,93,depth_duration_stimuli/001199_2014-06-17_16-03-48_260595134347_rgbf000077-resize_0/001199_2014-06-17_16-03-48_260595134347_rgbf000077-resize_0-target.png,1000,3.4375,14.0,4768,995,feet,jsons/v1_VE1000_randls_58.json,749710,939450,58,Woman
93,371842,DepthScenes,duration_manipulation_targetAtFixation,jsons/v1_VE1000_randls_58.json,http://54.235.29.9/FacialAge/BNav_EC2/DepthDuration/v2_depth_duration_MTurk/v2_DepthDuration_HTML.html#396,396,2139,1183,2560,1440,8-30-2022,10-1-41,94,depth_duration_stimuli/000502_2014-06-08_23-02-32_260595134347_rgbf000063-resize_4/000502_2014-06-08_23-02-32_260595134347_rgbf000063-resize_4-target.png,1000,2.431,6.0,4041,1002,feet,jsons/v1_VE1000_randls_58.json,749710,939450,58,Woman
94,371842,DepthScenes,duration_manipulation_targetAtFixation,jsons/v1_VE1000_randls_58.json,http://54.235.29.9/FacialAge/BNav_EC2/DepthDuration/v2_depth_duration_MTurk/v2_DepthDuration_HTML.html#396,396,2139,1183,2560,1440,8-30-2022,10-1-41,95,depth_duration_stimuli/000758_2014-06-08_22-05-08_260595134347_rgbf000085-resize_0/000758_2014-06-08_22-05-08_260595134347_rgbf000085-resize_0-target.png,1000,3.3810000000000002,11.0,3643,1001,feet,jsons/v1_VE1000_randls_58.json,749710,939450,58,Woman
95,371842,DepthScenes,duration_manipulation_targetAtFixation,jsons/v1_VE1000_randls_58.json,http://54.235.29.9/FacialAge/BNav_EC2/DepthDuration/v2_depth_duration_MTurk/v2_DepthDuration_HTML.html#396,396,2139,1183,2560,1440,8-30-2022,10-1-41,96,depth_duration_stimuli/000854_2014-06-09_19-43-13_260595134347_rgbf000066-resize_0/000854_2014-06-09_19-43-13_260595134347_rgbf000066-resize_0-target.png,1000,3.068,6.0,5678,995,feet,jsons/v1_VE1000_randls_58.json,749710,939450,58,Woman
96,371842,DepthScenes,duration_manipulation_targetAtFixation,jsons/v1_VE1000_randls_58.json,http://54.235.29.9/FacialAge/BNav_EC2/DepthDuration/v2_depth_duration_MTurk/v2_DepthDuration_HTML.html#396,396,2139,1183,2560,1440,8-30-2022,10-1-41,97,depth_duration_stimuli/002905_2014-06-03_18-04-43_094959634447_rgbf000151-resize_2/002905_2014-06-03_18-04-43_094959634447_rgbf000151-resize_2-target.png,1000,2.0295,5.0,3689,1000,feet,jsons/v1_VE1000_randls_58.json,749710,939450,58,Woman
97,371842,DepthScenes,duration_manipulation_targetAtFixation,jsons/v1_VE1000_randls_58.json,http://54.235.29.9/FacialAge/BNav_EC2/DepthDuration/v2_depth_duration_MTurk/v2_DepthDuration_HTML.html#396,396,2139,1183,2560,1440,8-30-2022,10-1-41,98,depth_duration_stimuli/003423_2014-05-21_10-23-26_094959634447_rgbf002665-resize_2/003423_2014-05-21_10-23-26_094959634447_rgbf002665-resize_2-target.png,1000,3.2575,15.0,4369,999,feet,jsons/v1_VE1000_randls_58.json,749710,939450,58,Woman
98,371842,DepthScenes,duration_manipulation_targetAtFixation,jsons/v1_VE1000_randls_58.json,http://54.235.29.9/FacialAge/BNav_EC2/DepthDuration/v2_depth_duration_MTurk/v2_DepthDuration_HTML.html#396,396,2139,1183,2560,1440,8-30-2022,10-1-41,99,depth_duration_stimuli/001540_2014-06-20_17-01-05_260595134347_rgbf000086-resize_2/001540_2014-06-20_17-01-05_260595134347_rgbf000086-resize-original.jpg,1000,1.459,0.0,4111,996,feet,jsons/v1_VE1000_randls_58.json,749710,939450,58,Woman
99,371842,DepthScenes,duration_manipulation_targetAtFixation,jsons/v1_VE1000_randls_58.json,http://54.235.29.9/FacialAge/BNav_EC2/DepthDuration/v2_depth_duration_MTurk/v2_DepthDuration_HTML.html#396,396,2139,1183,2560,1440,8-30-2022,10-1-41,100,depth_duration_stimuli/000506_2014-06-08_23-21-00_260595134347_rgbf000070-resize_7/000506_2014-06-08_23-21-00_260595134347_rgbf000070-resize_7-target.png,1000,4.0585,16.0,4340,1000,feet,jsons/v1_VE1000_randls_58.json,749710,939450,58,Woman
100,371842,DepthScenes,duration_manipulation_targetAtFixation,jsons/v1_VE1000_randls_58.json,http://54.235.29.9/FacialAge/BNav_EC2/DepthDuration/v2_depth_duration_MTurk/v2_DepthDuration_HTML.html#396,396,2139,1183,2560,1440,8-30-2022,10-1-41,101,depth_duration_stimuli/003079_2014-06-15_15-18-20_094959634447_rgbf000152-resize_8/003079_2014-06-15_15-18-20_094959634447_rgbf000152-resize_8-target.png,1000,2.8775,8.0,3679,996,feet,jsons/v1_VE1000_randls_58.json,749710,939450,58,Woman
101,371842,DepthScenes,duration_manipulation_targetAtFixation,jsons/v1_VE1000_randls_58.json,http://54.235.29.9/FacialAge/BNav_EC2/DepthDuration/v2_depth_duration_MTurk/v2_DepthDuration_HTML.html#396,396,2139,1183,2560,1440,8-30-2022,10-1-41,102,depth_duration_stimuli/000009_2014-05-26_14-32-05_260595134347_rgbf000034-resize_3/000009_2014-05-26_14-32-05_260595134347_rgbf000034-resize_3-target.png,1000,3.8715,15.0,6788,1004,feet,jsons/v1_VE1000_randls_58.json,749710,939450,58,Woman
102,371842,DepthScenes,duration_manipulation_targetAtFixation,jsons/v1_VE1000_randls_58.json,http://54.235.29.9/FacialAge/BNav_EC2/DepthDuration/v2_depth_duration_MTurk/v2_DepthDuration_HTML.html#396,396,2139,1183,2560,1440,8-30-2022,10-1-41,103,depth_duration_stimuli/001828_2014-06-26_21-40-03_260595134347_rgbf000024-resize_0/001828_2014-06-26_21-40-03_260595134347_rgbf000024-resize_0-target.png,1000,4.8260000000000005,13.0,3718,999,feet,jsons/v1_VE1000_randls_58.json,749710,939450,58,Woman
103,371842,DepthScenes,duration_manipulation_targetAtFixation,jsons/v1_VE1000_randls_58.json,http://54.235.29.9/FacialAge/BNav_EC2/DepthDuration/v2_depth_duration_MTurk/v2_DepthDuration_HTML.html#396,396,2139,1183,2560,1440,8-30-2022,10-1-41,104,depth_duration_stimuli/002630_2014-06-24_14-47-50_094959634447_rgbf000055-resize_1/002630_2014-06-24_14-47-50_094959634447_rgbf000055-resize_1-target.png,1000,3.0095,12.0,4000,997,feet,jsons/v1_VE1000_randls_58.json,749710,939450,58,Woman
104,371842,DepthScenes,duration_manipulation_targetAtFixation,jsons/v1_VE1000_randls_58.json,http://54.235.29.9/FacialAge/BNav_EC2/DepthDuration/v2_depth_duration_MTurk/v2_DepthDuration_HTML.html#396,396,2139,1183,2560,1440,8-30-2022,10-1-41,105,depth_duration_stimuli/002758_2014-06-22_19-11-20_094959634447_rgbf000128-resize_1/002758_2014-06-22_19-11-20_094959634447_rgbf000128-resize_1-target.png,1000,2.555,4.5,5638,999,feet,jsons/v1_VE1000_randls_58.json,749710,939450,58,Woman
105,371842,DepthScenes,duration_manipulation_targetAtFixation,jsons/v1_VE1000_randls_58.json,http://54.235.29.9/FacialAge/BNav_EC2/DepthDuration/v2_depth_duration_MTurk/v2_DepthDuration_HTML.html#396,396,2139,1183,2560,1440,8-30-2022,10-1-41,106,depth_duration_stimuli/001055_2014-06-08_18-45-35_260595134347_rgbf000111-resize_4/001055_2014-06-08_18-45-35_260595134347_rgbf000111-resize_4-target.png,1000,2.4290000000000003,5.0,3144,996,feet,jsons/v1_VE1000_randls_58.json,749710,939450,58,Woman
106,371842,DepthScenes,duration_manipulation_targetAtFixation,jsons/v1_VE1000_randls_58.json,http://54.235.29.9/FacialAge/BNav_EC2/DepthDuration/v2_depth_duration_MTurk/v2_DepthDuration_HTML.html#396,396,2139,1183,2560,1440,8-30-2022,10-1-41,107,depth_duration_stimuli/000549_2014-06-08_22-10-24_260595134347_rgbf000247-resize_3/000549_2014-06-08_22-10-24_260595134347_rgbf000247-resize_3-target.png,1000,1.841,4.0,3631,997,feet,jsons/v1_VE1000_randls_58.json,749710,939450,58,Woman
107,371842,DepthScenes,duration_manipulation_targetAtFixation,jsons/v1_VE1000_randls_58.json,http://54.235.29.9/FacialAge/BNav_EC2/DepthDuration/v2_depth_duration_MTurk/v2_DepthDuration_HTML.html#396,396,2139,1183,2560,1440,8-30-2022,10-1-41,108,depth_duration_stimuli/002763_2014-06-22_19-13-10_094959634447_rgbf000075-resize_4/002763_2014-06-22_19-13-10_094959634447_rgbf000075-resize_4-target.png,1000,1.68375,4.0,3929,1002,feet,jsons/v1_VE1000_randls_58.json,749710,939450,58,Woman
108,371842,DepthScenes,duration_manipulation_targetAtFixation,jsons/v1_VE1000_randls_58.json,http://54.235.29.9/FacialAge/BNav_EC2/DepthDuration/v2_depth_duration_MTurk/v2_DepthDuration_HTML.html#396,396,2139,1183,2560,1440,8-30-2022,10-1-41,109,depth_duration_stimuli/002209_2014-06-28_18-36-10_260595134347_rgbf000051-resize_1/002209_2014-06-28_18-36-10_260595134347_rgbf000051-resize_1-target.png,1000,2.057,5.0,3208,998,feet,jsons/v1_VE1000_randls_58.json,749710,939450,58,Woman
109,371842,DepthScenes,duration_manipulation_targetAtFixation,jsons/v1_VE1000_randls_58.json,http://54.235.29.9/FacialAge/BNav_EC2/DepthDuration/v2_depth_duration_MTurk/v2_DepthDuration_HTML.html#396,396,2139,1183,2560,1440,8-30-2022,10-1-41,110,depth_duration_stimuli/001059_2014-06-08_21-53-27_260595134347_rgbf000061-resize_4/001059_2014-06-08_21-53-27_260595134347_rgbf000061-resize_4-target.png,1000,2.4185,6.0,3422,999,feet,jsons/v1_VE1000_randls_58.json,749710,939450,58,Woman
110,371842,DepthScenes,duration_manipulation_targetAtFixation,jsons/v1_VE1000_randls_58.json,http://54.235.29.9/FacialAge/BNav_EC2/DepthDuration/v2_depth_duration_MTurk/v2_DepthDuration_HTML.html#396,396,2139,1183,2560,1440,8-30-2022,10-1-41,111,depth_duration_stimuli/001032_2014-06-08_13-23-17_260595134347_rgbf000021-resize_3/001032_2014-06-08_13-23-17_260595134347_rgbf000021-resize_3-target.png,1000,3.2725,8.0,3363,999,feet,jsons/v1_VE1000_randls_58.json,749710,939450,58,Woman
111,371842,DepthScenes,duration_manipulation_targetAtFixation,jsons/v1_VE1000_randls_58.json,http://54.235.29.9/FacialAge/BNav_EC2/DepthDuration/v2_depth_duration_MTurk/v2_DepthDuration_HTML.html#396,396,2139,1183,2560,1440,8-30-2022,10-1-41,112,depth_duration_stimuli/001158_2014-06-17_15-32-16_260595134347_rgbf000138-resize_2/001158_2014-06-17_15-32-16_260595134347_rgbf000138-resize_2-target.png,1000,4.5315,10.0,4678,995,feet,jsons/v1_VE1000_randls_58.json,749710,939450,58,Woman
112,371842,DepthScenes,duration_manipulation_targetAtFixation,jsons/v1_VE1000_randls_58.json,http://54.235.29.9/FacialAge/BNav_EC2/DepthDuration/v2_depth_duration_MTurk/v2_DepthDuration_HTML.html#396,396,2139,1183,2560,1440,8-30-2022,10-1-41,113,depth_duration_stimuli/000556_2014-06-09_22-42-56_260595134347_rgbf000214-resize_1/000556_2014-06-09_22-42-56_260595134347_rgbf000214-resize_1-target.png,1000,4.8415,12.0,3906,999,feet,jsons/v1_VE1000_randls_58.json,749710,939450,58,Woman
113,371842,DepthScenes,duration_manipulation_targetAtFixation,jsons/v1_VE1000_randls_58.json,http://54.235.29.9/FacialAge/BNav_EC2/DepthDuration/v2_depth_duration_MTurk/v2_DepthDuration_HTML.html#396,396,2139,1183,2560,1440,8-30-2022,10-1-41,114,depth_duration_stimuli/002663_2014-06-13_15-50-26_094959634447_rgbf000075-resize_1/002663_2014-06-13_15-50-26_094959634447_rgbf000075-resize_1-target.png,1000,4.7495,17.0,3608,1001,feet,jsons/v1_VE1000_randls_58.json,749710,939450,58,Woman
114,371842,DepthScenes,duration_manipulation_targetAtFixation,jsons/v1_VE1000_randls_58.json,http://54.235.29.9/FacialAge/BNav_EC2/DepthDuration/v2_depth_duration_MTurk/v2_DepthDuration_HTML.html#396,396,2139,1183,2560,1440,8-30-2022,10-1-41,115,depth_duration_stimuli/000409_2014-06-04_19-23-33_260595134347_rgbf000067-resize_0/000409_2014-06-04_19-23-33_260595134347_rgbf000067-resize_0-target.png,1000,3.7335,10.0,3938,997,feet,jsons/v1_VE1000_randls_58.json,749710,939450,58,Woman
115,371842,DepthScenes,duration_manipulation_targetAtFixation,jsons/v1_VE1000_randls_58.json,http://54.235.29.9/FacialAge/BNav_EC2/DepthDuration/v2_depth_duration_MTurk/v2_DepthDuration_HTML.html#396,396,2139,1183,2560,1440,8-30-2022,10-1-41,116,depth_duration_stimuli/001170_2014-06-17_15-43-44_260595134347_rgbf000096-resize_6/001170_2014-06-17_15-43-44_260595134347_rgbf000096-resize-original.jpg,1000,1.1909999999999998,0.0,3535,995,feet,jsons/v1_VE1000_randls_58.json,749710,939450,58,Woman
116,371842,DepthScenes,duration_manipulation_targetAtFixation,jsons/v1_VE1000_randls_58.json,http://54.235.29.9/FacialAge/BNav_EC2/DepthDuration/v2_depth_duration_MTurk/v2_DepthDuration_HTML.html#396,396,2139,1183,2560,1440,8-30-2022,10-1-41,117,depth_duration_stimuli/003292_2014-05-14_21-53-49_094959634447_rgbf000100-resize_2/003292_2014-05-14_21-53-49_094959634447_rgbf000100-resize_2-target.png,1000,3.4815,6.0,3562,1002,feet,jsons/v1_VE1000_randls_58.json,749710,939450,58,Woman
117,371842,DepthScenes,duration_manipulation_targetAtFixation,jsons/v1_VE1000_randls_58.json,http://54.235.29.9/FacialAge/BNav_EC2/DepthDuration/v2_depth_duration_MTurk/v2_DepthDuration_HTML.html#396,396,2139,1183,2560,1440,8-30-2022,10-1-41,118,depth_duration_stimuli/002639_2014-06-24_14-51-37_094959634447_rgbf000074-resize_4/002639_2014-06-24_14-51-37_094959634447_rgbf000074-resize_4-target.png,1000,4.0375,9.0,3497,998,feet,jsons/v1_VE1000_randls_58.json,749710,939450,58,Woman
118,371842,DepthScenes,duration_manipulation_targetAtFixation,jsons/v1_VE1000_randls_58.json,http://54.235.29.9/FacialAge/BNav_EC2/DepthDuration/v2_depth_duration_MTurk/v2_DepthDuration_HTML.html#396,396,2139,1183,2560,1440,8-30-2022,10-1-41,119,depth_duration_stimuli/001164_2014-06-17_15-35-46_260595134347_rgbf000085-resize_3/001164_2014-06-17_15-35-46_260595134347_rgbf000085-resize_3-target.png,1000,2.354,5.0,3232,1002,feet,jsons/v1_VE1000_randls_58.json,749710,939450,58,Woman
119,371842,DepthScenes,duration_manipulation_targetAtFixation,jsons/v1_VE1000_randls_58.json,http://54.235.29.9/FacialAge/BNav_EC2/DepthDuration/v2_depth_duration_MTurk/v2_DepthDuration_HTML.html#396,396,2139,1183,2560,1440,8-30-2022,10-1-41,120,depth_duration_stimuli/001136_2014-06-17_15-19-41_260595134347_rgbf000076-resize_3/001136_2014-06-17_15-19-41_260595134347_rgbf000076-resize_3-target.png,1000,1.8655,4.0,3226,1000,feet,jsons/v1_VE1000_randls_58.json,749710,939450,58,Woman
120,371842,DepthScenes,duration_manipulation_targetAtFixation,jsons/v1_VE1000_randls_58.json,http://54.235.29.9/FacialAge/BNav_EC2/DepthDuration/v2_depth_duration_MTurk/v2_DepthDuration_HTML.html#396,396,2139,1183,2560,1440,8-30-2022,10-1-41,121,depth_duration_stimuli/000736_2014-06-08_18-24-15_260595134347_rgbf000206-resize_3/000736_2014-06-08_18-24-15_260595134347_rgbf000206-resize_3-target.png,1000,3.515,8.0,3130,1003,feet,jsons/v1_VE1000_randls_58.json,749710,939450,58,Woman
121,371842,DepthScenes,duration_manipulation_targetAtFixation,jsons/v1_VE1000_randls_58.json,http://54.235.29.9/FacialAge/BNav_EC2/DepthDuration/v2_depth_duration_MTurk/v2_DepthDuration_HTML.html#396,396,2139,1183,2560,1440,8-30-2022,10-1-41,122,depth_duration_stimuli/000137_2014-05-20_17-04-49_260595134347_rgbf000120-resize_1/000137_2014-05-20_17-04-49_260595134347_rgbf000120-resize_1-target.png,1000,3.786,10.0,3628,1001,feet,jsons/v1_VE1000_randls_58.json,749710,939450,58,Woman
122,371842,DepthScenes,duration_manipulation_targetAtFixation,jsons/v1_VE1000_randls_58.json,http://54.235.29.9/FacialAge/BNav_EC2/DepthDuration/v2_depth_duration_MTurk/v2_DepthDuration_HTML.html#396,396,2139,1183,2560,1440,8-30-2022,10-1-41,123,depth_duration_stimuli/001110_2014-06-15_17-25-28_260595134347_rgbf000150-resize_1/001110_2014-06-15_17-25-28_260595134347_rgbf000150-resize_1-target.png,1000,1.7115,7.0,3660,999,feet,jsons/v1_VE1000_randls_58.json,749710,939450,58,Woman
123,371842,DepthScenes,duration_manipulation_targetAtFixation,jsons/v1_VE1000_randls_58.json,http://54.235.29.9/FacialAge/BNav_EC2/DepthDuration/v2_depth_duration_MTurk/v2_DepthDuration_HTML.html#396,396,2139,1183,2560,1440,8-30-2022,10-1-41,124,depth_duration_stimuli/000927_2014-06-09_16-32-30_260595134347_rgbf000123-resize_3/000927_2014-06-09_16-32-30_260595134347_rgbf000123-resize_3-target.png,1000,2.6785,6.0,3390,999,feet,jsons/v1_VE1000_randls_58.json,749710,939450,58,Woman
124,371842,DepthScenes,duration_manipulation_targetAtFixation,jsons/v1_VE1000_randls_58.json,http://54.235.29.9/FacialAge/BNav_EC2/DepthDuration/v2_depth_duration_MTurk/v2_DepthDuration_HTML.html#396,396,2139,1183,2560,1440,8-30-2022,10-1-41,125,depth_duration_stimuli/001810_2014-06-26_20-51-35_260595134347_rgbf000040-resize_3/001810_2014-06-26_20-51-35_260595134347_rgbf000040-resize_3-target.png,1000,2.2525,6.0,3064,995,feet,jsons/v1_VE1000_randls_58.json,749710,939450,58,Woman
125,371842,DepthScenes,duration_manipulation_targetAtFixation,jsons/v1_VE1000_randls_58.json,http://54.235.29.9/FacialAge/BNav_EC2/DepthDuration/v2_depth_duration_MTurk/v2_DepthDuration_HTML.html#396,396,2139,1183,2560,1440,8-30-2022,10-1-41,126,depth_duration_stimuli/003010_2014-06-15_12-54-35_094959634447_rgbf000112-resize_0/003010_2014-06-15_12-54-35_094959634447_rgbf000112-resize_0-target.png,1000,3.1185,9.0,3719,999,feet,jsons/v1_VE1000_randls_58.json,749710,939450,58,Woman
126,371842,DepthScenes,duration_manipulation_targetAtFixation,jsons/v1_VE1000_randls_58.json,http://54.235.29.9/FacialAge/BNav_EC2/DepthDuration/v2_depth_duration_MTurk/v2_DepthDuration_HTML.html#396,396,2139,1183,2560,1440,8-30-2022,10-1-41,127,depth_duration_stimuli/002549_2014-06-24_13-41-39_094959634447_rgbf000022-resize_3/002549_2014-06-24_13-41-39_094959634447_rgbf000022-resize_3-target.png,1000,1.476,3.0,3171,999,feet,jsons/v1_VE1000_randls_58.json,749710,939450,58,Woman
127,371842,DepthScenes,duration_manipulation_targetAtFixation,jsons/v1_VE1000_randls_58.json,http://54.235.29.9/FacialAge/BNav_EC2/DepthDuration/v2_depth_duration_MTurk/v2_DepthDuration_HTML.html#396,396,2139,1183,2560,1440,8-30-2022,10-1-41,128,depth_duration_stimuli/002750_2014-06-22_19-08-03_094959634447_rgbf000094-resize_4/002750_2014-06-22_19-08-03_094959634447_rgbf000094-resize_4-target.png,1000,2.354,6.0,3147,1003,feet,jsons/v1_VE1000_randls_58.json,749710,939450,58,Woman
128,371842,DepthScenes,duration_manipulation_targetAtFixation,jsons/v1_VE1000_randls_58.json,http://54.235.29.9/FacialAge/BNav_EC2/DepthDuration/v2_depth_duration_MTurk/v2_DepthDuration_HTML.html#396,396,2139,1183,2560,1440,8-30-2022,10-1-41,129,depth_duration_stimuli/000878_2014-06-08_22-52-45_260595134347_rgbf000045-resize_2/000878_2014-06-08_22-52-45_260595134347_rgbf000045-resize_2-target.png,1000,2.092,7.0,3454,999,feet,jsons/v1_VE1000_randls_58.json,749710,939450,58,Woman
129,371842,DepthScenes,duration_manipulation_targetAtFixation,jsons/v1_VE1000_randls_58.json,http://54.235.29.9/FacialAge/BNav_EC2/DepthDuration/v2_depth_duration_MTurk/v2_DepthDuration_HTML.html#396,396,2139,1183,2560,1440,8-30-2022,10-1-41,130,depth_duration_stimuli/002953_2014-06-08_17-32-18_094959634447_rgbf000059-resize_5/002953_2014-06-08_17-32-18_094959634447_rgbf000059-resize_5-target.png,1000,1.551,4.0,3208,995,feet,jsons/v1_VE1000_randls_58.json,749710,939450,58,Woman
130,371842,DepthScenes,duration_manipulation_targetAtFixation,jsons/v1_VE1000_randls_58.json,http://54.235.29.9/FacialAge/BNav_EC2/DepthDuration/v2_depth_duration_MTurk/v2_DepthDuration_HTML.html#396,396,2139,1183,2560,1440,8-30-2022,10-1-41,131,depth_duration_stimuli/003534_2014-05-22_15-06-10_094959634447_rgbf000102-resize_4/003534_2014-05-22_15-06-10_094959634447_rgbf000102-resize_4-target.png,1000,1.426,4.0,3569,999,feet,jsons/v1_VE1000_randls_58.json,749710,939450,58,Woman
131,371842,DepthScenes,duration_manipulation_targetAtFixation,jsons/v1_VE1000_randls_58.json,http://54.235.29.9/FacialAge/BNav_EC2/DepthDuration/v2_depth_duration_MTurk/v2_DepthDuration_HTML.html#396,396,2139,1183,2560,1440,8-30-2022,10-1-41,132,depth_duration_stimuli/002637_2014-06-24_14-51-13_094959634447_rgbf000066-resize_4/002637_2014-06-24_14-51-13_094959634447_rgbf000066-resize_4-target.png,1000,1.9955,5.0,4194,999,feet,jsons/v1_VE1000_randls_58.json,749710,939450,58,Woman
132,371842,DepthScenes,duration_manipulation_targetAtFixation,jsons/v1_VE1000_randls_58.json,http://54.235.29.9/FacialAge/BNav_EC2/DepthDuration/v2_depth_duration_MTurk/v2_DepthDuration_HTML.html#396,396,2139,1183,2560,1440,8-30-2022,10-1-41,133,depth_duration_stimuli/000414_2014-06-04_19-49-13_260595134347_rgbf000044-resize_0/000414_2014-06-04_19-49-13_260595134347_rgbf000044-resize_0-target.png,1000,4.329,15.0,6698,1000,feet,jsons/v1_VE1000_randls_58.json,749710,939450,58,Woman
133,371842,DepthScenes,duration_manipulation_targetAtFixation,jsons/v1_VE1000_randls_58.json,http://54.235.29.9/FacialAge/BNav_EC2/DepthDuration/v2_depth_duration_MTurk/v2_DepthDuration_HTML.html#396,396,2139,1183,2560,1440,8-30-2022,10-1-41,134,depth_duration_stimuli/003129_2014-05-12_10-48-10_094959634447_rgbf000100-resize_0/003129_2014-05-12_10-48-10_094959634447_rgbf000100-resize_0-target.png,1000,4.9305,14.0,4334,995,feet,jsons/v1_VE1000_randls_58.json,749710,939450,58,Woman
134,371842,DepthScenes,duration_manipulation_targetAtFixation,jsons/v1_VE1000_randls_58.json,http://54.235.29.9/FacialAge/BNav_EC2/DepthDuration/v2_depth_duration_MTurk/v2_DepthDuration_HTML.html#396,396,2139,1183,2560,1440,8-30-2022,10-1-41,135,depth_duration_stimuli/002072_2014-06-24_21-48-06_260595134347_rgbf000115-resize_0/002072_2014-06-24_21-48-06_260595134347_rgbf000115-resize-original.jpg,1000,4.702,0.0,3547,999,feet,jsons/v1_VE1000_randls_58.json,749710,939450,58,Woman
135,371842,DepthScenes,duration_manipulation_targetAtFixation,jsons/v1_VE1000_randls_58.json,http://54.235.29.9/FacialAge/BNav_EC2/DepthDuration/v2_depth_duration_MTurk/v2_DepthDuration_HTML.html#396,396,2139,1183,2560,1440,8-30-2022,10-1-41,136,depth_duration_stimuli/002039_2014-06-24_20-22-38_260595134347_rgbf000084-resize_1/002039_2014-06-24_20-22-38_260595134347_rgbf000084-resize_1-target.png,1000,4.408,14.0,4098,1001,feet,jsons/v1_VE1000_randls_58.json,749710,939450,58,Woman
136,371842,DepthScenes,duration_manipulation_targetAtFixation,jsons/v1_VE1000_randls_58.json,http://54.235.29.9/FacialAge/BNav_EC2/DepthDuration/v2_depth_duration_MTurk/v2_DepthDuration_HTML.html#396,396,2139,1183,2560,1440,8-30-2022,10-1-41,137,depth_duration_stimuli/002103_2014-06-25_20-00-40_260595134347_rgbf000049-resize_0/002103_2014-06-25_20-00-40_260595134347_rgbf000049-resize_0-target.png,1000,4.105,15.0,3759,998,feet,jsons/v1_VE1000_randls_58.json,749710,939450,58,Woman
137,371842,DepthScenes,duration_manipulation_targetAtFixation,jsons/v1_VE1000_randls_58.json,http://54.235.29.9/FacialAge/BNav_EC2/DepthDuration/v2_depth_duration_MTurk/v2_DepthDuration_HTML.html#396,396,2139,1183,2560,1440,8-30-2022,10-1-41,138,depth_duration_stimuli/001167_2014-06-17_15-38-07_260595134347_rgbf000108-resize_0/001167_2014-06-17_15-38-07_260595134347_rgbf000108-resize_0-target.png,1000,1.8505,4.0,3535,1000,feet,jsons/v1_VE1000_randls_58.json,749710,939450,58,Woman
138,371842,DepthScenes,duration_manipulation_targetAtFixation,jsons/v1_VE1000_randls_58.json,http://54.235.29.9/FacialAge/BNav_EC2/DepthDuration/v2_depth_duration_MTurk/v2_DepthDuration_HTML.html#396,396,2139,1183,2560,1440,8-30-2022,10-1-41,139,depth_duration_stimuli/003587_2014-05-23_16-48-02_094959634447_rgbf002384-resize_2/003587_2014-05-23_16-48-02_094959634447_rgbf002384-resize_2-target.png,1000,1.357,3.0,3082,999,feet,jsons/v1_VE1000_randls_58.json,749710,939450,58,Woman
139,371842,DepthScenes,duration_manipulation_targetAtFixation,jsons/v1_VE1000_randls_58.json,http://54.235.29.9/FacialAge/BNav_EC2/DepthDuration/v2_depth_duration_MTurk/v2_DepthDuration_HTML.html#396,396,2139,1183,2560,1440,8-30-2022,10-1-41,140,depth_duration_stimuli/000470_2014-06-09_19-42-40_260595134347_rgbf000094-resize_1/000470_2014-06-09_19-42-40_260595134347_rgbf000094-resize_1-target.png,1000,1.831,5.0,3744,996,feet,jsons/v1_VE1000_randls_58.json,749710,939450,58,Woman
140,371842,DepthScenes,duration_manipulation_targetAtFixation,jsons/v1_VE1000_randls_58.json,http://54.235.29.9/FacialAge/BNav_EC2/DepthDuration/v2_depth_duration_MTurk/v2_DepthDuration_HTML.html#396,396,2139,1183,2560,1440,8-30-2022,10-1-41,141,depth_duration_stimuli/000109_2014-05-14_23-41-52_260595134347_rgbf000035-resize_9/000109_2014-05-14_23-41-52_260595134347_rgbf000035-resize_9-target.png,1000,1.3545,4.0,3383,995,feet,jsons/v1_VE1000_randls_58.json,749710,939450,58,Woman
141,371842,DepthScenes,duration_manipulation_targetAtFixation,jsons/v1_VE1000_randls_58.json,http://54.235.29.9/FacialAge/BNav_EC2/DepthDuration/v2_depth_duration_MTurk/v2_DepthDuration_HTML.html#396,396,2139,1183,2560,1440,8-30-2022,10-1-41,142,depth_duration_stimuli/002989_2014-06-15_12-25-03_094959634447_rgbf000150-resize_3/002989_2014-06-15_12-25-03_094959634447_rgbf000150-resize_3-target.png,1000,4.1975,17.0,4555,999,feet,jsons/v1_VE1000_randls_58.json,749710,939450,58,Woman
142,371842,DepthScenes,duration_manipulation_targetAtFixation,jsons/v1_VE1000_randls_58.json,http://54.235.29.9/FacialAge/BNav_EC2/DepthDuration/v2_depth_duration_MTurk/v2_DepthDuration_HTML.html#396,396,2139,1183,2560,1440,8-30-2022,10-1-41,143,depth_duration_stimuli/000866_2014-06-09_20-45-42_260595134347_rgbf000139-resize_1/000866_2014-06-09_20-45-42_260595134347_rgbf000139-resize_1-target.png,1000,3.2155,8.0,8401,1002,feet,jsons/v1_VE1000_randls_58.json,749710,939450,58,Woman
143,371842,DepthScenes,duration_manipulation_targetAtFixation,jsons/v1_VE1000_randls_58.json,http://54.235.29.9/FacialAge/BNav_EC2/DepthDuration/v2_depth_duration_MTurk/v2_DepthDuration_HTML.html#396,396,2139,1183,2560,1440,8-30-2022,10-1-41,144,depth_duration_stimuli/001011_2014-06-08_23-18-54_260595134347_rgbf000044-resize_4/001011_2014-06-08_23-18-54_260595134347_rgbf000044-resize_4-target.png,1000,2.4730000000000003,6.0,4210,999,feet,jsons/v1_VE1000_randls_58.json,749710,939450,58,Woman
144,371842,DepthScenes,duration_manipulation_targetAtFixation,jsons/v1_VE1000_randls_58.json,http://54.235.29.9/FacialAge/BNav_EC2/DepthDuration/v2_depth_duration_MTurk/v2_DepthDuration_HTML.html#396,396,2139,1183,2560,1440,8-30-2022,10-1-41,145,depth_duration_stimuli/002875_2014-06-01_15-19-00_094959634447_rgbf000151-resize_1/002875_2014-06-01_15-19-00_094959634447_rgbf000151-resize_1-target.png,1000,1.9675,5.0,3068,1000,feet,jsons/v1_VE1000_randls_58.json,749710,939450,58,Woman
145,371842,DepthScenes,duration_manipulation_targetAtFixation,jsons/v1_VE1000_randls_58.json,http://54.235.29.9/FacialAge/BNav_EC2/DepthDuration/v2_depth_duration_MTurk/v2_DepthDuration_HTML.html#396,396,2139,1183,2560,1440,8-30-2022,10-1-41,146,depth_duration_stimuli/001498_2014-06-19_17-45-14_260595134347_rgbf000129-resize_4/001498_2014-06-19_17-45-14_260595134347_rgbf000129-resize-original.jpg,1000,1.4075,0.0,3667,1004,feet,jsons/v1_VE1000_randls_58.json,749710,939450,58,Woman
146,371842,DepthScenes,duration_manipulation_targetAtFixation,jsons/v1_VE1000_randls_58.json,http://54.235.29.9/FacialAge/BNav_EC2/DepthDuration/v2_depth_duration_MTurk/v2_DepthDuration_HTML.html#396,396,2139,1183,2560,1440,8-30-2022,10-1-41,147,depth_duration_stimuli/002057_2014-06-24_21-00-13_260595134347_rgbf000120-resize_1/002057_2014-06-24_21-00-13_260595134347_rgbf000120-resize_1-target.png,1000,2.967,9.0,4024,996,feet,jsons/v1_VE1000_randls_58.json,749710,939450,58,Woman
147,371842,DepthScenes,duration_manipulation_targetAtFixation,jsons/v1_VE1000_randls_58.json,http://54.235.29.9/FacialAge/BNav_EC2/DepthDuration/v2_depth_duration_MTurk/v2_DepthDuration_HTML.html#396,396,2139,1183,2560,1440,8-30-2022,10-1-41,148,depth_duration_stimuli/000709_2014-06-08_13-51-55_260595134347_rgbf000068-resize_3/000709_2014-06-08_13-51-55_260595134347_rgbf000068-resize_3-target.png,1000,1.8030000000000002,6.0,4378,999,feet,jsons/v1_VE1000_randls_58.json,749710,939450,58,Woman
148,371842,DepthScenes,duration_manipulation_targetAtFixation,jsons/v1_VE1000_randls_58.json,http://54.235.29.9/FacialAge/BNav_EC2/DepthDuration/v2_depth_duration_MTurk/v2_DepthDuration_HTML.html#396,396,2139,1183,2560,1440,8-30-2022,10-1-41,149,depth_duration_stimuli/002279_2014-06-28_18-55-32_260595134347_rgbf000040-resize_5/002279_2014-06-28_18-55-32_260595134347_rgbf000040-resize_5-target.png,1000,1.5043333333333,4.0,3408,1000,feet,jsons/v1_VE1000_randls_58.json,749710,939450,58,Woman
149,371842,DepthScenes,duration_manipulation_targetAtFixation,jsons/v1_VE1000_randls_58.json,http://54.235.29.9/FacialAge/BNav_EC2/DepthDuration/v2_depth_duration_MTurk/v2_DepthDuration_HTML.html#396,396,2139,1183,2560,1440,8-30-2022,10-1-41,150,depth_duration_stimuli/000635_2014-06-08_16-38-42_260595134347_rgbf000106-resize_1/000635_2014-06-08_16-38-42_260595134347_rgbf000106-resize_1-target.png,1000,2.074,7.0,3563,1000,feet,jsons/v1_VE1000_randls_58.json,749710,939450,58,Woman
150,371842,DepthScenes,duration_manipulation_targetAtFixation,jsons/v1_VE1000_randls_58.json,http://54.235.29.9/FacialAge/BNav_EC2/DepthDuration/v2_depth_duration_MTurk/v2_DepthDuration_HTML.html#396,396,2139,1183,2560,1440,8-30-2022,10-1-41,151,depth_duration_stimuli/002964_2014-06-08_17-46-11_094959634447_rgbf000091-resize_4/002964_2014-06-08_17-46-11_094959634447_rgbf000091-resize_4-target.png,1000,1.6909999999999998,5.0,3657,1000,feet,jsons/v1_VE1000_randls_58.json,749710,939450,58,Woman
151,371842,DepthScenes,duration_manipulation_targetAtFixation,jsons/v1_VE1000_randls_58.json,http://54.235.29.9/FacialAge/BNav_EC2/DepthDuration/v2_depth_duration_MTurk/v2_DepthDuration_HTML.html#396,396,2139,1183,2560,1440,8-30-2022,10-1-41,152,depth_duration_stimuli/002136_2014-06-25_21-18-03_260595134347_rgbf000109-resize_3/002136_2014-06-25_21-18-03_260595134347_rgbf000109-resize_3-target.png,1000,1.9569999999999999,5.0,2926,997,feet,jsons/v1_VE1000_randls_58.json,749710,939450,58,Woman
152,371842,DepthScenes,duration_manipulation_targetAtFixation,jsons/v1_VE1000_randls_58.json,http://54.235.29.9/FacialAge/BNav_EC2/DepthDuration/v2_depth_duration_MTurk/v2_DepthDuration_HTML.html#396,396,2139,1183,2560,1440,8-30-2022,10-1-41,153,depth_duration_stimuli/000917_2014-06-09_22-45-29_260595134347_rgbf000149-resize_3/000917_2014-06-09_22-45-29_260595134347_rgbf000149-resize_3-target.png,1000,4.1865,8.0,3434,998,feet,jsons/v1_VE1000_randls_58.json,749710,939450,58,Woman
153,371842,DepthScenes,duration_manipulation_targetAtFixation,jsons/v1_VE1000_randls_58.json,http://54.235.29.9/FacialAge/BNav_EC2/DepthDuration/v2_depth_duration_MTurk/v2_DepthDuration_HTML.html#396,396,2139,1183,2560,1440,8-30-2022,10-1-41,154,depth_duration_stimuli/002323_2014-06-28_20-01-54_260595134347_rgbf000051-resize_4/002323_2014-06-28_20-01-54_260595134347_rgbf000051-resize_4-target.png,1000,3.7310000000000003,13.0,3675,1003,feet,jsons/v1_VE1000_randls_58.json,749710,939450,58,Woman
154,371842,DepthScenes,duration_manipulation_targetAtFixation,jsons/v1_VE1000_randls_58.json,http://54.235.29.9/FacialAge/BNav_EC2/DepthDuration/v2_depth_duration_MTurk/v2_DepthDuration_HTML.html#396,396,2139,1183,2560,1440,8-30-2022,10-1-41,155,depth_duration_stimuli/002788_2014-06-22_19-36-03_094959634447_rgbf000088-resize_2/002788_2014-06-22_19-36-03_094959634447_rgbf000088-resize_2-target.png,1000,1.6465,8.0,3521,1000,feet,jsons/v1_VE1000_randls_58.json,749710,939450,58,Woman
155,371842,DepthScenes,duration_manipulation_targetAtFixation,jsons/v1_VE1000_randls_58.json,http://54.235.29.9/FacialAge/BNav_EC2/DepthDuration/v2_depth_duration_MTurk/v2_DepthDuration_HTML.html#396,396,2139,1183,2560,1440,8-30-2022,10-1-41,156,depth_duration_stimuli/000749_2014-06-08_21-55-06_260595134347_rgbf000070-resize_2/000749_2014-06-08_21-55-06_260595134347_rgbf000070-resize_2-target.png,1000,2.331,7.0,4098,1004,feet,jsons/v1_VE1000_randls_58.json,749710,939450,58,Woman
156,371842,DepthScenes,duration_manipulation_targetAtFixation,jsons/v1_VE1000_randls_58.json,http://54.235.29.9/FacialAge/BNav_EC2/DepthDuration/v2_depth_duration_MTurk/v2_DepthDuration_HTML.html#396,396,2139,1183,2560,1440,8-30-2022,10-1-41,157,depth_duration_stimuli/002153_2014-06-25_21-27-18_260595134347_rgbf000038-resize_5/002153_2014-06-25_21-27-18_260595134347_rgbf000038-resize_5-target.png,1000,2.505,8.0,3011,999,feet,jsons/v1_VE1000_randls_58.json,749710,939450,58,Woman
157,371842,DepthScenes,duration_manipulation_targetAtFixation,jsons/v1_VE1000_randls_58.json,http://54.235.29.9/FacialAge/BNav_EC2/DepthDuration/v2_depth_duration_MTurk/v2_DepthDuration_HTML.html#396,396,2139,1183,2560,1440,8-30-2022,10-1-41,158,depth_duration_stimuli/002660_2014-06-13_15-44-18_094959634447_rgbf001878-resize_2/002660_2014-06-13_15-44-18_094959634447_rgbf001878-resize_2-target.png,1000,3.576,8.0,3327,994,feet,jsons/v1_VE1000_randls_58.json,749710,939450,58,Woman
158,371842,DepthScenes,duration_manipulation_targetAtFixation,jsons/v1_VE1000_randls_58.json,http://54.235.29.9/FacialAge/BNav_EC2/DepthDuration/v2_depth_duration_MTurk/v2_DepthDuration_HTML.html#396,396,2139,1183,2560,1440,8-30-2022,10-1-41,159,depth_duration_stimuli/001808_2014-06-26_20-50-58_260595134347_rgbf000029-resize_1/001808_2014-06-26_20-50-58_260595134347_rgbf000029-resize_1-target.png,1000,4.249,12.0,5855,995,feet,jsons/v1_VE1000_randls_58.json,749710,939450,58,Woman
159,371842,DepthScenes,duration_manipulation_targetAtFixation,jsons/v1_VE1000_randls_58.json,http://54.235.29.9/FacialAge/BNav_EC2/DepthDuration/v2_depth_duration_MTurk/v2_DepthDuration_HTML.html#396,396,2139,1183,2560,1440,8-30-2022,10-1-41,160,depth_duration_stimuli/001815_2014-06-26_20-52-55_260595134347_rgbf000020-resize_0/001815_2014-06-26_20-52-55_260595134347_rgbf000020-resize_0-target.png,1000,3.3865,16.0,4544,999,feet,jsons/v1_VE1000_randls_58.json,749710,939450,58,Woman
160,371842,DepthScenes,duration_manipulation_targetAtFixation,jsons/v1_VE1000_randls_58.json,http://54.235.29.9/FacialAge/BNav_EC2/DepthDuration/v2_depth_duration_MTurk/v2_DepthDuration_HTML.html#396,396,2139,1183,2560,1440,8-30-2022,10-1-41,161,depth_duration_stimuli/001570_2014-06-20_17-21-09_260595134347_rgbf000135-resize_4/001570_2014-06-20_17-21-09_260595134347_rgbf000135-resize_4-target.png,1000,4.467,14.0,3819,1004,feet,jsons/v1_VE1000_randls_58.json,749710,939450,58,Woman
161,371842,DepthScenes,duration_manipulation_targetAtFixation,jsons/v1_VE1000_randls_58.json,http://54.235.29.9/FacialAge/BNav_EC2/DepthDuration/v2_depth_duration_MTurk/v2_DepthDuration_HTML.html#396,396,2139,1183,2560,1440,8-30-2022,10-1-41,162,depth_duration_stimuli/001392_2014-06-19_16-07-59_260595134347_rgbf000046-resize_1/001392_2014-06-19_16-07-59_260595134347_rgbf000046-resize_1-target.png,1000,4.135,18.0,4411,1001,feet,jsons/v1_VE1000_randls_58.json,749710,939450,58,Woman
162,371842,DepthScenes,duration_manipulation_targetAtFixation,jsons/v1_VE1000_randls_58.json,http://54.235.29.9/FacialAge/BNav_EC2/DepthDuration/v2_depth_duration_MTurk/v2_DepthDuration_HTML.html#396,396,2139,1183,2560,1440,8-30-2022,10-1-41,163,depth_duration_stimuli/001066_2014-06-08_22-03-20_260595134347_rgbf000066-resize_4/001066_2014-06-08_22-03-20_260595134347_rgbf000066-resize_4-target.png,1000,4.2330000000000005,15.0,3852,1003,feet,jsons/v1_VE1000_randls_58.json,749710,939450,58,Woman
163,371842,DepthScenes,duration_manipulation_targetAtFixation,jsons/v1_VE1000_randls_58.json,http://54.235.29.9/FacialAge/BNav_EC2/DepthDuration/v2_depth_duration_MTurk/v2_DepthDuration_HTML.html#396,396,2139,1183,2560,1440,8-30-2022,10-1-41,164,depth_duration_stimuli/000742_2014-06-08_18-48-09_260595134347_rgbf000164-resize_4/000742_2014-06-08_18-48-09_260595134347_rgbf000164-resize_4-target.png,1000,4.632,13.0,4074,1004,feet,jsons/v1_VE1000_randls_58.json,749710,939450,58,Woman
