,subjID,experimentName,versionName,sequenceName,url,selected_row,windowWidth,windowHeight,screenWidth,screenHeight,startDate,startTime,trial,stimulus,duration,actual_depth,depth_estimate,trial_RT,log_sceneDuration,unitSelection,seq_filepath,experimentTime,totalTime,age,gender
0,372273,DepthScenes,duration_manipulation_targetAtFixation,jsons/v1_VE250_randls_76.json,http://54.235.29.9/FacialAge/BNav_EC2/DepthDuration/v2_depth_duration_MTurk/v2_DepthDuration_HTML.html#155,155,1280,720,1280,720,8-20-2022,10-58-46,1,depth_duration_stimuli/002905_2014-06-03_18-04-43_094959634447_rgbf000151-resize_2/002905_2014-06-03_18-04-43_094959634447_rgbf000151-resize_2-target.png,250,2.0295,1,2839,230,feet,jsons/v1_VE250_randls_76.json,467895,630564,35,Man
1,372273,DepthScenes,duration_manipulation_targetAtFixation,jsons/v1_VE250_randls_76.json,http://54.235.29.9/FacialAge/BNav_EC2/DepthDuration/v2_depth_duration_MTurk/v2_DepthDuration_HTML.html#155,155,1280,720,1280,720,8-20-2022,10-58-46,2,depth_duration_stimuli/003423_2014-05-21_10-23-26_094959634447_rgbf002665-resize_2/003423_2014-05-21_10-23-26_094959634447_rgbf002665-resize_2-target.png,250,3.2575,2,1950,237,feet,jsons/v1_VE250_randls_76.json,467895,630564,35,Man
2,372273,DepthScenes,duration_manipulation_targetAtFixation,jsons/v1_VE250_randls_76.json,http://54.235.29.9/FacialAge/BNav_EC2/DepthDuration/v2_depth_duration_MTurk/v2_DepthDuration_HTML.html#155,155,1280,720,1280,720,8-20-2022,10-58-46,3,depth_duration_stimuli/002989_2014-06-15_12-25-03_094959634447_rgbf000150-resize_3/002989_2014-06-15_12-25-03_094959634447_rgbf000150-resize_3-target.png,250,4.1975,5,2470,250,feet,jsons/v1_VE250_randls_76.json,467895,630564,35,Man
3,372273,DepthScenes,duration_manipulation_targetAtFixation,jsons/v1_VE250_randls_76.json,http://54.235.29.9/FacialAge/BNav_EC2/DepthDuration/v2_depth_duration_MTurk/v2_DepthDuration_HTML.html#155,155,1280,720,1280,720,8-20-2022,10-58-46,4,depth_duration_stimuli/000866_2014-06-09_20-45-42_260595134347_rgbf000139-resize_1/000866_2014-06-09_20-45-42_260595134347_rgbf000139-resize_1-target.png,250,3.2155,3,2309,236,feet,jsons/v1_VE250_randls_76.json,467895,630564,35,Man
4,372273,DepthScenes,duration_manipulation_targetAtFixation,jsons/v1_VE250_randls_76.json,http://54.235.29.9/FacialAge/BNav_EC2/DepthDuration/v2_depth_duration_MTurk/v2_DepthDuration_HTML.html#155,155,1280,720,1280,720,8-20-2022,10-58-46,5,depth_duration_stimuli/002725_2014-06-22_11-47-51_094959634447_rgbf000070-resize_1/002725_2014-06-22_11-47-51_094959634447_rgbf000070-resize_1-target.png,250,2.195,1,2501,247,feet,jsons/v1_VE250_randls_76.json,467895,630564,35,Man
5,372273,DepthScenes,duration_manipulation_targetAtFixation,jsons/v1_VE250_randls_76.json,http://54.235.29.9/FacialAge/BNav_EC2/DepthDuration/v2_depth_duration_MTurk/v2_DepthDuration_HTML.html#155,155,1280,720,1280,720,8-20-2022,10-58-46,6,depth_duration_stimuli/002344_2014-06-28_20-06-29_260595134347_rgbf000030-resize_1/002344_2014-06-28_20-06-29_260595134347_rgbf000030-resize_1-target.png,250,1.5795,3,2461,257,feet,jsons/v1_VE250_randls_76.json,467895,630564,35,Man
6,372273,DepthScenes,duration_manipulation_targetAtFixation,jsons/v1_VE250_randls_76.json,http://54.235.29.9/FacialAge/BNav_EC2/DepthDuration/v2_depth_duration_MTurk/v2_DepthDuration_HTML.html#155,155,1280,720,1280,720,8-20-2022,10-58-46,7,depth_duration_stimuli/001158_2014-06-17_15-32-16_260595134347_rgbf000138-resize_2/001158_2014-06-17_15-32-16_260595134347_rgbf000138-resize_2-target.png,250,4.5315,1,2300,228,feet,jsons/v1_VE250_randls_76.json,467895,630564,35,Man
7,372273,DepthScenes,duration_manipulation_targetAtFixation,jsons/v1_VE250_randls_76.json,http://54.235.29.9/FacialAge/BNav_EC2/DepthDuration/v2_depth_duration_MTurk/v2_DepthDuration_HTML.html#155,155,1280,720,1280,720,8-20-2022,10-58-46,8,depth_duration_stimuli/000556_2014-06-09_22-42-56_260595134347_rgbf000214-resize_1/000556_2014-06-09_22-42-56_260595134347_rgbf000214-resize_1-target.png,250,4.8415,1,3106,257,feet,jsons/v1_VE250_randls_76.json,467895,630564,35,Man
8,372273,DepthScenes,duration_manipulation_targetAtFixation,jsons/v1_VE250_randls_76.json,http://54.235.29.9/FacialAge/BNav_EC2/DepthDuration/v2_depth_duration_MTurk/v2_DepthDuration_HTML.html#155,155,1280,720,1280,720,8-20-2022,10-58-46,9,depth_duration_stimuli/000917_2014-06-09_22-45-29_260595134347_rgbf000149-resize_3/000917_2014-06-09_22-45-29_260595134347_rgbf000149-resize_3-target.png,250,4.1865,1,1952,263,feet,jsons/v1_VE250_randls_76.json,467895,630564,35,Man
9,372273,DepthScenes,duration_manipulation_targetAtFixation,jsons/v1_VE250_randls_76.json,http://54.235.29.9/FacialAge/BNav_EC2/DepthDuration/v2_depth_duration_MTurk/v2_DepthDuration_HTML.html#155,155,1280,720,1280,720,8-20-2022,10-58-46,10,depth_duration_stimuli/002323_2014-06-28_20-01-54_260595134347_rgbf000051-resize_4/002323_2014-06-28_20-01-54_260595134347_rgbf000051-resize_4-target.png,250,3.7310000000000003,2,2117,236,feet,jsons/v1_VE250_randls_76.json,467895,630564,35,Man
10,372273,DepthScenes,duration_manipulation_targetAtFixation,jsons/v1_VE250_randls_76.json,http://54.235.29.9/FacialAge/BNav_EC2/DepthDuration/v2_depth_duration_MTurk/v2_DepthDuration_HTML.html#155,155,1280,720,1280,720,8-20-2022,10-58-46,11,depth_duration_stimuli/000878_2014-06-08_22-52-45_260595134347_rgbf000045-resize_2/000878_2014-06-08_22-52-45_260595134347_rgbf000045-resize_2-target.png,250,2.092,3,2695,238,feet,jsons/v1_VE250_randls_76.json,467895,630564,35,Man
11,372273,DepthScenes,duration_manipulation_targetAtFixation,jsons/v1_VE250_randls_76.json,http://54.235.29.9/FacialAge/BNav_EC2/DepthDuration/v2_depth_duration_MTurk/v2_DepthDuration_HTML.html#155,155,1280,720,1280,720,8-20-2022,10-58-46,12,depth_duration_stimuli/002953_2014-06-08_17-32-18_094959634447_rgbf000059-resize_5/002953_2014-06-08_17-32-18_094959634447_rgbf000059-resize_5-target.png,250,1.551,0,2967,258,feet,jsons/v1_VE250_randls_76.json,467895,630564,35,Man
12,372273,DepthScenes,duration_manipulation_targetAtFixation,jsons/v1_VE250_randls_76.json,http://54.235.29.9/FacialAge/BNav_EC2/DepthDuration/v2_depth_duration_MTurk/v2_DepthDuration_HTML.html#155,155,1280,720,1280,720,8-20-2022,10-58-46,13,depth_duration_stimuli/000569_2014-06-09_22-51-47_260595134347_rgbf000141-resize_3/000569_2014-06-09_22-51-47_260595134347_rgbf000141-resize-original.jpg,250,4.512,0,2528,248,feet,jsons/v1_VE250_randls_76.json,467895,630564,35,Man
13,372273,DepthScenes,duration_manipulation_targetAtFixation,jsons/v1_VE250_randls_76.json,http://54.235.29.9/FacialAge/BNav_EC2/DepthDuration/v2_depth_duration_MTurk/v2_DepthDuration_HTML.html#155,155,1280,720,1280,720,8-20-2022,10-58-46,14,depth_duration_stimuli/001029_2014-06-08_13-17-57_260595134347_rgbf000065-resize_1/001029_2014-06-08_13-17-57_260595134347_rgbf000065-resize_1-target.png,250,3.0835,3,2328,248,feet,jsons/v1_VE250_randls_76.json,467895,630564,35,Man
14,372273,DepthScenes,duration_manipulation_targetAtFixation,jsons/v1_VE250_randls_76.json,http://54.235.29.9/FacialAge/BNav_EC2/DepthDuration/v2_depth_duration_MTurk/v2_DepthDuration_HTML.html#155,155,1280,720,1280,720,8-20-2022,10-58-46,15,depth_duration_stimuli/000677_2014-06-08_23-10-32_260595134347_rgbf000158-resize_6/000677_2014-06-08_23-10-32_260595134347_rgbf000158-resize_6-target.png,250,3.556,2,2481,253,feet,jsons/v1_VE250_randls_76.json,467895,630564,35,Man
15,372273,DepthScenes,duration_manipulation_targetAtFixation,jsons/v1_VE250_randls_76.json,http://54.235.29.9/FacialAge/BNav_EC2/DepthDuration/v2_depth_duration_MTurk/v2_DepthDuration_HTML.html#155,155,1280,720,1280,720,8-20-2022,10-58-46,16,depth_duration_stimuli/002043_2014-06-24_20-29-38_260595134347_rgbf000039-resize_4/002043_2014-06-24_20-29-38_260595134347_rgbf000039-resize_4-target.png,250,2.8435,1,2004,252,feet,jsons/v1_VE250_randls_76.json,467895,630564,35,Man
16,372273,DepthScenes,duration_manipulation_targetAtFixation,jsons/v1_VE250_randls_76.json,http://54.235.29.9/FacialAge/BNav_EC2/DepthDuration/v2_depth_duration_MTurk/v2_DepthDuration_HTML.html#155,155,1280,720,1280,720,8-20-2022,10-58-46,17,depth_duration_stimuli/003048_2014-06-15_13-49-43_094959634447_rgbf000150-resize_1/003048_2014-06-15_13-49-43_094959634447_rgbf000150-resize_1-target.png,250,4.0035,5,2952,255,feet,jsons/v1_VE250_randls_76.json,467895,630564,35,Man
17,372273,DepthScenes,duration_manipulation_targetAtFixation,jsons/v1_VE250_randls_76.json,http://54.235.29.9/FacialAge/BNav_EC2/DepthDuration/v2_depth_duration_MTurk/v2_DepthDuration_HTML.html#155,155,1280,720,1280,720,8-20-2022,10-58-46,18,depth_duration_stimuli/001066_2014-06-08_22-03-20_260595134347_rgbf000066-resize_4/001066_2014-06-08_22-03-20_260595134347_rgbf000066-resize_4-target.png,250,4.2330000000000005,3,2401,248,feet,jsons/v1_VE250_randls_76.json,467895,630564,35,Man
18,372273,DepthScenes,duration_manipulation_targetAtFixation,jsons/v1_VE250_randls_76.json,http://54.235.29.9/FacialAge/BNav_EC2/DepthDuration/v2_depth_duration_MTurk/v2_DepthDuration_HTML.html#155,155,1280,720,1280,720,8-20-2022,10-58-46,19,depth_duration_stimuli/000742_2014-06-08_18-48-09_260595134347_rgbf000164-resize_4/000742_2014-06-08_18-48-09_260595134347_rgbf000164-resize_4-target.png,250,4.632,2,2368,248,feet,jsons/v1_VE250_randls_76.json,467895,630564,35,Man
19,372273,DepthScenes,duration_manipulation_targetAtFixation,jsons/v1_VE250_randls_76.json,http://54.235.29.9/FacialAge/BNav_EC2/DepthDuration/v2_depth_duration_MTurk/v2_DepthDuration_HTML.html#155,155,1280,720,1280,720,8-20-2022,10-58-46,20,depth_duration_stimuli/000368_2014-06-09_15-53-01_260595134347_rgbf000155-resize_2/000368_2014-06-09_15-53-01_260595134347_rgbf000155-resize_2-target.png,250,2.4859999999999998,3,2208,262,feet,jsons/v1_VE250_randls_76.json,467895,630564,35,Man
20,372273,DepthScenes,duration_manipulation_targetAtFixation,jsons/v1_VE250_randls_76.json,http://54.235.29.9/FacialAge/BNav_EC2/DepthDuration/v2_depth_duration_MTurk/v2_DepthDuration_HTML.html#155,155,1280,720,1280,720,8-20-2022,10-58-46,21,depth_duration_stimuli/002678_2014-06-13_16-15-32_094959634447_rgbf000151-resize_6/002678_2014-06-13_16-15-32_094959634447_rgbf000151-resize_6-target.png,250,2.1830000000000003,4,2672,239,feet,jsons/v1_VE250_randls_76.json,467895,630564,35,Man
21,372273,DepthScenes,duration_manipulation_targetAtFixation,jsons/v1_VE250_randls_76.json,http://54.235.29.9/FacialAge/BNav_EC2/DepthDuration/v2_depth_duration_MTurk/v2_DepthDuration_HTML.html#155,155,1280,720,1280,720,8-20-2022,10-58-46,22,depth_duration_stimuli/002549_2014-06-24_13-41-39_094959634447_rgbf000022-resize_3/002549_2014-06-24_13-41-39_094959634447_rgbf000022-resize_3-target.png,250,1.476,1,2306,259,feet,jsons/v1_VE250_randls_76.json,467895,630564,35,Man
22,372273,DepthScenes,duration_manipulation_targetAtFixation,jsons/v1_VE250_randls_76.json,http://54.235.29.9/FacialAge/BNav_EC2/DepthDuration/v2_depth_duration_MTurk/v2_DepthDuration_HTML.html#155,155,1280,720,1280,720,8-20-2022,10-58-46,23,depth_duration_stimuli/002750_2014-06-22_19-08-03_094959634447_rgbf000094-resize_4/002750_2014-06-22_19-08-03_094959634447_rgbf000094-resize_4-target.png,250,2.354,2,1894,259,feet,jsons/v1_VE250_randls_76.json,467895,630564,35,Man
23,372273,DepthScenes,duration_manipulation_targetAtFixation,jsons/v1_VE250_randls_76.json,http://54.235.29.9/FacialAge/BNav_EC2/DepthDuration/v2_depth_duration_MTurk/v2_DepthDuration_HTML.html#155,155,1280,720,1280,720,8-20-2022,10-58-46,24,depth_duration_stimuli/003070_2014-06-15_14-58-27_094959634447_rgbf000150-resize_3/003070_2014-06-15_14-58-27_094959634447_rgbf000150-resize_3-target.png,250,2.9415,2,2439,248,feet,jsons/v1_VE250_randls_76.json,467895,630564,35,Man
24,372273,DepthScenes,duration_manipulation_targetAtFixation,jsons/v1_VE250_randls_76.json,http://54.235.29.9/FacialAge/BNav_EC2/DepthDuration/v2_depth_duration_MTurk/v2_DepthDuration_HTML.html#155,155,1280,720,1280,720,8-20-2022,10-58-46,25,depth_duration_stimuli/000943_2014-06-09_19-31-07_260595134347_rgbf000128-resize_1/000943_2014-06-09_19-31-07_260595134347_rgbf000128-resize_1-target.png,250,1.9765,1,2081,241,feet,jsons/v1_VE250_randls_76.json,467895,630564,35,Man
25,372273,DepthScenes,duration_manipulation_targetAtFixation,jsons/v1_VE250_randls_76.json,http://54.235.29.9/FacialAge/BNav_EC2/DepthDuration/v2_depth_duration_MTurk/v2_DepthDuration_HTML.html#155,155,1280,720,1280,720,8-20-2022,10-58-46,26,depth_duration_stimuli/000929_2014-06-09_16-33-19_260595134347_rgbf000139-resize_0/000929_2014-06-09_16-33-19_260595134347_rgbf000139-resize_0-target.png,250,2.8680000000000003,1,2161,259,feet,jsons/v1_VE250_randls_76.json,467895,630564,35,Man
26,372273,DepthScenes,duration_manipulation_targetAtFixation,jsons/v1_VE250_randls_76.json,http://54.235.29.9/FacialAge/BNav_EC2/DepthDuration/v2_depth_duration_MTurk/v2_DepthDuration_HTML.html#155,155,1280,720,1280,720,8-20-2022,10-58-46,27,depth_duration_stimuli/000457_2014-06-08_16-52-43_260595134347_rgbf000199-resize_1/000457_2014-06-08_16-52-43_260595134347_rgbf000199-resize_1-target.png,250,3.6489999999999996,3,2908,243,feet,jsons/v1_VE250_randls_76.json,467895,630564,35,Man
27,372273,DepthScenes,duration_manipulation_targetAtFixation,jsons/v1_VE250_randls_76.json,http://54.235.29.9/FacialAge/BNav_EC2/DepthDuration/v2_depth_duration_MTurk/v2_DepthDuration_HTML.html#155,155,1280,720,1280,720,8-20-2022,10-58-46,28,depth_duration_stimuli/002600_2014-06-24_14-27-04_094959634447_rgbf000074-resize_2/002600_2014-06-24_14-27-04_094959634447_rgbf000074-resize_2-target.png,250,2.7575,3,2006,244,feet,jsons/v1_VE250_randls_76.json,467895,630564,35,Man
28,372273,DepthScenes,duration_manipulation_targetAtFixation,jsons/v1_VE250_randls_76.json,http://54.235.29.9/FacialAge/BNav_EC2/DepthDuration/v2_depth_duration_MTurk/v2_DepthDuration_HTML.html#155,155,1280,720,1280,720,8-20-2022,10-58-46,29,depth_duration_stimuli/003228_2014-05-14_13-42-35_094959634447_rgbf000101-resize_1/003228_2014-05-14_13-42-35_094959634447_rgbf000101-resize_1-target.png,250,1.9680000000000002,4,2888,252,feet,jsons/v1_VE250_randls_76.json,467895,630564,35,Man
29,372273,DepthScenes,duration_manipulation_targetAtFixation,jsons/v1_VE250_randls_76.json,http://54.235.29.9/FacialAge/BNav_EC2/DepthDuration/v2_depth_duration_MTurk/v2_DepthDuration_HTML.html#155,155,1280,720,1280,720,8-20-2022,10-58-46,30,depth_duration_stimuli/000375_2014-06-08_11-17-29_260595134347_rgbf000133-resize_2/000375_2014-06-08_11-17-29_260595134347_rgbf000133-resize-original.jpg,250,4.718,0,2705,241,feet,jsons/v1_VE250_randls_76.json,467895,630564,35,Man
30,372273,DepthScenes,duration_manipulation_targetAtFixation,jsons/v1_VE250_randls_76.json,http://54.235.29.9/FacialAge/BNav_EC2/DepthDuration/v2_depth_duration_MTurk/v2_DepthDuration_HTML.html#155,155,1280,720,1280,720,8-20-2022,10-58-46,31,depth_duration_stimuli/001199_2014-06-17_16-03-48_260595134347_rgbf000077-resize_0/001199_2014-06-17_16-03-48_260595134347_rgbf000077-resize_0-target.png,250,3.4375,5,3433,250,feet,jsons/v1_VE250_randls_76.json,467895,630564,35,Man
31,372273,DepthScenes,duration_manipulation_targetAtFixation,jsons/v1_VE250_randls_76.json,http://54.235.29.9/FacialAge/BNav_EC2/DepthDuration/v2_depth_duration_MTurk/v2_DepthDuration_HTML.html#155,155,1280,720,1280,720,8-20-2022,10-58-46,32,depth_duration_stimuli/000502_2014-06-08_23-02-32_260595134347_rgbf000063-resize_4/000502_2014-06-08_23-02-32_260595134347_rgbf000063-resize_4-target.png,250,2.431,5,2063,253,feet,jsons/v1_VE250_randls_76.json,467895,630564,35,Man
32,372273,DepthScenes,duration_manipulation_targetAtFixation,jsons/v1_VE250_randls_76.json,http://54.235.29.9/FacialAge/BNav_EC2/DepthDuration/v2_depth_duration_MTurk/v2_DepthDuration_HTML.html#155,155,1280,720,1280,720,8-20-2022,10-58-46,33,depth_duration_stimuli/000486_2014-06-09_20-47-20_260595134347_rgbf000143-resize_2/000486_2014-06-09_20-47-20_260595134347_rgbf000143-resize_2-target.png,250,4.8325,5,2034,248,feet,jsons/v1_VE250_randls_76.json,467895,630564,35,Man
33,372273,DepthScenes,duration_manipulation_targetAtFixation,jsons/v1_VE250_randls_76.json,http://54.235.29.9/FacialAge/BNav_EC2/DepthDuration/v2_depth_duration_MTurk/v2_DepthDuration_HTML.html#155,155,1280,720,1280,720,8-20-2022,10-58-46,34,depth_duration_stimuli/003083_2014-06-15_15-21-03_094959634447_rgbf000063-resize_1/003083_2014-06-15_15-21-03_094959634447_rgbf000063-resize_1-target.png,250,4.1405,7,2476,254,feet,jsons/v1_VE250_randls_76.json,467895,630564,35,Man
34,372273,DepthScenes,duration_manipulation_targetAtFixation,jsons/v1_VE250_randls_76.json,http://54.235.29.9/FacialAge/BNav_EC2/DepthDuration/v2_depth_duration_MTurk/v2_DepthDuration_HTML.html#155,155,1280,720,1280,720,8-20-2022,10-58-46,35,depth_duration_stimuli/001167_2014-06-17_15-38-07_260595134347_rgbf000108-resize_0/001167_2014-06-17_15-38-07_260595134347_rgbf000108-resize_0-target.png,250,1.8505,3,2361,248,feet,jsons/v1_VE250_randls_76.json,467895,630564,35,Man
35,372273,DepthScenes,duration_manipulation_targetAtFixation,jsons/v1_VE250_randls_76.json,http://54.235.29.9/FacialAge/BNav_EC2/DepthDuration/v2_depth_duration_MTurk/v2_DepthDuration_HTML.html#155,155,1280,720,1280,720,8-20-2022,10-58-46,36,depth_duration_stimuli/003587_2014-05-23_16-48-02_094959634447_rgbf002384-resize_2/003587_2014-05-23_16-48-02_094959634447_rgbf002384-resize_2-target.png,250,1.357,2,2064,250,feet,jsons/v1_VE250_randls_76.json,467895,630564,35,Man
36,372273,DepthScenes,duration_manipulation_targetAtFixation,jsons/v1_VE250_randls_76.json,http://54.235.29.9/FacialAge/BNav_EC2/DepthDuration/v2_depth_duration_MTurk/v2_DepthDuration_HTML.html#155,155,1280,720,1280,720,8-20-2022,10-58-46,37,depth_duration_stimuli/000773_2014-06-08_22-24-54_260595134347_rgbf000093-resize_1/000773_2014-06-08_22-24-54_260595134347_rgbf000093-resize_1-target.png,250,4.973,5,2185,240,feet,jsons/v1_VE250_randls_76.json,467895,630564,35,Man
37,372273,DepthScenes,duration_manipulation_targetAtFixation,jsons/v1_VE250_randls_76.json,http://54.235.29.9/FacialAge/BNav_EC2/DepthDuration/v2_depth_duration_MTurk/v2_DepthDuration_HTML.html#155,155,1280,720,1280,720,8-20-2022,10-58-46,38,depth_duration_stimuli/002414_2014-06-28_20-24-58_260595134347_rgbf000067-resize_4/002414_2014-06-28_20-24-58_260595134347_rgbf000067-resize_4-target.png,250,4.363,6,2408,241,feet,jsons/v1_VE250_randls_76.json,467895,630564,35,Man
38,372273,DepthScenes,duration_manipulation_targetAtFixation,jsons/v1_VE250_randls_76.json,http://54.235.29.9/FacialAge/BNav_EC2/DepthDuration/v2_depth_duration_MTurk/v2_DepthDuration_HTML.html#155,155,1280,720,1280,720,8-20-2022,10-58-46,39,depth_duration_stimuli/000447_2014-06-08_16-15-46_260595134347_rgbf000130-resize_1/000447_2014-06-08_16-15-46_260595134347_rgbf000130-resize_1-target.png,250,4.479,7,4088,256,feet,jsons/v1_VE250_randls_76.json,467895,630564,35,Man
39,372273,DepthScenes,duration_manipulation_targetAtFixation,jsons/v1_VE250_randls_76.json,http://54.235.29.9/FacialAge/BNav_EC2/DepthDuration/v2_depth_duration_MTurk/v2_DepthDuration_HTML.html#155,155,1280,720,1280,720,8-20-2022,10-58-46,40,depth_duration_stimuli/001447_2014-06-19_17-00-32_260595134347_rgbf000082-resize_5/001447_2014-06-19_17-00-32_260595134347_rgbf000082-resize_5-target.png,250,4.13775,7,4124,251,feet,jsons/v1_VE250_randls_76.json,467895,630564,35,Man
40,372273,DepthScenes,duration_manipulation_targetAtFixation,jsons/v1_VE250_randls_76.json,http://54.235.29.9/FacialAge/BNav_EC2/DepthDuration/v2_depth_duration_MTurk/v2_DepthDuration_HTML.html#155,155,1280,720,1280,720,8-20-2022,10-58-46,41,depth_duration_stimuli/002272_2014-06-28_18-53-56_260595134347_rgbf000067-resize_2/002272_2014-06-28_18-53-56_260595134347_rgbf000067-resize_2-target.png,250,1.138,5,2400,244,feet,jsons/v1_VE250_randls_76.json,467895,630564,35,Man
41,372273,DepthScenes,duration_manipulation_targetAtFixation,jsons/v1_VE250_randls_76.json,http://54.235.29.9/FacialAge/BNav_EC2/DepthDuration/v2_depth_duration_MTurk/v2_DepthDuration_HTML.html#155,155,1280,720,1280,720,8-20-2022,10-58-46,42,depth_duration_stimuli/001571_2014-06-20_17-21-32_260595134347_rgbf000089-resize_1/001571_2014-06-20_17-21-32_260595134347_rgbf000089-resize_1-target.png,250,1.86,3,2293,253,feet,jsons/v1_VE250_randls_76.json,467895,630564,35,Man
42,372273,DepthScenes,duration_manipulation_targetAtFixation,jsons/v1_VE250_randls_76.json,http://54.235.29.9/FacialAge/BNav_EC2/DepthDuration/v2_depth_duration_MTurk/v2_DepthDuration_HTML.html#155,155,1280,720,1280,720,8-20-2022,10-58-46,43,depth_duration_stimuli/001056_2014-06-08_18-46-44_260595134347_rgbf000068-resize_0/001056_2014-06-08_18-46-44_260595134347_rgbf000068-resize_0-target.png,250,2.6625,5,2089,262,feet,jsons/v1_VE250_randls_76.json,467895,630564,35,Man
43,372273,DepthScenes,duration_manipulation_targetAtFixation,jsons/v1_VE250_randls_76.json,http://54.235.29.9/FacialAge/BNav_EC2/DepthDuration/v2_depth_duration_MTurk/v2_DepthDuration_HTML.html#155,155,1280,720,1280,720,8-20-2022,10-58-46,44,depth_duration_stimuli/002199_2014-06-28_18-33-56_260595134347_rgbf000074-resize_0/002199_2014-06-28_18-33-56_260595134347_rgbf000074-resize_0-target.png,250,1.996,3,2241,252,feet,jsons/v1_VE250_randls_76.json,467895,630564,35,Man
44,372273,DepthScenes,duration_manipulation_targetAtFixation,jsons/v1_VE250_randls_76.json,http://54.235.29.9/FacialAge/BNav_EC2/DepthDuration/v2_depth_duration_MTurk/v2_DepthDuration_HTML.html#155,155,1280,720,1280,720,8-20-2022,10-58-46,45,depth_duration_stimuli/000787_2014-06-08_22-33-53_260595134347_rgbf000175-resize_1/000787_2014-06-08_22-33-53_260595134347_rgbf000175-resize-original.jpg,250,4.784,0,2633,239,feet,jsons/v1_VE250_randls_76.json,467895,630564,35,Man
45,372273,DepthScenes,duration_manipulation_targetAtFixation,jsons/v1_VE250_randls_76.json,http://54.235.29.9/FacialAge/BNav_EC2/DepthDuration/v2_depth_duration_MTurk/v2_DepthDuration_HTML.html#155,155,1280,720,1280,720,8-20-2022,10-58-46,46,depth_duration_stimuli/000642_2014-06-08_16-59-25_260595134347_rgbf000098-resize_2/000642_2014-06-08_16-59-25_260595134347_rgbf000098-resize_2-target.png,250,2.8815,5,2918,247,feet,jsons/v1_VE250_randls_76.json,467895,630564,35,Man
46,372273,DepthScenes,duration_manipulation_targetAtFixation,jsons/v1_VE250_randls_76.json,http://54.235.29.9/FacialAge/BNav_EC2/DepthDuration/v2_depth_duration_MTurk/v2_DepthDuration_HTML.html#155,155,1280,720,1280,720,8-20-2022,10-58-46,47,depth_duration_stimuli/002425_2014-06-28_20-27-29_260595134347_rgbf000031-resize_8/002425_2014-06-28_20-27-29_260595134347_rgbf000031-resize_8-target.png,250,3.8960000000000004,5,1889,247,feet,jsons/v1_VE250_randls_76.json,467895,630564,35,Man
47,372273,DepthScenes,duration_manipulation_targetAtFixation,jsons/v1_VE250_randls_76.json,http://54.235.29.9/FacialAge/BNav_EC2/DepthDuration/v2_depth_duration_MTurk/v2_DepthDuration_HTML.html#155,155,1280,720,1280,720,8-20-2022,10-58-46,48,depth_duration_stimuli/000682_2014-06-08_23-14-58_260595134347_rgbf000041-resize_5/000682_2014-06-08_23-14-58_260595134347_rgbf000041-resize_5-target.png,250,2.7239999999999998,3,2302,245,feet,jsons/v1_VE250_randls_76.json,467895,630564,35,Man
48,372273,DepthScenes,duration_manipulation_targetAtFixation,jsons/v1_VE250_randls_76.json,http://54.235.29.9/FacialAge/BNav_EC2/DepthDuration/v2_depth_duration_MTurk/v2_DepthDuration_HTML.html#155,155,1280,720,1280,720,8-20-2022,10-58-46,49,depth_duration_stimuli/001650_2014-06-20_12-09-00_260595134347_rgbf000087-resize_3/001650_2014-06-20_12-09-00_260595134347_rgbf000087-resize_3-target.png,250,1.9505,2,2333,235,feet,jsons/v1_VE250_randls_76.json,467895,630564,35,Man
49,372273,DepthScenes,duration_manipulation_targetAtFixation,jsons/v1_VE250_randls_76.json,http://54.235.29.9/FacialAge/BNav_EC2/DepthDuration/v2_depth_duration_MTurk/v2_DepthDuration_HTML.html#155,155,1280,720,1280,720,8-20-2022,10-58-46,50,depth_duration_stimuli/002763_2014-06-22_19-13-10_094959634447_rgbf000075-resize_4/002763_2014-06-22_19-13-10_094959634447_rgbf000075-resize_4-target.png,250,1.68375,5,2364,244,feet,jsons/v1_VE250_randls_76.json,467895,630564,35,Man
50,372273,DepthScenes,duration_manipulation_targetAtFixation,jsons/v1_VE250_randls_76.json,http://54.235.29.9/FacialAge/BNav_EC2/DepthDuration/v2_depth_duration_MTurk/v2_DepthDuration_HTML.html#155,155,1280,720,1280,720,8-20-2022,10-58-46,51,depth_duration_stimuli/002209_2014-06-28_18-36-10_260595134347_rgbf000051-resize_1/002209_2014-06-28_18-36-10_260595134347_rgbf000051-resize_1-target.png,250,2.057,3,1960,252,feet,jsons/v1_VE250_randls_76.json,467895,630564,35,Man
51,372273,DepthScenes,duration_manipulation_targetAtFixation,jsons/v1_VE250_randls_76.json,http://54.235.29.9/FacialAge/BNav_EC2/DepthDuration/v2_depth_duration_MTurk/v2_DepthDuration_HTML.html#155,155,1280,720,1280,720,8-20-2022,10-58-46,52,depth_duration_stimuli/000470_2014-06-09_19-42-40_260595134347_rgbf000094-resize_1/000470_2014-06-09_19-42-40_260595134347_rgbf000094-resize_1-target.png,250,1.831,3,1951,247,feet,jsons/v1_VE250_randls_76.json,467895,630564,35,Man
52,372273,DepthScenes,duration_manipulation_targetAtFixation,jsons/v1_VE250_randls_76.json,http://54.235.29.9/FacialAge/BNav_EC2/DepthDuration/v2_depth_duration_MTurk/v2_DepthDuration_HTML.html#155,155,1280,720,1280,720,8-20-2022,10-58-46,53,depth_duration_stimuli/000109_2014-05-14_23-41-52_260595134347_rgbf000035-resize_9/000109_2014-05-14_23-41-52_260595134347_rgbf000035-resize_9-target.png,250,1.3545,3,1878,240,feet,jsons/v1_VE250_randls_76.json,467895,630564,35,Man
53,372273,DepthScenes,duration_manipulation_targetAtFixation,jsons/v1_VE250_randls_76.json,http://54.235.29.9/FacialAge/BNav_EC2/DepthDuration/v2_depth_duration_MTurk/v2_DepthDuration_HTML.html#155,155,1280,720,1280,720,8-20-2022,10-58-46,54,depth_duration_stimuli/002988_2014-06-15_12-24-20_094959634447_rgbf000150-resize_1/002988_2014-06-15_12-24-20_094959634447_rgbf000150-resize_1-target.png,250,4.7669999999999995,8,2475,241,feet,jsons/v1_VE250_randls_76.json,467895,630564,35,Man
54,372273,DepthScenes,duration_manipulation_targetAtFixation,jsons/v1_VE250_randls_76.json,http://54.235.29.9/FacialAge/BNav_EC2/DepthDuration/v2_depth_duration_MTurk/v2_DepthDuration_HTML.html#155,155,1280,720,1280,720,8-20-2022,10-58-46,55,depth_duration_stimuli/001052_2014-06-08_18-24-54_260595134347_rgbf000130-resize_1/001052_2014-06-08_18-24-54_260595134347_rgbf000130-resize_1-target.png,250,4.1045,6,2425,254,feet,jsons/v1_VE250_randls_76.json,467895,630564,35,Man
55,372273,DepthScenes,duration_manipulation_targetAtFixation,jsons/v1_VE250_randls_76.json,http://54.235.29.9/FacialAge/BNav_EC2/DepthDuration/v2_depth_duration_MTurk/v2_DepthDuration_HTML.html#155,155,1280,720,1280,720,8-20-2022,10-58-46,56,depth_duration_stimuli/000522_2014-06-08_13-35-06_260595134347_rgbf000244-resize_1/000522_2014-06-08_13-35-06_260595134347_rgbf000244-resize_1-target.png,250,2.3715,3,2441,240,feet,jsons/v1_VE250_randls_76.json,467895,630564,35,Man
56,372273,DepthScenes,duration_manipulation_targetAtFixation,jsons/v1_VE250_randls_76.json,http://54.235.29.9/FacialAge/BNav_EC2/DepthDuration/v2_depth_duration_MTurk/v2_DepthDuration_HTML.html#155,155,1280,720,1280,720,8-20-2022,10-58-46,57,depth_duration_stimuli/002949_2014-06-26_15-57-42_094959634447_rgbf000079-resize_1/002949_2014-06-26_15-57-42_094959634447_rgbf000079-resize_1-target.png,250,1.8915,2,2543,257,feet,jsons/v1_VE250_randls_76.json,467895,630564,35,Man
57,372273,DepthScenes,duration_manipulation_targetAtFixation,jsons/v1_VE250_randls_76.json,http://54.235.29.9/FacialAge/BNav_EC2/DepthDuration/v2_depth_duration_MTurk/v2_DepthDuration_HTML.html#155,155,1280,720,1280,720,8-20-2022,10-58-46,58,depth_duration_stimuli/002509_2014-06-24_13-19-22_094959634447_rgbf000077-resize_0/002509_2014-06-24_13-19-22_094959634447_rgbf000077-resize_0-target.png,250,1.3065,3,2069,257,feet,jsons/v1_VE250_randls_76.json,467895,630564,35,Man
58,372273,DepthScenes,duration_manipulation_targetAtFixation,jsons/v1_VE250_randls_76.json,http://54.235.29.9/FacialAge/BNav_EC2/DepthDuration/v2_depth_duration_MTurk/v2_DepthDuration_HTML.html#155,155,1280,720,1280,720,8-20-2022,10-58-46,59,depth_duration_stimuli/003338_2014-05-20_11-01-23_094959634447_rgbf000051-resize_6/003338_2014-05-20_11-01-23_094959634447_rgbf000051-resize_6-target.png,250,1.693,3,2506,254,feet,jsons/v1_VE250_randls_76.json,467895,630564,35,Man
59,372273,DepthScenes,duration_manipulation_targetAtFixation,jsons/v1_VE250_randls_76.json,http://54.235.29.9/FacialAge/BNav_EC2/DepthDuration/v2_depth_duration_MTurk/v2_DepthDuration_HTML.html#155,155,1280,720,1280,720,8-20-2022,10-58-46,60,depth_duration_stimuli/000436_2014-06-09_22-25-11_260595134347_rgbf000137-resize_1/000436_2014-06-09_22-25-11_260595134347_rgbf000137-resize_1-target.png,250,4.0705,6,2280,240,feet,jsons/v1_VE250_randls_76.json,467895,630564,35,Man
60,372273,DepthScenes,duration_manipulation_targetAtFixation,jsons/v1_VE250_randls_76.json,http://54.235.29.9/FacialAge/BNav_EC2/DepthDuration/v2_depth_duration_MTurk/v2_DepthDuration_HTML.html#155,155,1280,720,1280,720,8-20-2022,10-58-46,61,depth_duration_stimuli/002444_2014-06-28_20-32-08_260595134347_rgbf000027-resize_0/002444_2014-06-28_20-32-08_260595134347_rgbf000027-resize_0-target.png,250,4.388999999999999,6,2322,248,feet,jsons/v1_VE250_randls_76.json,467895,630564,35,Man
61,372273,DepthScenes,duration_manipulation_targetAtFixation,jsons/v1_VE250_randls_76.json,http://54.235.29.9/FacialAge/BNav_EC2/DepthDuration/v2_depth_duration_MTurk/v2_DepthDuration_HTML.html#155,155,1280,720,1280,720,8-20-2022,10-58-46,62,depth_duration_stimuli/003621_2014-05-23_18-06-08_094959634447_rgbf000101-resize_1/003621_2014-05-23_18-06-08_094959634447_rgbf000101-resize_1-target.png,250,3.9835,6,2337,237,feet,jsons/v1_VE250_randls_76.json,467895,630564,35,Man
62,372273,DepthScenes,duration_manipulation_targetAtFixation,jsons/v1_VE250_randls_76.json,http://54.235.29.9/FacialAge/BNav_EC2/DepthDuration/v2_depth_duration_MTurk/v2_DepthDuration_HTML.html#155,155,1280,720,1280,720,8-20-2022,10-58-46,63,depth_duration_stimuli/001584_2014-06-20_11-07-43_260595134347_rgbf000002-resize_1/001584_2014-06-20_11-07-43_260595134347_rgbf000002-resize_1-target.png,250,3.53,5,2565,236,feet,jsons/v1_VE250_randls_76.json,467895,630564,35,Man
63,372273,DepthScenes,duration_manipulation_targetAtFixation,jsons/v1_VE250_randls_76.json,http://54.235.29.9/FacialAge/BNav_EC2/DepthDuration/v2_depth_duration_MTurk/v2_DepthDuration_HTML.html#155,155,1280,720,1280,720,8-20-2022,10-58-46,64,depth_duration_stimuli/001055_2014-06-08_18-45-35_260595134347_rgbf000111-resize_4/001055_2014-06-08_18-45-35_260595134347_rgbf000111-resize_4-target.png,250,2.4290000000000003,7,2624,259,feet,jsons/v1_VE250_randls_76.json,467895,630564,35,Man
64,372273,DepthScenes,duration_manipulation_targetAtFixation,jsons/v1_VE250_randls_76.json,http://54.235.29.9/FacialAge/BNav_EC2/DepthDuration/v2_depth_duration_MTurk/v2_DepthDuration_HTML.html#155,155,1280,720,1280,720,8-20-2022,10-58-46,65,depth_duration_stimuli/000549_2014-06-08_22-10-24_260595134347_rgbf000247-resize_3/000549_2014-06-08_22-10-24_260595134347_rgbf000247-resize_3-target.png,250,1.841,3,2156,236,feet,jsons/v1_VE250_randls_76.json,467895,630564,35,Man
65,372273,DepthScenes,duration_manipulation_targetAtFixation,jsons/v1_VE250_randls_76.json,http://54.235.29.9/FacialAge/BNav_EC2/DepthDuration/v2_depth_duration_MTurk/v2_DepthDuration_HTML.html#155,155,1280,720,1280,720,8-20-2022,10-58-46,66,depth_duration_stimuli/001222_2014-06-17_16-24-06_260595134347_rgbf000073-resize_0/001222_2014-06-17_16-24-06_260595134347_rgbf000073-resize-original.jpg,250,1.4385,0,2565,257,feet,jsons/v1_VE250_randls_76.json,467895,630564,35,Man
66,372273,DepthScenes,duration_manipulation_targetAtFixation,jsons/v1_VE250_randls_76.json,http://54.235.29.9/FacialAge/BNav_EC2/DepthDuration/v2_depth_duration_MTurk/v2_DepthDuration_HTML.html#155,155,1280,720,1280,720,8-20-2022,10-58-46,67,depth_duration_stimuli/000810_2014-06-08_17-20-01_260595134347_rgbf000105-resize_0/000810_2014-06-08_17-20-01_260595134347_rgbf000105-resize_0-target.png,250,1.4865,3,2200,252,feet,jsons/v1_VE250_randls_76.json,467895,630564,35,Man
67,372273,DepthScenes,duration_manipulation_targetAtFixation,jsons/v1_VE250_randls_76.json,http://54.235.29.9/FacialAge/BNav_EC2/DepthDuration/v2_depth_duration_MTurk/v2_DepthDuration_HTML.html#155,155,1280,720,1280,720,8-20-2022,10-58-46,68,depth_duration_stimuli/001214_2014-06-17_16-13-55_260595134347_rgbf000111-resize_0/001214_2014-06-17_16-13-55_260595134347_rgbf000111-resize_0-target.png,250,2.6505,3,1809,251,feet,jsons/v1_VE250_randls_76.json,467895,630564,35,Man
68,372273,DepthScenes,duration_manipulation_targetAtFixation,jsons/v1_VE250_randls_76.json,http://54.235.29.9/FacialAge/BNav_EC2/DepthDuration/v2_depth_duration_MTurk/v2_DepthDuration_HTML.html#155,155,1280,720,1280,720,8-20-2022,10-58-46,69,depth_duration_stimuli/002039_2014-06-24_20-22-38_260595134347_rgbf000084-resize_1/002039_2014-06-24_20-22-38_260595134347_rgbf000084-resize_1-target.png,250,4.408,5,2243,251,feet,jsons/v1_VE250_randls_76.json,467895,630564,35,Man
69,372273,DepthScenes,duration_manipulation_targetAtFixation,jsons/v1_VE250_randls_76.json,http://54.235.29.9/FacialAge/BNav_EC2/DepthDuration/v2_depth_duration_MTurk/v2_DepthDuration_HTML.html#155,155,1280,720,1280,720,8-20-2022,10-58-46,70,depth_duration_stimuli/002103_2014-06-25_20-00-40_260595134347_rgbf000049-resize_0/002103_2014-06-25_20-00-40_260595134347_rgbf000049-resize_0-target.png,250,4.105,6,2408,247,feet,jsons/v1_VE250_randls_76.json,467895,630564,35,Man
70,372273,DepthScenes,duration_manipulation_targetAtFixation,jsons/v1_VE250_randls_76.json,http://54.235.29.9/FacialAge/BNav_EC2/DepthDuration/v2_depth_duration_MTurk/v2_DepthDuration_HTML.html#155,155,1280,720,1280,720,8-20-2022,10-58-46,71,depth_duration_stimuli/002375_2014-06-28_20-13-44_260595134347_rgbf000032-resize_1/002375_2014-06-28_20-13-44_260595134347_rgbf000032-resize_1-target.png,250,4.0175,3,2117,243,feet,jsons/v1_VE250_randls_76.json,467895,630564,35,Man
71,372273,DepthScenes,duration_manipulation_targetAtFixation,jsons/v1_VE250_randls_76.json,http://54.235.29.9/FacialAge/BNav_EC2/DepthDuration/v2_depth_duration_MTurk/v2_DepthDuration_HTML.html#155,155,1280,720,1280,720,8-20-2022,10-58-46,72,depth_duration_stimuli/002657_2014-06-13_15-29-54_094959634447_rgbf000150-resize_1/002657_2014-06-13_15-29-54_094959634447_rgbf000150-resize_1-target.png,250,4.919,3,1878,249,feet,jsons/v1_VE250_randls_76.json,467895,630564,35,Man
72,372273,DepthScenes,duration_manipulation_targetAtFixation,jsons/v1_VE250_randls_76.json,http://54.235.29.9/FacialAge/BNav_EC2/DepthDuration/v2_depth_duration_MTurk/v2_DepthDuration_HTML.html#155,155,1280,720,1280,720,8-20-2022,10-58-46,73,depth_duration_stimuli/002663_2014-06-13_15-50-26_094959634447_rgbf000075-resize_1/002663_2014-06-13_15-50-26_094959634447_rgbf000075-resize_1-target.png,250,4.7495,6,2527,244,feet,jsons/v1_VE250_randls_76.json,467895,630564,35,Man
73,372273,DepthScenes,duration_manipulation_targetAtFixation,jsons/v1_VE250_randls_76.json,http://54.235.29.9/FacialAge/BNav_EC2/DepthDuration/v2_depth_duration_MTurk/v2_DepthDuration_HTML.html#155,155,1280,720,1280,720,8-20-2022,10-58-46,74,depth_duration_stimuli/000409_2014-06-04_19-23-33_260595134347_rgbf000067-resize_0/000409_2014-06-04_19-23-33_260595134347_rgbf000067-resize_0-target.png,250,3.7335,5,2200,241,feet,jsons/v1_VE250_randls_76.json,467895,630564,35,Man
74,372273,DepthScenes,duration_manipulation_targetAtFixation,jsons/v1_VE250_randls_76.json,http://54.235.29.9/FacialAge/BNav_EC2/DepthDuration/v2_depth_duration_MTurk/v2_DepthDuration_HTML.html#155,155,1280,720,1280,720,8-20-2022,10-58-46,75,depth_duration_stimuli/002153_2014-06-25_21-27-18_260595134347_rgbf000038-resize_5/002153_2014-06-25_21-27-18_260595134347_rgbf000038-resize_5-target.png,250,2.505,2,2163,261,feet,jsons/v1_VE250_randls_76.json,467895,630564,35,Man
75,372273,DepthScenes,duration_manipulation_targetAtFixation,jsons/v1_VE250_randls_76.json,http://54.235.29.9/FacialAge/BNav_EC2/DepthDuration/v2_depth_duration_MTurk/v2_DepthDuration_HTML.html#155,155,1280,720,1280,720,8-20-2022,10-58-46,76,depth_duration_stimuli/002660_2014-06-13_15-44-18_094959634447_rgbf001878-resize_2/002660_2014-06-13_15-44-18_094959634447_rgbf001878-resize_2-target.png,250,3.576,3,2009,251,feet,jsons/v1_VE250_randls_76.json,467895,630564,35,Man
76,372273,DepthScenes,duration_manipulation_targetAtFixation,jsons/v1_VE250_randls_76.json,http://54.235.29.9/FacialAge/BNav_EC2/DepthDuration/v2_depth_duration_MTurk/v2_DepthDuration_HTML.html#155,155,1280,720,1280,720,8-20-2022,10-58-46,77,depth_duration_stimuli/001016_2014-06-09_16-16-10_260595134347_rgbf000112-resize_5/001016_2014-06-09_16-16-10_260595134347_rgbf000112-resize_5-target.png,250,1.6565,4,2295,221,feet,jsons/v1_VE250_randls_76.json,467895,630564,35,Man
77,372273,DepthScenes,duration_manipulation_targetAtFixation,jsons/v1_VE250_randls_76.json,http://54.235.29.9/FacialAge/BNav_EC2/DepthDuration/v2_depth_duration_MTurk/v2_DepthDuration_HTML.html#155,155,1280,720,1280,720,8-20-2022,10-58-46,78,depth_duration_stimuli/002340_2014-06-28_20-05-46_260595134347_rgbf000113-resize_0/002340_2014-06-28_20-05-46_260595134347_rgbf000113-resize_0-target.png,250,2.4735,6,2384,247,feet,jsons/v1_VE250_randls_76.json,467895,630564,35,Man
78,372273,DepthScenes,duration_manipulation_targetAtFixation,jsons/v1_VE250_randls_76.json,http://54.235.29.9/FacialAge/BNav_EC2/DepthDuration/v2_depth_duration_MTurk/v2_DepthDuration_HTML.html#155,155,1280,720,1280,720,8-20-2022,10-58-46,79,depth_duration_stimuli/000009_2014-05-26_14-32-05_260595134347_rgbf000034-resize_3/000009_2014-05-26_14-32-05_260595134347_rgbf000034-resize_3-target.png,250,3.8715,8,2417,255,feet,jsons/v1_VE250_randls_76.json,467895,630564,35,Man
79,372273,DepthScenes,duration_manipulation_targetAtFixation,jsons/v1_VE250_randls_76.json,http://54.235.29.9/FacialAge/BNav_EC2/DepthDuration/v2_depth_duration_MTurk/v2_DepthDuration_HTML.html#155,155,1280,720,1280,720,8-20-2022,10-58-46,80,depth_duration_stimuli/001828_2014-06-26_21-40-03_260595134347_rgbf000024-resize_0/001828_2014-06-26_21-40-03_260595134347_rgbf000024-resize_0-target.png,250,4.8260000000000005,6,2172,235,feet,jsons/v1_VE250_randls_76.json,467895,630564,35,Man
80,372273,DepthScenes,duration_manipulation_targetAtFixation,jsons/v1_VE250_randls_76.json,http://54.235.29.9/FacialAge/BNav_EC2/DepthDuration/v2_depth_duration_MTurk/v2_DepthDuration_HTML.html#155,155,1280,720,1280,720,8-20-2022,10-58-46,81,depth_duration_stimuli/001570_2014-06-20_17-21-09_260595134347_rgbf000135-resize_4/001570_2014-06-20_17-21-09_260595134347_rgbf000135-resize_4-target.png,250,4.467,4,2089,254,feet,jsons/v1_VE250_randls_76.json,467895,630564,35,Man
81,372273,DepthScenes,duration_manipulation_targetAtFixation,jsons/v1_VE250_randls_76.json,http://54.235.29.9/FacialAge/BNav_EC2/DepthDuration/v2_depth_duration_MTurk/v2_DepthDuration_HTML.html#155,155,1280,720,1280,720,8-20-2022,10-58-46,82,depth_duration_stimuli/001392_2014-06-19_16-07-59_260595134347_rgbf000046-resize_1/001392_2014-06-19_16-07-59_260595134347_rgbf000046-resize_1-target.png,250,4.135,5,2047,246,feet,jsons/v1_VE250_randls_76.json,467895,630564,35,Man
82,372273,DepthScenes,duration_manipulation_targetAtFixation,jsons/v1_VE250_randls_76.json,http://54.235.29.9/FacialAge/BNav_EC2/DepthDuration/v2_depth_duration_MTurk/v2_DepthDuration_HTML.html#155,155,1280,720,1280,720,8-20-2022,10-58-46,83,depth_duration_stimuli/002118_2014-06-25_20-32-08_260595134347_rgbf000078-resize_1/002118_2014-06-25_20-32-08_260595134347_rgbf000078-resize_1-target.png,250,2.6460000000000004,2,2096,248,feet,jsons/v1_VE250_randls_76.json,467895,630564,35,Man
83,372273,DepthScenes,duration_manipulation_targetAtFixation,jsons/v1_VE250_randls_76.json,http://54.235.29.9/FacialAge/BNav_EC2/DepthDuration/v2_depth_duration_MTurk/v2_DepthDuration_HTML.html#155,155,1280,720,1280,720,8-20-2022,10-58-46,84,depth_duration_stimuli/001516_2014-06-20_16-25-09_260595134347_rgbf000076-resize_2/001516_2014-06-20_16-25-09_260595134347_rgbf000076-resize_2-target.png,250,1.7445,5,2330,245,feet,jsons/v1_VE250_randls_76.json,467895,630564,35,Man
84,372273,DepthScenes,duration_manipulation_targetAtFixation,jsons/v1_VE250_randls_76.json,http://54.235.29.9/FacialAge/BNav_EC2/DepthDuration/v2_depth_duration_MTurk/v2_DepthDuration_HTML.html#155,155,1280,720,1280,720,8-20-2022,10-58-46,85,depth_duration_stimuli/000692_2014-06-08_13-09-42_260595134347_rgbf000199-resize_2/000692_2014-06-08_13-09-42_260595134347_rgbf000199-resize_2-target.png,250,3.661,4,2322,233,feet,jsons/v1_VE250_randls_76.json,467895,630564,35,Man
85,372273,DepthScenes,duration_manipulation_targetAtFixation,jsons/v1_VE250_randls_76.json,http://54.235.29.9/FacialAge/BNav_EC2/DepthDuration/v2_depth_duration_MTurk/v2_DepthDuration_HTML.html#155,155,1280,720,1280,720,8-20-2022,10-58-46,86,depth_duration_stimuli/001094_2014-06-15_17-36-00_260595134347_rgbf000205-resize_0/001094_2014-06-15_17-36-00_260595134347_rgbf000205-resize_0-target.png,250,4.2175,5,2260,245,feet,jsons/v1_VE250_randls_76.json,467895,630564,35,Man
86,372273,DepthScenes,duration_manipulation_targetAtFixation,jsons/v1_VE250_randls_76.json,http://54.235.29.9/FacialAge/BNav_EC2/DepthDuration/v2_depth_duration_MTurk/v2_DepthDuration_HTML.html#155,155,1280,720,1280,720,8-20-2022,10-58-46,87,depth_duration_stimuli/001417_2014-06-19_16-25-36_260595134347_rgbf000115-resize_5/001417_2014-06-19_16-25-36_260595134347_rgbf000115-resize_5-target.png,250,4.6255,3,2201,256,feet,jsons/v1_VE250_randls_76.json,467895,630564,35,Man
87,372273,DepthScenes,duration_manipulation_targetAtFixation,jsons/v1_VE250_randls_76.json,http://54.235.29.9/FacialAge/BNav_EC2/DepthDuration/v2_depth_duration_MTurk/v2_DepthDuration_HTML.html#155,155,1280,720,1280,720,8-20-2022,10-58-46,88,depth_duration_stimuli/003081_2014-06-15_15-19-16_094959634447_rgbf000150-resize_1/003081_2014-06-15_15-19-16_094959634447_rgbf000150-resize_1-target.png,250,3.9125,4,2131,238,feet,jsons/v1_VE250_randls_76.json,467895,630564,35,Man
88,372273,DepthScenes,duration_manipulation_targetAtFixation,jsons/v1_VE250_randls_76.json,http://54.235.29.9/FacialAge/BNav_EC2/DepthDuration/v2_depth_duration_MTurk/v2_DepthDuration_HTML.html#155,155,1280,720,1280,720,8-20-2022,10-58-46,89,depth_duration_stimuli/000758_2014-06-08_22-05-08_260595134347_rgbf000085-resize_0/000758_2014-06-08_22-05-08_260595134347_rgbf000085-resize_0-target.png,250,3.3810000000000002,5,2033,264,feet,jsons/v1_VE250_randls_76.json,467895,630564,35,Man
89,372273,DepthScenes,duration_manipulation_targetAtFixation,jsons/v1_VE250_randls_76.json,http://54.235.29.9/FacialAge/BNav_EC2/DepthDuration/v2_depth_duration_MTurk/v2_DepthDuration_HTML.html#155,155,1280,720,1280,720,8-20-2022,10-58-46,90,depth_duration_stimuli/000854_2014-06-09_19-43-13_260595134347_rgbf000066-resize_0/000854_2014-06-09_19-43-13_260595134347_rgbf000066-resize_0-target.png,250,3.068,3,2120,257,feet,jsons/v1_VE250_randls_76.json,467895,630564,35,Man
90,372273,DepthScenes,duration_manipulation_targetAtFixation,jsons/v1_VE250_randls_76.json,http://54.235.29.9/FacialAge/BNav_EC2/DepthDuration/v2_depth_duration_MTurk/v2_DepthDuration_HTML.html#155,155,1280,720,1280,720,8-20-2022,10-58-46,91,depth_duration_stimuli/002964_2014-06-08_17-46-11_094959634447_rgbf000091-resize_4/002964_2014-06-08_17-46-11_094959634447_rgbf000091-resize_4-target.png,250,1.6909999999999998,2,2146,243,feet,jsons/v1_VE250_randls_76.json,467895,630564,35,Man
91,372273,DepthScenes,duration_manipulation_targetAtFixation,jsons/v1_VE250_randls_76.json,http://54.235.29.9/FacialAge/BNav_EC2/DepthDuration/v2_depth_duration_MTurk/v2_DepthDuration_HTML.html#155,155,1280,720,1280,720,8-20-2022,10-58-46,92,depth_duration_stimuli/002136_2014-06-25_21-18-03_260595134347_rgbf000109-resize_3/002136_2014-06-25_21-18-03_260595134347_rgbf000109-resize_3-target.png,250,1.9569999999999999,3,2624,253,feet,jsons/v1_VE250_randls_76.json,467895,630564,35,Man
92,372273,DepthScenes,duration_manipulation_targetAtFixation,jsons/v1_VE250_randls_76.json,http://54.235.29.9/FacialAge/BNav_EC2/DepthDuration/v2_depth_duration_MTurk/v2_DepthDuration_HTML.html#155,155,1280,720,1280,720,8-20-2022,10-58-46,93,depth_duration_stimuli/003534_2014-05-22_15-06-10_094959634447_rgbf000102-resize_4/003534_2014-05-22_15-06-10_094959634447_rgbf000102-resize_4-target.png,250,1.426,2,2283,243,feet,jsons/v1_VE250_randls_76.json,467895,630564,35,Man
93,372273,DepthScenes,duration_manipulation_targetAtFixation,jsons/v1_VE250_randls_76.json,http://54.235.29.9/FacialAge/BNav_EC2/DepthDuration/v2_depth_duration_MTurk/v2_DepthDuration_HTML.html#155,155,1280,720,1280,720,8-20-2022,10-58-46,94,depth_duration_stimuli/002637_2014-06-24_14-51-13_094959634447_rgbf000066-resize_4/002637_2014-06-24_14-51-13_094959634447_rgbf000066-resize_4-target.png,250,1.9955,5,2060,240,feet,jsons/v1_VE250_randls_76.json,467895,630564,35,Man
94,372273,DepthScenes,duration_manipulation_targetAtFixation,jsons/v1_VE250_randls_76.json,http://54.235.29.9/FacialAge/BNav_EC2/DepthDuration/v2_depth_duration_MTurk/v2_DepthDuration_HTML.html#155,155,1280,720,1280,720,8-20-2022,10-58-46,95,depth_duration_stimuli/001164_2014-06-17_15-35-46_260595134347_rgbf000085-resize_3/001164_2014-06-17_15-35-46_260595134347_rgbf000085-resize_3-target.png,250,2.354,6,2631,249,feet,jsons/v1_VE250_randls_76.json,467895,630564,35,Man
95,372273,DepthScenes,duration_manipulation_targetAtFixation,jsons/v1_VE250_randls_76.json,http://54.235.29.9/FacialAge/BNav_EC2/DepthDuration/v2_depth_duration_MTurk/v2_DepthDuration_HTML.html#155,155,1280,720,1280,720,8-20-2022,10-58-46,96,depth_duration_stimuli/001136_2014-06-17_15-19-41_260595134347_rgbf000076-resize_3/001136_2014-06-17_15-19-41_260595134347_rgbf000076-resize_3-target.png,250,1.8655,6,2779,245,feet,jsons/v1_VE250_randls_76.json,467895,630564,35,Man
96,372273,DepthScenes,duration_manipulation_targetAtFixation,jsons/v1_VE250_randls_76.json,http://54.235.29.9/FacialAge/BNav_EC2/DepthDuration/v2_depth_duration_MTurk/v2_DepthDuration_HTML.html#155,155,1280,720,1280,720,8-20-2022,10-58-46,97,depth_duration_stimuli/002057_2014-06-24_21-00-13_260595134347_rgbf000120-resize_1/002057_2014-06-24_21-00-13_260595134347_rgbf000120-resize_1-target.png,250,2.967,5,2450,249,feet,jsons/v1_VE250_randls_76.json,467895,630564,35,Man
97,372273,DepthScenes,duration_manipulation_targetAtFixation,jsons/v1_VE250_randls_76.json,http://54.235.29.9/FacialAge/BNav_EC2/DepthDuration/v2_depth_duration_MTurk/v2_DepthDuration_HTML.html#155,155,1280,720,1280,720,8-20-2022,10-58-46,98,depth_duration_stimuli/000709_2014-06-08_13-51-55_260595134347_rgbf000068-resize_3/000709_2014-06-08_13-51-55_260595134347_rgbf000068-resize_3-target.png,250,1.8030000000000002,2,2438,251,feet,jsons/v1_VE250_randls_76.json,467895,630564,35,Man
98,372273,DepthScenes,duration_manipulation_targetAtFixation,jsons/v1_VE250_randls_76.json,http://54.235.29.9/FacialAge/BNav_EC2/DepthDuration/v2_depth_duration_MTurk/v2_DepthDuration_HTML.html#155,155,1280,720,1280,720,8-20-2022,10-58-46,99,depth_duration_stimuli/001540_2014-06-20_17-01-05_260595134347_rgbf000086-resize_2/001540_2014-06-20_17-01-05_260595134347_rgbf000086-resize-original.jpg,250,1.459,0,2586,244,feet,jsons/v1_VE250_randls_76.json,467895,630564,35,Man
99,372273,DepthScenes,duration_manipulation_targetAtFixation,jsons/v1_VE250_randls_76.json,http://54.235.29.9/FacialAge/BNav_EC2/DepthDuration/v2_depth_duration_MTurk/v2_DepthDuration_HTML.html#155,155,1280,720,1280,720,8-20-2022,10-58-46,100,depth_duration_stimuli/001555_2014-06-20_17-12-10_260595134347_rgbf000065-resize_4/001555_2014-06-20_17-12-10_260595134347_rgbf000065-resize_4-target.png,250,1.633,3,4247,245,feet,jsons/v1_VE250_randls_76.json,467895,630564,35,Man
100,372273,DepthScenes,duration_manipulation_targetAtFixation,jsons/v1_VE250_randls_76.json,http://54.235.29.9/FacialAge/BNav_EC2/DepthDuration/v2_depth_duration_MTurk/v2_DepthDuration_HTML.html#155,155,1280,720,1280,720,8-20-2022,10-58-46,101,depth_duration_stimuli/000103_2014-05-14_22-01-17_260595134347_rgbf000152-resize_5/000103_2014-05-14_22-01-17_260595134347_rgbf000152-resize_5-target.png,250,1.993,3,3449,249,feet,jsons/v1_VE250_randls_76.json,467895,630564,35,Man
101,372273,DepthScenes,duration_manipulation_targetAtFixation,jsons/v1_VE250_randls_76.json,http://54.235.29.9/FacialAge/BNav_EC2/DepthDuration/v2_depth_duration_MTurk/v2_DepthDuration_HTML.html#155,155,1280,720,1280,720,8-20-2022,10-58-46,102,depth_duration_stimuli/003292_2014-05-14_21-53-49_094959634447_rgbf000100-resize_2/003292_2014-05-14_21-53-49_094959634447_rgbf000100-resize_2-target.png,250,3.4815,1,2273,249,feet,jsons/v1_VE250_randls_76.json,467895,630564,35,Man
102,372273,DepthScenes,duration_manipulation_targetAtFixation,jsons/v1_VE250_randls_76.json,http://54.235.29.9/FacialAge/BNav_EC2/DepthDuration/v2_depth_duration_MTurk/v2_DepthDuration_HTML.html#155,155,1280,720,1280,720,8-20-2022,10-58-46,103,depth_duration_stimuli/002639_2014-06-24_14-51-37_094959634447_rgbf000074-resize_4/002639_2014-06-24_14-51-37_094959634447_rgbf000074-resize_4-target.png,250,4.0375,4,3659,248,feet,jsons/v1_VE250_randls_76.json,467895,630564,35,Man
103,372273,DepthScenes,duration_manipulation_targetAtFixation,jsons/v1_VE250_randls_76.json,http://54.235.29.9/FacialAge/BNav_EC2/DepthDuration/v2_depth_duration_MTurk/v2_DepthDuration_HTML.html#155,155,1280,720,1280,720,8-20-2022,10-58-46,104,depth_duration_stimuli/001059_2014-06-08_21-53-27_260595134347_rgbf000061-resize_4/001059_2014-06-08_21-53-27_260595134347_rgbf000061-resize_4-target.png,250,2.4185,4,2212,245,feet,jsons/v1_VE250_randls_76.json,467895,630564,35,Man
104,372273,DepthScenes,duration_manipulation_targetAtFixation,jsons/v1_VE250_randls_76.json,http://54.235.29.9/FacialAge/BNav_EC2/DepthDuration/v2_depth_duration_MTurk/v2_DepthDuration_HTML.html#155,155,1280,720,1280,720,8-20-2022,10-58-46,105,depth_duration_stimuli/001032_2014-06-08_13-23-17_260595134347_rgbf000021-resize_3/001032_2014-06-08_13-23-17_260595134347_rgbf000021-resize_3-target.png,250,3.2725,4,2308,248,feet,jsons/v1_VE250_randls_76.json,467895,630564,35,Man
105,372273,DepthScenes,duration_manipulation_targetAtFixation,jsons/v1_VE250_randls_76.json,http://54.235.29.9/FacialAge/BNav_EC2/DepthDuration/v2_depth_duration_MTurk/v2_DepthDuration_HTML.html#155,155,1280,720,1280,720,8-20-2022,10-58-46,106,depth_duration_stimuli/000906_2014-06-08_13-35-43_260595134347_rgbf000155-resize_1/000906_2014-06-08_13-35-43_260595134347_rgbf000155-resize_1-target.png,250,2.8489999999999998,5,2118,239,feet,jsons/v1_VE250_randls_76.json,467895,630564,35,Man
106,372273,DepthScenes,duration_manipulation_targetAtFixation,jsons/v1_VE250_randls_76.json,http://54.235.29.9/FacialAge/BNav_EC2/DepthDuration/v2_depth_duration_MTurk/v2_DepthDuration_HTML.html#155,155,1280,720,1280,720,8-20-2022,10-58-46,107,depth_duration_stimuli/002805_2014-06-22_19-54-03_094959634447_rgbf000079-resize_1/002805_2014-06-22_19-54-03_094959634447_rgbf000079-resize_1-target.png,250,3.1439999999999997,5,2761,247,feet,jsons/v1_VE250_randls_76.json,467895,630564,35,Man
107,372273,DepthScenes,duration_manipulation_targetAtFixation,jsons/v1_VE250_randls_76.json,http://54.235.29.9/FacialAge/BNav_EC2/DepthDuration/v2_depth_duration_MTurk/v2_DepthDuration_HTML.html#155,155,1280,720,1280,720,8-20-2022,10-58-46,108,depth_duration_stimuli/002213_2014-06-28_18-37-58_260595134347_rgbf000055-resize_1/002213_2014-06-28_18-37-58_260595134347_rgbf000055-resize_1-target.png,250,3.62,6,2313,263,feet,jsons/v1_VE250_randls_76.json,467895,630564,35,Man
108,372273,DepthScenes,duration_manipulation_targetAtFixation,jsons/v1_VE250_randls_76.json,http://54.235.29.9/FacialAge/BNav_EC2/DepthDuration/v2_depth_duration_MTurk/v2_DepthDuration_HTML.html#155,155,1280,720,1280,720,8-20-2022,10-58-46,109,depth_duration_stimuli/000691_2014-06-08_13-08-50_260595134347_rgbf000132-resize_3/000691_2014-06-08_13-08-50_260595134347_rgbf000132-resize_3-target.png,250,4.1530000000000005,5,2497,247,feet,jsons/v1_VE250_randls_76.json,467895,630564,35,Man
109,372273,DepthScenes,duration_manipulation_targetAtFixation,jsons/v1_VE250_randls_76.json,http://54.235.29.9/FacialAge/BNav_EC2/DepthDuration/v2_depth_duration_MTurk/v2_DepthDuration_HTML.html#155,155,1280,720,1280,720,8-20-2022,10-58-46,110,depth_duration_stimuli/001011_2014-06-08_23-18-54_260595134347_rgbf000044-resize_4/001011_2014-06-08_23-18-54_260595134347_rgbf000044-resize_4-target.png,250,2.4730000000000003,5,1821,243,feet,jsons/v1_VE250_randls_76.json,467895,630564,35,Man
110,372273,DepthScenes,duration_manipulation_targetAtFixation,jsons/v1_VE250_randls_76.json,http://54.235.29.9/FacialAge/BNav_EC2/DepthDuration/v2_depth_duration_MTurk/v2_DepthDuration_HTML.html#155,155,1280,720,1280,720,8-20-2022,10-58-46,111,depth_duration_stimuli/002875_2014-06-01_15-19-00_094959634447_rgbf000151-resize_1/002875_2014-06-01_15-19-00_094959634447_rgbf000151-resize_1-target.png,250,1.9675,5,2281,247,feet,jsons/v1_VE250_randls_76.json,467895,630564,35,Man
111,372273,DepthScenes,duration_manipulation_targetAtFixation,jsons/v1_VE250_randls_76.json,http://54.235.29.9/FacialAge/BNav_EC2/DepthDuration/v2_depth_duration_MTurk/v2_DepthDuration_HTML.html#155,155,1280,720,1280,720,8-20-2022,10-58-46,112,depth_duration_stimuli/002630_2014-06-24_14-47-50_094959634447_rgbf000055-resize_1/002630_2014-06-24_14-47-50_094959634447_rgbf000055-resize_1-target.png,250,3.0095,5,2417,255,feet,jsons/v1_VE250_randls_76.json,467895,630564,35,Man
112,372273,DepthScenes,duration_manipulation_targetAtFixation,jsons/v1_VE250_randls_76.json,http://54.235.29.9/FacialAge/BNav_EC2/DepthDuration/v2_depth_duration_MTurk/v2_DepthDuration_HTML.html#155,155,1280,720,1280,720,8-20-2022,10-58-46,113,depth_duration_stimuli/002758_2014-06-22_19-11-20_094959634447_rgbf000128-resize_1/002758_2014-06-22_19-11-20_094959634447_rgbf000128-resize_1-target.png,250,2.555,5,2302,258,feet,jsons/v1_VE250_randls_76.json,467895,630564,35,Man
113,372273,DepthScenes,duration_manipulation_targetAtFixation,jsons/v1_VE250_randls_76.json,http://54.235.29.9/FacialAge/BNav_EC2/DepthDuration/v2_depth_duration_MTurk/v2_DepthDuration_HTML.html#155,155,1280,720,1280,720,8-20-2022,10-58-46,114,depth_duration_stimuli/001110_2014-06-15_17-25-28_260595134347_rgbf000150-resize_1/001110_2014-06-15_17-25-28_260595134347_rgbf000150-resize_1-target.png,250,1.7115,5,2138,233,feet,jsons/v1_VE250_randls_76.json,467895,630564,35,Man
114,372273,DepthScenes,duration_manipulation_targetAtFixation,jsons/v1_VE250_randls_76.json,http://54.235.29.9/FacialAge/BNav_EC2/DepthDuration/v2_depth_duration_MTurk/v2_DepthDuration_HTML.html#155,155,1280,720,1280,720,8-20-2022,10-58-46,115,depth_duration_stimuli/000927_2014-06-09_16-32-30_260595134347_rgbf000123-resize_3/000927_2014-06-09_16-32-30_260595134347_rgbf000123-resize_3-target.png,250,2.6785,5,2322,252,feet,jsons/v1_VE250_randls_76.json,467895,630564,35,Man
115,372273,DepthScenes,duration_manipulation_targetAtFixation,jsons/v1_VE250_randls_76.json,http://54.235.29.9/FacialAge/BNav_EC2/DepthDuration/v2_depth_duration_MTurk/v2_DepthDuration_HTML.html#155,155,1280,720,1280,720,8-20-2022,10-58-46,116,depth_duration_stimuli/001170_2014-06-17_15-43-44_260595134347_rgbf000096-resize_6/001170_2014-06-17_15-43-44_260595134347_rgbf000096-resize-original.jpg,250,1.1909999999999998,0,2902,252,feet,jsons/v1_VE250_randls_76.json,467895,630564,35,Man
116,372273,DepthScenes,duration_manipulation_targetAtFixation,jsons/v1_VE250_randls_76.json,http://54.235.29.9/FacialAge/BNav_EC2/DepthDuration/v2_depth_duration_MTurk/v2_DepthDuration_HTML.html#155,155,1280,720,1280,720,8-20-2022,10-58-46,117,depth_duration_stimuli/001806_2014-06-26_20-50-20_260595134347_rgbf000091-resize_1/001806_2014-06-26_20-50-20_260595134347_rgbf000091-resize_1-target.png,250,2.7305,3,2049,247,feet,jsons/v1_VE250_randls_76.json,467895,630564,35,Man
117,372273,DepthScenes,duration_manipulation_targetAtFixation,jsons/v1_VE250_randls_76.json,http://54.235.29.9/FacialAge/BNav_EC2/DepthDuration/v2_depth_duration_MTurk/v2_DepthDuration_HTML.html#155,155,1280,720,1280,720,8-20-2022,10-58-46,118,depth_duration_stimuli/001617_2014-06-20_11-35-32_260595134347_rgbf000066-resize_1/001617_2014-06-20_11-35-32_260595134347_rgbf000066-resize_1-target.png,250,3.7910000000000004,5,2156,248,feet,jsons/v1_VE250_randls_76.json,467895,630564,35,Man
118,372273,DepthScenes,duration_manipulation_targetAtFixation,jsons/v1_VE250_randls_76.json,http://54.235.29.9/FacialAge/BNav_EC2/DepthDuration/v2_depth_duration_MTurk/v2_DepthDuration_HTML.html#155,155,1280,720,1280,720,8-20-2022,10-58-46,119,depth_duration_stimuli/002445_2014-06-28_20-32-16_260595134347_rgbf000029-resize_4/002445_2014-06-28_20-32-16_260595134347_rgbf000029-resize_4-target.png,250,2.5315,3,2160,265,feet,jsons/v1_VE250_randls_76.json,467895,630564,35,Man
119,372273,DepthScenes,duration_manipulation_targetAtFixation,jsons/v1_VE250_randls_76.json,http://54.235.29.9/FacialAge/BNav_EC2/DepthDuration/v2_depth_duration_MTurk/v2_DepthDuration_HTML.html#155,155,1280,720,1280,720,8-20-2022,10-58-46,120,depth_duration_stimuli/000780_2014-06-08_22-28-29_260595134347_rgbf000126-resize_1/000780_2014-06-08_22-28-29_260595134347_rgbf000126-resize_1-target.png,250,3.3825,5,2108,255,feet,jsons/v1_VE250_randls_76.json,467895,630564,35,Man
120,372273,DepthScenes,duration_manipulation_targetAtFixation,jsons/v1_VE250_randls_76.json,http://54.235.29.9/FacialAge/BNav_EC2/DepthDuration/v2_depth_duration_MTurk/v2_DepthDuration_HTML.html#155,155,1280,720,1280,720,8-20-2022,10-58-46,121,depth_duration_stimuli/001808_2014-06-26_20-50-58_260595134347_rgbf000029-resize_1/001808_2014-06-26_20-50-58_260595134347_rgbf000029-resize_1-target.png,250,4.249,3,2320,264,feet,jsons/v1_VE250_randls_76.json,467895,630564,35,Man
121,372273,DepthScenes,duration_manipulation_targetAtFixation,jsons/v1_VE250_randls_76.json,http://54.235.29.9/FacialAge/BNav_EC2/DepthDuration/v2_depth_duration_MTurk/v2_DepthDuration_HTML.html#155,155,1280,720,1280,720,8-20-2022,10-58-46,122,depth_duration_stimuli/001815_2014-06-26_20-52-55_260595134347_rgbf000020-resize_0/001815_2014-06-26_20-52-55_260595134347_rgbf000020-resize_0-target.png,250,3.3865,4,2586,262,feet,jsons/v1_VE250_randls_76.json,467895,630564,35,Man
122,372273,DepthScenes,duration_manipulation_targetAtFixation,jsons/v1_VE250_randls_76.json,http://54.235.29.9/FacialAge/BNav_EC2/DepthDuration/v2_depth_duration_MTurk/v2_DepthDuration_HTML.html#155,155,1280,720,1280,720,8-20-2022,10-58-46,123,depth_duration_stimuli/001810_2014-06-26_20-51-35_260595134347_rgbf000040-resize_3/001810_2014-06-26_20-51-35_260595134347_rgbf000040-resize_3-target.png,250,2.2525,3,2668,236,feet,jsons/v1_VE250_randls_76.json,467895,630564,35,Man
123,372273,DepthScenes,duration_manipulation_targetAtFixation,jsons/v1_VE250_randls_76.json,http://54.235.29.9/FacialAge/BNav_EC2/DepthDuration/v2_depth_duration_MTurk/v2_DepthDuration_HTML.html#155,155,1280,720,1280,720,8-20-2022,10-58-46,124,depth_duration_stimuli/003010_2014-06-15_12-54-35_094959634447_rgbf000112-resize_0/003010_2014-06-15_12-54-35_094959634447_rgbf000112-resize_0-target.png,250,3.1185,5,2235,234,feet,jsons/v1_VE250_randls_76.json,467895,630564,35,Man
124,372273,DepthScenes,duration_manipulation_targetAtFixation,jsons/v1_VE250_randls_76.json,http://54.235.29.9/FacialAge/BNav_EC2/DepthDuration/v2_depth_duration_MTurk/v2_DepthDuration_HTML.html#155,155,1280,720,1280,720,8-20-2022,10-58-46,125,depth_duration_stimuli/001175_2014-06-17_15-45-55_260595134347_rgbf000129-resize_4/001175_2014-06-17_15-45-55_260595134347_rgbf000129-resize_4-target.png,250,4.255,3,2171,245,feet,jsons/v1_VE250_randls_76.json,467895,630564,35,Man
125,372273,DepthScenes,duration_manipulation_targetAtFixation,jsons/v1_VE250_randls_76.json,http://54.235.29.9/FacialAge/BNav_EC2/DepthDuration/v2_depth_duration_MTurk/v2_DepthDuration_HTML.html#155,155,1280,720,1280,720,8-20-2022,10-58-46,126,depth_duration_stimuli/003490_2014-05-21_15-50-11_094959634447_rgbf000101-resize_3/003490_2014-05-21_15-50-11_094959634447_rgbf000101-resize_3-target.png,250,3.6445,2,2278,250,feet,jsons/v1_VE250_randls_76.json,467895,630564,35,Man
126,372273,DepthScenes,duration_manipulation_targetAtFixation,jsons/v1_VE250_randls_76.json,http://54.235.29.9/FacialAge/BNav_EC2/DepthDuration/v2_depth_duration_MTurk/v2_DepthDuration_HTML.html#155,155,1280,720,1280,720,8-20-2022,10-58-46,127,depth_duration_stimuli/000493_2014-06-09_21-01-18_260595134347_rgbf000196-resize_3/000493_2014-06-09_21-01-18_260595134347_rgbf000196-resize_3-target.png,250,3.44,3,2540,248,feet,jsons/v1_VE250_randls_76.json,467895,630564,35,Man
127,372273,DepthScenes,duration_manipulation_targetAtFixation,jsons/v1_VE250_randls_76.json,http://54.235.29.9/FacialAge/BNav_EC2/DepthDuration/v2_depth_duration_MTurk/v2_DepthDuration_HTML.html#155,155,1280,720,1280,720,8-20-2022,10-58-46,128,depth_duration_stimuli/000191_2014-05-12_17-07-38_260595134347_rgbf000199-resize_0/000191_2014-05-12_17-07-38_260595134347_rgbf000199-resize_0-target.png,250,3.7995,3,2345,252,feet,jsons/v1_VE250_randls_76.json,467895,630564,35,Man
128,372273,DepthScenes,duration_manipulation_targetAtFixation,jsons/v1_VE250_randls_76.json,http://54.235.29.9/FacialAge/BNav_EC2/DepthDuration/v2_depth_duration_MTurk/v2_DepthDuration_HTML.html#155,155,1280,720,1280,720,8-20-2022,10-58-46,129,depth_duration_stimuli/002279_2014-06-28_18-55-32_260595134347_rgbf000040-resize_5/002279_2014-06-28_18-55-32_260595134347_rgbf000040-resize_5-target.png,250,1.5043333333333,2,2155,249,feet,jsons/v1_VE250_randls_76.json,467895,630564,35,Man
129,372273,DepthScenes,duration_manipulation_targetAtFixation,jsons/v1_VE250_randls_76.json,http://54.235.29.9/FacialAge/BNav_EC2/DepthDuration/v2_depth_duration_MTurk/v2_DepthDuration_HTML.html#155,155,1280,720,1280,720,8-20-2022,10-58-46,130,depth_duration_stimuli/000635_2014-06-08_16-38-42_260595134347_rgbf000106-resize_1/000635_2014-06-08_16-38-42_260595134347_rgbf000106-resize_1-target.png,250,2.074,3,2152,251,feet,jsons/v1_VE250_randls_76.json,467895,630564,35,Man
130,372273,DepthScenes,duration_manipulation_targetAtFixation,jsons/v1_VE250_randls_76.json,http://54.235.29.9/FacialAge/BNav_EC2/DepthDuration/v2_depth_duration_MTurk/v2_DepthDuration_HTML.html#155,155,1280,720,1280,720,8-20-2022,10-58-46,131,depth_duration_stimuli/001092_2014-06-15_17-34-58_260595134347_rgbf000171-resize_3/001092_2014-06-15_17-34-58_260595134347_rgbf000171-resize_3-target.png,250,2.6935,3,2281,248,feet,jsons/v1_VE250_randls_76.json,467895,630564,35,Man
131,372273,DepthScenes,duration_manipulation_targetAtFixation,jsons/v1_VE250_randls_76.json,http://54.235.29.9/FacialAge/BNav_EC2/DepthDuration/v2_depth_duration_MTurk/v2_DepthDuration_HTML.html#155,155,1280,720,1280,720,8-20-2022,10-58-46,132,depth_duration_stimuli/002545_2014-06-24_13-38-53_094959634447_rgbf000080-resize_4/002545_2014-06-24_13-38-53_094959634447_rgbf000080-resize_4-target.png,250,1.9205,2,2348,243,feet,jsons/v1_VE250_randls_76.json,467895,630564,35,Man
132,372273,DepthScenes,duration_manipulation_targetAtFixation,jsons/v1_VE250_randls_76.json,http://54.235.29.9/FacialAge/BNav_EC2/DepthDuration/v2_depth_duration_MTurk/v2_DepthDuration_HTML.html#155,155,1280,720,1280,720,8-20-2022,10-58-46,133,depth_duration_stimuli/000469_2014-06-09_19-42-10_260595134347_rgbf000081-resize_1/000469_2014-06-09_19-42-10_260595134347_rgbf000081-resize_1-target.png,250,1.652,3,2353,254,feet,jsons/v1_VE250_randls_76.json,467895,630564,35,Man
133,372273,DepthScenes,duration_manipulation_targetAtFixation,jsons/v1_VE250_randls_76.json,http://54.235.29.9/FacialAge/BNav_EC2/DepthDuration/v2_depth_duration_MTurk/v2_DepthDuration_HTML.html#155,155,1280,720,1280,720,8-20-2022,10-58-46,134,depth_duration_stimuli/000483_2014-06-09_20-41-45_260595134347_rgbf000116-resize_4/000483_2014-06-09_20-41-45_260595134347_rgbf000116-resize_4-target.png,250,1.337,2,2345,247,feet,jsons/v1_VE250_randls_76.json,467895,630564,35,Man
134,372273,DepthScenes,duration_manipulation_targetAtFixation,jsons/v1_VE250_randls_76.json,http://54.235.29.9/FacialAge/BNav_EC2/DepthDuration/v2_depth_duration_MTurk/v2_DepthDuration_HTML.html#155,155,1280,720,1280,720,8-20-2022,10-58-46,135,depth_duration_stimuli/002072_2014-06-24_21-48-06_260595134347_rgbf000115-resize_0/002072_2014-06-24_21-48-06_260595134347_rgbf000115-resize-original.jpg,250,4.702,0,2515,255,feet,jsons/v1_VE250_randls_76.json,467895,630564,35,Man
135,372273,DepthScenes,duration_manipulation_targetAtFixation,jsons/v1_VE250_randls_76.json,http://54.235.29.9/FacialAge/BNav_EC2/DepthDuration/v2_depth_duration_MTurk/v2_DepthDuration_HTML.html#155,155,1280,720,1280,720,8-20-2022,10-58-46,136,depth_duration_stimuli/001449_2014-06-19_17-01-27_260595134347_rgbf000116-resize_2/001449_2014-06-19_17-01-27_260595134347_rgbf000116-resize_2-target.png,250,3.452,3,3101,245,feet,jsons/v1_VE250_randls_76.json,467895,630564,35,Man
136,372273,DepthScenes,duration_manipulation_targetAtFixation,jsons/v1_VE250_randls_76.json,http://54.235.29.9/FacialAge/BNav_EC2/DepthDuration/v2_depth_duration_MTurk/v2_DepthDuration_HTML.html#155,155,1280,720,1280,720,8-20-2022,10-58-46,137,depth_duration_stimuli/001450_2014-06-19_17-02-03_260595134347_rgbf000203-resize_4/001450_2014-06-19_17-02-03_260595134347_rgbf000203-resize_4-target.png,250,4.0106666666667,3,1964,236,feet,jsons/v1_VE250_randls_76.json,467895,630564,35,Man
137,372273,DepthScenes,duration_manipulation_targetAtFixation,jsons/v1_VE250_randls_76.json,http://54.235.29.9/FacialAge/BNav_EC2/DepthDuration/v2_depth_duration_MTurk/v2_DepthDuration_HTML.html#155,155,1280,720,1280,720,8-20-2022,10-58-46,138,depth_duration_stimuli/000736_2014-06-08_18-24-15_260595134347_rgbf000206-resize_3/000736_2014-06-08_18-24-15_260595134347_rgbf000206-resize_3-target.png,250,3.515,2,2605,242,feet,jsons/v1_VE250_randls_76.json,467895,630564,35,Man
138,372273,DepthScenes,duration_manipulation_targetAtFixation,jsons/v1_VE250_randls_76.json,http://54.235.29.9/FacialAge/BNav_EC2/DepthDuration/v2_depth_duration_MTurk/v2_DepthDuration_HTML.html#155,155,1280,720,1280,720,8-20-2022,10-58-46,139,depth_duration_stimuli/000137_2014-05-20_17-04-49_260595134347_rgbf000120-resize_1/000137_2014-05-20_17-04-49_260595134347_rgbf000120-resize_1-target.png,250,3.786,3,2175,271,feet,jsons/v1_VE250_randls_76.json,467895,630564,35,Man
139,372273,DepthScenes,duration_manipulation_targetAtFixation,jsons/v1_VE250_randls_76.json,http://54.235.29.9/FacialAge/BNav_EC2/DepthDuration/v2_depth_duration_MTurk/v2_DepthDuration_HTML.html#155,155,1280,720,1280,720,8-20-2022,10-58-46,140,depth_duration_stimuli/000739_2014-06-08_18-45-58_260595134347_rgbf000068-resize_1/000739_2014-06-08_18-45-58_260595134347_rgbf000068-resize_1-target.png,250,3.534,4,2322,247,feet,jsons/v1_VE250_randls_76.json,467895,630564,35,Man
140,372273,DepthScenes,duration_manipulation_targetAtFixation,jsons/v1_VE250_randls_76.json,http://54.235.29.9/FacialAge/BNav_EC2/DepthDuration/v2_depth_duration_MTurk/v2_DepthDuration_HTML.html#155,155,1280,720,1280,720,8-20-2022,10-58-46,141,depth_duration_stimuli/000734_2014-06-08_17-39-11_260595134347_rgbf000128-resize_2/000734_2014-06-08_17-39-11_260595134347_rgbf000128-resize_2-target.png,250,4.098,4,2238,257,feet,jsons/v1_VE250_randls_76.json,467895,630564,35,Man
141,372273,DepthScenes,duration_manipulation_targetAtFixation,jsons/v1_VE250_randls_76.json,http://54.235.29.9/FacialAge/BNav_EC2/DepthDuration/v2_depth_duration_MTurk/v2_DepthDuration_HTML.html#155,155,1280,720,1280,720,8-20-2022,10-58-46,142,depth_duration_stimuli/001244_2014-06-17_16-47-45_260595134347_rgbf000030-resize_4/001244_2014-06-17_16-47-45_260595134347_rgbf000030-resize_4-target.png,250,2.0425,3,2007,241,feet,jsons/v1_VE250_randls_76.json,467895,630564,35,Man
142,372273,DepthScenes,duration_manipulation_targetAtFixation,jsons/v1_VE250_randls_76.json,http://54.235.29.9/FacialAge/BNav_EC2/DepthDuration/v2_depth_duration_MTurk/v2_DepthDuration_HTML.html#155,155,1280,720,1280,720,8-20-2022,10-58-46,143,depth_duration_stimuli/003495_2014-05-21_16-01-51_094959634447_rgbf000100-resize_3/003495_2014-05-21_16-01-51_094959634447_rgbf000100-resize_3-target.png,250,1.6255,2,2076,243,feet,jsons/v1_VE250_randls_76.json,467895,630564,35,Man
143,372273,DepthScenes,duration_manipulation_targetAtFixation,jsons/v1_VE250_randls_76.json,http://54.235.29.9/FacialAge/BNav_EC2/DepthDuration/v2_depth_duration_MTurk/v2_DepthDuration_HTML.html#155,155,1280,720,1280,720,8-20-2022,10-58-46,144,depth_duration_stimuli/001150_2014-06-17_15-27-34_260595134347_rgbf000108-resize_2/001150_2014-06-17_15-27-34_260595134347_rgbf000108-resize_2-target.png,250,4.0325,2,1699,233,feet,jsons/v1_VE250_randls_76.json,467895,630564,35,Man
144,372273,DepthScenes,duration_manipulation_targetAtFixation,jsons/v1_VE250_randls_76.json,http://54.235.29.9/FacialAge/BNav_EC2/DepthDuration/v2_depth_duration_MTurk/v2_DepthDuration_HTML.html#155,155,1280,720,1280,720,8-20-2022,10-58-46,145,depth_duration_stimuli/000665_2014-06-09_20-42-35_260595134347_rgbf000110-resize_1/000665_2014-06-09_20-42-35_260595134347_rgbf000110-resize_1-target.png,250,3.057,3,2065,240,feet,jsons/v1_VE250_randls_76.json,467895,630564,35,Man
145,372273,DepthScenes,duration_manipulation_targetAtFixation,jsons/v1_VE250_randls_76.json,http://54.235.29.9/FacialAge/BNav_EC2/DepthDuration/v2_depth_duration_MTurk/v2_DepthDuration_HTML.html#155,155,1280,720,1280,720,8-20-2022,10-58-46,146,depth_duration_stimuli/001498_2014-06-19_17-45-14_260595134347_rgbf000129-resize_4/001498_2014-06-19_17-45-14_260595134347_rgbf000129-resize-original.jpg,250,1.4075,0,2276,241,feet,jsons/v1_VE250_randls_76.json,467895,630564,35,Man
146,372273,DepthScenes,duration_manipulation_targetAtFixation,jsons/v1_VE250_randls_76.json,http://54.235.29.9/FacialAge/BNav_EC2/DepthDuration/v2_depth_duration_MTurk/v2_DepthDuration_HTML.html#155,155,1280,720,1280,720,8-20-2022,10-58-46,147,depth_duration_stimuli/001133_2014-06-17_14-49-16_260595134347_rgbf000100-resize_0/001133_2014-06-17_14-49-16_260595134347_rgbf000100-resize_0-target.png,250,4.2115,3,2055,238,feet,jsons/v1_VE250_randls_76.json,467895,630564,35,Man
147,372273,DepthScenes,duration_manipulation_targetAtFixation,jsons/v1_VE250_randls_76.json,http://54.235.29.9/FacialAge/BNav_EC2/DepthDuration/v2_depth_duration_MTurk/v2_DepthDuration_HTML.html#155,155,1280,720,1280,720,8-20-2022,10-58-46,148,depth_duration_stimuli/001132_2014-06-17_14-48-54_260595134347_rgbf000100-resize_2/001132_2014-06-17_14-48-54_260595134347_rgbf000100-resize_2-target.png,250,3.753,3,1845,254,feet,jsons/v1_VE250_randls_76.json,467895,630564,35,Man
148,372273,DepthScenes,duration_manipulation_targetAtFixation,jsons/v1_VE250_randls_76.json,http://54.235.29.9/FacialAge/BNav_EC2/DepthDuration/v2_depth_duration_MTurk/v2_DepthDuration_HTML.html#155,155,1280,720,1280,720,8-20-2022,10-58-46,149,depth_duration_stimuli/000414_2014-06-04_19-49-13_260595134347_rgbf000044-resize_0/000414_2014-06-04_19-49-13_260595134347_rgbf000044-resize_0-target.png,250,4.329,5,2173,243,feet,jsons/v1_VE250_randls_76.json,467895,630564,35,Man
149,372273,DepthScenes,duration_manipulation_targetAtFixation,jsons/v1_VE250_randls_76.json,http://54.235.29.9/FacialAge/BNav_EC2/DepthDuration/v2_depth_duration_MTurk/v2_DepthDuration_HTML.html#155,155,1280,720,1280,720,8-20-2022,10-58-46,150,depth_duration_stimuli/003129_2014-05-12_10-48-10_094959634447_rgbf000100-resize_0/003129_2014-05-12_10-48-10_094959634447_rgbf000100-resize_0-target.png,250,4.9305,3,2037,229,feet,jsons/v1_VE250_randls_76.json,467895,630564,35,Man
150,372273,DepthScenes,duration_manipulation_targetAtFixation,jsons/v1_VE250_randls_76.json,http://54.235.29.9/FacialAge/BNav_EC2/DepthDuration/v2_depth_duration_MTurk/v2_DepthDuration_HTML.html#155,155,1280,720,1280,720,8-20-2022,10-58-46,151,depth_duration_stimuli/000788_2014-06-08_22-34-36_260595134347_rgbf000131-resize_1/000788_2014-06-08_22-34-36_260595134347_rgbf000131-resize_1-target.png,250,3.359,3,1691,241,feet,jsons/v1_VE250_randls_76.json,467895,630564,35,Man
151,372273,DepthScenes,duration_manipulation_targetAtFixation,jsons/v1_VE250_randls_76.json,http://54.235.29.9/FacialAge/BNav_EC2/DepthDuration/v2_depth_duration_MTurk/v2_DepthDuration_HTML.html#155,155,1280,720,1280,720,8-20-2022,10-58-46,152,depth_duration_stimuli/001235_2014-06-17_16-37-36_260595134347_rgbf000084-resize_4/001235_2014-06-17_16-37-36_260595134347_rgbf000084-resize_4-target.png,250,3.6605,4,2343,246,feet,jsons/v1_VE250_randls_76.json,467895,630564,35,Man
152,372273,DepthScenes,duration_manipulation_targetAtFixation,jsons/v1_VE250_randls_76.json,http://54.235.29.9/FacialAge/BNav_EC2/DepthDuration/v2_depth_duration_MTurk/v2_DepthDuration_HTML.html#155,155,1280,720,1280,720,8-20-2022,10-58-46,153,depth_duration_stimuli/003492_2014-05-21_15-50-55_094959634447_rgbf000828-resize_1/003492_2014-05-21_15-50-55_094959634447_rgbf000828-resize_1-target.png,250,4.06875,2,2037,244,feet,jsons/v1_VE250_randls_76.json,467895,630564,35,Man
153,372273,DepthScenes,duration_manipulation_targetAtFixation,jsons/v1_VE250_randls_76.json,http://54.235.29.9/FacialAge/BNav_EC2/DepthDuration/v2_depth_duration_MTurk/v2_DepthDuration_HTML.html#155,155,1280,720,1280,720,8-20-2022,10-58-46,154,depth_duration_stimuli/002568_2014-06-24_13-59-21_094959634447_rgbf000062-resize_4/002568_2014-06-24_13-59-21_094959634447_rgbf000062-resize_4-target.png,250,3.015,3,2219,260,feet,jsons/v1_VE250_randls_76.json,467895,630564,35,Man
154,372273,DepthScenes,duration_manipulation_targetAtFixation,jsons/v1_VE250_randls_76.json,http://54.235.29.9/FacialAge/BNav_EC2/DepthDuration/v2_depth_duration_MTurk/v2_DepthDuration_HTML.html#155,155,1280,720,1280,720,8-20-2022,10-58-46,155,depth_duration_stimuli/002748_2014-06-22_19-07-22_094959634447_rgbf000078-resize_1/002748_2014-06-22_19-07-22_094959634447_rgbf000078-resize_1-target.png,250,4.6705,4,2164,242,feet,jsons/v1_VE250_randls_76.json,467895,630564,35,Man
155,372273,DepthScenes,duration_manipulation_targetAtFixation,jsons/v1_VE250_randls_76.json,http://54.235.29.9/FacialAge/BNav_EC2/DepthDuration/v2_depth_duration_MTurk/v2_DepthDuration_HTML.html#155,155,1280,720,1280,720,8-20-2022,10-58-46,156,depth_duration_stimuli/002995_2014-06-15_12-31-26_094959634447_rgbf000150-resize_1/002995_2014-06-15_12-31-26_094959634447_rgbf000150-resize_1-target.png,250,3.8360000000000003,5,2142,231,feet,jsons/v1_VE250_randls_76.json,467895,630564,35,Man
156,372273,DepthScenes,duration_manipulation_targetAtFixation,jsons/v1_VE250_randls_76.json,http://54.235.29.9/FacialAge/BNav_EC2/DepthDuration/v2_depth_duration_MTurk/v2_DepthDuration_HTML.html#155,155,1280,720,1280,720,8-20-2022,10-58-46,157,depth_duration_stimuli/002788_2014-06-22_19-36-03_094959634447_rgbf000088-resize_2/002788_2014-06-22_19-36-03_094959634447_rgbf000088-resize_2-target.png,250,1.6465,4,2127,233,feet,jsons/v1_VE250_randls_76.json,467895,630564,35,Man
157,372273,DepthScenes,duration_manipulation_targetAtFixation,jsons/v1_VE250_randls_76.json,http://54.235.29.9/FacialAge/BNav_EC2/DepthDuration/v2_depth_duration_MTurk/v2_DepthDuration_HTML.html#155,155,1280,720,1280,720,8-20-2022,10-58-46,158,depth_duration_stimuli/000749_2014-06-08_21-55-06_260595134347_rgbf000070-resize_2/000749_2014-06-08_21-55-06_260595134347_rgbf000070-resize_2-target.png,250,2.331,4,1819,264,feet,jsons/v1_VE250_randls_76.json,467895,630564,35,Man
158,372273,DepthScenes,duration_manipulation_targetAtFixation,jsons/v1_VE250_randls_76.json,http://54.235.29.9/FacialAge/BNav_EC2/DepthDuration/v2_depth_duration_MTurk/v2_DepthDuration_HTML.html#155,155,1280,720,1280,720,8-20-2022,10-58-46,159,depth_duration_stimuli/000506_2014-06-08_23-21-00_260595134347_rgbf000070-resize_7/000506_2014-06-08_23-21-00_260595134347_rgbf000070-resize_7-target.png,250,4.0585,5,1930,262,feet,jsons/v1_VE250_randls_76.json,467895,630564,35,Man
159,372273,DepthScenes,duration_manipulation_targetAtFixation,jsons/v1_VE250_randls_76.json,http://54.235.29.9/FacialAge/BNav_EC2/DepthDuration/v2_depth_duration_MTurk/v2_DepthDuration_HTML.html#155,155,1280,720,1280,720,8-20-2022,10-58-46,160,depth_duration_stimuli/003079_2014-06-15_15-18-20_094959634447_rgbf000152-resize_8/003079_2014-06-15_15-18-20_094959634447_rgbf000152-resize_8-target.png,250,2.8775,5,2129,249,feet,jsons/v1_VE250_randls_76.json,467895,630564,35,Man
160,372273,DepthScenes,duration_manipulation_targetAtFixation,jsons/v1_VE250_randls_76.json,http://54.235.29.9/FacialAge/BNav_EC2/DepthDuration/v2_depth_duration_MTurk/v2_DepthDuration_HTML.html#155,155,1280,720,1280,720,8-20-2022,10-58-46,161,depth_duration_stimuli/002570_2014-06-24_13-59-54_094959634447_rgbf000059-resize_0/002570_2014-06-24_13-59-54_094959634447_rgbf000059-resize_0-target.png,250,4.037,2,2300,253,feet,jsons/v1_VE250_randls_76.json,467895,630564,35,Man
161,372273,DepthScenes,duration_manipulation_targetAtFixation,jsons/v1_VE250_randls_76.json,http://54.235.29.9/FacialAge/BNav_EC2/DepthDuration/v2_depth_duration_MTurk/v2_DepthDuration_HTML.html#155,155,1280,720,1280,720,8-20-2022,10-58-46,162,depth_duration_stimuli/002467_2014-06-28_20-38-07_260595134347_rgbf000026-resize_2/002467_2014-06-28_20-38-07_260595134347_rgbf000026-resize_2-target.png,250,4.742,4,2107,252,feet,jsons/v1_VE250_randls_76.json,467895,630564,35,Man
162,372273,DepthScenes,duration_manipulation_targetAtFixation,jsons/v1_VE250_randls_76.json,http://54.235.29.9/FacialAge/BNav_EC2/DepthDuration/v2_depth_duration_MTurk/v2_DepthDuration_HTML.html#155,155,1280,720,1280,720,8-20-2022,10-58-46,163,depth_duration_stimuli/002784_2014-06-22_19-26-30_094959634447_rgbf000083-resize_3/002784_2014-06-22_19-26-30_094959634447_rgbf000083-resize_3-target.png,250,1.8046666666667,2,2060,254,feet,jsons/v1_VE250_randls_76.json,467895,630564,35,Man
163,372273,DepthScenes,duration_manipulation_targetAtFixation,jsons/v1_VE250_randls_76.json,http://54.235.29.9/FacialAge/BNav_EC2/DepthDuration/v2_depth_duration_MTurk/v2_DepthDuration_HTML.html#155,155,1280,720,1280,720,8-20-2022,10-58-46,164,depth_duration_stimuli/001100_2014-06-15_17-46-26_260595134347_rgbf000225-resize_2/001100_2014-06-15_17-46-26_260595134347_rgbf000225-resize_2-target.png,250,2.24,3,1695,258,feet,jsons/v1_VE250_randls_76.json,467895,630564,35,Man
