,subjID,experimentName,versionName,sequenceName,url,selected_row,windowWidth,windowHeight,screenWidth,screenHeight,startDate,startTime,trial,stimulus,duration,actual_depth,depth_estimate,trial_RT,log_sceneDuration,unitSelection,seq_filepath,experimentTime,totalTime,age,gender
0,373718,DepthScenes,duration_manipulation_targetAtFixation,jsons/v1_VE1000_randls_37.json,http://54.235.29.9/FacialAge/BNav_EC2/DepthDuration/v2_depth_duration_MTurk/v2_DepthDuration_HTML.html#44,44,1280,720,1280,720,9-19-2022,17-55-21,1,depth_duration_stimuli/002279_2014-06-28_18-55-32_260595134347_rgbf000040-resize_5/002279_2014-06-28_18-55-32_260595134347_rgbf000040-resize_5-target.png,1000,1.5043333333333,1.0,4383,998,feet,jsons/v1_VE1000_randls_37.json,768484,983580,22,Man
1,373718,DepthScenes,duration_manipulation_targetAtFixation,jsons/v1_VE1000_randls_37.json,http://54.235.29.9/FacialAge/BNav_EC2/DepthDuration/v2_depth_duration_MTurk/v2_DepthDuration_HTML.html#44,44,1280,720,1280,720,9-19-2022,17-55-21,2,depth_duration_stimuli/000635_2014-06-08_16-38-42_260595134347_rgbf000106-resize_1/000635_2014-06-08_16-38-42_260595134347_rgbf000106-resize_1-target.png,1000,2.074,2.0,2967,998,feet,jsons/v1_VE1000_randls_37.json,768484,983580,22,Man
2,373718,DepthScenes,duration_manipulation_targetAtFixation,jsons/v1_VE1000_randls_37.json,http://54.235.29.9/FacialAge/BNav_EC2/DepthDuration/v2_depth_duration_MTurk/v2_DepthDuration_HTML.html#44,44,1280,720,1280,720,9-19-2022,17-55-21,3,depth_duration_stimuli/002988_2014-06-15_12-24-20_094959634447_rgbf000150-resize_1/002988_2014-06-15_12-24-20_094959634447_rgbf000150-resize_1-target.png,1000,4.7669999999999995,9.0,2844,1009,feet,jsons/v1_VE1000_randls_37.json,768484,983580,22,Man
3,373718,DepthScenes,duration_manipulation_targetAtFixation,jsons/v1_VE1000_randls_37.json,http://54.235.29.9/FacialAge/BNav_EC2/DepthDuration/v2_depth_duration_MTurk/v2_DepthDuration_HTML.html#44,44,1280,720,1280,720,9-19-2022,17-55-21,4,depth_duration_stimuli/001052_2014-06-08_18-24-54_260595134347_rgbf000130-resize_1/001052_2014-06-08_18-24-54_260595134347_rgbf000130-resize_1-target.png,1000,4.1045,6.0,4016,985,feet,jsons/v1_VE1000_randls_37.json,768484,983580,22,Man
4,373718,DepthScenes,duration_manipulation_targetAtFixation,jsons/v1_VE1000_randls_37.json,http://54.235.29.9/FacialAge/BNav_EC2/DepthDuration/v2_depth_duration_MTurk/v2_DepthDuration_HTML.html#44,44,1280,720,1280,720,9-19-2022,17-55-21,5,depth_duration_stimuli/001092_2014-06-15_17-34-58_260595134347_rgbf000171-resize_3/001092_2014-06-15_17-34-58_260595134347_rgbf000171-resize_3-target.png,1000,2.6935,2.0,2344,996,feet,jsons/v1_VE1000_randls_37.json,768484,983580,22,Man
5,373718,DepthScenes,duration_manipulation_targetAtFixation,jsons/v1_VE1000_randls_37.json,http://54.235.29.9/FacialAge/BNav_EC2/DepthDuration/v2_depth_duration_MTurk/v2_DepthDuration_HTML.html#44,44,1280,720,1280,720,9-19-2022,17-55-21,6,depth_duration_stimuli/002545_2014-06-24_13-38-53_094959634447_rgbf000080-resize_4/002545_2014-06-24_13-38-53_094959634447_rgbf000080-resize_4-target.png,1000,1.9205,5.0,3358,993,feet,jsons/v1_VE1000_randls_37.json,768484,983580,22,Man
6,373718,DepthScenes,duration_manipulation_targetAtFixation,jsons/v1_VE1000_randls_37.json,http://54.235.29.9/FacialAge/BNav_EC2/DepthDuration/v2_depth_duration_MTurk/v2_DepthDuration_HTML.html#44,44,1280,720,1280,720,9-19-2022,17-55-21,7,depth_duration_stimuli/000906_2014-06-08_13-35-43_260595134347_rgbf000155-resize_1/000906_2014-06-08_13-35-43_260595134347_rgbf000155-resize_1-target.png,1000,2.8489999999999998,6.0,3192,985,feet,jsons/v1_VE1000_randls_37.json,768484,983580,22,Man
7,373718,DepthScenes,duration_manipulation_targetAtFixation,jsons/v1_VE1000_randls_37.json,http://54.235.29.9/FacialAge/BNav_EC2/DepthDuration/v2_depth_duration_MTurk/v2_DepthDuration_HTML.html#44,44,1280,720,1280,720,9-19-2022,17-55-21,8,depth_duration_stimuli/002805_2014-06-22_19-54-03_094959634447_rgbf000079-resize_1/002805_2014-06-22_19-54-03_094959634447_rgbf000079-resize_1-target.png,1000,3.1439999999999997,6.0,3016,998,feet,jsons/v1_VE1000_randls_37.json,768484,983580,22,Man
8,373718,DepthScenes,duration_manipulation_targetAtFixation,jsons/v1_VE1000_randls_37.json,http://54.235.29.9/FacialAge/BNav_EC2/DepthDuration/v2_depth_duration_MTurk/v2_DepthDuration_HTML.html#44,44,1280,720,1280,720,9-19-2022,17-55-21,9,depth_duration_stimuli/002600_2014-06-24_14-27-04_094959634447_rgbf000074-resize_2/002600_2014-06-24_14-27-04_094959634447_rgbf000074-resize_2-target.png,1000,2.7575,4.0,2743,998,feet,jsons/v1_VE1000_randls_37.json,768484,983580,22,Man
9,373718,DepthScenes,duration_manipulation_targetAtFixation,jsons/v1_VE1000_randls_37.json,http://54.235.29.9/FacialAge/BNav_EC2/DepthDuration/v2_depth_duration_MTurk/v2_DepthDuration_HTML.html#44,44,1280,720,1280,720,9-19-2022,17-55-21,10,depth_duration_stimuli/003228_2014-05-14_13-42-35_094959634447_rgbf000101-resize_1/003228_2014-05-14_13-42-35_094959634447_rgbf000101-resize_1-target.png,1000,1.9680000000000002,1.0,2352,1006,feet,jsons/v1_VE1000_randls_37.json,768484,983580,22,Man
10,373718,DepthScenes,duration_manipulation_targetAtFixation,jsons/v1_VE1000_randls_37.json,http://54.235.29.9/FacialAge/BNav_EC2/DepthDuration/v2_depth_duration_MTurk/v2_DepthDuration_HTML.html#44,44,1280,720,1280,720,9-19-2022,17-55-21,11,depth_duration_stimuli/002057_2014-06-24_21-00-13_260595134347_rgbf000120-resize_1/002057_2014-06-24_21-00-13_260595134347_rgbf000120-resize_1-target.png,1000,2.967,6.0,4178,1009,feet,jsons/v1_VE1000_randls_37.json,768484,983580,22,Man
11,373718,DepthScenes,duration_manipulation_targetAtFixation,jsons/v1_VE1000_randls_37.json,http://54.235.29.9/FacialAge/BNav_EC2/DepthDuration/v2_depth_duration_MTurk/v2_DepthDuration_HTML.html#44,44,1280,720,1280,720,9-19-2022,17-55-21,12,depth_duration_stimuli/000709_2014-06-08_13-51-55_260595134347_rgbf000068-resize_3/000709_2014-06-08_13-51-55_260595134347_rgbf000068-resize_3-target.png,1000,1.8030000000000002,2.0,3454,993,feet,jsons/v1_VE1000_randls_37.json,768484,983580,22,Man
12,373718,DepthScenes,duration_manipulation_targetAtFixation,jsons/v1_VE1000_randls_37.json,http://54.235.29.9/FacialAge/BNav_EC2/DepthDuration/v2_depth_duration_MTurk/v2_DepthDuration_HTML.html#44,44,1280,720,1280,720,9-19-2022,17-55-21,13,depth_duration_stimuli/000569_2014-06-09_22-51-47_260595134347_rgbf000141-resize_3/000569_2014-06-09_22-51-47_260595134347_rgbf000141-resize-original.jpg,1000,4.512,0.0,2897,986,feet,jsons/v1_VE1000_randls_37.json,768484,983580,22,Man
13,373718,DepthScenes,duration_manipulation_targetAtFixation,jsons/v1_VE1000_randls_37.json,http://54.235.29.9/FacialAge/BNav_EC2/DepthDuration/v2_depth_duration_MTurk/v2_DepthDuration_HTML.html#44,44,1280,720,1280,720,9-19-2022,17-55-21,14,depth_duration_stimuli/001066_2014-06-08_22-03-20_260595134347_rgbf000066-resize_4/001066_2014-06-08_22-03-20_260595134347_rgbf000066-resize_4-target.png,1000,4.2330000000000005,8.0,2937,1000,feet,jsons/v1_VE1000_randls_37.json,768484,983580,22,Man
14,373718,DepthScenes,duration_manipulation_targetAtFixation,jsons/v1_VE1000_randls_37.json,http://54.235.29.9/FacialAge/BNav_EC2/DepthDuration/v2_depth_duration_MTurk/v2_DepthDuration_HTML.html#44,44,1280,720,1280,720,9-19-2022,17-55-21,15,depth_duration_stimuli/000742_2014-06-08_18-48-09_260595134347_rgbf000164-resize_4/000742_2014-06-08_18-48-09_260595134347_rgbf000164-resize_4-target.png,1000,4.632,6.0,3525,997,feet,jsons/v1_VE1000_randls_37.json,768484,983580,22,Man
15,373718,DepthScenes,duration_manipulation_targetAtFixation,jsons/v1_VE1000_randls_37.json,http://54.235.29.9/FacialAge/BNav_EC2/DepthDuration/v2_depth_duration_MTurk/v2_DepthDuration_HTML.html#44,44,1280,720,1280,720,9-19-2022,17-55-21,16,depth_duration_stimuli/001059_2014-06-08_21-53-27_260595134347_rgbf000061-resize_4/001059_2014-06-08_21-53-27_260595134347_rgbf000061-resize_4-target.png,1000,2.4185,3.0,2954,994,feet,jsons/v1_VE1000_randls_37.json,768484,983580,22,Man
16,373718,DepthScenes,duration_manipulation_targetAtFixation,jsons/v1_VE1000_randls_37.json,http://54.235.29.9/FacialAge/BNav_EC2/DepthDuration/v2_depth_duration_MTurk/v2_DepthDuration_HTML.html#44,44,1280,720,1280,720,9-19-2022,17-55-21,17,depth_duration_stimuli/001032_2014-06-08_13-23-17_260595134347_rgbf000021-resize_3/001032_2014-06-08_13-23-17_260595134347_rgbf000021-resize_3-target.png,1000,3.2725,6.0,5107,994,feet,jsons/v1_VE1000_randls_37.json,768484,983580,22,Man
17,373718,DepthScenes,duration_manipulation_targetAtFixation,jsons/v1_VE1000_randls_37.json,http://54.235.29.9/FacialAge/BNav_EC2/DepthDuration/v2_depth_duration_MTurk/v2_DepthDuration_HTML.html#44,44,1280,720,1280,720,9-19-2022,17-55-21,18,depth_duration_stimuli/000009_2014-05-26_14-32-05_260595134347_rgbf000034-resize_3/000009_2014-05-26_14-32-05_260595134347_rgbf000034-resize_3-target.png,1000,3.8715,8.0,4335,1005,feet,jsons/v1_VE1000_randls_37.json,768484,983580,22,Man
18,373718,DepthScenes,duration_manipulation_targetAtFixation,jsons/v1_VE1000_randls_37.json,http://54.235.29.9/FacialAge/BNav_EC2/DepthDuration/v2_depth_duration_MTurk/v2_DepthDuration_HTML.html#44,44,1280,720,1280,720,9-19-2022,17-55-21,19,depth_duration_stimuli/001828_2014-06-26_21-40-03_260595134347_rgbf000024-resize_0/001828_2014-06-26_21-40-03_260595134347_rgbf000024-resize_0-target.png,1000,4.8260000000000005,8.0,2910,995,feet,jsons/v1_VE1000_randls_37.json,768484,983580,22,Man
19,373718,DepthScenes,duration_manipulation_targetAtFixation,jsons/v1_VE1000_randls_37.json,http://54.235.29.9/FacialAge/BNav_EC2/DepthDuration/v2_depth_duration_MTurk/v2_DepthDuration_HTML.html#44,44,1280,720,1280,720,9-19-2022,17-55-21,20,depth_duration_stimuli/000522_2014-06-08_13-35-06_260595134347_rgbf000244-resize_1/000522_2014-06-08_13-35-06_260595134347_rgbf000244-resize_1-target.png,1000,2.3715,1.0,2711,993,feet,jsons/v1_VE1000_randls_37.json,768484,983580,22,Man
20,373718,DepthScenes,duration_manipulation_targetAtFixation,jsons/v1_VE1000_randls_37.json,http://54.235.29.9/FacialAge/BNav_EC2/DepthDuration/v2_depth_duration_MTurk/v2_DepthDuration_HTML.html#44,44,1280,720,1280,720,9-19-2022,17-55-21,21,depth_duration_stimuli/002949_2014-06-26_15-57-42_094959634447_rgbf000079-resize_1/002949_2014-06-26_15-57-42_094959634447_rgbf000079-resize_1-target.png,1000,1.8915,3.0,3033,992,feet,jsons/v1_VE1000_randls_37.json,768484,983580,22,Man
21,373718,DepthScenes,duration_manipulation_targetAtFixation,jsons/v1_VE1000_randls_37.json,http://54.235.29.9/FacialAge/BNav_EC2/DepthDuration/v2_depth_duration_MTurk/v2_DepthDuration_HTML.html#44,44,1280,720,1280,720,9-19-2022,17-55-21,22,depth_duration_stimuli/002153_2014-06-25_21-27-18_260595134347_rgbf000038-resize_5/002153_2014-06-25_21-27-18_260595134347_rgbf000038-resize_5-target.png,1000,2.505,3.0,2306,985,feet,jsons/v1_VE1000_randls_37.json,768484,983580,22,Man
22,373718,DepthScenes,duration_manipulation_targetAtFixation,jsons/v1_VE1000_randls_37.json,http://54.235.29.9/FacialAge/BNav_EC2/DepthDuration/v2_depth_duration_MTurk/v2_DepthDuration_HTML.html#44,44,1280,720,1280,720,9-19-2022,17-55-21,23,depth_duration_stimuli/002660_2014-06-13_15-44-18_094959634447_rgbf001878-resize_2/002660_2014-06-13_15-44-18_094959634447_rgbf001878-resize_2-target.png,1000,3.576,6.0,2710,996,feet,jsons/v1_VE1000_randls_37.json,768484,983580,22,Man
23,373718,DepthScenes,duration_manipulation_targetAtFixation,jsons/v1_VE1000_randls_37.json,http://54.235.29.9/FacialAge/BNav_EC2/DepthDuration/v2_depth_duration_MTurk/v2_DepthDuration_HTML.html#44,44,1280,720,1280,720,9-19-2022,17-55-21,24,depth_duration_stimuli/000773_2014-06-08_22-24-54_260595134347_rgbf000093-resize_1/000773_2014-06-08_22-24-54_260595134347_rgbf000093-resize_1-target.png,1000,4.973,7.0,2831,989,feet,jsons/v1_VE1000_randls_37.json,768484,983580,22,Man
24,373718,DepthScenes,duration_manipulation_targetAtFixation,jsons/v1_VE1000_randls_37.json,http://54.235.29.9/FacialAge/BNav_EC2/DepthDuration/v2_depth_duration_MTurk/v2_DepthDuration_HTML.html#44,44,1280,720,1280,720,9-19-2022,17-55-21,25,depth_duration_stimuli/002414_2014-06-28_20-24-58_260595134347_rgbf000067-resize_4/002414_2014-06-28_20-24-58_260595134347_rgbf000067-resize_4-target.png,1000,4.363,5.0,3289,990,feet,jsons/v1_VE1000_randls_37.json,768484,983580,22,Man
25,373718,DepthScenes,duration_manipulation_targetAtFixation,jsons/v1_VE1000_randls_37.json,http://54.235.29.9/FacialAge/BNav_EC2/DepthDuration/v2_depth_duration_MTurk/v2_DepthDuration_HTML.html#44,44,1280,720,1280,720,9-19-2022,17-55-21,26,depth_duration_stimuli/000447_2014-06-08_16-15-46_260595134347_rgbf000130-resize_1/000447_2014-06-08_16-15-46_260595134347_rgbf000130-resize_1-target.png,1000,4.479,6.0,3212,989,feet,jsons/v1_VE1000_randls_37.json,768484,983580,22,Man
26,373718,DepthScenes,duration_manipulation_targetAtFixation,jsons/v1_VE1000_randls_37.json,http://54.235.29.9/FacialAge/BNav_EC2/DepthDuration/v2_depth_duration_MTurk/v2_DepthDuration_HTML.html#44,44,1280,720,1280,720,9-19-2022,17-55-21,27,depth_duration_stimuli/001447_2014-06-19_17-00-32_260595134347_rgbf000082-resize_5/001447_2014-06-19_17-00-32_260595134347_rgbf000082-resize_5-target.png,1000,4.13775,3.0,2389,989,feet,jsons/v1_VE1000_randls_37.json,768484,983580,22,Man
27,373718,DepthScenes,duration_manipulation_targetAtFixation,jsons/v1_VE1000_randls_37.json,http://54.235.29.9/FacialAge/BNav_EC2/DepthDuration/v2_depth_duration_MTurk/v2_DepthDuration_HTML.html#44,44,1280,720,1280,720,9-19-2022,17-55-21,28,depth_duration_stimuli/000758_2014-06-08_22-05-08_260595134347_rgbf000085-resize_0/000758_2014-06-08_22-05-08_260595134347_rgbf000085-resize_0-target.png,1000,3.3810000000000002,5.0,3563,995,feet,jsons/v1_VE1000_randls_37.json,768484,983580,22,Man
28,373718,DepthScenes,duration_manipulation_targetAtFixation,jsons/v1_VE1000_randls_37.json,http://54.235.29.9/FacialAge/BNav_EC2/DepthDuration/v2_depth_duration_MTurk/v2_DepthDuration_HTML.html#44,44,1280,720,1280,720,9-19-2022,17-55-21,29,depth_duration_stimuli/000854_2014-06-09_19-43-13_260595134347_rgbf000066-resize_0/000854_2014-06-09_19-43-13_260595134347_rgbf000066-resize_0-target.png,1000,3.068,2.0,2719,999,feet,jsons/v1_VE1000_randls_37.json,768484,983580,22,Man
29,373718,DepthScenes,duration_manipulation_targetAtFixation,jsons/v1_VE1000_randls_37.json,http://54.235.29.9/FacialAge/BNav_EC2/DepthDuration/v2_depth_duration_MTurk/v2_DepthDuration_HTML.html#44,44,1280,720,1280,720,9-19-2022,17-55-21,30,depth_duration_stimuli/000375_2014-06-08_11-17-29_260595134347_rgbf000133-resize_2/000375_2014-06-08_11-17-29_260595134347_rgbf000133-resize-original.jpg,1000,4.718,0.0,3144,997,feet,jsons/v1_VE1000_randls_37.json,768484,983580,22,Man
30,373718,DepthScenes,duration_manipulation_targetAtFixation,jsons/v1_VE1000_randls_37.json,http://54.235.29.9/FacialAge/BNav_EC2/DepthDuration/v2_depth_duration_MTurk/v2_DepthDuration_HTML.html#44,44,1280,720,1280,720,9-19-2022,17-55-21,31,depth_duration_stimuli/000506_2014-06-08_23-21-00_260595134347_rgbf000070-resize_7/000506_2014-06-08_23-21-00_260595134347_rgbf000070-resize_7-target.png,1000,4.0585,3.0,3025,986,feet,jsons/v1_VE1000_randls_37.json,768484,983580,22,Man
31,373718,DepthScenes,duration_manipulation_targetAtFixation,jsons/v1_VE1000_randls_37.json,http://54.235.29.9/FacialAge/BNav_EC2/DepthDuration/v2_depth_duration_MTurk/v2_DepthDuration_HTML.html#44,44,1280,720,1280,720,9-19-2022,17-55-21,32,depth_duration_stimuli/003079_2014-06-15_15-18-20_094959634447_rgbf000152-resize_8/003079_2014-06-15_15-18-20_094959634447_rgbf000152-resize_8-target.png,1000,2.8775,5.0,2870,995,feet,jsons/v1_VE1000_randls_37.json,768484,983580,22,Man
32,373718,DepthScenes,duration_manipulation_targetAtFixation,jsons/v1_VE1000_randls_37.json,http://54.235.29.9/FacialAge/BNav_EC2/DepthDuration/v2_depth_duration_MTurk/v2_DepthDuration_HTML.html#44,44,1280,720,1280,720,9-19-2022,17-55-21,33,depth_duration_stimuli/003292_2014-05-14_21-53-49_094959634447_rgbf000100-resize_2/003292_2014-05-14_21-53-49_094959634447_rgbf000100-resize_2-target.png,1000,3.4815,4.0,2489,992,feet,jsons/v1_VE1000_randls_37.json,768484,983580,22,Man
33,373718,DepthScenes,duration_manipulation_targetAtFixation,jsons/v1_VE1000_randls_37.json,http://54.235.29.9/FacialAge/BNav_EC2/DepthDuration/v2_depth_duration_MTurk/v2_DepthDuration_HTML.html#44,44,1280,720,1280,720,9-19-2022,17-55-21,34,depth_duration_stimuli/002639_2014-06-24_14-51-37_094959634447_rgbf000074-resize_4/002639_2014-06-24_14-51-37_094959634447_rgbf000074-resize_4-target.png,1000,4.0375,6.0,3127,997,feet,jsons/v1_VE1000_randls_37.json,768484,983580,22,Man
34,373718,DepthScenes,duration_manipulation_targetAtFixation,jsons/v1_VE1000_randls_37.json,http://54.235.29.9/FacialAge/BNav_EC2/DepthDuration/v2_depth_duration_MTurk/v2_DepthDuration_HTML.html#44,44,1280,720,1280,720,9-19-2022,17-55-21,35,depth_duration_stimuli/002213_2014-06-28_18-37-58_260595134347_rgbf000055-resize_1/002213_2014-06-28_18-37-58_260595134347_rgbf000055-resize_1-target.png,1000,3.62,7.0,2703,985,feet,jsons/v1_VE1000_randls_37.json,768484,983580,22,Man
35,373718,DepthScenes,duration_manipulation_targetAtFixation,jsons/v1_VE1000_randls_37.json,http://54.235.29.9/FacialAge/BNav_EC2/DepthDuration/v2_depth_duration_MTurk/v2_DepthDuration_HTML.html#44,44,1280,720,1280,720,9-19-2022,17-55-21,36,depth_duration_stimuli/000691_2014-06-08_13-08-50_260595134347_rgbf000132-resize_3/000691_2014-06-08_13-08-50_260595134347_rgbf000132-resize_3-target.png,1000,4.1530000000000005,4.0,4193,999,feet,jsons/v1_VE1000_randls_37.json,768484,983580,22,Man
36,373718,DepthScenes,duration_manipulation_targetAtFixation,jsons/v1_VE1000_randls_37.json,http://54.235.29.9/FacialAge/BNav_EC2/DepthDuration/v2_depth_duration_MTurk/v2_DepthDuration_HTML.html#44,44,1280,720,1280,720,9-19-2022,17-55-21,37,depth_duration_stimuli/002748_2014-06-22_19-07-22_094959634447_rgbf000078-resize_1/002748_2014-06-22_19-07-22_094959634447_rgbf000078-resize_1-target.png,1000,4.6705,6.0,2911,1011,feet,jsons/v1_VE1000_randls_37.json,768484,983580,22,Man
37,373718,DepthScenes,duration_manipulation_targetAtFixation,jsons/v1_VE1000_randls_37.json,http://54.235.29.9/FacialAge/BNav_EC2/DepthDuration/v2_depth_duration_MTurk/v2_DepthDuration_HTML.html#44,44,1280,720,1280,720,9-19-2022,17-55-21,38,depth_duration_stimuli/002995_2014-06-15_12-31-26_094959634447_rgbf000150-resize_1/002995_2014-06-15_12-31-26_094959634447_rgbf000150-resize_1-target.png,1000,3.8360000000000003,6.0,4651,995,feet,jsons/v1_VE1000_randls_37.json,768484,983580,22,Man
38,373718,DepthScenes,duration_manipulation_targetAtFixation,jsons/v1_VE1000_randls_37.json,http://54.235.29.9/FacialAge/BNav_EC2/DepthDuration/v2_depth_duration_MTurk/v2_DepthDuration_HTML.html#44,44,1280,720,1280,720,9-19-2022,17-55-21,39,depth_duration_stimuli/000810_2014-06-08_17-20-01_260595134347_rgbf000105-resize_0/000810_2014-06-08_17-20-01_260595134347_rgbf000105-resize_0-target.png,1000,1.4865,4.0,3817,993,feet,jsons/v1_VE1000_randls_37.json,768484,983580,22,Man
39,373718,DepthScenes,duration_manipulation_targetAtFixation,jsons/v1_VE1000_randls_37.json,http://54.235.29.9/FacialAge/BNav_EC2/DepthDuration/v2_depth_duration_MTurk/v2_DepthDuration_HTML.html#44,44,1280,720,1280,720,9-19-2022,17-55-21,40,depth_duration_stimuli/001214_2014-06-17_16-13-55_260595134347_rgbf000111-resize_0/001214_2014-06-17_16-13-55_260595134347_rgbf000111-resize_0-target.png,1000,2.6505,3.0,2602,998,feet,jsons/v1_VE1000_randls_37.json,768484,983580,22,Man
40,373718,DepthScenes,duration_manipulation_targetAtFixation,jsons/v1_VE1000_randls_37.json,http://54.235.29.9/FacialAge/BNav_EC2/DepthDuration/v2_depth_duration_MTurk/v2_DepthDuration_HTML.html#44,44,1280,648,1280,720,9-19-2022,17-55-21,41,depth_duration_stimuli/002039_2014-06-24_20-22-38_260595134347_rgbf000084-resize_1/002039_2014-06-24_20-22-38_260595134347_rgbf000084-resize_1-target.png,1000,4.408,7.0,3347,984,feet,jsons/v1_VE1000_randls_37.json,768484,983580,22,Man
41,373718,DepthScenes,duration_manipulation_targetAtFixation,jsons/v1_VE1000_randls_37.json,http://54.235.29.9/FacialAge/BNav_EC2/DepthDuration/v2_depth_duration_MTurk/v2_DepthDuration_HTML.html#44,44,1280,648,1280,720,9-19-2022,17-55-21,42,depth_duration_stimuli/002103_2014-06-25_20-00-40_260595134347_rgbf000049-resize_0/002103_2014-06-25_20-00-40_260595134347_rgbf000049-resize_0-target.png,1000,4.105,5.0,5636,1762,feet,jsons/v1_VE1000_randls_37.json,768484,983580,22,Man
42,373718,DepthScenes,duration_manipulation_targetAtFixation,jsons/v1_VE1000_randls_37.json,http://54.235.29.9/FacialAge/BNav_EC2/DepthDuration/v2_depth_duration_MTurk/v2_DepthDuration_HTML.html#44,44,1280,648,1280,720,9-19-2022,17-55-21,43,depth_duration_stimuli/001011_2014-06-08_23-18-54_260595134347_rgbf000044-resize_4/001011_2014-06-08_23-18-54_260595134347_rgbf000044-resize_4-target.png,1000,2.4730000000000003,3.0,2618,1001,feet,jsons/v1_VE1000_randls_37.json,768484,983580,22,Man
43,373718,DepthScenes,duration_manipulation_targetAtFixation,jsons/v1_VE1000_randls_37.json,http://54.235.29.9/FacialAge/BNav_EC2/DepthDuration/v2_depth_duration_MTurk/v2_DepthDuration_HTML.html#44,44,1280,648,1280,720,9-19-2022,17-55-21,44,depth_duration_stimuli/002875_2014-06-01_15-19-00_094959634447_rgbf000151-resize_1/002875_2014-06-01_15-19-00_094959634447_rgbf000151-resize_1-target.png,1000,1.9675,6.0,5174,1022,feet,jsons/v1_VE1000_randls_37.json,768484,983580,22,Man
44,373718,DepthScenes,duration_manipulation_targetAtFixation,jsons/v1_VE1000_randls_37.json,http://54.235.29.9/FacialAge/BNav_EC2/DepthDuration/v2_depth_duration_MTurk/v2_DepthDuration_HTML.html#44,44,1280,648,1280,720,9-19-2022,17-55-21,45,depth_duration_stimuli/000787_2014-06-08_22-33-53_260595134347_rgbf000175-resize_1/000787_2014-06-08_22-33-53_260595134347_rgbf000175-resize-original.jpg,1000,4.784,0.0,3273,994,feet,jsons/v1_VE1000_randls_37.json,768484,983580,22,Man
45,373718,DepthScenes,duration_manipulation_targetAtFixation,jsons/v1_VE1000_randls_37.json,http://54.235.29.9/FacialAge/BNav_EC2/DepthDuration/v2_depth_duration_MTurk/v2_DepthDuration_HTML.html#44,44,1280,648,1280,720,9-19-2022,17-55-21,46,depth_duration_stimuli/002272_2014-06-28_18-53-56_260595134347_rgbf000067-resize_2/002272_2014-06-28_18-53-56_260595134347_rgbf000067-resize_2-target.png,1000,1.138,1.0,2951,998,feet,jsons/v1_VE1000_randls_37.json,768484,983580,22,Man
46,373718,DepthScenes,duration_manipulation_targetAtFixation,jsons/v1_VE1000_randls_37.json,http://54.235.29.9/FacialAge/BNav_EC2/DepthDuration/v2_depth_duration_MTurk/v2_DepthDuration_HTML.html#44,44,1280,648,1280,720,9-19-2022,17-55-21,47,depth_duration_stimuli/001571_2014-06-20_17-21-32_260595134347_rgbf000089-resize_1/001571_2014-06-20_17-21-32_260595134347_rgbf000089-resize_1-target.png,1000,1.86,2.0,2935,993,feet,jsons/v1_VE1000_randls_37.json,768484,983580,22,Man
47,373718,DepthScenes,duration_manipulation_targetAtFixation,jsons/v1_VE1000_randls_37.json,http://54.235.29.9/FacialAge/BNav_EC2/DepthDuration/v2_depth_duration_MTurk/v2_DepthDuration_HTML.html#44,44,1280,648,1280,720,9-19-2022,17-55-21,48,depth_duration_stimuli/002989_2014-06-15_12-25-03_094959634447_rgbf000150-resize_3/002989_2014-06-15_12-25-03_094959634447_rgbf000150-resize_3-target.png,1000,4.1975,7.0,3810,999,feet,jsons/v1_VE1000_randls_37.json,768484,983580,22,Man
48,373718,DepthScenes,duration_manipulation_targetAtFixation,jsons/v1_VE1000_randls_37.json,http://54.235.29.9/FacialAge/BNav_EC2/DepthDuration/v2_depth_duration_MTurk/v2_DepthDuration_HTML.html#44,44,1280,648,1280,720,9-19-2022,17-55-21,49,depth_duration_stimuli/000866_2014-06-09_20-45-42_260595134347_rgbf000139-resize_1/000866_2014-06-09_20-45-42_260595134347_rgbf000139-resize_1-target.png,1000,3.2155,7.0,8190,992,feet,jsons/v1_VE1000_randls_37.json,768484,983580,22,Man
49,373718,DepthScenes,duration_manipulation_targetAtFixation,jsons/v1_VE1000_randls_37.json,http://54.235.29.9/FacialAge/BNav_EC2/DepthDuration/v2_depth_duration_MTurk/v2_DepthDuration_HTML.html#44,44,1280,648,1280,720,9-19-2022,17-55-21,50,depth_duration_stimuli/002549_2014-06-24_13-41-39_094959634447_rgbf000022-resize_3/002549_2014-06-24_13-41-39_094959634447_rgbf000022-resize_3-target.png,1000,1.476,2.0,3013,999,feet,jsons/v1_VE1000_randls_37.json,768484,983580,22,Man
50,373718,DepthScenes,duration_manipulation_targetAtFixation,jsons/v1_VE1000_randls_37.json,http://54.235.29.9/FacialAge/BNav_EC2/DepthDuration/v2_depth_duration_MTurk/v2_DepthDuration_HTML.html#44,44,1280,648,1280,720,9-19-2022,17-55-21,51,depth_duration_stimuli/002750_2014-06-22_19-08-03_094959634447_rgbf000094-resize_4/002750_2014-06-22_19-08-03_094959634447_rgbf000094-resize_4-target.png,1000,2.354,5.0,2775,1003,feet,jsons/v1_VE1000_randls_37.json,768484,983580,22,Man
51,373718,DepthScenes,duration_manipulation_targetAtFixation,jsons/v1_VE1000_randls_37.json,http://54.235.29.9/FacialAge/BNav_EC2/DepthDuration/v2_depth_duration_MTurk/v2_DepthDuration_HTML.html#44,44,1280,648,1280,720,9-19-2022,17-55-21,52,depth_duration_stimuli/001016_2014-06-09_16-16-10_260595134347_rgbf000112-resize_5/001016_2014-06-09_16-16-10_260595134347_rgbf000112-resize_5-target.png,1000,1.6565,5.0,5748,995,feet,jsons/v1_VE1000_randls_37.json,768484,983580,22,Man
52,373718,DepthScenes,duration_manipulation_targetAtFixation,jsons/v1_VE1000_randls_37.json,http://54.235.29.9/FacialAge/BNav_EC2/DepthDuration/v2_depth_duration_MTurk/v2_DepthDuration_HTML.html#44,44,1280,648,1280,720,9-19-2022,17-55-21,53,depth_duration_stimuli/002340_2014-06-28_20-05-46_260595134347_rgbf000113-resize_0/002340_2014-06-28_20-05-46_260595134347_rgbf000113-resize_0-target.png,1000,2.4735,6.0,3656,1006,feet,jsons/v1_VE1000_randls_37.json,768484,983580,22,Man
53,373718,DepthScenes,duration_manipulation_targetAtFixation,jsons/v1_VE1000_randls_37.json,http://54.235.29.9/FacialAge/BNav_EC2/DepthDuration/v2_depth_duration_MTurk/v2_DepthDuration_HTML.html#44,44,1280,648,1280,720,9-19-2022,17-55-21,54,depth_duration_stimuli/000469_2014-06-09_19-42-10_260595134347_rgbf000081-resize_1/000469_2014-06-09_19-42-10_260595134347_rgbf000081-resize_1-target.png,1000,1.652,3.0,3004,997,feet,jsons/v1_VE1000_randls_37.json,768484,983580,22,Man
54,373718,DepthScenes,duration_manipulation_targetAtFixation,jsons/v1_VE1000_randls_37.json,http://54.235.29.9/FacialAge/BNav_EC2/DepthDuration/v2_depth_duration_MTurk/v2_DepthDuration_HTML.html#44,44,1280,648,1280,720,9-19-2022,17-55-21,55,depth_duration_stimuli/000483_2014-06-09_20-41-45_260595134347_rgbf000116-resize_4/000483_2014-06-09_20-41-45_260595134347_rgbf000116-resize_4-target.png,1000,1.337,2.0,3563,996,feet,jsons/v1_VE1000_randls_37.json,768484,983580,22,Man
55,373718,DepthScenes,duration_manipulation_targetAtFixation,jsons/v1_VE1000_randls_37.json,http://54.235.29.9/FacialAge/BNav_EC2/DepthDuration/v2_depth_duration_MTurk/v2_DepthDuration_HTML.html#44,44,1280,648,1280,720,9-19-2022,17-55-21,56,depth_duration_stimuli/002118_2014-06-25_20-32-08_260595134347_rgbf000078-resize_1/002118_2014-06-25_20-32-08_260595134347_rgbf000078-resize_1-target.png,1000,2.6460000000000004,4.0,2799,990,feet,jsons/v1_VE1000_randls_37.json,768484,983580,22,Man
56,373718,DepthScenes,duration_manipulation_targetAtFixation,jsons/v1_VE1000_randls_37.json,http://54.235.29.9/FacialAge/BNav_EC2/DepthDuration/v2_depth_duration_MTurk/v2_DepthDuration_HTML.html#44,44,1280,648,1280,720,9-19-2022,17-55-21,57,depth_duration_stimuli/001516_2014-06-20_16-25-09_260595134347_rgbf000076-resize_2/001516_2014-06-20_16-25-09_260595134347_rgbf000076-resize_2-target.png,1000,1.7445,5.0,5874,998,feet,jsons/v1_VE1000_randls_37.json,768484,983580,22,Man
57,373718,DepthScenes,duration_manipulation_targetAtFixation,jsons/v1_VE1000_randls_37.json,http://54.235.29.9/FacialAge/BNav_EC2/DepthDuration/v2_depth_duration_MTurk/v2_DepthDuration_HTML.html#44,44,1280,648,1280,720,9-19-2022,17-55-21,58,depth_duration_stimuli/002663_2014-06-13_15-50-26_094959634447_rgbf000075-resize_1/002663_2014-06-13_15-50-26_094959634447_rgbf000075-resize_1-target.png,1000,4.7495,7.0,2933,998,feet,jsons/v1_VE1000_randls_37.json,768484,983580,22,Man
58,373718,DepthScenes,duration_manipulation_targetAtFixation,jsons/v1_VE1000_randls_37.json,http://54.235.29.9/FacialAge/BNav_EC2/DepthDuration/v2_depth_duration_MTurk/v2_DepthDuration_HTML.html#44,44,1280,648,1280,720,9-19-2022,17-55-21,59,depth_duration_stimuli/000409_2014-06-04_19-23-33_260595134347_rgbf000067-resize_0/000409_2014-06-04_19-23-33_260595134347_rgbf000067-resize_0-target.png,1000,3.7335,5.0,2907,999,feet,jsons/v1_VE1000_randls_37.json,768484,983580,22,Man
59,373718,DepthScenes,duration_manipulation_targetAtFixation,jsons/v1_VE1000_randls_37.json,http://54.235.29.9/FacialAge/BNav_EC2/DepthDuration/v2_depth_duration_MTurk/v2_DepthDuration_HTML.html#44,44,1280,648,1280,720,9-19-2022,17-55-21,60,depth_duration_stimuli/002509_2014-06-24_13-19-22_094959634447_rgbf000077-resize_0/002509_2014-06-24_13-19-22_094959634447_rgbf000077-resize_0-target.png,1000,1.3065,3.0,5634,1820,feet,jsons/v1_VE1000_randls_37.json,768484,983580,22,Man
60,373718,DepthScenes,duration_manipulation_targetAtFixation,jsons/v1_VE1000_randls_37.json,http://54.235.29.9/FacialAge/BNav_EC2/DepthDuration/v2_depth_duration_MTurk/v2_DepthDuration_HTML.html#44,44,1280,648,1280,720,9-19-2022,17-55-21,61,depth_duration_stimuli/003338_2014-05-20_11-01-23_094959634447_rgbf000051-resize_6/003338_2014-05-20_11-01-23_094959634447_rgbf000051-resize_6-target.png,1000,1.693,3.0,2673,1013,feet,jsons/v1_VE1000_randls_37.json,768484,983580,22,Man
61,373718,DepthScenes,duration_manipulation_targetAtFixation,jsons/v1_VE1000_randls_37.json,http://54.235.29.9/FacialAge/BNav_EC2/DepthDuration/v2_depth_duration_MTurk/v2_DepthDuration_HTML.html#44,44,1280,648,1280,720,9-19-2022,17-55-21,62,depth_duration_stimuli/001570_2014-06-20_17-21-09_260595134347_rgbf000135-resize_4/001570_2014-06-20_17-21-09_260595134347_rgbf000135-resize_4-target.png,1000,4.467,7.0,4213,995,feet,jsons/v1_VE1000_randls_37.json,768484,983580,22,Man
62,373718,DepthScenes,duration_manipulation_targetAtFixation,jsons/v1_VE1000_randls_37.json,http://54.235.29.9/FacialAge/BNav_EC2/DepthDuration/v2_depth_duration_MTurk/v2_DepthDuration_HTML.html#44,44,1280,648,1280,720,9-19-2022,17-55-21,63,depth_duration_stimuli/001392_2014-06-19_16-07-59_260595134347_rgbf000046-resize_1/001392_2014-06-19_16-07-59_260595134347_rgbf000046-resize_1-target.png,1000,4.135,5.0,12589,1771,feet,jsons/v1_VE1000_randls_37.json,768484,983580,22,Man
63,373718,DepthScenes,duration_manipulation_targetAtFixation,jsons/v1_VE1000_randls_37.json,http://54.235.29.9/FacialAge/BNav_EC2/DepthDuration/v2_depth_duration_MTurk/v2_DepthDuration_HTML.html#44,44,1280,648,1280,720,9-19-2022,17-55-21,64,depth_duration_stimuli/000682_2014-06-08_23-14-58_260595134347_rgbf000041-resize_5/000682_2014-06-08_23-14-58_260595134347_rgbf000041-resize_5-target.png,1000,2.7239999999999998,4.0,2934,1004,feet,jsons/v1_VE1000_randls_37.json,768484,983580,22,Man
64,373718,DepthScenes,duration_manipulation_targetAtFixation,jsons/v1_VE1000_randls_37.json,http://54.235.29.9/FacialAge/BNav_EC2/DepthDuration/v2_depth_duration_MTurk/v2_DepthDuration_HTML.html#44,44,1280,648,1280,720,9-19-2022,17-55-21,65,depth_duration_stimuli/001650_2014-06-20_12-09-00_260595134347_rgbf000087-resize_3/001650_2014-06-20_12-09-00_260595134347_rgbf000087-resize_3-target.png,1000,1.9505,6.0,3584,1235,feet,jsons/v1_VE1000_randls_37.json,768484,983580,22,Man
65,373718,DepthScenes,duration_manipulation_targetAtFixation,jsons/v1_VE1000_randls_37.json,http://54.235.29.9/FacialAge/BNav_EC2/DepthDuration/v2_depth_duration_MTurk/v2_DepthDuration_HTML.html#44,44,1280,648,1280,720,9-19-2022,17-55-21,66,depth_duration_stimuli/001222_2014-06-17_16-24-06_260595134347_rgbf000073-resize_0/001222_2014-06-17_16-24-06_260595134347_rgbf000073-resize-original.jpg,1000,1.4385,0.0,4247,1138,feet,jsons/v1_VE1000_randls_37.json,768484,983580,22,Man
66,373718,DepthScenes,duration_manipulation_targetAtFixation,jsons/v1_VE1000_randls_37.json,http://54.235.29.9/FacialAge/BNav_EC2/DepthDuration/v2_depth_duration_MTurk/v2_DepthDuration_HTML.html#44,44,1280,648,1280,720,9-19-2022,17-55-21,67,depth_duration_stimuli/000917_2014-06-09_22-45-29_260595134347_rgbf000149-resize_3/000917_2014-06-09_22-45-29_260595134347_rgbf000149-resize_3-target.png,1000,4.1865,7.0,3028,996,feet,jsons/v1_VE1000_randls_37.json,768484,983580,22,Man
67,373718,DepthScenes,duration_manipulation_targetAtFixation,jsons/v1_VE1000_randls_37.json,http://54.235.29.9/FacialAge/BNav_EC2/DepthDuration/v2_depth_duration_MTurk/v2_DepthDuration_HTML.html#44,44,1280,648,1280,720,9-19-2022,17-55-21,68,depth_duration_stimuli/002323_2014-06-28_20-01-54_260595134347_rgbf000051-resize_4/002323_2014-06-28_20-01-54_260595134347_rgbf000051-resize_4-target.png,1000,3.7310000000000003,5.0,3046,997,feet,jsons/v1_VE1000_randls_37.json,768484,983580,22,Man
68,373718,DepthScenes,duration_manipulation_targetAtFixation,jsons/v1_VE1000_randls_37.json,http://54.235.29.9/FacialAge/BNav_EC2/DepthDuration/v2_depth_duration_MTurk/v2_DepthDuration_HTML.html#44,44,1280,648,1280,720,9-19-2022,17-55-21,69,depth_duration_stimuli/001029_2014-06-08_13-17-57_260595134347_rgbf000065-resize_1/001029_2014-06-08_13-17-57_260595134347_rgbf000065-resize_1-target.png,1000,3.0835,4.0,5939,1309,feet,jsons/v1_VE1000_randls_37.json,768484,983580,22,Man
69,373718,DepthScenes,duration_manipulation_targetAtFixation,jsons/v1_VE1000_randls_37.json,http://54.235.29.9/FacialAge/BNav_EC2/DepthDuration/v2_depth_duration_MTurk/v2_DepthDuration_HTML.html#44,44,1280,648,1280,720,9-19-2022,17-55-21,70,depth_duration_stimuli/000677_2014-06-08_23-10-32_260595134347_rgbf000158-resize_6/000677_2014-06-08_23-10-32_260595134347_rgbf000158-resize_6-target.png,1000,3.556,6.0,6429,1863,feet,jsons/v1_VE1000_randls_37.json,768484,983580,22,Man
70,373718,DepthScenes,duration_manipulation_targetAtFixation,jsons/v1_VE1000_randls_37.json,http://54.235.29.9/FacialAge/BNav_EC2/DepthDuration/v2_depth_duration_MTurk/v2_DepthDuration_HTML.html#44,44,1280,648,1280,720,9-19-2022,17-55-21,71,depth_duration_stimuli/000739_2014-06-08_18-45-58_260595134347_rgbf000068-resize_1/000739_2014-06-08_18-45-58_260595134347_rgbf000068-resize_1-target.png,1000,3.534,4.0,2595,1000,feet,jsons/v1_VE1000_randls_37.json,768484,983580,22,Man
71,373718,DepthScenes,duration_manipulation_targetAtFixation,jsons/v1_VE1000_randls_37.json,http://54.235.29.9/FacialAge/BNav_EC2/DepthDuration/v2_depth_duration_MTurk/v2_DepthDuration_HTML.html#44,44,1280,648,1280,720,9-19-2022,17-55-21,72,depth_duration_stimuli/000734_2014-06-08_17-39-11_260595134347_rgbf000128-resize_2/000734_2014-06-08_17-39-11_260595134347_rgbf000128-resize_2-target.png,1000,4.098,5.0,3684,997,feet,jsons/v1_VE1000_randls_37.json,768484,983580,22,Man
72,373718,DepthScenes,duration_manipulation_targetAtFixation,jsons/v1_VE1000_randls_37.json,http://54.235.29.9/FacialAge/BNav_EC2/DepthDuration/v2_depth_duration_MTurk/v2_DepthDuration_HTML.html#44,44,1280,648,1280,720,9-19-2022,17-55-21,73,depth_duration_stimuli/001808_2014-06-26_20-50-58_260595134347_rgbf000029-resize_1/001808_2014-06-26_20-50-58_260595134347_rgbf000029-resize_1-target.png,1000,4.249,5.0,9568,1002,feet,jsons/v1_VE1000_randls_37.json,768484,983580,22,Man
73,373718,DepthScenes,duration_manipulation_targetAtFixation,jsons/v1_VE1000_randls_37.json,http://54.235.29.9/FacialAge/BNav_EC2/DepthDuration/v2_depth_duration_MTurk/v2_DepthDuration_HTML.html#44,44,1280,648,1280,720,9-19-2022,17-55-21,74,depth_duration_stimuli/001815_2014-06-26_20-52-55_260595134347_rgbf000020-resize_0/001815_2014-06-26_20-52-55_260595134347_rgbf000020-resize_0-target.png,1000,3.3865,3.0,4684,999,feet,jsons/v1_VE1000_randls_37.json,768484,983580,22,Man
74,373718,DepthScenes,duration_manipulation_targetAtFixation,jsons/v1_VE1000_randls_37.json,http://54.235.29.9/FacialAge/BNav_EC2/DepthDuration/v2_depth_duration_MTurk/v2_DepthDuration_HTML.html#44,44,1280,648,1280,720,9-19-2022,17-55-21,75,depth_duration_stimuli/001199_2014-06-17_16-03-48_260595134347_rgbf000077-resize_0/001199_2014-06-17_16-03-48_260595134347_rgbf000077-resize_0-target.png,1000,3.4375,5.0,7074,1000,feet,jsons/v1_VE1000_randls_37.json,768484,983580,22,Man
75,373718,DepthScenes,duration_manipulation_targetAtFixation,jsons/v1_VE1000_randls_37.json,http://54.235.29.9/FacialAge/BNav_EC2/DepthDuration/v2_depth_duration_MTurk/v2_DepthDuration_HTML.html#44,44,1280,648,1280,720,9-19-2022,17-55-21,76,depth_duration_stimuli/000502_2014-06-08_23-02-32_260595134347_rgbf000063-resize_4/000502_2014-06-08_23-02-32_260595134347_rgbf000063-resize_4-target.png,1000,2.431,1.0,2230,995,feet,jsons/v1_VE1000_randls_37.json,768484,983580,22,Man
76,373718,DepthScenes,duration_manipulation_targetAtFixation,jsons/v1_VE1000_randls_37.json,http://54.235.29.9/FacialAge/BNav_EC2/DepthDuration/v2_depth_duration_MTurk/v2_DepthDuration_HTML.html#44,44,1280,648,1280,720,9-19-2022,17-55-21,77,depth_duration_stimuli/001167_2014-06-17_15-38-07_260595134347_rgbf000108-resize_0/001167_2014-06-17_15-38-07_260595134347_rgbf000108-resize_0-target.png,1000,1.8505,3.0,5972,1012,feet,jsons/v1_VE1000_randls_37.json,768484,983580,22,Man
77,373718,DepthScenes,duration_manipulation_targetAtFixation,jsons/v1_VE1000_randls_37.json,http://54.235.29.9/FacialAge/BNav_EC2/DepthDuration/v2_depth_duration_MTurk/v2_DepthDuration_HTML.html#44,44,1280,648,1280,720,9-19-2022,17-55-21,78,depth_duration_stimuli/003587_2014-05-23_16-48-02_094959634447_rgbf002384-resize_2/003587_2014-05-23_16-48-02_094959634447_rgbf002384-resize_2-target.png,1000,1.357,0.3,11648,996,feet,jsons/v1_VE1000_randls_37.json,768484,983580,22,Man
78,373718,DepthScenes,duration_manipulation_targetAtFixation,jsons/v1_VE1000_randls_37.json,http://54.235.29.9/FacialAge/BNav_EC2/DepthDuration/v2_depth_duration_MTurk/v2_DepthDuration_HTML.html#44,44,1280,648,1280,720,9-19-2022,17-55-21,79,depth_duration_stimuli/002784_2014-06-22_19-26-30_094959634447_rgbf000083-resize_3/002784_2014-06-22_19-26-30_094959634447_rgbf000083-resize_3-target.png,1000,1.8046666666667,2.0,2644,1001,feet,jsons/v1_VE1000_randls_37.json,768484,983580,22,Man
79,373718,DepthScenes,duration_manipulation_targetAtFixation,jsons/v1_VE1000_randls_37.json,http://54.235.29.9/FacialAge/BNav_EC2/DepthDuration/v2_depth_duration_MTurk/v2_DepthDuration_HTML.html#44,44,1280,648,1280,720,9-19-2022,17-55-21,80,depth_duration_stimuli/001100_2014-06-15_17-46-26_260595134347_rgbf000225-resize_2/001100_2014-06-15_17-46-26_260595134347_rgbf000225-resize_2-target.png,1000,2.24,3.0,6810,1283,feet,jsons/v1_VE1000_randls_37.json,768484,983580,22,Man
80,373718,DepthScenes,duration_manipulation_targetAtFixation,jsons/v1_VE1000_randls_37.json,http://54.235.29.9/FacialAge/BNav_EC2/DepthDuration/v2_depth_duration_MTurk/v2_DepthDuration_HTML.html#44,44,1280,648,1280,720,9-19-2022,17-55-21,81,depth_duration_stimuli/001806_2014-06-26_20-50-20_260595134347_rgbf000091-resize_1/001806_2014-06-26_20-50-20_260595134347_rgbf000091-resize_1-target.png,1000,2.7305,2.0,9859,985,feet,jsons/v1_VE1000_randls_37.json,768484,983580,22,Man
81,373718,DepthScenes,duration_manipulation_targetAtFixation,jsons/v1_VE1000_randls_37.json,http://54.235.29.9/FacialAge/BNav_EC2/DepthDuration/v2_depth_duration_MTurk/v2_DepthDuration_HTML.html#44,44,1280,648,1280,720,9-19-2022,17-55-21,82,depth_duration_stimuli/001617_2014-06-20_11-35-32_260595134347_rgbf000066-resize_1/001617_2014-06-20_11-35-32_260595134347_rgbf000066-resize_1-target.png,1000,3.7910000000000004,6.0,3874,995,feet,jsons/v1_VE1000_randls_37.json,768484,983580,22,Man
82,373718,DepthScenes,duration_manipulation_targetAtFixation,jsons/v1_VE1000_randls_37.json,http://54.235.29.9/FacialAge/BNav_EC2/DepthDuration/v2_depth_duration_MTurk/v2_DepthDuration_HTML.html#44,44,1280,648,1280,720,9-19-2022,17-55-21,83,depth_duration_stimuli/001150_2014-06-17_15-27-34_260595134347_rgbf000108-resize_2/001150_2014-06-17_15-27-34_260595134347_rgbf000108-resize_2-target.png,1000,4.0325,7.0,3039,997,feet,jsons/v1_VE1000_randls_37.json,768484,983580,22,Man
83,373718,DepthScenes,duration_manipulation_targetAtFixation,jsons/v1_VE1000_randls_37.json,http://54.235.29.9/FacialAge/BNav_EC2/DepthDuration/v2_depth_duration_MTurk/v2_DepthDuration_HTML.html#44,44,1280,648,1280,720,9-19-2022,17-55-21,84,depth_duration_stimuli/000665_2014-06-09_20-42-35_260595134347_rgbf000110-resize_1/000665_2014-06-09_20-42-35_260595134347_rgbf000110-resize_1-target.png,1000,3.057,4.0,3396,995,feet,jsons/v1_VE1000_randls_37.json,768484,983580,22,Man
84,373718,DepthScenes,duration_manipulation_targetAtFixation,jsons/v1_VE1000_randls_37.json,http://54.235.29.9/FacialAge/BNav_EC2/DepthDuration/v2_depth_duration_MTurk/v2_DepthDuration_HTML.html#44,44,1280,648,1280,720,9-19-2022,17-55-21,85,depth_duration_stimuli/001158_2014-06-17_15-32-16_260595134347_rgbf000138-resize_2/001158_2014-06-17_15-32-16_260595134347_rgbf000138-resize_2-target.png,1000,4.5315,7.0,2843,997,feet,jsons/v1_VE1000_randls_37.json,768484,983580,22,Man
85,373718,DepthScenes,duration_manipulation_targetAtFixation,jsons/v1_VE1000_randls_37.json,http://54.235.29.9/FacialAge/BNav_EC2/DepthDuration/v2_depth_duration_MTurk/v2_DepthDuration_HTML.html#44,44,1280,648,1280,720,9-19-2022,17-55-21,86,depth_duration_stimuli/000556_2014-06-09_22-42-56_260595134347_rgbf000214-resize_1/000556_2014-06-09_22-42-56_260595134347_rgbf000214-resize_1-target.png,1000,4.8415,8.0,2807,989,feet,jsons/v1_VE1000_randls_37.json,768484,983580,22,Man
86,373718,DepthScenes,duration_manipulation_targetAtFixation,jsons/v1_VE1000_randls_37.json,http://54.235.29.9/FacialAge/BNav_EC2/DepthDuration/v2_depth_duration_MTurk/v2_DepthDuration_HTML.html#44,44,1280,648,1280,720,9-19-2022,17-55-21,87,depth_duration_stimuli/000368_2014-06-09_15-53-01_260595134347_rgbf000155-resize_2/000368_2014-06-09_15-53-01_260595134347_rgbf000155-resize_2-target.png,1000,2.4859999999999998,2.5,3875,999,feet,jsons/v1_VE1000_randls_37.json,768484,983580,22,Man
87,373718,DepthScenes,duration_manipulation_targetAtFixation,jsons/v1_VE1000_randls_37.json,http://54.235.29.9/FacialAge/BNav_EC2/DepthDuration/v2_depth_duration_MTurk/v2_DepthDuration_HTML.html#44,44,1280,648,1280,720,9-19-2022,17-55-21,88,depth_duration_stimuli/002678_2014-06-13_16-15-32_094959634447_rgbf000151-resize_6/002678_2014-06-13_16-15-32_094959634447_rgbf000151-resize_6-target.png,1000,2.1830000000000003,3.0,3070,992,feet,jsons/v1_VE1000_randls_37.json,768484,983580,22,Man
88,373718,DepthScenes,duration_manipulation_targetAtFixation,jsons/v1_VE1000_randls_37.json,http://54.235.29.9/FacialAge/BNav_EC2/DepthDuration/v2_depth_duration_MTurk/v2_DepthDuration_HTML.html#44,44,1280,648,1280,720,9-19-2022,17-55-21,89,depth_duration_stimuli/002964_2014-06-08_17-46-11_094959634447_rgbf000091-resize_4/002964_2014-06-08_17-46-11_094959634447_rgbf000091-resize_4-target.png,1000,1.6909999999999998,1.6,4363,996,feet,jsons/v1_VE1000_randls_37.json,768484,983580,22,Man
89,373718,DepthScenes,duration_manipulation_targetAtFixation,jsons/v1_VE1000_randls_37.json,http://54.235.29.9/FacialAge/BNav_EC2/DepthDuration/v2_depth_duration_MTurk/v2_DepthDuration_HTML.html#44,44,1280,648,1280,720,9-19-2022,17-55-21,90,depth_duration_stimuli/002136_2014-06-25_21-18-03_260595134347_rgbf000109-resize_3/002136_2014-06-25_21-18-03_260595134347_rgbf000109-resize_3-target.png,1000,1.9569999999999999,2.0,2550,996,feet,jsons/v1_VE1000_randls_37.json,768484,983580,22,Man
90,373718,DepthScenes,duration_manipulation_targetAtFixation,jsons/v1_VE1000_randls_37.json,http://54.235.29.9/FacialAge/BNav_EC2/DepthDuration/v2_depth_duration_MTurk/v2_DepthDuration_HTML.html#44,44,1280,648,1280,720,9-19-2022,17-55-21,91,depth_duration_stimuli/001244_2014-06-17_16-47-45_260595134347_rgbf000030-resize_4/001244_2014-06-17_16-47-45_260595134347_rgbf000030-resize_4-target.png,1000,2.0425,3.5,3485,998,feet,jsons/v1_VE1000_randls_37.json,768484,983580,22,Man
91,373718,DepthScenes,duration_manipulation_targetAtFixation,jsons/v1_VE1000_randls_37.json,http://54.235.29.9/FacialAge/BNav_EC2/DepthDuration/v2_depth_duration_MTurk/v2_DepthDuration_HTML.html#44,44,1280,648,1280,720,9-19-2022,17-55-21,92,depth_duration_stimuli/003495_2014-05-21_16-01-51_094959634447_rgbf000100-resize_3/003495_2014-05-21_16-01-51_094959634447_rgbf000100-resize_3-target.png,1000,1.6255,1.2,2729,990,feet,jsons/v1_VE1000_randls_37.json,768484,983580,22,Man
92,373718,DepthScenes,duration_manipulation_targetAtFixation,jsons/v1_VE1000_randls_37.json,http://54.235.29.9/FacialAge/BNav_EC2/DepthDuration/v2_depth_duration_MTurk/v2_DepthDuration_HTML.html#44,44,1280,648,1280,720,9-19-2022,17-55-21,93,depth_duration_stimuli/002375_2014-06-28_20-13-44_260595134347_rgbf000032-resize_1/002375_2014-06-28_20-13-44_260595134347_rgbf000032-resize_1-target.png,1000,4.0175,3.0,3290,995,feet,jsons/v1_VE1000_randls_37.json,768484,983580,22,Man
93,373718,DepthScenes,duration_manipulation_targetAtFixation,jsons/v1_VE1000_randls_37.json,http://54.235.29.9/FacialAge/BNav_EC2/DepthDuration/v2_depth_duration_MTurk/v2_DepthDuration_HTML.html#44,44,1280,648,1280,720,9-19-2022,17-55-21,94,depth_duration_stimuli/002657_2014-06-13_15-29-54_094959634447_rgbf000150-resize_1/002657_2014-06-13_15-29-54_094959634447_rgbf000150-resize_1-target.png,1000,4.919,5.5,6187,985,feet,jsons/v1_VE1000_randls_37.json,768484,983580,22,Man
94,373718,DepthScenes,duration_manipulation_targetAtFixation,jsons/v1_VE1000_randls_37.json,http://54.235.29.9/FacialAge/BNav_EC2/DepthDuration/v2_depth_duration_MTurk/v2_DepthDuration_HTML.html#44,44,1280,648,1280,720,9-19-2022,17-55-21,95,depth_duration_stimuli/003534_2014-05-22_15-06-10_094959634447_rgbf000102-resize_4/003534_2014-05-22_15-06-10_094959634447_rgbf000102-resize_4-target.png,1000,1.426,1.0,5715,998,feet,jsons/v1_VE1000_randls_37.json,768484,983580,22,Man
95,373718,DepthScenes,duration_manipulation_targetAtFixation,jsons/v1_VE1000_randls_37.json,http://54.235.29.9/FacialAge/BNav_EC2/DepthDuration/v2_depth_duration_MTurk/v2_DepthDuration_HTML.html#44,44,1280,648,1280,720,9-19-2022,17-55-21,96,depth_duration_stimuli/002637_2014-06-24_14-51-13_094959634447_rgbf000066-resize_4/002637_2014-06-24_14-51-13_094959634447_rgbf000066-resize_4-target.png,1000,1.9955,2.3,3511,986,feet,jsons/v1_VE1000_randls_37.json,768484,983580,22,Man
96,373718,DepthScenes,duration_manipulation_targetAtFixation,jsons/v1_VE1000_randls_37.json,http://54.235.29.9/FacialAge/BNav_EC2/DepthDuration/v2_depth_duration_MTurk/v2_DepthDuration_HTML.html#44,44,1280,648,1280,720,9-19-2022,17-55-21,97,depth_duration_stimuli/001449_2014-06-19_17-01-27_260595134347_rgbf000116-resize_2/001449_2014-06-19_17-01-27_260595134347_rgbf000116-resize_2-target.png,1000,3.452,5.0,2927,999,feet,jsons/v1_VE1000_randls_37.json,768484,983580,22,Man
97,373718,DepthScenes,duration_manipulation_targetAtFixation,jsons/v1_VE1000_randls_37.json,http://54.235.29.9/FacialAge/BNav_EC2/DepthDuration/v2_depth_duration_MTurk/v2_DepthDuration_HTML.html#44,44,1280,648,1280,720,9-19-2022,17-55-21,98,depth_duration_stimuli/001450_2014-06-19_17-02-03_260595134347_rgbf000203-resize_4/001450_2014-06-19_17-02-03_260595134347_rgbf000203-resize_4-target.png,1000,4.0106666666667,7.0,3842,996,feet,jsons/v1_VE1000_randls_37.json,768484,983580,22,Man
98,373718,DepthScenes,duration_manipulation_targetAtFixation,jsons/v1_VE1000_randls_37.json,http://54.235.29.9/FacialAge/BNav_EC2/DepthDuration/v2_depth_duration_MTurk/v2_DepthDuration_HTML.html#44,44,1280,648,1280,720,9-19-2022,17-55-21,99,depth_duration_stimuli/001540_2014-06-20_17-01-05_260595134347_rgbf000086-resize_2/001540_2014-06-20_17-01-05_260595134347_rgbf000086-resize-original.jpg,1000,1.459,5.0,4055,1451,feet,jsons/v1_VE1000_randls_37.json,768484,983580,22,Man
99,373718,DepthScenes,duration_manipulation_targetAtFixation,jsons/v1_VE1000_randls_37.json,http://54.235.29.9/FacialAge/BNav_EC2/DepthDuration/v2_depth_duration_MTurk/v2_DepthDuration_HTML.html#44,44,1280,648,1280,720,9-19-2022,17-55-21,100,depth_duration_stimuli/000788_2014-06-08_22-34-36_260595134347_rgbf000131-resize_1/000788_2014-06-08_22-34-36_260595134347_rgbf000131-resize_1-target.png,1000,3.359,4.0,5320,995,feet,jsons/v1_VE1000_randls_37.json,768484,983580,22,Man
100,373718,DepthScenes,duration_manipulation_targetAtFixation,jsons/v1_VE1000_randls_37.json,http://54.235.29.9/FacialAge/BNav_EC2/DepthDuration/v2_depth_duration_MTurk/v2_DepthDuration_HTML.html#44,44,1280,648,1280,720,9-19-2022,17-55-21,101,depth_duration_stimuli/001235_2014-06-17_16-37-36_260595134347_rgbf000084-resize_4/001235_2014-06-17_16-37-36_260595134347_rgbf000084-resize_4-target.png,1000,3.6605,5.0,3017,992,feet,jsons/v1_VE1000_randls_37.json,768484,983580,22,Man
101,373718,DepthScenes,duration_manipulation_targetAtFixation,jsons/v1_VE1000_randls_37.json,http://54.235.29.9/FacialAge/BNav_EC2/DepthDuration/v2_depth_duration_MTurk/v2_DepthDuration_HTML.html#44,44,1280,648,1280,720,9-19-2022,17-55-21,102,depth_duration_stimuli/001417_2014-06-19_16-25-36_260595134347_rgbf000115-resize_5/001417_2014-06-19_16-25-36_260595134347_rgbf000115-resize_5-target.png,1000,4.6255,3.0,6600,999,feet,jsons/v1_VE1000_randls_37.json,768484,983580,22,Man
102,373718,DepthScenes,duration_manipulation_targetAtFixation,jsons/v1_VE1000_randls_37.json,http://54.235.29.9/FacialAge/BNav_EC2/DepthDuration/v2_depth_duration_MTurk/v2_DepthDuration_HTML.html#44,44,1280,648,1280,720,9-19-2022,17-55-21,103,depth_duration_stimuli/003081_2014-06-15_15-19-16_094959634447_rgbf000150-resize_1/003081_2014-06-15_15-19-16_094959634447_rgbf000150-resize_1-target.png,1000,3.9125,7.0,2762,988,feet,jsons/v1_VE1000_randls_37.json,768484,983580,22,Man
103,373718,DepthScenes,duration_manipulation_targetAtFixation,jsons/v1_VE1000_randls_37.json,http://54.235.29.9/FacialAge/BNav_EC2/DepthDuration/v2_depth_duration_MTurk/v2_DepthDuration_HTML.html#44,44,1280,648,1280,720,9-19-2022,17-55-21,104,depth_duration_stimuli/000878_2014-06-08_22-52-45_260595134347_rgbf000045-resize_2/000878_2014-06-08_22-52-45_260595134347_rgbf000045-resize_2-target.png,1000,2.092,5.0,6633,1001,feet,jsons/v1_VE1000_randls_37.json,768484,983580,22,Man
104,373718,DepthScenes,duration_manipulation_targetAtFixation,jsons/v1_VE1000_randls_37.json,http://54.235.29.9/FacialAge/BNav_EC2/DepthDuration/v2_depth_duration_MTurk/v2_DepthDuration_HTML.html#44,44,1280,648,1280,720,9-19-2022,17-55-21,105,depth_duration_stimuli/002953_2014-06-08_17-32-18_094959634447_rgbf000059-resize_5/002953_2014-06-08_17-32-18_094959634447_rgbf000059-resize_5-target.png,1000,1.551,4.0,3663,984,feet,jsons/v1_VE1000_randls_37.json,768484,983580,22,Man
105,373718,DepthScenes,duration_manipulation_targetAtFixation,jsons/v1_VE1000_randls_37.json,http://54.235.29.9/FacialAge/BNav_EC2/DepthDuration/v2_depth_duration_MTurk/v2_DepthDuration_HTML.html#44,44,1280,648,1280,720,9-19-2022,17-55-21,106,depth_duration_stimuli/000736_2014-06-08_18-24-15_260595134347_rgbf000206-resize_3/000736_2014-06-08_18-24-15_260595134347_rgbf000206-resize_3-target.png,1000,3.515,2.0,2672,996,feet,jsons/v1_VE1000_randls_37.json,768484,983580,22,Man
106,373718,DepthScenes,duration_manipulation_targetAtFixation,jsons/v1_VE1000_randls_37.json,http://54.235.29.9/FacialAge/BNav_EC2/DepthDuration/v2_depth_duration_MTurk/v2_DepthDuration_HTML.html#44,44,1280,648,1280,720,9-19-2022,17-55-21,107,depth_duration_stimuli/000137_2014-05-20_17-04-49_260595134347_rgbf000120-resize_1/000137_2014-05-20_17-04-49_260595134347_rgbf000120-resize_1-target.png,1000,3.786,5.0,2613,992,feet,jsons/v1_VE1000_randls_37.json,768484,983580,22,Man
107,373718,DepthScenes,duration_manipulation_targetAtFixation,jsons/v1_VE1000_randls_37.json,http://54.235.29.9/FacialAge/BNav_EC2/DepthDuration/v2_depth_duration_MTurk/v2_DepthDuration_HTML.html#44,44,1280,648,1280,720,9-19-2022,17-55-21,108,depth_duration_stimuli/001055_2014-06-08_18-45-35_260595134347_rgbf000111-resize_4/001055_2014-06-08_18-45-35_260595134347_rgbf000111-resize_4-target.png,1000,2.4290000000000003,6.4,4081,984,feet,jsons/v1_VE1000_randls_37.json,768484,983580,22,Man
108,373718,DepthScenes,duration_manipulation_targetAtFixation,jsons/v1_VE1000_randls_37.json,http://54.235.29.9/FacialAge/BNav_EC2/DepthDuration/v2_depth_duration_MTurk/v2_DepthDuration_HTML.html#44,44,1280,648,1280,720,9-19-2022,17-55-21,109,depth_duration_stimuli/000549_2014-06-08_22-10-24_260595134347_rgbf000247-resize_3/000549_2014-06-08_22-10-24_260595134347_rgbf000247-resize_3-target.png,1000,1.841,2.0,2203,987,feet,jsons/v1_VE1000_randls_37.json,768484,983580,22,Man
109,373718,DepthScenes,duration_manipulation_targetAtFixation,jsons/v1_VE1000_randls_37.json,http://54.235.29.9/FacialAge/BNav_EC2/DepthDuration/v2_depth_duration_MTurk/v2_DepthDuration_HTML.html#44,44,1280,648,1280,720,9-19-2022,17-55-21,110,depth_duration_stimuli/000486_2014-06-09_20-47-20_260595134347_rgbf000143-resize_2/000486_2014-06-09_20-47-20_260595134347_rgbf000143-resize_2-target.png,1000,4.8325,5.0,3297,997,feet,jsons/v1_VE1000_randls_37.json,768484,983580,22,Man
110,373718,DepthScenes,duration_manipulation_targetAtFixation,jsons/v1_VE1000_randls_37.json,http://54.235.29.9/FacialAge/BNav_EC2/DepthDuration/v2_depth_duration_MTurk/v2_DepthDuration_HTML.html#44,44,1280,648,1280,720,9-19-2022,17-55-21,111,depth_duration_stimuli/003083_2014-06-15_15-21-03_094959634447_rgbf000063-resize_1/003083_2014-06-15_15-21-03_094959634447_rgbf000063-resize_1-target.png,1000,4.1405,5.0,4810,992,feet,jsons/v1_VE1000_randls_37.json,768484,983580,22,Man
111,373718,DepthScenes,duration_manipulation_targetAtFixation,jsons/v1_VE1000_randls_37.json,http://54.235.29.9/FacialAge/BNav_EC2/DepthDuration/v2_depth_duration_MTurk/v2_DepthDuration_HTML.html#44,44,1280,648,1280,720,9-19-2022,17-55-21,112,depth_duration_stimuli/002788_2014-06-22_19-36-03_094959634447_rgbf000088-resize_2/002788_2014-06-22_19-36-03_094959634447_rgbf000088-resize_2-target.png,1000,1.6465,5.6,6106,996,feet,jsons/v1_VE1000_randls_37.json,768484,983580,22,Man
112,373718,DepthScenes,duration_manipulation_targetAtFixation,jsons/v1_VE1000_randls_37.json,http://54.235.29.9/FacialAge/BNav_EC2/DepthDuration/v2_depth_duration_MTurk/v2_DepthDuration_HTML.html#44,44,1280,648,1280,720,9-19-2022,17-55-21,113,depth_duration_stimuli/000749_2014-06-08_21-55-06_260595134347_rgbf000070-resize_2/000749_2014-06-08_21-55-06_260595134347_rgbf000070-resize_2-target.png,1000,2.331,4.0,12459,998,feet,jsons/v1_VE1000_randls_37.json,768484,983580,22,Man
113,373718,DepthScenes,duration_manipulation_targetAtFixation,jsons/v1_VE1000_randls_37.json,http://54.235.29.9/FacialAge/BNav_EC2/DepthDuration/v2_depth_duration_MTurk/v2_DepthDuration_HTML.html#44,44,1280,648,1280,720,9-19-2022,17-55-21,114,depth_duration_stimuli/000414_2014-06-04_19-49-13_260595134347_rgbf000044-resize_0/000414_2014-06-04_19-49-13_260595134347_rgbf000044-resize_0-target.png,1000,4.329,2.0,3928,1000,feet,jsons/v1_VE1000_randls_37.json,768484,983580,22,Man
114,373718,DepthScenes,duration_manipulation_targetAtFixation,jsons/v1_VE1000_randls_37.json,http://54.235.29.9/FacialAge/BNav_EC2/DepthDuration/v2_depth_duration_MTurk/v2_DepthDuration_HTML.html#44,44,1280,648,1280,720,9-19-2022,17-55-21,115,depth_duration_stimuli/003129_2014-05-12_10-48-10_094959634447_rgbf000100-resize_0/003129_2014-05-12_10-48-10_094959634447_rgbf000100-resize_0-target.png,1000,4.9305,7.0,3450,993,feet,jsons/v1_VE1000_randls_37.json,768484,983580,22,Man
115,373718,DepthScenes,duration_manipulation_targetAtFixation,jsons/v1_VE1000_randls_37.json,http://54.235.29.9/FacialAge/BNav_EC2/DepthDuration/v2_depth_duration_MTurk/v2_DepthDuration_HTML.html#44,44,1280,648,1280,720,9-19-2022,17-55-21,116,depth_duration_stimuli/001170_2014-06-17_15-43-44_260595134347_rgbf000096-resize_6/001170_2014-06-17_15-43-44_260595134347_rgbf000096-resize-original.jpg,1000,1.1909999999999998,0.0,3330,984,feet,jsons/v1_VE1000_randls_37.json,768484,983580,22,Man
116,373718,DepthScenes,duration_manipulation_targetAtFixation,jsons/v1_VE1000_randls_37.json,http://54.235.29.9/FacialAge/BNav_EC2/DepthDuration/v2_depth_duration_MTurk/v2_DepthDuration_HTML.html#44,44,1280,648,1280,720,9-19-2022,17-55-21,117,depth_duration_stimuli/002763_2014-06-22_19-13-10_094959634447_rgbf000075-resize_4/002763_2014-06-22_19-13-10_094959634447_rgbf000075-resize_4-target.png,1000,1.68375,4.0,2811,995,feet,jsons/v1_VE1000_randls_37.json,768484,983580,22,Man
117,373718,DepthScenes,duration_manipulation_targetAtFixation,jsons/v1_VE1000_randls_37.json,http://54.235.29.9/FacialAge/BNav_EC2/DepthDuration/v2_depth_duration_MTurk/v2_DepthDuration_HTML.html#44,44,1280,648,1280,720,9-19-2022,17-55-21,118,depth_duration_stimuli/002209_2014-06-28_18-36-10_260595134347_rgbf000051-resize_1/002209_2014-06-28_18-36-10_260595134347_rgbf000051-resize_1-target.png,1000,2.057,3.0,2852,1011,feet,jsons/v1_VE1000_randls_37.json,768484,983580,22,Man
118,373718,DepthScenes,duration_manipulation_targetAtFixation,jsons/v1_VE1000_randls_37.json,http://54.235.29.9/FacialAge/BNav_EC2/DepthDuration/v2_depth_duration_MTurk/v2_DepthDuration_HTML.html#44,44,1280,648,1280,720,9-19-2022,17-55-21,119,depth_duration_stimuli/000436_2014-06-09_22-25-11_260595134347_rgbf000137-resize_1/000436_2014-06-09_22-25-11_260595134347_rgbf000137-resize_1-target.png,1000,4.0705,6.0,2984,1009,feet,jsons/v1_VE1000_randls_37.json,768484,983580,22,Man
119,373718,DepthScenes,duration_manipulation_targetAtFixation,jsons/v1_VE1000_randls_37.json,http://54.235.29.9/FacialAge/BNav_EC2/DepthDuration/v2_depth_duration_MTurk/v2_DepthDuration_HTML.html#44,44,1280,648,1280,720,9-19-2022,17-55-21,120,depth_duration_stimuli/002444_2014-06-28_20-32-08_260595134347_rgbf000027-resize_0/002444_2014-06-28_20-32-08_260595134347_rgbf000027-resize_0-target.png,1000,4.388999999999999,6.0,3368,999,feet,jsons/v1_VE1000_randls_37.json,768484,983580,22,Man
120,373718,DepthScenes,duration_manipulation_targetAtFixation,jsons/v1_VE1000_randls_37.json,http://54.235.29.9/FacialAge/BNav_EC2/DepthDuration/v2_depth_duration_MTurk/v2_DepthDuration_HTML.html#44,44,1280,648,1280,720,9-19-2022,17-55-21,121,depth_duration_stimuli/002570_2014-06-24_13-59-54_094959634447_rgbf000059-resize_0/002570_2014-06-24_13-59-54_094959634447_rgbf000059-resize_0-target.png,1000,4.037,7.0,2918,990,feet,jsons/v1_VE1000_randls_37.json,768484,983580,22,Man
121,373718,DepthScenes,duration_manipulation_targetAtFixation,jsons/v1_VE1000_randls_37.json,http://54.235.29.9/FacialAge/BNav_EC2/DepthDuration/v2_depth_duration_MTurk/v2_DepthDuration_HTML.html#44,44,1280,648,1280,720,9-19-2022,17-55-21,122,depth_duration_stimuli/002467_2014-06-28_20-38-07_260595134347_rgbf000026-resize_2/002467_2014-06-28_20-38-07_260595134347_rgbf000026-resize_2-target.png,1000,4.742,9.0,2687,997,feet,jsons/v1_VE1000_randls_37.json,768484,983580,22,Man
122,373718,DepthScenes,duration_manipulation_targetAtFixation,jsons/v1_VE1000_randls_37.json,http://54.235.29.9/FacialAge/BNav_EC2/DepthDuration/v2_depth_duration_MTurk/v2_DepthDuration_HTML.html#44,44,1280,648,1280,720,9-19-2022,17-55-21,123,depth_duration_stimuli/003621_2014-05-23_18-06-08_094959634447_rgbf000101-resize_1/003621_2014-05-23_18-06-08_094959634447_rgbf000101-resize_1-target.png,1000,3.9835,6.0,2853,996,feet,jsons/v1_VE1000_randls_37.json,768484,983580,22,Man
123,373718,DepthScenes,duration_manipulation_targetAtFixation,jsons/v1_VE1000_randls_37.json,http://54.235.29.9/FacialAge/BNav_EC2/DepthDuration/v2_depth_duration_MTurk/v2_DepthDuration_HTML.html#44,44,1280,648,1280,720,9-19-2022,17-55-21,124,depth_duration_stimuli/001584_2014-06-20_11-07-43_260595134347_rgbf000002-resize_1/001584_2014-06-20_11-07-43_260595134347_rgbf000002-resize_1-target.png,1000,3.53,4.0,7814,997,feet,jsons/v1_VE1000_randls_37.json,768484,983580,22,Man
124,373718,DepthScenes,duration_manipulation_targetAtFixation,jsons/v1_VE1000_randls_37.json,http://54.235.29.9/FacialAge/BNav_EC2/DepthDuration/v2_depth_duration_MTurk/v2_DepthDuration_HTML.html#44,44,1280,648,1280,720,9-19-2022,17-55-21,125,depth_duration_stimuli/001555_2014-06-20_17-12-10_260595134347_rgbf000065-resize_4/001555_2014-06-20_17-12-10_260595134347_rgbf000065-resize_4-target.png,1000,1.633,1.4,2706,1013,feet,jsons/v1_VE1000_randls_37.json,768484,983580,22,Man
125,373718,DepthScenes,duration_manipulation_targetAtFixation,jsons/v1_VE1000_randls_37.json,http://54.235.29.9/FacialAge/BNav_EC2/DepthDuration/v2_depth_duration_MTurk/v2_DepthDuration_HTML.html#44,44,1280,648,1280,720,9-19-2022,17-55-21,126,depth_duration_stimuli/000103_2014-05-14_22-01-17_260595134347_rgbf000152-resize_5/000103_2014-05-14_22-01-17_260595134347_rgbf000152-resize_5-target.png,1000,1.993,4.0,16526,990,feet,jsons/v1_VE1000_randls_37.json,768484,983580,22,Man
126,373718,DepthScenes,duration_manipulation_targetAtFixation,jsons/v1_VE1000_randls_37.json,http://54.235.29.9/FacialAge/BNav_EC2/DepthDuration/v2_depth_duration_MTurk/v2_DepthDuration_HTML.html#44,44,1280,648,1280,720,9-19-2022,17-55-21,127,depth_duration_stimuli/002630_2014-06-24_14-47-50_094959634447_rgbf000055-resize_1/002630_2014-06-24_14-47-50_094959634447_rgbf000055-resize_1-target.png,1000,3.0095,6.0,4255,996,feet,jsons/v1_VE1000_randls_37.json,768484,983580,22,Man
127,373718,DepthScenes,duration_manipulation_targetAtFixation,jsons/v1_VE1000_randls_37.json,http://54.235.29.9/FacialAge/BNav_EC2/DepthDuration/v2_depth_duration_MTurk/v2_DepthDuration_HTML.html#44,44,1280,648,1280,720,9-19-2022,17-55-21,128,depth_duration_stimuli/002758_2014-06-22_19-11-20_094959634447_rgbf000128-resize_1/002758_2014-06-22_19-11-20_094959634447_rgbf000128-resize_1-target.png,1000,2.555,4.0,12663,2043,feet,jsons/v1_VE1000_randls_37.json,768484,983580,22,Man
128,373718,DepthScenes,duration_manipulation_targetAtFixation,jsons/v1_VE1000_randls_37.json,http://54.235.29.9/FacialAge/BNav_EC2/DepthDuration/v2_depth_duration_MTurk/v2_DepthDuration_HTML.html#44,44,1280,648,1280,720,9-19-2022,17-55-21,129,depth_duration_stimuli/001110_2014-06-15_17-25-28_260595134347_rgbf000150-resize_1/001110_2014-06-15_17-25-28_260595134347_rgbf000150-resize_1-target.png,1000,1.7115,4.0,8102,1002,feet,jsons/v1_VE1000_randls_37.json,768484,983580,22,Man
129,373718,DepthScenes,duration_manipulation_targetAtFixation,jsons/v1_VE1000_randls_37.json,http://54.235.29.9/FacialAge/BNav_EC2/DepthDuration/v2_depth_duration_MTurk/v2_DepthDuration_HTML.html#44,44,1280,648,1280,720,9-19-2022,17-55-21,130,depth_duration_stimuli/000927_2014-06-09_16-32-30_260595134347_rgbf000123-resize_3/000927_2014-06-09_16-32-30_260595134347_rgbf000123-resize_3-target.png,1000,2.6785,5.0,3785,998,feet,jsons/v1_VE1000_randls_37.json,768484,983580,22,Man
130,373718,DepthScenes,duration_manipulation_targetAtFixation,jsons/v1_VE1000_randls_37.json,http://54.235.29.9/FacialAge/BNav_EC2/DepthDuration/v2_depth_duration_MTurk/v2_DepthDuration_HTML.html#44,44,1280,648,1280,720,9-19-2022,17-55-21,131,depth_duration_stimuli/000470_2014-06-09_19-42-40_260595134347_rgbf000094-resize_1/000470_2014-06-09_19-42-40_260595134347_rgbf000094-resize_1-target.png,1000,1.831,2.0,3015,1014,feet,jsons/v1_VE1000_randls_37.json,768484,983580,22,Man
131,373718,DepthScenes,duration_manipulation_targetAtFixation,jsons/v1_VE1000_randls_37.json,http://54.235.29.9/FacialAge/BNav_EC2/DepthDuration/v2_depth_duration_MTurk/v2_DepthDuration_HTML.html#44,44,1280,648,1280,720,9-19-2022,17-55-21,132,depth_duration_stimuli/000109_2014-05-14_23-41-52_260595134347_rgbf000035-resize_9/000109_2014-05-14_23-41-52_260595134347_rgbf000035-resize_9-target.png,1000,1.3545,1.8,5397,1012,feet,jsons/v1_VE1000_randls_37.json,768484,983580,22,Man
132,373718,DepthScenes,duration_manipulation_targetAtFixation,jsons/v1_VE1000_randls_37.json,http://54.235.29.9/FacialAge/BNav_EC2/DepthDuration/v2_depth_duration_MTurk/v2_DepthDuration_HTML.html#44,44,1280,648,1280,720,9-19-2022,17-55-21,133,depth_duration_stimuli/003492_2014-05-21_15-50-55_094959634447_rgbf000828-resize_1/003492_2014-05-21_15-50-55_094959634447_rgbf000828-resize_1-target.png,1000,4.06875,5.8,4933,999,feet,jsons/v1_VE1000_randls_37.json,768484,983580,22,Man
133,373718,DepthScenes,duration_manipulation_targetAtFixation,jsons/v1_VE1000_randls_37.json,http://54.235.29.9/FacialAge/BNav_EC2/DepthDuration/v2_depth_duration_MTurk/v2_DepthDuration_HTML.html#44,44,1280,648,1280,720,9-19-2022,17-55-21,134,depth_duration_stimuli/002568_2014-06-24_13-59-21_094959634447_rgbf000062-resize_4/002568_2014-06-24_13-59-21_094959634447_rgbf000062-resize_4-target.png,1000,3.015,4.0,5687,996,feet,jsons/v1_VE1000_randls_37.json,768484,983580,22,Man
134,373718,DepthScenes,duration_manipulation_targetAtFixation,jsons/v1_VE1000_randls_37.json,http://54.235.29.9/FacialAge/BNav_EC2/DepthDuration/v2_depth_duration_MTurk/v2_DepthDuration_HTML.html#44,44,1280,648,1280,720,9-19-2022,17-55-21,135,depth_duration_stimuli/002072_2014-06-24_21-48-06_260595134347_rgbf000115-resize_0/002072_2014-06-24_21-48-06_260595134347_rgbf000115-resize-original.jpg,1000,4.702,3.0,5190,997,feet,jsons/v1_VE1000_randls_37.json,768484,983580,22,Man
135,373718,DepthScenes,duration_manipulation_targetAtFixation,jsons/v1_VE1000_randls_37.json,http://54.235.29.9/FacialAge/BNav_EC2/DepthDuration/v2_depth_duration_MTurk/v2_DepthDuration_HTML.html#44,44,1280,648,1280,720,9-19-2022,17-55-21,136,depth_duration_stimuli/000692_2014-06-08_13-09-42_260595134347_rgbf000199-resize_2/000692_2014-06-08_13-09-42_260595134347_rgbf000199-resize_2-target.png,1000,3.661,6.0,2620,997,feet,jsons/v1_VE1000_randls_37.json,768484,983580,22,Man
136,373718,DepthScenes,duration_manipulation_targetAtFixation,jsons/v1_VE1000_randls_37.json,http://54.235.29.9/FacialAge/BNav_EC2/DepthDuration/v2_depth_duration_MTurk/v2_DepthDuration_HTML.html#44,44,1280,648,1280,720,9-19-2022,17-55-21,137,depth_duration_stimuli/001094_2014-06-15_17-36-00_260595134347_rgbf000205-resize_0/001094_2014-06-15_17-36-00_260595134347_rgbf000205-resize_0-target.png,1000,4.2175,7.0,2770,1000,feet,jsons/v1_VE1000_randls_37.json,768484,983580,22,Man
137,373718,DepthScenes,duration_manipulation_targetAtFixation,jsons/v1_VE1000_randls_37.json,http://54.235.29.9/FacialAge/BNav_EC2/DepthDuration/v2_depth_duration_MTurk/v2_DepthDuration_HTML.html#44,44,1280,648,1280,720,9-19-2022,17-55-21,138,depth_duration_stimuli/001164_2014-06-17_15-35-46_260595134347_rgbf000085-resize_3/001164_2014-06-17_15-35-46_260595134347_rgbf000085-resize_3-target.png,1000,2.354,5.0,2959,989,feet,jsons/v1_VE1000_randls_37.json,768484,983580,22,Man
138,373718,DepthScenes,duration_manipulation_targetAtFixation,jsons/v1_VE1000_randls_37.json,http://54.235.29.9/FacialAge/BNav_EC2/DepthDuration/v2_depth_duration_MTurk/v2_DepthDuration_HTML.html#44,44,1280,648,1280,720,9-19-2022,17-55-21,139,depth_duration_stimuli/001136_2014-06-17_15-19-41_260595134347_rgbf000076-resize_3/001136_2014-06-17_15-19-41_260595134347_rgbf000076-resize_3-target.png,1000,1.8655,3.0,2480,998,feet,jsons/v1_VE1000_randls_37.json,768484,983580,22,Man
139,373718,DepthScenes,duration_manipulation_targetAtFixation,jsons/v1_VE1000_randls_37.json,http://54.235.29.9/FacialAge/BNav_EC2/DepthDuration/v2_depth_duration_MTurk/v2_DepthDuration_HTML.html#44,44,1280,648,1280,720,9-19-2022,17-55-21,140,depth_duration_stimuli/002725_2014-06-22_11-47-51_094959634447_rgbf000070-resize_1/002725_2014-06-22_11-47-51_094959634447_rgbf000070-resize_1-target.png,1000,2.195,4.0,3123,991,feet,jsons/v1_VE1000_randls_37.json,768484,983580,22,Man
140,373718,DepthScenes,duration_manipulation_targetAtFixation,jsons/v1_VE1000_randls_37.json,http://54.235.29.9/FacialAge/BNav_EC2/DepthDuration/v2_depth_duration_MTurk/v2_DepthDuration_HTML.html#44,44,1280,648,1280,720,9-19-2022,17-55-21,141,depth_duration_stimuli/002344_2014-06-28_20-06-29_260595134347_rgbf000030-resize_1/002344_2014-06-28_20-06-29_260595134347_rgbf000030-resize_1-target.png,1000,1.5795,4.0,3316,989,feet,jsons/v1_VE1000_randls_37.json,768484,983580,22,Man
141,373718,DepthScenes,duration_manipulation_targetAtFixation,jsons/v1_VE1000_randls_37.json,http://54.235.29.9/FacialAge/BNav_EC2/DepthDuration/v2_depth_duration_MTurk/v2_DepthDuration_HTML.html#44,44,1280,648,1280,720,9-19-2022,17-55-21,142,depth_duration_stimuli/000929_2014-06-09_16-33-19_260595134347_rgbf000139-resize_0/000929_2014-06-09_16-33-19_260595134347_rgbf000139-resize_0-target.png,1000,2.8680000000000003,3.0,2676,984,feet,jsons/v1_VE1000_randls_37.json,768484,983580,22,Man
142,373718,DepthScenes,duration_manipulation_targetAtFixation,jsons/v1_VE1000_randls_37.json,http://54.235.29.9/FacialAge/BNav_EC2/DepthDuration/v2_depth_duration_MTurk/v2_DepthDuration_HTML.html#44,44,1280,648,1280,720,9-19-2022,17-55-21,143,depth_duration_stimuli/000457_2014-06-08_16-52-43_260595134347_rgbf000199-resize_1/000457_2014-06-08_16-52-43_260595134347_rgbf000199-resize_1-target.png,1000,3.6489999999999996,4.0,3658,996,feet,jsons/v1_VE1000_randls_37.json,768484,983580,22,Man
143,373718,DepthScenes,duration_manipulation_targetAtFixation,jsons/v1_VE1000_randls_37.json,http://54.235.29.9/FacialAge/BNav_EC2/DepthDuration/v2_depth_duration_MTurk/v2_DepthDuration_HTML.html#44,44,1280,648,1280,720,9-19-2022,17-55-21,144,depth_duration_stimuli/002445_2014-06-28_20-32-16_260595134347_rgbf000029-resize_4/002445_2014-06-28_20-32-16_260595134347_rgbf000029-resize_4-target.png,1000,2.5315,2.0,2359,998,feet,jsons/v1_VE1000_randls_37.json,768484,983580,22,Man
144,373718,DepthScenes,duration_manipulation_targetAtFixation,jsons/v1_VE1000_randls_37.json,http://54.235.29.9/FacialAge/BNav_EC2/DepthDuration/v2_depth_duration_MTurk/v2_DepthDuration_HTML.html#44,44,1280,648,1280,720,9-19-2022,17-55-21,145,depth_duration_stimuli/000780_2014-06-08_22-28-29_260595134347_rgbf000126-resize_1/000780_2014-06-08_22-28-29_260595134347_rgbf000126-resize_1-target.png,1000,3.3825,6.0,2780,987,feet,jsons/v1_VE1000_randls_37.json,768484,983580,22,Man
145,373718,DepthScenes,duration_manipulation_targetAtFixation,jsons/v1_VE1000_randls_37.json,http://54.235.29.9/FacialAge/BNav_EC2/DepthDuration/v2_depth_duration_MTurk/v2_DepthDuration_HTML.html#44,44,1280,648,1280,720,9-19-2022,17-55-21,146,depth_duration_stimuli/001498_2014-06-19_17-45-14_260595134347_rgbf000129-resize_4/001498_2014-06-19_17-45-14_260595134347_rgbf000129-resize-original.jpg,1000,1.4075,0.0,3169,992,feet,jsons/v1_VE1000_randls_37.json,768484,983580,22,Man
146,373718,DepthScenes,duration_manipulation_targetAtFixation,jsons/v1_VE1000_randls_37.json,http://54.235.29.9/FacialAge/BNav_EC2/DepthDuration/v2_depth_duration_MTurk/v2_DepthDuration_HTML.html#44,44,1280,648,1280,720,9-19-2022,17-55-21,147,depth_duration_stimuli/001175_2014-06-17_15-45-55_260595134347_rgbf000129-resize_4/001175_2014-06-17_15-45-55_260595134347_rgbf000129-resize_4-target.png,1000,4.255,5.0,3757,1528,feet,jsons/v1_VE1000_randls_37.json,768484,983580,22,Man
147,373718,DepthScenes,duration_manipulation_targetAtFixation,jsons/v1_VE1000_randls_37.json,http://54.235.29.9/FacialAge/BNav_EC2/DepthDuration/v2_depth_duration_MTurk/v2_DepthDuration_HTML.html#44,44,1280,648,1280,720,9-19-2022,17-55-21,148,depth_duration_stimuli/003490_2014-05-21_15-50-11_094959634447_rgbf000101-resize_3/003490_2014-05-21_15-50-11_094959634447_rgbf000101-resize_3-target.png,1000,3.6445,7.0,3520,994,feet,jsons/v1_VE1000_randls_37.json,768484,983580,22,Man
148,373718,DepthScenes,duration_manipulation_targetAtFixation,jsons/v1_VE1000_randls_37.json,http://54.235.29.9/FacialAge/BNav_EC2/DepthDuration/v2_depth_duration_MTurk/v2_DepthDuration_HTML.html#44,44,1280,648,1280,720,9-19-2022,17-55-21,149,depth_duration_stimuli/003070_2014-06-15_14-58-27_094959634447_rgbf000150-resize_3/003070_2014-06-15_14-58-27_094959634447_rgbf000150-resize_3-target.png,1000,2.9415,6.0,2831,1012,feet,jsons/v1_VE1000_randls_37.json,768484,983580,22,Man
149,373718,DepthScenes,duration_manipulation_targetAtFixation,jsons/v1_VE1000_randls_37.json,http://54.235.29.9/FacialAge/BNav_EC2/DepthDuration/v2_depth_duration_MTurk/v2_DepthDuration_HTML.html#44,44,1280,648,1280,720,9-19-2022,17-55-21,150,depth_duration_stimuli/000943_2014-06-09_19-31-07_260595134347_rgbf000128-resize_1/000943_2014-06-09_19-31-07_260595134347_rgbf000128-resize_1-target.png,1000,1.9765,5.0,7272,1010,feet,jsons/v1_VE1000_randls_37.json,768484,983580,22,Man
150,373718,DepthScenes,duration_manipulation_targetAtFixation,jsons/v1_VE1000_randls_37.json,http://54.235.29.9/FacialAge/BNav_EC2/DepthDuration/v2_depth_duration_MTurk/v2_DepthDuration_HTML.html#44,44,1280,648,1280,720,9-19-2022,17-55-21,151,depth_duration_stimuli/001133_2014-06-17_14-49-16_260595134347_rgbf000100-resize_0/001133_2014-06-17_14-49-16_260595134347_rgbf000100-resize_0-target.png,1000,4.2115,6.0,8475,1000,feet,jsons/v1_VE1000_randls_37.json,768484,983580,22,Man
151,373718,DepthScenes,duration_manipulation_targetAtFixation,jsons/v1_VE1000_randls_37.json,http://54.235.29.9/FacialAge/BNav_EC2/DepthDuration/v2_depth_duration_MTurk/v2_DepthDuration_HTML.html#44,44,1280,648,1280,720,9-19-2022,17-55-21,152,depth_duration_stimuli/001132_2014-06-17_14-48-54_260595134347_rgbf000100-resize_2/001132_2014-06-17_14-48-54_260595134347_rgbf000100-resize_2-target.png,1000,3.753,3.0,5972,1003,feet,jsons/v1_VE1000_randls_37.json,768484,983580,22,Man
152,373718,DepthScenes,duration_manipulation_targetAtFixation,jsons/v1_VE1000_randls_37.json,http://54.235.29.9/FacialAge/BNav_EC2/DepthDuration/v2_depth_duration_MTurk/v2_DepthDuration_HTML.html#44,44,1280,648,1280,720,9-19-2022,17-55-21,153,depth_duration_stimuli/001810_2014-06-26_20-51-35_260595134347_rgbf000040-resize_3/001810_2014-06-26_20-51-35_260595134347_rgbf000040-resize_3-target.png,1000,2.2525,4.0,4537,995,feet,jsons/v1_VE1000_randls_37.json,768484,983580,22,Man
153,373718,DepthScenes,duration_manipulation_targetAtFixation,jsons/v1_VE1000_randls_37.json,http://54.235.29.9/FacialAge/BNav_EC2/DepthDuration/v2_depth_duration_MTurk/v2_DepthDuration_HTML.html#44,44,1280,648,1280,720,9-19-2022,17-55-21,154,depth_duration_stimuli/003010_2014-06-15_12-54-35_094959634447_rgbf000112-resize_0/003010_2014-06-15_12-54-35_094959634447_rgbf000112-resize_0-target.png,1000,3.1185,5.0,5531,989,feet,jsons/v1_VE1000_randls_37.json,768484,983580,22,Man
154,373718,DepthScenes,duration_manipulation_targetAtFixation,jsons/v1_VE1000_randls_37.json,http://54.235.29.9/FacialAge/BNav_EC2/DepthDuration/v2_depth_duration_MTurk/v2_DepthDuration_HTML.html#44,44,1280,648,1280,720,9-19-2022,17-55-21,155,depth_duration_stimuli/000642_2014-06-08_16-59-25_260595134347_rgbf000098-resize_2/000642_2014-06-08_16-59-25_260595134347_rgbf000098-resize_2-target.png,1000,2.8815,4.0,9425,1627,feet,jsons/v1_VE1000_randls_37.json,768484,983580,22,Man
155,373718,DepthScenes,duration_manipulation_targetAtFixation,jsons/v1_VE1000_randls_37.json,http://54.235.29.9/FacialAge/BNav_EC2/DepthDuration/v2_depth_duration_MTurk/v2_DepthDuration_HTML.html#44,44,1280,648,1280,720,9-19-2022,17-55-21,156,depth_duration_stimuli/002425_2014-06-28_20-27-29_260595134347_rgbf000031-resize_8/002425_2014-06-28_20-27-29_260595134347_rgbf000031-resize_8-target.png,1000,3.8960000000000004,7.0,2919,991,feet,jsons/v1_VE1000_randls_37.json,768484,983580,22,Man
156,373718,DepthScenes,duration_manipulation_targetAtFixation,jsons/v1_VE1000_randls_37.json,http://54.235.29.9/FacialAge/BNav_EC2/DepthDuration/v2_depth_duration_MTurk/v2_DepthDuration_HTML.html#44,44,1280,648,1280,720,9-19-2022,17-55-21,157,depth_duration_stimuli/002905_2014-06-03_18-04-43_094959634447_rgbf000151-resize_2/002905_2014-06-03_18-04-43_094959634447_rgbf000151-resize_2-target.png,1000,2.0295,6.0,4770,1269,feet,jsons/v1_VE1000_randls_37.json,768484,983580,22,Man
157,373718,DepthScenes,duration_manipulation_targetAtFixation,jsons/v1_VE1000_randls_37.json,http://54.235.29.9/FacialAge/BNav_EC2/DepthDuration/v2_depth_duration_MTurk/v2_DepthDuration_HTML.html#44,44,1280,648,1280,720,9-19-2022,17-55-21,158,depth_duration_stimuli/003423_2014-05-21_10-23-26_094959634447_rgbf002665-resize_2/003423_2014-05-21_10-23-26_094959634447_rgbf002665-resize_2-target.png,1000,3.2575,5.0,2892,994,feet,jsons/v1_VE1000_randls_37.json,768484,983580,22,Man
158,373718,DepthScenes,duration_manipulation_targetAtFixation,jsons/v1_VE1000_randls_37.json,http://54.235.29.9/FacialAge/BNav_EC2/DepthDuration/v2_depth_duration_MTurk/v2_DepthDuration_HTML.html#44,44,1280,648,1280,720,9-19-2022,17-55-21,159,depth_duration_stimuli/001056_2014-06-08_18-46-44_260595134347_rgbf000068-resize_0/001056_2014-06-08_18-46-44_260595134347_rgbf000068-resize_0-target.png,1000,2.6625,5.2,4724,986,feet,jsons/v1_VE1000_randls_37.json,768484,983580,22,Man
159,373718,DepthScenes,duration_manipulation_targetAtFixation,jsons/v1_VE1000_randls_37.json,http://54.235.29.9/FacialAge/BNav_EC2/DepthDuration/v2_depth_duration_MTurk/v2_DepthDuration_HTML.html#44,44,1280,648,1280,720,9-19-2022,17-55-21,160,depth_duration_stimuli/002199_2014-06-28_18-33-56_260595134347_rgbf000074-resize_0/002199_2014-06-28_18-33-56_260595134347_rgbf000074-resize_0-target.png,1000,1.996,2.0,2495,998,feet,jsons/v1_VE1000_randls_37.json,768484,983580,22,Man
160,373718,DepthScenes,duration_manipulation_targetAtFixation,jsons/v1_VE1000_randls_37.json,http://54.235.29.9/FacialAge/BNav_EC2/DepthDuration/v2_depth_duration_MTurk/v2_DepthDuration_HTML.html#44,44,1280,648,1280,720,9-19-2022,17-55-21,161,depth_duration_stimuli/002043_2014-06-24_20-29-38_260595134347_rgbf000039-resize_4/002043_2014-06-24_20-29-38_260595134347_rgbf000039-resize_4-target.png,1000,2.8435,5.0,3547,987,feet,jsons/v1_VE1000_randls_37.json,768484,983580,22,Man
161,373718,DepthScenes,duration_manipulation_targetAtFixation,jsons/v1_VE1000_randls_37.json,http://54.235.29.9/FacialAge/BNav_EC2/DepthDuration/v2_depth_duration_MTurk/v2_DepthDuration_HTML.html#44,44,1280,648,1280,720,9-19-2022,17-55-21,162,depth_duration_stimuli/003048_2014-06-15_13-49-43_094959634447_rgbf000150-resize_1/003048_2014-06-15_13-49-43_094959634447_rgbf000150-resize_1-target.png,1000,4.0035,8.0,2932,988,feet,jsons/v1_VE1000_randls_37.json,768484,983580,22,Man
162,373718,DepthScenes,duration_manipulation_targetAtFixation,jsons/v1_VE1000_randls_37.json,http://54.235.29.9/FacialAge/BNav_EC2/DepthDuration/v2_depth_duration_MTurk/v2_DepthDuration_HTML.html#44,44,1280,648,1280,720,9-19-2022,17-55-21,163,depth_duration_stimuli/000493_2014-06-09_21-01-18_260595134347_rgbf000196-resize_3/000493_2014-06-09_21-01-18_260595134347_rgbf000196-resize_3-target.png,1000,3.44,6.0,6216,1517,feet,jsons/v1_VE1000_randls_37.json,768484,983580,22,Man
163,373718,DepthScenes,duration_manipulation_targetAtFixation,jsons/v1_VE1000_randls_37.json,http://54.235.29.9/FacialAge/BNav_EC2/DepthDuration/v2_depth_duration_MTurk/v2_DepthDuration_HTML.html#44,44,1280,648,1280,720,9-19-2022,17-55-21,164,depth_duration_stimuli/000191_2014-05-12_17-07-38_260595134347_rgbf000199-resize_0/000191_2014-05-12_17-07-38_260595134347_rgbf000199-resize_0-target.png,1000,3.7995,7.0,5288,998,feet,jsons/v1_VE1000_randls_37.json,768484,983580,22,Man
