,subjID,experimentName,versionName,sequenceName,url,selected_row,windowWidth,windowHeight,screenWidth,screenHeight,startDate,startTime,trial,stimulus,duration,actual_depth,depth_estimate,trial_RT,log_sceneDuration,unitSelection,seq_filepath,experimentTime,totalTime,age,gender
0,376446,DepthScenes,duration_manipulation_targetAtFixation,jsons/v1_VE1000_randls_1.json,http://54.235.29.9/FacialAge/BNav_EC2/DepthDuration/v2_depth_duration_MTurk/v2_DepthDuration_HTML.html#25,25,1366,768,1366,768,8-22-2022,8-58-35,1,depth_duration_stimuli/002043_2014-06-24_20-29-38_260595134347_rgbf000039-resize_4/002043_2014-06-24_20-29-38_260595134347_rgbf000039-resize_4-target.png,1000,2.8435,2,3112,999,feet,jsons/v1_VE1000_randls_1.json,1588151,1754640,48,Woman
1,376446,DepthScenes,duration_manipulation_targetAtFixation,jsons/v1_VE1000_randls_1.json,http://54.235.29.9/FacialAge/BNav_EC2/DepthDuration/v2_depth_duration_MTurk/v2_DepthDuration_HTML.html#25,25,1366,768,1366,768,8-22-2022,8-58-35,2,depth_duration_stimuli/003048_2014-06-15_13-49-43_094959634447_rgbf000150-resize_1/003048_2014-06-15_13-49-43_094959634447_rgbf000150-resize_1-target.png,1000,4.0035,5,54105,994,feet,jsons/v1_VE1000_randls_1.json,1588151,1754640,48,Woman
2,376446,DepthScenes,duration_manipulation_targetAtFixation,jsons/v1_VE1000_randls_1.json,http://54.235.29.9/FacialAge/BNav_EC2/DepthDuration/v2_depth_duration_MTurk/v2_DepthDuration_HTML.html#25,25,1366,768,1366,768,8-22-2022,8-58-35,3,depth_duration_stimuli/000469_2014-06-09_19-42-10_260595134347_rgbf000081-resize_1/000469_2014-06-09_19-42-10_260595134347_rgbf000081-resize_1-target.png,1000,1.652,3,5338,865,feet,jsons/v1_VE1000_randls_1.json,1588151,1754640,48,Woman
3,376446,DepthScenes,duration_manipulation_targetAtFixation,jsons/v1_VE1000_randls_1.json,http://54.235.29.9/FacialAge/BNav_EC2/DepthDuration/v2_depth_duration_MTurk/v2_DepthDuration_HTML.html#25,25,1366,768,1366,768,8-22-2022,8-58-35,4,depth_duration_stimuli/000483_2014-06-09_20-41-45_260595134347_rgbf000116-resize_4/000483_2014-06-09_20-41-45_260595134347_rgbf000116-resize_4-target.png,1000,1.337,2,4833,999,feet,jsons/v1_VE1000_randls_1.json,1588151,1754640,48,Woman
4,376446,DepthScenes,duration_manipulation_targetAtFixation,jsons/v1_VE1000_randls_1.json,http://54.235.29.9/FacialAge/BNav_EC2/DepthDuration/v2_depth_duration_MTurk/v2_DepthDuration_HTML.html#25,25,1366,768,1366,768,8-22-2022,8-58-35,5,depth_duration_stimuli/000506_2014-06-08_23-21-00_260595134347_rgbf000070-resize_7/000506_2014-06-08_23-21-00_260595134347_rgbf000070-resize_7-target.png,1000,4.0585,3,23275,997,feet,jsons/v1_VE1000_randls_1.json,1588151,1754640,48,Woman
5,376446,DepthScenes,duration_manipulation_targetAtFixation,jsons/v1_VE1000_randls_1.json,http://54.235.29.9/FacialAge/BNav_EC2/DepthDuration/v2_depth_duration_MTurk/v2_DepthDuration_HTML.html#25,25,1366,768,1366,768,8-22-2022,8-58-35,6,depth_duration_stimuli/003079_2014-06-15_15-18-20_094959634447_rgbf000152-resize_8/003079_2014-06-15_15-18-20_094959634447_rgbf000152-resize_8-target.png,1000,2.8775,5,4749,998,feet,jsons/v1_VE1000_randls_1.json,1588151,1754640,48,Woman
6,376446,DepthScenes,duration_manipulation_targetAtFixation,jsons/v1_VE1000_randls_1.json,http://54.235.29.9/FacialAge/BNav_EC2/DepthDuration/v2_depth_duration_MTurk/v2_DepthDuration_HTML.html#25,25,1366,768,1366,768,8-22-2022,8-58-35,7,depth_duration_stimuli/000788_2014-06-08_22-34-36_260595134347_rgbf000131-resize_1/000788_2014-06-08_22-34-36_260595134347_rgbf000131-resize_1-target.png,1000,3.359,6,42456,989,feet,jsons/v1_VE1000_randls_1.json,1588151,1754640,48,Woman
7,376446,DepthScenes,duration_manipulation_targetAtFixation,jsons/v1_VE1000_randls_1.json,http://54.235.29.9/FacialAge/BNav_EC2/DepthDuration/v2_depth_duration_MTurk/v2_DepthDuration_HTML.html#25,25,1366,768,1366,768,8-22-2022,8-58-35,8,depth_duration_stimuli/001235_2014-06-17_16-37-36_260595134347_rgbf000084-resize_4/001235_2014-06-17_16-37-36_260595134347_rgbf000084-resize_4-target.png,1000,3.6605,5,5448,991,feet,jsons/v1_VE1000_randls_1.json,1588151,1754640,48,Woman
8,376446,DepthScenes,duration_manipulation_targetAtFixation,jsons/v1_VE1000_randls_1.json,http://54.235.29.9/FacialAge/BNav_EC2/DepthDuration/v2_depth_duration_MTurk/v2_DepthDuration_HTML.html#25,25,1366,768,1366,768,8-22-2022,8-58-35,9,depth_duration_stimuli/002057_2014-06-24_21-00-13_260595134347_rgbf000120-resize_1/002057_2014-06-24_21-00-13_260595134347_rgbf000120-resize_1-target.png,1000,2.967,4,8990,1001,feet,jsons/v1_VE1000_randls_1.json,1588151,1754640,48,Woman
9,376446,DepthScenes,duration_manipulation_targetAtFixation,jsons/v1_VE1000_randls_1.json,http://54.235.29.9/FacialAge/BNav_EC2/DepthDuration/v2_depth_duration_MTurk/v2_DepthDuration_HTML.html#25,25,1366,768,1366,768,8-22-2022,8-58-35,10,depth_duration_stimuli/000709_2014-06-08_13-51-55_260595134347_rgbf000068-resize_3/000709_2014-06-08_13-51-55_260595134347_rgbf000068-resize_3-target.png,1000,1.8030000000000002,3,5079,827,feet,jsons/v1_VE1000_randls_1.json,1588151,1754640,48,Woman
10,376446,DepthScenes,duration_manipulation_targetAtFixation,jsons/v1_VE1000_randls_1.json,http://54.235.29.9/FacialAge/BNav_EC2/DepthDuration/v2_depth_duration_MTurk/v2_DepthDuration_HTML.html#25,25,1366,768,1366,768,8-22-2022,8-58-35,11,depth_duration_stimuli/002725_2014-06-22_11-47-51_094959634447_rgbf000070-resize_1/002725_2014-06-22_11-47-51_094959634447_rgbf000070-resize_1-target.png,1000,2.195,4,4693,1011,feet,jsons/v1_VE1000_randls_1.json,1588151,1754640,48,Woman
11,376446,DepthScenes,duration_manipulation_targetAtFixation,jsons/v1_VE1000_randls_1.json,http://54.235.29.9/FacialAge/BNav_EC2/DepthDuration/v2_depth_duration_MTurk/v2_DepthDuration_HTML.html#25,25,1366,768,1366,768,8-22-2022,8-58-35,12,depth_duration_stimuli/002344_2014-06-28_20-06-29_260595134347_rgbf000030-resize_1/002344_2014-06-28_20-06-29_260595134347_rgbf000030-resize_1-target.png,1000,1.5795,4,11136,996,feet,jsons/v1_VE1000_randls_1.json,1588151,1754640,48,Woman
12,376446,DepthScenes,duration_manipulation_targetAtFixation,jsons/v1_VE1000_randls_1.json,http://54.235.29.9/FacialAge/BNav_EC2/DepthDuration/v2_depth_duration_MTurk/v2_DepthDuration_HTML.html#25,25,1366,768,1366,768,8-22-2022,8-58-35,13,depth_duration_stimuli/000569_2014-06-09_22-51-47_260595134347_rgbf000141-resize_3/000569_2014-06-09_22-51-47_260595134347_rgbf000141-resize-original.jpg,1000,4.512,4,5891,986,feet,jsons/v1_VE1000_randls_1.json,1588151,1754640,48,Woman
13,376446,DepthScenes,duration_manipulation_targetAtFixation,jsons/v1_VE1000_randls_1.json,http://54.235.29.9/FacialAge/BNav_EC2/DepthDuration/v2_depth_duration_MTurk/v2_DepthDuration_HTML.html#25,25,1366,768,1366,768,8-22-2022,8-58-35,14,depth_duration_stimuli/001150_2014-06-17_15-27-34_260595134347_rgbf000108-resize_2/001150_2014-06-17_15-27-34_260595134347_rgbf000108-resize_2-target.png,1000,4.0325,4,10421,996,feet,jsons/v1_VE1000_randls_1.json,1588151,1754640,48,Woman
14,376446,DepthScenes,duration_manipulation_targetAtFixation,jsons/v1_VE1000_randls_1.json,http://54.235.29.9/FacialAge/BNav_EC2/DepthDuration/v2_depth_duration_MTurk/v2_DepthDuration_HTML.html#25,25,1366,768,1366,768,8-22-2022,8-58-35,15,depth_duration_stimuli/000665_2014-06-09_20-42-35_260595134347_rgbf000110-resize_1/000665_2014-06-09_20-42-35_260595134347_rgbf000110-resize_1-target.png,1000,3.057,5,5453,1009,feet,jsons/v1_VE1000_randls_1.json,1588151,1754640,48,Woman
15,376446,DepthScenes,duration_manipulation_targetAtFixation,jsons/v1_VE1000_randls_1.json,http://54.235.29.9/FacialAge/BNav_EC2/DepthDuration/v2_depth_duration_MTurk/v2_DepthDuration_HTML.html#25,25,1366,768,1366,768,8-22-2022,8-58-35,16,depth_duration_stimuli/000522_2014-06-08_13-35-06_260595134347_rgbf000244-resize_1/000522_2014-06-08_13-35-06_260595134347_rgbf000244-resize_1-target.png,1000,2.3715,5,66948,997,feet,jsons/v1_VE1000_randls_1.json,1588151,1754640,48,Woman
16,376446,DepthScenes,duration_manipulation_targetAtFixation,jsons/v1_VE1000_randls_1.json,http://54.235.29.9/FacialAge/BNav_EC2/DepthDuration/v2_depth_duration_MTurk/v2_DepthDuration_HTML.html#25,25,1366,768,1366,768,8-22-2022,8-58-35,17,depth_duration_stimuli/002949_2014-06-26_15-57-42_094959634447_rgbf000079-resize_1/002949_2014-06-26_15-57-42_094959634447_rgbf000079-resize_1-target.png,1000,1.8915,6,5675,999,feet,jsons/v1_VE1000_randls_1.json,1588151,1754640,48,Woman
17,376446,DepthScenes,duration_manipulation_targetAtFixation,jsons/v1_VE1000_randls_1.json,http://54.235.29.9/FacialAge/BNav_EC2/DepthDuration/v2_depth_duration_MTurk/v2_DepthDuration_HTML.html#25,25,1366,768,1366,768,8-22-2022,8-58-35,18,depth_duration_stimuli/002788_2014-06-22_19-36-03_094959634447_rgbf000088-resize_2/002788_2014-06-22_19-36-03_094959634447_rgbf000088-resize_2-target.png,1000,1.6465,6,7801,997,feet,jsons/v1_VE1000_randls_1.json,1588151,1754640,48,Woman
18,376446,DepthScenes,duration_manipulation_targetAtFixation,jsons/v1_VE1000_randls_1.json,http://54.235.29.9/FacialAge/BNav_EC2/DepthDuration/v2_depth_duration_MTurk/v2_DepthDuration_HTML.html#25,25,1366,768,1366,768,8-22-2022,8-58-35,19,depth_duration_stimuli/000749_2014-06-08_21-55-06_260595134347_rgbf000070-resize_2/000749_2014-06-08_21-55-06_260595134347_rgbf000070-resize_2-target.png,1000,2.331,4,7125,1009,feet,jsons/v1_VE1000_randls_1.json,1588151,1754640,48,Woman
19,376446,DepthScenes,duration_manipulation_targetAtFixation,jsons/v1_VE1000_randls_1.json,http://54.235.29.9/FacialAge/BNav_EC2/DepthDuration/v2_depth_duration_MTurk/v2_DepthDuration_HTML.html#25,25,1366,768,1366,768,8-22-2022,8-58-35,20,depth_duration_stimuli/000878_2014-06-08_22-52-45_260595134347_rgbf000045-resize_2/000878_2014-06-08_22-52-45_260595134347_rgbf000045-resize_2-target.png,1000,2.092,5,14995,996,feet,jsons/v1_VE1000_randls_1.json,1588151,1754640,48,Woman
20,376446,DepthScenes,duration_manipulation_targetAtFixation,jsons/v1_VE1000_randls_1.json,http://54.235.29.9/FacialAge/BNav_EC2/DepthDuration/v2_depth_duration_MTurk/v2_DepthDuration_HTML.html#25,25,1366,768,1366,768,8-22-2022,8-58-35,21,depth_duration_stimuli/002953_2014-06-08_17-32-18_094959634447_rgbf000059-resize_5/002953_2014-06-08_17-32-18_094959634447_rgbf000059-resize_5-target.png,1000,1.551,6,29085,1191,feet,jsons/v1_VE1000_randls_1.json,1588151,1754640,48,Woman
21,376446,DepthScenes,duration_manipulation_targetAtFixation,jsons/v1_VE1000_randls_1.json,http://54.235.29.9/FacialAge/BNav_EC2/DepthDuration/v2_depth_duration_MTurk/v2_DepthDuration_HTML.html#25,25,1366,768,1366,768,8-22-2022,8-58-35,22,depth_duration_stimuli/000810_2014-06-08_17-20-01_260595134347_rgbf000105-resize_0/000810_2014-06-08_17-20-01_260595134347_rgbf000105-resize_0-target.png,1000,1.4865,6,4257,992,feet,jsons/v1_VE1000_randls_1.json,1588151,1754640,48,Woman
22,376446,DepthScenes,duration_manipulation_targetAtFixation,jsons/v1_VE1000_randls_1.json,http://54.235.29.9/FacialAge/BNav_EC2/DepthDuration/v2_depth_duration_MTurk/v2_DepthDuration_HTML.html#25,25,1366,768,1366,768,8-22-2022,8-58-35,23,depth_duration_stimuli/001214_2014-06-17_16-13-55_260595134347_rgbf000111-resize_0/001214_2014-06-17_16-13-55_260595134347_rgbf000111-resize_0-target.png,1000,2.6505,3,4519,994,feet,jsons/v1_VE1000_randls_1.json,1588151,1754640,48,Woman
23,376446,DepthScenes,duration_manipulation_targetAtFixation,jsons/v1_VE1000_randls_1.json,http://54.235.29.9/FacialAge/BNav_EC2/DepthDuration/v2_depth_duration_MTurk/v2_DepthDuration_HTML.html#25,25,1366,768,1366,768,8-22-2022,8-58-35,24,depth_duration_stimuli/002445_2014-06-28_20-32-16_260595134347_rgbf000029-resize_4/002445_2014-06-28_20-32-16_260595134347_rgbf000029-resize_4-target.png,1000,2.5315,2,6970,656,feet,jsons/v1_VE1000_randls_1.json,1588151,1754640,48,Woman
24,376446,DepthScenes,duration_manipulation_targetAtFixation,jsons/v1_VE1000_randls_1.json,http://54.235.29.9/FacialAge/BNav_EC2/DepthDuration/v2_depth_duration_MTurk/v2_DepthDuration_HTML.html#25,25,1366,768,1366,768,8-22-2022,8-58-35,25,depth_duration_stimuli/000780_2014-06-08_22-28-29_260595134347_rgbf000126-resize_1/000780_2014-06-08_22-28-29_260595134347_rgbf000126-resize_1-target.png,1000,3.3825,5,71924,999,feet,jsons/v1_VE1000_randls_1.json,1588151,1754640,48,Woman
25,376446,DepthScenes,duration_manipulation_targetAtFixation,jsons/v1_VE1000_randls_1.json,http://54.235.29.9/FacialAge/BNav_EC2/DepthDuration/v2_depth_duration_MTurk/v2_DepthDuration_HTML.html#25,25,1366,768,1366,768,8-22-2022,8-58-35,26,depth_duration_stimuli/001449_2014-06-19_17-01-27_260595134347_rgbf000116-resize_2/001449_2014-06-19_17-01-27_260595134347_rgbf000116-resize_2-target.png,1000,3.452,3,4482,1008,feet,jsons/v1_VE1000_randls_1.json,1588151,1754640,48,Woman
26,376446,DepthScenes,duration_manipulation_targetAtFixation,jsons/v1_VE1000_randls_1.json,http://54.235.29.9/FacialAge/BNav_EC2/DepthDuration/v2_depth_duration_MTurk/v2_DepthDuration_HTML.html#25,25,1366,768,1366,768,8-22-2022,8-58-35,27,depth_duration_stimuli/001450_2014-06-19_17-02-03_260595134347_rgbf000203-resize_4/001450_2014-06-19_17-02-03_260595134347_rgbf000203-resize_4-target.png,1000,4.0106666666667,6,8356,987,feet,jsons/v1_VE1000_randls_1.json,1588151,1754640,48,Woman
27,376446,DepthScenes,duration_manipulation_targetAtFixation,jsons/v1_VE1000_randls_1.json,http://54.235.29.9/FacialAge/BNav_EC2/DepthDuration/v2_depth_duration_MTurk/v2_DepthDuration_HTML.html#25,25,1366,768,1366,768,8-22-2022,8-58-35,28,depth_duration_stimuli/002748_2014-06-22_19-07-22_094959634447_rgbf000078-resize_1/002748_2014-06-22_19-07-22_094959634447_rgbf000078-resize_1-target.png,1000,4.6705,4,5009,1000,feet,jsons/v1_VE1000_randls_1.json,1588151,1754640,48,Woman
28,376446,DepthScenes,duration_manipulation_targetAtFixation,jsons/v1_VE1000_randls_1.json,http://54.235.29.9/FacialAge/BNav_EC2/DepthDuration/v2_depth_duration_MTurk/v2_DepthDuration_HTML.html#25,25,1366,768,1366,768,8-22-2022,8-58-35,29,depth_duration_stimuli/002995_2014-06-15_12-31-26_094959634447_rgbf000150-resize_1/002995_2014-06-15_12-31-26_094959634447_rgbf000150-resize_1-target.png,1000,3.8360000000000003,5,28350,965,feet,jsons/v1_VE1000_randls_1.json,1588151,1754640,48,Woman
29,376446,DepthScenes,duration_manipulation_targetAtFixation,jsons/v1_VE1000_randls_1.json,http://54.235.29.9/FacialAge/BNav_EC2/DepthDuration/v2_depth_duration_MTurk/v2_DepthDuration_HTML.html#25,25,1366,768,1366,768,8-22-2022,8-58-35,30,depth_duration_stimuli/000375_2014-06-08_11-17-29_260595134347_rgbf000133-resize_2/000375_2014-06-08_11-17-29_260595134347_rgbf000133-resize-original.jpg,1000,4.718,2,17437,996,feet,jsons/v1_VE1000_randls_1.json,1588151,1754640,48,Woman
30,376446,DepthScenes,duration_manipulation_targetAtFixation,jsons/v1_VE1000_randls_1.json,http://54.235.29.9/FacialAge/BNav_EC2/DepthDuration/v2_depth_duration_MTurk/v2_DepthDuration_HTML.html#25,25,1366,768,1366,768,8-22-2022,8-58-35,31,depth_duration_stimuli/002600_2014-06-24_14-27-04_094959634447_rgbf000074-resize_2/002600_2014-06-24_14-27-04_094959634447_rgbf000074-resize_2-target.png,1000,2.7575,2,28017,994,feet,jsons/v1_VE1000_randls_1.json,1588151,1754640,48,Woman
31,376446,DepthScenes,duration_manipulation_targetAtFixation,jsons/v1_VE1000_randls_1.json,http://54.235.29.9/FacialAge/BNav_EC2/DepthDuration/v2_depth_duration_MTurk/v2_DepthDuration_HTML.html#25,25,1366,768,1366,768,8-22-2022,8-58-35,32,depth_duration_stimuli/003228_2014-05-14_13-42-35_094959634447_rgbf000101-resize_1/003228_2014-05-14_13-42-35_094959634447_rgbf000101-resize_1-target.png,1000,1.9680000000000002,3,6898,999,feet,jsons/v1_VE1000_randls_1.json,1588151,1754640,48,Woman
32,376446,DepthScenes,duration_manipulation_targetAtFixation,jsons/v1_VE1000_randls_1.json,http://54.235.29.9/FacialAge/BNav_EC2/DepthDuration/v2_depth_duration_MTurk/v2_DepthDuration_HTML.html#25,25,1366,768,1366,768,8-22-2022,8-58-35,33,depth_duration_stimuli/000436_2014-06-09_22-25-11_260595134347_rgbf000137-resize_1/000436_2014-06-09_22-25-11_260595134347_rgbf000137-resize_1-target.png,1000,4.0705,3,7345,815,feet,jsons/v1_VE1000_randls_1.json,1588151,1754640,48,Woman
33,376446,DepthScenes,duration_manipulation_targetAtFixation,jsons/v1_VE1000_randls_1.json,http://54.235.29.9/FacialAge/BNav_EC2/DepthDuration/v2_depth_duration_MTurk/v2_DepthDuration_HTML.html#25,25,1366,768,1366,768,8-22-2022,8-58-35,34,depth_duration_stimuli/002444_2014-06-28_20-32-08_260595134347_rgbf000027-resize_0/002444_2014-06-28_20-32-08_260595134347_rgbf000027-resize_0-target.png,1000,4.388999999999999,3,8072,1002,feet,jsons/v1_VE1000_randls_1.json,1588151,1754640,48,Woman
34,376446,DepthScenes,duration_manipulation_targetAtFixation,jsons/v1_VE1000_randls_1.json,http://54.235.29.9/FacialAge/BNav_EC2/DepthDuration/v2_depth_duration_MTurk/v2_DepthDuration_HTML.html#25,25,1366,768,1366,768,8-22-2022,8-58-35,35,depth_duration_stimuli/002964_2014-06-08_17-46-11_094959634447_rgbf000091-resize_4/002964_2014-06-08_17-46-11_094959634447_rgbf000091-resize_4-target.png,1000,1.6909999999999998,3,22990,997,feet,jsons/v1_VE1000_randls_1.json,1588151,1754640,48,Woman
35,376446,DepthScenes,duration_manipulation_targetAtFixation,jsons/v1_VE1000_randls_1.json,http://54.235.29.9/FacialAge/BNav_EC2/DepthDuration/v2_depth_duration_MTurk/v2_DepthDuration_HTML.html#25,25,1366,768,1366,768,8-22-2022,8-58-35,36,depth_duration_stimuli/002136_2014-06-25_21-18-03_260595134347_rgbf000109-resize_3/002136_2014-06-25_21-18-03_260595134347_rgbf000109-resize_3-target.png,1000,1.9569999999999999,3,6507,999,feet,jsons/v1_VE1000_randls_1.json,1588151,1754640,48,Woman
36,376446,DepthScenes,duration_manipulation_targetAtFixation,jsons/v1_VE1000_randls_1.json,http://54.235.29.9/FacialAge/BNav_EC2/DepthDuration/v2_depth_duration_MTurk/v2_DepthDuration_HTML.html#25,25,1366,768,1366,768,8-22-2022,8-58-35,37,depth_duration_stimuli/002570_2014-06-24_13-59-54_094959634447_rgbf000059-resize_0/002570_2014-06-24_13-59-54_094959634447_rgbf000059-resize_0-target.png,1000,4.037,6,6665,999,feet,jsons/v1_VE1000_randls_1.json,1588151,1754640,48,Woman
37,376446,DepthScenes,duration_manipulation_targetAtFixation,jsons/v1_VE1000_randls_1.json,http://54.235.29.9/FacialAge/BNav_EC2/DepthDuration/v2_depth_duration_MTurk/v2_DepthDuration_HTML.html#25,25,1366,768,1366,768,8-22-2022,8-58-35,38,depth_duration_stimuli/002467_2014-06-28_20-38-07_260595134347_rgbf000026-resize_2/002467_2014-06-28_20-38-07_260595134347_rgbf000026-resize_2-target.png,1000,4.742,3,31847,1122,feet,jsons/v1_VE1000_randls_1.json,1588151,1754640,48,Woman
38,376446,DepthScenes,duration_manipulation_targetAtFixation,jsons/v1_VE1000_randls_1.json,http://54.235.29.9/FacialAge/BNav_EC2/DepthDuration/v2_depth_duration_MTurk/v2_DepthDuration_HTML.html#25,25,1366,768,1366,768,8-22-2022,8-58-35,39,depth_duration_stimuli/001164_2014-06-17_15-35-46_260595134347_rgbf000085-resize_3/001164_2014-06-17_15-35-46_260595134347_rgbf000085-resize_3-target.png,1000,2.354,6,6075,986,feet,jsons/v1_VE1000_randls_1.json,1588151,1754640,48,Woman
39,376446,DepthScenes,duration_manipulation_targetAtFixation,jsons/v1_VE1000_randls_1.json,http://54.235.29.9/FacialAge/BNav_EC2/DepthDuration/v2_depth_duration_MTurk/v2_DepthDuration_HTML.html#25,25,1366,768,1366,768,8-22-2022,8-58-35,40,depth_duration_stimuli/001136_2014-06-17_15-19-41_260595134347_rgbf000076-resize_3/001136_2014-06-17_15-19-41_260595134347_rgbf000076-resize_3-target.png,1000,1.8655,6,4466,996,feet,jsons/v1_VE1000_randls_1.json,1588151,1754640,48,Woman
40,376446,DepthScenes,duration_manipulation_targetAtFixation,jsons/v1_VE1000_randls_1.json,http://54.235.29.9/FacialAge/BNav_EC2/DepthDuration/v2_depth_duration_MTurk/v2_DepthDuration_HTML.html#25,25,1366,768,1366,768,8-22-2022,8-58-35,41,depth_duration_stimuli/000447_2014-06-08_16-15-46_260595134347_rgbf000130-resize_1/000447_2014-06-08_16-15-46_260595134347_rgbf000130-resize_1-target.png,1000,4.479,2,9401,999,feet,jsons/v1_VE1000_randls_1.json,1588151,1754640,48,Woman
41,376446,DepthScenes,duration_manipulation_targetAtFixation,jsons/v1_VE1000_randls_1.json,http://54.235.29.9/FacialAge/BNav_EC2/DepthDuration/v2_depth_duration_MTurk/v2_DepthDuration_HTML.html#25,25,1366,768,1366,768,8-22-2022,8-58-35,42,depth_duration_stimuli/001447_2014-06-19_17-00-32_260595134347_rgbf000082-resize_5/001447_2014-06-19_17-00-32_260595134347_rgbf000082-resize_5-target.png,1000,4.13775,5,12437,1000,feet,jsons/v1_VE1000_randls_1.json,1588151,1754640,48,Woman
42,376446,DepthScenes,duration_manipulation_targetAtFixation,jsons/v1_VE1000_randls_1.json,http://54.235.29.9/FacialAge/BNav_EC2/DepthDuration/v2_depth_duration_MTurk/v2_DepthDuration_HTML.html#25,25,1366,768,1366,768,8-22-2022,8-58-35,43,depth_duration_stimuli/001158_2014-06-17_15-32-16_260595134347_rgbf000138-resize_2/001158_2014-06-17_15-32-16_260595134347_rgbf000138-resize_2-target.png,1000,4.5315,6,9648,996,feet,jsons/v1_VE1000_randls_1.json,1588151,1754640,48,Woman
43,376446,DepthScenes,duration_manipulation_targetAtFixation,jsons/v1_VE1000_randls_1.json,http://54.235.29.9/FacialAge/BNav_EC2/DepthDuration/v2_depth_duration_MTurk/v2_DepthDuration_HTML.html#25,25,1366,768,1366,768,8-22-2022,8-58-35,44,depth_duration_stimuli/000556_2014-06-09_22-42-56_260595134347_rgbf000214-resize_1/000556_2014-06-09_22-42-56_260595134347_rgbf000214-resize_1-target.png,1000,4.8415,3,6605,794,feet,jsons/v1_VE1000_randls_1.json,1588151,1754640,48,Woman
44,376446,DepthScenes,duration_manipulation_targetAtFixation,jsons/v1_VE1000_randls_1.json,http://54.235.29.9/FacialAge/BNav_EC2/DepthDuration/v2_depth_duration_MTurk/v2_DepthDuration_HTML.html#25,25,1366,768,1366,768,8-22-2022,8-58-35,45,depth_duration_stimuli/000787_2014-06-08_22-33-53_260595134347_rgbf000175-resize_1/000787_2014-06-08_22-33-53_260595134347_rgbf000175-resize-original.jpg,1000,4.784,5,11906,995,feet,jsons/v1_VE1000_randls_1.json,1588151,1754640,48,Woman
45,376446,DepthScenes,duration_manipulation_targetAtFixation,jsons/v1_VE1000_randls_1.json,http://54.235.29.9/FacialAge/BNav_EC2/DepthDuration/v2_depth_duration_MTurk/v2_DepthDuration_HTML.html#25,25,1366,768,1366,768,8-22-2022,8-58-35,46,depth_duration_stimuli/000736_2014-06-08_18-24-15_260595134347_rgbf000206-resize_3/000736_2014-06-08_18-24-15_260595134347_rgbf000206-resize_3-target.png,1000,3.515,3,6061,1012,feet,jsons/v1_VE1000_randls_1.json,1588151,1754640,48,Woman
46,376446,DepthScenes,duration_manipulation_targetAtFixation,jsons/v1_VE1000_randls_1.json,http://54.235.29.9/FacialAge/BNav_EC2/DepthDuration/v2_depth_duration_MTurk/v2_DepthDuration_HTML.html#25,25,1366,768,1366,768,8-22-2022,8-58-35,47,depth_duration_stimuli/000137_2014-05-20_17-04-49_260595134347_rgbf000120-resize_1/000137_2014-05-20_17-04-49_260595134347_rgbf000120-resize_1-target.png,1000,3.786,6,19020,998,feet,jsons/v1_VE1000_randls_1.json,1588151,1754640,48,Woman
47,376446,DepthScenes,duration_manipulation_targetAtFixation,jsons/v1_VE1000_randls_1.json,http://54.235.29.9/FacialAge/BNav_EC2/DepthDuration/v2_depth_duration_MTurk/v2_DepthDuration_HTML.html#25,25,1366,768,1366,768,8-22-2022,8-58-35,48,depth_duration_stimuli/002375_2014-06-28_20-13-44_260595134347_rgbf000032-resize_1/002375_2014-06-28_20-13-44_260595134347_rgbf000032-resize_1-target.png,1000,4.0175,3,5735,998,feet,jsons/v1_VE1000_randls_1.json,1588151,1754640,48,Woman
48,376446,DepthScenes,duration_manipulation_targetAtFixation,jsons/v1_VE1000_randls_1.json,http://54.235.29.9/FacialAge/BNav_EC2/DepthDuration/v2_depth_duration_MTurk/v2_DepthDuration_HTML.html#25,25,1366,768,1366,768,8-22-2022,8-58-35,49,depth_duration_stimuli/002657_2014-06-13_15-29-54_094959634447_rgbf000150-resize_1/002657_2014-06-13_15-29-54_094959634447_rgbf000150-resize_1-target.png,1000,4.919,6,6138,991,feet,jsons/v1_VE1000_randls_1.json,1588151,1754640,48,Woman
49,376446,DepthScenes,duration_manipulation_targetAtFixation,jsons/v1_VE1000_randls_1.json,http://54.235.29.9/FacialAge/BNav_EC2/DepthDuration/v2_depth_duration_MTurk/v2_DepthDuration_HTML.html#25,25,1366,768,1366,768,8-22-2022,8-58-35,50,depth_duration_stimuli/000642_2014-06-08_16-59-25_260595134347_rgbf000098-resize_2/000642_2014-06-08_16-59-25_260595134347_rgbf000098-resize_2-target.png,1000,2.8815,6,26107,1001,feet,jsons/v1_VE1000_randls_1.json,1588151,1754640,48,Woman
50,376446,DepthScenes,duration_manipulation_targetAtFixation,jsons/v1_VE1000_randls_1.json,http://54.235.29.9/FacialAge/BNav_EC2/DepthDuration/v2_depth_duration_MTurk/v2_DepthDuration_HTML.html#25,25,1366,768,1366,768,8-22-2022,8-58-35,51,depth_duration_stimuli/002425_2014-06-28_20-27-29_260595134347_rgbf000031-resize_8/002425_2014-06-28_20-27-29_260595134347_rgbf000031-resize_8-target.png,1000,3.8960000000000004,5,7382,1010,feet,jsons/v1_VE1000_randls_1.json,1588151,1754640,48,Woman
51,376446,DepthScenes,duration_manipulation_targetAtFixation,jsons/v1_VE1000_randls_1.json,http://54.235.29.9/FacialAge/BNav_EC2/DepthDuration/v2_depth_duration_MTurk/v2_DepthDuration_HTML.html#25,25,1366,768,1366,768,8-22-2022,8-58-35,52,depth_duration_stimuli/003534_2014-05-22_15-06-10_094959634447_rgbf000102-resize_4/003534_2014-05-22_15-06-10_094959634447_rgbf000102-resize_4-target.png,1000,1.426,9,5904,998,feet,jsons/v1_VE1000_randls_1.json,1588151,1754640,48,Woman
52,376446,DepthScenes,duration_manipulation_targetAtFixation,jsons/v1_VE1000_randls_1.json,http://54.235.29.9/FacialAge/BNav_EC2/DepthDuration/v2_depth_duration_MTurk/v2_DepthDuration_HTML.html#25,25,1366,768,1366,768,8-22-2022,8-58-35,53,depth_duration_stimuli/002637_2014-06-24_14-51-13_094959634447_rgbf000066-resize_4/002637_2014-06-24_14-51-13_094959634447_rgbf000066-resize_4-target.png,1000,1.9955,9,10953,1293,feet,jsons/v1_VE1000_randls_1.json,1588151,1754640,48,Woman
53,376446,DepthScenes,duration_manipulation_targetAtFixation,jsons/v1_VE1000_randls_1.json,http://54.235.29.9/FacialAge/BNav_EC2/DepthDuration/v2_depth_duration_MTurk/v2_DepthDuration_HTML.html#25,25,1366,768,1366,768,8-22-2022,8-58-35,54,depth_duration_stimuli/001417_2014-06-19_16-25-36_260595134347_rgbf000115-resize_5/001417_2014-06-19_16-25-36_260595134347_rgbf000115-resize_5-target.png,1000,4.6255,8,15588,1000,feet,jsons/v1_VE1000_randls_1.json,1588151,1754640,48,Woman
54,376446,DepthScenes,duration_manipulation_targetAtFixation,jsons/v1_VE1000_randls_1.json,http://54.235.29.9/FacialAge/BNav_EC2/DepthDuration/v2_depth_duration_MTurk/v2_DepthDuration_HTML.html#25,25,1366,768,1366,768,8-22-2022,8-58-35,55,depth_duration_stimuli/003081_2014-06-15_15-19-16_094959634447_rgbf000150-resize_1/003081_2014-06-15_15-19-16_094959634447_rgbf000150-resize_1-target.png,1000,3.9125,6,6378,1000,feet,jsons/v1_VE1000_randls_1.json,1588151,1754640,48,Woman
55,376446,DepthScenes,duration_manipulation_targetAtFixation,jsons/v1_VE1000_randls_1.json,http://54.235.29.9/FacialAge/BNav_EC2/DepthDuration/v2_depth_duration_MTurk/v2_DepthDuration_HTML.html#25,25,1366,768,1366,768,8-22-2022,8-58-35,56,depth_duration_stimuli/001810_2014-06-26_20-51-35_260595134347_rgbf000040-resize_3/001810_2014-06-26_20-51-35_260595134347_rgbf000040-resize_3-target.png,1000,2.2525,2,15850,994,feet,jsons/v1_VE1000_randls_1.json,1588151,1754640,48,Woman
56,376446,DepthScenes,duration_manipulation_targetAtFixation,jsons/v1_VE1000_randls_1.json,http://54.235.29.9/FacialAge/BNav_EC2/DepthDuration/v2_depth_duration_MTurk/v2_DepthDuration_HTML.html#25,25,1366,768,1366,768,8-22-2022,8-58-35,57,depth_duration_stimuli/003010_2014-06-15_12-54-35_094959634447_rgbf000112-resize_0/003010_2014-06-15_12-54-35_094959634447_rgbf000112-resize_0-target.png,1000,3.1185,3,10914,999,feet,jsons/v1_VE1000_randls_1.json,1588151,1754640,48,Woman
57,376446,DepthScenes,duration_manipulation_targetAtFixation,jsons/v1_VE1000_randls_1.json,http://54.235.29.9/FacialAge/BNav_EC2/DepthDuration/v2_depth_duration_MTurk/v2_DepthDuration_HTML.html#25,25,1366,768,1366,768,8-22-2022,8-58-35,58,depth_duration_stimuli/002118_2014-06-25_20-32-08_260595134347_rgbf000078-resize_1/002118_2014-06-25_20-32-08_260595134347_rgbf000078-resize_1-target.png,1000,2.6460000000000004,3,5772,999,feet,jsons/v1_VE1000_randls_1.json,1588151,1754640,48,Woman
58,376446,DepthScenes,duration_manipulation_targetAtFixation,jsons/v1_VE1000_randls_1.json,http://54.235.29.9/FacialAge/BNav_EC2/DepthDuration/v2_depth_duration_MTurk/v2_DepthDuration_HTML.html#25,25,1366,768,1366,768,8-22-2022,8-58-35,59,depth_duration_stimuli/001516_2014-06-20_16-25-09_260595134347_rgbf000076-resize_2/001516_2014-06-20_16-25-09_260595134347_rgbf000076-resize_2-target.png,1000,1.7445,6,7373,995,feet,jsons/v1_VE1000_randls_1.json,1588151,1754640,48,Woman
59,376446,DepthScenes,duration_manipulation_targetAtFixation,jsons/v1_VE1000_randls_1.json,http://54.235.29.9/FacialAge/BNav_EC2/DepthDuration/v2_depth_duration_MTurk/v2_DepthDuration_HTML.html#25,25,1366,768,1366,768,8-22-2022,8-58-35,60,depth_duration_stimuli/001059_2014-06-08_21-53-27_260595134347_rgbf000061-resize_4/001059_2014-06-08_21-53-27_260595134347_rgbf000061-resize_4-target.png,1000,2.4185,3,5905,993,feet,jsons/v1_VE1000_randls_1.json,1588151,1754640,48,Woman
60,376446,DepthScenes,duration_manipulation_targetAtFixation,jsons/v1_VE1000_randls_1.json,http://54.235.29.9/FacialAge/BNav_EC2/DepthDuration/v2_depth_duration_MTurk/v2_DepthDuration_HTML.html#25,25,1366,768,1366,768,8-22-2022,8-58-35,61,depth_duration_stimuli/001032_2014-06-08_13-23-17_260595134347_rgbf000021-resize_3/001032_2014-06-08_13-23-17_260595134347_rgbf000021-resize_3-target.png,1000,3.2725,3,5726,1004,feet,jsons/v1_VE1000_randls_1.json,1588151,1754640,48,Woman
61,376446,DepthScenes,duration_manipulation_targetAtFixation,jsons/v1_VE1000_randls_1.json,http://54.235.29.9/FacialAge/BNav_EC2/DepthDuration/v2_depth_duration_MTurk/v2_DepthDuration_HTML.html#25,25,1366,768,1366,768,8-22-2022,8-58-35,62,depth_duration_stimuli/000009_2014-05-26_14-32-05_260595134347_rgbf000034-resize_3/000009_2014-05-26_14-32-05_260595134347_rgbf000034-resize_3-target.png,1000,3.8715,7,4665,998,feet,jsons/v1_VE1000_randls_1.json,1588151,1754640,48,Woman
62,376446,DepthScenes,duration_manipulation_targetAtFixation,jsons/v1_VE1000_randls_1.json,http://54.235.29.9/FacialAge/BNav_EC2/DepthDuration/v2_depth_duration_MTurk/v2_DepthDuration_HTML.html#25,25,1366,768,1366,768,8-22-2022,8-58-35,63,depth_duration_stimuli/001828_2014-06-26_21-40-03_260595134347_rgbf000024-resize_0/001828_2014-06-26_21-40-03_260595134347_rgbf000024-resize_0-target.png,1000,4.8260000000000005,7,6118,1000,feet,jsons/v1_VE1000_randls_1.json,1588151,1754640,48,Woman
63,376446,DepthScenes,duration_manipulation_targetAtFixation,jsons/v1_VE1000_randls_1.json,http://54.235.29.9/FacialAge/BNav_EC2/DepthDuration/v2_depth_duration_MTurk/v2_DepthDuration_HTML.html#25,25,1366,768,1366,768,8-22-2022,8-58-35,64,depth_duration_stimuli/000758_2014-06-08_22-05-08_260595134347_rgbf000085-resize_0/000758_2014-06-08_22-05-08_260595134347_rgbf000085-resize_0-target.png,1000,3.3810000000000002,3,5870,999,feet,jsons/v1_VE1000_randls_1.json,1588151,1754640,48,Woman
64,376446,DepthScenes,duration_manipulation_targetAtFixation,jsons/v1_VE1000_randls_1.json,http://54.235.29.9/FacialAge/BNav_EC2/DepthDuration/v2_depth_duration_MTurk/v2_DepthDuration_HTML.html#25,25,1366,768,1366,768,8-22-2022,8-58-35,65,depth_duration_stimuli/000854_2014-06-09_19-43-13_260595134347_rgbf000066-resize_0/000854_2014-06-09_19-43-13_260595134347_rgbf000066-resize_0-target.png,1000,3.068,3,8427,995,feet,jsons/v1_VE1000_randls_1.json,1588151,1754640,48,Woman
65,376446,DepthScenes,duration_manipulation_targetAtFixation,jsons/v1_VE1000_randls_1.json,http://54.235.29.9/FacialAge/BNav_EC2/DepthDuration/v2_depth_duration_MTurk/v2_DepthDuration_HTML.html#25,25,1366,768,1366,768,8-22-2022,8-58-35,66,depth_duration_stimuli/001222_2014-06-17_16-24-06_260595134347_rgbf000073-resize_0/001222_2014-06-17_16-24-06_260595134347_rgbf000073-resize-original.jpg,1000,1.4385,6,4479,1200,feet,jsons/v1_VE1000_randls_1.json,1588151,1754640,48,Woman
66,376446,DepthScenes,duration_manipulation_targetAtFixation,jsons/v1_VE1000_randls_1.json,http://54.235.29.9/FacialAge/BNav_EC2/DepthDuration/v2_depth_duration_MTurk/v2_DepthDuration_HTML.html#25,25,1366,768,1366,768,8-22-2022,8-58-35,67,depth_duration_stimuli/002905_2014-06-03_18-04-43_094959634447_rgbf000151-resize_2/002905_2014-06-03_18-04-43_094959634447_rgbf000151-resize_2-target.png,1000,2.0295,3,6110,998,feet,jsons/v1_VE1000_randls_1.json,1588151,1754640,48,Woman
67,376446,DepthScenes,duration_manipulation_targetAtFixation,jsons/v1_VE1000_randls_1.json,http://54.235.29.9/FacialAge/BNav_EC2/DepthDuration/v2_depth_duration_MTurk/v2_DepthDuration_HTML.html#25,25,1366,768,1366,768,8-22-2022,8-58-35,68,depth_duration_stimuli/003423_2014-05-21_10-23-26_094959634447_rgbf002665-resize_2/003423_2014-05-21_10-23-26_094959634447_rgbf002665-resize_2-target.png,1000,3.2575,3,7027,987,feet,jsons/v1_VE1000_randls_1.json,1588151,1754640,48,Woman
68,376446,DepthScenes,duration_manipulation_targetAtFixation,jsons/v1_VE1000_randls_1.json,http://54.235.29.9/FacialAge/BNav_EC2/DepthDuration/v2_depth_duration_MTurk/v2_DepthDuration_HTML.html#25,25,1366,768,1366,768,8-22-2022,8-58-35,69,depth_duration_stimuli/001808_2014-06-26_20-50-58_260595134347_rgbf000029-resize_1/001808_2014-06-26_20-50-58_260595134347_rgbf000029-resize_1-target.png,1000,4.249,3,6030,999,feet,jsons/v1_VE1000_randls_1.json,1588151,1754640,48,Woman
69,376446,DepthScenes,duration_manipulation_targetAtFixation,jsons/v1_VE1000_randls_1.json,http://54.235.29.9/FacialAge/BNav_EC2/DepthDuration/v2_depth_duration_MTurk/v2_DepthDuration_HTML.html#25,25,1366,768,1366,768,8-22-2022,8-58-35,70,depth_duration_stimuli/001815_2014-06-26_20-52-55_260595134347_rgbf000020-resize_0/001815_2014-06-26_20-52-55_260595134347_rgbf000020-resize_0-target.png,1000,3.3865,3,9528,1008,feet,jsons/v1_VE1000_randls_1.json,1588151,1754640,48,Woman
70,376446,DepthScenes,duration_manipulation_targetAtFixation,jsons/v1_VE1000_randls_1.json,http://54.235.29.9/FacialAge/BNav_EC2/DepthDuration/v2_depth_duration_MTurk/v2_DepthDuration_HTML.html#25,25,1366,768,1366,768,8-22-2022,8-58-35,71,depth_duration_stimuli/000773_2014-06-08_22-24-54_260595134347_rgbf000093-resize_1/000773_2014-06-08_22-24-54_260595134347_rgbf000093-resize_1-target.png,1000,4.973,5,6680,998,feet,jsons/v1_VE1000_randls_1.json,1588151,1754640,48,Woman
71,376446,DepthScenes,duration_manipulation_targetAtFixation,jsons/v1_VE1000_randls_1.json,http://54.235.29.9/FacialAge/BNav_EC2/DepthDuration/v2_depth_duration_MTurk/v2_DepthDuration_HTML.html#25,25,1366,768,1366,768,8-22-2022,8-58-35,72,depth_duration_stimuli/002414_2014-06-28_20-24-58_260595134347_rgbf000067-resize_4/002414_2014-06-28_20-24-58_260595134347_rgbf000067-resize_4-target.png,1000,4.363,3,6827,999,feet,jsons/v1_VE1000_randls_1.json,1588151,1754640,48,Woman
72,376446,DepthScenes,duration_manipulation_targetAtFixation,jsons/v1_VE1000_randls_1.json,http://54.235.29.9/FacialAge/BNav_EC2/DepthDuration/v2_depth_duration_MTurk/v2_DepthDuration_HTML.html#25,25,1366,768,1366,768,8-22-2022,8-58-35,73,depth_duration_stimuli/002989_2014-06-15_12-25-03_094959634447_rgbf000150-resize_3/002989_2014-06-15_12-25-03_094959634447_rgbf000150-resize_3-target.png,1000,4.1975,3,5434,1000,feet,jsons/v1_VE1000_randls_1.json,1588151,1754640,48,Woman
73,376446,DepthScenes,duration_manipulation_targetAtFixation,jsons/v1_VE1000_randls_1.json,http://54.235.29.9/FacialAge/BNav_EC2/DepthDuration/v2_depth_duration_MTurk/v2_DepthDuration_HTML.html#25,25,1366,768,1366,768,8-22-2022,8-58-35,74,depth_duration_stimuli/000866_2014-06-09_20-45-42_260595134347_rgbf000139-resize_1/000866_2014-06-09_20-45-42_260595134347_rgbf000139-resize_1-target.png,1000,3.2155,2,5529,1013,feet,jsons/v1_VE1000_randls_1.json,1588151,1754640,48,Woman
74,376446,DepthScenes,duration_manipulation_targetAtFixation,jsons/v1_VE1000_randls_1.json,http://54.235.29.9/FacialAge/BNav_EC2/DepthDuration/v2_depth_duration_MTurk/v2_DepthDuration_HTML.html#25,25,1366,768,1366,768,8-22-2022,8-58-35,75,depth_duration_stimuli/001016_2014-06-09_16-16-10_260595134347_rgbf000112-resize_5/001016_2014-06-09_16-16-10_260595134347_rgbf000112-resize_5-target.png,1000,1.6565,6,7027,998,feet,jsons/v1_VE1000_randls_1.json,1588151,1754640,48,Woman
75,376446,DepthScenes,duration_manipulation_targetAtFixation,jsons/v1_VE1000_randls_1.json,http://54.235.29.9/FacialAge/BNav_EC2/DepthDuration/v2_depth_duration_MTurk/v2_DepthDuration_HTML.html#25,25,1366,768,1366,768,8-22-2022,8-58-35,76,depth_duration_stimuli/002340_2014-06-28_20-05-46_260595134347_rgbf000113-resize_0/002340_2014-06-28_20-05-46_260595134347_rgbf000113-resize_0-target.png,1000,2.4735,3,5988,1000,feet,jsons/v1_VE1000_randls_1.json,1588151,1754640,48,Woman
76,376446,DepthScenes,duration_manipulation_targetAtFixation,jsons/v1_VE1000_randls_1.json,http://54.235.29.9/FacialAge/BNav_EC2/DepthDuration/v2_depth_duration_MTurk/v2_DepthDuration_HTML.html#25,25,1366,768,1366,768,8-22-2022,8-58-35,77,depth_duration_stimuli/002763_2014-06-22_19-13-10_094959634447_rgbf000075-resize_4/002763_2014-06-22_19-13-10_094959634447_rgbf000075-resize_4-target.png,1000,1.68375,3,5552,996,feet,jsons/v1_VE1000_randls_1.json,1588151,1754640,48,Woman
77,376446,DepthScenes,duration_manipulation_targetAtFixation,jsons/v1_VE1000_randls_1.json,http://54.235.29.9/FacialAge/BNav_EC2/DepthDuration/v2_depth_duration_MTurk/v2_DepthDuration_HTML.html#25,25,1366,768,1366,768,8-22-2022,8-58-35,78,depth_duration_stimuli/002209_2014-06-28_18-36-10_260595134347_rgbf000051-resize_1/002209_2014-06-28_18-36-10_260595134347_rgbf000051-resize_1-target.png,1000,2.057,5,25372,996,feet,jsons/v1_VE1000_randls_1.json,1588151,1754640,48,Woman
78,376446,DepthScenes,duration_manipulation_targetAtFixation,jsons/v1_VE1000_randls_1.json,http://54.235.29.9/FacialAge/BNav_EC2/DepthDuration/v2_depth_duration_MTurk/v2_DepthDuration_HTML.html#25,25,1366,768,1366,768,8-22-2022,8-58-35,79,depth_duration_stimuli/000486_2014-06-09_20-47-20_260595134347_rgbf000143-resize_2/000486_2014-06-09_20-47-20_260595134347_rgbf000143-resize_2-target.png,1000,4.8325,2,7497,1012,feet,jsons/v1_VE1000_randls_1.json,1588151,1754640,48,Woman
79,376446,DepthScenes,duration_manipulation_targetAtFixation,jsons/v1_VE1000_randls_1.json,http://54.235.29.9/FacialAge/BNav_EC2/DepthDuration/v2_depth_duration_MTurk/v2_DepthDuration_HTML.html#25,25,1366,768,1366,768,8-22-2022,8-58-35,80,depth_duration_stimuli/003083_2014-06-15_15-21-03_094959634447_rgbf000063-resize_1/003083_2014-06-15_15-21-03_094959634447_rgbf000063-resize_1-target.png,1000,4.1405,4,5216,1001,feet,jsons/v1_VE1000_randls_1.json,1588151,1754640,48,Woman
80,376446,DepthScenes,duration_manipulation_targetAtFixation,jsons/v1_VE1000_randls_1.json,http://54.235.29.9/FacialAge/BNav_EC2/DepthDuration/v2_depth_duration_MTurk/v2_DepthDuration_HTML.html#25,25,1366,768,1366,768,8-22-2022,8-58-35,81,depth_duration_stimuli/003292_2014-05-14_21-53-49_094959634447_rgbf000100-resize_2/003292_2014-05-14_21-53-49_094959634447_rgbf000100-resize_2-target.png,1000,3.4815,2,5682,999,feet,jsons/v1_VE1000_randls_1.json,1588151,1754640,48,Woman
81,376446,DepthScenes,duration_manipulation_targetAtFixation,jsons/v1_VE1000_randls_1.json,http://54.235.29.9/FacialAge/BNav_EC2/DepthDuration/v2_depth_duration_MTurk/v2_DepthDuration_HTML.html#25,25,1366,768,1366,768,8-22-2022,8-58-35,82,depth_duration_stimuli/002639_2014-06-24_14-51-37_094959634447_rgbf000074-resize_4/002639_2014-06-24_14-51-37_094959634447_rgbf000074-resize_4-target.png,1000,4.0375,3,5215,998,feet,jsons/v1_VE1000_randls_1.json,1588151,1754640,48,Woman
82,376446,DepthScenes,duration_manipulation_targetAtFixation,jsons/v1_VE1000_randls_1.json,http://54.235.29.9/FacialAge/BNav_EC2/DepthDuration/v2_depth_duration_MTurk/v2_DepthDuration_HTML.html#25,25,1366,768,1366,768,8-22-2022,8-58-35,83,depth_duration_stimuli/001110_2014-06-15_17-25-28_260595134347_rgbf000150-resize_1/001110_2014-06-15_17-25-28_260595134347_rgbf000150-resize_1-target.png,1000,1.7115,4,6035,1000,feet,jsons/v1_VE1000_randls_1.json,1588151,1754640,48,Woman
83,376446,DepthScenes,duration_manipulation_targetAtFixation,jsons/v1_VE1000_randls_1.json,http://54.235.29.9/FacialAge/BNav_EC2/DepthDuration/v2_depth_duration_MTurk/v2_DepthDuration_HTML.html#25,25,1366,768,1366,768,8-22-2022,8-58-35,84,depth_duration_stimuli/000927_2014-06-09_16-32-30_260595134347_rgbf000123-resize_3/000927_2014-06-09_16-32-30_260595134347_rgbf000123-resize_3-target.png,1000,2.6785,4,5523,1000,feet,jsons/v1_VE1000_randls_1.json,1588151,1754640,48,Woman
84,376446,DepthScenes,duration_manipulation_targetAtFixation,jsons/v1_VE1000_randls_1.json,http://54.235.29.9/FacialAge/BNav_EC2/DepthDuration/v2_depth_duration_MTurk/v2_DepthDuration_HTML.html#25,25,1366,768,1366,768,8-22-2022,8-58-35,85,depth_duration_stimuli/000368_2014-06-09_15-53-01_260595134347_rgbf000155-resize_2/000368_2014-06-09_15-53-01_260595134347_rgbf000155-resize_2-target.png,1000,2.4859999999999998,5,4690,998,feet,jsons/v1_VE1000_randls_1.json,1588151,1754640,48,Woman
85,376446,DepthScenes,duration_manipulation_targetAtFixation,jsons/v1_VE1000_randls_1.json,http://54.235.29.9/FacialAge/BNav_EC2/DepthDuration/v2_depth_duration_MTurk/v2_DepthDuration_HTML.html#25,25,1366,768,1366,768,8-22-2022,8-58-35,86,depth_duration_stimuli/002678_2014-06-13_16-15-32_094959634447_rgbf000151-resize_6/002678_2014-06-13_16-15-32_094959634447_rgbf000151-resize_6-target.png,1000,2.1830000000000003,6,7138,998,feet,jsons/v1_VE1000_randls_1.json,1588151,1754640,48,Woman
86,376446,DepthScenes,duration_manipulation_targetAtFixation,jsons/v1_VE1000_randls_1.json,http://54.235.29.9/FacialAge/BNav_EC2/DepthDuration/v2_depth_duration_MTurk/v2_DepthDuration_HTML.html#25,25,1366,768,1366,768,8-22-2022,8-58-35,87,depth_duration_stimuli/002663_2014-06-13_15-50-26_094959634447_rgbf000075-resize_1/002663_2014-06-13_15-50-26_094959634447_rgbf000075-resize_1-target.png,1000,4.7495,8,4673,997,feet,jsons/v1_VE1000_randls_1.json,1588151,1754640,48,Woman
87,376446,DepthScenes,duration_manipulation_targetAtFixation,jsons/v1_VE1000_randls_1.json,http://54.235.29.9/FacialAge/BNav_EC2/DepthDuration/v2_depth_duration_MTurk/v2_DepthDuration_HTML.html#25,25,1366,768,1366,768,8-22-2022,8-58-35,88,depth_duration_stimuli/000409_2014-06-04_19-23-33_260595134347_rgbf000067-resize_0/000409_2014-06-04_19-23-33_260595134347_rgbf000067-resize_0-target.png,1000,3.7335,5,4876,997,feet,jsons/v1_VE1000_randls_1.json,1588151,1754640,48,Woman
88,376446,DepthScenes,duration_manipulation_targetAtFixation,jsons/v1_VE1000_randls_1.json,http://54.235.29.9/FacialAge/BNav_EC2/DepthDuration/v2_depth_duration_MTurk/v2_DepthDuration_HTML.html#25,25,1366,768,1366,768,8-22-2022,8-58-35,89,depth_duration_stimuli/002279_2014-06-28_18-55-32_260595134347_rgbf000040-resize_5/002279_2014-06-28_18-55-32_260595134347_rgbf000040-resize_5-target.png,1000,1.5043333333333,6,5258,1008,feet,jsons/v1_VE1000_randls_1.json,1588151,1754640,48,Woman
89,376446,DepthScenes,duration_manipulation_targetAtFixation,jsons/v1_VE1000_randls_1.json,http://54.235.29.9/FacialAge/BNav_EC2/DepthDuration/v2_depth_duration_MTurk/v2_DepthDuration_HTML.html#25,25,1366,768,1366,768,8-22-2022,8-58-35,90,depth_duration_stimuli/000635_2014-06-08_16-38-42_260595134347_rgbf000106-resize_1/000635_2014-06-08_16-38-42_260595134347_rgbf000106-resize_1-target.png,1000,2.074,3,8755,996,feet,jsons/v1_VE1000_randls_1.json,1588151,1754640,48,Woman
90,376446,DepthScenes,duration_manipulation_targetAtFixation,jsons/v1_VE1000_randls_1.json,http://54.235.29.9/FacialAge/BNav_EC2/DepthDuration/v2_depth_duration_MTurk/v2_DepthDuration_HTML.html#25,25,1366,768,1366,768,8-22-2022,8-58-35,91,depth_duration_stimuli/001055_2014-06-08_18-45-35_260595134347_rgbf000111-resize_4/001055_2014-06-08_18-45-35_260595134347_rgbf000111-resize_4-target.png,1000,2.4290000000000003,6,4745,998,feet,jsons/v1_VE1000_randls_1.json,1588151,1754640,48,Woman
91,376446,DepthScenes,duration_manipulation_targetAtFixation,jsons/v1_VE1000_randls_1.json,http://54.235.29.9/FacialAge/BNav_EC2/DepthDuration/v2_depth_duration_MTurk/v2_DepthDuration_HTML.html#25,25,1366,768,1366,768,8-22-2022,8-58-35,92,depth_duration_stimuli/000549_2014-06-08_22-10-24_260595134347_rgbf000247-resize_3/000549_2014-06-08_22-10-24_260595134347_rgbf000247-resize_3-target.png,1000,1.841,5,7335,994,feet,jsons/v1_VE1000_randls_1.json,1588151,1754640,48,Woman
92,376446,DepthScenes,duration_manipulation_targetAtFixation,jsons/v1_VE1000_randls_1.json,http://54.235.29.9/FacialAge/BNav_EC2/DepthDuration/v2_depth_duration_MTurk/v2_DepthDuration_HTML.html#25,25,1366,768,1366,768,8-22-2022,8-58-35,93,depth_duration_stimuli/002988_2014-06-15_12-24-20_094959634447_rgbf000150-resize_1/002988_2014-06-15_12-24-20_094959634447_rgbf000150-resize_1-target.png,1000,4.7669999999999995,8,6087,999,feet,jsons/v1_VE1000_randls_1.json,1588151,1754640,48,Woman
93,376446,DepthScenes,duration_manipulation_targetAtFixation,jsons/v1_VE1000_randls_1.json,http://54.235.29.9/FacialAge/BNav_EC2/DepthDuration/v2_depth_duration_MTurk/v2_DepthDuration_HTML.html#25,25,1366,768,1366,768,8-22-2022,8-58-35,94,depth_duration_stimuli/001052_2014-06-08_18-24-54_260595134347_rgbf000130-resize_1/001052_2014-06-08_18-24-54_260595134347_rgbf000130-resize_1-target.png,1000,4.1045,6,5499,997,feet,jsons/v1_VE1000_randls_1.json,1588151,1754640,48,Woman
94,376446,DepthScenes,duration_manipulation_targetAtFixation,jsons/v1_VE1000_randls_1.json,http://54.235.29.9/FacialAge/BNav_EC2/DepthDuration/v2_depth_duration_MTurk/v2_DepthDuration_HTML.html#25,25,1366,768,1366,768,8-22-2022,8-58-35,95,depth_duration_stimuli/000493_2014-06-09_21-01-18_260595134347_rgbf000196-resize_3/000493_2014-06-09_21-01-18_260595134347_rgbf000196-resize_3-target.png,1000,3.44,3,4641,1012,feet,jsons/v1_VE1000_randls_1.json,1588151,1754640,48,Woman
95,376446,DepthScenes,duration_manipulation_targetAtFixation,jsons/v1_VE1000_randls_1.json,http://54.235.29.9/FacialAge/BNav_EC2/DepthDuration/v2_depth_duration_MTurk/v2_DepthDuration_HTML.html#25,25,1366,768,1366,768,8-22-2022,8-58-35,96,depth_duration_stimuli/000191_2014-05-12_17-07-38_260595134347_rgbf000199-resize_0/000191_2014-05-12_17-07-38_260595134347_rgbf000199-resize_0-target.png,1000,3.7995,5,6706,998,feet,jsons/v1_VE1000_randls_1.json,1588151,1754640,48,Woman
96,376446,DepthScenes,duration_manipulation_targetAtFixation,jsons/v1_VE1000_randls_1.json,http://54.235.29.9/FacialAge/BNav_EC2/DepthDuration/v2_depth_duration_MTurk/v2_DepthDuration_HTML.html#25,25,1366,768,1366,768,8-22-2022,8-58-35,97,depth_duration_stimuli/002784_2014-06-22_19-26-30_094959634447_rgbf000083-resize_3/002784_2014-06-22_19-26-30_094959634447_rgbf000083-resize_3-target.png,1000,1.8046666666667,6,5523,1005,feet,jsons/v1_VE1000_randls_1.json,1588151,1754640,48,Woman
97,376446,DepthScenes,duration_manipulation_targetAtFixation,jsons/v1_VE1000_randls_1.json,http://54.235.29.9/FacialAge/BNav_EC2/DepthDuration/v2_depth_duration_MTurk/v2_DepthDuration_HTML.html#25,25,1366,768,1366,768,8-22-2022,8-58-35,98,depth_duration_stimuli/001100_2014-06-15_17-46-26_260595134347_rgbf000225-resize_2/001100_2014-06-15_17-46-26_260595134347_rgbf000225-resize_2-target.png,1000,2.24,6,5968,998,feet,jsons/v1_VE1000_randls_1.json,1588151,1754640,48,Woman
98,376446,DepthScenes,duration_manipulation_targetAtFixation,jsons/v1_VE1000_randls_1.json,http://54.235.29.9/FacialAge/BNav_EC2/DepthDuration/v2_depth_duration_MTurk/v2_DepthDuration_HTML.html#25,25,1366,768,1366,768,8-22-2022,8-58-35,99,depth_duration_stimuli/001540_2014-06-20_17-01-05_260595134347_rgbf000086-resize_2/001540_2014-06-20_17-01-05_260595134347_rgbf000086-resize-original.jpg,1000,1.459,6,5352,1001,feet,jsons/v1_VE1000_randls_1.json,1588151,1754640,48,Woman
99,376446,DepthScenes,duration_manipulation_targetAtFixation,jsons/v1_VE1000_randls_1.json,http://54.235.29.9/FacialAge/BNav_EC2/DepthDuration/v2_depth_duration_MTurk/v2_DepthDuration_HTML.html#25,25,1366,768,1366,768,8-22-2022,8-58-35,100,depth_duration_stimuli/002549_2014-06-24_13-41-39_094959634447_rgbf000022-resize_3/002549_2014-06-24_13-41-39_094959634447_rgbf000022-resize_3-target.png,1000,1.476,5,4925,997,feet,jsons/v1_VE1000_randls_1.json,1588151,1754640,48,Woman
100,376446,DepthScenes,duration_manipulation_targetAtFixation,jsons/v1_VE1000_randls_1.json,http://54.235.29.9/FacialAge/BNav_EC2/DepthDuration/v2_depth_duration_MTurk/v2_DepthDuration_HTML.html#25,25,1366,768,1366,768,8-22-2022,8-58-35,101,depth_duration_stimuli/002750_2014-06-22_19-08-03_094959634447_rgbf000094-resize_4/002750_2014-06-22_19-08-03_094959634447_rgbf000094-resize_4-target.png,1000,2.354,5,5550,995,feet,jsons/v1_VE1000_randls_1.json,1588151,1754640,48,Woman
101,376446,DepthScenes,duration_manipulation_targetAtFixation,jsons/v1_VE1000_randls_1.json,http://54.235.29.9/FacialAge/BNav_EC2/DepthDuration/v2_depth_duration_MTurk/v2_DepthDuration_HTML.html#25,25,1366,768,1366,768,8-22-2022,8-58-35,102,depth_duration_stimuli/001570_2014-06-20_17-21-09_260595134347_rgbf000135-resize_4/001570_2014-06-20_17-21-09_260595134347_rgbf000135-resize_4-target.png,1000,4.467,6,5090,997,feet,jsons/v1_VE1000_randls_1.json,1588151,1754640,48,Woman
102,376446,DepthScenes,duration_manipulation_targetAtFixation,jsons/v1_VE1000_randls_1.json,http://54.235.29.9/FacialAge/BNav_EC2/DepthDuration/v2_depth_duration_MTurk/v2_DepthDuration_HTML.html#25,25,1366,768,1366,768,8-22-2022,8-58-35,103,depth_duration_stimuli/001392_2014-06-19_16-07-59_260595134347_rgbf000046-resize_1/001392_2014-06-19_16-07-59_260595134347_rgbf000046-resize_1-target.png,1000,4.135,6,4855,998,feet,jsons/v1_VE1000_randls_1.json,1588151,1754640,48,Woman
103,376446,DepthScenes,duration_manipulation_targetAtFixation,jsons/v1_VE1000_randls_1.json,http://54.235.29.9/FacialAge/BNav_EC2/DepthDuration/v2_depth_duration_MTurk/v2_DepthDuration_HTML.html#25,25,1366,768,1366,768,8-22-2022,8-58-35,104,depth_duration_stimuli/001806_2014-06-26_20-50-20_260595134347_rgbf000091-resize_1/001806_2014-06-26_20-50-20_260595134347_rgbf000091-resize_1-target.png,1000,2.7305,5,5313,998,feet,jsons/v1_VE1000_randls_1.json,1588151,1754640,48,Woman
104,376446,DepthScenes,duration_manipulation_targetAtFixation,jsons/v1_VE1000_randls_1.json,http://54.235.29.9/FacialAge/BNav_EC2/DepthDuration/v2_depth_duration_MTurk/v2_DepthDuration_HTML.html#25,25,1366,768,1366,768,8-22-2022,8-58-35,105,depth_duration_stimuli/001617_2014-06-20_11-35-32_260595134347_rgbf000066-resize_1/001617_2014-06-20_11-35-32_260595134347_rgbf000066-resize_1-target.png,1000,3.7910000000000004,6,4716,994,feet,jsons/v1_VE1000_randls_1.json,1588151,1754640,48,Woman
105,376446,DepthScenes,duration_manipulation_targetAtFixation,jsons/v1_VE1000_randls_1.json,http://54.235.29.9/FacialAge/BNav_EC2/DepthDuration/v2_depth_duration_MTurk/v2_DepthDuration_HTML.html#25,25,1366,768,1366,768,8-22-2022,8-58-35,106,depth_duration_stimuli/000414_2014-06-04_19-49-13_260595134347_rgbf000044-resize_0/000414_2014-06-04_19-49-13_260595134347_rgbf000044-resize_0-target.png,1000,4.329,5,4897,1012,feet,jsons/v1_VE1000_randls_1.json,1588151,1754640,48,Woman
106,376446,DepthScenes,duration_manipulation_targetAtFixation,jsons/v1_VE1000_randls_1.json,http://54.235.29.9/FacialAge/BNav_EC2/DepthDuration/v2_depth_duration_MTurk/v2_DepthDuration_HTML.html#25,25,1366,768,1366,768,8-22-2022,8-58-35,107,depth_duration_stimuli/003129_2014-05-12_10-48-10_094959634447_rgbf000100-resize_0/003129_2014-05-12_10-48-10_094959634447_rgbf000100-resize_0-target.png,1000,4.9305,5,7045,995,feet,jsons/v1_VE1000_randls_1.json,1588151,1754640,48,Woman
107,376446,DepthScenes,duration_manipulation_targetAtFixation,jsons/v1_VE1000_randls_1.json,http://54.235.29.9/FacialAge/BNav_EC2/DepthDuration/v2_depth_duration_MTurk/v2_DepthDuration_HTML.html#25,25,1366,768,1366,768,8-22-2022,8-58-35,108,depth_duration_stimuli/002039_2014-06-24_20-22-38_260595134347_rgbf000084-resize_1/002039_2014-06-24_20-22-38_260595134347_rgbf000084-resize_1-target.png,1000,4.408,4,6016,996,feet,jsons/v1_VE1000_randls_1.json,1588151,1754640,48,Woman
108,376446,DepthScenes,duration_manipulation_targetAtFixation,jsons/v1_VE1000_randls_1.json,http://54.235.29.9/FacialAge/BNav_EC2/DepthDuration/v2_depth_duration_MTurk/v2_DepthDuration_HTML.html#25,25,1366,768,1366,768,8-22-2022,8-58-35,109,depth_duration_stimuli/002103_2014-06-25_20-00-40_260595134347_rgbf000049-resize_0/002103_2014-06-25_20-00-40_260595134347_rgbf000049-resize_0-target.png,1000,4.105,6,4223,1006,feet,jsons/v1_VE1000_randls_1.json,1588151,1754640,48,Woman
109,376446,DepthScenes,duration_manipulation_targetAtFixation,jsons/v1_VE1000_randls_1.json,http://54.235.29.9/FacialAge/BNav_EC2/DepthDuration/v2_depth_duration_MTurk/v2_DepthDuration_HTML.html#25,25,1366,768,1366,768,8-22-2022,8-58-35,110,depth_duration_stimuli/000682_2014-06-08_23-14-58_260595134347_rgbf000041-resize_5/000682_2014-06-08_23-14-58_260595134347_rgbf000041-resize_5-target.png,1000,2.7239999999999998,7,7502,1002,feet,jsons/v1_VE1000_randls_1.json,1588151,1754640,48,Woman
110,376446,DepthScenes,duration_manipulation_targetAtFixation,jsons/v1_VE1000_randls_1.json,http://54.235.29.9/FacialAge/BNav_EC2/DepthDuration/v2_depth_duration_MTurk/v2_DepthDuration_HTML.html#25,25,1366,768,1366,768,8-22-2022,8-58-35,111,depth_duration_stimuli/001650_2014-06-20_12-09-00_260595134347_rgbf000087-resize_3/001650_2014-06-20_12-09-00_260595134347_rgbf000087-resize_3-target.png,1000,1.9505,8,5541,999,feet,jsons/v1_VE1000_randls_1.json,1588151,1754640,48,Woman
111,376446,DepthScenes,duration_manipulation_targetAtFixation,jsons/v1_VE1000_randls_1.json,http://54.235.29.9/FacialAge/BNav_EC2/DepthDuration/v2_depth_duration_MTurk/v2_DepthDuration_HTML.html#25,25,1366,768,1366,768,8-22-2022,8-58-35,112,depth_duration_stimuli/001092_2014-06-15_17-34-58_260595134347_rgbf000171-resize_3/001092_2014-06-15_17-34-58_260595134347_rgbf000171-resize_3-target.png,1000,2.6935,8,4854,995,feet,jsons/v1_VE1000_randls_1.json,1588151,1754640,48,Woman
112,376446,DepthScenes,duration_manipulation_targetAtFixation,jsons/v1_VE1000_randls_1.json,http://54.235.29.9/FacialAge/BNav_EC2/DepthDuration/v2_depth_duration_MTurk/v2_DepthDuration_HTML.html#25,25,1366,768,1366,768,8-22-2022,8-58-35,113,depth_duration_stimuli/002545_2014-06-24_13-38-53_094959634447_rgbf000080-resize_4/002545_2014-06-24_13-38-53_094959634447_rgbf000080-resize_4-target.png,1000,1.9205,3,7493,996,feet,jsons/v1_VE1000_randls_1.json,1588151,1754640,48,Woman
113,376446,DepthScenes,duration_manipulation_targetAtFixation,jsons/v1_VE1000_randls_1.json,http://54.235.29.9/FacialAge/BNav_EC2/DepthDuration/v2_depth_duration_MTurk/v2_DepthDuration_HTML.html#25,25,1366,768,1366,768,8-22-2022,8-58-35,114,depth_duration_stimuli/003492_2014-05-21_15-50-55_094959634447_rgbf000828-resize_1/003492_2014-05-21_15-50-55_094959634447_rgbf000828-resize_1-target.png,1000,4.06875,6,8322,1011,feet,jsons/v1_VE1000_randls_1.json,1588151,1754640,48,Woman
114,376446,DepthScenes,duration_manipulation_targetAtFixation,jsons/v1_VE1000_randls_1.json,http://54.235.29.9/FacialAge/BNav_EC2/DepthDuration/v2_depth_duration_MTurk/v2_DepthDuration_HTML.html#25,25,1366,768,1366,768,8-22-2022,8-58-35,115,depth_duration_stimuli/002568_2014-06-24_13-59-21_094959634447_rgbf000062-resize_4/002568_2014-06-24_13-59-21_094959634447_rgbf000062-resize_4-target.png,1000,3.015,3,6070,997,feet,jsons/v1_VE1000_randls_1.json,1588151,1754640,48,Woman
115,376446,DepthScenes,duration_manipulation_targetAtFixation,jsons/v1_VE1000_randls_1.json,http://54.235.29.9/FacialAge/BNav_EC2/DepthDuration/v2_depth_duration_MTurk/v2_DepthDuration_HTML.html#25,25,1366,768,1366,768,8-22-2022,8-58-35,116,depth_duration_stimuli/001170_2014-06-17_15-43-44_260595134347_rgbf000096-resize_6/001170_2014-06-17_15-43-44_260595134347_rgbf000096-resize-original.jpg,1000,1.1909999999999998,6,7477,996,feet,jsons/v1_VE1000_randls_1.json,1588151,1754640,48,Woman
116,376446,DepthScenes,duration_manipulation_targetAtFixation,jsons/v1_VE1000_randls_1.json,http://54.235.29.9/FacialAge/BNav_EC2/DepthDuration/v2_depth_duration_MTurk/v2_DepthDuration_HTML.html#25,25,1366,768,1366,768,8-22-2022,8-58-35,117,depth_duration_stimuli/001011_2014-06-08_23-18-54_260595134347_rgbf000044-resize_4/001011_2014-06-08_23-18-54_260595134347_rgbf000044-resize_4-target.png,1000,2.4730000000000003,7,7744,997,feet,jsons/v1_VE1000_randls_1.json,1588151,1754640,48,Woman
117,376446,DepthScenes,duration_manipulation_targetAtFixation,jsons/v1_VE1000_randls_1.json,http://54.235.29.9/FacialAge/BNav_EC2/DepthDuration/v2_depth_duration_MTurk/v2_DepthDuration_HTML.html#25,25,1366,768,1366,768,8-22-2022,8-58-35,118,depth_duration_stimuli/002875_2014-06-01_15-19-00_094959634447_rgbf000151-resize_1/002875_2014-06-01_15-19-00_094959634447_rgbf000151-resize_1-target.png,1000,1.9675,4,7767,997,feet,jsons/v1_VE1000_randls_1.json,1588151,1754640,48,Woman
118,376446,DepthScenes,duration_manipulation_targetAtFixation,jsons/v1_VE1000_randls_1.json,http://54.235.29.9/FacialAge/BNav_EC2/DepthDuration/v2_depth_duration_MTurk/v2_DepthDuration_HTML.html#25,25,1366,768,1366,768,8-22-2022,8-58-35,119,depth_duration_stimuli/001167_2014-06-17_15-38-07_260595134347_rgbf000108-resize_0/001167_2014-06-17_15-38-07_260595134347_rgbf000108-resize_0-target.png,1000,1.8505,8,5782,996,feet,jsons/v1_VE1000_randls_1.json,1588151,1754640,48,Woman
119,376446,DepthScenes,duration_manipulation_targetAtFixation,jsons/v1_VE1000_randls_1.json,http://54.235.29.9/FacialAge/BNav_EC2/DepthDuration/v2_depth_duration_MTurk/v2_DepthDuration_HTML.html#25,25,1366,768,1366,768,8-22-2022,8-58-35,120,depth_duration_stimuli/003587_2014-05-23_16-48-02_094959634447_rgbf002384-resize_2/003587_2014-05-23_16-48-02_094959634447_rgbf002384-resize_2-target.png,1000,1.357,8,4392,999,feet,jsons/v1_VE1000_randls_1.json,1588151,1754640,48,Woman
120,376446,DepthScenes,duration_manipulation_targetAtFixation,jsons/v1_VE1000_randls_1.json,http://54.235.29.9/FacialAge/BNav_EC2/DepthDuration/v2_depth_duration_MTurk/v2_DepthDuration_HTML.html#25,25,1366,768,1366,768,8-22-2022,8-58-35,121,depth_duration_stimuli/000906_2014-06-08_13-35-43_260595134347_rgbf000155-resize_1/000906_2014-06-08_13-35-43_260595134347_rgbf000155-resize_1-target.png,1000,2.8489999999999998,5,4718,997,feet,jsons/v1_VE1000_randls_1.json,1588151,1754640,48,Woman
121,376446,DepthScenes,duration_manipulation_targetAtFixation,jsons/v1_VE1000_randls_1.json,http://54.235.29.9/FacialAge/BNav_EC2/DepthDuration/v2_depth_duration_MTurk/v2_DepthDuration_HTML.html#25,25,1366,768,1366,768,8-22-2022,8-58-35,122,depth_duration_stimuli/002805_2014-06-22_19-54-03_094959634447_rgbf000079-resize_1/002805_2014-06-22_19-54-03_094959634447_rgbf000079-resize_1-target.png,1000,3.1439999999999997,8,4515,1001,feet,jsons/v1_VE1000_randls_1.json,1588151,1754640,48,Woman
122,376446,DepthScenes,duration_manipulation_targetAtFixation,jsons/v1_VE1000_randls_1.json,http://54.235.29.9/FacialAge/BNav_EC2/DepthDuration/v2_depth_duration_MTurk/v2_DepthDuration_HTML.html#25,25,1366,768,1366,768,8-22-2022,8-58-35,123,depth_duration_stimuli/000692_2014-06-08_13-09-42_260595134347_rgbf000199-resize_2/000692_2014-06-08_13-09-42_260595134347_rgbf000199-resize_2-target.png,1000,3.661,4,6658,1012,feet,jsons/v1_VE1000_randls_1.json,1588151,1754640,48,Woman
123,376446,DepthScenes,duration_manipulation_targetAtFixation,jsons/v1_VE1000_randls_1.json,http://54.235.29.9/FacialAge/BNav_EC2/DepthDuration/v2_depth_duration_MTurk/v2_DepthDuration_HTML.html#25,25,1366,768,1366,768,8-22-2022,8-58-35,124,depth_duration_stimuli/001094_2014-06-15_17-36-00_260595134347_rgbf000205-resize_0/001094_2014-06-15_17-36-00_260595134347_rgbf000205-resize_0-target.png,1000,4.2175,4,10372,1008,feet,jsons/v1_VE1000_randls_1.json,1588151,1754640,48,Woman
124,376446,DepthScenes,duration_manipulation_targetAtFixation,jsons/v1_VE1000_randls_1.json,http://54.235.29.9/FacialAge/BNav_EC2/DepthDuration/v2_depth_duration_MTurk/v2_DepthDuration_HTML.html#25,25,1366,768,1366,768,8-22-2022,8-58-35,125,depth_duration_stimuli/001199_2014-06-17_16-03-48_260595134347_rgbf000077-resize_0/001199_2014-06-17_16-03-48_260595134347_rgbf000077-resize_0-target.png,1000,3.4375,8,4970,1010,feet,jsons/v1_VE1000_randls_1.json,1588151,1754640,48,Woman
125,376446,DepthScenes,duration_manipulation_targetAtFixation,jsons/v1_VE1000_randls_1.json,http://54.235.29.9/FacialAge/BNav_EC2/DepthDuration/v2_depth_duration_MTurk/v2_DepthDuration_HTML.html#25,25,1366,768,1366,768,8-22-2022,8-58-35,126,depth_duration_stimuli/000502_2014-06-08_23-02-32_260595134347_rgbf000063-resize_4/000502_2014-06-08_23-02-32_260595134347_rgbf000063-resize_4-target.png,1000,2.431,4,4758,996,feet,jsons/v1_VE1000_randls_1.json,1588151,1754640,48,Woman
126,376446,DepthScenes,duration_manipulation_targetAtFixation,jsons/v1_VE1000_randls_1.json,http://54.235.29.9/FacialAge/BNav_EC2/DepthDuration/v2_depth_duration_MTurk/v2_DepthDuration_HTML.html#25,25,1366,768,1366,768,8-22-2022,8-58-35,127,depth_duration_stimuli/001244_2014-06-17_16-47-45_260595134347_rgbf000030-resize_4/001244_2014-06-17_16-47-45_260595134347_rgbf000030-resize_4-target.png,1000,2.0425,5,4412,996,feet,jsons/v1_VE1000_randls_1.json,1588151,1754640,48,Woman
127,376446,DepthScenes,duration_manipulation_targetAtFixation,jsons/v1_VE1000_randls_1.json,http://54.235.29.9/FacialAge/BNav_EC2/DepthDuration/v2_depth_duration_MTurk/v2_DepthDuration_HTML.html#25,25,1366,768,1366,768,8-22-2022,8-58-35,128,depth_duration_stimuli/003495_2014-05-21_16-01-51_094959634447_rgbf000100-resize_3/003495_2014-05-21_16-01-51_094959634447_rgbf000100-resize_3-target.png,1000,1.6255,7,6634,1004,feet,jsons/v1_VE1000_randls_1.json,1588151,1754640,48,Woman
128,376446,DepthScenes,duration_manipulation_targetAtFixation,jsons/v1_VE1000_randls_1.json,http://54.235.29.9/FacialAge/BNav_EC2/DepthDuration/v2_depth_duration_MTurk/v2_DepthDuration_HTML.html#25,25,1366,768,1366,768,8-22-2022,8-58-35,129,depth_duration_stimuli/002272_2014-06-28_18-53-56_260595134347_rgbf000067-resize_2/002272_2014-06-28_18-53-56_260595134347_rgbf000067-resize_2-target.png,1000,1.138,4,7063,1011,feet,jsons/v1_VE1000_randls_1.json,1588151,1754640,48,Woman
129,376446,DepthScenes,duration_manipulation_targetAtFixation,jsons/v1_VE1000_randls_1.json,http://54.235.29.9/FacialAge/BNav_EC2/DepthDuration/v2_depth_duration_MTurk/v2_DepthDuration_HTML.html#25,25,1366,768,1366,768,8-22-2022,8-58-35,130,depth_duration_stimuli/001571_2014-06-20_17-21-32_260595134347_rgbf000089-resize_1/001571_2014-06-20_17-21-32_260595134347_rgbf000089-resize_1-target.png,1000,1.86,5,5106,1011,feet,jsons/v1_VE1000_randls_1.json,1588151,1754640,48,Woman
130,376446,DepthScenes,duration_manipulation_targetAtFixation,jsons/v1_VE1000_randls_1.json,http://54.235.29.9/FacialAge/BNav_EC2/DepthDuration/v2_depth_duration_MTurk/v2_DepthDuration_HTML.html#25,25,1366,768,1366,768,8-22-2022,8-58-35,131,depth_duration_stimuli/001175_2014-06-17_15-45-55_260595134347_rgbf000129-resize_4/001175_2014-06-17_15-45-55_260595134347_rgbf000129-resize_4-target.png,1000,4.255,9,6885,1006,feet,jsons/v1_VE1000_randls_1.json,1588151,1754640,48,Woman
131,376446,DepthScenes,duration_manipulation_targetAtFixation,jsons/v1_VE1000_randls_1.json,http://54.235.29.9/FacialAge/BNav_EC2/DepthDuration/v2_depth_duration_MTurk/v2_DepthDuration_HTML.html#25,25,1366,768,1366,768,8-22-2022,8-58-35,132,depth_duration_stimuli/003490_2014-05-21_15-50-11_094959634447_rgbf000101-resize_3/003490_2014-05-21_15-50-11_094959634447_rgbf000101-resize_3-target.png,1000,3.6445,9,4981,995,feet,jsons/v1_VE1000_randls_1.json,1588151,1754640,48,Woman
132,376446,DepthScenes,duration_manipulation_targetAtFixation,jsons/v1_VE1000_randls_1.json,http://54.235.29.9/FacialAge/BNav_EC2/DepthDuration/v2_depth_duration_MTurk/v2_DepthDuration_HTML.html#25,25,1366,768,1366,768,8-22-2022,8-58-35,133,depth_duration_stimuli/003621_2014-05-23_18-06-08_094959634447_rgbf000101-resize_1/003621_2014-05-23_18-06-08_094959634447_rgbf000101-resize_1-target.png,1000,3.9835,5,5007,997,feet,jsons/v1_VE1000_randls_1.json,1588151,1754640,48,Woman
133,376446,DepthScenes,duration_manipulation_targetAtFixation,jsons/v1_VE1000_randls_1.json,http://54.235.29.9/FacialAge/BNav_EC2/DepthDuration/v2_depth_duration_MTurk/v2_DepthDuration_HTML.html#25,25,1366,768,1366,768,8-22-2022,8-58-35,134,depth_duration_stimuli/001584_2014-06-20_11-07-43_260595134347_rgbf000002-resize_1/001584_2014-06-20_11-07-43_260595134347_rgbf000002-resize_1-target.png,1000,3.53,8,6597,987,feet,jsons/v1_VE1000_randls_1.json,1588151,1754640,48,Woman
134,376446,DepthScenes,duration_manipulation_targetAtFixation,jsons/v1_VE1000_randls_1.json,http://54.235.29.9/FacialAge/BNav_EC2/DepthDuration/v2_depth_duration_MTurk/v2_DepthDuration_HTML.html#25,25,1366,768,1366,768,8-22-2022,8-58-35,135,depth_duration_stimuli/002072_2014-06-24_21-48-06_260595134347_rgbf000115-resize_0/002072_2014-06-24_21-48-06_260595134347_rgbf000115-resize-original.jpg,1000,4.702,4,5932,1003,feet,jsons/v1_VE1000_randls_1.json,1588151,1754640,48,Woman
135,376446,DepthScenes,duration_manipulation_targetAtFixation,jsons/v1_VE1000_randls_1.json,http://54.235.29.9/FacialAge/BNav_EC2/DepthDuration/v2_depth_duration_MTurk/v2_DepthDuration_HTML.html#25,25,1366,768,1366,768,8-22-2022,8-58-35,136,depth_duration_stimuli/000739_2014-06-08_18-45-58_260595134347_rgbf000068-resize_1/000739_2014-06-08_18-45-58_260595134347_rgbf000068-resize_1-target.png,1000,3.534,6,5685,998,feet,jsons/v1_VE1000_randls_1.json,1588151,1754640,48,Woman
136,376446,DepthScenes,duration_manipulation_targetAtFixation,jsons/v1_VE1000_randls_1.json,http://54.235.29.9/FacialAge/BNav_EC2/DepthDuration/v2_depth_duration_MTurk/v2_DepthDuration_HTML.html#25,25,1366,768,1366,768,8-22-2022,8-58-35,137,depth_duration_stimuli/000734_2014-06-08_17-39-11_260595134347_rgbf000128-resize_2/000734_2014-06-08_17-39-11_260595134347_rgbf000128-resize_2-target.png,1000,4.098,5,9720,997,feet,jsons/v1_VE1000_randls_1.json,1588151,1754640,48,Woman
137,376446,DepthScenes,duration_manipulation_targetAtFixation,jsons/v1_VE1000_randls_1.json,http://54.235.29.9/FacialAge/BNav_EC2/DepthDuration/v2_depth_duration_MTurk/v2_DepthDuration_HTML.html#25,25,1366,768,1366,768,8-22-2022,8-58-35,138,depth_duration_stimuli/002630_2014-06-24_14-47-50_094959634447_rgbf000055-resize_1/002630_2014-06-24_14-47-50_094959634447_rgbf000055-resize_1-target.png,1000,3.0095,8,5508,995,feet,jsons/v1_VE1000_randls_1.json,1588151,1754640,48,Woman
138,376446,DepthScenes,duration_manipulation_targetAtFixation,jsons/v1_VE1000_randls_1.json,http://54.235.29.9/FacialAge/BNav_EC2/DepthDuration/v2_depth_duration_MTurk/v2_DepthDuration_HTML.html#25,25,1366,768,1366,768,8-22-2022,8-58-35,139,depth_duration_stimuli/002758_2014-06-22_19-11-20_094959634447_rgbf000128-resize_1/002758_2014-06-22_19-11-20_094959634447_rgbf000128-resize_1-target.png,1000,2.555,3,12088,995,feet,jsons/v1_VE1000_randls_1.json,1588151,1754640,48,Woman
139,376446,DepthScenes,duration_manipulation_targetAtFixation,jsons/v1_VE1000_randls_1.json,http://54.235.29.9/FacialAge/BNav_EC2/DepthDuration/v2_depth_duration_MTurk/v2_DepthDuration_HTML.html#25,25,1366,768,1366,768,8-22-2022,8-58-35,140,depth_duration_stimuli/001133_2014-06-17_14-49-16_260595134347_rgbf000100-resize_0/001133_2014-06-17_14-49-16_260595134347_rgbf000100-resize_0-target.png,1000,4.2115,3,6821,997,feet,jsons/v1_VE1000_randls_1.json,1588151,1754640,48,Woman
140,376446,DepthScenes,duration_manipulation_targetAtFixation,jsons/v1_VE1000_randls_1.json,http://54.235.29.9/FacialAge/BNav_EC2/DepthDuration/v2_depth_duration_MTurk/v2_DepthDuration_HTML.html#25,25,1366,768,1366,768,8-22-2022,8-58-35,141,depth_duration_stimuli/001132_2014-06-17_14-48-54_260595134347_rgbf000100-resize_2/001132_2014-06-17_14-48-54_260595134347_rgbf000100-resize_2-target.png,1000,3.753,3,6129,996,feet,jsons/v1_VE1000_randls_1.json,1588151,1754640,48,Woman
141,376446,DepthScenes,duration_manipulation_targetAtFixation,jsons/v1_VE1000_randls_1.json,http://54.235.29.9/FacialAge/BNav_EC2/DepthDuration/v2_depth_duration_MTurk/v2_DepthDuration_HTML.html#25,25,1366,768,1366,768,8-22-2022,8-58-35,142,depth_duration_stimuli/003070_2014-06-15_14-58-27_094959634447_rgbf000150-resize_3/003070_2014-06-15_14-58-27_094959634447_rgbf000150-resize_3-target.png,1000,2.9415,6,6411,996,feet,jsons/v1_VE1000_randls_1.json,1588151,1754640,48,Woman
142,376446,DepthScenes,duration_manipulation_targetAtFixation,jsons/v1_VE1000_randls_1.json,http://54.235.29.9/FacialAge/BNav_EC2/DepthDuration/v2_depth_duration_MTurk/v2_DepthDuration_HTML.html#25,25,1366,768,1366,768,8-22-2022,8-58-35,143,depth_duration_stimuli/000943_2014-06-09_19-31-07_260595134347_rgbf000128-resize_1/000943_2014-06-09_19-31-07_260595134347_rgbf000128-resize_1-target.png,1000,1.9765,6,7751,1002,feet,jsons/v1_VE1000_randls_1.json,1588151,1754640,48,Woman
143,376446,DepthScenes,duration_manipulation_targetAtFixation,jsons/v1_VE1000_randls_1.json,http://54.235.29.9/FacialAge/BNav_EC2/DepthDuration/v2_depth_duration_MTurk/v2_DepthDuration_HTML.html#25,25,1366,768,1366,768,8-22-2022,8-58-35,144,depth_duration_stimuli/001029_2014-06-08_13-17-57_260595134347_rgbf000065-resize_1/001029_2014-06-08_13-17-57_260595134347_rgbf000065-resize_1-target.png,1000,3.0835,7,21393,1010,feet,jsons/v1_VE1000_randls_1.json,1588151,1754640,48,Woman
144,376446,DepthScenes,duration_manipulation_targetAtFixation,jsons/v1_VE1000_randls_1.json,http://54.235.29.9/FacialAge/BNav_EC2/DepthDuration/v2_depth_duration_MTurk/v2_DepthDuration_HTML.html#25,25,1366,768,1366,768,8-22-2022,8-58-35,145,depth_duration_stimuli/000677_2014-06-08_23-10-32_260595134347_rgbf000158-resize_6/000677_2014-06-08_23-10-32_260595134347_rgbf000158-resize_6-target.png,1000,3.556,9,5851,990,feet,jsons/v1_VE1000_randls_1.json,1588151,1754640,48,Woman
145,376446,DepthScenes,duration_manipulation_targetAtFixation,jsons/v1_VE1000_randls_1.json,http://54.235.29.9/FacialAge/BNav_EC2/DepthDuration/v2_depth_duration_MTurk/v2_DepthDuration_HTML.html#25,25,1366,768,1366,768,8-22-2022,8-58-35,146,depth_duration_stimuli/001498_2014-06-19_17-45-14_260595134347_rgbf000129-resize_4/001498_2014-06-19_17-45-14_260595134347_rgbf000129-resize-original.jpg,1000,1.4075,4,6360,1002,feet,jsons/v1_VE1000_randls_1.json,1588151,1754640,48,Woman
146,376446,DepthScenes,duration_manipulation_targetAtFixation,jsons/v1_VE1000_randls_1.json,http://54.235.29.9/FacialAge/BNav_EC2/DepthDuration/v2_depth_duration_MTurk/v2_DepthDuration_HTML.html#25,25,1366,768,1366,768,8-22-2022,8-58-35,147,depth_duration_stimuli/001555_2014-06-20_17-12-10_260595134347_rgbf000065-resize_4/001555_2014-06-20_17-12-10_260595134347_rgbf000065-resize_4-target.png,1000,1.633,3,8258,996,feet,jsons/v1_VE1000_randls_1.json,1588151,1754640,48,Woman
147,376446,DepthScenes,duration_manipulation_targetAtFixation,jsons/v1_VE1000_randls_1.json,http://54.235.29.9/FacialAge/BNav_EC2/DepthDuration/v2_depth_duration_MTurk/v2_DepthDuration_HTML.html#25,25,1366,768,1366,768,8-22-2022,8-58-35,148,depth_duration_stimuli/000103_2014-05-14_22-01-17_260595134347_rgbf000152-resize_5/000103_2014-05-14_22-01-17_260595134347_rgbf000152-resize_5-target.png,1000,1.993,6,9951,997,feet,jsons/v1_VE1000_randls_1.json,1588151,1754640,48,Woman
148,376446,DepthScenes,duration_manipulation_targetAtFixation,jsons/v1_VE1000_randls_1.json,http://54.235.29.9/FacialAge/BNav_EC2/DepthDuration/v2_depth_duration_MTurk/v2_DepthDuration_HTML.html#25,25,1366,768,1366,768,8-22-2022,8-58-35,149,depth_duration_stimuli/000917_2014-06-09_22-45-29_260595134347_rgbf000149-resize_3/000917_2014-06-09_22-45-29_260595134347_rgbf000149-resize_3-target.png,1000,4.1865,6,6650,1000,feet,jsons/v1_VE1000_randls_1.json,1588151,1754640,48,Woman
149,376446,DepthScenes,duration_manipulation_targetAtFixation,jsons/v1_VE1000_randls_1.json,http://54.235.29.9/FacialAge/BNav_EC2/DepthDuration/v2_depth_duration_MTurk/v2_DepthDuration_HTML.html#25,25,1366,768,1366,768,8-22-2022,8-58-35,150,depth_duration_stimuli/002323_2014-06-28_20-01-54_260595134347_rgbf000051-resize_4/002323_2014-06-28_20-01-54_260595134347_rgbf000051-resize_4-target.png,1000,3.7310000000000003,8,7680,996,feet,jsons/v1_VE1000_randls_1.json,1588151,1754640,48,Woman
150,376446,DepthScenes,duration_manipulation_targetAtFixation,jsons/v1_VE1000_randls_1.json,http://54.235.29.9/FacialAge/BNav_EC2/DepthDuration/v2_depth_duration_MTurk/v2_DepthDuration_HTML.html#25,25,1366,768,1366,768,8-22-2022,8-58-35,151,depth_duration_stimuli/002153_2014-06-25_21-27-18_260595134347_rgbf000038-resize_5/002153_2014-06-25_21-27-18_260595134347_rgbf000038-resize_5-target.png,1000,2.505,6,6529,997,feet,jsons/v1_VE1000_randls_1.json,1588151,1754640,48,Woman
151,376446,DepthScenes,duration_manipulation_targetAtFixation,jsons/v1_VE1000_randls_1.json,http://54.235.29.9/FacialAge/BNav_EC2/DepthDuration/v2_depth_duration_MTurk/v2_DepthDuration_HTML.html#25,25,1366,768,1366,768,8-22-2022,8-58-35,152,depth_duration_stimuli/002660_2014-06-13_15-44-18_094959634447_rgbf001878-resize_2/002660_2014-06-13_15-44-18_094959634447_rgbf001878-resize_2-target.png,1000,3.576,9,5835,1012,feet,jsons/v1_VE1000_randls_1.json,1588151,1754640,48,Woman
152,376446,DepthScenes,duration_manipulation_targetAtFixation,jsons/v1_VE1000_randls_1.json,http://54.235.29.9/FacialAge/BNav_EC2/DepthDuration/v2_depth_duration_MTurk/v2_DepthDuration_HTML.html#25,25,1366,768,1366,768,8-22-2022,8-58-35,153,depth_duration_stimuli/001056_2014-06-08_18-46-44_260595134347_rgbf000068-resize_0/001056_2014-06-08_18-46-44_260595134347_rgbf000068-resize_0-target.png,1000,2.6625,5,5502,997,feet,jsons/v1_VE1000_randls_1.json,1588151,1754640,48,Woman
153,376446,DepthScenes,duration_manipulation_targetAtFixation,jsons/v1_VE1000_randls_1.json,http://54.235.29.9/FacialAge/BNav_EC2/DepthDuration/v2_depth_duration_MTurk/v2_DepthDuration_HTML.html#25,25,1366,768,1366,768,8-22-2022,8-58-35,154,depth_duration_stimuli/002199_2014-06-28_18-33-56_260595134347_rgbf000074-resize_0/002199_2014-06-28_18-33-56_260595134347_rgbf000074-resize_0-target.png,1000,1.996,7,9088,996,feet,jsons/v1_VE1000_randls_1.json,1588151,1754640,48,Woman
154,376446,DepthScenes,duration_manipulation_targetAtFixation,jsons/v1_VE1000_randls_1.json,http://54.235.29.9/FacialAge/BNav_EC2/DepthDuration/v2_depth_duration_MTurk/v2_DepthDuration_HTML.html#25,25,1366,768,1366,768,8-22-2022,8-58-35,155,depth_duration_stimuli/001066_2014-06-08_22-03-20_260595134347_rgbf000066-resize_4/001066_2014-06-08_22-03-20_260595134347_rgbf000066-resize_4-target.png,1000,4.2330000000000005,8,7779,1001,feet,jsons/v1_VE1000_randls_1.json,1588151,1754640,48,Woman
155,376446,DepthScenes,duration_manipulation_targetAtFixation,jsons/v1_VE1000_randls_1.json,http://54.235.29.9/FacialAge/BNav_EC2/DepthDuration/v2_depth_duration_MTurk/v2_DepthDuration_HTML.html#25,25,1366,768,1366,768,8-22-2022,8-58-35,156,depth_duration_stimuli/000742_2014-06-08_18-48-09_260595134347_rgbf000164-resize_4/000742_2014-06-08_18-48-09_260595134347_rgbf000164-resize_4-target.png,1000,4.632,3,7139,996,feet,jsons/v1_VE1000_randls_1.json,1588151,1754640,48,Woman
156,376446,DepthScenes,duration_manipulation_targetAtFixation,jsons/v1_VE1000_randls_1.json,http://54.235.29.9/FacialAge/BNav_EC2/DepthDuration/v2_depth_duration_MTurk/v2_DepthDuration_HTML.html#25,25,1366,768,1366,768,8-22-2022,8-58-35,157,depth_duration_stimuli/000470_2014-06-09_19-42-40_260595134347_rgbf000094-resize_1/000470_2014-06-09_19-42-40_260595134347_rgbf000094-resize_1-target.png,1000,1.831,3,4188,996,feet,jsons/v1_VE1000_randls_1.json,1588151,1754640,48,Woman
157,376446,DepthScenes,duration_manipulation_targetAtFixation,jsons/v1_VE1000_randls_1.json,http://54.235.29.9/FacialAge/BNav_EC2/DepthDuration/v2_depth_duration_MTurk/v2_DepthDuration_HTML.html#25,25,1366,768,1366,768,8-22-2022,8-58-35,158,depth_duration_stimuli/000109_2014-05-14_23-41-52_260595134347_rgbf000035-resize_9/000109_2014-05-14_23-41-52_260595134347_rgbf000035-resize_9-target.png,1000,1.3545,4,7726,996,feet,jsons/v1_VE1000_randls_1.json,1588151,1754640,48,Woman
158,376446,DepthScenes,duration_manipulation_targetAtFixation,jsons/v1_VE1000_randls_1.json,http://54.235.29.9/FacialAge/BNav_EC2/DepthDuration/v2_depth_duration_MTurk/v2_DepthDuration_HTML.html#25,25,1366,768,1366,768,8-22-2022,8-58-35,159,depth_duration_stimuli/002213_2014-06-28_18-37-58_260595134347_rgbf000055-resize_1/002213_2014-06-28_18-37-58_260595134347_rgbf000055-resize_1-target.png,1000,3.62,4,6373,1000,feet,jsons/v1_VE1000_randls_1.json,1588151,1754640,48,Woman
159,376446,DepthScenes,duration_manipulation_targetAtFixation,jsons/v1_VE1000_randls_1.json,http://54.235.29.9/FacialAge/BNav_EC2/DepthDuration/v2_depth_duration_MTurk/v2_DepthDuration_HTML.html#25,25,1366,768,1366,768,8-22-2022,8-58-35,160,depth_duration_stimuli/000691_2014-06-08_13-08-50_260595134347_rgbf000132-resize_3/000691_2014-06-08_13-08-50_260595134347_rgbf000132-resize_3-target.png,1000,4.1530000000000005,9,6698,1002,feet,jsons/v1_VE1000_randls_1.json,1588151,1754640,48,Woman
160,376446,DepthScenes,duration_manipulation_targetAtFixation,jsons/v1_VE1000_randls_1.json,http://54.235.29.9/FacialAge/BNav_EC2/DepthDuration/v2_depth_duration_MTurk/v2_DepthDuration_HTML.html#25,25,1366,768,1366,768,8-22-2022,8-58-35,161,depth_duration_stimuli/000929_2014-06-09_16-33-19_260595134347_rgbf000139-resize_0/000929_2014-06-09_16-33-19_260595134347_rgbf000139-resize_0-target.png,1000,2.8680000000000003,6,7440,1002,feet,jsons/v1_VE1000_randls_1.json,1588151,1754640,48,Woman
161,376446,DepthScenes,duration_manipulation_targetAtFixation,jsons/v1_VE1000_randls_1.json,http://54.235.29.9/FacialAge/BNav_EC2/DepthDuration/v2_depth_duration_MTurk/v2_DepthDuration_HTML.html#25,25,1366,768,1366,768,8-22-2022,8-58-35,162,depth_duration_stimuli/000457_2014-06-08_16-52-43_260595134347_rgbf000199-resize_1/000457_2014-06-08_16-52-43_260595134347_rgbf000199-resize_1-target.png,1000,3.6489999999999996,4,4804,994,feet,jsons/v1_VE1000_randls_1.json,1588151,1754640,48,Woman
162,376446,DepthScenes,duration_manipulation_targetAtFixation,jsons/v1_VE1000_randls_1.json,http://54.235.29.9/FacialAge/BNav_EC2/DepthDuration/v2_depth_duration_MTurk/v2_DepthDuration_HTML.html#25,25,1366,768,1366,768,8-22-2022,8-58-35,163,depth_duration_stimuli/002509_2014-06-24_13-19-22_094959634447_rgbf000077-resize_0/002509_2014-06-24_13-19-22_094959634447_rgbf000077-resize_0-target.png,1000,1.3065,4,7615,1011,feet,jsons/v1_VE1000_randls_1.json,1588151,1754640,48,Woman
163,376446,DepthScenes,duration_manipulation_targetAtFixation,jsons/v1_VE1000_randls_1.json,http://54.235.29.9/FacialAge/BNav_EC2/DepthDuration/v2_depth_duration_MTurk/v2_DepthDuration_HTML.html#25,25,1366,768,1366,768,8-22-2022,8-58-35,164,depth_duration_stimuli/003338_2014-05-20_11-01-23_094959634447_rgbf000051-resize_6/003338_2014-05-20_11-01-23_094959634447_rgbf000051-resize_6-target.png,1000,1.693,6,9777,996,feet,jsons/v1_VE1000_randls_1.json,1588151,1754640,48,Woman
