,subjID,experimentName,versionName,sequenceName,url,selected_row,windowWidth,windowHeight,screenWidth,screenHeight,startDate,startTime,trial,stimulus,duration,actual_depth,depth_estimate,trial_RT,log_sceneDuration,unitSelection,seq_filepath,experimentTime,totalTime,age,gender
0,376542,DepthScenes,duration_manipulation_targetAtFixation,jsons/VE125_randls_67_rotated.json,http://54.235.29.9/FacialAge/BNav_EC2/DepthDuration/v2_depth_duration_MTurk/v2_DepthDuration_HTML.html#341,341,1920,937,1920,1080,9-18-2022,11-14-13,1,depth_duration_stimuli/000866_2014-06-09_20-45-42_260595134347_rgbf000139-resize_1/000866_2014-06-09_20-45-42_260595134347_rgbf000139-resize_1-target.png,125,3.2155,5,3596,123,feet,jsons/VE125_randls_67_rotated.json,608880,941473,43,Woman
1,376542,DepthScenes,duration_manipulation_targetAtFixation,jsons/VE125_randls_67_rotated.json,http://54.235.29.9/FacialAge/BNav_EC2/DepthDuration/v2_depth_duration_MTurk/v2_DepthDuration_HTML.html#341,341,1920,937,1920,1080,9-18-2022,11-14-13,2,depth_duration_stimuli/002989_2014-06-15_12-25-03_094959634447_rgbf000150-resize_3/002989_2014-06-15_12-25-03_094959634447_rgbf000150-resize_3-target.png,125,4.1975,10,3599,125,feet,jsons/VE125_randls_67_rotated.json,608880,941473,43,Woman
2,376542,DepthScenes,duration_manipulation_targetAtFixation,jsons/VE125_randls_67_rotated.json,http://54.235.29.9/FacialAge/BNav_EC2/DepthDuration/v2_depth_duration_MTurk/v2_DepthDuration_HTML.html#341,341,1920,937,1920,1080,9-18-2022,11-14-13,3,depth_duration_stimuli/001132_2014-06-17_14-48-54_260595134347_rgbf000100-resize_2/001132_2014-06-17_14-48-54_260595134347_rgbf000100-resize_2-target.png,125,3.753,8,3660,36,feet,jsons/VE125_randls_67_rotated.json,608880,941473,43,Woman
3,376542,DepthScenes,duration_manipulation_targetAtFixation,jsons/VE125_randls_67_rotated.json,http://54.235.29.9/FacialAge/BNav_EC2/DepthDuration/v2_depth_duration_MTurk/v2_DepthDuration_HTML.html#341,341,1920,937,1920,1080,9-18-2022,11-14-13,4,depth_duration_stimuli/001133_2014-06-17_14-49-16_260595134347_rgbf000100-resize_0/001133_2014-06-17_14-49-16_260595134347_rgbf000100-resize_0-target.png,125,4.2115,5,3572,121,feet,jsons/VE125_randls_67_rotated.json,608880,941473,43,Woman
4,376542,DepthScenes,duration_manipulation_targetAtFixation,jsons/VE125_randls_67_rotated.json,http://54.235.29.9/FacialAge/BNav_EC2/DepthDuration/v2_depth_duration_MTurk/v2_DepthDuration_HTML.html#341,341,1920,937,1920,1080,9-18-2022,11-14-13,5,depth_duration_stimuli/002657_2014-06-13_15-29-54_094959634447_rgbf000150-resize_1/002657_2014-06-13_15-29-54_094959634447_rgbf000150-resize_1-target.png,125,4.919,9,3247,114,feet,jsons/VE125_randls_67_rotated.json,608880,941473,43,Woman
5,376542,DepthScenes,duration_manipulation_targetAtFixation,jsons/VE125_randls_67_rotated.json,http://54.235.29.9/FacialAge/BNav_EC2/DepthDuration/v2_depth_duration_MTurk/v2_DepthDuration_HTML.html#341,341,1920,937,1920,1080,9-18-2022,11-14-13,6,depth_duration_stimuli/002375_2014-06-28_20-13-44_260595134347_rgbf000032-resize_1/002375_2014-06-28_20-13-44_260595134347_rgbf000032-resize_1-target.png,125,4.0175,7,3051,59,feet,jsons/VE125_randls_67_rotated.json,608880,941473,43,Woman
6,376542,DepthScenes,duration_manipulation_targetAtFixation,jsons/VE125_randls_67_rotated.json,http://54.235.29.9/FacialAge/BNav_EC2/DepthDuration/v2_depth_duration_MTurk/v2_DepthDuration_HTML.html#341,341,1920,937,1920,1080,9-18-2022,11-14-13,7,depth_duration_stimuli/002136_2014-06-25_21-18-03_260595134347_rgbf000109-resize_3/002136_2014-06-25_21-18-03_260595134347_rgbf000109-resize_3-target.png,125,1.9569999999999999,3,3408,127,feet,jsons/VE125_randls_67_rotated.json,608880,941473,43,Woman
7,376542,DepthScenes,duration_manipulation_targetAtFixation,jsons/VE125_randls_67_rotated.json,http://54.235.29.9/FacialAge/BNav_EC2/DepthDuration/v2_depth_duration_MTurk/v2_DepthDuration_HTML.html#341,341,1920,937,1920,1080,9-18-2022,11-14-13,8,depth_duration_stimuli/002964_2014-06-08_17-46-11_094959634447_rgbf000091-resize_4/002964_2014-06-08_17-46-11_094959634447_rgbf000091-resize_4-target.png,125,1.6909999999999998,2,3015,116,feet,jsons/VE125_randls_67_rotated.json,608880,941473,43,Woman
8,376542,DepthScenes,duration_manipulation_targetAtFixation,jsons/VE125_randls_67_rotated.json,http://54.235.29.9/FacialAge/BNav_EC2/DepthDuration/v2_depth_duration_MTurk/v2_DepthDuration_HTML.html#341,341,1920,937,1920,1080,9-18-2022,11-14-13,9,depth_duration_stimuli/001052_2014-06-08_18-24-54_260595134347_rgbf000130-resize_1/001052_2014-06-08_18-24-54_260595134347_rgbf000130-resize_1-target.png,125,4.1045,8,2891,29,feet,jsons/VE125_randls_67_rotated.json,608880,941473,43,Woman
9,376542,DepthScenes,duration_manipulation_targetAtFixation,jsons/VE125_randls_67_rotated.json,http://54.235.29.9/FacialAge/BNav_EC2/DepthDuration/v2_depth_duration_MTurk/v2_DepthDuration_HTML.html#341,341,1920,937,1920,1080,9-18-2022,11-14-13,10,depth_duration_stimuli/002988_2014-06-15_12-24-20_094959634447_rgbf000150-resize_1/002988_2014-06-15_12-24-20_094959634447_rgbf000150-resize_1-target.png,125,4.7669999999999995,12,3061,123,feet,jsons/VE125_randls_67_rotated.json,608880,941473,43,Woman
10,376542,DepthScenes,duration_manipulation_targetAtFixation,jsons/VE125_randls_67_rotated.json,http://54.235.29.9/FacialAge/BNav_EC2/DepthDuration/v2_depth_duration_MTurk/v2_DepthDuration_HTML.html#341,341,1920,937,1920,1080,9-18-2022,11-14-13,11,depth_duration_stimuli/003129_2014-05-12_10-48-10_094959634447_rgbf000100-resize_0/003129_2014-05-12_10-48-10_094959634447_rgbf000100-resize_0-target.png,125,4.9305,6,3167,124,feet,jsons/VE125_randls_67_rotated.json,608880,941473,43,Woman
11,376542,DepthScenes,duration_manipulation_targetAtFixation,jsons/VE125_randls_67_rotated.json,http://54.235.29.9/FacialAge/BNav_EC2/DepthDuration/v2_depth_duration_MTurk/v2_DepthDuration_HTML.html#341,341,1920,937,1920,1080,9-18-2022,11-14-13,12,depth_duration_stimuli/000414_2014-06-04_19-49-13_260595134347_rgbf000044-resize_0/000414_2014-06-04_19-49-13_260595134347_rgbf000044-resize_0-target.png,125,4.329,10,3877,112,feet,jsons/VE125_randls_67_rotated.json,608880,941473,43,Woman
12,376542,DepthScenes,duration_manipulation_targetAtFixation,jsons/VE125_randls_67_rotated.json,http://54.235.29.9/FacialAge/BNav_EC2/DepthDuration/v2_depth_duration_MTurk/v2_DepthDuration_HTML.html#341,341,1920,937,1920,1080,9-18-2022,11-14-13,13,depth_duration_stimuli/003079_2014-06-15_15-18-20_094959634447_rgbf000152-resize_8/003079_2014-06-15_15-18-20_094959634447_rgbf000152-resize_8-target.png,125,2.8775,8,2911,181,feet,jsons/VE125_randls_67_rotated.json,608880,941473,43,Woman
13,376542,DepthScenes,duration_manipulation_targetAtFixation,jsons/VE125_randls_67_rotated.json,http://54.235.29.9/FacialAge/BNav_EC2/DepthDuration/v2_depth_duration_MTurk/v2_DepthDuration_HTML.html#341,341,1920,937,1920,1080,9-18-2022,11-14-13,14,depth_duration_stimuli/000506_2014-06-08_23-21-00_260595134347_rgbf000070-resize_7/000506_2014-06-08_23-21-00_260595134347_rgbf000070-resize_7-target.png,125,4.0585,6,3428,131,feet,jsons/VE125_randls_67_rotated.json,608880,941473,43,Woman
14,376542,DepthScenes,duration_manipulation_targetAtFixation,jsons/VE125_randls_67_rotated.json,http://54.235.29.9/FacialAge/BNav_EC2/DepthDuration/v2_depth_duration_MTurk/v2_DepthDuration_HTML.html#341,341,1920,937,1920,1080,9-18-2022,11-14-13,15,depth_duration_stimuli/000549_2014-06-08_22-10-24_260595134347_rgbf000247-resize_3/000549_2014-06-08_22-10-24_260595134347_rgbf000247-resize_3-target.png,125,1.841,3,2918,136,feet,jsons/VE125_randls_67_rotated.json,608880,941473,43,Woman
15,376542,DepthScenes,duration_manipulation_targetAtFixation,jsons/VE125_randls_67_rotated.json,http://54.235.29.9/FacialAge/BNav_EC2/DepthDuration/v2_depth_duration_MTurk/v2_DepthDuration_HTML.html#341,341,1920,937,1920,1080,9-18-2022,11-14-13,16,depth_duration_stimuli/001055_2014-06-08_18-45-35_260595134347_rgbf000111-resize_4/001055_2014-06-08_18-45-35_260595134347_rgbf000111-resize_4-target.png,125,2.4290000000000003,7,3412,95,feet,jsons/VE125_randls_67_rotated.json,608880,941473,43,Woman
16,376542,DepthScenes,duration_manipulation_targetAtFixation,jsons/VE125_randls_67_rotated.json,http://54.235.29.9/FacialAge/BNav_EC2/DepthDuration/v2_depth_duration_MTurk/v2_DepthDuration_HTML.html#341,341,1920,937,1920,1080,9-18-2022,11-14-13,17,depth_duration_stimuli/000409_2014-06-04_19-23-33_260595134347_rgbf000067-resize_0/000409_2014-06-04_19-23-33_260595134347_rgbf000067-resize_0-target.png,125,3.7335,8,4050,73,feet,jsons/VE125_randls_67_rotated.json,608880,941473,43,Woman
17,376542,DepthScenes,duration_manipulation_targetAtFixation,jsons/VE125_randls_67_rotated.json,http://54.235.29.9/FacialAge/BNav_EC2/DepthDuration/v2_depth_duration_MTurk/v2_DepthDuration_HTML.html#341,341,1920,937,1920,1080,9-18-2022,11-14-13,18,depth_duration_stimuli/002663_2014-06-13_15-50-26_094959634447_rgbf000075-resize_1/002663_2014-06-13_15-50-26_094959634447_rgbf000075-resize_1-target.png,125,4.7495,12,3637,122,feet,jsons/VE125_randls_67_rotated.json,608880,941473,43,Woman
18,376542,DepthScenes,duration_manipulation_targetAtFixation,jsons/VE125_randls_67_rotated.json,http://54.235.29.9/FacialAge/BNav_EC2/DepthDuration/v2_depth_duration_MTurk/v2_DepthDuration_HTML.html#341,341,1920,937,1920,1080,9-18-2022,11-14-13,19,depth_duration_stimuli/001498_2014-06-19_17-45-14_260595134347_rgbf000129-resize_4/001498_2014-06-19_17-45-14_260595134347_rgbf000129-resize-original.jpg,125,1.4075,0,2478,124,feet,jsons/VE125_randls_67_rotated.json,608880,941473,43,Woman
19,376542,DepthScenes,duration_manipulation_targetAtFixation,jsons/VE125_randls_67_rotated.json,http://54.235.29.9/FacialAge/BNav_EC2/DepthDuration/v2_depth_duration_MTurk/v2_DepthDuration_HTML.html#341,341,1920,937,1920,1080,9-18-2022,11-14-13,20,depth_duration_stimuli/002103_2014-06-25_20-00-40_260595134347_rgbf000049-resize_0/002103_2014-06-25_20-00-40_260595134347_rgbf000049-resize_0-target.png,125,4.105,5,3061,139,feet,jsons/VE125_randls_67_rotated.json,608880,941473,43,Woman
20,376542,DepthScenes,duration_manipulation_targetAtFixation,jsons/VE125_randls_67_rotated.json,http://54.235.29.9/FacialAge/BNav_EC2/DepthDuration/v2_depth_duration_MTurk/v2_DepthDuration_HTML.html#341,341,1920,937,1920,1080,9-18-2022,11-14-13,21,depth_duration_stimuli/002039_2014-06-24_20-22-38_260595134347_rgbf000084-resize_1/002039_2014-06-24_20-22-38_260595134347_rgbf000084-resize_1-target.png,125,4.408,9,6648,128,feet,jsons/VE125_randls_67_rotated.json,608880,941473,43,Woman
21,376542,DepthScenes,duration_manipulation_targetAtFixation,jsons/VE125_randls_67_rotated.json,http://54.235.29.9/FacialAge/BNav_EC2/DepthDuration/v2_depth_duration_MTurk/v2_DepthDuration_HTML.html#341,341,1920,937,1920,1080,9-18-2022,11-14-13,22,depth_duration_stimuli/000927_2014-06-09_16-32-30_260595134347_rgbf000123-resize_3/000927_2014-06-09_16-32-30_260595134347_rgbf000123-resize_3-target.png,125,2.6785,4,2793,125,feet,jsons/VE125_randls_67_rotated.json,608880,941473,43,Woman
22,376542,DepthScenes,duration_manipulation_targetAtFixation,jsons/VE125_randls_67_rotated.json,http://54.235.29.9/FacialAge/BNav_EC2/DepthDuration/v2_depth_duration_MTurk/v2_DepthDuration_HTML.html#341,341,1920,937,1920,1080,9-18-2022,11-14-13,23,depth_duration_stimuli/001110_2014-06-15_17-25-28_260595134347_rgbf000150-resize_1/001110_2014-06-15_17-25-28_260595134347_rgbf000150-resize_1-target.png,125,1.7115,2,2859,203,feet,jsons/VE125_randls_67_rotated.json,608880,941473,43,Woman
23,376542,DepthScenes,duration_manipulation_targetAtFixation,jsons/VE125_randls_67_rotated.json,http://54.235.29.9/FacialAge/BNav_EC2/DepthDuration/v2_depth_duration_MTurk/v2_DepthDuration_HTML.html#341,341,1920,937,1920,1080,9-18-2022,11-14-13,24,depth_duration_stimuli/000709_2014-06-08_13-51-55_260595134347_rgbf000068-resize_3/000709_2014-06-08_13-51-55_260595134347_rgbf000068-resize_3-target.png,125,1.8030000000000002,3,2716,71,feet,jsons/VE125_randls_67_rotated.json,608880,941473,43,Woman
24,376542,DepthScenes,duration_manipulation_targetAtFixation,jsons/VE125_randls_67_rotated.json,http://54.235.29.9/FacialAge/BNav_EC2/DepthDuration/v2_depth_duration_MTurk/v2_DepthDuration_HTML.html#341,341,1920,937,1920,1080,9-18-2022,11-14-13,25,depth_duration_stimuli/002057_2014-06-24_21-00-13_260595134347_rgbf000120-resize_1/002057_2014-06-24_21-00-13_260595134347_rgbf000120-resize_1-target.png,125,2.967,5,2588,122,feet,jsons/VE125_randls_67_rotated.json,608880,941473,43,Woman
25,376542,DepthScenes,duration_manipulation_targetAtFixation,jsons/VE125_randls_67_rotated.json,http://54.235.29.9/FacialAge/BNav_EC2/DepthDuration/v2_depth_duration_MTurk/v2_DepthDuration_HTML.html#341,341,1920,937,1920,1080,9-18-2022,11-14-13,26,depth_duration_stimuli/001100_2014-06-15_17-46-26_260595134347_rgbf000225-resize_2/001100_2014-06-15_17-46-26_260595134347_rgbf000225-resize_2-target.png,125,2.24,2,2829,112,feet,jsons/VE125_randls_67_rotated.json,608880,941473,43,Woman
26,376542,DepthScenes,duration_manipulation_targetAtFixation,jsons/VE125_randls_67_rotated.json,http://54.235.29.9/FacialAge/BNav_EC2/DepthDuration/v2_depth_duration_MTurk/v2_DepthDuration_HTML.html#341,341,1920,937,1920,1080,9-18-2022,11-14-13,27,depth_duration_stimuli/002784_2014-06-22_19-26-30_094959634447_rgbf000083-resize_3/002784_2014-06-22_19-26-30_094959634447_rgbf000083-resize_3-target.png,125,1.8046666666667,3,3614,121,feet,jsons/VE125_randls_67_rotated.json,608880,941473,43,Woman
27,376542,DepthScenes,duration_manipulation_targetAtFixation,jsons/VE125_randls_67_rotated.json,http://54.235.29.9/FacialAge/BNav_EC2/DepthDuration/v2_depth_duration_MTurk/v2_DepthDuration_HTML.html#341,341,1920,937,1920,1080,9-18-2022,11-14-13,28,depth_duration_stimuli/002995_2014-06-15_12-31-26_094959634447_rgbf000150-resize_1/002995_2014-06-15_12-31-26_094959634447_rgbf000150-resize_1-target.png,125,3.8360000000000003,5,2501,127,feet,jsons/VE125_randls_67_rotated.json,608880,941473,43,Woman
28,376542,DepthScenes,duration_manipulation_targetAtFixation,jsons/VE125_randls_67_rotated.json,http://54.235.29.9/FacialAge/BNav_EC2/DepthDuration/v2_depth_duration_MTurk/v2_DepthDuration_HTML.html#341,341,1920,937,1920,1080,9-18-2022,11-14-13,29,depth_duration_stimuli/002748_2014-06-22_19-07-22_094959634447_rgbf000078-resize_1/002748_2014-06-22_19-07-22_094959634447_rgbf000078-resize_1-target.png,125,4.6705,12,3304,130,feet,jsons/VE125_randls_67_rotated.json,608880,941473,43,Woman
29,376542,DepthScenes,duration_manipulation_targetAtFixation,jsons/VE125_randls_67_rotated.json,http://54.235.29.9/FacialAge/BNav_EC2/DepthDuration/v2_depth_duration_MTurk/v2_DepthDuration_HTML.html#341,341,1920,937,1920,1080,9-18-2022,11-14-13,30,depth_duration_stimuli/002072_2014-06-24_21-48-06_260595134347_rgbf000115-resize_0/002072_2014-06-24_21-48-06_260595134347_rgbf000115-resize-original.jpg,125,4.702,0,2323,105,feet,jsons/VE125_randls_67_rotated.json,608880,941473,43,Woman
30,376542,DepthScenes,duration_manipulation_targetAtFixation,jsons/VE125_randls_67_rotated.json,http://54.235.29.9/FacialAge/BNav_EC2/DepthDuration/v2_depth_duration_MTurk/v2_DepthDuration_HTML.html#341,341,1920,937,1920,1080,9-18-2022,11-14-13,31,depth_duration_stimuli/000677_2014-06-08_23-10-32_260595134347_rgbf000158-resize_6/000677_2014-06-08_23-10-32_260595134347_rgbf000158-resize_6-target.png,125,3.556,5,18841,77,feet,jsons/VE125_randls_67_rotated.json,608880,941473,43,Woman
31,376542,DepthScenes,duration_manipulation_targetAtFixation,jsons/VE125_randls_67_rotated.json,http://54.235.29.9/FacialAge/BNav_EC2/DepthDuration/v2_depth_duration_MTurk/v2_DepthDuration_HTML.html#341,341,1920,937,1920,1080,9-18-2022,11-14-13,32,depth_duration_stimuli/001029_2014-06-08_13-17-57_260595134347_rgbf000065-resize_1/001029_2014-06-08_13-17-57_260595134347_rgbf000065-resize_1-target.png,125,3.0835,7,3395,123,feet,jsons/VE125_randls_67_rotated.json,608880,941473,43,Woman
32,376542,DepthScenes,duration_manipulation_targetAtFixation,jsons/VE125_randls_67_rotated.json,http://54.235.29.9/FacialAge/BNav_EC2/DepthDuration/v2_depth_duration_MTurk/v2_DepthDuration_HTML.html#341,341,1920,937,1920,1080,9-18-2022,11-14-13,33,depth_duration_stimuli/002639_2014-06-24_14-51-37_094959634447_rgbf000074-resize_4/002639_2014-06-24_14-51-37_094959634447_rgbf000074-resize_4-target.png,125,4.0375,6,2921,118,feet,jsons/VE125_randls_67_rotated.json,608880,941473,43,Woman
33,376542,DepthScenes,duration_manipulation_targetAtFixation,jsons/VE125_randls_67_rotated.json,http://54.235.29.9/FacialAge/BNav_EC2/DepthDuration/v2_depth_duration_MTurk/v2_DepthDuration_HTML.html#341,341,1920,937,1920,1080,9-18-2022,11-14-13,34,depth_duration_stimuli/003292_2014-05-14_21-53-49_094959634447_rgbf000100-resize_2/003292_2014-05-14_21-53-49_094959634447_rgbf000100-resize_2-target.png,125,3.4815,5,3785,134,feet,jsons/VE125_randls_67_rotated.json,608880,941473,43,Woman
34,376542,DepthScenes,duration_manipulation_targetAtFixation,jsons/VE125_randls_67_rotated.json,http://54.235.29.9/FacialAge/BNav_EC2/DepthDuration/v2_depth_duration_MTurk/v2_DepthDuration_HTML.html#341,341,1920,937,1920,1080,9-18-2022,11-14-13,35,depth_duration_stimuli/001584_2014-06-20_11-07-43_260595134347_rgbf000002-resize_1/001584_2014-06-20_11-07-43_260595134347_rgbf000002-resize_1-target.png,125,3.53,3,2863,131,feet,jsons/VE125_randls_67_rotated.json,608880,941473,43,Woman
35,376542,DepthScenes,duration_manipulation_targetAtFixation,jsons/VE125_randls_67_rotated.json,http://54.235.29.9/FacialAge/BNav_EC2/DepthDuration/v2_depth_duration_MTurk/v2_DepthDuration_HTML.html#341,341,1920,937,1920,1080,9-18-2022,11-14-13,36,depth_duration_stimuli/003621_2014-05-23_18-06-08_094959634447_rgbf000101-resize_1/003621_2014-05-23_18-06-08_094959634447_rgbf000101-resize_1-target.png,125,3.9835,5,3380,141,feet,jsons/VE125_randls_67_rotated.json,608880,941473,43,Woman
36,376542,DepthScenes,duration_manipulation_targetAtFixation,jsons/VE125_randls_67_rotated.json,http://54.235.29.9/FacialAge/BNav_EC2/DepthDuration/v2_depth_duration_MTurk/v2_DepthDuration_HTML.html#341,341,1920,937,1920,1080,9-18-2022,11-14-13,37,depth_duration_stimuli/001516_2014-06-20_16-25-09_260595134347_rgbf000076-resize_2/001516_2014-06-20_16-25-09_260595134347_rgbf000076-resize_2-target.png,125,1.7445,6,2892,110,feet,jsons/VE125_randls_67_rotated.json,608880,941473,43,Woman
37,376542,DepthScenes,duration_manipulation_targetAtFixation,jsons/VE125_randls_67_rotated.json,http://54.235.29.9/FacialAge/BNav_EC2/DepthDuration/v2_depth_duration_MTurk/v2_DepthDuration_HTML.html#341,341,1920,937,1920,1080,9-18-2022,11-14-13,38,depth_duration_stimuli/002118_2014-06-25_20-32-08_260595134347_rgbf000078-resize_1/002118_2014-06-25_20-32-08_260595134347_rgbf000078-resize_1-target.png,125,2.6460000000000004,3,2712,140,feet,jsons/VE125_randls_67_rotated.json,608880,941473,43,Woman
38,376542,DepthScenes,duration_manipulation_targetAtFixation,jsons/VE125_randls_67_rotated.json,http://54.235.29.9/FacialAge/BNav_EC2/DepthDuration/v2_depth_duration_MTurk/v2_DepthDuration_HTML.html#341,341,1920,937,1920,1080,9-18-2022,11-14-13,39,depth_duration_stimuli/001815_2014-06-26_20-52-55_260595134347_rgbf000020-resize_0/001815_2014-06-26_20-52-55_260595134347_rgbf000020-resize_0-target.png,125,3.3865,5,3053,121,feet,jsons/VE125_randls_67_rotated.json,608880,941473,43,Woman
39,376542,DepthScenes,duration_manipulation_targetAtFixation,jsons/VE125_randls_67_rotated.json,http://54.235.29.9/FacialAge/BNav_EC2/DepthDuration/v2_depth_duration_MTurk/v2_DepthDuration_HTML.html#341,341,1920,937,1920,1080,9-18-2022,11-14-13,40,depth_duration_stimuli/001808_2014-06-26_20-50-58_260595134347_rgbf000029-resize_1/001808_2014-06-26_20-50-58_260595134347_rgbf000029-resize_1-target.png,125,4.249,8,4443,91,feet,jsons/VE125_randls_67_rotated.json,608880,941473,43,Woman
40,376542,DepthScenes,duration_manipulation_targetAtFixation,jsons/VE125_randls_67_rotated.json,http://54.235.29.9/FacialAge/BNav_EC2/DepthDuration/v2_depth_duration_MTurk/v2_DepthDuration_HTML.html#341,341,1920,937,1920,1080,9-18-2022,11-14-13,41,depth_duration_stimuli/001235_2014-06-17_16-37-36_260595134347_rgbf000084-resize_4/001235_2014-06-17_16-37-36_260595134347_rgbf000084-resize_4-target.png,125,3.6605,6,3451,116,feet,jsons/VE125_randls_67_rotated.json,608880,941473,43,Woman
41,376542,DepthScenes,duration_manipulation_targetAtFixation,jsons/VE125_randls_67_rotated.json,http://54.235.29.9/FacialAge/BNav_EC2/DepthDuration/v2_depth_duration_MTurk/v2_DepthDuration_HTML.html#341,341,1920,937,1920,1080,9-18-2022,11-14-13,42,depth_duration_stimuli/000788_2014-06-08_22-34-36_260595134347_rgbf000131-resize_1/000788_2014-06-08_22-34-36_260595134347_rgbf000131-resize_1-target.png,125,3.359,5,3092,120,feet,jsons/VE125_randls_67_rotated.json,608880,941473,43,Woman
42,376542,DepthScenes,duration_manipulation_targetAtFixation,jsons/VE125_randls_67_rotated.json,http://54.235.29.9/FacialAge/BNav_EC2/DepthDuration/v2_depth_duration_MTurk/v2_DepthDuration_HTML.html#341,341,1920,937,1920,1080,9-18-2022,11-14-13,43,depth_duration_stimuli/002568_2014-06-24_13-59-21_094959634447_rgbf000062-resize_4/002568_2014-06-24_13-59-21_094959634447_rgbf000062-resize_4-target.png,125,3.015,5,3291,138,feet,jsons/VE125_randls_67_rotated.json,608880,941473,43,Woman
43,376542,DepthScenes,duration_manipulation_targetAtFixation,jsons/VE125_randls_67_rotated.json,http://54.235.29.9/FacialAge/BNav_EC2/DepthDuration/v2_depth_duration_MTurk/v2_DepthDuration_HTML.html#341,341,1920,937,1920,1080,9-18-2022,11-14-13,44,depth_duration_stimuli/003492_2014-05-21_15-50-55_094959634447_rgbf000828-resize_1/003492_2014-05-21_15-50-55_094959634447_rgbf000828-resize_1-target.png,125,4.06875,7,5143,139,feet,jsons/VE125_randls_67_rotated.json,608880,941473,43,Woman
44,376542,DepthScenes,duration_manipulation_targetAtFixation,jsons/VE125_randls_67_rotated.json,http://54.235.29.9/FacialAge/BNav_EC2/DepthDuration/v2_depth_duration_MTurk/v2_DepthDuration_HTML.html#341,341,1920,937,1920,1080,9-18-2022,11-14-13,45,depth_duration_stimuli/000457_2014-06-08_16-52-43_260595134347_rgbf000199-resize_1/000457_2014-06-08_16-52-43_260595134347_rgbf000199-resize_1-target.png,125,3.6489999999999996,5,3181,112,feet,jsons/VE125_randls_67_rotated.json,608880,941473,43,Woman
45,376542,DepthScenes,duration_manipulation_targetAtFixation,jsons/VE125_randls_67_rotated.json,http://54.235.29.9/FacialAge/BNav_EC2/DepthDuration/v2_depth_duration_MTurk/v2_DepthDuration_HTML.html#341,341,1920,937,1920,1080,9-18-2022,11-14-13,46,depth_duration_stimuli/000929_2014-06-09_16-33-19_260595134347_rgbf000139-resize_0/000929_2014-06-09_16-33-19_260595134347_rgbf000139-resize_0-target.png,125,2.8680000000000003,8,2668,122,feet,jsons/VE125_randls_67_rotated.json,608880,941473,43,Woman
46,376542,DepthScenes,duration_manipulation_targetAtFixation,jsons/VE125_randls_67_rotated.json,http://54.235.29.9/FacialAge/BNav_EC2/DepthDuration/v2_depth_duration_MTurk/v2_DepthDuration_HTML.html#341,341,1920,937,1920,1080,9-18-2022,11-14-13,47,depth_duration_stimuli/000556_2014-06-09_22-42-56_260595134347_rgbf000214-resize_1/000556_2014-06-09_22-42-56_260595134347_rgbf000214-resize_1-target.png,125,4.8415,10,4040,135,feet,jsons/VE125_randls_67_rotated.json,608880,941473,43,Woman
47,376542,DepthScenes,duration_manipulation_targetAtFixation,jsons/VE125_randls_67_rotated.json,http://54.235.29.9/FacialAge/BNav_EC2/DepthDuration/v2_depth_duration_MTurk/v2_DepthDuration_HTML.html#341,341,1920,937,1920,1080,9-18-2022,11-14-13,48,depth_duration_stimuli/001158_2014-06-17_15-32-16_260595134347_rgbf000138-resize_2/001158_2014-06-17_15-32-16_260595134347_rgbf000138-resize_2-target.png,125,4.5315,14,3132,116,feet,jsons/VE125_randls_67_rotated.json,608880,941473,43,Woman
48,376542,DepthScenes,duration_manipulation_targetAtFixation,jsons/VE125_randls_67_rotated.json,http://54.235.29.9/FacialAge/BNav_EC2/DepthDuration/v2_depth_duration_MTurk/v2_DepthDuration_HTML.html#341,341,1920,937,1920,1080,9-18-2022,11-14-13,49,depth_duration_stimuli/001170_2014-06-17_15-43-44_260595134347_rgbf000096-resize_6/001170_2014-06-17_15-43-44_260595134347_rgbf000096-resize-original.jpg,125,1.1909999999999998,0,1929,132,feet,jsons/VE125_randls_67_rotated.json,608880,941473,43,Woman
49,376542,DepthScenes,duration_manipulation_targetAtFixation,jsons/VE125_randls_67_rotated.json,http://54.235.29.9/FacialAge/BNav_EC2/DepthDuration/v2_depth_duration_MTurk/v2_DepthDuration_HTML.html#341,341,1920,937,1920,1080,9-18-2022,11-14-13,50,depth_duration_stimuli/000103_2014-05-14_22-01-17_260595134347_rgbf000152-resize_5/000103_2014-05-14_22-01-17_260595134347_rgbf000152-resize_5-target.png,125,1.993,5,2496,59,feet,jsons/VE125_randls_67_rotated.json,608880,941473,43,Woman
50,376542,DepthScenes,duration_manipulation_targetAtFixation,jsons/VE125_randls_67_rotated.json,http://54.235.29.9/FacialAge/BNav_EC2/DepthDuration/v2_depth_duration_MTurk/v2_DepthDuration_HTML.html#341,341,1920,937,1920,1080,9-18-2022,11-14-13,51,depth_duration_stimuli/001555_2014-06-20_17-12-10_260595134347_rgbf000065-resize_4/001555_2014-06-20_17-12-10_260595134347_rgbf000065-resize_4-target.png,125,1.633,2,2662,116,feet,jsons/VE125_randls_67_rotated.json,608880,941473,43,Woman
51,376542,DepthScenes,duration_manipulation_targetAtFixation,jsons/VE125_randls_67_rotated.json,http://54.235.29.9/FacialAge/BNav_EC2/DepthDuration/v2_depth_duration_MTurk/v2_DepthDuration_HTML.html#341,341,1920,937,1920,1080,9-18-2022,11-14-13,52,depth_duration_stimuli/003083_2014-06-15_15-21-03_094959634447_rgbf000063-resize_1/003083_2014-06-15_15-21-03_094959634447_rgbf000063-resize_1-target.png,125,4.1405,8,3517,113,feet,jsons/VE125_randls_67_rotated.json,608880,941473,43,Woman
52,376542,DepthScenes,duration_manipulation_targetAtFixation,jsons/VE125_randls_67_rotated.json,http://54.235.29.9/FacialAge/BNav_EC2/DepthDuration/v2_depth_duration_MTurk/v2_DepthDuration_HTML.html#341,341,1920,937,1920,1080,9-18-2022,11-14-13,53,depth_duration_stimuli/000486_2014-06-09_20-47-20_260595134347_rgbf000143-resize_2/000486_2014-06-09_20-47-20_260595134347_rgbf000143-resize_2-target.png,125,4.8325,8,2504,118,feet,jsons/VE125_randls_67_rotated.json,608880,941473,43,Woman
53,376542,DepthScenes,duration_manipulation_targetAtFixation,jsons/VE125_randls_67_rotated.json,http://54.235.29.9/FacialAge/BNav_EC2/DepthDuration/v2_depth_duration_MTurk/v2_DepthDuration_HTML.html#341,341,1920,937,1920,1080,9-18-2022,11-14-13,54,depth_duration_stimuli/000635_2014-06-08_16-38-42_260595134347_rgbf000106-resize_1/000635_2014-06-08_16-38-42_260595134347_rgbf000106-resize_1-target.png,125,2.074,9,2912,115,feet,jsons/VE125_randls_67_rotated.json,608880,941473,43,Woman
54,376542,DepthScenes,duration_manipulation_targetAtFixation,jsons/VE125_randls_67_rotated.json,http://54.235.29.9/FacialAge/BNav_EC2/DepthDuration/v2_depth_duration_MTurk/v2_DepthDuration_HTML.html#341,341,1920,937,1920,1080,9-18-2022,11-14-13,55,depth_duration_stimuli/002279_2014-06-28_18-55-32_260595134347_rgbf000040-resize_5/002279_2014-06-28_18-55-32_260595134347_rgbf000040-resize_5-target.png,125,1.5043333333333,2,2575,165,feet,jsons/VE125_randls_67_rotated.json,608880,941473,43,Woman
55,376542,DepthScenes,duration_manipulation_targetAtFixation,jsons/VE125_randls_67_rotated.json,http://54.235.29.9/FacialAge/BNav_EC2/DepthDuration/v2_depth_duration_MTurk/v2_DepthDuration_HTML.html#341,341,1920,937,1920,1080,9-18-2022,11-14-13,56,depth_duration_stimuli/002875_2014-06-01_15-19-00_094959634447_rgbf000151-resize_1/002875_2014-06-01_15-19-00_094959634447_rgbf000151-resize_1-target.png,125,1.9675,6,2699,112,feet,jsons/VE125_randls_67_rotated.json,608880,941473,43,Woman
56,376542,DepthScenes,duration_manipulation_targetAtFixation,jsons/VE125_randls_67_rotated.json,http://54.235.29.9/FacialAge/BNav_EC2/DepthDuration/v2_depth_duration_MTurk/v2_DepthDuration_HTML.html#341,341,1920,937,1920,1080,9-18-2022,11-14-13,57,depth_duration_stimuli/001011_2014-06-08_23-18-54_260595134347_rgbf000044-resize_4/001011_2014-06-08_23-18-54_260595134347_rgbf000044-resize_4-target.png,125,2.4730000000000003,7,2913,120,feet,jsons/VE125_randls_67_rotated.json,608880,941473,43,Woman
57,376542,DepthScenes,duration_manipulation_targetAtFixation,jsons/VE125_randls_67_rotated.json,http://54.235.29.9/FacialAge/BNav_EC2/DepthDuration/v2_depth_duration_MTurk/v2_DepthDuration_HTML.html#341,341,1920,937,1920,1080,9-18-2022,11-14-13,58,depth_duration_stimuli/002750_2014-06-22_19-08-03_094959634447_rgbf000094-resize_4/002750_2014-06-22_19-08-03_094959634447_rgbf000094-resize_4-target.png,125,2.354,5,3138,125,feet,jsons/VE125_randls_67_rotated.json,608880,941473,43,Woman
58,376542,DepthScenes,duration_manipulation_targetAtFixation,jsons/VE125_randls_67_rotated.json,http://54.235.29.9/FacialAge/BNav_EC2/DepthDuration/v2_depth_duration_MTurk/v2_DepthDuration_HTML.html#341,341,1920,937,1920,1080,9-18-2022,11-14-13,59,depth_duration_stimuli/002549_2014-06-24_13-41-39_094959634447_rgbf000022-resize_3/002549_2014-06-24_13-41-39_094959634447_rgbf000022-resize_3-target.png,125,1.476,3,2848,120,feet,jsons/VE125_randls_67_rotated.json,608880,941473,43,Woman
59,376542,DepthScenes,duration_manipulation_targetAtFixation,jsons/VE125_randls_67_rotated.json,http://54.235.29.9/FacialAge/BNav_EC2/DepthDuration/v2_depth_duration_MTurk/v2_DepthDuration_HTML.html#341,341,1920,937,1920,1080,9-18-2022,11-14-13,60,depth_duration_stimuli/003423_2014-05-21_10-23-26_094959634447_rgbf002665-resize_2/003423_2014-05-21_10-23-26_094959634447_rgbf002665-resize_2-target.png,125,3.2575,8,2804,121,feet,jsons/VE125_randls_67_rotated.json,608880,941473,43,Woman
60,376542,DepthScenes,duration_manipulation_targetAtFixation,jsons/VE125_randls_67_rotated.json,http://54.235.29.9/FacialAge/BNav_EC2/DepthDuration/v2_depth_duration_MTurk/v2_DepthDuration_HTML.html#341,341,1920,937,1920,1080,9-18-2022,11-14-13,61,depth_duration_stimuli/002905_2014-06-03_18-04-43_094959634447_rgbf000151-resize_2/002905_2014-06-03_18-04-43_094959634447_rgbf000151-resize_2-target.png,125,2.0295,4,2836,132,feet,jsons/VE125_randls_67_rotated.json,608880,941473,43,Woman
61,376542,DepthScenes,duration_manipulation_targetAtFixation,jsons/VE125_randls_67_rotated.json,http://54.235.29.9/FacialAge/BNav_EC2/DepthDuration/v2_depth_duration_MTurk/v2_DepthDuration_HTML.html#341,341,1920,937,1920,1080,9-18-2022,11-14-13,62,depth_duration_stimuli/002425_2014-06-28_20-27-29_260595134347_rgbf000031-resize_8/002425_2014-06-28_20-27-29_260595134347_rgbf000031-resize_8-target.png,125,3.8960000000000004,6,2958,132,feet,jsons/VE125_randls_67_rotated.json,608880,941473,43,Woman
62,376542,DepthScenes,duration_manipulation_targetAtFixation,jsons/VE125_randls_67_rotated.json,http://54.235.29.9/FacialAge/BNav_EC2/DepthDuration/v2_depth_duration_MTurk/v2_DepthDuration_HTML.html#341,341,1920,937,1920,1080,9-18-2022,11-14-13,63,depth_duration_stimuli/000642_2014-06-08_16-59-25_260595134347_rgbf000098-resize_2/000642_2014-06-08_16-59-25_260595134347_rgbf000098-resize_2-target.png,125,2.8815,5,2714,128,feet,jsons/VE125_randls_67_rotated.json,608880,941473,43,Woman
63,376542,DepthScenes,duration_manipulation_targetAtFixation,jsons/VE125_randls_67_rotated.json,http://54.235.29.9/FacialAge/BNav_EC2/DepthDuration/v2_depth_duration_MTurk/v2_DepthDuration_HTML.html#341,341,1920,937,1920,1080,9-18-2022,11-14-13,64,depth_duration_stimuli/001571_2014-06-20_17-21-32_260595134347_rgbf000089-resize_1/001571_2014-06-20_17-21-32_260595134347_rgbf000089-resize_1-target.png,125,1.86,2,2700,60,feet,jsons/VE125_randls_67_rotated.json,608880,941473,43,Woman
64,376542,DepthScenes,duration_manipulation_targetAtFixation,jsons/VE125_randls_67_rotated.json,http://54.235.29.9/FacialAge/BNav_EC2/DepthDuration/v2_depth_duration_MTurk/v2_DepthDuration_HTML.html#341,341,1920,937,1920,1080,9-18-2022,11-14-13,65,depth_duration_stimuli/002272_2014-06-28_18-53-56_260595134347_rgbf000067-resize_2/002272_2014-06-28_18-53-56_260595134347_rgbf000067-resize_2-target.png,125,1.138,3,2127,115,feet,jsons/VE125_randls_67_rotated.json,608880,941473,43,Woman
65,376542,DepthScenes,duration_manipulation_targetAtFixation,jsons/VE125_randls_67_rotated.json,http://54.235.29.9/FacialAge/BNav_EC2/DepthDuration/v2_depth_duration_MTurk/v2_DepthDuration_HTML.html#341,341,1920,937,1920,1080,9-18-2022,11-14-13,66,depth_duration_stimuli/001540_2014-06-20_17-01-05_260595134347_rgbf000086-resize_2/001540_2014-06-20_17-01-05_260595134347_rgbf000086-resize-original.jpg,125,1.459,0,2062,130,feet,jsons/VE125_randls_67_rotated.json,608880,941473,43,Woman
66,376542,DepthScenes,duration_manipulation_targetAtFixation,jsons/VE125_randls_67_rotated.json,http://54.235.29.9/FacialAge/BNav_EC2/DepthDuration/v2_depth_duration_MTurk/v2_DepthDuration_HTML.html#341,341,1920,937,1920,1080,9-18-2022,11-14-13,67,depth_duration_stimuli/002949_2014-06-26_15-57-42_094959634447_rgbf000079-resize_1/002949_2014-06-26_15-57-42_094959634447_rgbf000079-resize_1-target.png,125,1.8915,4,3120,130,feet,jsons/VE125_randls_67_rotated.json,608880,941473,43,Woman
67,376542,DepthScenes,duration_manipulation_targetAtFixation,jsons/VE125_randls_67_rotated.json,http://54.235.29.9/FacialAge/BNav_EC2/DepthDuration/v2_depth_duration_MTurk/v2_DepthDuration_HTML.html#341,341,1920,937,1920,1080,9-18-2022,11-14-13,68,depth_duration_stimuli/000522_2014-06-08_13-35-06_260595134347_rgbf000244-resize_1/000522_2014-06-08_13-35-06_260595134347_rgbf000244-resize_1-target.png,125,2.3715,2,4285,121,feet,jsons/VE125_randls_67_rotated.json,608880,941473,43,Woman
68,376542,DepthScenes,duration_manipulation_targetAtFixation,jsons/VE125_randls_67_rotated.json,http://54.235.29.9/FacialAge/BNav_EC2/DepthDuration/v2_depth_duration_MTurk/v2_DepthDuration_HTML.html#341,341,1920,937,1920,1080,9-18-2022,11-14-13,69,depth_duration_stimuli/002444_2014-06-28_20-32-08_260595134347_rgbf000027-resize_0/002444_2014-06-28_20-32-08_260595134347_rgbf000027-resize_0-target.png,125,4.388999999999999,8,3469,168,feet,jsons/VE125_randls_67_rotated.json,608880,941473,43,Woman
69,376542,DepthScenes,duration_manipulation_targetAtFixation,jsons/VE125_randls_67_rotated.json,http://54.235.29.9/FacialAge/BNav_EC2/DepthDuration/v2_depth_duration_MTurk/v2_DepthDuration_HTML.html#341,341,1920,937,1920,1080,9-18-2022,11-14-13,70,depth_duration_stimuli/000436_2014-06-09_22-25-11_260595134347_rgbf000137-resize_1/000436_2014-06-09_22-25-11_260595134347_rgbf000137-resize_1-target.png,125,4.0705,12,3393,124,feet,jsons/VE125_randls_67_rotated.json,608880,941473,43,Woman
70,376542,DepthScenes,duration_manipulation_targetAtFixation,jsons/VE125_randls_67_rotated.json,http://54.235.29.9/FacialAge/BNav_EC2/DepthDuration/v2_depth_duration_MTurk/v2_DepthDuration_HTML.html#341,341,1920,937,1920,1080,9-18-2022,11-14-13,71,depth_duration_stimuli/002953_2014-06-08_17-32-18_094959634447_rgbf000059-resize_5/002953_2014-06-08_17-32-18_094959634447_rgbf000059-resize_5-target.png,125,1.551,4,2803,122,feet,jsons/VE125_randls_67_rotated.json,608880,941473,43,Woman
71,376542,DepthScenes,duration_manipulation_targetAtFixation,jsons/VE125_randls_67_rotated.json,http://54.235.29.9/FacialAge/BNav_EC2/DepthDuration/v2_depth_duration_MTurk/v2_DepthDuration_HTML.html#341,341,1920,937,1920,1080,9-18-2022,11-14-13,72,depth_duration_stimuli/000878_2014-06-08_22-52-45_260595134347_rgbf000045-resize_2/000878_2014-06-08_22-52-45_260595134347_rgbf000045-resize_2-target.png,125,2.092,5,3221,132,feet,jsons/VE125_randls_67_rotated.json,608880,941473,43,Woman
72,376542,DepthScenes,duration_manipulation_targetAtFixation,jsons/VE125_randls_67_rotated.json,http://54.235.29.9/FacialAge/BNav_EC2/DepthDuration/v2_depth_duration_MTurk/v2_DepthDuration_HTML.html#341,341,1920,937,1920,1080,9-18-2022,11-14-13,73,depth_duration_stimuli/000691_2014-06-08_13-08-50_260595134347_rgbf000132-resize_3/000691_2014-06-08_13-08-50_260595134347_rgbf000132-resize_3-target.png,125,4.1530000000000005,11,3024,171,feet,jsons/VE125_randls_67_rotated.json,608880,941473,43,Woman
73,376542,DepthScenes,duration_manipulation_targetAtFixation,jsons/VE125_randls_67_rotated.json,http://54.235.29.9/FacialAge/BNav_EC2/DepthDuration/v2_depth_duration_MTurk/v2_DepthDuration_HTML.html#341,341,1920,937,1920,1080,9-18-2022,11-14-13,74,depth_duration_stimuli/002213_2014-06-28_18-37-58_260595134347_rgbf000055-resize_1/002213_2014-06-28_18-37-58_260595134347_rgbf000055-resize_1-target.png,125,3.62,10,3088,85,feet,jsons/VE125_randls_67_rotated.json,608880,941473,43,Woman
74,376542,DepthScenes,duration_manipulation_targetAtFixation,jsons/VE125_randls_67_rotated.json,http://54.235.29.9/FacialAge/BNav_EC2/DepthDuration/v2_depth_duration_MTurk/v2_DepthDuration_HTML.html#341,341,1920,937,1920,1080,9-18-2022,11-14-13,75,depth_duration_stimuli/003338_2014-05-20_11-01-23_094959634447_rgbf000051-resize_6/003338_2014-05-20_11-01-23_094959634447_rgbf000051-resize_6-target.png,125,1.693,2,3503,120,feet,jsons/VE125_randls_67_rotated.json,608880,941473,43,Woman
75,376542,DepthScenes,duration_manipulation_targetAtFixation,jsons/VE125_randls_67_rotated.json,http://54.235.29.9/FacialAge/BNav_EC2/DepthDuration/v2_depth_duration_MTurk/v2_DepthDuration_HTML.html#341,341,1920,937,1920,1080,9-18-2022,11-14-13,76,depth_duration_stimuli/002509_2014-06-24_13-19-22_094959634447_rgbf000077-resize_0/002509_2014-06-24_13-19-22_094959634447_rgbf000077-resize_0-target.png,125,1.3065,2,2148,120,feet,jsons/VE125_randls_67_rotated.json,608880,941473,43,Woman
76,376542,DepthScenes,duration_manipulation_targetAtFixation,jsons/VE125_randls_67_rotated.json,http://54.235.29.9/FacialAge/BNav_EC2/DepthDuration/v2_depth_duration_MTurk/v2_DepthDuration_HTML.html#341,341,1920,937,1920,1080,9-18-2022,11-14-13,77,depth_duration_stimuli/001617_2014-06-20_11-35-32_260595134347_rgbf000066-resize_1/001617_2014-06-20_11-35-32_260595134347_rgbf000066-resize_1-target.png,125,3.7910000000000004,7,3797,123,feet,jsons/VE125_randls_67_rotated.json,608880,941473,43,Woman
77,376542,DepthScenes,duration_manipulation_targetAtFixation,jsons/VE125_randls_67_rotated.json,http://54.235.29.9/FacialAge/BNav_EC2/DepthDuration/v2_depth_duration_MTurk/v2_DepthDuration_HTML.html#341,341,1920,937,1920,1080,9-18-2022,11-14-13,78,depth_duration_stimuli/001806_2014-06-26_20-50-20_260595134347_rgbf000091-resize_1/001806_2014-06-26_20-50-20_260595134347_rgbf000091-resize_1-target.png,125,2.7305,4,3108,126,feet,jsons/VE125_randls_67_rotated.json,608880,941473,43,Woman
78,376542,DepthScenes,duration_manipulation_targetAtFixation,jsons/VE125_randls_67_rotated.json,http://54.235.29.9/FacialAge/BNav_EC2/DepthDuration/v2_depth_duration_MTurk/v2_DepthDuration_HTML.html#341,341,1920,937,1920,1080,9-18-2022,11-14-13,79,depth_duration_stimuli/000665_2014-06-09_20-42-35_260595134347_rgbf000110-resize_1/000665_2014-06-09_20-42-35_260595134347_rgbf000110-resize_1-target.png,125,3.057,7,3382,230,feet,jsons/VE125_randls_67_rotated.json,608880,941473,43,Woman
79,376542,DepthScenes,duration_manipulation_targetAtFixation,jsons/VE125_randls_67_rotated.json,http://54.235.29.9/FacialAge/BNav_EC2/DepthDuration/v2_depth_duration_MTurk/v2_DepthDuration_HTML.html#341,341,1920,937,1920,1080,9-18-2022,11-14-13,80,depth_duration_stimuli/001150_2014-06-17_15-27-34_260595134347_rgbf000108-resize_2/001150_2014-06-17_15-27-34_260595134347_rgbf000108-resize_2-target.png,125,4.0325,3,2767,119,feet,jsons/VE125_randls_67_rotated.json,608880,941473,43,Woman
80,376542,DepthScenes,duration_manipulation_targetAtFixation,jsons/VE125_randls_67_rotated.json,http://54.235.29.9/FacialAge/BNav_EC2/DepthDuration/v2_depth_duration_MTurk/v2_DepthDuration_HTML.html#341,341,1920,937,1920,1080,9-18-2022,11-14-13,81,depth_duration_stimuli/001214_2014-06-17_16-13-55_260595134347_rgbf000111-resize_0/001214_2014-06-17_16-13-55_260595134347_rgbf000111-resize_0-target.png,125,2.6505,5,3505,119,feet,jsons/VE125_randls_67_rotated.json,608880,941473,43,Woman
81,376542,DepthScenes,duration_manipulation_targetAtFixation,jsons/VE125_randls_67_rotated.json,http://54.235.29.9/FacialAge/BNav_EC2/DepthDuration/v2_depth_duration_MTurk/v2_DepthDuration_HTML.html#341,341,1920,937,1920,1080,9-18-2022,11-14-13,82,depth_duration_stimuli/000810_2014-06-08_17-20-01_260595134347_rgbf000105-resize_0/000810_2014-06-08_17-20-01_260595134347_rgbf000105-resize_0-target.png,125,1.4865,4,5290,150,feet,jsons/VE125_randls_67_rotated.json,608880,941473,43,Woman
82,376542,DepthScenes,duration_manipulation_targetAtFixation,jsons/VE125_randls_67_rotated.json,http://54.235.29.9/FacialAge/BNav_EC2/DepthDuration/v2_depth_duration_MTurk/v2_DepthDuration_HTML.html#341,341,1920,937,1920,1080,9-18-2022,11-14-13,83,depth_duration_stimuli/000749_2014-06-08_21-55-06_260595134347_rgbf000070-resize_2/000749_2014-06-08_21-55-06_260595134347_rgbf000070-resize_2-target.png,125,2.331,5,3099,129,feet,jsons/VE125_randls_67_rotated.json,608880,941473,43,Woman
83,376542,DepthScenes,duration_manipulation_targetAtFixation,jsons/VE125_randls_67_rotated.json,http://54.235.29.9/FacialAge/BNav_EC2/DepthDuration/v2_depth_duration_MTurk/v2_DepthDuration_HTML.html#341,341,1920,937,1920,1080,9-18-2022,11-14-13,84,depth_duration_stimuli/002788_2014-06-22_19-36-03_094959634447_rgbf000088-resize_2/002788_2014-06-22_19-36-03_094959634447_rgbf000088-resize_2-target.png,125,1.6465,3,6199,122,feet,jsons/VE125_randls_67_rotated.json,608880,941473,43,Woman
84,376542,DepthScenes,duration_manipulation_targetAtFixation,jsons/VE125_randls_67_rotated.json,http://54.235.29.9/FacialAge/BNav_EC2/DepthDuration/v2_depth_duration_MTurk/v2_DepthDuration_HTML.html#341,341,1920,937,1920,1080,9-18-2022,11-14-13,85,depth_duration_stimuli/000780_2014-06-08_22-28-29_260595134347_rgbf000126-resize_1/000780_2014-06-08_22-28-29_260595134347_rgbf000126-resize_1-target.png,125,3.3825,8,2849,126,feet,jsons/VE125_randls_67_rotated.json,608880,941473,43,Woman
85,376542,DepthScenes,duration_manipulation_targetAtFixation,jsons/VE125_randls_67_rotated.json,http://54.235.29.9/FacialAge/BNav_EC2/DepthDuration/v2_depth_duration_MTurk/v2_DepthDuration_HTML.html#341,341,1920,937,1920,1080,9-18-2022,11-14-13,86,depth_duration_stimuli/002445_2014-06-28_20-32-16_260595134347_rgbf000029-resize_4/002445_2014-06-28_20-32-16_260595134347_rgbf000029-resize_4-target.png,125,2.5315,3,2408,122,feet,jsons/VE125_randls_67_rotated.json,608880,941473,43,Woman
86,376542,DepthScenes,duration_manipulation_targetAtFixation,jsons/VE125_randls_67_rotated.json,http://54.235.29.9/FacialAge/BNav_EC2/DepthDuration/v2_depth_duration_MTurk/v2_DepthDuration_HTML.html#341,341,1920,937,1920,1080,9-18-2022,11-14-13,87,depth_duration_stimuli/001450_2014-06-19_17-02-03_260595134347_rgbf000203-resize_4/001450_2014-06-19_17-02-03_260595134347_rgbf000203-resize_4-target.png,125,4.0106666666667,9,2697,131,feet,jsons/VE125_randls_67_rotated.json,608880,941473,43,Woman
87,376542,DepthScenes,duration_manipulation_targetAtFixation,jsons/VE125_randls_67_rotated.json,http://54.235.29.9/FacialAge/BNav_EC2/DepthDuration/v2_depth_duration_MTurk/v2_DepthDuration_HTML.html#341,341,1920,937,1920,1080,9-18-2022,11-14-13,88,depth_duration_stimuli/001449_2014-06-19_17-01-27_260595134347_rgbf000116-resize_2/001449_2014-06-19_17-01-27_260595134347_rgbf000116-resize_2-target.png,125,3.452,7,2841,127,feet,jsons/VE125_randls_67_rotated.json,608880,941473,43,Woman
88,376542,DepthScenes,duration_manipulation_targetAtFixation,jsons/VE125_randls_67_rotated.json,http://54.235.29.9/FacialAge/BNav_EC2/DepthDuration/v2_depth_duration_MTurk/v2_DepthDuration_HTML.html#341,341,1920,937,1920,1080,9-18-2022,11-14-13,89,depth_duration_stimuli/002758_2014-06-22_19-11-20_094959634447_rgbf000128-resize_1/002758_2014-06-22_19-11-20_094959634447_rgbf000128-resize_1-target.png,125,2.555,5,2493,75,feet,jsons/VE125_randls_67_rotated.json,608880,941473,43,Woman
89,376542,DepthScenes,duration_manipulation_targetAtFixation,jsons/VE125_randls_67_rotated.json,http://54.235.29.9/FacialAge/BNav_EC2/DepthDuration/v2_depth_duration_MTurk/v2_DepthDuration_HTML.html#341,341,1920,937,1920,1080,9-18-2022,11-14-13,90,depth_duration_stimuli/002630_2014-06-24_14-47-50_094959634447_rgbf000055-resize_1/002630_2014-06-24_14-47-50_094959634447_rgbf000055-resize_1-target.png,125,3.0095,10,2712,104,feet,jsons/VE125_randls_67_rotated.json,608880,941473,43,Woman
90,376542,DepthScenes,duration_manipulation_targetAtFixation,jsons/VE125_randls_67_rotated.json,http://54.235.29.9/FacialAge/BNav_EC2/DepthDuration/v2_depth_duration_MTurk/v2_DepthDuration_HTML.html#341,341,1920,937,1920,1080,9-18-2022,11-14-13,91,depth_duration_stimuli/002545_2014-06-24_13-38-53_094959634447_rgbf000080-resize_4/002545_2014-06-24_13-38-53_094959634447_rgbf000080-resize_4-target.png,125,1.9205,6,2894,128,feet,jsons/VE125_randls_67_rotated.json,608880,941473,43,Woman
91,376542,DepthScenes,duration_manipulation_targetAtFixation,jsons/VE125_randls_67_rotated.json,http://54.235.29.9/FacialAge/BNav_EC2/DepthDuration/v2_depth_duration_MTurk/v2_DepthDuration_HTML.html#341,341,1920,937,1920,1080,9-18-2022,11-14-13,92,depth_duration_stimuli/001092_2014-06-15_17-34-58_260595134347_rgbf000171-resize_3/001092_2014-06-15_17-34-58_260595134347_rgbf000171-resize_3-target.png,125,2.6935,3,2400,66,feet,jsons/VE125_randls_67_rotated.json,608880,941473,43,Woman
92,376542,DepthScenes,duration_manipulation_targetAtFixation,jsons/VE125_randls_67_rotated.json,http://54.235.29.9/FacialAge/BNav_EC2/DepthDuration/v2_depth_duration_MTurk/v2_DepthDuration_HTML.html#341,341,1920,937,1920,1080,9-18-2022,11-14-13,93,depth_duration_stimuli/001392_2014-06-19_16-07-59_260595134347_rgbf000046-resize_1/001392_2014-06-19_16-07-59_260595134347_rgbf000046-resize_1-target.png,125,4.135,8,2682,138,feet,jsons/VE125_randls_67_rotated.json,608880,941473,43,Woman
93,376542,DepthScenes,duration_manipulation_targetAtFixation,jsons/VE125_randls_67_rotated.json,http://54.235.29.9/FacialAge/BNav_EC2/DepthDuration/v2_depth_duration_MTurk/v2_DepthDuration_HTML.html#341,341,1920,937,1920,1080,9-18-2022,11-14-13,94,depth_duration_stimuli/001570_2014-06-20_17-21-09_260595134347_rgbf000135-resize_4/001570_2014-06-20_17-21-09_260595134347_rgbf000135-resize_4-target.png,125,4.467,14,2853,130,feet,jsons/VE125_randls_67_rotated.json,608880,941473,43,Woman
94,376542,DepthScenes,duration_manipulation_targetAtFixation,jsons/VE125_randls_67_rotated.json,http://54.235.29.9/FacialAge/BNav_EC2/DepthDuration/v2_depth_duration_MTurk/v2_DepthDuration_HTML.html#341,341,1920,937,1920,1080,9-18-2022,11-14-13,95,depth_duration_stimuli/003490_2014-05-21_15-50-11_094959634447_rgbf000101-resize_3/003490_2014-05-21_15-50-11_094959634447_rgbf000101-resize_3-target.png,125,3.6445,8,2459,48,feet,jsons/VE125_randls_67_rotated.json,608880,941473,43,Woman
95,376542,DepthScenes,duration_manipulation_targetAtFixation,jsons/VE125_randls_67_rotated.json,http://54.235.29.9/FacialAge/BNav_EC2/DepthDuration/v2_depth_duration_MTurk/v2_DepthDuration_HTML.html#341,341,1920,937,1920,1080,9-18-2022,11-14-13,96,depth_duration_stimuli/001175_2014-06-17_15-45-55_260595134347_rgbf000129-resize_4/001175_2014-06-17_15-45-55_260595134347_rgbf000129-resize_4-target.png,125,4.255,12,3200,125,feet,jsons/VE125_randls_67_rotated.json,608880,941473,43,Woman
96,376542,DepthScenes,duration_manipulation_targetAtFixation,jsons/VE125_randls_67_rotated.json,http://54.235.29.9/FacialAge/BNav_EC2/DepthDuration/v2_depth_duration_MTurk/v2_DepthDuration_HTML.html#341,341,1920,937,1920,1080,9-18-2022,11-14-13,97,depth_duration_stimuli/002637_2014-06-24_14-51-13_094959634447_rgbf000066-resize_4/002637_2014-06-24_14-51-13_094959634447_rgbf000066-resize_4-target.png,125,1.9955,5,2492,123,feet,jsons/VE125_randls_67_rotated.json,608880,941473,43,Woman
97,376542,DepthScenes,duration_manipulation_targetAtFixation,jsons/VE125_randls_67_rotated.json,http://54.235.29.9/FacialAge/BNav_EC2/DepthDuration/v2_depth_duration_MTurk/v2_DepthDuration_HTML.html#341,341,1920,937,1920,1080,9-18-2022,11-14-13,98,depth_duration_stimuli/003534_2014-05-22_15-06-10_094959634447_rgbf000102-resize_4/003534_2014-05-22_15-06-10_094959634447_rgbf000102-resize_4-target.png,125,1.426,2,2589,128,feet,jsons/VE125_randls_67_rotated.json,608880,941473,43,Woman
98,376542,DepthScenes,duration_manipulation_targetAtFixation,jsons/VE125_randls_67_rotated.json,http://54.235.29.9/FacialAge/BNav_EC2/DepthDuration/v2_depth_duration_MTurk/v2_DepthDuration_HTML.html#341,341,1920,937,1920,1080,9-18-2022,11-14-13,99,depth_duration_stimuli/001222_2014-06-17_16-24-06_260595134347_rgbf000073-resize_0/001222_2014-06-17_16-24-06_260595134347_rgbf000073-resize-original.jpg,125,1.4385,0,2239,79,feet,jsons/VE125_randls_67_rotated.json,608880,941473,43,Woman
99,376542,DepthScenes,duration_manipulation_targetAtFixation,jsons/VE125_randls_67_rotated.json,http://54.235.29.9/FacialAge/BNav_EC2/DepthDuration/v2_depth_duration_MTurk/v2_DepthDuration_HTML.html#341,341,1920,937,1920,1080,9-18-2022,11-14-13,100,depth_duration_stimuli/000734_2014-06-08_17-39-11_260595134347_rgbf000128-resize_2/000734_2014-06-08_17-39-11_260595134347_rgbf000128-resize_2-target.png,125,4.098,5,2864,135,feet,jsons/VE125_randls_67_rotated.json,608880,941473,43,Woman
100,376542,DepthScenes,duration_manipulation_targetAtFixation,jsons/VE125_randls_67_rotated.json,http://54.235.29.9/FacialAge/BNav_EC2/DepthDuration/v2_depth_duration_MTurk/v2_DepthDuration_HTML.html#341,341,1920,937,1920,1080,9-18-2022,11-14-13,101,depth_duration_stimuli/000739_2014-06-08_18-45-58_260595134347_rgbf000068-resize_1/000739_2014-06-08_18-45-58_260595134347_rgbf000068-resize_1-target.png,125,3.534,7,5418,123,feet,jsons/VE125_randls_67_rotated.json,608880,941473,43,Woman
101,376542,DepthScenes,duration_manipulation_targetAtFixation,jsons/VE125_randls_67_rotated.json,http://54.235.29.9/FacialAge/BNav_EC2/DepthDuration/v2_depth_duration_MTurk/v2_DepthDuration_HTML.html#341,341,1920,937,1920,1080,9-18-2022,11-14-13,102,depth_duration_stimuli/001094_2014-06-15_17-36-00_260595134347_rgbf000205-resize_0/001094_2014-06-15_17-36-00_260595134347_rgbf000205-resize_0-target.png,125,4.2175,8,2711,99,feet,jsons/VE125_randls_67_rotated.json,608880,941473,43,Woman
102,376542,DepthScenes,duration_manipulation_targetAtFixation,jsons/VE125_randls_67_rotated.json,http://54.235.29.9/FacialAge/BNav_EC2/DepthDuration/v2_depth_duration_MTurk/v2_DepthDuration_HTML.html#341,341,1920,937,1920,1080,9-18-2022,11-14-13,103,depth_duration_stimuli/000692_2014-06-08_13-09-42_260595134347_rgbf000199-resize_2/000692_2014-06-08_13-09-42_260595134347_rgbf000199-resize_2-target.png,125,3.661,13,4340,114,feet,jsons/VE125_randls_67_rotated.json,608880,941473,43,Woman
103,376542,DepthScenes,duration_manipulation_targetAtFixation,jsons/VE125_randls_67_rotated.json,http://54.235.29.9/FacialAge/BNav_EC2/DepthDuration/v2_depth_duration_MTurk/v2_DepthDuration_HTML.html#341,341,1920,937,1920,1080,9-18-2022,11-14-13,104,depth_duration_stimuli/002323_2014-06-28_20-01-54_260595134347_rgbf000051-resize_4/002323_2014-06-28_20-01-54_260595134347_rgbf000051-resize_4-target.png,125,3.7310000000000003,8,3186,122,feet,jsons/VE125_randls_67_rotated.json,608880,941473,43,Woman
104,376542,DepthScenes,duration_manipulation_targetAtFixation,jsons/VE125_randls_67_rotated.json,http://54.235.29.9/FacialAge/BNav_EC2/DepthDuration/v2_depth_duration_MTurk/v2_DepthDuration_HTML.html#341,341,1920,937,1920,1080,9-18-2022,11-14-13,105,depth_duration_stimuli/000917_2014-06-09_22-45-29_260595134347_rgbf000149-resize_3/000917_2014-06-09_22-45-29_260595134347_rgbf000149-resize_3-target.png,125,4.1865,10,4796,65,feet,jsons/VE125_randls_67_rotated.json,608880,941473,43,Woman
105,376542,DepthScenes,duration_manipulation_targetAtFixation,jsons/VE125_randls_67_rotated.json,http://54.235.29.9/FacialAge/BNav_EC2/DepthDuration/v2_depth_duration_MTurk/v2_DepthDuration_HTML.html#341,341,1920,937,1920,1080,9-18-2022,11-14-13,106,depth_duration_stimuli/002678_2014-06-13_16-15-32_094959634447_rgbf000151-resize_6/002678_2014-06-13_16-15-32_094959634447_rgbf000151-resize_6-target.png,125,2.1830000000000003,8,3831,117,feet,jsons/VE125_randls_67_rotated.json,608880,941473,43,Woman
106,376542,DepthScenes,duration_manipulation_targetAtFixation,jsons/VE125_randls_67_rotated.json,http://54.235.29.9/FacialAge/BNav_EC2/DepthDuration/v2_depth_duration_MTurk/v2_DepthDuration_HTML.html#341,341,1920,937,1920,1080,9-18-2022,11-14-13,107,depth_duration_stimuli/000368_2014-06-09_15-53-01_260595134347_rgbf000155-resize_2/000368_2014-06-09_15-53-01_260595134347_rgbf000155-resize_2-target.png,125,2.4859999999999998,3,2608,124,feet,jsons/VE125_randls_67_rotated.json,608880,941473,43,Woman
107,376542,DepthScenes,duration_manipulation_targetAtFixation,jsons/VE125_randls_67_rotated.json,http://54.235.29.9/FacialAge/BNav_EC2/DepthDuration/v2_depth_duration_MTurk/v2_DepthDuration_HTML.html#341,341,1920,937,1920,1080,9-18-2022,11-14-13,108,depth_duration_stimuli/001032_2014-06-08_13-23-17_260595134347_rgbf000021-resize_3/001032_2014-06-08_13-23-17_260595134347_rgbf000021-resize_3-target.png,125,3.2725,6,3726,125,feet,jsons/VE125_randls_67_rotated.json,608880,941473,43,Woman
108,376542,DepthScenes,duration_manipulation_targetAtFixation,jsons/VE125_randls_67_rotated.json,http://54.235.29.9/FacialAge/BNav_EC2/DepthDuration/v2_depth_duration_MTurk/v2_DepthDuration_HTML.html#341,341,1920,937,1920,1080,9-18-2022,11-14-13,109,depth_duration_stimuli/001059_2014-06-08_21-53-27_260595134347_rgbf000061-resize_4/001059_2014-06-08_21-53-27_260595134347_rgbf000061-resize_4-target.png,125,2.4185,4,3405,123,feet,jsons/VE125_randls_67_rotated.json,608880,941473,43,Woman
109,376542,DepthScenes,duration_manipulation_targetAtFixation,jsons/VE125_randls_67_rotated.json,http://54.235.29.9/FacialAge/BNav_EC2/DepthDuration/v2_depth_duration_MTurk/v2_DepthDuration_HTML.html#341,341,1920,937,1920,1080,9-18-2022,11-14-13,110,depth_duration_stimuli/003228_2014-05-14_13-42-35_094959634447_rgbf000101-resize_1/003228_2014-05-14_13-42-35_094959634447_rgbf000101-resize_1-target.png,125,1.9680000000000002,5,2900,137,feet,jsons/VE125_randls_67_rotated.json,608880,941473,43,Woman
110,376542,DepthScenes,duration_manipulation_targetAtFixation,jsons/VE125_randls_67_rotated.json,http://54.235.29.9/FacialAge/BNav_EC2/DepthDuration/v2_depth_duration_MTurk/v2_DepthDuration_HTML.html#341,341,1920,937,1920,1080,9-18-2022,11-14-13,111,depth_duration_stimuli/002600_2014-06-24_14-27-04_094959634447_rgbf000074-resize_2/002600_2014-06-24_14-27-04_094959634447_rgbf000074-resize_2-target.png,125,2.7575,7,2833,127,feet,jsons/VE125_randls_67_rotated.json,608880,941473,43,Woman
111,376542,DepthScenes,duration_manipulation_targetAtFixation,jsons/VE125_randls_67_rotated.json,http://54.235.29.9/FacialAge/BNav_EC2/DepthDuration/v2_depth_duration_MTurk/v2_DepthDuration_HTML.html#341,341,1920,937,1920,1080,9-18-2022,11-14-13,112,depth_duration_stimuli/000943_2014-06-09_19-31-07_260595134347_rgbf000128-resize_1/000943_2014-06-09_19-31-07_260595134347_rgbf000128-resize_1-target.png,125,1.9765,5,3753,121,feet,jsons/VE125_randls_67_rotated.json,608880,941473,43,Woman
112,376542,DepthScenes,duration_manipulation_targetAtFixation,jsons/VE125_randls_67_rotated.json,http://54.235.29.9/FacialAge/BNav_EC2/DepthDuration/v2_depth_duration_MTurk/v2_DepthDuration_HTML.html#341,341,1920,937,1920,1080,9-18-2022,11-14-13,113,depth_duration_stimuli/003070_2014-06-15_14-58-27_094959634447_rgbf000150-resize_3/003070_2014-06-15_14-58-27_094959634447_rgbf000150-resize_3-target.png,125,2.9415,7,5231,118,feet,jsons/VE125_randls_67_rotated.json,608880,941473,43,Woman
113,376542,DepthScenes,duration_manipulation_targetAtFixation,jsons/VE125_randls_67_rotated.json,http://54.235.29.9/FacialAge/BNav_EC2/DepthDuration/v2_depth_duration_MTurk/v2_DepthDuration_HTML.html#341,341,1920,937,1920,1080,9-18-2022,11-14-13,114,depth_duration_stimuli/002660_2014-06-13_15-44-18_094959634447_rgbf001878-resize_2/002660_2014-06-13_15-44-18_094959634447_rgbf001878-resize_2-target.png,125,3.576,9,2373,138,feet,jsons/VE125_randls_67_rotated.json,608880,941473,43,Woman
114,376542,DepthScenes,duration_manipulation_targetAtFixation,jsons/VE125_randls_67_rotated.json,http://54.235.29.9/FacialAge/BNav_EC2/DepthDuration/v2_depth_duration_MTurk/v2_DepthDuration_HTML.html#341,341,1920,937,1920,1080,9-18-2022,11-14-13,115,depth_duration_stimuli/002153_2014-06-25_21-27-18_260595134347_rgbf000038-resize_5/002153_2014-06-25_21-27-18_260595134347_rgbf000038-resize_5-target.png,125,2.505,5,2735,127,feet,jsons/VE125_randls_67_rotated.json,608880,941473,43,Woman
115,376542,DepthScenes,duration_manipulation_targetAtFixation,jsons/VE125_randls_67_rotated.json,http://54.235.29.9/FacialAge/BNav_EC2/DepthDuration/v2_depth_duration_MTurk/v2_DepthDuration_HTML.html#341,341,1920,937,1920,1080,9-18-2022,11-14-13,116,depth_duration_stimuli/000109_2014-05-14_23-41-52_260595134347_rgbf000035-resize_9/000109_2014-05-14_23-41-52_260595134347_rgbf000035-resize_9-target.png,125,1.3545,2,2569,135,feet,jsons/VE125_randls_67_rotated.json,608880,941473,43,Woman
116,376542,DepthScenes,duration_manipulation_targetAtFixation,jsons/VE125_randls_67_rotated.json,http://54.235.29.9/FacialAge/BNav_EC2/DepthDuration/v2_depth_duration_MTurk/v2_DepthDuration_HTML.html#341,341,1920,937,1920,1080,9-18-2022,11-14-13,117,depth_duration_stimuli/000470_2014-06-09_19-42-40_260595134347_rgbf000094-resize_1/000470_2014-06-09_19-42-40_260595134347_rgbf000094-resize_1-target.png,125,1.831,4,2550,122,feet,jsons/VE125_randls_67_rotated.json,608880,941473,43,Woman
117,376542,DepthScenes,duration_manipulation_targetAtFixation,jsons/VE125_randls_67_rotated.json,http://54.235.29.9/FacialAge/BNav_EC2/DepthDuration/v2_depth_duration_MTurk/v2_DepthDuration_HTML.html#341,341,1920,937,1920,1080,9-18-2022,11-14-13,118,depth_duration_stimuli/003048_2014-06-15_13-49-43_094959634447_rgbf000150-resize_1/003048_2014-06-15_13-49-43_094959634447_rgbf000150-resize_1-target.png,125,4.0035,10,2835,123,feet,jsons/VE125_randls_67_rotated.json,608880,941473,43,Woman
118,376542,DepthScenes,duration_manipulation_targetAtFixation,jsons/VE125_randls_67_rotated.json,http://54.235.29.9/FacialAge/BNav_EC2/DepthDuration/v2_depth_duration_MTurk/v2_DepthDuration_HTML.html#341,341,1920,937,1920,1080,9-18-2022,11-14-13,119,depth_duration_stimuli/002043_2014-06-24_20-29-38_260595134347_rgbf000039-resize_4/002043_2014-06-24_20-29-38_260595134347_rgbf000039-resize_4-target.png,125,2.8435,8,2674,184,feet,jsons/VE125_randls_67_rotated.json,608880,941473,43,Woman
119,376542,DepthScenes,duration_manipulation_targetAtFixation,jsons/VE125_randls_67_rotated.json,http://54.235.29.9/FacialAge/BNav_EC2/DepthDuration/v2_depth_duration_MTurk/v2_DepthDuration_HTML.html#341,341,1920,937,1920,1080,9-18-2022,11-14-13,120,depth_duration_stimuli/000787_2014-06-08_22-33-53_260595134347_rgbf000175-resize_1/000787_2014-06-08_22-33-53_260595134347_rgbf000175-resize-original.jpg,125,4.784,1,3255,130,feet,jsons/VE125_randls_67_rotated.json,608880,941473,43,Woman
120,376542,DepthScenes,duration_manipulation_targetAtFixation,jsons/VE125_randls_67_rotated.json,http://54.235.29.9/FacialAge/BNav_EC2/DepthDuration/v2_depth_duration_MTurk/v2_DepthDuration_HTML.html#341,341,1920,937,1920,1080,9-18-2022,11-14-13,121,depth_duration_stimuli/003010_2014-06-15_12-54-35_094959634447_rgbf000112-resize_0/003010_2014-06-15_12-54-35_094959634447_rgbf000112-resize_0-target.png,125,3.1185,13,3809,138,feet,jsons/VE125_randls_67_rotated.json,608880,941473,43,Woman
121,376542,DepthScenes,duration_manipulation_targetAtFixation,jsons/VE125_randls_67_rotated.json,http://54.235.29.9/FacialAge/BNav_EC2/DepthDuration/v2_depth_duration_MTurk/v2_DepthDuration_HTML.html#341,341,1920,937,1920,1080,9-18-2022,11-14-13,122,depth_duration_stimuli/001810_2014-06-26_20-51-35_260595134347_rgbf000040-resize_3/001810_2014-06-26_20-51-35_260595134347_rgbf000040-resize_3-target.png,125,2.2525,4,3383,125,feet,jsons/VE125_randls_67_rotated.json,608880,941473,43,Woman
122,376542,DepthScenes,duration_manipulation_targetAtFixation,jsons/VE125_randls_67_rotated.json,http://54.235.29.9/FacialAge/BNav_EC2/DepthDuration/v2_depth_duration_MTurk/v2_DepthDuration_HTML.html#341,341,1920,937,1920,1080,9-18-2022,11-14-13,123,depth_duration_stimuli/001828_2014-06-26_21-40-03_260595134347_rgbf000024-resize_0/001828_2014-06-26_21-40-03_260595134347_rgbf000024-resize_0-target.png,125,4.8260000000000005,10,5843,122,feet,jsons/VE125_randls_67_rotated.json,608880,941473,43,Woman
123,376542,DepthScenes,duration_manipulation_targetAtFixation,jsons/VE125_randls_67_rotated.json,http://54.235.29.9/FacialAge/BNav_EC2/DepthDuration/v2_depth_duration_MTurk/v2_DepthDuration_HTML.html#341,341,1920,937,1920,1080,9-18-2022,11-14-13,124,depth_duration_stimuli/000009_2014-05-26_14-32-05_260595134347_rgbf000034-resize_3/000009_2014-05-26_14-32-05_260595134347_rgbf000034-resize_3-target.png,125,3.8715,12,5274,122,feet,jsons/VE125_randls_67_rotated.json,608880,941473,43,Woman
124,376542,DepthScenes,duration_manipulation_targetAtFixation,jsons/VE125_randls_67_rotated.json,http://54.235.29.9/FacialAge/BNav_EC2/DepthDuration/v2_depth_duration_MTurk/v2_DepthDuration_HTML.html#341,341,1920,937,1920,1080,9-18-2022,11-14-13,125,depth_duration_stimuli/003587_2014-05-23_16-48-02_094959634447_rgbf002384-resize_2/003587_2014-05-23_16-48-02_094959634447_rgbf002384-resize_2-target.png,125,1.357,2,2500,123,feet,jsons/VE125_randls_67_rotated.json,608880,941473,43,Woman
125,376542,DepthScenes,duration_manipulation_targetAtFixation,jsons/VE125_randls_67_rotated.json,http://54.235.29.9/FacialAge/BNav_EC2/DepthDuration/v2_depth_duration_MTurk/v2_DepthDuration_HTML.html#341,341,1920,937,1920,1080,9-18-2022,11-14-13,126,depth_duration_stimuli/001167_2014-06-17_15-38-07_260595134347_rgbf000108-resize_0/001167_2014-06-17_15-38-07_260595134347_rgbf000108-resize_0-target.png,125,1.8505,3,2626,128,feet,jsons/VE125_randls_67_rotated.json,608880,941473,43,Woman
126,376542,DepthScenes,duration_manipulation_targetAtFixation,jsons/VE125_randls_67_rotated.json,http://54.235.29.9/FacialAge/BNav_EC2/DepthDuration/v2_depth_duration_MTurk/v2_DepthDuration_HTML.html#341,341,1920,937,1920,1080,9-18-2022,11-14-13,127,depth_duration_stimuli/003081_2014-06-15_15-19-16_094959634447_rgbf000150-resize_1/003081_2014-06-15_15-19-16_094959634447_rgbf000150-resize_1-target.png,125,3.9125,5,2469,121,feet,jsons/VE125_randls_67_rotated.json,608880,941473,43,Woman
127,376542,DepthScenes,duration_manipulation_targetAtFixation,jsons/VE125_randls_67_rotated.json,http://54.235.29.9/FacialAge/BNav_EC2/DepthDuration/v2_depth_duration_MTurk/v2_DepthDuration_HTML.html#341,341,1920,937,1920,1080,9-18-2022,11-14-13,128,depth_duration_stimuli/001417_2014-06-19_16-25-36_260595134347_rgbf000115-resize_5/001417_2014-06-19_16-25-36_260595134347_rgbf000115-resize_5-target.png,125,4.6255,7,2897,134,feet,jsons/VE125_randls_67_rotated.json,608880,941473,43,Woman
128,376542,DepthScenes,duration_manipulation_targetAtFixation,jsons/VE125_randls_67_rotated.json,http://54.235.29.9/FacialAge/BNav_EC2/DepthDuration/v2_depth_duration_MTurk/v2_DepthDuration_HTML.html#341,341,1920,937,1920,1080,9-18-2022,11-14-13,129,depth_duration_stimuli/000854_2014-06-09_19-43-13_260595134347_rgbf000066-resize_0/000854_2014-06-09_19-43-13_260595134347_rgbf000066-resize_0-target.png,125,3.068,7,2415,116,feet,jsons/VE125_randls_67_rotated.json,608880,941473,43,Woman
129,376542,DepthScenes,duration_manipulation_targetAtFixation,jsons/VE125_randls_67_rotated.json,http://54.235.29.9/FacialAge/BNav_EC2/DepthDuration/v2_depth_duration_MTurk/v2_DepthDuration_HTML.html#341,341,1920,937,1920,1080,9-18-2022,11-14-13,130,depth_duration_stimuli/000758_2014-06-08_22-05-08_260595134347_rgbf000085-resize_0/000758_2014-06-08_22-05-08_260595134347_rgbf000085-resize_0-target.png,125,3.3810000000000002,10,4296,127,feet,jsons/VE125_randls_67_rotated.json,608880,941473,43,Woman
130,376542,DepthScenes,duration_manipulation_targetAtFixation,jsons/VE125_randls_67_rotated.json,http://54.235.29.9/FacialAge/BNav_EC2/DepthDuration/v2_depth_duration_MTurk/v2_DepthDuration_HTML.html#341,341,1920,937,1920,1080,9-18-2022,11-14-13,131,depth_duration_stimuli/002414_2014-06-28_20-24-58_260595134347_rgbf000067-resize_4/002414_2014-06-28_20-24-58_260595134347_rgbf000067-resize_4-target.png,125,4.363,11,3260,117,feet,jsons/VE125_randls_67_rotated.json,608880,941473,43,Woman
131,376542,DepthScenes,duration_manipulation_targetAtFixation,jsons/VE125_randls_67_rotated.json,http://54.235.29.9/FacialAge/BNav_EC2/DepthDuration/v2_depth_duration_MTurk/v2_DepthDuration_HTML.html#341,341,1920,937,1920,1080,9-18-2022,11-14-13,132,depth_duration_stimuli/000773_2014-06-08_22-24-54_260595134347_rgbf000093-resize_1/000773_2014-06-08_22-24-54_260595134347_rgbf000093-resize_1-target.png,125,4.973,12,2945,118,feet,jsons/VE125_randls_67_rotated.json,608880,941473,43,Woman
132,376542,DepthScenes,duration_manipulation_targetAtFixation,jsons/VE125_randls_67_rotated.json,http://54.235.29.9/FacialAge/BNav_EC2/DepthDuration/v2_depth_duration_MTurk/v2_DepthDuration_HTML.html#341,341,1920,937,1920,1080,9-18-2022,11-14-13,133,depth_duration_stimuli/003495_2014-05-21_16-01-51_094959634447_rgbf000100-resize_3/003495_2014-05-21_16-01-51_094959634447_rgbf000100-resize_3-target.png,125,1.6255,2,2865,132,feet,jsons/VE125_randls_67_rotated.json,608880,941473,43,Woman
133,376542,DepthScenes,duration_manipulation_targetAtFixation,jsons/VE125_randls_67_rotated.json,http://54.235.29.9/FacialAge/BNav_EC2/DepthDuration/v2_depth_duration_MTurk/v2_DepthDuration_HTML.html#341,341,1920,937,1920,1080,9-18-2022,11-14-13,134,depth_duration_stimuli/001244_2014-06-17_16-47-45_260595134347_rgbf000030-resize_4/001244_2014-06-17_16-47-45_260595134347_rgbf000030-resize_4-target.png,125,2.0425,5,2755,123,feet,jsons/VE125_randls_67_rotated.json,608880,941473,43,Woman
134,376542,DepthScenes,duration_manipulation_targetAtFixation,jsons/VE125_randls_67_rotated.json,http://54.235.29.9/FacialAge/BNav_EC2/DepthDuration/v2_depth_duration_MTurk/v2_DepthDuration_HTML.html#341,341,1920,937,1920,1080,9-18-2022,11-14-13,135,depth_duration_stimuli/000375_2014-06-08_11-17-29_260595134347_rgbf000133-resize_2/000375_2014-06-08_11-17-29_260595134347_rgbf000133-resize-original.jpg,125,4.718,0,2521,140,feet,jsons/VE125_randls_67_rotated.json,608880,941473,43,Woman
135,376542,DepthScenes,duration_manipulation_targetAtFixation,jsons/VE125_randls_67_rotated.json,http://54.235.29.9/FacialAge/BNav_EC2/DepthDuration/v2_depth_duration_MTurk/v2_DepthDuration_HTML.html#341,341,1920,937,1920,1080,9-18-2022,11-14-13,136,depth_duration_stimuli/001650_2014-06-20_12-09-00_260595134347_rgbf000087-resize_3/001650_2014-06-20_12-09-00_260595134347_rgbf000087-resize_3-target.png,125,1.9505,1,2591,84,feet,jsons/VE125_randls_67_rotated.json,608880,941473,43,Woman
136,376542,DepthScenes,duration_manipulation_targetAtFixation,jsons/VE125_randls_67_rotated.json,http://54.235.29.9/FacialAge/BNav_EC2/DepthDuration/v2_depth_duration_MTurk/v2_DepthDuration_HTML.html#341,341,1920,937,1920,1080,9-18-2022,11-14-13,137,depth_duration_stimuli/000682_2014-06-08_23-14-58_260595134347_rgbf000041-resize_5/000682_2014-06-08_23-14-58_260595134347_rgbf000041-resize_5-target.png,125,2.7239999999999998,5,2442,137,feet,jsons/VE125_randls_67_rotated.json,608880,941473,43,Woman
137,376542,DepthScenes,duration_manipulation_targetAtFixation,jsons/VE125_randls_67_rotated.json,http://54.235.29.9/FacialAge/BNav_EC2/DepthDuration/v2_depth_duration_MTurk/v2_DepthDuration_HTML.html#341,341,1920,937,1920,1080,9-18-2022,11-14-13,138,depth_duration_stimuli/000502_2014-06-08_23-02-32_260595134347_rgbf000063-resize_4/000502_2014-06-08_23-02-32_260595134347_rgbf000063-resize_4-target.png,125,2.431,4,2054,111,feet,jsons/VE125_randls_67_rotated.json,608880,941473,43,Woman
138,376542,DepthScenes,duration_manipulation_targetAtFixation,jsons/VE125_randls_67_rotated.json,http://54.235.29.9/FacialAge/BNav_EC2/DepthDuration/v2_depth_duration_MTurk/v2_DepthDuration_HTML.html#341,341,1920,937,1920,1080,9-18-2022,11-14-13,139,depth_duration_stimuli/001199_2014-06-17_16-03-48_260595134347_rgbf000077-resize_0/001199_2014-06-17_16-03-48_260595134347_rgbf000077-resize_0-target.png,125,3.4375,8,2332,111,feet,jsons/VE125_randls_67_rotated.json,608880,941473,43,Woman
139,376542,DepthScenes,duration_manipulation_targetAtFixation,jsons/VE125_randls_67_rotated.json,http://54.235.29.9/FacialAge/BNav_EC2/DepthDuration/v2_depth_duration_MTurk/v2_DepthDuration_HTML.html#341,341,1920,937,1920,1080,9-18-2022,11-14-13,140,depth_duration_stimuli/000137_2014-05-20_17-04-49_260595134347_rgbf000120-resize_1/000137_2014-05-20_17-04-49_260595134347_rgbf000120-resize_1-target.png,125,3.786,7,2214,126,feet,jsons/VE125_randls_67_rotated.json,608880,941473,43,Woman
140,376542,DepthScenes,duration_manipulation_targetAtFixation,jsons/VE125_randls_67_rotated.json,http://54.235.29.9/FacialAge/BNav_EC2/DepthDuration/v2_depth_duration_MTurk/v2_DepthDuration_HTML.html#341,341,1920,937,1920,1080,9-18-2022,11-14-13,141,depth_duration_stimuli/000736_2014-06-08_18-24-15_260595134347_rgbf000206-resize_3/000736_2014-06-08_18-24-15_260595134347_rgbf000206-resize_3-target.png,125,3.515,5,2849,155,feet,jsons/VE125_randls_67_rotated.json,608880,941473,43,Woman
141,376542,DepthScenes,duration_manipulation_targetAtFixation,jsons/VE125_randls_67_rotated.json,http://54.235.29.9/FacialAge/BNav_EC2/DepthDuration/v2_depth_duration_MTurk/v2_DepthDuration_HTML.html#341,341,1920,937,1920,1080,9-18-2022,11-14-13,142,depth_duration_stimuli/002209_2014-06-28_18-36-10_260595134347_rgbf000051-resize_1/002209_2014-06-28_18-36-10_260595134347_rgbf000051-resize_1-target.png,125,2.057,5,2169,111,feet,jsons/VE125_randls_67_rotated.json,608880,941473,43,Woman
142,376542,DepthScenes,duration_manipulation_targetAtFixation,jsons/VE125_randls_67_rotated.json,http://54.235.29.9/FacialAge/BNav_EC2/DepthDuration/v2_depth_duration_MTurk/v2_DepthDuration_HTML.html#341,341,1920,937,1920,1080,9-18-2022,11-14-13,143,depth_duration_stimuli/002763_2014-06-22_19-13-10_094959634447_rgbf000075-resize_4/002763_2014-06-22_19-13-10_094959634447_rgbf000075-resize_4-target.png,125,1.68375,6,2638,112,feet,jsons/VE125_randls_67_rotated.json,608880,941473,43,Woman
143,376542,DepthScenes,duration_manipulation_targetAtFixation,jsons/VE125_randls_67_rotated.json,http://54.235.29.9/FacialAge/BNav_EC2/DepthDuration/v2_depth_duration_MTurk/v2_DepthDuration_HTML.html#341,341,1920,937,1920,1080,9-18-2022,11-14-13,144,depth_duration_stimuli/002340_2014-06-28_20-05-46_260595134347_rgbf000113-resize_0/002340_2014-06-28_20-05-46_260595134347_rgbf000113-resize_0-target.png,125,2.4735,9,2619,127,feet,jsons/VE125_randls_67_rotated.json,608880,941473,43,Woman
144,376542,DepthScenes,duration_manipulation_targetAtFixation,jsons/VE125_randls_67_rotated.json,http://54.235.29.9/FacialAge/BNav_EC2/DepthDuration/v2_depth_duration_MTurk/v2_DepthDuration_HTML.html#341,341,1920,937,1920,1080,9-18-2022,11-14-13,145,depth_duration_stimuli/001016_2014-06-09_16-16-10_260595134347_rgbf000112-resize_5/001016_2014-06-09_16-16-10_260595134347_rgbf000112-resize_5-target.png,125,1.6565,8,2466,122,feet,jsons/VE125_randls_67_rotated.json,608880,941473,43,Woman
145,376542,DepthScenes,duration_manipulation_targetAtFixation,jsons/VE125_randls_67_rotated.json,http://54.235.29.9/FacialAge/BNav_EC2/DepthDuration/v2_depth_duration_MTurk/v2_DepthDuration_HTML.html#341,341,1920,937,1920,1080,9-18-2022,11-14-13,146,depth_duration_stimuli/000483_2014-06-09_20-41-45_260595134347_rgbf000116-resize_4/000483_2014-06-09_20-41-45_260595134347_rgbf000116-resize_4-target.png,125,1.337,5,3191,66,feet,jsons/VE125_randls_67_rotated.json,608880,941473,43,Woman
146,376542,DepthScenes,duration_manipulation_targetAtFixation,jsons/VE125_randls_67_rotated.json,http://54.235.29.9/FacialAge/BNav_EC2/DepthDuration/v2_depth_duration_MTurk/v2_DepthDuration_HTML.html#341,341,1920,937,1920,1080,9-18-2022,11-14-13,147,depth_duration_stimuli/000469_2014-06-09_19-42-10_260595134347_rgbf000081-resize_1/000469_2014-06-09_19-42-10_260595134347_rgbf000081-resize_1-target.png,125,1.652,3,3001,126,feet,jsons/VE125_randls_67_rotated.json,608880,941473,43,Woman
147,376542,DepthScenes,duration_manipulation_targetAtFixation,jsons/VE125_randls_67_rotated.json,http://54.235.29.9/FacialAge/BNav_EC2/DepthDuration/v2_depth_duration_MTurk/v2_DepthDuration_HTML.html#341,341,1920,937,1920,1080,9-18-2022,11-14-13,148,depth_duration_stimuli/000191_2014-05-12_17-07-38_260595134347_rgbf000199-resize_0/000191_2014-05-12_17-07-38_260595134347_rgbf000199-resize_0-target.png,125,3.7995,10,2952,106,feet,jsons/VE125_randls_67_rotated.json,608880,941473,43,Woman
148,376542,DepthScenes,duration_manipulation_targetAtFixation,jsons/VE125_randls_67_rotated.json,http://54.235.29.9/FacialAge/BNav_EC2/DepthDuration/v2_depth_duration_MTurk/v2_DepthDuration_HTML.html#341,341,1920,937,1920,1080,9-18-2022,11-14-13,149,depth_duration_stimuli/000493_2014-06-09_21-01-18_260595134347_rgbf000196-resize_3/000493_2014-06-09_21-01-18_260595134347_rgbf000196-resize_3-target.png,125,3.44,5,2722,126,feet,jsons/VE125_randls_67_rotated.json,608880,941473,43,Woman
149,376542,DepthScenes,duration_manipulation_targetAtFixation,jsons/VE125_randls_67_rotated.json,http://54.235.29.9/FacialAge/BNav_EC2/DepthDuration/v2_depth_duration_MTurk/v2_DepthDuration_HTML.html#341,341,1920,937,1920,1080,9-18-2022,11-14-13,150,depth_duration_stimuli/002199_2014-06-28_18-33-56_260595134347_rgbf000074-resize_0/002199_2014-06-28_18-33-56_260595134347_rgbf000074-resize_0-target.png,125,1.996,3,2548,130,feet,jsons/VE125_randls_67_rotated.json,608880,941473,43,Woman
150,376542,DepthScenes,duration_manipulation_targetAtFixation,jsons/VE125_randls_67_rotated.json,http://54.235.29.9/FacialAge/BNav_EC2/DepthDuration/v2_depth_duration_MTurk/v2_DepthDuration_HTML.html#341,341,1920,937,1920,1080,9-18-2022,11-14-13,151,depth_duration_stimuli/001056_2014-06-08_18-46-44_260595134347_rgbf000068-resize_0/001056_2014-06-08_18-46-44_260595134347_rgbf000068-resize_0-target.png,125,2.6625,7,2459,57,feet,jsons/VE125_randls_67_rotated.json,608880,941473,43,Woman
151,376542,DepthScenes,duration_manipulation_targetAtFixation,jsons/VE125_randls_67_rotated.json,http://54.235.29.9/FacialAge/BNav_EC2/DepthDuration/v2_depth_duration_MTurk/v2_DepthDuration_HTML.html#341,341,1920,937,1920,1080,9-18-2022,11-14-13,152,depth_duration_stimuli/000569_2014-06-09_22-51-47_260595134347_rgbf000141-resize_3/000569_2014-06-09_22-51-47_260595134347_rgbf000141-resize-original.jpg,125,4.512,0,1875,115,feet,jsons/VE125_randls_67_rotated.json,608880,941473,43,Woman
152,376542,DepthScenes,duration_manipulation_targetAtFixation,jsons/VE125_randls_67_rotated.json,http://54.235.29.9/FacialAge/BNav_EC2/DepthDuration/v2_depth_duration_MTurk/v2_DepthDuration_HTML.html#341,341,1920,937,1920,1080,9-18-2022,11-14-13,153,depth_duration_stimuli/000742_2014-06-08_18-48-09_260595134347_rgbf000164-resize_4/000742_2014-06-08_18-48-09_260595134347_rgbf000164-resize_4-target.png,125,4.632,12,3551,113,feet,jsons/VE125_randls_67_rotated.json,608880,941473,43,Woman
153,376542,DepthScenes,duration_manipulation_targetAtFixation,jsons/VE125_randls_67_rotated.json,http://54.235.29.9/FacialAge/BNav_EC2/DepthDuration/v2_depth_duration_MTurk/v2_DepthDuration_HTML.html#341,341,1920,937,1920,1080,9-18-2022,11-14-13,154,depth_duration_stimuli/001066_2014-06-08_22-03-20_260595134347_rgbf000066-resize_4/001066_2014-06-08_22-03-20_260595134347_rgbf000066-resize_4-target.png,125,4.2330000000000005,10,3133,101,feet,jsons/VE125_randls_67_rotated.json,608880,941473,43,Woman
154,376542,DepthScenes,duration_manipulation_targetAtFixation,jsons/VE125_randls_67_rotated.json,http://54.235.29.9/FacialAge/BNav_EC2/DepthDuration/v2_depth_duration_MTurk/v2_DepthDuration_HTML.html#341,341,1920,937,1920,1080,9-18-2022,11-14-13,155,depth_duration_stimuli/001136_2014-06-17_15-19-41_260595134347_rgbf000076-resize_3/001136_2014-06-17_15-19-41_260595134347_rgbf000076-resize_3-target.png,125,1.8655,8,2471,176,feet,jsons/VE125_randls_67_rotated.json,608880,941473,43,Woman
155,376542,DepthScenes,duration_manipulation_targetAtFixation,jsons/VE125_randls_67_rotated.json,http://54.235.29.9/FacialAge/BNav_EC2/DepthDuration/v2_depth_duration_MTurk/v2_DepthDuration_HTML.html#341,341,1920,937,1920,1080,9-18-2022,11-14-13,156,depth_duration_stimuli/001164_2014-06-17_15-35-46_260595134347_rgbf000085-resize_3/001164_2014-06-17_15-35-46_260595134347_rgbf000085-resize_3-target.png,125,2.354,6,2425,131,feet,jsons/VE125_randls_67_rotated.json,608880,941473,43,Woman
156,376542,DepthScenes,duration_manipulation_targetAtFixation,jsons/VE125_randls_67_rotated.json,http://54.235.29.9/FacialAge/BNav_EC2/DepthDuration/v2_depth_duration_MTurk/v2_DepthDuration_HTML.html#341,341,1920,937,1920,1080,9-18-2022,11-14-13,157,depth_duration_stimuli/001447_2014-06-19_17-00-32_260595134347_rgbf000082-resize_5/001447_2014-06-19_17-00-32_260595134347_rgbf000082-resize_5-target.png,125,4.13775,5,2731,135,feet,jsons/VE125_randls_67_rotated.json,608880,941473,43,Woman
157,376542,DepthScenes,duration_manipulation_targetAtFixation,jsons/VE125_randls_67_rotated.json,http://54.235.29.9/FacialAge/BNav_EC2/DepthDuration/v2_depth_duration_MTurk/v2_DepthDuration_HTML.html#341,341,1920,937,1920,1080,9-18-2022,11-14-13,158,depth_duration_stimuli/000447_2014-06-08_16-15-46_260595134347_rgbf000130-resize_1/000447_2014-06-08_16-15-46_260595134347_rgbf000130-resize_1-target.png,125,4.479,9,2835,138,feet,jsons/VE125_randls_67_rotated.json,608880,941473,43,Woman
158,376542,DepthScenes,duration_manipulation_targetAtFixation,jsons/VE125_randls_67_rotated.json,http://54.235.29.9/FacialAge/BNav_EC2/DepthDuration/v2_depth_duration_MTurk/v2_DepthDuration_HTML.html#341,341,1920,937,1920,1080,9-18-2022,11-14-13,159,depth_duration_stimuli/002467_2014-06-28_20-38-07_260595134347_rgbf000026-resize_2/002467_2014-06-28_20-38-07_260595134347_rgbf000026-resize_2-target.png,125,4.742,14,2898,60,feet,jsons/VE125_randls_67_rotated.json,608880,941473,43,Woman
159,376542,DepthScenes,duration_manipulation_targetAtFixation,jsons/VE125_randls_67_rotated.json,http://54.235.29.9/FacialAge/BNav_EC2/DepthDuration/v2_depth_duration_MTurk/v2_DepthDuration_HTML.html#341,341,1920,937,1920,1080,9-18-2022,11-14-13,160,depth_duration_stimuli/002570_2014-06-24_13-59-54_094959634447_rgbf000059-resize_0/002570_2014-06-24_13-59-54_094959634447_rgbf000059-resize_0-target.png,125,4.037,7,2592,122,feet,jsons/VE125_randls_67_rotated.json,608880,941473,43,Woman
160,376542,DepthScenes,duration_manipulation_targetAtFixation,jsons/VE125_randls_67_rotated.json,http://54.235.29.9/FacialAge/BNav_EC2/DepthDuration/v2_depth_duration_MTurk/v2_DepthDuration_HTML.html#341,341,1920,937,1920,1080,9-18-2022,11-14-13,161,depth_duration_stimuli/002344_2014-06-28_20-06-29_260595134347_rgbf000030-resize_1/002344_2014-06-28_20-06-29_260595134347_rgbf000030-resize_1-target.png,125,1.5795,2,2227,134,feet,jsons/VE125_randls_67_rotated.json,608880,941473,43,Woman
161,376542,DepthScenes,duration_manipulation_targetAtFixation,jsons/VE125_randls_67_rotated.json,http://54.235.29.9/FacialAge/BNav_EC2/DepthDuration/v2_depth_duration_MTurk/v2_DepthDuration_HTML.html#341,341,1920,937,1920,1080,9-18-2022,11-14-13,162,depth_duration_stimuli/002725_2014-06-22_11-47-51_094959634447_rgbf000070-resize_1/002725_2014-06-22_11-47-51_094959634447_rgbf000070-resize_1-target.png,125,2.195,6,3785,62,feet,jsons/VE125_randls_67_rotated.json,608880,941473,43,Woman
162,376542,DepthScenes,duration_manipulation_targetAtFixation,jsons/VE125_randls_67_rotated.json,http://54.235.29.9/FacialAge/BNav_EC2/DepthDuration/v2_depth_duration_MTurk/v2_DepthDuration_HTML.html#341,341,1920,937,1920,1080,9-18-2022,11-14-13,163,depth_duration_stimuli/002805_2014-06-22_19-54-03_094959634447_rgbf000079-resize_1/002805_2014-06-22_19-54-03_094959634447_rgbf000079-resize_1-target.png,125,3.1439999999999997,12,2879,124,feet,jsons/VE125_randls_67_rotated.json,608880,941473,43,Woman
163,376542,DepthScenes,duration_manipulation_targetAtFixation,jsons/VE125_randls_67_rotated.json,http://54.235.29.9/FacialAge/BNav_EC2/DepthDuration/v2_depth_duration_MTurk/v2_DepthDuration_HTML.html#341,341,1920,937,1920,1080,9-18-2022,11-14-13,164,depth_duration_stimuli/000906_2014-06-08_13-35-43_260595134347_rgbf000155-resize_1/000906_2014-06-08_13-35-43_260595134347_rgbf000155-resize_1-target.png,125,2.8489999999999998,15,2907,114,feet,jsons/VE125_randls_67_rotated.json,608880,941473,43,Woman
