,subjID,experimentName,versionName,sequenceName,url,selected_row,windowWidth,windowHeight,screenWidth,screenHeight,startDate,startTime,trial,stimulus,duration,actual_depth,depth_estimate,trial_RT,log_sceneDuration,unitSelection,seq_filepath,experimentTime,totalTime,age,gender
0,381681,DepthScenes,duration_manipulation_targetAtFixation,jsons/v1_VE1000_randls_17.json,http://54.235.29.9/FacialAge/BNav_EC2/DepthDuration/v2_depth_duration_MTurk/v2_DepthDuration_HTML.html#4,4,1364,625,1364,768,8-22-2022,9-30-10,1,depth_duration_stimuli/002600_2014-06-24_14-27-04_094959634447_rgbf000074-resize_2/002600_2014-06-24_14-27-04_094959634447_rgbf000074-resize_2-target.png,1000,2.7575,5,11632,999,meters,jsons/v1_VE1000_randls_17.json,835762,980646,48,Woman
1,381681,DepthScenes,duration_manipulation_targetAtFixation,jsons/v1_VE1000_randls_17.json,http://54.235.29.9/FacialAge/BNav_EC2/DepthDuration/v2_depth_duration_MTurk/v2_DepthDuration_HTML.html#4,4,1364,625,1364,768,8-22-2022,9-30-10,2,depth_duration_stimuli/003228_2014-05-14_13-42-35_094959634447_rgbf000101-resize_1/003228_2014-05-14_13-42-35_094959634447_rgbf000101-resize_1-target.png,1000,1.9680000000000002,5,4059,998,meters,jsons/v1_VE1000_randls_17.json,835762,980646,48,Woman
2,381681,DepthScenes,duration_manipulation_targetAtFixation,jsons/v1_VE1000_randls_17.json,http://54.235.29.9/FacialAge/BNav_EC2/DepthDuration/v2_depth_duration_MTurk/v2_DepthDuration_HTML.html#4,4,1364,625,1364,768,8-22-2022,9-30-10,3,depth_duration_stimuli/002039_2014-06-24_20-22-38_260595134347_rgbf000084-resize_1/002039_2014-06-24_20-22-38_260595134347_rgbf000084-resize_1-target.png,1000,4.408,2,9458,999,meters,jsons/v1_VE1000_randls_17.json,835762,980646,48,Woman
3,381681,DepthScenes,duration_manipulation_targetAtFixation,jsons/v1_VE1000_randls_17.json,http://54.235.29.9/FacialAge/BNav_EC2/DepthDuration/v2_depth_duration_MTurk/v2_DepthDuration_HTML.html#4,4,1364,625,1364,768,8-22-2022,9-30-10,4,depth_duration_stimuli/002103_2014-06-25_20-00-40_260595134347_rgbf000049-resize_0/002103_2014-06-25_20-00-40_260595134347_rgbf000049-resize_0-target.png,1000,4.105,5,9418,999,meters,jsons/v1_VE1000_randls_17.json,835762,980646,48,Woman
4,381681,DepthScenes,duration_manipulation_targetAtFixation,jsons/v1_VE1000_randls_17.json,http://54.235.29.9/FacialAge/BNav_EC2/DepthDuration/v2_depth_duration_MTurk/v2_DepthDuration_HTML.html#4,4,1364,625,1364,768,8-22-2022,9-30-10,5,depth_duration_stimuli/003621_2014-05-23_18-06-08_094959634447_rgbf000101-resize_1/003621_2014-05-23_18-06-08_094959634447_rgbf000101-resize_1-target.png,1000,3.9835,5,3322,999,meters,jsons/v1_VE1000_randls_17.json,835762,980646,48,Woman
5,381681,DepthScenes,duration_manipulation_targetAtFixation,jsons/v1_VE1000_randls_17.json,http://54.235.29.9/FacialAge/BNav_EC2/DepthDuration/v2_depth_duration_MTurk/v2_DepthDuration_HTML.html#4,4,1364,625,1364,768,8-22-2022,9-30-10,6,depth_duration_stimuli/001584_2014-06-20_11-07-43_260595134347_rgbf000002-resize_1/001584_2014-06-20_11-07-43_260595134347_rgbf000002-resize_1-target.png,1000,3.53,52,7154,999,meters,jsons/v1_VE1000_randls_17.json,835762,980646,48,Woman
6,381681,DepthScenes,duration_manipulation_targetAtFixation,jsons/v1_VE1000_randls_17.json,http://54.235.29.9/FacialAge/BNav_EC2/DepthDuration/v2_depth_duration_MTurk/v2_DepthDuration_HTML.html#4,4,1364,625,1364,768,8-22-2022,9-30-10,7,depth_duration_stimuli/002375_2014-06-28_20-13-44_260595134347_rgbf000032-resize_1/002375_2014-06-28_20-13-44_260595134347_rgbf000032-resize_1-target.png,1000,4.0175,5,3704,998,meters,jsons/v1_VE1000_randls_17.json,835762,980646,48,Woman
7,381681,DepthScenes,duration_manipulation_targetAtFixation,jsons/v1_VE1000_randls_17.json,http://54.235.29.9/FacialAge/BNav_EC2/DepthDuration/v2_depth_duration_MTurk/v2_DepthDuration_HTML.html#4,4,1364,625,1364,768,8-22-2022,9-30-10,8,depth_duration_stimuli/002657_2014-06-13_15-29-54_094959634447_rgbf000150-resize_1/002657_2014-06-13_15-29-54_094959634447_rgbf000150-resize_1-target.png,1000,4.919,4,3057,999,meters,jsons/v1_VE1000_randls_17.json,835762,980646,48,Woman
8,381681,DepthScenes,duration_manipulation_targetAtFixation,jsons/v1_VE1000_randls_17.json,http://54.235.29.9/FacialAge/BNav_EC2/DepthDuration/v2_depth_duration_MTurk/v2_DepthDuration_HTML.html#4,4,1364,625,1364,768,8-22-2022,9-30-10,9,depth_duration_stimuli/001199_2014-06-17_16-03-48_260595134347_rgbf000077-resize_0/001199_2014-06-17_16-03-48_260595134347_rgbf000077-resize_0-target.png,1000,3.4375,54,3355,998,meters,jsons/v1_VE1000_randls_17.json,835762,980646,48,Woman
9,381681,DepthScenes,duration_manipulation_targetAtFixation,jsons/v1_VE1000_randls_17.json,http://54.235.29.9/FacialAge/BNav_EC2/DepthDuration/v2_depth_duration_MTurk/v2_DepthDuration_HTML.html#4,4,1364,625,1364,768,8-22-2022,9-30-10,10,depth_duration_stimuli/000502_2014-06-08_23-02-32_260595134347_rgbf000063-resize_4/000502_2014-06-08_23-02-32_260595134347_rgbf000063-resize_4-target.png,1000,2.431,5,4066,998,meters,jsons/v1_VE1000_randls_17.json,835762,980646,48,Woman
10,381681,DepthScenes,duration_manipulation_targetAtFixation,jsons/v1_VE1000_randls_17.json,http://54.235.29.9/FacialAge/BNav_EC2/DepthDuration/v2_depth_duration_MTurk/v2_DepthDuration_HTML.html#4,4,1364,625,1364,768,8-22-2022,9-30-10,11,depth_duration_stimuli/000788_2014-06-08_22-34-36_260595134347_rgbf000131-resize_1/000788_2014-06-08_22-34-36_260595134347_rgbf000131-resize_1-target.png,1000,3.359,5,8115,998,meters,jsons/v1_VE1000_randls_17.json,835762,980646,48,Woman
11,381681,DepthScenes,duration_manipulation_targetAtFixation,jsons/v1_VE1000_randls_17.json,http://54.235.29.9/FacialAge/BNav_EC2/DepthDuration/v2_depth_duration_MTurk/v2_DepthDuration_HTML.html#4,4,1364,625,1364,768,8-22-2022,9-30-10,12,depth_duration_stimuli/001235_2014-06-17_16-37-36_260595134347_rgbf000084-resize_4/001235_2014-06-17_16-37-36_260595134347_rgbf000084-resize_4-target.png,1000,3.6605,5,7879,999,meters,jsons/v1_VE1000_randls_17.json,835762,980646,48,Woman
12,381681,DepthScenes,duration_manipulation_targetAtFixation,jsons/v1_VE1000_randls_17.json,http://54.235.29.9/FacialAge/BNav_EC2/DepthDuration/v2_depth_duration_MTurk/v2_DepthDuration_HTML.html#4,4,1364,625,1364,768,8-22-2022,9-30-10,13,depth_duration_stimuli/000569_2014-06-09_22-51-47_260595134347_rgbf000141-resize_3/000569_2014-06-09_22-51-47_260595134347_rgbf000141-resize-original.jpg,1000,4.512,45,6422,1003,meters,jsons/v1_VE1000_randls_17.json,835762,980646,48,Woman
13,381681,DepthScenes,duration_manipulation_targetAtFixation,jsons/v1_VE1000_randls_17.json,http://54.235.29.9/FacialAge/BNav_EC2/DepthDuration/v2_depth_duration_MTurk/v2_DepthDuration_HTML.html#4,4,1364,625,1364,768,8-22-2022,9-30-10,14,depth_duration_stimuli/000486_2014-06-09_20-47-20_260595134347_rgbf000143-resize_2/000486_2014-06-09_20-47-20_260595134347_rgbf000143-resize_2-target.png,1000,4.8325,52,3544,1000,meters,jsons/v1_VE1000_randls_17.json,835762,980646,48,Woman
14,381681,DepthScenes,duration_manipulation_targetAtFixation,jsons/v1_VE1000_randls_17.json,http://54.235.29.9/FacialAge/BNav_EC2/DepthDuration/v2_depth_duration_MTurk/v2_DepthDuration_HTML.html#4,4,1364,625,1364,768,8-22-2022,9-30-10,15,depth_duration_stimuli/003083_2014-06-15_15-21-03_094959634447_rgbf000063-resize_1/003083_2014-06-15_15-21-03_094959634447_rgbf000063-resize_1-target.png,1000,4.1405,4,3133,1001,meters,jsons/v1_VE1000_randls_17.json,835762,980646,48,Woman
15,381681,DepthScenes,duration_manipulation_targetAtFixation,jsons/v1_VE1000_randls_17.json,http://54.235.29.9/FacialAge/BNav_EC2/DepthDuration/v2_depth_duration_MTurk/v2_DepthDuration_HTML.html#4,4,1364,625,1364,768,8-22-2022,9-30-10,16,depth_duration_stimuli/001164_2014-06-17_15-35-46_260595134347_rgbf000085-resize_3/001164_2014-06-17_15-35-46_260595134347_rgbf000085-resize_3-target.png,1000,2.354,41,11690,1002,meters,jsons/v1_VE1000_randls_17.json,835762,980646,48,Woman
16,381681,DepthScenes,duration_manipulation_targetAtFixation,jsons/v1_VE1000_randls_17.json,http://54.235.29.9/FacialAge/BNav_EC2/DepthDuration/v2_depth_duration_MTurk/v2_DepthDuration_HTML.html#4,4,1364,625,1364,768,8-22-2022,9-30-10,17,depth_duration_stimuli/001136_2014-06-17_15-19-41_260595134347_rgbf000076-resize_3/001136_2014-06-17_15-19-41_260595134347_rgbf000076-resize_3-target.png,1000,1.8655,5,5949,1011,meters,jsons/v1_VE1000_randls_17.json,835762,980646,48,Woman
17,381681,DepthScenes,duration_manipulation_targetAtFixation,jsons/v1_VE1000_randls_17.json,http://54.235.29.9/FacialAge/BNav_EC2/DepthDuration/v2_depth_duration_MTurk/v2_DepthDuration_HTML.html#4,4,1364,625,1364,768,8-22-2022,9-30-10,18,depth_duration_stimuli/000906_2014-06-08_13-35-43_260595134347_rgbf000155-resize_1/000906_2014-06-08_13-35-43_260595134347_rgbf000155-resize_1-target.png,1000,2.8489999999999998,5,3442,1004,meters,jsons/v1_VE1000_randls_17.json,835762,980646,48,Woman
18,381681,DepthScenes,duration_manipulation_targetAtFixation,jsons/v1_VE1000_randls_17.json,http://54.235.29.9/FacialAge/BNav_EC2/DepthDuration/v2_depth_duration_MTurk/v2_DepthDuration_HTML.html#4,4,1364,625,1364,768,8-22-2022,9-30-10,19,depth_duration_stimuli/002805_2014-06-22_19-54-03_094959634447_rgbf000079-resize_1/002805_2014-06-22_19-54-03_094959634447_rgbf000079-resize_1-target.png,1000,3.1439999999999997,45,6531,1012,meters,jsons/v1_VE1000_randls_17.json,835762,980646,48,Woman
19,381681,DepthScenes,duration_manipulation_targetAtFixation,jsons/v1_VE1000_randls_17.json,http://54.235.29.9/FacialAge/BNav_EC2/DepthDuration/v2_depth_duration_MTurk/v2_DepthDuration_HTML.html#4,4,1364,625,1364,768,8-22-2022,9-30-10,20,depth_duration_stimuli/002057_2014-06-24_21-00-13_260595134347_rgbf000120-resize_1/002057_2014-06-24_21-00-13_260595134347_rgbf000120-resize_1-target.png,1000,2.967,2,3652,1000,meters,jsons/v1_VE1000_randls_17.json,835762,980646,48,Woman
20,381681,DepthScenes,duration_manipulation_targetAtFixation,jsons/v1_VE1000_randls_17.json,http://54.235.29.9/FacialAge/BNav_EC2/DepthDuration/v2_depth_duration_MTurk/v2_DepthDuration_HTML.html#4,4,1364,625,1364,768,8-22-2022,9-30-10,21,depth_duration_stimuli/000709_2014-06-08_13-51-55_260595134347_rgbf000068-resize_3/000709_2014-06-08_13-51-55_260595134347_rgbf000068-resize_3-target.png,1000,1.8030000000000002,5,7699,1012,meters,jsons/v1_VE1000_randls_17.json,835762,980646,48,Woman
21,381681,DepthScenes,duration_manipulation_targetAtFixation,jsons/v1_VE1000_randls_17.json,http://54.235.29.9/FacialAge/BNav_EC2/DepthDuration/v2_depth_duration_MTurk/v2_DepthDuration_HTML.html#4,4,1364,625,1364,768,8-22-2022,9-30-10,22,depth_duration_stimuli/002905_2014-06-03_18-04-43_094959634447_rgbf000151-resize_2/002905_2014-06-03_18-04-43_094959634447_rgbf000151-resize_2-target.png,1000,2.0295,5,3590,1007,meters,jsons/v1_VE1000_randls_17.json,835762,980646,48,Woman
22,381681,DepthScenes,duration_manipulation_targetAtFixation,jsons/v1_VE1000_randls_17.json,http://54.235.29.9/FacialAge/BNav_EC2/DepthDuration/v2_depth_duration_MTurk/v2_DepthDuration_HTML.html#4,4,1364,625,1364,768,8-22-2022,9-30-10,23,depth_duration_stimuli/003423_2014-05-21_10-23-26_094959634447_rgbf002665-resize_2/003423_2014-05-21_10-23-26_094959634447_rgbf002665-resize_2-target.png,1000,3.2575,5,4828,992,meters,jsons/v1_VE1000_randls_17.json,835762,980646,48,Woman
23,381681,DepthScenes,duration_manipulation_targetAtFixation,jsons/v1_VE1000_randls_17.json,http://54.235.29.9/FacialAge/BNav_EC2/DepthDuration/v2_depth_duration_MTurk/v2_DepthDuration_HTML.html#4,4,1364,625,1364,768,8-22-2022,9-30-10,24,depth_duration_stimuli/001806_2014-06-26_20-50-20_260595134347_rgbf000091-resize_1/001806_2014-06-26_20-50-20_260595134347_rgbf000091-resize_1-target.png,1000,2.7305,5,3161,999,meters,jsons/v1_VE1000_randls_17.json,835762,980646,48,Woman
24,381681,DepthScenes,duration_manipulation_targetAtFixation,jsons/v1_VE1000_randls_17.json,http://54.235.29.9/FacialAge/BNav_EC2/DepthDuration/v2_depth_duration_MTurk/v2_DepthDuration_HTML.html#4,4,1364,625,1364,768,8-22-2022,9-30-10,25,depth_duration_stimuli/001617_2014-06-20_11-35-32_260595134347_rgbf000066-resize_1/001617_2014-06-20_11-35-32_260595134347_rgbf000066-resize_1-target.png,1000,3.7910000000000004,4,3011,1002,meters,jsons/v1_VE1000_randls_17.json,835762,980646,48,Woman
25,381681,DepthScenes,duration_manipulation_targetAtFixation,jsons/v1_VE1000_randls_17.json,http://54.235.29.9/FacialAge/BNav_EC2/DepthDuration/v2_depth_duration_MTurk/v2_DepthDuration_HTML.html#4,4,1364,625,1364,768,8-22-2022,9-30-10,26,depth_duration_stimuli/001158_2014-06-17_15-32-16_260595134347_rgbf000138-resize_2/001158_2014-06-17_15-32-16_260595134347_rgbf000138-resize_2-target.png,1000,4.5315,4,4741,994,meters,jsons/v1_VE1000_randls_17.json,835762,980646,48,Woman
26,381681,DepthScenes,duration_manipulation_targetAtFixation,jsons/v1_VE1000_randls_17.json,http://54.235.29.9/FacialAge/BNav_EC2/DepthDuration/v2_depth_duration_MTurk/v2_DepthDuration_HTML.html#4,4,1364,625,1364,768,8-22-2022,9-30-10,27,depth_duration_stimuli/000556_2014-06-09_22-42-56_260595134347_rgbf000214-resize_1/000556_2014-06-09_22-42-56_260595134347_rgbf000214-resize_1-target.png,1000,4.8415,2,6570,991,meters,jsons/v1_VE1000_randls_17.json,835762,980646,48,Woman
27,381681,DepthScenes,duration_manipulation_targetAtFixation,jsons/v1_VE1000_randls_17.json,http://54.235.29.9/FacialAge/BNav_EC2/DepthDuration/v2_depth_duration_MTurk/v2_DepthDuration_HTML.html#4,4,1364,625,1364,768,8-22-2022,9-30-10,28,depth_duration_stimuli/002549_2014-06-24_13-41-39_094959634447_rgbf000022-resize_3/002549_2014-06-24_13-41-39_094959634447_rgbf000022-resize_3-target.png,1000,1.476,2,3445,1005,meters,jsons/v1_VE1000_randls_17.json,835762,980646,48,Woman
28,381681,DepthScenes,duration_manipulation_targetAtFixation,jsons/v1_VE1000_randls_17.json,http://54.235.29.9/FacialAge/BNav_EC2/DepthDuration/v2_depth_duration_MTurk/v2_DepthDuration_HTML.html#4,4,1364,625,1364,768,8-22-2022,9-30-10,29,depth_duration_stimuli/002750_2014-06-22_19-08-03_094959634447_rgbf000094-resize_4/002750_2014-06-22_19-08-03_094959634447_rgbf000094-resize_4-target.png,1000,2.354,4,2856,1013,meters,jsons/v1_VE1000_randls_17.json,835762,980646,48,Woman
29,381681,DepthScenes,duration_manipulation_targetAtFixation,jsons/v1_VE1000_randls_17.json,http://54.235.29.9/FacialAge/BNav_EC2/DepthDuration/v2_depth_duration_MTurk/v2_DepthDuration_HTML.html#4,4,1364,625,1364,768,8-22-2022,9-30-10,30,depth_duration_stimuli/000375_2014-06-08_11-17-29_260595134347_rgbf000133-resize_2/000375_2014-06-08_11-17-29_260595134347_rgbf000133-resize-original.jpg,1000,4.718,5,5320,986,meters,jsons/v1_VE1000_randls_17.json,835762,980646,48,Woman
30,381681,DepthScenes,duration_manipulation_targetAtFixation,jsons/v1_VE1000_randls_17.json,http://54.235.29.9/FacialAge/BNav_EC2/DepthDuration/v2_depth_duration_MTurk/v2_DepthDuration_HTML.html#4,4,1364,625,1364,768,8-22-2022,9-30-10,31,depth_duration_stimuli/002118_2014-06-25_20-32-08_260595134347_rgbf000078-resize_1/002118_2014-06-25_20-32-08_260595134347_rgbf000078-resize_1-target.png,1000,2.6460000000000004,2,6854,994,meters,jsons/v1_VE1000_randls_17.json,835762,980646,48,Woman
31,381681,DepthScenes,duration_manipulation_targetAtFixation,jsons/v1_VE1000_randls_17.json,http://54.235.29.9/FacialAge/BNav_EC2/DepthDuration/v2_depth_duration_MTurk/v2_DepthDuration_HTML.html#4,4,1364,625,1364,768,8-22-2022,9-30-10,32,depth_duration_stimuli/001516_2014-06-20_16-25-09_260595134347_rgbf000076-resize_2/001516_2014-06-20_16-25-09_260595134347_rgbf000076-resize_2-target.png,1000,1.7445,5,3059,1000,meters,jsons/v1_VE1000_randls_17.json,835762,980646,48,Woman
32,381681,DepthScenes,duration_manipulation_targetAtFixation,jsons/v1_VE1000_randls_17.json,http://54.235.29.9/FacialAge/BNav_EC2/DepthDuration/v2_depth_duration_MTurk/v2_DepthDuration_HTML.html#4,4,1364,625,1364,768,8-22-2022,9-30-10,33,depth_duration_stimuli/002043_2014-06-24_20-29-38_260595134347_rgbf000039-resize_4/002043_2014-06-24_20-29-38_260595134347_rgbf000039-resize_4-target.png,1000,2.8435,54,19525,988,meters,jsons/v1_VE1000_randls_17.json,835762,980646,48,Woman
33,381681,DepthScenes,duration_manipulation_targetAtFixation,jsons/v1_VE1000_randls_17.json,http://54.235.29.9/FacialAge/BNav_EC2/DepthDuration/v2_depth_duration_MTurk/v2_DepthDuration_HTML.html#4,4,1364,625,1364,768,8-22-2022,9-30-10,34,depth_duration_stimuli/003048_2014-06-15_13-49-43_094959634447_rgbf000150-resize_1/003048_2014-06-15_13-49-43_094959634447_rgbf000150-resize_1-target.png,1000,4.0035,54,4365,998,meters,jsons/v1_VE1000_randls_17.json,835762,980646,48,Woman
34,381681,DepthScenes,duration_manipulation_targetAtFixation,jsons/v1_VE1000_randls_17.json,http://54.235.29.9/FacialAge/BNav_EC2/DepthDuration/v2_depth_duration_MTurk/v2_DepthDuration_HTML.html#4,4,1364,625,1364,768,8-22-2022,9-30-10,35,depth_duration_stimuli/000506_2014-06-08_23-21-00_260595134347_rgbf000070-resize_7/000506_2014-06-08_23-21-00_260595134347_rgbf000070-resize_7-target.png,1000,4.0585,45,4063,996,meters,jsons/v1_VE1000_randls_17.json,835762,980646,48,Woman
35,381681,DepthScenes,duration_manipulation_targetAtFixation,jsons/v1_VE1000_randls_17.json,http://54.235.29.9/FacialAge/BNav_EC2/DepthDuration/v2_depth_duration_MTurk/v2_DepthDuration_HTML.html#4,4,1364,625,1364,768,8-22-2022,9-30-10,36,depth_duration_stimuli/003079_2014-06-15_15-18-20_094959634447_rgbf000152-resize_8/003079_2014-06-15_15-18-20_094959634447_rgbf000152-resize_8-target.png,1000,2.8775,2,6217,999,meters,jsons/v1_VE1000_randls_17.json,835762,980646,48,Woman
36,381681,DepthScenes,duration_manipulation_targetAtFixation,jsons/v1_VE1000_randls_17.json,http://54.235.29.9/FacialAge/BNav_EC2/DepthDuration/v2_depth_duration_MTurk/v2_DepthDuration_HTML.html#4,4,1364,625,1364,768,8-22-2022,9-30-10,37,depth_duration_stimuli/001056_2014-06-08_18-46-44_260595134347_rgbf000068-resize_0/001056_2014-06-08_18-46-44_260595134347_rgbf000068-resize_0-target.png,1000,2.6625,5,17841,988,meters,jsons/v1_VE1000_randls_17.json,835762,980646,48,Woman
37,381681,DepthScenes,duration_manipulation_targetAtFixation,jsons/v1_VE1000_randls_17.json,http://54.235.29.9/FacialAge/BNav_EC2/DepthDuration/v2_depth_duration_MTurk/v2_DepthDuration_HTML.html#4,4,1364,625,1364,768,8-22-2022,9-30-10,38,depth_duration_stimuli/002199_2014-06-28_18-33-56_260595134347_rgbf000074-resize_0/002199_2014-06-28_18-33-56_260595134347_rgbf000074-resize_0-target.png,1000,1.996,5,31901,1001,meters,jsons/v1_VE1000_randls_17.json,835762,980646,48,Woman
38,381681,DepthScenes,duration_manipulation_targetAtFixation,jsons/v1_VE1000_randls_17.json,http://54.235.29.9/FacialAge/BNav_EC2/DepthDuration/v2_depth_duration_MTurk/v2_DepthDuration_HTML.html#4,4,1364,625,1364,768,8-22-2022,9-30-10,39,depth_duration_stimuli/002663_2014-06-13_15-50-26_094959634447_rgbf000075-resize_1/002663_2014-06-13_15-50-26_094959634447_rgbf000075-resize_1-target.png,1000,4.7495,58,4929,998,meters,jsons/v1_VE1000_randls_17.json,835762,980646,48,Woman
39,381681,DepthScenes,duration_manipulation_targetAtFixation,jsons/v1_VE1000_randls_17.json,http://54.235.29.9/FacialAge/BNav_EC2/DepthDuration/v2_depth_duration_MTurk/v2_DepthDuration_HTML.html#4,4,1364,625,1364,768,8-22-2022,9-30-10,40,depth_duration_stimuli/000409_2014-06-04_19-23-33_260595134347_rgbf000067-resize_0/000409_2014-06-04_19-23-33_260595134347_rgbf000067-resize_0-target.png,1000,3.7335,63,13268,1000,meters,jsons/v1_VE1000_randls_17.json,835762,980646,48,Woman
40,381681,DepthScenes,duration_manipulation_targetAtFixation,jsons/v1_VE1000_randls_17.json,http://54.235.29.9/FacialAge/BNav_EC2/DepthDuration/v2_depth_duration_MTurk/v2_DepthDuration_HTML.html#4,4,1364,625,1364,768,8-22-2022,9-30-10,41,depth_duration_stimuli/001150_2014-06-17_15-27-34_260595134347_rgbf000108-resize_2/001150_2014-06-17_15-27-34_260595134347_rgbf000108-resize_2-target.png,1000,4.0325,5,9988,986,meters,jsons/v1_VE1000_randls_17.json,835762,980646,48,Woman
41,381681,DepthScenes,duration_manipulation_targetAtFixation,jsons/v1_VE1000_randls_17.json,http://54.235.29.9/FacialAge/BNav_EC2/DepthDuration/v2_depth_duration_MTurk/v2_DepthDuration_HTML.html#4,4,1364,625,1364,768,8-22-2022,9-30-10,42,depth_duration_stimuli/000665_2014-06-09_20-42-35_260595134347_rgbf000110-resize_1/000665_2014-06-09_20-42-35_260595134347_rgbf000110-resize_1-target.png,1000,3.057,5,3131,985,meters,jsons/v1_VE1000_randls_17.json,835762,980646,48,Woman
42,381681,DepthScenes,duration_manipulation_targetAtFixation,jsons/v1_VE1000_randls_17.json,http://54.235.29.9/FacialAge/BNav_EC2/DepthDuration/v2_depth_duration_MTurk/v2_DepthDuration_HTML.html#4,4,1364,625,1364,768,8-22-2022,9-30-10,43,depth_duration_stimuli/000470_2014-06-09_19-42-40_260595134347_rgbf000094-resize_1/000470_2014-06-09_19-42-40_260595134347_rgbf000094-resize_1-target.png,1000,1.831,5,3560,989,meters,jsons/v1_VE1000_randls_17.json,835762,980646,48,Woman
43,381681,DepthScenes,duration_manipulation_targetAtFixation,jsons/v1_VE1000_randls_17.json,http://54.235.29.9/FacialAge/BNav_EC2/DepthDuration/v2_depth_duration_MTurk/v2_DepthDuration_HTML.html#4,4,1364,625,1364,768,8-22-2022,9-30-10,44,depth_duration_stimuli/000109_2014-05-14_23-41-52_260595134347_rgbf000035-resize_9/000109_2014-05-14_23-41-52_260595134347_rgbf000035-resize_9-target.png,1000,1.3545,5,3220,1013,meters,jsons/v1_VE1000_randls_17.json,835762,980646,48,Woman
44,381681,DepthScenes,duration_manipulation_targetAtFixation,jsons/v1_VE1000_randls_17.json,http://54.235.29.9/FacialAge/BNav_EC2/DepthDuration/v2_depth_duration_MTurk/v2_DepthDuration_HTML.html#4,4,1364,625,1364,768,8-22-2022,9-30-10,45,depth_duration_stimuli/000787_2014-06-08_22-33-53_260595134347_rgbf000175-resize_1/000787_2014-06-08_22-33-53_260595134347_rgbf000175-resize-original.jpg,1000,4.784,5,3726,990,meters,jsons/v1_VE1000_randls_17.json,835762,980646,48,Woman
45,381681,DepthScenes,duration_manipulation_targetAtFixation,jsons/v1_VE1000_randls_17.json,http://54.235.29.9/FacialAge/BNav_EC2/DepthDuration/v2_depth_duration_MTurk/v2_DepthDuration_HTML.html#4,4,1364,625,1364,768,8-22-2022,9-30-10,46,depth_duration_stimuli/001133_2014-06-17_14-49-16_260595134347_rgbf000100-resize_0/001133_2014-06-17_14-49-16_260595134347_rgbf000100-resize_0-target.png,1000,4.2115,5,4228,999,meters,jsons/v1_VE1000_randls_17.json,835762,980646,48,Woman
46,381681,DepthScenes,duration_manipulation_targetAtFixation,jsons/v1_VE1000_randls_17.json,http://54.235.29.9/FacialAge/BNav_EC2/DepthDuration/v2_depth_duration_MTurk/v2_DepthDuration_HTML.html#4,4,1364,625,1364,768,8-22-2022,9-30-10,47,depth_duration_stimuli/001132_2014-06-17_14-48-54_260595134347_rgbf000100-resize_2/001132_2014-06-17_14-48-54_260595134347_rgbf000100-resize_2-target.png,1000,3.753,5,3295,1012,meters,jsons/v1_VE1000_randls_17.json,835762,980646,48,Woman
47,381681,DepthScenes,duration_manipulation_targetAtFixation,jsons/v1_VE1000_randls_17.json,http://54.235.29.9/FacialAge/BNav_EC2/DepthDuration/v2_depth_duration_MTurk/v2_DepthDuration_HTML.html#4,4,1364,625,1364,768,8-22-2022,9-30-10,48,depth_duration_stimuli/001167_2014-06-17_15-38-07_260595134347_rgbf000108-resize_0/001167_2014-06-17_15-38-07_260595134347_rgbf000108-resize_0-target.png,1000,1.8505,5,17402,1002,meters,jsons/v1_VE1000_randls_17.json,835762,980646,48,Woman
48,381681,DepthScenes,duration_manipulation_targetAtFixation,jsons/v1_VE1000_randls_17.json,http://54.235.29.9/FacialAge/BNav_EC2/DepthDuration/v2_depth_duration_MTurk/v2_DepthDuration_HTML.html#4,4,1364,625,1364,768,8-22-2022,9-30-10,49,depth_duration_stimuli/003587_2014-05-23_16-48-02_094959634447_rgbf002384-resize_2/003587_2014-05-23_16-48-02_094959634447_rgbf002384-resize_2-target.png,1000,1.357,5,2286,998,meters,jsons/v1_VE1000_randls_17.json,835762,980646,48,Woman
49,381681,DepthScenes,duration_manipulation_targetAtFixation,jsons/v1_VE1000_randls_17.json,http://54.235.29.9/FacialAge/BNav_EC2/DepthDuration/v2_depth_duration_MTurk/v2_DepthDuration_HTML.html#4,4,1364,625,1364,768,8-22-2022,9-30-10,50,depth_duration_stimuli/002445_2014-06-28_20-32-16_260595134347_rgbf000029-resize_4/002445_2014-06-28_20-32-16_260595134347_rgbf000029-resize_4-target.png,1000,2.5315,5,2533,997,meters,jsons/v1_VE1000_randls_17.json,835762,980646,48,Woman
50,381681,DepthScenes,duration_manipulation_targetAtFixation,jsons/v1_VE1000_randls_17.json,http://54.235.29.9/FacialAge/BNav_EC2/DepthDuration/v2_depth_duration_MTurk/v2_DepthDuration_HTML.html#4,4,1364,625,1364,768,8-22-2022,9-30-10,51,depth_duration_stimuli/000780_2014-06-08_22-28-29_260595134347_rgbf000126-resize_1/000780_2014-06-08_22-28-29_260595134347_rgbf000126-resize_1-target.png,1000,3.3825,5,2412,999,meters,jsons/v1_VE1000_randls_17.json,835762,980646,48,Woman
51,381681,DepthScenes,duration_manipulation_targetAtFixation,jsons/v1_VE1000_randls_17.json,http://54.235.29.9/FacialAge/BNav_EC2/DepthDuration/v2_depth_duration_MTurk/v2_DepthDuration_HTML.html#4,4,1364,625,1364,768,8-22-2022,9-30-10,52,depth_duration_stimuli/001029_2014-06-08_13-17-57_260595134347_rgbf000065-resize_1/001029_2014-06-08_13-17-57_260595134347_rgbf000065-resize_1-target.png,1000,3.0835,5,2722,995,meters,jsons/v1_VE1000_randls_17.json,835762,980646,48,Woman
52,381681,DepthScenes,duration_manipulation_targetAtFixation,jsons/v1_VE1000_randls_17.json,http://54.235.29.9/FacialAge/BNav_EC2/DepthDuration/v2_depth_duration_MTurk/v2_DepthDuration_HTML.html#4,4,1364,625,1364,768,8-22-2022,9-30-10,53,depth_duration_stimuli/000677_2014-06-08_23-10-32_260595134347_rgbf000158-resize_6/000677_2014-06-08_23-10-32_260595134347_rgbf000158-resize_6-target.png,1000,3.556,5,2411,1003,meters,jsons/v1_VE1000_randls_17.json,835762,980646,48,Woman
53,381681,DepthScenes,duration_manipulation_targetAtFixation,jsons/v1_VE1000_randls_17.json,http://54.235.29.9/FacialAge/BNav_EC2/DepthDuration/v2_depth_duration_MTurk/v2_DepthDuration_HTML.html#4,4,1364,625,1364,768,8-22-2022,9-30-10,54,depth_duration_stimuli/003534_2014-05-22_15-06-10_094959634447_rgbf000102-resize_4/003534_2014-05-22_15-06-10_094959634447_rgbf000102-resize_4-target.png,1000,1.426,4,3018,975,meters,jsons/v1_VE1000_randls_17.json,835762,980646,48,Woman
54,381681,DepthScenes,duration_manipulation_targetAtFixation,jsons/v1_VE1000_randls_17.json,http://54.235.29.9/FacialAge/BNav_EC2/DepthDuration/v2_depth_duration_MTurk/v2_DepthDuration_HTML.html#4,4,1364,625,1364,768,8-22-2022,9-30-10,55,depth_duration_stimuli/002637_2014-06-24_14-51-13_094959634447_rgbf000066-resize_4/002637_2014-06-24_14-51-13_094959634447_rgbf000066-resize_4-target.png,1000,1.9955,4,2561,997,meters,jsons/v1_VE1000_randls_17.json,835762,980646,48,Woman
55,381681,DepthScenes,duration_manipulation_targetAtFixation,jsons/v1_VE1000_randls_17.json,http://54.235.29.9/FacialAge/BNav_EC2/DepthDuration/v2_depth_duration_MTurk/v2_DepthDuration_HTML.html#4,4,1364,625,1364,768,8-22-2022,9-30-10,56,depth_duration_stimuli/002988_2014-06-15_12-24-20_094959634447_rgbf000150-resize_1/002988_2014-06-15_12-24-20_094959634447_rgbf000150-resize_1-target.png,1000,4.7669999999999995,4,2827,1001,meters,jsons/v1_VE1000_randls_17.json,835762,980646,48,Woman
56,381681,DepthScenes,duration_manipulation_targetAtFixation,jsons/v1_VE1000_randls_17.json,http://54.235.29.9/FacialAge/BNav_EC2/DepthDuration/v2_depth_duration_MTurk/v2_DepthDuration_HTML.html#4,4,1364,625,1364,768,8-22-2022,9-30-10,57,depth_duration_stimuli/001052_2014-06-08_18-24-54_260595134347_rgbf000130-resize_1/001052_2014-06-08_18-24-54_260595134347_rgbf000130-resize_1-target.png,1000,4.1045,4,2948,999,meters,jsons/v1_VE1000_randls_17.json,835762,980646,48,Woman
57,381681,DepthScenes,duration_manipulation_targetAtFixation,jsons/v1_VE1000_randls_17.json,http://54.235.29.9/FacialAge/BNav_EC2/DepthDuration/v2_depth_duration_MTurk/v2_DepthDuration_HTML.html#4,4,1364,625,1364,768,8-22-2022,9-30-10,58,depth_duration_stimuli/001059_2014-06-08_21-53-27_260595134347_rgbf000061-resize_4/001059_2014-06-08_21-53-27_260595134347_rgbf000061-resize_4-target.png,1000,2.4185,4,2656,1010,meters,jsons/v1_VE1000_randls_17.json,835762,980646,48,Woman
58,381681,DepthScenes,duration_manipulation_targetAtFixation,jsons/v1_VE1000_randls_17.json,http://54.235.29.9/FacialAge/BNav_EC2/DepthDuration/v2_depth_duration_MTurk/v2_DepthDuration_HTML.html#4,4,1364,625,1364,768,8-22-2022,9-30-10,59,depth_duration_stimuli/001032_2014-06-08_13-23-17_260595134347_rgbf000021-resize_3/001032_2014-06-08_13-23-17_260595134347_rgbf000021-resize_3-target.png,1000,3.2725,4,2637,1008,meters,jsons/v1_VE1000_randls_17.json,835762,980646,48,Woman
59,381681,DepthScenes,duration_manipulation_targetAtFixation,jsons/v1_VE1000_randls_17.json,http://54.235.29.9/FacialAge/BNav_EC2/DepthDuration/v2_depth_duration_MTurk/v2_DepthDuration_HTML.html#4,4,1364,625,1364,768,8-22-2022,9-30-10,60,depth_duration_stimuli/002964_2014-06-08_17-46-11_094959634447_rgbf000091-resize_4/002964_2014-06-08_17-46-11_094959634447_rgbf000091-resize_4-target.png,1000,1.6909999999999998,4,2585,1003,meters,jsons/v1_VE1000_randls_17.json,835762,980646,48,Woman
60,381681,DepthScenes,duration_manipulation_targetAtFixation,jsons/v1_VE1000_randls_17.json,http://54.235.29.9/FacialAge/BNav_EC2/DepthDuration/v2_depth_duration_MTurk/v2_DepthDuration_HTML.html#4,4,1364,625,1364,768,8-22-2022,9-30-10,61,depth_duration_stimuli/002136_2014-06-25_21-18-03_260595134347_rgbf000109-resize_3/002136_2014-06-25_21-18-03_260595134347_rgbf000109-resize_3-target.png,1000,1.9569999999999999,4,2507,987,meters,jsons/v1_VE1000_randls_17.json,835762,980646,48,Woman
61,381681,DepthScenes,duration_manipulation_targetAtFixation,jsons/v1_VE1000_randls_17.json,http://54.235.29.9/FacialAge/BNav_EC2/DepthDuration/v2_depth_duration_MTurk/v2_DepthDuration_HTML.html#4,4,1364,625,1364,768,8-22-2022,9-30-10,62,depth_duration_stimuli/002989_2014-06-15_12-25-03_094959634447_rgbf000150-resize_3/002989_2014-06-15_12-25-03_094959634447_rgbf000150-resize_3-target.png,1000,4.1975,4,2806,996,meters,jsons/v1_VE1000_randls_17.json,835762,980646,48,Woman
62,381681,DepthScenes,duration_manipulation_targetAtFixation,jsons/v1_VE1000_randls_17.json,http://54.235.29.9/FacialAge/BNav_EC2/DepthDuration/v2_depth_duration_MTurk/v2_DepthDuration_HTML.html#4,4,1364,625,1364,768,8-22-2022,9-30-10,63,depth_duration_stimuli/000866_2014-06-09_20-45-42_260595134347_rgbf000139-resize_1/000866_2014-06-09_20-45-42_260595134347_rgbf000139-resize_1-target.png,1000,3.2155,4,2395,994,meters,jsons/v1_VE1000_randls_17.json,835762,980646,48,Woman
63,381681,DepthScenes,duration_manipulation_targetAtFixation,jsons/v1_VE1000_randls_17.json,http://54.235.29.9/FacialAge/BNav_EC2/DepthDuration/v2_depth_duration_MTurk/v2_DepthDuration_HTML.html#4,4,1364,625,1364,768,8-22-2022,9-30-10,64,depth_duration_stimuli/002153_2014-06-25_21-27-18_260595134347_rgbf000038-resize_5/002153_2014-06-25_21-27-18_260595134347_rgbf000038-resize_5-target.png,1000,2.505,4,2999,993,meters,jsons/v1_VE1000_randls_17.json,835762,980646,48,Woman
64,381681,DepthScenes,duration_manipulation_targetAtFixation,jsons/v1_VE1000_randls_17.json,http://54.235.29.9/FacialAge/BNav_EC2/DepthDuration/v2_depth_duration_MTurk/v2_DepthDuration_HTML.html#4,4,1364,625,1364,768,8-22-2022,9-30-10,65,depth_duration_stimuli/002660_2014-06-13_15-44-18_094959634447_rgbf001878-resize_2/002660_2014-06-13_15-44-18_094959634447_rgbf001878-resize_2-target.png,1000,3.576,4,4522,996,meters,jsons/v1_VE1000_randls_17.json,835762,980646,48,Woman
65,381681,DepthScenes,duration_manipulation_targetAtFixation,jsons/v1_VE1000_randls_17.json,http://54.235.29.9/FacialAge/BNav_EC2/DepthDuration/v2_depth_duration_MTurk/v2_DepthDuration_HTML.html#4,4,1364,625,1364,768,8-22-2022,9-30-10,66,depth_duration_stimuli/001222_2014-06-17_16-24-06_260595134347_rgbf000073-resize_0/001222_2014-06-17_16-24-06_260595134347_rgbf000073-resize-original.jpg,1000,1.4385,4,3467,983,meters,jsons/v1_VE1000_randls_17.json,835762,980646,48,Woman
66,381681,DepthScenes,duration_manipulation_targetAtFixation,jsons/v1_VE1000_randls_17.json,http://54.235.29.9/FacialAge/BNav_EC2/DepthDuration/v2_depth_duration_MTurk/v2_DepthDuration_HTML.html#4,4,1364,625,1364,768,8-22-2022,9-30-10,67,depth_duration_stimuli/000493_2014-06-09_21-01-18_260595134347_rgbf000196-resize_3/000493_2014-06-09_21-01-18_260595134347_rgbf000196-resize_3-target.png,1000,3.44,4,2698,999,meters,jsons/v1_VE1000_randls_17.json,835762,980646,48,Woman
67,381681,DepthScenes,duration_manipulation_targetAtFixation,jsons/v1_VE1000_randls_17.json,http://54.235.29.9/FacialAge/BNav_EC2/DepthDuration/v2_depth_duration_MTurk/v2_DepthDuration_HTML.html#4,4,1364,625,1364,768,8-22-2022,9-30-10,68,depth_duration_stimuli/000191_2014-05-12_17-07-38_260595134347_rgbf000199-resize_0/000191_2014-05-12_17-07-38_260595134347_rgbf000199-resize_0-target.png,1000,3.7995,4,2990,995,meters,jsons/v1_VE1000_randls_17.json,835762,980646,48,Woman
68,381681,DepthScenes,duration_manipulation_targetAtFixation,jsons/v1_VE1000_randls_17.json,http://54.235.29.9/FacialAge/BNav_EC2/DepthDuration/v2_depth_duration_MTurk/v2_DepthDuration_HTML.html#4,4,1364,625,1364,768,8-22-2022,9-30-10,69,depth_duration_stimuli/000758_2014-06-08_22-05-08_260595134347_rgbf000085-resize_0/000758_2014-06-08_22-05-08_260595134347_rgbf000085-resize_0-target.png,1000,3.3810000000000002,5,2681,1010,meters,jsons/v1_VE1000_randls_17.json,835762,980646,48,Woman
69,381681,DepthScenes,duration_manipulation_targetAtFixation,jsons/v1_VE1000_randls_17.json,http://54.235.29.9/FacialAge/BNav_EC2/DepthDuration/v2_depth_duration_MTurk/v2_DepthDuration_HTML.html#4,4,1364,625,1364,768,8-22-2022,9-30-10,70,depth_duration_stimuli/000854_2014-06-09_19-43-13_260595134347_rgbf000066-resize_0/000854_2014-06-09_19-43-13_260595134347_rgbf000066-resize_0-target.png,1000,3.068,5,2861,993,meters,jsons/v1_VE1000_randls_17.json,835762,980646,48,Woman
70,381681,DepthScenes,duration_manipulation_targetAtFixation,jsons/v1_VE1000_randls_17.json,http://54.235.29.9/FacialAge/BNav_EC2/DepthDuration/v2_depth_duration_MTurk/v2_DepthDuration_HTML.html#4,4,1364,625,1364,768,8-22-2022,9-30-10,71,depth_duration_stimuli/001092_2014-06-15_17-34-58_260595134347_rgbf000171-resize_3/001092_2014-06-15_17-34-58_260595134347_rgbf000171-resize_3-target.png,1000,2.6935,5,2811,995,meters,jsons/v1_VE1000_randls_17.json,835762,980646,48,Woman
71,381681,DepthScenes,duration_manipulation_targetAtFixation,jsons/v1_VE1000_randls_17.json,http://54.235.29.9/FacialAge/BNav_EC2/DepthDuration/v2_depth_duration_MTurk/v2_DepthDuration_HTML.html#4,4,1364,625,1364,768,8-22-2022,9-30-10,72,depth_duration_stimuli/002545_2014-06-24_13-38-53_094959634447_rgbf000080-resize_4/002545_2014-06-24_13-38-53_094959634447_rgbf000080-resize_4-target.png,1000,1.9205,5,2463,994,meters,jsons/v1_VE1000_randls_17.json,835762,980646,48,Woman
72,381681,DepthScenes,duration_manipulation_targetAtFixation,jsons/v1_VE1000_randls_17.json,http://54.235.29.9/FacialAge/BNav_EC2/DepthDuration/v2_depth_duration_MTurk/v2_DepthDuration_HTML.html#4,4,1364,625,1364,768,8-22-2022,9-30-10,73,depth_duration_stimuli/002784_2014-06-22_19-26-30_094959634447_rgbf000083-resize_3/002784_2014-06-22_19-26-30_094959634447_rgbf000083-resize_3-target.png,1000,1.8046666666667,5,2627,1000,meters,jsons/v1_VE1000_randls_17.json,835762,980646,48,Woman
73,381681,DepthScenes,duration_manipulation_targetAtFixation,jsons/v1_VE1000_randls_17.json,http://54.235.29.9/FacialAge/BNav_EC2/DepthDuration/v2_depth_duration_MTurk/v2_DepthDuration_HTML.html#4,4,1364,625,1364,768,8-22-2022,9-30-10,74,depth_duration_stimuli/001100_2014-06-15_17-46-26_260595134347_rgbf000225-resize_2/001100_2014-06-15_17-46-26_260595134347_rgbf000225-resize_2-target.png,1000,2.24,5,2409,1001,meters,jsons/v1_VE1000_randls_17.json,835762,980646,48,Woman
74,381681,DepthScenes,duration_manipulation_targetAtFixation,jsons/v1_VE1000_randls_17.json,http://54.235.29.9/FacialAge/BNav_EC2/DepthDuration/v2_depth_duration_MTurk/v2_DepthDuration_HTML.html#4,4,1364,625,1364,768,8-22-2022,9-30-10,75,depth_duration_stimuli/000682_2014-06-08_23-14-58_260595134347_rgbf000041-resize_5/000682_2014-06-08_23-14-58_260595134347_rgbf000041-resize_5-target.png,1000,2.7239999999999998,5,2638,998,meters,jsons/v1_VE1000_randls_17.json,835762,980646,48,Woman
75,381681,DepthScenes,duration_manipulation_targetAtFixation,jsons/v1_VE1000_randls_17.json,http://54.235.29.9/FacialAge/BNav_EC2/DepthDuration/v2_depth_duration_MTurk/v2_DepthDuration_HTML.html#4,4,1364,625,1364,768,8-22-2022,9-30-10,76,depth_duration_stimuli/001650_2014-06-20_12-09-00_260595134347_rgbf000087-resize_3/001650_2014-06-20_12-09-00_260595134347_rgbf000087-resize_3-target.png,1000,1.9505,5,2641,995,meters,jsons/v1_VE1000_randls_17.json,835762,980646,48,Woman
76,381681,DepthScenes,duration_manipulation_targetAtFixation,jsons/v1_VE1000_randls_17.json,http://54.235.29.9/FacialAge/BNav_EC2/DepthDuration/v2_depth_duration_MTurk/v2_DepthDuration_HTML.html#4,4,1364,625,1364,768,8-22-2022,9-30-10,77,depth_duration_stimuli/001055_2014-06-08_18-45-35_260595134347_rgbf000111-resize_4/001055_2014-06-08_18-45-35_260595134347_rgbf000111-resize_4-target.png,1000,2.4290000000000003,5,2358,999,meters,jsons/v1_VE1000_randls_17.json,835762,980646,48,Woman
77,381681,DepthScenes,duration_manipulation_targetAtFixation,jsons/v1_VE1000_randls_17.json,http://54.235.29.9/FacialAge/BNav_EC2/DepthDuration/v2_depth_duration_MTurk/v2_DepthDuration_HTML.html#4,4,1364,625,1364,768,8-22-2022,9-30-10,78,depth_duration_stimuli/000549_2014-06-08_22-10-24_260595134347_rgbf000247-resize_3/000549_2014-06-08_22-10-24_260595134347_rgbf000247-resize_3-target.png,1000,1.841,5,2481,997,meters,jsons/v1_VE1000_randls_17.json,835762,980646,48,Woman
78,381681,DepthScenes,duration_manipulation_targetAtFixation,jsons/v1_VE1000_randls_17.json,http://54.235.29.9/FacialAge/BNav_EC2/DepthDuration/v2_depth_duration_MTurk/v2_DepthDuration_HTML.html#4,4,1364,625,1364,768,8-22-2022,9-30-10,79,depth_duration_stimuli/000522_2014-06-08_13-35-06_260595134347_rgbf000244-resize_1/000522_2014-06-08_13-35-06_260595134347_rgbf000244-resize_1-target.png,1000,2.3715,5,44372,1008,meters,jsons/v1_VE1000_randls_17.json,835762,980646,48,Woman
79,381681,DepthScenes,duration_manipulation_targetAtFixation,jsons/v1_VE1000_randls_17.json,http://54.235.29.9/FacialAge/BNav_EC2/DepthDuration/v2_depth_duration_MTurk/v2_DepthDuration_HTML.html#4,4,1364,625,1364,768,8-22-2022,9-30-10,80,depth_duration_stimuli/002949_2014-06-26_15-57-42_094959634447_rgbf000079-resize_1/002949_2014-06-26_15-57-42_094959634447_rgbf000079-resize_1-target.png,1000,1.8915,5,5183,999,meters,jsons/v1_VE1000_randls_17.json,835762,980646,48,Woman
80,381681,DepthScenes,duration_manipulation_targetAtFixation,jsons/v1_VE1000_randls_17.json,http://54.235.29.9/FacialAge/BNav_EC2/DepthDuration/v2_depth_duration_MTurk/v2_DepthDuration_HTML.html#4,4,1364,625,1364,768,8-22-2022,9-30-10,81,depth_duration_stimuli/001066_2014-06-08_22-03-20_260595134347_rgbf000066-resize_4/001066_2014-06-08_22-03-20_260595134347_rgbf000066-resize_4-target.png,1000,4.2330000000000005,5,2684,999,meters,jsons/v1_VE1000_randls_17.json,835762,980646,48,Woman
81,381681,DepthScenes,duration_manipulation_targetAtFixation,jsons/v1_VE1000_randls_17.json,http://54.235.29.9/FacialAge/BNav_EC2/DepthDuration/v2_depth_duration_MTurk/v2_DepthDuration_HTML.html#4,4,1364,625,1364,768,8-22-2022,9-30-10,82,depth_duration_stimuli/000742_2014-06-08_18-48-09_260595134347_rgbf000164-resize_4/000742_2014-06-08_18-48-09_260595134347_rgbf000164-resize_4-target.png,1000,4.632,5,5318,1001,meters,jsons/v1_VE1000_randls_17.json,835762,980646,48,Woman
82,381681,DepthScenes,duration_manipulation_targetAtFixation,jsons/v1_VE1000_randls_17.json,http://54.235.29.9/FacialAge/BNav_EC2/DepthDuration/v2_depth_duration_MTurk/v2_DepthDuration_HTML.html#4,4,1364,625,1364,768,8-22-2022,9-30-10,83,depth_duration_stimuli/000368_2014-06-09_15-53-01_260595134347_rgbf000155-resize_2/000368_2014-06-09_15-53-01_260595134347_rgbf000155-resize_2-target.png,1000,2.4859999999999998,5,4777,998,meters,jsons/v1_VE1000_randls_17.json,835762,980646,48,Woman
83,381681,DepthScenes,duration_manipulation_targetAtFixation,jsons/v1_VE1000_randls_17.json,http://54.235.29.9/FacialAge/BNav_EC2/DepthDuration/v2_depth_duration_MTurk/v2_DepthDuration_HTML.html#4,4,1364,625,1364,768,8-22-2022,9-30-10,84,depth_duration_stimuli/002678_2014-06-13_16-15-32_094959634447_rgbf000151-resize_6/002678_2014-06-13_16-15-32_094959634447_rgbf000151-resize_6-target.png,1000,2.1830000000000003,52,15935,1010,meters,jsons/v1_VE1000_randls_17.json,835762,980646,48,Woman
84,381681,DepthScenes,duration_manipulation_targetAtFixation,jsons/v1_VE1000_randls_17.json,http://54.235.29.9/FacialAge/BNav_EC2/DepthDuration/v2_depth_duration_MTurk/v2_DepthDuration_HTML.html#4,4,1364,625,1364,768,8-22-2022,9-30-10,85,depth_duration_stimuli/002788_2014-06-22_19-36-03_094959634447_rgbf000088-resize_2/002788_2014-06-22_19-36-03_094959634447_rgbf000088-resize_2-target.png,1000,1.6465,2,3015,996,meters,jsons/v1_VE1000_randls_17.json,835762,980646,48,Woman
85,381681,DepthScenes,duration_manipulation_targetAtFixation,jsons/v1_VE1000_randls_17.json,http://54.235.29.9/FacialAge/BNav_EC2/DepthDuration/v2_depth_duration_MTurk/v2_DepthDuration_HTML.html#4,4,1364,625,1364,768,8-22-2022,9-30-10,86,depth_duration_stimuli/000749_2014-06-08_21-55-06_260595134347_rgbf000070-resize_2/000749_2014-06-08_21-55-06_260595134347_rgbf000070-resize_2-target.png,1000,2.331,2,2313,1001,meters,jsons/v1_VE1000_randls_17.json,835762,980646,48,Woman
86,381681,DepthScenes,duration_manipulation_targetAtFixation,jsons/v1_VE1000_randls_17.json,http://54.235.29.9/FacialAge/BNav_EC2/DepthDuration/v2_depth_duration_MTurk/v2_DepthDuration_HTML.html#4,4,1364,625,1364,768,8-22-2022,9-30-10,87,depth_duration_stimuli/000917_2014-06-09_22-45-29_260595134347_rgbf000149-resize_3/000917_2014-06-09_22-45-29_260595134347_rgbf000149-resize_3-target.png,1000,4.1865,2,2509,1006,meters,jsons/v1_VE1000_randls_17.json,835762,980646,48,Woman
87,381681,DepthScenes,duration_manipulation_targetAtFixation,jsons/v1_VE1000_randls_17.json,http://54.235.29.9/FacialAge/BNav_EC2/DepthDuration/v2_depth_duration_MTurk/v2_DepthDuration_HTML.html#4,4,1364,625,1364,768,8-22-2022,9-30-10,88,depth_duration_stimuli/002323_2014-06-28_20-01-54_260595134347_rgbf000051-resize_4/002323_2014-06-28_20-01-54_260595134347_rgbf000051-resize_4-target.png,1000,3.7310000000000003,2,2282,992,meters,jsons/v1_VE1000_randls_17.json,835762,980646,48,Woman
88,381681,DepthScenes,duration_manipulation_targetAtFixation,jsons/v1_VE1000_randls_17.json,http://54.235.29.9/FacialAge/BNav_EC2/DepthDuration/v2_depth_duration_MTurk/v2_DepthDuration_HTML.html#4,4,1364,625,1364,768,8-22-2022,9-30-10,89,depth_duration_stimuli/001449_2014-06-19_17-01-27_260595134347_rgbf000116-resize_2/001449_2014-06-19_17-01-27_260595134347_rgbf000116-resize_2-target.png,1000,3.452,2,3520,995,meters,jsons/v1_VE1000_randls_17.json,835762,980646,48,Woman
89,381681,DepthScenes,duration_manipulation_targetAtFixation,jsons/v1_VE1000_randls_17.json,http://54.235.29.9/FacialAge/BNav_EC2/DepthDuration/v2_depth_duration_MTurk/v2_DepthDuration_HTML.html#4,4,1364,625,1364,768,8-22-2022,9-30-10,90,depth_duration_stimuli/001450_2014-06-19_17-02-03_260595134347_rgbf000203-resize_4/001450_2014-06-19_17-02-03_260595134347_rgbf000203-resize_4-target.png,1000,4.0106666666667,2,3261,999,meters,jsons/v1_VE1000_randls_17.json,835762,980646,48,Woman
90,381681,DepthScenes,duration_manipulation_targetAtFixation,jsons/v1_VE1000_randls_17.json,http://54.235.29.9/FacialAge/BNav_EC2/DepthDuration/v2_depth_duration_MTurk/v2_DepthDuration_HTML.html#4,4,1364,625,1364,768,8-22-2022,9-30-10,91,depth_duration_stimuli/001016_2014-06-09_16-16-10_260595134347_rgbf000112-resize_5/001016_2014-06-09_16-16-10_260595134347_rgbf000112-resize_5-target.png,1000,1.6565,2,2630,1000,meters,jsons/v1_VE1000_randls_17.json,835762,980646,48,Woman
91,381681,DepthScenes,duration_manipulation_targetAtFixation,jsons/v1_VE1000_randls_17.json,http://54.235.29.9/FacialAge/BNav_EC2/DepthDuration/v2_depth_duration_MTurk/v2_DepthDuration_HTML.html#4,4,1364,625,1364,768,8-22-2022,9-30-10,92,depth_duration_stimuli/002340_2014-06-28_20-05-46_260595134347_rgbf000113-resize_0/002340_2014-06-28_20-05-46_260595134347_rgbf000113-resize_0-target.png,1000,2.4735,2,2184,998,meters,jsons/v1_VE1000_randls_17.json,835762,980646,48,Woman
92,381681,DepthScenes,duration_manipulation_targetAtFixation,jsons/v1_VE1000_randls_17.json,http://54.235.29.9/FacialAge/BNav_EC2/DepthDuration/v2_depth_duration_MTurk/v2_DepthDuration_HTML.html#4,4,1364,625,1364,768,8-22-2022,9-30-10,93,depth_duration_stimuli/002630_2014-06-24_14-47-50_094959634447_rgbf000055-resize_1/002630_2014-06-24_14-47-50_094959634447_rgbf000055-resize_1-target.png,1000,3.0095,2,2508,1012,meters,jsons/v1_VE1000_randls_17.json,835762,980646,48,Woman
93,381681,DepthScenes,duration_manipulation_targetAtFixation,jsons/v1_VE1000_randls_17.json,http://54.235.29.9/FacialAge/BNav_EC2/DepthDuration/v2_depth_duration_MTurk/v2_DepthDuration_HTML.html#4,4,1364,625,1364,768,8-22-2022,9-30-10,94,depth_duration_stimuli/002758_2014-06-22_19-11-20_094959634447_rgbf000128-resize_1/002758_2014-06-22_19-11-20_094959634447_rgbf000128-resize_1-target.png,1000,2.555,2,2700,1015,meters,jsons/v1_VE1000_randls_17.json,835762,980646,48,Woman
94,381681,DepthScenes,duration_manipulation_targetAtFixation,jsons/v1_VE1000_randls_17.json,http://54.235.29.9/FacialAge/BNav_EC2/DepthDuration/v2_depth_duration_MTurk/v2_DepthDuration_HTML.html#4,4,1364,625,1364,768,8-22-2022,9-30-10,95,depth_duration_stimuli/002725_2014-06-22_11-47-51_094959634447_rgbf000070-resize_1/002725_2014-06-22_11-47-51_094959634447_rgbf000070-resize_1-target.png,1000,2.195,2,2260,1000,meters,jsons/v1_VE1000_randls_17.json,835762,980646,48,Woman
95,381681,DepthScenes,duration_manipulation_targetAtFixation,jsons/v1_VE1000_randls_17.json,http://54.235.29.9/FacialAge/BNav_EC2/DepthDuration/v2_depth_duration_MTurk/v2_DepthDuration_HTML.html#4,4,1364,625,1364,768,8-22-2022,9-30-10,96,depth_duration_stimuli/002344_2014-06-28_20-06-29_260595134347_rgbf000030-resize_1/002344_2014-06-28_20-06-29_260595134347_rgbf000030-resize_1-target.png,1000,1.5795,2,2495,998,meters,jsons/v1_VE1000_randls_17.json,835762,980646,48,Woman
96,381681,DepthScenes,duration_manipulation_targetAtFixation,jsons/v1_VE1000_randls_17.json,http://54.235.29.9/FacialAge/BNav_EC2/DepthDuration/v2_depth_duration_MTurk/v2_DepthDuration_HTML.html#4,4,1364,625,1364,768,8-22-2022,9-30-10,97,depth_duration_stimuli/001110_2014-06-15_17-25-28_260595134347_rgbf000150-resize_1/001110_2014-06-15_17-25-28_260595134347_rgbf000150-resize_1-target.png,1000,1.7115,2,2290,987,meters,jsons/v1_VE1000_randls_17.json,835762,980646,48,Woman
97,381681,DepthScenes,duration_manipulation_targetAtFixation,jsons/v1_VE1000_randls_17.json,http://54.235.29.9/FacialAge/BNav_EC2/DepthDuration/v2_depth_duration_MTurk/v2_DepthDuration_HTML.html#4,4,1364,625,1364,768,8-22-2022,9-30-10,98,depth_duration_stimuli/000927_2014-06-09_16-32-30_260595134347_rgbf000123-resize_3/000927_2014-06-09_16-32-30_260595134347_rgbf000123-resize_3-target.png,1000,2.6785,2,2251,999,meters,jsons/v1_VE1000_randls_17.json,835762,980646,48,Woman
98,381681,DepthScenes,duration_manipulation_targetAtFixation,jsons/v1_VE1000_randls_17.json,http://54.235.29.9/FacialAge/BNav_EC2/DepthDuration/v2_depth_duration_MTurk/v2_DepthDuration_HTML.html#4,4,1364,625,1364,768,8-22-2022,9-30-10,99,depth_duration_stimuli/001540_2014-06-20_17-01-05_260595134347_rgbf000086-resize_2/001540_2014-06-20_17-01-05_260595134347_rgbf000086-resize-original.jpg,1000,1.459,2,2536,994,meters,jsons/v1_VE1000_randls_17.json,835762,980646,48,Woman
99,381681,DepthScenes,duration_manipulation_targetAtFixation,jsons/v1_VE1000_randls_17.json,http://54.235.29.9/FacialAge/BNav_EC2/DepthDuration/v2_depth_duration_MTurk/v2_DepthDuration_HTML.html#4,4,1364,625,1364,768,8-22-2022,9-30-10,100,depth_duration_stimuli/000414_2014-06-04_19-49-13_260595134347_rgbf000044-resize_0/000414_2014-06-04_19-49-13_260595134347_rgbf000044-resize_0-target.png,1000,4.329,2,2464,1004,meters,jsons/v1_VE1000_randls_17.json,835762,980646,48,Woman
100,381681,DepthScenes,duration_manipulation_targetAtFixation,jsons/v1_VE1000_randls_17.json,http://54.235.29.9/FacialAge/BNav_EC2/DepthDuration/v2_depth_duration_MTurk/v2_DepthDuration_HTML.html#4,4,1364,625,1364,768,8-22-2022,9-30-10,101,depth_duration_stimuli/003129_2014-05-12_10-48-10_094959634447_rgbf000100-resize_0/003129_2014-05-12_10-48-10_094959634447_rgbf000100-resize_0-target.png,1000,4.9305,2,2754,990,meters,jsons/v1_VE1000_randls_17.json,835762,980646,48,Woman
101,381681,DepthScenes,duration_manipulation_targetAtFixation,jsons/v1_VE1000_randls_17.json,http://54.235.29.9/FacialAge/BNav_EC2/DepthDuration/v2_depth_duration_MTurk/v2_DepthDuration_HTML.html#4,4,1364,625,1364,768,8-22-2022,9-30-10,102,depth_duration_stimuli/002272_2014-06-28_18-53-56_260595134347_rgbf000067-resize_2/002272_2014-06-28_18-53-56_260595134347_rgbf000067-resize_2-target.png,1000,1.138,2,2465,1001,meters,jsons/v1_VE1000_randls_17.json,835762,980646,48,Woman
102,381681,DepthScenes,duration_manipulation_targetAtFixation,jsons/v1_VE1000_randls_17.json,http://54.235.29.9/FacialAge/BNav_EC2/DepthDuration/v2_depth_duration_MTurk/v2_DepthDuration_HTML.html#4,4,1364,625,1364,768,8-22-2022,9-30-10,103,depth_duration_stimuli/001571_2014-06-20_17-21-32_260595134347_rgbf000089-resize_1/001571_2014-06-20_17-21-32_260595134347_rgbf000089-resize_1-target.png,1000,1.86,2,2232,996,meters,jsons/v1_VE1000_randls_17.json,835762,980646,48,Woman
103,381681,DepthScenes,duration_manipulation_targetAtFixation,jsons/v1_VE1000_randls_17.json,http://54.235.29.9/FacialAge/BNav_EC2/DepthDuration/v2_depth_duration_MTurk/v2_DepthDuration_HTML.html#4,4,1364,625,1364,768,8-22-2022,9-30-10,104,depth_duration_stimuli/001175_2014-06-17_15-45-55_260595134347_rgbf000129-resize_4/001175_2014-06-17_15-45-55_260595134347_rgbf000129-resize_4-target.png,1000,4.255,2,2361,1021,meters,jsons/v1_VE1000_randls_17.json,835762,980646,48,Woman
104,381681,DepthScenes,duration_manipulation_targetAtFixation,jsons/v1_VE1000_randls_17.json,http://54.235.29.9/FacialAge/BNav_EC2/DepthDuration/v2_depth_duration_MTurk/v2_DepthDuration_HTML.html#4,4,1364,625,1364,768,8-22-2022,9-30-10,105,depth_duration_stimuli/003490_2014-05-21_15-50-11_094959634447_rgbf000101-resize_3/003490_2014-05-21_15-50-11_094959634447_rgbf000101-resize_3-target.png,1000,3.6445,2,3125,991,meters,jsons/v1_VE1000_randls_17.json,835762,980646,48,Woman
105,381681,DepthScenes,duration_manipulation_targetAtFixation,jsons/v1_VE1000_randls_17.json,http://54.235.29.9/FacialAge/BNav_EC2/DepthDuration/v2_depth_duration_MTurk/v2_DepthDuration_HTML.html#4,4,1364,625,1364,768,8-22-2022,9-30-10,106,depth_duration_stimuli/003292_2014-05-14_21-53-49_094959634447_rgbf000100-resize_2/003292_2014-05-14_21-53-49_094959634447_rgbf000100-resize_2-target.png,1000,3.4815,2,2351,1000,meters,jsons/v1_VE1000_randls_17.json,835762,980646,48,Woman
106,381681,DepthScenes,duration_manipulation_targetAtFixation,jsons/v1_VE1000_randls_17.json,http://54.235.29.9/FacialAge/BNav_EC2/DepthDuration/v2_depth_duration_MTurk/v2_DepthDuration_HTML.html#4,4,1364,625,1364,768,8-22-2022,9-30-10,107,depth_duration_stimuli/002639_2014-06-24_14-51-37_094959634447_rgbf000074-resize_4/002639_2014-06-24_14-51-37_094959634447_rgbf000074-resize_4-target.png,1000,4.0375,2,2137,1002,meters,jsons/v1_VE1000_randls_17.json,835762,980646,48,Woman
107,381681,DepthScenes,duration_manipulation_targetAtFixation,jsons/v1_VE1000_randls_17.json,http://54.235.29.9/FacialAge/BNav_EC2/DepthDuration/v2_depth_duration_MTurk/v2_DepthDuration_HTML.html#4,4,1364,625,1364,768,8-22-2022,9-30-10,108,depth_duration_stimuli/000810_2014-06-08_17-20-01_260595134347_rgbf000105-resize_0/000810_2014-06-08_17-20-01_260595134347_rgbf000105-resize_0-target.png,1000,1.4865,2,2322,1015,meters,jsons/v1_VE1000_randls_17.json,835762,980646,48,Woman
108,381681,DepthScenes,duration_manipulation_targetAtFixation,jsons/v1_VE1000_randls_17.json,http://54.235.29.9/FacialAge/BNav_EC2/DepthDuration/v2_depth_duration_MTurk/v2_DepthDuration_HTML.html#4,4,1364,625,1364,768,8-22-2022,9-30-10,109,depth_duration_stimuli/001214_2014-06-17_16-13-55_260595134347_rgbf000111-resize_0/001214_2014-06-17_16-13-55_260595134347_rgbf000111-resize_0-target.png,1000,2.6505,2,2387,1001,meters,jsons/v1_VE1000_randls_17.json,835762,980646,48,Woman
109,381681,DepthScenes,duration_manipulation_targetAtFixation,jsons/v1_VE1000_randls_17.json,http://54.235.29.9/FacialAge/BNav_EC2/DepthDuration/v2_depth_duration_MTurk/v2_DepthDuration_HTML.html#4,4,1364,625,1364,768,8-22-2022,9-30-10,110,depth_duration_stimuli/000878_2014-06-08_22-52-45_260595134347_rgbf000045-resize_2/000878_2014-06-08_22-52-45_260595134347_rgbf000045-resize_2-target.png,1000,2.092,2,2840,1011,meters,jsons/v1_VE1000_randls_17.json,835762,980646,48,Woman
110,381681,DepthScenes,duration_manipulation_targetAtFixation,jsons/v1_VE1000_randls_17.json,http://54.235.29.9/FacialAge/BNav_EC2/DepthDuration/v2_depth_duration_MTurk/v2_DepthDuration_HTML.html#4,4,1364,625,1364,768,8-22-2022,9-30-10,111,depth_duration_stimuli/002953_2014-06-08_17-32-18_094959634447_rgbf000059-resize_5/002953_2014-06-08_17-32-18_094959634447_rgbf000059-resize_5-target.png,1000,1.551,2,3879,1012,meters,jsons/v1_VE1000_randls_17.json,835762,980646,48,Woman
111,381681,DepthScenes,duration_manipulation_targetAtFixation,jsons/v1_VE1000_randls_17.json,http://54.235.29.9/FacialAge/BNav_EC2/DepthDuration/v2_depth_duration_MTurk/v2_DepthDuration_HTML.html#4,4,1364,625,1364,768,8-22-2022,9-30-10,112,depth_duration_stimuli/001555_2014-06-20_17-12-10_260595134347_rgbf000065-resize_4/001555_2014-06-20_17-12-10_260595134347_rgbf000065-resize_4-target.png,1000,1.633,2,2687,998,meters,jsons/v1_VE1000_randls_17.json,835762,980646,48,Woman
112,381681,DepthScenes,duration_manipulation_targetAtFixation,jsons/v1_VE1000_randls_17.json,http://54.235.29.9/FacialAge/BNav_EC2/DepthDuration/v2_depth_duration_MTurk/v2_DepthDuration_HTML.html#4,4,1364,625,1364,768,8-22-2022,9-30-10,113,depth_duration_stimuli/000103_2014-05-14_22-01-17_260595134347_rgbf000152-resize_5/000103_2014-05-14_22-01-17_260595134347_rgbf000152-resize_5-target.png,1000,1.993,2,2283,989,meters,jsons/v1_VE1000_randls_17.json,835762,980646,48,Woman
113,381681,DepthScenes,duration_manipulation_targetAtFixation,jsons/v1_VE1000_randls_17.json,http://54.235.29.9/FacialAge/BNav_EC2/DepthDuration/v2_depth_duration_MTurk/v2_DepthDuration_HTML.html#4,4,1364,625,1364,768,8-22-2022,9-30-10,114,depth_duration_stimuli/000009_2014-05-26_14-32-05_260595134347_rgbf000034-resize_3/000009_2014-05-26_14-32-05_260595134347_rgbf000034-resize_3-target.png,1000,3.8715,2,2294,999,meters,jsons/v1_VE1000_randls_17.json,835762,980646,48,Woman
114,381681,DepthScenes,duration_manipulation_targetAtFixation,jsons/v1_VE1000_randls_17.json,http://54.235.29.9/FacialAge/BNav_EC2/DepthDuration/v2_depth_duration_MTurk/v2_DepthDuration_HTML.html#4,4,1364,625,1364,768,8-22-2022,9-30-10,115,depth_duration_stimuli/001828_2014-06-26_21-40-03_260595134347_rgbf000024-resize_0/001828_2014-06-26_21-40-03_260595134347_rgbf000024-resize_0-target.png,1000,4.8260000000000005,2,2424,978,meters,jsons/v1_VE1000_randls_17.json,835762,980646,48,Woman
115,381681,DepthScenes,duration_manipulation_targetAtFixation,jsons/v1_VE1000_randls_17.json,http://54.235.29.9/FacialAge/BNav_EC2/DepthDuration/v2_depth_duration_MTurk/v2_DepthDuration_HTML.html#4,4,1364,625,1364,768,8-22-2022,9-30-10,116,depth_duration_stimuli/001170_2014-06-17_15-43-44_260595134347_rgbf000096-resize_6/001170_2014-06-17_15-43-44_260595134347_rgbf000096-resize-original.jpg,1000,1.1909999999999998,2,2886,1015,meters,jsons/v1_VE1000_randls_17.json,835762,980646,48,Woman
116,381681,DepthScenes,duration_manipulation_targetAtFixation,jsons/v1_VE1000_randls_17.json,http://54.235.29.9/FacialAge/BNav_EC2/DepthDuration/v2_depth_duration_MTurk/v2_DepthDuration_HTML.html#4,4,1364,625,1364,768,8-22-2022,9-30-10,117,depth_duration_stimuli/002509_2014-06-24_13-19-22_094959634447_rgbf000077-resize_0/002509_2014-06-24_13-19-22_094959634447_rgbf000077-resize_0-target.png,1000,1.3065,12,5815,990,meters,jsons/v1_VE1000_randls_17.json,835762,980646,48,Woman
117,381681,DepthScenes,duration_manipulation_targetAtFixation,jsons/v1_VE1000_randls_17.json,http://54.235.29.9/FacialAge/BNav_EC2/DepthDuration/v2_depth_duration_MTurk/v2_DepthDuration_HTML.html#4,4,1364,625,1364,768,8-22-2022,9-30-10,118,depth_duration_stimuli/003338_2014-05-20_11-01-23_094959634447_rgbf000051-resize_6/003338_2014-05-20_11-01-23_094959634447_rgbf000051-resize_6-target.png,1000,1.693,2,2658,999,meters,jsons/v1_VE1000_randls_17.json,835762,980646,48,Woman
118,381681,DepthScenes,duration_manipulation_targetAtFixation,jsons/v1_VE1000_randls_17.json,http://54.235.29.9/FacialAge/BNav_EC2/DepthDuration/v2_depth_duration_MTurk/v2_DepthDuration_HTML.html#4,4,1364,625,1364,768,8-22-2022,9-30-10,119,depth_duration_stimuli/000736_2014-06-08_18-24-15_260595134347_rgbf000206-resize_3/000736_2014-06-08_18-24-15_260595134347_rgbf000206-resize_3-target.png,1000,3.515,2,2608,1002,meters,jsons/v1_VE1000_randls_17.json,835762,980646,48,Woman
119,381681,DepthScenes,duration_manipulation_targetAtFixation,jsons/v1_VE1000_randls_17.json,http://54.235.29.9/FacialAge/BNav_EC2/DepthDuration/v2_depth_duration_MTurk/v2_DepthDuration_HTML.html#4,4,1364,625,1364,768,8-22-2022,9-30-10,120,depth_duration_stimuli/000137_2014-05-20_17-04-49_260595134347_rgbf000120-resize_1/000137_2014-05-20_17-04-49_260595134347_rgbf000120-resize_1-target.png,1000,3.786,2,2906,993,meters,jsons/v1_VE1000_randls_17.json,835762,980646,48,Woman
120,381681,DepthScenes,duration_manipulation_targetAtFixation,jsons/v1_VE1000_randls_17.json,http://54.235.29.9/FacialAge/BNav_EC2/DepthDuration/v2_depth_duration_MTurk/v2_DepthDuration_HTML.html#4,4,1364,625,1364,768,8-22-2022,9-30-10,121,depth_duration_stimuli/000692_2014-06-08_13-09-42_260595134347_rgbf000199-resize_2/000692_2014-06-08_13-09-42_260595134347_rgbf000199-resize_2-target.png,1000,3.661,5,3472,1000,meters,jsons/v1_VE1000_randls_17.json,835762,980646,48,Woman
121,381681,DepthScenes,duration_manipulation_targetAtFixation,jsons/v1_VE1000_randls_17.json,http://54.235.29.9/FacialAge/BNav_EC2/DepthDuration/v2_depth_duration_MTurk/v2_DepthDuration_HTML.html#4,4,1364,625,1364,768,8-22-2022,9-30-10,122,depth_duration_stimuli/001094_2014-06-15_17-36-00_260595134347_rgbf000205-resize_0/001094_2014-06-15_17-36-00_260595134347_rgbf000205-resize_0-target.png,1000,4.2175,5,4214,1009,meters,jsons/v1_VE1000_randls_17.json,835762,980646,48,Woman
122,381681,DepthScenes,duration_manipulation_targetAtFixation,jsons/v1_VE1000_randls_17.json,http://54.235.29.9/FacialAge/BNav_EC2/DepthDuration/v2_depth_duration_MTurk/v2_DepthDuration_HTML.html#4,4,1364,625,1364,768,8-22-2022,9-30-10,123,depth_duration_stimuli/000642_2014-06-08_16-59-25_260595134347_rgbf000098-resize_2/000642_2014-06-08_16-59-25_260595134347_rgbf000098-resize_2-target.png,1000,2.8815,5,2811,998,meters,jsons/v1_VE1000_randls_17.json,835762,980646,48,Woman
123,381681,DepthScenes,duration_manipulation_targetAtFixation,jsons/v1_VE1000_randls_17.json,http://54.235.29.9/FacialAge/BNav_EC2/DepthDuration/v2_depth_duration_MTurk/v2_DepthDuration_HTML.html#4,4,1364,625,1364,768,8-22-2022,9-30-10,124,depth_duration_stimuli/002425_2014-06-28_20-27-29_260595134347_rgbf000031-resize_8/002425_2014-06-28_20-27-29_260595134347_rgbf000031-resize_8-target.png,1000,3.8960000000000004,5,2419,1000,meters,jsons/v1_VE1000_randls_17.json,835762,980646,48,Woman
124,381681,DepthScenes,duration_manipulation_targetAtFixation,jsons/v1_VE1000_randls_17.json,http://54.235.29.9/FacialAge/BNav_EC2/DepthDuration/v2_depth_duration_MTurk/v2_DepthDuration_HTML.html#4,4,1364,625,1364,768,8-22-2022,9-30-10,125,depth_duration_stimuli/001244_2014-06-17_16-47-45_260595134347_rgbf000030-resize_4/001244_2014-06-17_16-47-45_260595134347_rgbf000030-resize_4-target.png,1000,2.0425,5,2465,988,meters,jsons/v1_VE1000_randls_17.json,835762,980646,48,Woman
125,381681,DepthScenes,duration_manipulation_targetAtFixation,jsons/v1_VE1000_randls_17.json,http://54.235.29.9/FacialAge/BNav_EC2/DepthDuration/v2_depth_duration_MTurk/v2_DepthDuration_HTML.html#4,4,1364,625,1364,768,8-22-2022,9-30-10,126,depth_duration_stimuli/003495_2014-05-21_16-01-51_094959634447_rgbf000100-resize_3/003495_2014-05-21_16-01-51_094959634447_rgbf000100-resize_3-target.png,1000,1.6255,4,3151,999,meters,jsons/v1_VE1000_randls_17.json,835762,980646,48,Woman
126,381681,DepthScenes,duration_manipulation_targetAtFixation,jsons/v1_VE1000_randls_17.json,http://54.235.29.9/FacialAge/BNav_EC2/DepthDuration/v2_depth_duration_MTurk/v2_DepthDuration_HTML.html#4,4,1364,625,1364,768,8-22-2022,9-30-10,127,depth_duration_stimuli/002570_2014-06-24_13-59-54_094959634447_rgbf000059-resize_0/002570_2014-06-24_13-59-54_094959634447_rgbf000059-resize_0-target.png,1000,4.037,5,2723,984,meters,jsons/v1_VE1000_randls_17.json,835762,980646,48,Woman
127,381681,DepthScenes,duration_manipulation_targetAtFixation,jsons/v1_VE1000_randls_17.json,http://54.235.29.9/FacialAge/BNav_EC2/DepthDuration/v2_depth_duration_MTurk/v2_DepthDuration_HTML.html#4,4,1364,625,1364,768,8-22-2022,9-30-10,128,depth_duration_stimuli/002467_2014-06-28_20-38-07_260595134347_rgbf000026-resize_2/002467_2014-06-28_20-38-07_260595134347_rgbf000026-resize_2-target.png,1000,4.742,5,2551,998,meters,jsons/v1_VE1000_randls_17.json,835762,980646,48,Woman
128,381681,DepthScenes,duration_manipulation_targetAtFixation,jsons/v1_VE1000_randls_17.json,http://54.235.29.9/FacialAge/BNav_EC2/DepthDuration/v2_depth_duration_MTurk/v2_DepthDuration_HTML.html#4,4,1364,625,1364,768,8-22-2022,9-30-10,129,depth_duration_stimuli/000929_2014-06-09_16-33-19_260595134347_rgbf000139-resize_0/000929_2014-06-09_16-33-19_260595134347_rgbf000139-resize_0-target.png,1000,2.8680000000000003,5,2473,1001,meters,jsons/v1_VE1000_randls_17.json,835762,980646,48,Woman
129,381681,DepthScenes,duration_manipulation_targetAtFixation,jsons/v1_VE1000_randls_17.json,http://54.235.29.9/FacialAge/BNav_EC2/DepthDuration/v2_depth_duration_MTurk/v2_DepthDuration_HTML.html#4,4,1364,625,1364,768,8-22-2022,9-30-10,130,depth_duration_stimuli/000457_2014-06-08_16-52-43_260595134347_rgbf000199-resize_1/000457_2014-06-08_16-52-43_260595134347_rgbf000199-resize_1-target.png,1000,3.6489999999999996,5,2597,985,meters,jsons/v1_VE1000_randls_17.json,835762,980646,48,Woman
130,381681,DepthScenes,duration_manipulation_targetAtFixation,jsons/v1_VE1000_randls_17.json,http://54.235.29.9/FacialAge/BNav_EC2/DepthDuration/v2_depth_duration_MTurk/v2_DepthDuration_HTML.html#4,4,1364,625,1364,768,8-22-2022,9-30-10,131,depth_duration_stimuli/001570_2014-06-20_17-21-09_260595134347_rgbf000135-resize_4/001570_2014-06-20_17-21-09_260595134347_rgbf000135-resize_4-target.png,1000,4.467,5,2886,1000,meters,jsons/v1_VE1000_randls_17.json,835762,980646,48,Woman
131,381681,DepthScenes,duration_manipulation_targetAtFixation,jsons/v1_VE1000_randls_17.json,http://54.235.29.9/FacialAge/BNav_EC2/DepthDuration/v2_depth_duration_MTurk/v2_DepthDuration_HTML.html#4,4,1364,625,1364,768,8-22-2022,9-30-10,132,depth_duration_stimuli/001392_2014-06-19_16-07-59_260595134347_rgbf000046-resize_1/001392_2014-06-19_16-07-59_260595134347_rgbf000046-resize_1-target.png,1000,4.135,5,2371,1003,meters,jsons/v1_VE1000_randls_17.json,835762,980646,48,Woman
132,381681,DepthScenes,duration_manipulation_targetAtFixation,jsons/v1_VE1000_randls_17.json,http://54.235.29.9/FacialAge/BNav_EC2/DepthDuration/v2_depth_duration_MTurk/v2_DepthDuration_HTML.html#4,4,1364,625,1364,768,8-22-2022,9-30-10,133,depth_duration_stimuli/001808_2014-06-26_20-50-58_260595134347_rgbf000029-resize_1/001808_2014-06-26_20-50-58_260595134347_rgbf000029-resize_1-target.png,1000,4.249,5,2755,998,meters,jsons/v1_VE1000_randls_17.json,835762,980646,48,Woman
133,381681,DepthScenes,duration_manipulation_targetAtFixation,jsons/v1_VE1000_randls_17.json,http://54.235.29.9/FacialAge/BNav_EC2/DepthDuration/v2_depth_duration_MTurk/v2_DepthDuration_HTML.html#4,4,1364,625,1364,768,8-22-2022,9-30-10,134,depth_duration_stimuli/001815_2014-06-26_20-52-55_260595134347_rgbf000020-resize_0/001815_2014-06-26_20-52-55_260595134347_rgbf000020-resize_0-target.png,1000,3.3865,5,2391,997,meters,jsons/v1_VE1000_randls_17.json,835762,980646,48,Woman
134,381681,DepthScenes,duration_manipulation_targetAtFixation,jsons/v1_VE1000_randls_17.json,http://54.235.29.9/FacialAge/BNav_EC2/DepthDuration/v2_depth_duration_MTurk/v2_DepthDuration_HTML.html#4,4,1364,625,1364,768,8-22-2022,9-30-10,135,depth_duration_stimuli/002072_2014-06-24_21-48-06_260595134347_rgbf000115-resize_0/002072_2014-06-24_21-48-06_260595134347_rgbf000115-resize-original.jpg,1000,4.702,5,2457,996,meters,jsons/v1_VE1000_randls_17.json,835762,980646,48,Woman
135,381681,DepthScenes,duration_manipulation_targetAtFixation,jsons/v1_VE1000_randls_17.json,http://54.235.29.9/FacialAge/BNav_EC2/DepthDuration/v2_depth_duration_MTurk/v2_DepthDuration_HTML.html#4,4,1364,625,1364,768,8-22-2022,9-30-10,136,depth_duration_stimuli/002763_2014-06-22_19-13-10_094959634447_rgbf000075-resize_4/002763_2014-06-22_19-13-10_094959634447_rgbf000075-resize_4-target.png,1000,1.68375,5,4076,1010,meters,jsons/v1_VE1000_randls_17.json,835762,980646,48,Woman
136,381681,DepthScenes,duration_manipulation_targetAtFixation,jsons/v1_VE1000_randls_17.json,http://54.235.29.9/FacialAge/BNav_EC2/DepthDuration/v2_depth_duration_MTurk/v2_DepthDuration_HTML.html#4,4,1364,625,1364,768,8-22-2022,9-30-10,137,depth_duration_stimuli/002209_2014-06-28_18-36-10_260595134347_rgbf000051-resize_1/002209_2014-06-28_18-36-10_260595134347_rgbf000051-resize_1-target.png,1000,2.057,5,2510,1001,meters,jsons/v1_VE1000_randls_17.json,835762,980646,48,Woman
137,381681,DepthScenes,duration_manipulation_targetAtFixation,jsons/v1_VE1000_randls_17.json,http://54.235.29.9/FacialAge/BNav_EC2/DepthDuration/v2_depth_duration_MTurk/v2_DepthDuration_HTML.html#4,4,1364,625,1364,768,8-22-2022,9-30-10,138,depth_duration_stimuli/000447_2014-06-08_16-15-46_260595134347_rgbf000130-resize_1/000447_2014-06-08_16-15-46_260595134347_rgbf000130-resize_1-target.png,1000,4.479,5,3353,1011,meters,jsons/v1_VE1000_randls_17.json,835762,980646,48,Woman
138,381681,DepthScenes,duration_manipulation_targetAtFixation,jsons/v1_VE1000_randls_17.json,http://54.235.29.9/FacialAge/BNav_EC2/DepthDuration/v2_depth_duration_MTurk/v2_DepthDuration_HTML.html#4,4,1364,625,1364,768,8-22-2022,9-30-10,139,depth_duration_stimuli/001447_2014-06-19_17-00-32_260595134347_rgbf000082-resize_5/001447_2014-06-19_17-00-32_260595134347_rgbf000082-resize_5-target.png,1000,4.13775,5,2512,1010,meters,jsons/v1_VE1000_randls_17.json,835762,980646,48,Woman
139,381681,DepthScenes,duration_manipulation_targetAtFixation,jsons/v1_VE1000_randls_17.json,http://54.235.29.9/FacialAge/BNav_EC2/DepthDuration/v2_depth_duration_MTurk/v2_DepthDuration_HTML.html#4,4,1364,625,1364,768,8-22-2022,9-30-10,140,depth_duration_stimuli/002279_2014-06-28_18-55-32_260595134347_rgbf000040-resize_5/002279_2014-06-28_18-55-32_260595134347_rgbf000040-resize_5-target.png,1000,1.5043333333333,5,3051,988,meters,jsons/v1_VE1000_randls_17.json,835762,980646,48,Woman
140,381681,DepthScenes,duration_manipulation_targetAtFixation,jsons/v1_VE1000_randls_17.json,http://54.235.29.9/FacialAge/BNav_EC2/DepthDuration/v2_depth_duration_MTurk/v2_DepthDuration_HTML.html#4,4,1364,625,1364,768,8-22-2022,9-30-10,141,depth_duration_stimuli/000635_2014-06-08_16-38-42_260595134347_rgbf000106-resize_1/000635_2014-06-08_16-38-42_260595134347_rgbf000106-resize_1-target.png,1000,2.074,45,2830,1002,meters,jsons/v1_VE1000_randls_17.json,835762,980646,48,Woman
141,381681,DepthScenes,duration_manipulation_targetAtFixation,jsons/v1_VE1000_randls_17.json,http://54.235.29.9/FacialAge/BNav_EC2/DepthDuration/v2_depth_duration_MTurk/v2_DepthDuration_HTML.html#4,4,1364,625,1364,768,8-22-2022,9-30-10,142,depth_duration_stimuli/000469_2014-06-09_19-42-10_260595134347_rgbf000081-resize_1/000469_2014-06-09_19-42-10_260595134347_rgbf000081-resize_1-target.png,1000,1.652,5,2663,996,meters,jsons/v1_VE1000_randls_17.json,835762,980646,48,Woman
142,381681,DepthScenes,duration_manipulation_targetAtFixation,jsons/v1_VE1000_randls_17.json,http://54.235.29.9/FacialAge/BNav_EC2/DepthDuration/v2_depth_duration_MTurk/v2_DepthDuration_HTML.html#4,4,1364,625,1364,768,8-22-2022,9-30-10,143,depth_duration_stimuli/000483_2014-06-09_20-41-45_260595134347_rgbf000116-resize_4/000483_2014-06-09_20-41-45_260595134347_rgbf000116-resize_4-target.png,1000,1.337,5,3752,997,meters,jsons/v1_VE1000_randls_17.json,835762,980646,48,Woman
143,381681,DepthScenes,duration_manipulation_targetAtFixation,jsons/v1_VE1000_randls_17.json,http://54.235.29.9/FacialAge/BNav_EC2/DepthDuration/v2_depth_duration_MTurk/v2_DepthDuration_HTML.html#4,4,1364,625,1364,768,8-22-2022,9-30-10,144,depth_duration_stimuli/000773_2014-06-08_22-24-54_260595134347_rgbf000093-resize_1/000773_2014-06-08_22-24-54_260595134347_rgbf000093-resize_1-target.png,1000,4.973,5,12177,997,meters,jsons/v1_VE1000_randls_17.json,835762,980646,48,Woman
144,381681,DepthScenes,duration_manipulation_targetAtFixation,jsons/v1_VE1000_randls_17.json,http://54.235.29.9/FacialAge/BNav_EC2/DepthDuration/v2_depth_duration_MTurk/v2_DepthDuration_HTML.html#4,4,1364,625,1364,768,8-22-2022,9-30-10,145,depth_duration_stimuli/002414_2014-06-28_20-24-58_260595134347_rgbf000067-resize_4/002414_2014-06-28_20-24-58_260595134347_rgbf000067-resize_4-target.png,1000,4.363,5,3764,999,meters,jsons/v1_VE1000_randls_17.json,835762,980646,48,Woman
145,381681,DepthScenes,duration_manipulation_targetAtFixation,jsons/v1_VE1000_randls_17.json,http://54.235.29.9/FacialAge/BNav_EC2/DepthDuration/v2_depth_duration_MTurk/v2_DepthDuration_HTML.html#4,4,1364,625,1364,768,8-22-2022,9-30-10,146,depth_duration_stimuli/001498_2014-06-19_17-45-14_260595134347_rgbf000129-resize_4/001498_2014-06-19_17-45-14_260595134347_rgbf000129-resize-original.jpg,1000,1.4075,5,2821,1000,meters,jsons/v1_VE1000_randls_17.json,835762,980646,48,Woman
146,381681,DepthScenes,duration_manipulation_targetAtFixation,jsons/v1_VE1000_randls_17.json,http://54.235.29.9/FacialAge/BNav_EC2/DepthDuration/v2_depth_duration_MTurk/v2_DepthDuration_HTML.html#4,4,1364,625,1364,768,8-22-2022,9-30-10,147,depth_duration_stimuli/001810_2014-06-26_20-51-35_260595134347_rgbf000040-resize_3/001810_2014-06-26_20-51-35_260595134347_rgbf000040-resize_3-target.png,1000,2.2525,5,2544,1003,meters,jsons/v1_VE1000_randls_17.json,835762,980646,48,Woman
147,381681,DepthScenes,duration_manipulation_targetAtFixation,jsons/v1_VE1000_randls_17.json,http://54.235.29.9/FacialAge/BNav_EC2/DepthDuration/v2_depth_duration_MTurk/v2_DepthDuration_HTML.html#4,4,1364,625,1364,768,8-22-2022,9-30-10,148,depth_duration_stimuli/003010_2014-06-15_12-54-35_094959634447_rgbf000112-resize_0/003010_2014-06-15_12-54-35_094959634447_rgbf000112-resize_0-target.png,1000,3.1185,5,3033,999,meters,jsons/v1_VE1000_randls_17.json,835762,980646,48,Woman
148,381681,DepthScenes,duration_manipulation_targetAtFixation,jsons/v1_VE1000_randls_17.json,http://54.235.29.9/FacialAge/BNav_EC2/DepthDuration/v2_depth_duration_MTurk/v2_DepthDuration_HTML.html#4,4,1364,625,1364,768,8-22-2022,9-30-10,149,depth_duration_stimuli/000436_2014-06-09_22-25-11_260595134347_rgbf000137-resize_1/000436_2014-06-09_22-25-11_260595134347_rgbf000137-resize_1-target.png,1000,4.0705,5,3333,998,meters,jsons/v1_VE1000_randls_17.json,835762,980646,48,Woman
149,381681,DepthScenes,duration_manipulation_targetAtFixation,jsons/v1_VE1000_randls_17.json,http://54.235.29.9/FacialAge/BNav_EC2/DepthDuration/v2_depth_duration_MTurk/v2_DepthDuration_HTML.html#4,4,1364,625,1364,768,8-22-2022,9-30-10,150,depth_duration_stimuli/002444_2014-06-28_20-32-08_260595134347_rgbf000027-resize_0/002444_2014-06-28_20-32-08_260595134347_rgbf000027-resize_0-target.png,1000,4.388999999999999,5,12131,982,meters,jsons/v1_VE1000_randls_17.json,835762,980646,48,Woman
150,381681,DepthScenes,duration_manipulation_targetAtFixation,jsons/v1_VE1000_randls_17.json,http://54.235.29.9/FacialAge/BNav_EC2/DepthDuration/v2_depth_duration_MTurk/v2_DepthDuration_HTML.html#4,4,1364,625,1364,768,8-22-2022,9-30-10,151,depth_duration_stimuli/002213_2014-06-28_18-37-58_260595134347_rgbf000055-resize_1/002213_2014-06-28_18-37-58_260595134347_rgbf000055-resize_1-target.png,1000,3.62,5,3024,1001,meters,jsons/v1_VE1000_randls_17.json,835762,980646,48,Woman
151,381681,DepthScenes,duration_manipulation_targetAtFixation,jsons/v1_VE1000_randls_17.json,http://54.235.29.9/FacialAge/BNav_EC2/DepthDuration/v2_depth_duration_MTurk/v2_DepthDuration_HTML.html#4,4,1364,625,1364,768,8-22-2022,9-30-10,152,depth_duration_stimuli/000691_2014-06-08_13-08-50_260595134347_rgbf000132-resize_3/000691_2014-06-08_13-08-50_260595134347_rgbf000132-resize_3-target.png,1000,4.1530000000000005,5,3178,997,meters,jsons/v1_VE1000_randls_17.json,835762,980646,48,Woman
152,381681,DepthScenes,duration_manipulation_targetAtFixation,jsons/v1_VE1000_randls_17.json,http://54.235.29.9/FacialAge/BNav_EC2/DepthDuration/v2_depth_duration_MTurk/v2_DepthDuration_HTML.html#4,4,1364,625,1364,768,8-22-2022,9-30-10,153,depth_duration_stimuli/001417_2014-06-19_16-25-36_260595134347_rgbf000115-resize_5/001417_2014-06-19_16-25-36_260595134347_rgbf000115-resize_5-target.png,1000,4.6255,5,2377,1002,meters,jsons/v1_VE1000_randls_17.json,835762,980646,48,Woman
153,381681,DepthScenes,duration_manipulation_targetAtFixation,jsons/v1_VE1000_randls_17.json,http://54.235.29.9/FacialAge/BNav_EC2/DepthDuration/v2_depth_duration_MTurk/v2_DepthDuration_HTML.html#4,4,1364,625,1364,768,8-22-2022,9-30-10,154,depth_duration_stimuli/003081_2014-06-15_15-19-16_094959634447_rgbf000150-resize_1/003081_2014-06-15_15-19-16_094959634447_rgbf000150-resize_1-target.png,1000,3.9125,5,3573,991,meters,jsons/v1_VE1000_randls_17.json,835762,980646,48,Woman
154,381681,DepthScenes,duration_manipulation_targetAtFixation,jsons/v1_VE1000_randls_17.json,http://54.235.29.9/FacialAge/BNav_EC2/DepthDuration/v2_depth_duration_MTurk/v2_DepthDuration_HTML.html#4,4,1364,625,1364,768,8-22-2022,9-30-10,155,depth_duration_stimuli/003492_2014-05-21_15-50-55_094959634447_rgbf000828-resize_1/003492_2014-05-21_15-50-55_094959634447_rgbf000828-resize_1-target.png,1000,4.06875,5,2427,993,meters,jsons/v1_VE1000_randls_17.json,835762,980646,48,Woman
155,381681,DepthScenes,duration_manipulation_targetAtFixation,jsons/v1_VE1000_randls_17.json,http://54.235.29.9/FacialAge/BNav_EC2/DepthDuration/v2_depth_duration_MTurk/v2_DepthDuration_HTML.html#4,4,1364,625,1364,768,8-22-2022,9-30-10,156,depth_duration_stimuli/002568_2014-06-24_13-59-21_094959634447_rgbf000062-resize_4/002568_2014-06-24_13-59-21_094959634447_rgbf000062-resize_4-target.png,1000,3.015,5,2338,1006,meters,jsons/v1_VE1000_randls_17.json,835762,980646,48,Woman
156,381681,DepthScenes,duration_manipulation_targetAtFixation,jsons/v1_VE1000_randls_17.json,http://54.235.29.9/FacialAge/BNav_EC2/DepthDuration/v2_depth_duration_MTurk/v2_DepthDuration_HTML.html#4,4,1364,625,1364,768,8-22-2022,9-30-10,157,depth_duration_stimuli/000739_2014-06-08_18-45-58_260595134347_rgbf000068-resize_1/000739_2014-06-08_18-45-58_260595134347_rgbf000068-resize_1-target.png,1000,3.534,5,4803,997,meters,jsons/v1_VE1000_randls_17.json,835762,980646,48,Woman
157,381681,DepthScenes,duration_manipulation_targetAtFixation,jsons/v1_VE1000_randls_17.json,http://54.235.29.9/FacialAge/BNav_EC2/DepthDuration/v2_depth_duration_MTurk/v2_DepthDuration_HTML.html#4,4,1364,625,1364,768,8-22-2022,9-30-10,158,depth_duration_stimuli/000734_2014-06-08_17-39-11_260595134347_rgbf000128-resize_2/000734_2014-06-08_17-39-11_260595134347_rgbf000128-resize_2-target.png,1000,4.098,5,7053,996,meters,jsons/v1_VE1000_randls_17.json,835762,980646,48,Woman
158,381681,DepthScenes,duration_manipulation_targetAtFixation,jsons/v1_VE1000_randls_17.json,http://54.235.29.9/FacialAge/BNav_EC2/DepthDuration/v2_depth_duration_MTurk/v2_DepthDuration_HTML.html#4,4,1364,625,1364,768,8-22-2022,9-30-10,159,depth_duration_stimuli/003070_2014-06-15_14-58-27_094959634447_rgbf000150-resize_3/003070_2014-06-15_14-58-27_094959634447_rgbf000150-resize_3-target.png,1000,2.9415,5,4809,1003,meters,jsons/v1_VE1000_randls_17.json,835762,980646,48,Woman
159,381681,DepthScenes,duration_manipulation_targetAtFixation,jsons/v1_VE1000_randls_17.json,http://54.235.29.9/FacialAge/BNav_EC2/DepthDuration/v2_depth_duration_MTurk/v2_DepthDuration_HTML.html#4,4,1364,625,1364,768,8-22-2022,9-30-10,160,depth_duration_stimuli/000943_2014-06-09_19-31-07_260595134347_rgbf000128-resize_1/000943_2014-06-09_19-31-07_260595134347_rgbf000128-resize_1-target.png,1000,1.9765,5,18750,1000,meters,jsons/v1_VE1000_randls_17.json,835762,980646,48,Woman
160,381681,DepthScenes,duration_manipulation_targetAtFixation,jsons/v1_VE1000_randls_17.json,http://54.235.29.9/FacialAge/BNav_EC2/DepthDuration/v2_depth_duration_MTurk/v2_DepthDuration_HTML.html#4,4,1364,625,1364,768,8-22-2022,9-30-10,161,depth_duration_stimuli/002748_2014-06-22_19-07-22_094959634447_rgbf000078-resize_1/002748_2014-06-22_19-07-22_094959634447_rgbf000078-resize_1-target.png,1000,4.6705,2,2365,997,meters,jsons/v1_VE1000_randls_17.json,835762,980646,48,Woman
161,381681,DepthScenes,duration_manipulation_targetAtFixation,jsons/v1_VE1000_randls_17.json,http://54.235.29.9/FacialAge/BNav_EC2/DepthDuration/v2_depth_duration_MTurk/v2_DepthDuration_HTML.html#4,4,1364,625,1364,768,8-22-2022,9-30-10,162,depth_duration_stimuli/002995_2014-06-15_12-31-26_094959634447_rgbf000150-resize_1/002995_2014-06-15_12-31-26_094959634447_rgbf000150-resize_1-target.png,1000,3.8360000000000003,5,2314,1006,meters,jsons/v1_VE1000_randls_17.json,835762,980646,48,Woman
162,381681,DepthScenes,duration_manipulation_targetAtFixation,jsons/v1_VE1000_randls_17.json,http://54.235.29.9/FacialAge/BNav_EC2/DepthDuration/v2_depth_duration_MTurk/v2_DepthDuration_HTML.html#4,4,1364,625,1364,768,8-22-2022,9-30-10,163,depth_duration_stimuli/001011_2014-06-08_23-18-54_260595134347_rgbf000044-resize_4/001011_2014-06-08_23-18-54_260595134347_rgbf000044-resize_4-target.png,1000,2.4730000000000003,5,2278,994,meters,jsons/v1_VE1000_randls_17.json,835762,980646,48,Woman
163,381681,DepthScenes,duration_manipulation_targetAtFixation,jsons/v1_VE1000_randls_17.json,http://54.235.29.9/FacialAge/BNav_EC2/DepthDuration/v2_depth_duration_MTurk/v2_DepthDuration_HTML.html#4,4,1364,625,1364,768,8-22-2022,9-30-10,164,depth_duration_stimuli/002875_2014-06-01_15-19-00_094959634447_rgbf000151-resize_1/002875_2014-06-01_15-19-00_094959634447_rgbf000151-resize_1-target.png,1000,1.9675,5,4363,993,meters,jsons/v1_VE1000_randls_17.json,835762,980646,48,Woman
