,subjID,experimentName,versionName,sequenceName,url,selected_row,windowWidth,windowHeight,screenWidth,screenHeight,startDate,startTime,trial,stimulus,duration,actual_depth,depth_estimate,trial_RT,log_sceneDuration,unitSelection,seq_filepath,experimentTime,totalTime,age,gender
0,383714,DepthScenes,duration_manipulation_targetAtFixation,jsons/v1_VE1000_randls_57.json,http://54.235.29.9/FacialAge/BNav_EC2/DepthDuration/v2_depth_duration_MTurk/v2_DepthDuration_HTML.html#20,20,1366,768,1366,768,8-22-2022,9-59-54,1,depth_duration_stimuli/002118_2014-06-25_20-32-08_260595134347_rgbf000078-resize_1/002118_2014-06-25_20-32-08_260595134347_rgbf000078-resize_1-target.png,1000,2.6460000000000004,5,5463,986,meters,jsons/v1_VE1000_randls_57.json,892504,1021049,62,Woman
1,383714,DepthScenes,duration_manipulation_targetAtFixation,jsons/v1_VE1000_randls_57.json,http://54.235.29.9/FacialAge/BNav_EC2/DepthDuration/v2_depth_duration_MTurk/v2_DepthDuration_HTML.html#20,20,1366,768,1366,768,8-22-2022,9-59-54,2,depth_duration_stimuli/001516_2014-06-20_16-25-09_260595134347_rgbf000076-resize_2/001516_2014-06-20_16-25-09_260595134347_rgbf000076-resize_2-target.png,1000,1.7445,5,3864,998,meters,jsons/v1_VE1000_randls_57.json,892504,1021049,62,Woman
2,383714,DepthScenes,duration_manipulation_targetAtFixation,jsons/v1_VE1000_randls_57.json,http://54.235.29.9/FacialAge/BNav_EC2/DepthDuration/v2_depth_duration_MTurk/v2_DepthDuration_HTML.html#20,20,1366,768,1366,768,8-22-2022,9-59-54,3,depth_duration_stimuli/001150_2014-06-17_15-27-34_260595134347_rgbf000108-resize_2/001150_2014-06-17_15-27-34_260595134347_rgbf000108-resize_2-target.png,1000,4.0325,5,7224,1000,meters,jsons/v1_VE1000_randls_57.json,892504,1021049,62,Woman
3,383714,DepthScenes,duration_manipulation_targetAtFixation,jsons/v1_VE1000_randls_57.json,http://54.235.29.9/FacialAge/BNav_EC2/DepthDuration/v2_depth_duration_MTurk/v2_DepthDuration_HTML.html#20,20,1366,768,1366,768,8-22-2022,9-59-54,4,depth_duration_stimuli/000665_2014-06-09_20-42-35_260595134347_rgbf000110-resize_1/000665_2014-06-09_20-42-35_260595134347_rgbf000110-resize_1-target.png,1000,3.057,5,3552,1007,meters,jsons/v1_VE1000_randls_57.json,892504,1021049,62,Woman
4,383714,DepthScenes,duration_manipulation_targetAtFixation,jsons/v1_VE1000_randls_57.json,http://54.235.29.9/FacialAge/BNav_EC2/DepthDuration/v2_depth_duration_MTurk/v2_DepthDuration_HTML.html#20,20,1366,768,1366,768,8-22-2022,9-59-54,5,depth_duration_stimuli/000447_2014-06-08_16-15-46_260595134347_rgbf000130-resize_1/000447_2014-06-08_16-15-46_260595134347_rgbf000130-resize_1-target.png,1000,4.479,5,3850,997,meters,jsons/v1_VE1000_randls_57.json,892504,1021049,62,Woman
5,383714,DepthScenes,duration_manipulation_targetAtFixation,jsons/v1_VE1000_randls_57.json,http://54.235.29.9/FacialAge/BNav_EC2/DepthDuration/v2_depth_duration_MTurk/v2_DepthDuration_HTML.html#20,20,1366,768,1366,768,8-22-2022,9-59-54,6,depth_duration_stimuli/001447_2014-06-19_17-00-32_260595134347_rgbf000082-resize_5/001447_2014-06-19_17-00-32_260595134347_rgbf000082-resize_5-target.png,1000,4.13775,5,3260,992,meters,jsons/v1_VE1000_randls_57.json,892504,1021049,62,Woman
6,383714,DepthScenes,duration_manipulation_targetAtFixation,jsons/v1_VE1000_randls_57.json,http://54.235.29.9/FacialAge/BNav_EC2/DepthDuration/v2_depth_duration_MTurk/v2_DepthDuration_HTML.html#20,20,1366,768,1366,768,8-22-2022,9-59-54,7,depth_duration_stimuli/002763_2014-06-22_19-13-10_094959634447_rgbf000075-resize_4/002763_2014-06-22_19-13-10_094959634447_rgbf000075-resize_4-target.png,1000,1.68375,5,4356,993,meters,jsons/v1_VE1000_randls_57.json,892504,1021049,62,Woman
7,383714,DepthScenes,duration_manipulation_targetAtFixation,jsons/v1_VE1000_randls_57.json,http://54.235.29.9/FacialAge/BNav_EC2/DepthDuration/v2_depth_duration_MTurk/v2_DepthDuration_HTML.html#20,20,1366,768,1366,768,8-22-2022,9-59-54,8,depth_duration_stimuli/002209_2014-06-28_18-36-10_260595134347_rgbf000051-resize_1/002209_2014-06-28_18-36-10_260595134347_rgbf000051-resize_1-target.png,1000,2.057,5,3621,996,meters,jsons/v1_VE1000_randls_57.json,892504,1021049,62,Woman
8,383714,DepthScenes,duration_manipulation_targetAtFixation,jsons/v1_VE1000_randls_57.json,http://54.235.29.9/FacialAge/BNav_EC2/DepthDuration/v2_depth_duration_MTurk/v2_DepthDuration_HTML.html#20,20,1366,768,1366,768,8-22-2022,9-59-54,9,depth_duration_stimuli/002988_2014-06-15_12-24-20_094959634447_rgbf000150-resize_1/002988_2014-06-15_12-24-20_094959634447_rgbf000150-resize_1-target.png,1000,4.7669999999999995,5,4384,1000,meters,jsons/v1_VE1000_randls_57.json,892504,1021049,62,Woman
9,383714,DepthScenes,duration_manipulation_targetAtFixation,jsons/v1_VE1000_randls_57.json,http://54.235.29.9/FacialAge/BNav_EC2/DepthDuration/v2_depth_duration_MTurk/v2_DepthDuration_HTML.html#20,20,1366,768,1366,768,8-22-2022,9-59-54,10,depth_duration_stimuli/001052_2014-06-08_18-24-54_260595134347_rgbf000130-resize_1/001052_2014-06-08_18-24-54_260595134347_rgbf000130-resize_1-target.png,1000,4.1045,5,3314,1000,meters,jsons/v1_VE1000_randls_57.json,892504,1021049,62,Woman
10,383714,DepthScenes,duration_manipulation_targetAtFixation,jsons/v1_VE1000_randls_57.json,http://54.235.29.9/FacialAge/BNav_EC2/DepthDuration/v2_depth_duration_MTurk/v2_DepthDuration_HTML.html#20,20,1366,768,1366,768,8-22-2022,9-59-54,11,depth_duration_stimuli/003292_2014-05-14_21-53-49_094959634447_rgbf000100-resize_2/003292_2014-05-14_21-53-49_094959634447_rgbf000100-resize_2-target.png,1000,3.4815,5,4121,999,meters,jsons/v1_VE1000_randls_57.json,892504,1021049,62,Woman
11,383714,DepthScenes,duration_manipulation_targetAtFixation,jsons/v1_VE1000_randls_57.json,http://54.235.29.9/FacialAge/BNav_EC2/DepthDuration/v2_depth_duration_MTurk/v2_DepthDuration_HTML.html#20,20,1366,768,1366,768,8-22-2022,9-59-54,12,depth_duration_stimuli/002639_2014-06-24_14-51-37_094959634447_rgbf000074-resize_4/002639_2014-06-24_14-51-37_094959634447_rgbf000074-resize_4-target.png,1000,4.0375,5,3233,998,meters,jsons/v1_VE1000_randls_57.json,892504,1021049,62,Woman
12,383714,DepthScenes,duration_manipulation_targetAtFixation,jsons/v1_VE1000_randls_57.json,http://54.235.29.9/FacialAge/BNav_EC2/DepthDuration/v2_depth_duration_MTurk/v2_DepthDuration_HTML.html#20,20,1366,768,1366,768,8-22-2022,9-59-54,13,depth_duration_stimuli/000569_2014-06-09_22-51-47_260595134347_rgbf000141-resize_3/000569_2014-06-09_22-51-47_260595134347_rgbf000141-resize-original.jpg,1000,4.512,0,5318,999,meters,jsons/v1_VE1000_randls_57.json,892504,1021049,62,Woman
13,383714,DepthScenes,duration_manipulation_targetAtFixation,jsons/v1_VE1000_randls_57.json,http://54.235.29.9/FacialAge/BNav_EC2/DepthDuration/v2_depth_duration_MTurk/v2_DepthDuration_HTML.html#20,20,1366,768,1366,768,8-22-2022,9-59-54,14,depth_duration_stimuli/001570_2014-06-20_17-21-09_260595134347_rgbf000135-resize_4/001570_2014-06-20_17-21-09_260595134347_rgbf000135-resize_4-target.png,1000,4.467,5,5470,990,meters,jsons/v1_VE1000_randls_57.json,892504,1021049,62,Woman
14,383714,DepthScenes,duration_manipulation_targetAtFixation,jsons/v1_VE1000_randls_57.json,http://54.235.29.9/FacialAge/BNav_EC2/DepthDuration/v2_depth_duration_MTurk/v2_DepthDuration_HTML.html#20,20,1366,768,1366,768,8-22-2022,9-59-54,15,depth_duration_stimuli/001392_2014-06-19_16-07-59_260595134347_rgbf000046-resize_1/001392_2014-06-19_16-07-59_260595134347_rgbf000046-resize_1-target.png,1000,4.135,5,4568,1012,meters,jsons/v1_VE1000_randls_57.json,892504,1021049,62,Woman
15,383714,DepthScenes,duration_manipulation_targetAtFixation,jsons/v1_VE1000_randls_57.json,http://54.235.29.9/FacialAge/BNav_EC2/DepthDuration/v2_depth_duration_MTurk/v2_DepthDuration_HTML.html#20,20,1366,768,1366,768,8-22-2022,9-59-54,16,depth_duration_stimuli/000506_2014-06-08_23-21-00_260595134347_rgbf000070-resize_7/000506_2014-06-08_23-21-00_260595134347_rgbf000070-resize_7-target.png,1000,4.0585,5,5261,991,meters,jsons/v1_VE1000_randls_57.json,892504,1021049,62,Woman
16,383714,DepthScenes,duration_manipulation_targetAtFixation,jsons/v1_VE1000_randls_57.json,http://54.235.29.9/FacialAge/BNav_EC2/DepthDuration/v2_depth_duration_MTurk/v2_DepthDuration_HTML.html#20,20,1366,768,1366,768,8-22-2022,9-59-54,17,depth_duration_stimuli/003079_2014-06-15_15-18-20_094959634447_rgbf000152-resize_8/003079_2014-06-15_15-18-20_094959634447_rgbf000152-resize_8-target.png,1000,2.8775,5,3577,1000,meters,jsons/v1_VE1000_randls_57.json,892504,1021049,62,Woman
17,383714,DepthScenes,duration_manipulation_targetAtFixation,jsons/v1_VE1000_randls_57.json,http://54.235.29.9/FacialAge/BNav_EC2/DepthDuration/v2_depth_duration_MTurk/v2_DepthDuration_HTML.html#20,20,1366,768,1366,768,8-22-2022,9-59-54,18,depth_duration_stimuli/002784_2014-06-22_19-26-30_094959634447_rgbf000083-resize_3/002784_2014-06-22_19-26-30_094959634447_rgbf000083-resize_3-target.png,1000,1.8046666666667,5,6001,998,meters,jsons/v1_VE1000_randls_57.json,892504,1021049,62,Woman
18,383714,DepthScenes,duration_manipulation_targetAtFixation,jsons/v1_VE1000_randls_57.json,http://54.235.29.9/FacialAge/BNav_EC2/DepthDuration/v2_depth_duration_MTurk/v2_DepthDuration_HTML.html#20,20,1366,768,1366,768,8-22-2022,9-59-54,19,depth_duration_stimuli/001100_2014-06-15_17-46-26_260595134347_rgbf000225-resize_2/001100_2014-06-15_17-46-26_260595134347_rgbf000225-resize_2-target.png,1000,2.24,5,3897,999,meters,jsons/v1_VE1000_randls_57.json,892504,1021049,62,Woman
19,383714,DepthScenes,duration_manipulation_targetAtFixation,jsons/v1_VE1000_randls_57.json,http://54.235.29.9/FacialAge/BNav_EC2/DepthDuration/v2_depth_duration_MTurk/v2_DepthDuration_HTML.html#20,20,1366,768,1366,768,8-22-2022,9-59-54,20,depth_duration_stimuli/000906_2014-06-08_13-35-43_260595134347_rgbf000155-resize_1/000906_2014-06-08_13-35-43_260595134347_rgbf000155-resize_1-target.png,1000,2.8489999999999998,5,5696,983,meters,jsons/v1_VE1000_randls_57.json,892504,1021049,62,Woman
20,383714,DepthScenes,duration_manipulation_targetAtFixation,jsons/v1_VE1000_randls_57.json,http://54.235.29.9/FacialAge/BNav_EC2/DepthDuration/v2_depth_duration_MTurk/v2_DepthDuration_HTML.html#20,20,1366,768,1366,768,8-22-2022,9-59-54,21,depth_duration_stimuli/002805_2014-06-22_19-54-03_094959634447_rgbf000079-resize_1/002805_2014-06-22_19-54-03_094959634447_rgbf000079-resize_1-target.png,1000,3.1439999999999997,5,3965,995,meters,jsons/v1_VE1000_randls_57.json,892504,1021049,62,Woman
21,383714,DepthScenes,duration_manipulation_targetAtFixation,jsons/v1_VE1000_randls_57.json,http://54.235.29.9/FacialAge/BNav_EC2/DepthDuration/v2_depth_duration_MTurk/v2_DepthDuration_HTML.html#20,20,1366,768,1366,768,8-22-2022,9-59-54,22,depth_duration_stimuli/001806_2014-06-26_20-50-20_260595134347_rgbf000091-resize_1/001806_2014-06-26_20-50-20_260595134347_rgbf000091-resize_1-target.png,1000,2.7305,5,5206,999,meters,jsons/v1_VE1000_randls_57.json,892504,1021049,62,Woman
22,383714,DepthScenes,duration_manipulation_targetAtFixation,jsons/v1_VE1000_randls_57.json,http://54.235.29.9/FacialAge/BNav_EC2/DepthDuration/v2_depth_duration_MTurk/v2_DepthDuration_HTML.html#20,20,1366,768,1366,768,8-22-2022,9-59-54,23,depth_duration_stimuli/001617_2014-06-20_11-35-32_260595134347_rgbf000066-resize_1/001617_2014-06-20_11-35-32_260595134347_rgbf000066-resize_1-target.png,1000,3.7910000000000004,5,4093,1000,meters,jsons/v1_VE1000_randls_57.json,892504,1021049,62,Woman
23,383714,DepthScenes,duration_manipulation_targetAtFixation,jsons/v1_VE1000_randls_57.json,http://54.235.29.9/FacialAge/BNav_EC2/DepthDuration/v2_depth_duration_MTurk/v2_DepthDuration_HTML.html#20,20,1366,768,1366,768,8-22-2022,9-59-54,24,depth_duration_stimuli/000009_2014-05-26_14-32-05_260595134347_rgbf000034-resize_3/000009_2014-05-26_14-32-05_260595134347_rgbf000034-resize_3-target.png,1000,3.8715,5,5511,988,meters,jsons/v1_VE1000_randls_57.json,892504,1021049,62,Woman
24,383714,DepthScenes,duration_manipulation_targetAtFixation,jsons/v1_VE1000_randls_57.json,http://54.235.29.9/FacialAge/BNav_EC2/DepthDuration/v2_depth_duration_MTurk/v2_DepthDuration_HTML.html#20,20,1366,768,1366,768,8-22-2022,9-59-54,25,depth_duration_stimuli/001828_2014-06-26_21-40-03_260595134347_rgbf000024-resize_0/001828_2014-06-26_21-40-03_260595134347_rgbf000024-resize_0-target.png,1000,4.8260000000000005,5,4696,999,meters,jsons/v1_VE1000_randls_57.json,892504,1021049,62,Woman
25,383714,DepthScenes,duration_manipulation_targetAtFixation,jsons/v1_VE1000_randls_57.json,http://54.235.29.9/FacialAge/BNav_EC2/DepthDuration/v2_depth_duration_MTurk/v2_DepthDuration_HTML.html#20,20,1366,768,1366,768,8-22-2022,9-59-54,26,depth_duration_stimuli/002272_2014-06-28_18-53-56_260595134347_rgbf000067-resize_2/002272_2014-06-28_18-53-56_260595134347_rgbf000067-resize_2-target.png,1000,1.138,5,3959,998,meters,jsons/v1_VE1000_randls_57.json,892504,1021049,62,Woman
26,383714,DepthScenes,duration_manipulation_targetAtFixation,jsons/v1_VE1000_randls_57.json,http://54.235.29.9/FacialAge/BNav_EC2/DepthDuration/v2_depth_duration_MTurk/v2_DepthDuration_HTML.html#20,20,1366,768,1366,768,8-22-2022,9-59-54,27,depth_duration_stimuli/001571_2014-06-20_17-21-32_260595134347_rgbf000089-resize_1/001571_2014-06-20_17-21-32_260595134347_rgbf000089-resize_1-target.png,1000,1.86,5,5521,1024,meters,jsons/v1_VE1000_randls_57.json,892504,1021049,62,Woman
27,383714,DepthScenes,duration_manipulation_targetAtFixation,jsons/v1_VE1000_randls_57.json,http://54.235.29.9/FacialAge/BNav_EC2/DepthDuration/v2_depth_duration_MTurk/v2_DepthDuration_HTML.html#20,20,1366,768,1366,768,8-22-2022,9-59-54,28,depth_duration_stimuli/000773_2014-06-08_22-24-54_260595134347_rgbf000093-resize_1/000773_2014-06-08_22-24-54_260595134347_rgbf000093-resize_1-target.png,1000,4.973,5,4982,998,meters,jsons/v1_VE1000_randls_57.json,892504,1021049,62,Woman
28,383714,DepthScenes,duration_manipulation_targetAtFixation,jsons/v1_VE1000_randls_57.json,http://54.235.29.9/FacialAge/BNav_EC2/DepthDuration/v2_depth_duration_MTurk/v2_DepthDuration_HTML.html#20,20,1366,768,1366,768,8-22-2022,9-59-54,29,depth_duration_stimuli/002414_2014-06-28_20-24-58_260595134347_rgbf000067-resize_4/002414_2014-06-28_20-24-58_260595134347_rgbf000067-resize_4-target.png,1000,4.363,5,3635,998,meters,jsons/v1_VE1000_randls_57.json,892504,1021049,62,Woman
29,383714,DepthScenes,duration_manipulation_targetAtFixation,jsons/v1_VE1000_randls_57.json,http://54.235.29.9/FacialAge/BNav_EC2/DepthDuration/v2_depth_duration_MTurk/v2_DepthDuration_HTML.html#20,20,1366,768,1366,768,8-22-2022,9-59-54,30,depth_duration_stimuli/000375_2014-06-08_11-17-29_260595134347_rgbf000133-resize_2/000375_2014-06-08_11-17-29_260595134347_rgbf000133-resize-original.jpg,1000,4.718,0,6014,996,meters,jsons/v1_VE1000_randls_57.json,892504,1021049,62,Woman
30,383714,DepthScenes,duration_manipulation_targetAtFixation,jsons/v1_VE1000_randls_57.json,http://54.235.29.9/FacialAge/BNav_EC2/DepthDuration/v2_depth_duration_MTurk/v2_DepthDuration_HTML.html#20,20,1366,768,1366,768,8-22-2022,9-59-54,31,depth_duration_stimuli/001158_2014-06-17_15-32-16_260595134347_rgbf000138-resize_2/001158_2014-06-17_15-32-16_260595134347_rgbf000138-resize_2-target.png,1000,4.5315,5,6476,994,meters,jsons/v1_VE1000_randls_57.json,892504,1021049,62,Woman
31,383714,DepthScenes,duration_manipulation_targetAtFixation,jsons/v1_VE1000_randls_57.json,http://54.235.29.9/FacialAge/BNav_EC2/DepthDuration/v2_depth_duration_MTurk/v2_DepthDuration_HTML.html#20,20,1366,768,1366,768,8-22-2022,9-59-54,32,depth_duration_stimuli/000556_2014-06-09_22-42-56_260595134347_rgbf000214-resize_1/000556_2014-06-09_22-42-56_260595134347_rgbf000214-resize_1-target.png,1000,4.8415,5,5084,998,meters,jsons/v1_VE1000_randls_57.json,892504,1021049,62,Woman
32,383714,DepthScenes,duration_manipulation_targetAtFixation,jsons/v1_VE1000_randls_57.json,http://54.235.29.9/FacialAge/BNav_EC2/DepthDuration/v2_depth_duration_MTurk/v2_DepthDuration_HTML.html#20,20,1366,768,1366,768,8-22-2022,9-59-54,33,depth_duration_stimuli/002375_2014-06-28_20-13-44_260595134347_rgbf000032-resize_1/002375_2014-06-28_20-13-44_260595134347_rgbf000032-resize_1-target.png,1000,4.0175,5,3994,1008,meters,jsons/v1_VE1000_randls_57.json,892504,1021049,62,Woman
33,383714,DepthScenes,duration_manipulation_targetAtFixation,jsons/v1_VE1000_randls_57.json,http://54.235.29.9/FacialAge/BNav_EC2/DepthDuration/v2_depth_duration_MTurk/v2_DepthDuration_HTML.html#20,20,1366,768,1366,768,8-22-2022,9-59-54,34,depth_duration_stimuli/002657_2014-06-13_15-29-54_094959634447_rgbf000150-resize_1/002657_2014-06-13_15-29-54_094959634447_rgbf000150-resize_1-target.png,1000,4.919,5,5936,987,meters,jsons/v1_VE1000_randls_57.json,892504,1021049,62,Woman
34,383714,DepthScenes,duration_manipulation_targetAtFixation,jsons/v1_VE1000_randls_57.json,http://54.235.29.9/FacialAge/BNav_EC2/DepthDuration/v2_depth_duration_MTurk/v2_DepthDuration_HTML.html#20,20,1366,768,1366,768,8-22-2022,9-59-54,35,depth_duration_stimuli/000470_2014-06-09_19-42-40_260595134347_rgbf000094-resize_1/000470_2014-06-09_19-42-40_260595134347_rgbf000094-resize_1-target.png,1000,1.831,5,5311,1001,meters,jsons/v1_VE1000_randls_57.json,892504,1021049,62,Woman
35,383714,DepthScenes,duration_manipulation_targetAtFixation,jsons/v1_VE1000_randls_57.json,http://54.235.29.9/FacialAge/BNav_EC2/DepthDuration/v2_depth_duration_MTurk/v2_DepthDuration_HTML.html#20,20,1366,768,1366,768,8-22-2022,9-59-54,36,depth_duration_stimuli/000109_2014-05-14_23-41-52_260595134347_rgbf000035-resize_9/000109_2014-05-14_23-41-52_260595134347_rgbf000035-resize_9-target.png,1000,1.3545,5,4052,998,meters,jsons/v1_VE1000_randls_57.json,892504,1021049,62,Woman
36,383714,DepthScenes,duration_manipulation_targetAtFixation,jsons/v1_VE1000_randls_57.json,http://54.235.29.9/FacialAge/BNav_EC2/DepthDuration/v2_depth_duration_MTurk/v2_DepthDuration_HTML.html#20,20,1366,768,1366,768,8-22-2022,9-59-54,37,depth_duration_stimuli/002663_2014-06-13_15-50-26_094959634447_rgbf000075-resize_1/002663_2014-06-13_15-50-26_094959634447_rgbf000075-resize_1-target.png,1000,4.7495,5,4924,992,meters,jsons/v1_VE1000_randls_57.json,892504,1021049,62,Woman
37,383714,DepthScenes,duration_manipulation_targetAtFixation,jsons/v1_VE1000_randls_57.json,http://54.235.29.9/FacialAge/BNav_EC2/DepthDuration/v2_depth_duration_MTurk/v2_DepthDuration_HTML.html#20,20,1366,768,1366,768,8-22-2022,9-59-54,38,depth_duration_stimuli/000409_2014-06-04_19-23-33_260595134347_rgbf000067-resize_0/000409_2014-06-04_19-23-33_260595134347_rgbf000067-resize_0-target.png,1000,3.7335,5,4225,999,meters,jsons/v1_VE1000_randls_57.json,892504,1021049,62,Woman
38,383714,DepthScenes,duration_manipulation_targetAtFixation,jsons/v1_VE1000_randls_57.json,http://54.235.29.9/FacialAge/BNav_EC2/DepthDuration/v2_depth_duration_MTurk/v2_DepthDuration_HTML.html#20,20,1366,768,1366,768,8-22-2022,9-59-54,39,depth_duration_stimuli/002630_2014-06-24_14-47-50_094959634447_rgbf000055-resize_1/002630_2014-06-24_14-47-50_094959634447_rgbf000055-resize_1-target.png,1000,3.0095,5,5432,998,meters,jsons/v1_VE1000_randls_57.json,892504,1021049,62,Woman
39,383714,DepthScenes,duration_manipulation_targetAtFixation,jsons/v1_VE1000_randls_57.json,http://54.235.29.9/FacialAge/BNav_EC2/DepthDuration/v2_depth_duration_MTurk/v2_DepthDuration_HTML.html#20,20,1366,768,1366,768,8-22-2022,9-59-54,40,depth_duration_stimuli/002758_2014-06-22_19-11-20_094959634447_rgbf000128-resize_1/002758_2014-06-22_19-11-20_094959634447_rgbf000128-resize_1-target.png,1000,2.555,5,4030,999,meters,jsons/v1_VE1000_randls_57.json,892504,1021049,62,Woman
40,383714,DepthScenes,duration_manipulation_targetAtFixation,jsons/v1_VE1000_randls_57.json,http://54.235.29.9/FacialAge/BNav_EC2/DepthDuration/v2_depth_duration_MTurk/v2_DepthDuration_HTML.html#20,20,1366,768,1366,768,8-22-2022,9-59-54,41,depth_duration_stimuli/000436_2014-06-09_22-25-11_260595134347_rgbf000137-resize_1/000436_2014-06-09_22-25-11_260595134347_rgbf000137-resize_1-target.png,1000,4.0705,5,5242,997,meters,jsons/v1_VE1000_randls_57.json,892504,1021049,62,Woman
41,383714,DepthScenes,duration_manipulation_targetAtFixation,jsons/v1_VE1000_randls_57.json,http://54.235.29.9/FacialAge/BNav_EC2/DepthDuration/v2_depth_duration_MTurk/v2_DepthDuration_HTML.html#20,20,1366,768,1366,768,8-22-2022,9-59-54,42,depth_duration_stimuli/002444_2014-06-28_20-32-08_260595134347_rgbf000027-resize_0/002444_2014-06-28_20-32-08_260595134347_rgbf000027-resize_0-target.png,1000,4.388999999999999,5,3362,1000,meters,jsons/v1_VE1000_randls_57.json,892504,1021049,62,Woman
42,383714,DepthScenes,duration_manipulation_targetAtFixation,jsons/v1_VE1000_randls_57.json,http://54.235.29.9/FacialAge/BNav_EC2/DepthDuration/v2_depth_duration_MTurk/v2_DepthDuration_HTML.html#20,20,1366,768,1366,768,8-22-2022,9-59-54,43,depth_duration_stimuli/002039_2014-06-24_20-22-38_260595134347_rgbf000084-resize_1/002039_2014-06-24_20-22-38_260595134347_rgbf000084-resize_1-target.png,1000,4.408,5,3570,997,meters,jsons/v1_VE1000_randls_57.json,892504,1021049,62,Woman
43,383714,DepthScenes,duration_manipulation_targetAtFixation,jsons/v1_VE1000_randls_57.json,http://54.235.29.9/FacialAge/BNav_EC2/DepthDuration/v2_depth_duration_MTurk/v2_DepthDuration_HTML.html#20,20,1366,768,1366,768,8-22-2022,9-59-54,44,depth_duration_stimuli/002103_2014-06-25_20-00-40_260595134347_rgbf000049-resize_0/002103_2014-06-25_20-00-40_260595134347_rgbf000049-resize_0-target.png,1000,4.105,5,5172,998,meters,jsons/v1_VE1000_randls_57.json,892504,1021049,62,Woman
44,383714,DepthScenes,duration_manipulation_targetAtFixation,jsons/v1_VE1000_randls_57.json,http://54.235.29.9/FacialAge/BNav_EC2/DepthDuration/v2_depth_duration_MTurk/v2_DepthDuration_HTML.html#20,20,1366,768,1366,768,8-22-2022,9-59-54,45,depth_duration_stimuli/000787_2014-06-08_22-33-53_260595134347_rgbf000175-resize_1/000787_2014-06-08_22-33-53_260595134347_rgbf000175-resize-original.jpg,1000,4.784,0,5308,1009,meters,jsons/v1_VE1000_randls_57.json,892504,1021049,62,Woman
45,383714,DepthScenes,duration_manipulation_targetAtFixation,jsons/v1_VE1000_randls_57.json,http://54.235.29.9/FacialAge/BNav_EC2/DepthDuration/v2_depth_duration_MTurk/v2_DepthDuration_HTML.html#20,20,1366,768,1366,768,8-22-2022,9-59-54,46,depth_duration_stimuli/000739_2014-06-08_18-45-58_260595134347_rgbf000068-resize_1/000739_2014-06-08_18-45-58_260595134347_rgbf000068-resize_1-target.png,1000,3.534,5,6448,999,meters,jsons/v1_VE1000_randls_57.json,892504,1021049,62,Woman
46,383714,DepthScenes,duration_manipulation_targetAtFixation,jsons/v1_VE1000_randls_57.json,http://54.235.29.9/FacialAge/BNav_EC2/DepthDuration/v2_depth_duration_MTurk/v2_DepthDuration_HTML.html#20,20,1366,768,1366,768,8-22-2022,9-59-54,47,depth_duration_stimuli/000734_2014-06-08_17-39-11_260595134347_rgbf000128-resize_2/000734_2014-06-08_17-39-11_260595134347_rgbf000128-resize_2-target.png,1000,4.098,5,4394,1002,meters,jsons/v1_VE1000_randls_57.json,892504,1021049,62,Woman
47,383714,DepthScenes,duration_manipulation_targetAtFixation,jsons/v1_VE1000_randls_57.json,http://54.235.29.9/FacialAge/BNav_EC2/DepthDuration/v2_depth_duration_MTurk/v2_DepthDuration_HTML.html#20,20,1366,768,1366,768,8-22-2022,9-59-54,48,depth_duration_stimuli/000878_2014-06-08_22-52-45_260595134347_rgbf000045-resize_2/000878_2014-06-08_22-52-45_260595134347_rgbf000045-resize_2-target.png,1000,2.092,5,4755,999,meters,jsons/v1_VE1000_randls_57.json,892504,1021049,62,Woman
48,383714,DepthScenes,duration_manipulation_targetAtFixation,jsons/v1_VE1000_randls_57.json,http://54.235.29.9/FacialAge/BNav_EC2/DepthDuration/v2_depth_duration_MTurk/v2_DepthDuration_HTML.html#20,20,1366,768,1366,768,8-22-2022,9-59-54,49,depth_duration_stimuli/002953_2014-06-08_17-32-18_094959634447_rgbf000059-resize_5/002953_2014-06-08_17-32-18_094959634447_rgbf000059-resize_5-target.png,1000,1.551,5,4171,999,meters,jsons/v1_VE1000_randls_57.json,892504,1021049,62,Woman
49,383714,DepthScenes,duration_manipulation_targetAtFixation,jsons/v1_VE1000_randls_57.json,http://54.235.29.9/FacialAge/BNav_EC2/DepthDuration/v2_depth_duration_MTurk/v2_DepthDuration_HTML.html#20,20,1366,768,1366,768,8-22-2022,9-59-54,50,depth_duration_stimuli/001055_2014-06-08_18-45-35_260595134347_rgbf000111-resize_4/001055_2014-06-08_18-45-35_260595134347_rgbf000111-resize_4-target.png,1000,2.4290000000000003,5,4591,1009,meters,jsons/v1_VE1000_randls_57.json,892504,1021049,62,Woman
50,383714,DepthScenes,duration_manipulation_targetAtFixation,jsons/v1_VE1000_randls_57.json,http://54.235.29.9/FacialAge/BNav_EC2/DepthDuration/v2_depth_duration_MTurk/v2_DepthDuration_HTML.html#20,20,1366,768,1366,768,8-22-2022,9-59-54,51,depth_duration_stimuli/000549_2014-06-08_22-10-24_260595134347_rgbf000247-resize_3/000549_2014-06-08_22-10-24_260595134347_rgbf000247-resize_3-target.png,1000,1.841,5,3333,989,meters,jsons/v1_VE1000_randls_57.json,892504,1021049,62,Woman
51,383714,DepthScenes,duration_manipulation_targetAtFixation,jsons/v1_VE1000_randls_57.json,http://54.235.29.9/FacialAge/BNav_EC2/DepthDuration/v2_depth_duration_MTurk/v2_DepthDuration_HTML.html#20,20,1366,768,1366,768,8-22-2022,9-59-54,52,depth_duration_stimuli/002279_2014-06-28_18-55-32_260595134347_rgbf000040-resize_5/002279_2014-06-28_18-55-32_260595134347_rgbf000040-resize_5-target.png,1000,1.5043333333333,5,6133,1001,meters,jsons/v1_VE1000_randls_57.json,892504,1021049,62,Woman
52,383714,DepthScenes,duration_manipulation_targetAtFixation,jsons/v1_VE1000_randls_57.json,http://54.235.29.9/FacialAge/BNav_EC2/DepthDuration/v2_depth_duration_MTurk/v2_DepthDuration_HTML.html#20,20,1366,768,1366,768,8-22-2022,9-59-54,53,depth_duration_stimuli/000635_2014-06-08_16-38-42_260595134347_rgbf000106-resize_1/000635_2014-06-08_16-38-42_260595134347_rgbf000106-resize_1-target.png,1000,2.074,5,3856,1007,meters,jsons/v1_VE1000_randls_57.json,892504,1021049,62,Woman
53,383714,DepthScenes,duration_manipulation_targetAtFixation,jsons/v1_VE1000_randls_57.json,http://54.235.29.9/FacialAge/BNav_EC2/DepthDuration/v2_depth_duration_MTurk/v2_DepthDuration_HTML.html#20,20,1366,768,1366,768,8-22-2022,9-59-54,54,depth_duration_stimuli/000368_2014-06-09_15-53-01_260595134347_rgbf000155-resize_2/000368_2014-06-09_15-53-01_260595134347_rgbf000155-resize_2-target.png,1000,2.4859999999999998,5,3363,1024,meters,jsons/v1_VE1000_randls_57.json,892504,1021049,62,Woman
54,383714,DepthScenes,duration_manipulation_targetAtFixation,jsons/v1_VE1000_randls_57.json,http://54.235.29.9/FacialAge/BNav_EC2/DepthDuration/v2_depth_duration_MTurk/v2_DepthDuration_HTML.html#20,20,1366,768,1366,768,8-22-2022,9-59-54,55,depth_duration_stimuli/002678_2014-06-13_16-15-32_094959634447_rgbf000151-resize_6/002678_2014-06-13_16-15-32_094959634447_rgbf000151-resize_6-target.png,1000,2.1830000000000003,5,6554,994,meters,jsons/v1_VE1000_randls_57.json,892504,1021049,62,Woman
55,383714,DepthScenes,duration_manipulation_targetAtFixation,jsons/v1_VE1000_randls_57.json,http://54.235.29.9/FacialAge/BNav_EC2/DepthDuration/v2_depth_duration_MTurk/v2_DepthDuration_HTML.html#20,20,1366,768,1366,768,8-22-2022,9-59-54,56,depth_duration_stimuli/001555_2014-06-20_17-12-10_260595134347_rgbf000065-resize_4/001555_2014-06-20_17-12-10_260595134347_rgbf000065-resize_4-target.png,1000,1.633,5,5333,998,meters,jsons/v1_VE1000_randls_57.json,892504,1021049,62,Woman
56,383714,DepthScenes,duration_manipulation_targetAtFixation,jsons/v1_VE1000_randls_57.json,http://54.235.29.9/FacialAge/BNav_EC2/DepthDuration/v2_depth_duration_MTurk/v2_DepthDuration_HTML.html#20,20,1366,768,1366,768,8-22-2022,9-59-54,57,depth_duration_stimuli/000103_2014-05-14_22-01-17_260595134347_rgbf000152-resize_5/000103_2014-05-14_22-01-17_260595134347_rgbf000152-resize_5-target.png,1000,1.993,5,6030,1009,meters,jsons/v1_VE1000_randls_57.json,892504,1021049,62,Woman
57,383714,DepthScenes,duration_manipulation_targetAtFixation,jsons/v1_VE1000_randls_57.json,http://54.235.29.9/FacialAge/BNav_EC2/DepthDuration/v2_depth_duration_MTurk/v2_DepthDuration_HTML.html#20,20,1366,768,1366,768,8-22-2022,9-59-54,58,depth_duration_stimuli/002748_2014-06-22_19-07-22_094959634447_rgbf000078-resize_1/002748_2014-06-22_19-07-22_094959634447_rgbf000078-resize_1-target.png,1000,4.6705,5,5321,999,meters,jsons/v1_VE1000_randls_57.json,892504,1021049,62,Woman
58,383714,DepthScenes,duration_manipulation_targetAtFixation,jsons/v1_VE1000_randls_57.json,http://54.235.29.9/FacialAge/BNav_EC2/DepthDuration/v2_depth_duration_MTurk/v2_DepthDuration_HTML.html#20,20,1366,768,1366,768,8-22-2022,9-59-54,59,depth_duration_stimuli/002995_2014-06-15_12-31-26_094959634447_rgbf000150-resize_1/002995_2014-06-15_12-31-26_094959634447_rgbf000150-resize_1-target.png,1000,3.8360000000000003,5,5204,998,meters,jsons/v1_VE1000_randls_57.json,892504,1021049,62,Woman
59,383714,DepthScenes,duration_manipulation_targetAtFixation,jsons/v1_VE1000_randls_57.json,http://54.235.29.9/FacialAge/BNav_EC2/DepthDuration/v2_depth_duration_MTurk/v2_DepthDuration_HTML.html#20,20,1366,768,1366,768,8-22-2022,9-59-54,60,depth_duration_stimuli/000414_2014-06-04_19-49-13_260595134347_rgbf000044-resize_0/000414_2014-06-04_19-49-13_260595134347_rgbf000044-resize_0-target.png,1000,4.329,5,5763,1006,meters,jsons/v1_VE1000_randls_57.json,892504,1021049,62,Woman
60,383714,DepthScenes,duration_manipulation_targetAtFixation,jsons/v1_VE1000_randls_57.json,http://54.235.29.9/FacialAge/BNav_EC2/DepthDuration/v2_depth_duration_MTurk/v2_DepthDuration_HTML.html#20,20,1366,768,1366,768,8-22-2022,9-59-54,61,depth_duration_stimuli/003129_2014-05-12_10-48-10_094959634447_rgbf000100-resize_0/003129_2014-05-12_10-48-10_094959634447_rgbf000100-resize_0-target.png,1000,4.9305,5,4019,1010,meters,jsons/v1_VE1000_randls_57.json,892504,1021049,62,Woman
61,383714,DepthScenes,duration_manipulation_targetAtFixation,jsons/v1_VE1000_randls_57.json,http://54.235.29.9/FacialAge/BNav_EC2/DepthDuration/v2_depth_duration_MTurk/v2_DepthDuration_HTML.html#20,20,1366,768,1366,768,8-22-2022,9-59-54,62,depth_duration_stimuli/003492_2014-05-21_15-50-55_094959634447_rgbf000828-resize_1/003492_2014-05-21_15-50-55_094959634447_rgbf000828-resize_1-target.png,1000,4.06875,5,5199,998,meters,jsons/v1_VE1000_randls_57.json,892504,1021049,62,Woman
62,383714,DepthScenes,duration_manipulation_targetAtFixation,jsons/v1_VE1000_randls_57.json,http://54.235.29.9/FacialAge/BNav_EC2/DepthDuration/v2_depth_duration_MTurk/v2_DepthDuration_HTML.html#20,20,1366,768,1366,768,8-22-2022,9-59-54,63,depth_duration_stimuli/002568_2014-06-24_13-59-21_094959634447_rgbf000062-resize_4/002568_2014-06-24_13-59-21_094959634447_rgbf000062-resize_4-target.png,1000,3.015,5,3952,970,meters,jsons/v1_VE1000_randls_57.json,892504,1021049,62,Woman
63,383714,DepthScenes,duration_manipulation_targetAtFixation,jsons/v1_VE1000_randls_57.json,http://54.235.29.9/FacialAge/BNav_EC2/DepthDuration/v2_depth_duration_MTurk/v2_DepthDuration_HTML.html#20,20,1366,768,1366,768,8-22-2022,9-59-54,64,depth_duration_stimuli/000486_2014-06-09_20-47-20_260595134347_rgbf000143-resize_2/000486_2014-06-09_20-47-20_260595134347_rgbf000143-resize_2-target.png,1000,4.8325,5,4901,1001,meters,jsons/v1_VE1000_randls_57.json,892504,1021049,62,Woman
64,383714,DepthScenes,duration_manipulation_targetAtFixation,jsons/v1_VE1000_randls_57.json,http://54.235.29.9/FacialAge/BNav_EC2/DepthDuration/v2_depth_duration_MTurk/v2_DepthDuration_HTML.html#20,20,1366,768,1366,768,8-22-2022,9-59-54,65,depth_duration_stimuli/003083_2014-06-15_15-21-03_094959634447_rgbf000063-resize_1/003083_2014-06-15_15-21-03_094959634447_rgbf000063-resize_1-target.png,1000,4.1405,5,3645,996,meters,jsons/v1_VE1000_randls_57.json,892504,1021049,62,Woman
65,383714,DepthScenes,duration_manipulation_targetAtFixation,jsons/v1_VE1000_randls_57.json,http://54.235.29.9/FacialAge/BNav_EC2/DepthDuration/v2_depth_duration_MTurk/v2_DepthDuration_HTML.html#20,20,1366,768,1366,768,8-22-2022,9-59-54,66,depth_duration_stimuli/001222_2014-06-17_16-24-06_260595134347_rgbf000073-resize_0/001222_2014-06-17_16-24-06_260595134347_rgbf000073-resize-original.jpg,1000,1.4385,0,5586,967,meters,jsons/v1_VE1000_randls_57.json,892504,1021049,62,Woman
66,383714,DepthScenes,duration_manipulation_targetAtFixation,jsons/v1_VE1000_randls_57.json,http://54.235.29.9/FacialAge/BNav_EC2/DepthDuration/v2_depth_duration_MTurk/v2_DepthDuration_HTML.html#20,20,1366,768,1366,768,8-22-2022,9-59-54,67,depth_duration_stimuli/001199_2014-06-17_16-03-48_260595134347_rgbf000077-resize_0/001199_2014-06-17_16-03-48_260595134347_rgbf000077-resize_0-target.png,1000,3.4375,5,4589,998,meters,jsons/v1_VE1000_randls_57.json,892504,1021049,62,Woman
67,383714,DepthScenes,duration_manipulation_targetAtFixation,jsons/v1_VE1000_randls_57.json,http://54.235.29.9/FacialAge/BNav_EC2/DepthDuration/v2_depth_duration_MTurk/v2_DepthDuration_HTML.html#20,20,1366,768,1366,768,8-22-2022,9-59-54,68,depth_duration_stimuli/000502_2014-06-08_23-02-32_260595134347_rgbf000063-resize_4/000502_2014-06-08_23-02-32_260595134347_rgbf000063-resize_4-target.png,1000,2.431,5,3658,1000,meters,jsons/v1_VE1000_randls_57.json,892504,1021049,62,Woman
68,383714,DepthScenes,duration_manipulation_targetAtFixation,jsons/v1_VE1000_randls_57.json,http://54.235.29.9/FacialAge/BNav_EC2/DepthDuration/v2_depth_duration_MTurk/v2_DepthDuration_HTML.html#20,20,1366,768,1366,768,8-22-2022,9-59-54,69,depth_duration_stimuli/000810_2014-06-08_17-20-01_260595134347_rgbf000105-resize_0/000810_2014-06-08_17-20-01_260595134347_rgbf000105-resize_0-target.png,1000,1.4865,5,5347,990,meters,jsons/v1_VE1000_randls_57.json,892504,1021049,62,Woman
69,383714,DepthScenes,duration_manipulation_targetAtFixation,jsons/v1_VE1000_randls_57.json,http://54.235.29.9/FacialAge/BNav_EC2/DepthDuration/v2_depth_duration_MTurk/v2_DepthDuration_HTML.html#20,20,1366,768,1366,768,8-22-2022,9-59-54,70,depth_duration_stimuli/001214_2014-06-17_16-13-55_260595134347_rgbf000111-resize_0/001214_2014-06-17_16-13-55_260595134347_rgbf000111-resize_0-target.png,1000,2.6505,5,4457,998,meters,jsons/v1_VE1000_randls_57.json,892504,1021049,62,Woman
70,383714,DepthScenes,duration_manipulation_targetAtFixation,jsons/v1_VE1000_randls_57.json,http://54.235.29.9/FacialAge/BNav_EC2/DepthDuration/v2_depth_duration_MTurk/v2_DepthDuration_HTML.html#20,20,1366,768,1366,768,8-22-2022,9-59-54,71,depth_duration_stimuli/002509_2014-06-24_13-19-22_094959634447_rgbf000077-resize_0/002509_2014-06-24_13-19-22_094959634447_rgbf000077-resize_0-target.png,1000,1.3065,5,5028,1000,meters,jsons/v1_VE1000_randls_57.json,892504,1021049,62,Woman
71,383714,DepthScenes,duration_manipulation_targetAtFixation,jsons/v1_VE1000_randls_57.json,http://54.235.29.9/FacialAge/BNav_EC2/DepthDuration/v2_depth_duration_MTurk/v2_DepthDuration_HTML.html#20,20,1366,768,1366,768,8-22-2022,9-59-54,72,depth_duration_stimuli/003338_2014-05-20_11-01-23_094959634447_rgbf000051-resize_6/003338_2014-05-20_11-01-23_094959634447_rgbf000051-resize_6-target.png,1000,1.693,5,4046,1006,meters,jsons/v1_VE1000_randls_57.json,892504,1021049,62,Woman
72,383714,DepthScenes,duration_manipulation_targetAtFixation,jsons/v1_VE1000_randls_57.json,http://54.235.29.9/FacialAge/BNav_EC2/DepthDuration/v2_depth_duration_MTurk/v2_DepthDuration_HTML.html#20,20,1366,768,1366,768,8-22-2022,9-59-54,73,depth_duration_stimuli/000682_2014-06-08_23-14-58_260595134347_rgbf000041-resize_5/000682_2014-06-08_23-14-58_260595134347_rgbf000041-resize_5-target.png,1000,2.7239999999999998,5,4882,993,meters,jsons/v1_VE1000_randls_57.json,892504,1021049,62,Woman
73,383714,DepthScenes,duration_manipulation_targetAtFixation,jsons/v1_VE1000_randls_57.json,http://54.235.29.9/FacialAge/BNav_EC2/DepthDuration/v2_depth_duration_MTurk/v2_DepthDuration_HTML.html#20,20,1366,768,1366,768,8-22-2022,9-59-54,74,depth_duration_stimuli/001650_2014-06-20_12-09-00_260595134347_rgbf000087-resize_3/001650_2014-06-20_12-09-00_260595134347_rgbf000087-resize_3-target.png,1000,1.9505,5,4492,999,meters,jsons/v1_VE1000_randls_57.json,892504,1021049,62,Woman
74,383714,DepthScenes,duration_manipulation_targetAtFixation,jsons/v1_VE1000_randls_57.json,http://54.235.29.9/FacialAge/BNav_EC2/DepthDuration/v2_depth_duration_MTurk/v2_DepthDuration_HTML.html#20,20,1366,768,1366,768,8-22-2022,9-59-54,75,depth_duration_stimuli/001059_2014-06-08_21-53-27_260595134347_rgbf000061-resize_4/001059_2014-06-08_21-53-27_260595134347_rgbf000061-resize_4-target.png,1000,2.4185,5,5094,1014,meters,jsons/v1_VE1000_randls_57.json,892504,1021049,62,Woman
75,383714,DepthScenes,duration_manipulation_targetAtFixation,jsons/v1_VE1000_randls_57.json,http://54.235.29.9/FacialAge/BNav_EC2/DepthDuration/v2_depth_duration_MTurk/v2_DepthDuration_HTML.html#20,20,1366,768,1366,768,8-22-2022,9-59-54,76,depth_duration_stimuli/001032_2014-06-08_13-23-17_260595134347_rgbf000021-resize_3/001032_2014-06-08_13-23-17_260595134347_rgbf000021-resize_3-target.png,1000,3.2725,5,3454,1000,meters,jsons/v1_VE1000_randls_57.json,892504,1021049,62,Woman
76,383714,DepthScenes,duration_manipulation_targetAtFixation,jsons/v1_VE1000_randls_57.json,http://54.235.29.9/FacialAge/BNav_EC2/DepthDuration/v2_depth_duration_MTurk/v2_DepthDuration_HTML.html#20,20,1366,768,1366,768,8-22-2022,9-59-54,77,depth_duration_stimuli/000522_2014-06-08_13-35-06_260595134347_rgbf000244-resize_1/000522_2014-06-08_13-35-06_260595134347_rgbf000244-resize_1-target.png,1000,2.3715,5,5164,999,meters,jsons/v1_VE1000_randls_57.json,892504,1021049,62,Woman
77,383714,DepthScenes,duration_manipulation_targetAtFixation,jsons/v1_VE1000_randls_57.json,http://54.235.29.9/FacialAge/BNav_EC2/DepthDuration/v2_depth_duration_MTurk/v2_DepthDuration_HTML.html#20,20,1366,768,1366,768,8-22-2022,9-59-54,78,depth_duration_stimuli/002949_2014-06-26_15-57-42_094959634447_rgbf000079-resize_1/002949_2014-06-26_15-57-42_094959634447_rgbf000079-resize_1-target.png,1000,1.8915,5,4216,995,meters,jsons/v1_VE1000_randls_57.json,892504,1021049,62,Woman
78,383714,DepthScenes,duration_manipulation_targetAtFixation,jsons/v1_VE1000_randls_57.json,http://54.235.29.9/FacialAge/BNav_EC2/DepthDuration/v2_depth_duration_MTurk/v2_DepthDuration_HTML.html#20,20,1366,768,1366,768,8-22-2022,9-59-54,79,depth_duration_stimuli/001110_2014-06-15_17-25-28_260595134347_rgbf000150-resize_1/001110_2014-06-15_17-25-28_260595134347_rgbf000150-resize_1-target.png,1000,1.7115,5,4332,998,meters,jsons/v1_VE1000_randls_57.json,892504,1021049,62,Woman
79,383714,DepthScenes,duration_manipulation_targetAtFixation,jsons/v1_VE1000_randls_57.json,http://54.235.29.9/FacialAge/BNav_EC2/DepthDuration/v2_depth_duration_MTurk/v2_DepthDuration_HTML.html#20,20,1366,768,1366,768,8-22-2022,9-59-54,80,depth_duration_stimuli/000927_2014-06-09_16-32-30_260595134347_rgbf000123-resize_3/000927_2014-06-09_16-32-30_260595134347_rgbf000123-resize_3-target.png,1000,2.6785,5,3966,990,meters,jsons/v1_VE1000_randls_57.json,892504,1021049,62,Woman
80,383714,DepthScenes,duration_manipulation_targetAtFixation,jsons/v1_VE1000_randls_57.json,http://54.235.29.9/FacialAge/BNav_EC2/DepthDuration/v2_depth_duration_MTurk/v2_DepthDuration_HTML.html#20,20,1366,768,1366,768,8-22-2022,9-59-54,81,depth_duration_stimuli/001810_2014-06-26_20-51-35_260595134347_rgbf000040-resize_3/001810_2014-06-26_20-51-35_260595134347_rgbf000040-resize_3-target.png,1000,2.2525,5,4496,998,meters,jsons/v1_VE1000_randls_57.json,892504,1021049,62,Woman
81,383714,DepthScenes,duration_manipulation_targetAtFixation,jsons/v1_VE1000_randls_57.json,http://54.235.29.9/FacialAge/BNav_EC2/DepthDuration/v2_depth_duration_MTurk/v2_DepthDuration_HTML.html#20,20,1366,768,1366,768,8-22-2022,9-59-54,82,depth_duration_stimuli/003010_2014-06-15_12-54-35_094959634447_rgbf000112-resize_0/003010_2014-06-15_12-54-35_094959634447_rgbf000112-resize_0-target.png,1000,3.1185,5,4084,1000,meters,jsons/v1_VE1000_randls_57.json,892504,1021049,62,Woman
82,383714,DepthScenes,duration_manipulation_targetAtFixation,jsons/v1_VE1000_randls_57.json,http://54.235.29.9/FacialAge/BNav_EC2/DepthDuration/v2_depth_duration_MTurk/v2_DepthDuration_HTML.html#20,20,1366,768,1366,768,8-22-2022,9-59-54,83,depth_duration_stimuli/000929_2014-06-09_16-33-19_260595134347_rgbf000139-resize_0/000929_2014-06-09_16-33-19_260595134347_rgbf000139-resize_0-target.png,1000,2.8680000000000003,5,7083,990,meters,jsons/v1_VE1000_randls_57.json,892504,1021049,62,Woman
83,383714,DepthScenes,duration_manipulation_targetAtFixation,jsons/v1_VE1000_randls_57.json,http://54.235.29.9/FacialAge/BNav_EC2/DepthDuration/v2_depth_duration_MTurk/v2_DepthDuration_HTML.html#20,20,1366,768,1366,768,8-22-2022,9-59-54,84,depth_duration_stimuli/000457_2014-06-08_16-52-43_260595134347_rgbf000199-resize_1/000457_2014-06-08_16-52-43_260595134347_rgbf000199-resize_1-target.png,1000,3.6489999999999996,5,4280,1000,meters,jsons/v1_VE1000_randls_57.json,892504,1021049,62,Woman
84,383714,DepthScenes,duration_manipulation_targetAtFixation,jsons/v1_VE1000_randls_57.json,http://54.235.29.9/FacialAge/BNav_EC2/DepthDuration/v2_depth_duration_MTurk/v2_DepthDuration_HTML.html#20,20,1366,768,1366,768,8-22-2022,9-59-54,85,depth_duration_stimuli/002057_2014-06-24_21-00-13_260595134347_rgbf000120-resize_1/002057_2014-06-24_21-00-13_260595134347_rgbf000120-resize_1-target.png,1000,2.967,5,5714,990,meters,jsons/v1_VE1000_randls_57.json,892504,1021049,62,Woman
85,383714,DepthScenes,duration_manipulation_targetAtFixation,jsons/v1_VE1000_randls_57.json,http://54.235.29.9/FacialAge/BNav_EC2/DepthDuration/v2_depth_duration_MTurk/v2_DepthDuration_HTML.html#20,20,1366,768,1366,768,8-22-2022,9-59-54,86,depth_duration_stimuli/000709_2014-06-08_13-51-55_260595134347_rgbf000068-resize_3/000709_2014-06-08_13-51-55_260595134347_rgbf000068-resize_3-target.png,1000,1.8030000000000002,5,4088,980,meters,jsons/v1_VE1000_randls_57.json,892504,1021049,62,Woman
86,383714,DepthScenes,duration_manipulation_targetAtFixation,jsons/v1_VE1000_randls_57.json,http://54.235.29.9/FacialAge/BNav_EC2/DepthDuration/v2_depth_duration_MTurk/v2_DepthDuration_HTML.html#20,20,1366,768,1366,768,8-22-2022,9-59-54,87,depth_duration_stimuli/001175_2014-06-17_15-45-55_260595134347_rgbf000129-resize_4/001175_2014-06-17_15-45-55_260595134347_rgbf000129-resize_4-target.png,1000,4.255,5,5805,996,meters,jsons/v1_VE1000_randls_57.json,892504,1021049,62,Woman
87,383714,DepthScenes,duration_manipulation_targetAtFixation,jsons/v1_VE1000_randls_57.json,http://54.235.29.9/FacialAge/BNav_EC2/DepthDuration/v2_depth_duration_MTurk/v2_DepthDuration_HTML.html#20,20,1366,768,1366,768,8-22-2022,9-59-54,88,depth_duration_stimuli/003490_2014-05-21_15-50-11_094959634447_rgbf000101-resize_3/003490_2014-05-21_15-50-11_094959634447_rgbf000101-resize_3-target.png,1000,3.6445,5,3968,998,meters,jsons/v1_VE1000_randls_57.json,892504,1021049,62,Woman
88,383714,DepthScenes,duration_manipulation_targetAtFixation,jsons/v1_VE1000_randls_57.json,http://54.235.29.9/FacialAge/BNav_EC2/DepthDuration/v2_depth_duration_MTurk/v2_DepthDuration_HTML.html#20,20,1366,768,1366,768,8-22-2022,9-59-54,89,depth_duration_stimuli/001808_2014-06-26_20-50-58_260595134347_rgbf000029-resize_1/001808_2014-06-26_20-50-58_260595134347_rgbf000029-resize_1-target.png,1000,4.249,5,6102,1014,meters,jsons/v1_VE1000_randls_57.json,892504,1021049,62,Woman
89,383714,DepthScenes,duration_manipulation_targetAtFixation,jsons/v1_VE1000_randls_57.json,http://54.235.29.9/FacialAge/BNav_EC2/DepthDuration/v2_depth_duration_MTurk/v2_DepthDuration_HTML.html#20,20,1366,768,1366,768,8-22-2022,9-59-54,90,depth_duration_stimuli/001815_2014-06-26_20-52-55_260595134347_rgbf000020-resize_0/001815_2014-06-26_20-52-55_260595134347_rgbf000020-resize_0-target.png,1000,3.3865,5,4200,999,meters,jsons/v1_VE1000_randls_57.json,892504,1021049,62,Woman
90,383714,DepthScenes,duration_manipulation_targetAtFixation,jsons/v1_VE1000_randls_57.json,http://54.235.29.9/FacialAge/BNav_EC2/DepthDuration/v2_depth_duration_MTurk/v2_DepthDuration_HTML.html#20,20,1366,768,1366,768,8-22-2022,9-59-54,91,depth_duration_stimuli/002905_2014-06-03_18-04-43_094959634447_rgbf000151-resize_2/002905_2014-06-03_18-04-43_094959634447_rgbf000151-resize_2-target.png,1000,2.0295,5,5231,996,meters,jsons/v1_VE1000_randls_57.json,892504,1021049,62,Woman
91,383714,DepthScenes,duration_manipulation_targetAtFixation,jsons/v1_VE1000_randls_57.json,http://54.235.29.9/FacialAge/BNav_EC2/DepthDuration/v2_depth_duration_MTurk/v2_DepthDuration_HTML.html#20,20,1366,768,1366,768,8-22-2022,9-59-54,92,depth_duration_stimuli/003423_2014-05-21_10-23-26_094959634447_rgbf002665-resize_2/003423_2014-05-21_10-23-26_094959634447_rgbf002665-resize_2-target.png,1000,3.2575,5,4252,983,meters,jsons/v1_VE1000_randls_57.json,892504,1021049,62,Woman
92,383714,DepthScenes,duration_manipulation_targetAtFixation,jsons/v1_VE1000_randls_57.json,http://54.235.29.9/FacialAge/BNav_EC2/DepthDuration/v2_depth_duration_MTurk/v2_DepthDuration_HTML.html#20,20,1366,768,1366,768,8-22-2022,9-59-54,93,depth_duration_stimuli/000493_2014-06-09_21-01-18_260595134347_rgbf000196-resize_3/000493_2014-06-09_21-01-18_260595134347_rgbf000196-resize_3-target.png,1000,3.44,5,5765,999,meters,jsons/v1_VE1000_randls_57.json,892504,1021049,62,Woman
93,383714,DepthScenes,duration_manipulation_targetAtFixation,jsons/v1_VE1000_randls_57.json,http://54.235.29.9/FacialAge/BNav_EC2/DepthDuration/v2_depth_duration_MTurk/v2_DepthDuration_HTML.html#20,20,1366,768,1366,768,8-22-2022,9-59-54,94,depth_duration_stimuli/000191_2014-05-12_17-07-38_260595134347_rgbf000199-resize_0/000191_2014-05-12_17-07-38_260595134347_rgbf000199-resize_0-target.png,1000,3.7995,5,4868,999,meters,jsons/v1_VE1000_randls_57.json,892504,1021049,62,Woman
94,383714,DepthScenes,duration_manipulation_targetAtFixation,jsons/v1_VE1000_randls_57.json,http://54.235.29.9/FacialAge/BNav_EC2/DepthDuration/v2_depth_duration_MTurk/v2_DepthDuration_HTML.html#20,20,1366,768,1366,768,8-22-2022,9-59-54,95,depth_duration_stimuli/001016_2014-06-09_16-16-10_260595134347_rgbf000112-resize_5/001016_2014-06-09_16-16-10_260595134347_rgbf000112-resize_5-target.png,1000,1.6565,5,3643,1000,meters,jsons/v1_VE1000_randls_57.json,892504,1021049,62,Woman
95,383714,DepthScenes,duration_manipulation_targetAtFixation,jsons/v1_VE1000_randls_57.json,http://54.235.29.9/FacialAge/BNav_EC2/DepthDuration/v2_depth_duration_MTurk/v2_DepthDuration_HTML.html#20,20,1366,768,1366,768,8-22-2022,9-59-54,96,depth_duration_stimuli/002340_2014-06-28_20-05-46_260595134347_rgbf000113-resize_0/002340_2014-06-28_20-05-46_260595134347_rgbf000113-resize_0-target.png,1000,2.4735,5,5453,1001,meters,jsons/v1_VE1000_randls_57.json,892504,1021049,62,Woman
96,383714,DepthScenes,duration_manipulation_targetAtFixation,jsons/v1_VE1000_randls_57.json,http://54.235.29.9/FacialAge/BNav_EC2/DepthDuration/v2_depth_duration_MTurk/v2_DepthDuration_HTML.html#20,20,1366,768,1366,768,8-22-2022,9-59-54,97,depth_duration_stimuli/001029_2014-06-08_13-17-57_260595134347_rgbf000065-resize_1/001029_2014-06-08_13-17-57_260595134347_rgbf000065-resize_1-target.png,1000,3.0835,5,6075,1000,meters,jsons/v1_VE1000_randls_57.json,892504,1021049,62,Woman
97,383714,DepthScenes,duration_manipulation_targetAtFixation,jsons/v1_VE1000_randls_57.json,http://54.235.29.9/FacialAge/BNav_EC2/DepthDuration/v2_depth_duration_MTurk/v2_DepthDuration_HTML.html#20,20,1366,768,1366,768,8-22-2022,9-59-54,98,depth_duration_stimuli/000677_2014-06-08_23-10-32_260595134347_rgbf000158-resize_6/000677_2014-06-08_23-10-32_260595134347_rgbf000158-resize_6-target.png,1000,3.556,5,4417,1015,meters,jsons/v1_VE1000_randls_57.json,892504,1021049,62,Woman
98,383714,DepthScenes,duration_manipulation_targetAtFixation,jsons/v1_VE1000_randls_57.json,http://54.235.29.9/FacialAge/BNav_EC2/DepthDuration/v2_depth_duration_MTurk/v2_DepthDuration_HTML.html#20,20,1366,768,1366,768,8-22-2022,9-59-54,99,depth_duration_stimuli/001540_2014-06-20_17-01-05_260595134347_rgbf000086-resize_2/001540_2014-06-20_17-01-05_260595134347_rgbf000086-resize-original.jpg,1000,1.459,5,6577,1002,meters,jsons/v1_VE1000_randls_57.json,892504,1021049,62,Woman
99,383714,DepthScenes,duration_manipulation_targetAtFixation,jsons/v1_VE1000_randls_57.json,http://54.235.29.9/FacialAge/BNav_EC2/DepthDuration/v2_depth_duration_MTurk/v2_DepthDuration_HTML.html#20,20,1366,768,1366,768,8-22-2022,9-59-54,100,depth_duration_stimuli/003534_2014-05-22_15-06-10_094959634447_rgbf000102-resize_4/003534_2014-05-22_15-06-10_094959634447_rgbf000102-resize_4-target.png,1000,1.426,5,20854,984,meters,jsons/v1_VE1000_randls_57.json,892504,1021049,62,Woman
100,383714,DepthScenes,duration_manipulation_targetAtFixation,jsons/v1_VE1000_randls_57.json,http://54.235.29.9/FacialAge/BNav_EC2/DepthDuration/v2_depth_duration_MTurk/v2_DepthDuration_HTML.html#20,20,1366,768,1366,768,8-22-2022,9-59-54,101,depth_duration_stimuli/002637_2014-06-24_14-51-13_094959634447_rgbf000066-resize_4/002637_2014-06-24_14-51-13_094959634447_rgbf000066-resize_4-target.png,1000,1.9955,5,4464,1004,meters,jsons/v1_VE1000_randls_57.json,892504,1021049,62,Woman
101,383714,DepthScenes,duration_manipulation_targetAtFixation,jsons/v1_VE1000_randls_57.json,http://54.235.29.9/FacialAge/BNav_EC2/DepthDuration/v2_depth_duration_MTurk/v2_DepthDuration_HTML.html#20,20,1366,768,1366,768,8-22-2022,9-59-54,102,depth_duration_stimuli/002153_2014-06-25_21-27-18_260595134347_rgbf000038-resize_5/002153_2014-06-25_21-27-18_260595134347_rgbf000038-resize_5-target.png,1000,2.505,5,3139,975,meters,jsons/v1_VE1000_randls_57.json,892504,1021049,62,Woman
102,383714,DepthScenes,duration_manipulation_targetAtFixation,jsons/v1_VE1000_randls_57.json,http://54.235.29.9/FacialAge/BNav_EC2/DepthDuration/v2_depth_duration_MTurk/v2_DepthDuration_HTML.html#20,20,1366,768,1366,768,8-22-2022,9-59-54,103,depth_duration_stimuli/002660_2014-06-13_15-44-18_094959634447_rgbf001878-resize_2/002660_2014-06-13_15-44-18_094959634447_rgbf001878-resize_2-target.png,1000,3.576,5,4958,999,meters,jsons/v1_VE1000_randls_57.json,892504,1021049,62,Woman
103,383714,DepthScenes,duration_manipulation_targetAtFixation,jsons/v1_VE1000_randls_57.json,http://54.235.29.9/FacialAge/BNav_EC2/DepthDuration/v2_depth_duration_MTurk/v2_DepthDuration_HTML.html#20,20,1366,768,1366,768,8-22-2022,9-59-54,104,depth_duration_stimuli/002600_2014-06-24_14-27-04_094959634447_rgbf000074-resize_2/002600_2014-06-24_14-27-04_094959634447_rgbf000074-resize_2-target.png,1000,2.7575,5,4612,1001,meters,jsons/v1_VE1000_randls_57.json,892504,1021049,62,Woman
104,383714,DepthScenes,duration_manipulation_targetAtFixation,jsons/v1_VE1000_randls_57.json,http://54.235.29.9/FacialAge/BNav_EC2/DepthDuration/v2_depth_duration_MTurk/v2_DepthDuration_HTML.html#20,20,1366,768,1366,768,8-22-2022,9-59-54,105,depth_duration_stimuli/003228_2014-05-14_13-42-35_094959634447_rgbf000101-resize_1/003228_2014-05-14_13-42-35_094959634447_rgbf000101-resize_1-target.png,1000,1.9680000000000002,5,4615,999,meters,jsons/v1_VE1000_randls_57.json,892504,1021049,62,Woman
105,383714,DepthScenes,duration_manipulation_targetAtFixation,jsons/v1_VE1000_randls_57.json,http://54.235.29.9/FacialAge/BNav_EC2/DepthDuration/v2_depth_duration_MTurk/v2_DepthDuration_HTML.html#20,20,1366,768,1366,768,8-22-2022,9-59-54,106,depth_duration_stimuli/001011_2014-06-08_23-18-54_260595134347_rgbf000044-resize_4/001011_2014-06-08_23-18-54_260595134347_rgbf000044-resize_4-target.png,1000,2.4730000000000003,5,13060,998,meters,jsons/v1_VE1000_randls_57.json,892504,1021049,62,Woman
106,383714,DepthScenes,duration_manipulation_targetAtFixation,jsons/v1_VE1000_randls_57.json,http://54.235.29.9/FacialAge/BNav_EC2/DepthDuration/v2_depth_duration_MTurk/v2_DepthDuration_HTML.html#20,20,1366,768,1366,768,8-22-2022,9-59-54,107,depth_duration_stimuli/002875_2014-06-01_15-19-00_094959634447_rgbf000151-resize_1/002875_2014-06-01_15-19-00_094959634447_rgbf000151-resize_1-target.png,1000,1.9675,5,4971,990,meters,jsons/v1_VE1000_randls_57.json,892504,1021049,62,Woman
107,383714,DepthScenes,duration_manipulation_targetAtFixation,jsons/v1_VE1000_randls_57.json,http://54.235.29.9/FacialAge/BNav_EC2/DepthDuration/v2_depth_duration_MTurk/v2_DepthDuration_HTML.html#20,20,1366,768,1366,768,8-22-2022,9-59-54,108,depth_duration_stimuli/001417_2014-06-19_16-25-36_260595134347_rgbf000115-resize_5/001417_2014-06-19_16-25-36_260595134347_rgbf000115-resize_5-target.png,1000,4.6255,5,4918,994,meters,jsons/v1_VE1000_randls_57.json,892504,1021049,62,Woman
108,383714,DepthScenes,duration_manipulation_targetAtFixation,jsons/v1_VE1000_randls_57.json,http://54.235.29.9/FacialAge/BNav_EC2/DepthDuration/v2_depth_duration_MTurk/v2_DepthDuration_HTML.html#20,20,1366,768,1366,768,8-22-2022,9-59-54,109,depth_duration_stimuli/003081_2014-06-15_15-19-16_094959634447_rgbf000150-resize_1/003081_2014-06-15_15-19-16_094959634447_rgbf000150-resize_1-target.png,1000,3.9125,5,3183,1061,meters,jsons/v1_VE1000_randls_57.json,892504,1021049,62,Woman
109,383714,DepthScenes,duration_manipulation_targetAtFixation,jsons/v1_VE1000_randls_57.json,http://54.235.29.9/FacialAge/BNav_EC2/DepthDuration/v2_depth_duration_MTurk/v2_DepthDuration_HTML.html#20,20,1366,768,1366,768,8-22-2022,9-59-54,110,depth_duration_stimuli/003070_2014-06-15_14-58-27_094959634447_rgbf000150-resize_3/003070_2014-06-15_14-58-27_094959634447_rgbf000150-resize_3-target.png,1000,2.9415,5,5026,998,meters,jsons/v1_VE1000_randls_57.json,892504,1021049,62,Woman
110,383714,DepthScenes,duration_manipulation_targetAtFixation,jsons/v1_VE1000_randls_57.json,http://54.235.29.9/FacialAge/BNav_EC2/DepthDuration/v2_depth_duration_MTurk/v2_DepthDuration_HTML.html#20,20,1366,768,1366,768,8-22-2022,9-59-54,111,depth_duration_stimuli/000943_2014-06-09_19-31-07_260595134347_rgbf000128-resize_1/000943_2014-06-09_19-31-07_260595134347_rgbf000128-resize_1-target.png,1000,1.9765,5,3537,994,meters,jsons/v1_VE1000_randls_57.json,892504,1021049,62,Woman
111,383714,DepthScenes,duration_manipulation_targetAtFixation,jsons/v1_VE1000_randls_57.json,http://54.235.29.9/FacialAge/BNav_EC2/DepthDuration/v2_depth_duration_MTurk/v2_DepthDuration_HTML.html#20,20,1366,768,1366,768,8-22-2022,9-59-54,112,depth_duration_stimuli/000788_2014-06-08_22-34-36_260595134347_rgbf000131-resize_1/000788_2014-06-08_22-34-36_260595134347_rgbf000131-resize_1-target.png,1000,3.359,5,5086,998,meters,jsons/v1_VE1000_randls_57.json,892504,1021049,62,Woman
112,383714,DepthScenes,duration_manipulation_targetAtFixation,jsons/v1_VE1000_randls_57.json,http://54.235.29.9/FacialAge/BNav_EC2/DepthDuration/v2_depth_duration_MTurk/v2_DepthDuration_HTML.html#20,20,1366,768,1366,768,8-22-2022,9-59-54,113,depth_duration_stimuli/001235_2014-06-17_16-37-36_260595134347_rgbf000084-resize_4/001235_2014-06-17_16-37-36_260595134347_rgbf000084-resize_4-target.png,1000,3.6605,5,3359,999,meters,jsons/v1_VE1000_randls_57.json,892504,1021049,62,Woman
113,383714,DepthScenes,duration_manipulation_targetAtFixation,jsons/v1_VE1000_randls_57.json,http://54.235.29.9/FacialAge/BNav_EC2/DepthDuration/v2_depth_duration_MTurk/v2_DepthDuration_HTML.html#20,20,1366,768,1366,768,8-22-2022,9-59-54,114,depth_duration_stimuli/002445_2014-06-28_20-32-16_260595134347_rgbf000029-resize_4/002445_2014-06-28_20-32-16_260595134347_rgbf000029-resize_4-target.png,1000,2.5315,5,4566,999,meters,jsons/v1_VE1000_randls_57.json,892504,1021049,62,Woman
114,383714,DepthScenes,duration_manipulation_targetAtFixation,jsons/v1_VE1000_randls_57.json,http://54.235.29.9/FacialAge/BNav_EC2/DepthDuration/v2_depth_duration_MTurk/v2_DepthDuration_HTML.html#20,20,1366,768,1366,768,8-22-2022,9-59-54,115,depth_duration_stimuli/000780_2014-06-08_22-28-29_260595134347_rgbf000126-resize_1/000780_2014-06-08_22-28-29_260595134347_rgbf000126-resize_1-target.png,1000,3.3825,5,4201,1011,meters,jsons/v1_VE1000_randls_57.json,892504,1021049,62,Woman
115,383714,DepthScenes,duration_manipulation_targetAtFixation,jsons/v1_VE1000_randls_57.json,http://54.235.29.9/FacialAge/BNav_EC2/DepthDuration/v2_depth_duration_MTurk/v2_DepthDuration_HTML.html#20,20,1366,768,1366,768,8-22-2022,9-59-54,116,depth_duration_stimuli/001170_2014-06-17_15-43-44_260595134347_rgbf000096-resize_6/001170_2014-06-17_15-43-44_260595134347_rgbf000096-resize-original.jpg,1000,1.1909999999999998,0,4090,1001,meters,jsons/v1_VE1000_randls_57.json,892504,1021049,62,Woman
116,383714,DepthScenes,duration_manipulation_targetAtFixation,jsons/v1_VE1000_randls_57.json,http://54.235.29.9/FacialAge/BNav_EC2/DepthDuration/v2_depth_duration_MTurk/v2_DepthDuration_HTML.html#20,20,1366,768,1366,768,8-22-2022,9-59-54,117,depth_duration_stimuli/002570_2014-06-24_13-59-54_094959634447_rgbf000059-resize_0/002570_2014-06-24_13-59-54_094959634447_rgbf000059-resize_0-target.png,1000,4.037,0,7546,997,meters,jsons/v1_VE1000_randls_57.json,892504,1021049,62,Woman
117,383714,DepthScenes,duration_manipulation_targetAtFixation,jsons/v1_VE1000_randls_57.json,http://54.235.29.9/FacialAge/BNav_EC2/DepthDuration/v2_depth_duration_MTurk/v2_DepthDuration_HTML.html#20,20,1366,768,1366,768,8-22-2022,9-59-54,118,depth_duration_stimuli/002467_2014-06-28_20-38-07_260595134347_rgbf000026-resize_2/002467_2014-06-28_20-38-07_260595134347_rgbf000026-resize_2-target.png,1000,4.742,5,3797,1000,meters,jsons/v1_VE1000_randls_57.json,892504,1021049,62,Woman
118,383714,DepthScenes,duration_manipulation_targetAtFixation,jsons/v1_VE1000_randls_57.json,http://54.235.29.9/FacialAge/BNav_EC2/DepthDuration/v2_depth_duration_MTurk/v2_DepthDuration_HTML.html#20,20,1366,768,1366,768,8-22-2022,9-59-54,119,depth_duration_stimuli/002549_2014-06-24_13-41-39_094959634447_rgbf000022-resize_3/002549_2014-06-24_13-41-39_094959634447_rgbf000022-resize_3-target.png,1000,1.476,5,4645,1001,meters,jsons/v1_VE1000_randls_57.json,892504,1021049,62,Woman
119,383714,DepthScenes,duration_manipulation_targetAtFixation,jsons/v1_VE1000_randls_57.json,http://54.235.29.9/FacialAge/BNav_EC2/DepthDuration/v2_depth_duration_MTurk/v2_DepthDuration_HTML.html#20,20,1366,768,1366,768,8-22-2022,9-59-54,120,depth_duration_stimuli/002750_2014-06-22_19-08-03_094959634447_rgbf000094-resize_4/002750_2014-06-22_19-08-03_094959634447_rgbf000094-resize_4-target.png,1000,2.354,5,4177,984,meters,jsons/v1_VE1000_randls_57.json,892504,1021049,62,Woman
120,383714,DepthScenes,duration_manipulation_targetAtFixation,jsons/v1_VE1000_randls_57.json,http://54.235.29.9/FacialAge/BNav_EC2/DepthDuration/v2_depth_duration_MTurk/v2_DepthDuration_HTML.html#20,20,1366,768,1366,768,8-22-2022,9-59-54,121,depth_duration_stimuli/000469_2014-06-09_19-42-10_260595134347_rgbf000081-resize_1/000469_2014-06-09_19-42-10_260595134347_rgbf000081-resize_1-target.png,1000,1.652,5,5007,999,meters,jsons/v1_VE1000_randls_57.json,892504,1021049,62,Woman
121,383714,DepthScenes,duration_manipulation_targetAtFixation,jsons/v1_VE1000_randls_57.json,http://54.235.29.9/FacialAge/BNav_EC2/DepthDuration/v2_depth_duration_MTurk/v2_DepthDuration_HTML.html#20,20,1366,768,1366,768,8-22-2022,9-59-54,122,depth_duration_stimuli/000483_2014-06-09_20-41-45_260595134347_rgbf000116-resize_4/000483_2014-06-09_20-41-45_260595134347_rgbf000116-resize_4-target.png,1000,1.337,5,3766,992,meters,jsons/v1_VE1000_randls_57.json,892504,1021049,62,Woman
122,383714,DepthScenes,duration_manipulation_targetAtFixation,jsons/v1_VE1000_randls_57.json,http://54.235.29.9/FacialAge/BNav_EC2/DepthDuration/v2_depth_duration_MTurk/v2_DepthDuration_HTML.html#20,20,1366,768,1366,768,8-22-2022,9-59-54,123,depth_duration_stimuli/001244_2014-06-17_16-47-45_260595134347_rgbf000030-resize_4/001244_2014-06-17_16-47-45_260595134347_rgbf000030-resize_4-target.png,1000,2.0425,5,4741,999,meters,jsons/v1_VE1000_randls_57.json,892504,1021049,62,Woman
123,383714,DepthScenes,duration_manipulation_targetAtFixation,jsons/v1_VE1000_randls_57.json,http://54.235.29.9/FacialAge/BNav_EC2/DepthDuration/v2_depth_duration_MTurk/v2_DepthDuration_HTML.html#20,20,1366,768,1366,768,8-22-2022,9-59-54,124,depth_duration_stimuli/003495_2014-05-21_16-01-51_094959634447_rgbf000100-resize_3/003495_2014-05-21_16-01-51_094959634447_rgbf000100-resize_3-target.png,1000,1.6255,5,3203,999,meters,jsons/v1_VE1000_randls_57.json,892504,1021049,62,Woman
124,383714,DepthScenes,duration_manipulation_targetAtFixation,jsons/v1_VE1000_randls_57.json,http://54.235.29.9/FacialAge/BNav_EC2/DepthDuration/v2_depth_duration_MTurk/v2_DepthDuration_HTML.html#20,20,1366,768,1366,768,8-22-2022,9-59-54,125,depth_duration_stimuli/001056_2014-06-08_18-46-44_260595134347_rgbf000068-resize_0/001056_2014-06-08_18-46-44_260595134347_rgbf000068-resize_0-target.png,1000,2.6625,5,4364,984,meters,jsons/v1_VE1000_randls_57.json,892504,1021049,62,Woman
125,383714,DepthScenes,duration_manipulation_targetAtFixation,jsons/v1_VE1000_randls_57.json,http://54.235.29.9/FacialAge/BNav_EC2/DepthDuration/v2_depth_duration_MTurk/v2_DepthDuration_HTML.html#20,20,1366,768,1366,768,8-22-2022,9-59-54,126,depth_duration_stimuli/002199_2014-06-28_18-33-56_260595134347_rgbf000074-resize_0/002199_2014-06-28_18-33-56_260595134347_rgbf000074-resize_0-target.png,1000,1.996,5,3801,1020,meters,jsons/v1_VE1000_randls_57.json,892504,1021049,62,Woman
126,383714,DepthScenes,duration_manipulation_targetAtFixation,jsons/v1_VE1000_randls_57.json,http://54.235.29.9/FacialAge/BNav_EC2/DepthDuration/v2_depth_duration_MTurk/v2_DepthDuration_HTML.html#20,20,1366,768,1366,768,8-22-2022,9-59-54,127,depth_duration_stimuli/001092_2014-06-15_17-34-58_260595134347_rgbf000171-resize_3/001092_2014-06-15_17-34-58_260595134347_rgbf000171-resize_3-target.png,1000,2.6935,5,3691,989,meters,jsons/v1_VE1000_randls_57.json,892504,1021049,62,Woman
127,383714,DepthScenes,duration_manipulation_targetAtFixation,jsons/v1_VE1000_randls_57.json,http://54.235.29.9/FacialAge/BNav_EC2/DepthDuration/v2_depth_duration_MTurk/v2_DepthDuration_HTML.html#20,20,1366,768,1366,768,8-22-2022,9-59-54,128,depth_duration_stimuli/002545_2014-06-24_13-38-53_094959634447_rgbf000080-resize_4/002545_2014-06-24_13-38-53_094959634447_rgbf000080-resize_4-target.png,1000,1.9205,5,3372,999,meters,jsons/v1_VE1000_randls_57.json,892504,1021049,62,Woman
128,383714,DepthScenes,duration_manipulation_targetAtFixation,jsons/v1_VE1000_randls_57.json,http://54.235.29.9/FacialAge/BNav_EC2/DepthDuration/v2_depth_duration_MTurk/v2_DepthDuration_HTML.html#20,20,1366,768,1366,768,8-22-2022,9-59-54,129,depth_duration_stimuli/002788_2014-06-22_19-36-03_094959634447_rgbf000088-resize_2/002788_2014-06-22_19-36-03_094959634447_rgbf000088-resize_2-target.png,1000,1.6465,5,4455,999,meters,jsons/v1_VE1000_randls_57.json,892504,1021049,62,Woman
129,383714,DepthScenes,duration_manipulation_targetAtFixation,jsons/v1_VE1000_randls_57.json,http://54.235.29.9/FacialAge/BNav_EC2/DepthDuration/v2_depth_duration_MTurk/v2_DepthDuration_HTML.html#20,20,1366,768,1366,768,8-22-2022,9-59-54,130,depth_duration_stimuli/000749_2014-06-08_21-55-06_260595134347_rgbf000070-resize_2/000749_2014-06-08_21-55-06_260595134347_rgbf000070-resize_2-target.png,1000,2.331,5,4052,984,meters,jsons/v1_VE1000_randls_57.json,892504,1021049,62,Woman
130,383714,DepthScenes,duration_manipulation_targetAtFixation,jsons/v1_VE1000_randls_57.json,http://54.235.29.9/FacialAge/BNav_EC2/DepthDuration/v2_depth_duration_MTurk/v2_DepthDuration_HTML.html#20,20,1366,768,1366,768,8-22-2022,9-59-54,131,depth_duration_stimuli/002725_2014-06-22_11-47-51_094959634447_rgbf000070-resize_1/002725_2014-06-22_11-47-51_094959634447_rgbf000070-resize_1-target.png,1000,2.195,5,5526,991,meters,jsons/v1_VE1000_randls_57.json,892504,1021049,62,Woman
131,383714,DepthScenes,duration_manipulation_targetAtFixation,jsons/v1_VE1000_randls_57.json,http://54.235.29.9/FacialAge/BNav_EC2/DepthDuration/v2_depth_duration_MTurk/v2_DepthDuration_HTML.html#20,20,1366,768,1366,768,8-22-2022,9-59-54,132,depth_duration_stimuli/002344_2014-06-28_20-06-29_260595134347_rgbf000030-resize_1/002344_2014-06-28_20-06-29_260595134347_rgbf000030-resize_1-target.png,1000,1.5795,5,3608,1000,meters,jsons/v1_VE1000_randls_57.json,892504,1021049,62,Woman
132,383714,DepthScenes,duration_manipulation_targetAtFixation,jsons/v1_VE1000_randls_57.json,http://54.235.29.9/FacialAge/BNav_EC2/DepthDuration/v2_depth_duration_MTurk/v2_DepthDuration_HTML.html#20,20,1366,768,1366,768,8-22-2022,9-59-54,133,depth_duration_stimuli/001167_2014-06-17_15-38-07_260595134347_rgbf000108-resize_0/001167_2014-06-17_15-38-07_260595134347_rgbf000108-resize_0-target.png,1000,1.8505,5,5986,986,meters,jsons/v1_VE1000_randls_57.json,892504,1021049,62,Woman
133,383714,DepthScenes,duration_manipulation_targetAtFixation,jsons/v1_VE1000_randls_57.json,http://54.235.29.9/FacialAge/BNav_EC2/DepthDuration/v2_depth_duration_MTurk/v2_DepthDuration_HTML.html#20,20,1366,768,1366,768,8-22-2022,9-59-54,134,depth_duration_stimuli/003587_2014-05-23_16-48-02_094959634447_rgbf002384-resize_2/003587_2014-05-23_16-48-02_094959634447_rgbf002384-resize_2-target.png,1000,1.357,5,3443,1013,meters,jsons/v1_VE1000_randls_57.json,892504,1021049,62,Woman
134,383714,DepthScenes,duration_manipulation_targetAtFixation,jsons/v1_VE1000_randls_57.json,http://54.235.29.9/FacialAge/BNav_EC2/DepthDuration/v2_depth_duration_MTurk/v2_DepthDuration_HTML.html#20,20,1366,768,1366,768,8-22-2022,9-59-54,135,depth_duration_stimuli/002072_2014-06-24_21-48-06_260595134347_rgbf000115-resize_0/002072_2014-06-24_21-48-06_260595134347_rgbf000115-resize-original.jpg,1000,4.702,0,4472,993,meters,jsons/v1_VE1000_randls_57.json,892504,1021049,62,Woman
135,383714,DepthScenes,duration_manipulation_targetAtFixation,jsons/v1_VE1000_randls_57.json,http://54.235.29.9/FacialAge/BNav_EC2/DepthDuration/v2_depth_duration_MTurk/v2_DepthDuration_HTML.html#20,20,1366,768,1366,768,8-22-2022,9-59-54,136,depth_duration_stimuli/001164_2014-06-17_15-35-46_260595134347_rgbf000085-resize_3/001164_2014-06-17_15-35-46_260595134347_rgbf000085-resize_3-target.png,1000,2.354,5,5080,988,meters,jsons/v1_VE1000_randls_57.json,892504,1021049,62,Woman
136,383714,DepthScenes,duration_manipulation_targetAtFixation,jsons/v1_VE1000_randls_57.json,http://54.235.29.9/FacialAge/BNav_EC2/DepthDuration/v2_depth_duration_MTurk/v2_DepthDuration_HTML.html#20,20,1366,768,1366,768,8-22-2022,9-59-54,137,depth_duration_stimuli/001136_2014-06-17_15-19-41_260595134347_rgbf000076-resize_3/001136_2014-06-17_15-19-41_260595134347_rgbf000076-resize_3-target.png,1000,1.8655,5,3675,987,meters,jsons/v1_VE1000_randls_57.json,892504,1021049,62,Woman
137,383714,DepthScenes,duration_manipulation_targetAtFixation,jsons/v1_VE1000_randls_57.json,http://54.235.29.9/FacialAge/BNav_EC2/DepthDuration/v2_depth_duration_MTurk/v2_DepthDuration_HTML.html#20,20,1366,768,1366,768,8-22-2022,9-59-54,138,depth_duration_stimuli/001066_2014-06-08_22-03-20_260595134347_rgbf000066-resize_4/001066_2014-06-08_22-03-20_260595134347_rgbf000066-resize_4-target.png,1000,4.2330000000000005,5,5185,1014,meters,jsons/v1_VE1000_randls_57.json,892504,1021049,62,Woman
138,383714,DepthScenes,duration_manipulation_targetAtFixation,jsons/v1_VE1000_randls_57.json,http://54.235.29.9/FacialAge/BNav_EC2/DepthDuration/v2_depth_duration_MTurk/v2_DepthDuration_HTML.html#20,20,1366,768,1366,768,8-22-2022,9-59-54,139,depth_duration_stimuli/000742_2014-06-08_18-48-09_260595134347_rgbf000164-resize_4/000742_2014-06-08_18-48-09_260595134347_rgbf000164-resize_4-target.png,1000,4.632,5,3743,999,meters,jsons/v1_VE1000_randls_57.json,892504,1021049,62,Woman
139,383714,DepthScenes,duration_manipulation_targetAtFixation,jsons/v1_VE1000_randls_57.json,http://54.235.29.9/FacialAge/BNav_EC2/DepthDuration/v2_depth_duration_MTurk/v2_DepthDuration_HTML.html#20,20,1366,768,1366,768,8-22-2022,9-59-54,140,depth_duration_stimuli/003621_2014-05-23_18-06-08_094959634447_rgbf000101-resize_1/003621_2014-05-23_18-06-08_094959634447_rgbf000101-resize_1-target.png,1000,3.9835,5,6680,999,meters,jsons/v1_VE1000_randls_57.json,892504,1021049,62,Woman
140,383714,DepthScenes,duration_manipulation_targetAtFixation,jsons/v1_VE1000_randls_57.json,http://54.235.29.9/FacialAge/BNav_EC2/DepthDuration/v2_depth_duration_MTurk/v2_DepthDuration_HTML.html#20,20,1366,768,1366,768,8-22-2022,9-59-54,141,depth_duration_stimuli/001584_2014-06-20_11-07-43_260595134347_rgbf000002-resize_1/001584_2014-06-20_11-07-43_260595134347_rgbf000002-resize_1-target.png,1000,3.53,5,7382,999,meters,jsons/v1_VE1000_randls_57.json,892504,1021049,62,Woman
141,383714,DepthScenes,duration_manipulation_targetAtFixation,jsons/v1_VE1000_randls_57.json,http://54.235.29.9/FacialAge/BNav_EC2/DepthDuration/v2_depth_duration_MTurk/v2_DepthDuration_HTML.html#20,20,1366,768,1366,768,8-22-2022,9-59-54,142,depth_duration_stimuli/001449_2014-06-19_17-01-27_260595134347_rgbf000116-resize_2/001449_2014-06-19_17-01-27_260595134347_rgbf000116-resize_2-target.png,1000,3.452,5,7174,999,meters,jsons/v1_VE1000_randls_57.json,892504,1021049,62,Woman
142,383714,DepthScenes,duration_manipulation_targetAtFixation,jsons/v1_VE1000_randls_57.json,http://54.235.29.9/FacialAge/BNav_EC2/DepthDuration/v2_depth_duration_MTurk/v2_DepthDuration_HTML.html#20,20,1366,768,1366,768,8-22-2022,9-59-54,143,depth_duration_stimuli/001450_2014-06-19_17-02-03_260595134347_rgbf000203-resize_4/001450_2014-06-19_17-02-03_260595134347_rgbf000203-resize_4-target.png,1000,4.0106666666667,5,5202,999,meters,jsons/v1_VE1000_randls_57.json,892504,1021049,62,Woman
143,383714,DepthScenes,duration_manipulation_targetAtFixation,jsons/v1_VE1000_randls_57.json,http://54.235.29.9/FacialAge/BNav_EC2/DepthDuration/v2_depth_duration_MTurk/v2_DepthDuration_HTML.html#20,20,1366,768,1366,768,8-22-2022,9-59-54,144,depth_duration_stimuli/001133_2014-06-17_14-49-16_260595134347_rgbf000100-resize_0/001133_2014-06-17_14-49-16_260595134347_rgbf000100-resize_0-target.png,1000,4.2115,5,6112,1013,meters,jsons/v1_VE1000_randls_57.json,892504,1021049,62,Woman
144,383714,DepthScenes,duration_manipulation_targetAtFixation,jsons/v1_VE1000_randls_57.json,http://54.235.29.9/FacialAge/BNav_EC2/DepthDuration/v2_depth_duration_MTurk/v2_DepthDuration_HTML.html#20,20,1366,768,1366,768,8-22-2022,9-59-54,145,depth_duration_stimuli/001132_2014-06-17_14-48-54_260595134347_rgbf000100-resize_2/001132_2014-06-17_14-48-54_260595134347_rgbf000100-resize_2-target.png,1000,3.753,5,4818,998,meters,jsons/v1_VE1000_randls_57.json,892504,1021049,62,Woman
145,383714,DepthScenes,duration_manipulation_targetAtFixation,jsons/v1_VE1000_randls_57.json,http://54.235.29.9/FacialAge/BNav_EC2/DepthDuration/v2_depth_duration_MTurk/v2_DepthDuration_HTML.html#20,20,1366,768,1366,768,8-22-2022,9-59-54,146,depth_duration_stimuli/001498_2014-06-19_17-45-14_260595134347_rgbf000129-resize_4/001498_2014-06-19_17-45-14_260595134347_rgbf000129-resize-original.jpg,1000,1.4075,0,6972,1026,meters,jsons/v1_VE1000_randls_57.json,892504,1021049,62,Woman
146,383714,DepthScenes,duration_manipulation_targetAtFixation,jsons/v1_VE1000_randls_57.json,http://54.235.29.9/FacialAge/BNav_EC2/DepthDuration/v2_depth_duration_MTurk/v2_DepthDuration_HTML.html#20,20,1366,768,1366,768,8-22-2022,9-59-54,147,depth_duration_stimuli/000692_2014-06-08_13-09-42_260595134347_rgbf000199-resize_2/000692_2014-06-08_13-09-42_260595134347_rgbf000199-resize_2-target.png,1000,3.661,5,6284,998,meters,jsons/v1_VE1000_randls_57.json,892504,1021049,62,Woman
147,383714,DepthScenes,duration_manipulation_targetAtFixation,jsons/v1_VE1000_randls_57.json,http://54.235.29.9/FacialAge/BNav_EC2/DepthDuration/v2_depth_duration_MTurk/v2_DepthDuration_HTML.html#20,20,1366,768,1366,768,8-22-2022,9-59-54,148,depth_duration_stimuli/001094_2014-06-15_17-36-00_260595134347_rgbf000205-resize_0/001094_2014-06-15_17-36-00_260595134347_rgbf000205-resize_0-target.png,1000,4.2175,5,7426,999,meters,jsons/v1_VE1000_randls_57.json,892504,1021049,62,Woman
148,383714,DepthScenes,duration_manipulation_targetAtFixation,jsons/v1_VE1000_randls_57.json,http://54.235.29.9/FacialAge/BNav_EC2/DepthDuration/v2_depth_duration_MTurk/v2_DepthDuration_HTML.html#20,20,1366,768,1366,768,8-22-2022,9-59-54,149,depth_duration_stimuli/000642_2014-06-08_16-59-25_260595134347_rgbf000098-resize_2/000642_2014-06-08_16-59-25_260595134347_rgbf000098-resize_2-target.png,1000,2.8815,5,6105,999,meters,jsons/v1_VE1000_randls_57.json,892504,1021049,62,Woman
149,383714,DepthScenes,duration_manipulation_targetAtFixation,jsons/v1_VE1000_randls_57.json,http://54.235.29.9/FacialAge/BNav_EC2/DepthDuration/v2_depth_duration_MTurk/v2_DepthDuration_HTML.html#20,20,1366,768,1366,768,8-22-2022,9-59-54,150,depth_duration_stimuli/002425_2014-06-28_20-27-29_260595134347_rgbf000031-resize_8/002425_2014-06-28_20-27-29_260595134347_rgbf000031-resize_8-target.png,1000,3.8960000000000004,5,5146,999,meters,jsons/v1_VE1000_randls_57.json,892504,1021049,62,Woman
150,383714,DepthScenes,duration_manipulation_targetAtFixation,jsons/v1_VE1000_randls_57.json,http://54.235.29.9/FacialAge/BNav_EC2/DepthDuration/v2_depth_duration_MTurk/v2_DepthDuration_HTML.html#20,20,1366,768,1366,768,8-22-2022,9-59-54,151,depth_duration_stimuli/002989_2014-06-15_12-25-03_094959634447_rgbf000150-resize_3/002989_2014-06-15_12-25-03_094959634447_rgbf000150-resize_3-target.png,1000,4.1975,5,5461,999,meters,jsons/v1_VE1000_randls_57.json,892504,1021049,62,Woman
151,383714,DepthScenes,duration_manipulation_targetAtFixation,jsons/v1_VE1000_randls_57.json,http://54.235.29.9/FacialAge/BNav_EC2/DepthDuration/v2_depth_duration_MTurk/v2_DepthDuration_HTML.html#20,20,1366,768,1366,768,8-22-2022,9-59-54,152,depth_duration_stimuli/000866_2014-06-09_20-45-42_260595134347_rgbf000139-resize_1/000866_2014-06-09_20-45-42_260595134347_rgbf000139-resize_1-target.png,1000,3.2155,5,4059,991,meters,jsons/v1_VE1000_randls_57.json,892504,1021049,62,Woman
152,383714,DepthScenes,duration_manipulation_targetAtFixation,jsons/v1_VE1000_randls_57.json,http://54.235.29.9/FacialAge/BNav_EC2/DepthDuration/v2_depth_duration_MTurk/v2_DepthDuration_HTML.html#20,20,1366,768,1366,768,8-22-2022,9-59-54,153,depth_duration_stimuli/000758_2014-06-08_22-05-08_260595134347_rgbf000085-resize_0/000758_2014-06-08_22-05-08_260595134347_rgbf000085-resize_0-target.png,1000,3.3810000000000002,5,5355,996,meters,jsons/v1_VE1000_randls_57.json,892504,1021049,62,Woman
153,383714,DepthScenes,duration_manipulation_targetAtFixation,jsons/v1_VE1000_randls_57.json,http://54.235.29.9/FacialAge/BNav_EC2/DepthDuration/v2_depth_duration_MTurk/v2_DepthDuration_HTML.html#20,20,1366,768,1366,768,8-22-2022,9-59-54,154,depth_duration_stimuli/000854_2014-06-09_19-43-13_260595134347_rgbf000066-resize_0/000854_2014-06-09_19-43-13_260595134347_rgbf000066-resize_0-target.png,1000,3.068,5,3791,1001,meters,jsons/v1_VE1000_randls_57.json,892504,1021049,62,Woman
154,383714,DepthScenes,duration_manipulation_targetAtFixation,jsons/v1_VE1000_randls_57.json,http://54.235.29.9/FacialAge/BNav_EC2/DepthDuration/v2_depth_duration_MTurk/v2_DepthDuration_HTML.html#20,20,1366,768,1366,768,8-22-2022,9-59-54,155,depth_duration_stimuli/000736_2014-06-08_18-24-15_260595134347_rgbf000206-resize_3/000736_2014-06-08_18-24-15_260595134347_rgbf000206-resize_3-target.png,1000,3.515,5,3570,1000,meters,jsons/v1_VE1000_randls_57.json,892504,1021049,62,Woman
155,383714,DepthScenes,duration_manipulation_targetAtFixation,jsons/v1_VE1000_randls_57.json,http://54.235.29.9/FacialAge/BNav_EC2/DepthDuration/v2_depth_duration_MTurk/v2_DepthDuration_HTML.html#20,20,1366,768,1366,768,8-22-2022,9-59-54,156,depth_duration_stimuli/000137_2014-05-20_17-04-49_260595134347_rgbf000120-resize_1/000137_2014-05-20_17-04-49_260595134347_rgbf000120-resize_1-target.png,1000,3.786,5,4408,998,meters,jsons/v1_VE1000_randls_57.json,892504,1021049,62,Woman
156,383714,DepthScenes,duration_manipulation_targetAtFixation,jsons/v1_VE1000_randls_57.json,http://54.235.29.9/FacialAge/BNav_EC2/DepthDuration/v2_depth_duration_MTurk/v2_DepthDuration_HTML.html#20,20,1366,768,1366,768,8-22-2022,9-59-54,157,depth_duration_stimuli/002213_2014-06-28_18-37-58_260595134347_rgbf000055-resize_1/002213_2014-06-28_18-37-58_260595134347_rgbf000055-resize_1-target.png,1000,3.62,5,4307,1000,meters,jsons/v1_VE1000_randls_57.json,892504,1021049,62,Woman
157,383714,DepthScenes,duration_manipulation_targetAtFixation,jsons/v1_VE1000_randls_57.json,http://54.235.29.9/FacialAge/BNav_EC2/DepthDuration/v2_depth_duration_MTurk/v2_DepthDuration_HTML.html#20,20,1366,768,1366,768,8-22-2022,9-59-54,158,depth_duration_stimuli/000691_2014-06-08_13-08-50_260595134347_rgbf000132-resize_3/000691_2014-06-08_13-08-50_260595134347_rgbf000132-resize_3-target.png,1000,4.1530000000000005,5,5637,996,meters,jsons/v1_VE1000_randls_57.json,892504,1021049,62,Woman
158,383714,DepthScenes,duration_manipulation_targetAtFixation,jsons/v1_VE1000_randls_57.json,http://54.235.29.9/FacialAge/BNav_EC2/DepthDuration/v2_depth_duration_MTurk/v2_DepthDuration_HTML.html#20,20,1366,768,1366,768,8-22-2022,9-59-54,159,depth_duration_stimuli/002964_2014-06-08_17-46-11_094959634447_rgbf000091-resize_4/002964_2014-06-08_17-46-11_094959634447_rgbf000091-resize_4-target.png,1000,1.6909999999999998,5,6093,1000,meters,jsons/v1_VE1000_randls_57.json,892504,1021049,62,Woman
159,383714,DepthScenes,duration_manipulation_targetAtFixation,jsons/v1_VE1000_randls_57.json,http://54.235.29.9/FacialAge/BNav_EC2/DepthDuration/v2_depth_duration_MTurk/v2_DepthDuration_HTML.html#20,20,1366,768,1366,768,8-22-2022,9-59-54,160,depth_duration_stimuli/002136_2014-06-25_21-18-03_260595134347_rgbf000109-resize_3/002136_2014-06-25_21-18-03_260595134347_rgbf000109-resize_3-target.png,1000,1.9569999999999999,5,4666,998,meters,jsons/v1_VE1000_randls_57.json,892504,1021049,62,Woman
160,383714,DepthScenes,duration_manipulation_targetAtFixation,jsons/v1_VE1000_randls_57.json,http://54.235.29.9/FacialAge/BNav_EC2/DepthDuration/v2_depth_duration_MTurk/v2_DepthDuration_HTML.html#20,20,1366,768,1366,768,8-22-2022,9-59-54,161,depth_duration_stimuli/000917_2014-06-09_22-45-29_260595134347_rgbf000149-resize_3/000917_2014-06-09_22-45-29_260595134347_rgbf000149-resize_3-target.png,1000,4.1865,5,5622,993,meters,jsons/v1_VE1000_randls_57.json,892504,1021049,62,Woman
161,383714,DepthScenes,duration_manipulation_targetAtFixation,jsons/v1_VE1000_randls_57.json,http://54.235.29.9/FacialAge/BNav_EC2/DepthDuration/v2_depth_duration_MTurk/v2_DepthDuration_HTML.html#20,20,1366,768,1366,768,8-22-2022,9-59-54,162,depth_duration_stimuli/002323_2014-06-28_20-01-54_260595134347_rgbf000051-resize_4/002323_2014-06-28_20-01-54_260595134347_rgbf000051-resize_4-target.png,1000,3.7310000000000003,5,4767,999,meters,jsons/v1_VE1000_randls_57.json,892504,1021049,62,Woman
162,383714,DepthScenes,duration_manipulation_targetAtFixation,jsons/v1_VE1000_randls_57.json,http://54.235.29.9/FacialAge/BNav_EC2/DepthDuration/v2_depth_duration_MTurk/v2_DepthDuration_HTML.html#20,20,1366,768,1366,768,8-22-2022,9-59-54,163,depth_duration_stimuli/002043_2014-06-24_20-29-38_260595134347_rgbf000039-resize_4/002043_2014-06-24_20-29-38_260595134347_rgbf000039-resize_4-target.png,1000,2.8435,5,6761,1030,meters,jsons/v1_VE1000_randls_57.json,892504,1021049,62,Woman
163,383714,DepthScenes,duration_manipulation_targetAtFixation,jsons/v1_VE1000_randls_57.json,http://54.235.29.9/FacialAge/BNav_EC2/DepthDuration/v2_depth_duration_MTurk/v2_DepthDuration_HTML.html#20,20,1366,768,1366,768,8-22-2022,9-59-54,164,depth_duration_stimuli/003048_2014-06-15_13-49-43_094959634447_rgbf000150-resize_1/003048_2014-06-15_13-49-43_094959634447_rgbf000150-resize_1-target.png,1000,4.0035,5,4521,998,meters,jsons/v1_VE1000_randls_57.json,892504,1021049,62,Woman
