,subjID,experimentName,versionName,sequenceName,url,selected_row,windowWidth,windowHeight,screenWidth,screenHeight,startDate,startTime,trial,stimulus,duration,actual_depth,depth_estimate,trial_RT,log_sceneDuration,unitSelection,seq_filepath,experimentTime,totalTime,age,gender
0,386006,DepthScenes,duration_manipulation_targetAtFixation,jsons/v1_VE250_randls_73.json,http://54.235.29.9/FacialAge/BNav_EC2/DepthDuration/v2_depth_duration_MTurk/v2_DepthDuration_HTML.html#70,70,1918,1009,1920,1080,8-20-2022,10-57-47,1,depth_duration_stimuli/001011_2014-06-08_23-18-54_260595134347_rgbf000044-resize_4/001011_2014-06-08_23-18-54_260595134347_rgbf000044-resize_4-target.png,250,2.4730000000000003,8,3998,249,feet,jsons/v1_VE250_randls_73.json,675466,841389,25,Woman
1,386006,DepthScenes,duration_manipulation_targetAtFixation,jsons/v1_VE250_randls_73.json,http://54.235.29.9/FacialAge/BNav_EC2/DepthDuration/v2_depth_duration_MTurk/v2_DepthDuration_HTML.html#70,70,1918,1009,1920,1080,8-20-2022,10-57-47,2,depth_duration_stimuli/002875_2014-06-01_15-19-00_094959634447_rgbf000151-resize_1/002875_2014-06-01_15-19-00_094959634447_rgbf000151-resize_1-target.png,250,1.9675,2,5608,235,feet,jsons/v1_VE250_randls_73.json,675466,841389,25,Woman
2,386006,DepthScenes,duration_manipulation_targetAtFixation,jsons/v1_VE250_randls_73.json,http://54.235.29.9/FacialAge/BNav_EC2/DepthDuration/v2_depth_duration_MTurk/v2_DepthDuration_HTML.html#70,70,1386,713,1920,1080,8-20-2022,10-57-47,3,depth_duration_stimuli/000810_2014-06-08_17-20-01_260595134347_rgbf000105-resize_0/000810_2014-06-08_17-20-01_260595134347_rgbf000105-resize_0-target.png,250,1.4865,0,4601,260,feet,jsons/v1_VE250_randls_73.json,675466,841389,25,Woman
3,386006,DepthScenes,duration_manipulation_targetAtFixation,jsons/v1_VE250_randls_73.json,http://54.235.29.9/FacialAge/BNav_EC2/DepthDuration/v2_depth_duration_MTurk/v2_DepthDuration_HTML.html#70,70,1386,713,1920,1080,8-20-2022,10-57-47,4,depth_duration_stimuli/001214_2014-06-17_16-13-55_260595134347_rgbf000111-resize_0/001214_2014-06-17_16-13-55_260595134347_rgbf000111-resize_0-target.png,250,2.6505,5,16870,250,feet,jsons/v1_VE250_randls_73.json,675466,841389,25,Woman
4,386006,DepthScenes,duration_manipulation_targetAtFixation,jsons/v1_VE250_randls_73.json,http://54.235.29.9/FacialAge/BNav_EC2/DepthDuration/v2_depth_duration_MTurk/v2_DepthDuration_HTML.html#70,70,1386,713,1920,1080,8-20-2022,10-57-47,5,depth_duration_stimuli/003292_2014-05-14_21-53-49_094959634447_rgbf000100-resize_2/003292_2014-05-14_21-53-49_094959634447_rgbf000100-resize_2-target.png,250,3.4815,8,3711,250,feet,jsons/v1_VE250_randls_73.json,675466,841389,25,Woman
5,386006,DepthScenes,duration_manipulation_targetAtFixation,jsons/v1_VE250_randls_73.json,http://54.235.29.9/FacialAge/BNav_EC2/DepthDuration/v2_depth_duration_MTurk/v2_DepthDuration_HTML.html#70,70,1386,713,1920,1080,8-20-2022,10-57-47,6,depth_duration_stimuli/002639_2014-06-24_14-51-37_094959634447_rgbf000074-resize_4/002639_2014-06-24_14-51-37_094959634447_rgbf000074-resize_4-target.png,250,4.0375,10,4722,255,feet,jsons/v1_VE250_randls_73.json,675466,841389,25,Woman
6,386006,DepthScenes,duration_manipulation_targetAtFixation,jsons/v1_VE250_randls_73.json,http://54.235.29.9/FacialAge/BNav_EC2/DepthDuration/v2_depth_duration_MTurk/v2_DepthDuration_HTML.html#70,70,1386,713,1920,1080,8-20-2022,10-57-47,7,depth_duration_stimuli/001066_2014-06-08_22-03-20_260595134347_rgbf000066-resize_4/001066_2014-06-08_22-03-20_260595134347_rgbf000066-resize_4-target.png,250,4.2330000000000005,15,3793,251,feet,jsons/v1_VE250_randls_73.json,675466,841389,25,Woman
7,386006,DepthScenes,duration_manipulation_targetAtFixation,jsons/v1_VE250_randls_73.json,http://54.235.29.9/FacialAge/BNav_EC2/DepthDuration/v2_depth_duration_MTurk/v2_DepthDuration_HTML.html#70,70,1386,713,1920,1080,8-20-2022,10-57-47,8,depth_duration_stimuli/000742_2014-06-08_18-48-09_260595134347_rgbf000164-resize_4/000742_2014-06-08_18-48-09_260595134347_rgbf000164-resize_4-target.png,250,4.632,15,3395,253,feet,jsons/v1_VE250_randls_73.json,675466,841389,25,Woman
8,386006,DepthScenes,duration_manipulation_targetAtFixation,jsons/v1_VE250_randls_73.json,http://54.235.29.9/FacialAge/BNav_EC2/DepthDuration/v2_depth_duration_MTurk/v2_DepthDuration_HTML.html#70,70,1386,713,1920,1080,8-20-2022,10-57-47,9,depth_duration_stimuli/001555_2014-06-20_17-12-10_260595134347_rgbf000065-resize_4/001555_2014-06-20_17-12-10_260595134347_rgbf000065-resize_4-target.png,250,1.633,3,6118,252,feet,jsons/v1_VE250_randls_73.json,675466,841389,25,Woman
9,386006,DepthScenes,duration_manipulation_targetAtFixation,jsons/v1_VE250_randls_73.json,http://54.235.29.9/FacialAge/BNav_EC2/DepthDuration/v2_depth_duration_MTurk/v2_DepthDuration_HTML.html#70,70,1386,713,1920,1080,8-20-2022,10-57-47,10,depth_duration_stimuli/000103_2014-05-14_22-01-17_260595134347_rgbf000152-resize_5/000103_2014-05-14_22-01-17_260595134347_rgbf000152-resize_5-target.png,250,1.993,7,5528,238,feet,jsons/v1_VE250_randls_73.json,675466,841389,25,Woman
10,386006,DepthScenes,duration_manipulation_targetAtFixation,jsons/v1_VE250_randls_73.json,http://54.235.29.9/FacialAge/BNav_EC2/DepthDuration/v2_depth_duration_MTurk/v2_DepthDuration_HTML.html#70,70,1386,713,1920,1080,8-20-2022,10-57-47,11,depth_duration_stimuli/000682_2014-06-08_23-14-58_260595134347_rgbf000041-resize_5/000682_2014-06-08_23-14-58_260595134347_rgbf000041-resize_5-target.png,250,2.7239999999999998,0,5777,262,feet,jsons/v1_VE250_randls_73.json,675466,841389,25,Woman
11,386006,DepthScenes,duration_manipulation_targetAtFixation,jsons/v1_VE250_randls_73.json,http://54.235.29.9/FacialAge/BNav_EC2/DepthDuration/v2_depth_duration_MTurk/v2_DepthDuration_HTML.html#70,70,1386,713,1920,1080,8-20-2022,10-57-47,12,depth_duration_stimuli/001650_2014-06-20_12-09-00_260595134347_rgbf000087-resize_3/001650_2014-06-20_12-09-00_260595134347_rgbf000087-resize_3-target.png,250,1.9505,5,4941,249,feet,jsons/v1_VE250_randls_73.json,675466,841389,25,Woman
12,386006,DepthScenes,duration_manipulation_targetAtFixation,jsons/v1_VE250_randls_73.json,http://54.235.29.9/FacialAge/BNav_EC2/DepthDuration/v2_depth_duration_MTurk/v2_DepthDuration_HTML.html#70,70,1386,713,1920,1080,8-20-2022,10-57-47,13,depth_duration_stimuli/000569_2014-06-09_22-51-47_260595134347_rgbf000141-resize_3/000569_2014-06-09_22-51-47_260595134347_rgbf000141-resize-original.jpg,250,4.512,0,2328,251,feet,jsons/v1_VE250_randls_73.json,675466,841389,25,Woman
13,386006,DepthScenes,duration_manipulation_targetAtFixation,jsons/v1_VE250_randls_73.json,http://54.235.29.9/FacialAge/BNav_EC2/DepthDuration/v2_depth_duration_MTurk/v2_DepthDuration_HTML.html#70,70,1386,713,1920,1080,8-20-2022,10-57-47,14,depth_duration_stimuli/000368_2014-06-09_15-53-01_260595134347_rgbf000155-resize_2/000368_2014-06-09_15-53-01_260595134347_rgbf000155-resize_2-target.png,250,2.4859999999999998,0,2551,244,feet,jsons/v1_VE250_randls_73.json,675466,841389,25,Woman
14,386006,DepthScenes,duration_manipulation_targetAtFixation,jsons/v1_VE250_randls_73.json,http://54.235.29.9/FacialAge/BNav_EC2/DepthDuration/v2_depth_duration_MTurk/v2_DepthDuration_HTML.html#70,70,1386,713,1920,1080,8-20-2022,10-57-47,15,depth_duration_stimuli/002678_2014-06-13_16-15-32_094959634447_rgbf000151-resize_6/002678_2014-06-13_16-15-32_094959634447_rgbf000151-resize_6-target.png,250,2.1830000000000003,12,4563,250,feet,jsons/v1_VE250_randls_73.json,675466,841389,25,Woman
15,386006,DepthScenes,duration_manipulation_targetAtFixation,jsons/v1_VE250_randls_73.json,http://54.235.29.9/FacialAge/BNav_EC2/DepthDuration/v2_depth_duration_MTurk/v2_DepthDuration_HTML.html#70,70,1386,713,1920,1080,8-20-2022,10-57-47,16,depth_duration_stimuli/000009_2014-05-26_14-32-05_260595134347_rgbf000034-resize_3/000009_2014-05-26_14-32-05_260595134347_rgbf000034-resize_3-target.png,250,3.8715,10,3777,253,feet,jsons/v1_VE250_randls_73.json,675466,841389,25,Woman
16,386006,DepthScenes,duration_manipulation_targetAtFixation,jsons/v1_VE250_randls_73.json,http://54.235.29.9/FacialAge/BNav_EC2/DepthDuration/v2_depth_duration_MTurk/v2_DepthDuration_HTML.html#70,70,1386,713,1920,1080,8-20-2022,10-57-47,17,depth_duration_stimuli/001828_2014-06-26_21-40-03_260595134347_rgbf000024-resize_0/001828_2014-06-26_21-40-03_260595134347_rgbf000024-resize_0-target.png,250,4.8260000000000005,8,3645,249,feet,jsons/v1_VE250_randls_73.json,675466,841389,25,Woman
17,386006,DepthScenes,duration_manipulation_targetAtFixation,jsons/v1_VE250_randls_73.json,http://54.235.29.9/FacialAge/BNav_EC2/DepthDuration/v2_depth_duration_MTurk/v2_DepthDuration_HTML.html#70,70,1386,713,1920,1080,8-20-2022,10-57-47,18,depth_duration_stimuli/002663_2014-06-13_15-50-26_094959634447_rgbf000075-resize_1/002663_2014-06-13_15-50-26_094959634447_rgbf000075-resize_1-target.png,250,4.7495,15,3813,255,feet,jsons/v1_VE250_randls_73.json,675466,841389,25,Woman
18,386006,DepthScenes,duration_manipulation_targetAtFixation,jsons/v1_VE250_randls_73.json,http://54.235.29.9/FacialAge/BNav_EC2/DepthDuration/v2_depth_duration_MTurk/v2_DepthDuration_HTML.html#70,70,1386,713,1920,1080,8-20-2022,10-57-47,19,depth_duration_stimuli/000409_2014-06-04_19-23-33_260595134347_rgbf000067-resize_0/000409_2014-06-04_19-23-33_260595134347_rgbf000067-resize_0-target.png,250,3.7335,6,3674,237,feet,jsons/v1_VE250_randls_73.json,675466,841389,25,Woman
19,386006,DepthScenes,duration_manipulation_targetAtFixation,jsons/v1_VE250_randls_73.json,http://54.235.29.9/FacialAge/BNav_EC2/DepthDuration/v2_depth_duration_MTurk/v2_DepthDuration_HTML.html#70,70,1386,713,1920,1080,8-20-2022,10-57-47,20,depth_duration_stimuli/000736_2014-06-08_18-24-15_260595134347_rgbf000206-resize_3/000736_2014-06-08_18-24-15_260595134347_rgbf000206-resize_3-target.png,250,3.515,5,3263,236,feet,jsons/v1_VE250_randls_73.json,675466,841389,25,Woman
20,386006,DepthScenes,duration_manipulation_targetAtFixation,jsons/v1_VE250_randls_73.json,http://54.235.29.9/FacialAge/BNav_EC2/DepthDuration/v2_depth_duration_MTurk/v2_DepthDuration_HTML.html#70,70,1386,713,1920,1080,8-20-2022,10-57-47,21,depth_duration_stimuli/000137_2014-05-20_17-04-49_260595134347_rgbf000120-resize_1/000137_2014-05-20_17-04-49_260595134347_rgbf000120-resize_1-target.png,250,3.786,10,4405,253,feet,jsons/v1_VE250_randls_73.json,675466,841389,25,Woman
21,386006,DepthScenes,duration_manipulation_targetAtFixation,jsons/v1_VE250_randls_73.json,http://54.235.29.9/FacialAge/BNav_EC2/DepthDuration/v2_depth_duration_MTurk/v2_DepthDuration_HTML.html#70,70,1386,713,1920,1080,8-20-2022,10-57-47,22,depth_duration_stimuli/000447_2014-06-08_16-15-46_260595134347_rgbf000130-resize_1/000447_2014-06-08_16-15-46_260595134347_rgbf000130-resize_1-target.png,250,4.479,12,4214,253,feet,jsons/v1_VE250_randls_73.json,675466,841389,25,Woman
22,386006,DepthScenes,duration_manipulation_targetAtFixation,jsons/v1_VE250_randls_73.json,http://54.235.29.9/FacialAge/BNav_EC2/DepthDuration/v2_depth_duration_MTurk/v2_DepthDuration_HTML.html#70,70,1386,713,1920,1080,8-20-2022,10-57-47,23,depth_duration_stimuli/001447_2014-06-19_17-00-32_260595134347_rgbf000082-resize_5/001447_2014-06-19_17-00-32_260595134347_rgbf000082-resize_5-target.png,250,4.13775,5,3445,253,feet,jsons/v1_VE250_randls_73.json,675466,841389,25,Woman
23,386006,DepthScenes,duration_manipulation_targetAtFixation,jsons/v1_VE250_randls_73.json,http://54.235.29.9/FacialAge/BNav_EC2/DepthDuration/v2_depth_duration_MTurk/v2_DepthDuration_HTML.html#70,70,1386,713,1920,1080,8-20-2022,10-57-47,24,depth_duration_stimuli/002279_2014-06-28_18-55-32_260595134347_rgbf000040-resize_5/002279_2014-06-28_18-55-32_260595134347_rgbf000040-resize_5-target.png,250,1.5043333333333,0,3354,254,feet,jsons/v1_VE250_randls_73.json,675466,841389,25,Woman
24,386006,DepthScenes,duration_manipulation_targetAtFixation,jsons/v1_VE250_randls_73.json,http://54.235.29.9/FacialAge/BNav_EC2/DepthDuration/v2_depth_duration_MTurk/v2_DepthDuration_HTML.html#70,70,1386,713,1920,1080,8-20-2022,10-57-47,25,depth_duration_stimuli/000635_2014-06-08_16-38-42_260595134347_rgbf000106-resize_1/000635_2014-06-08_16-38-42_260595134347_rgbf000106-resize_1-target.png,250,2.074,5,5380,256,feet,jsons/v1_VE250_randls_73.json,675466,841389,25,Woman
25,386006,DepthScenes,duration_manipulation_targetAtFixation,jsons/v1_VE250_randls_73.json,http://54.235.29.9/FacialAge/BNav_EC2/DepthDuration/v2_depth_duration_MTurk/v2_DepthDuration_HTML.html#70,70,1386,713,1920,1080,8-20-2022,10-57-47,26,depth_duration_stimuli/000906_2014-06-08_13-35-43_260595134347_rgbf000155-resize_1/000906_2014-06-08_13-35-43_260595134347_rgbf000155-resize_1-target.png,250,2.8489999999999998,10,3735,254,feet,jsons/v1_VE250_randls_73.json,675466,841389,25,Woman
26,386006,DepthScenes,duration_manipulation_targetAtFixation,jsons/v1_VE250_randls_73.json,http://54.235.29.9/FacialAge/BNav_EC2/DepthDuration/v2_depth_duration_MTurk/v2_DepthDuration_HTML.html#70,70,1386,713,1920,1080,8-20-2022,10-57-47,27,depth_duration_stimuli/002805_2014-06-22_19-54-03_094959634447_rgbf000079-resize_1/002805_2014-06-22_19-54-03_094959634447_rgbf000079-resize_1-target.png,250,3.1439999999999997,0,3089,250,feet,jsons/v1_VE250_randls_73.json,675466,841389,25,Woman
27,386006,DepthScenes,duration_manipulation_targetAtFixation,jsons/v1_VE250_randls_73.json,http://54.235.29.9/FacialAge/BNav_EC2/DepthDuration/v2_depth_duration_MTurk/v2_DepthDuration_HTML.html#70,70,1386,713,1920,1080,8-20-2022,10-57-47,28,depth_duration_stimuli/000436_2014-06-09_22-25-11_260595134347_rgbf000137-resize_1/000436_2014-06-09_22-25-11_260595134347_rgbf000137-resize_1-target.png,250,4.0705,12,3086,254,feet,jsons/v1_VE250_randls_73.json,675466,841389,25,Woman
28,386006,DepthScenes,duration_manipulation_targetAtFixation,jsons/v1_VE250_randls_73.json,http://54.235.29.9/FacialAge/BNav_EC2/DepthDuration/v2_depth_duration_MTurk/v2_DepthDuration_HTML.html#70,70,1386,713,1920,1080,8-20-2022,10-57-47,29,depth_duration_stimuli/002444_2014-06-28_20-32-08_260595134347_rgbf000027-resize_0/002444_2014-06-28_20-32-08_260595134347_rgbf000027-resize_0-target.png,250,4.388999999999999,17,4536,235,feet,jsons/v1_VE250_randls_73.json,675466,841389,25,Woman
29,386006,DepthScenes,duration_manipulation_targetAtFixation,jsons/v1_VE250_randls_73.json,http://54.235.29.9/FacialAge/BNav_EC2/DepthDuration/v2_depth_duration_MTurk/v2_DepthDuration_HTML.html#70,70,1386,713,1920,1080,8-20-2022,10-57-47,30,depth_duration_stimuli/000375_2014-06-08_11-17-29_260595134347_rgbf000133-resize_2/000375_2014-06-08_11-17-29_260595134347_rgbf000133-resize-original.jpg,250,4.718,0,2461,250,feet,jsons/v1_VE250_randls_73.json,675466,841389,25,Woman
30,386006,DepthScenes,duration_manipulation_targetAtFixation,jsons/v1_VE250_randls_73.json,http://54.235.29.9/FacialAge/BNav_EC2/DepthDuration/v2_depth_duration_MTurk/v2_DepthDuration_HTML.html#70,70,1386,713,1920,1080,8-20-2022,10-57-47,31,depth_duration_stimuli/000493_2014-06-09_21-01-18_260595134347_rgbf000196-resize_3/000493_2014-06-09_21-01-18_260595134347_rgbf000196-resize_3-target.png,250,3.44,5,3334,252,feet,jsons/v1_VE250_randls_73.json,675466,841389,25,Woman
31,386006,DepthScenes,duration_manipulation_targetAtFixation,jsons/v1_VE250_randls_73.json,http://54.235.29.9/FacialAge/BNav_EC2/DepthDuration/v2_depth_duration_MTurk/v2_DepthDuration_HTML.html#70,70,1386,713,1920,1080,8-20-2022,10-57-47,32,depth_duration_stimuli/000191_2014-05-12_17-07-38_260595134347_rgbf000199-resize_0/000191_2014-05-12_17-07-38_260595134347_rgbf000199-resize_0-target.png,250,3.7995,15,3537,250,feet,jsons/v1_VE250_randls_73.json,675466,841389,25,Woman
32,386006,DepthScenes,duration_manipulation_targetAtFixation,jsons/v1_VE250_randls_73.json,http://54.235.29.9/FacialAge/BNav_EC2/DepthDuration/v2_depth_duration_MTurk/v2_DepthDuration_HTML.html#70,70,1386,713,1920,1080,8-20-2022,10-57-47,33,depth_duration_stimuli/000917_2014-06-09_22-45-29_260595134347_rgbf000149-resize_3/000917_2014-06-09_22-45-29_260595134347_rgbf000149-resize_3-target.png,250,4.1865,6,5112,254,feet,jsons/v1_VE250_randls_73.json,675466,841389,25,Woman
33,386006,DepthScenes,duration_manipulation_targetAtFixation,jsons/v1_VE250_randls_73.json,http://54.235.29.9/FacialAge/BNav_EC2/DepthDuration/v2_depth_duration_MTurk/v2_DepthDuration_HTML.html#70,70,1386,713,1920,1080,8-20-2022,10-57-47,34,depth_duration_stimuli/002323_2014-06-28_20-01-54_260595134347_rgbf000051-resize_4/002323_2014-06-28_20-01-54_260595134347_rgbf000051-resize_4-target.png,250,3.7310000000000003,10,3170,235,feet,jsons/v1_VE250_randls_73.json,675466,841389,25,Woman
34,386006,DepthScenes,duration_manipulation_targetAtFixation,jsons/v1_VE250_randls_73.json,http://54.235.29.9/FacialAge/BNav_EC2/DepthDuration/v2_depth_duration_MTurk/v2_DepthDuration_HTML.html#70,70,1386,713,1920,1080,8-20-2022,10-57-47,35,depth_duration_stimuli/000878_2014-06-08_22-52-45_260595134347_rgbf000045-resize_2/000878_2014-06-08_22-52-45_260595134347_rgbf000045-resize_2-target.png,250,2.092,5,4071,252,feet,jsons/v1_VE250_randls_73.json,675466,841389,25,Woman
35,386006,DepthScenes,duration_manipulation_targetAtFixation,jsons/v1_VE250_randls_73.json,http://54.235.29.9/FacialAge/BNav_EC2/DepthDuration/v2_depth_duration_MTurk/v2_DepthDuration_HTML.html#70,70,1386,713,1920,1080,8-20-2022,10-57-47,36,depth_duration_stimuli/002953_2014-06-08_17-32-18_094959634447_rgbf000059-resize_5/002953_2014-06-08_17-32-18_094959634447_rgbf000059-resize_5-target.png,250,1.551,2,4236,237,feet,jsons/v1_VE250_randls_73.json,675466,841389,25,Woman
36,386006,DepthScenes,duration_manipulation_targetAtFixation,jsons/v1_VE250_randls_73.json,http://54.235.29.9/FacialAge/BNav_EC2/DepthDuration/v2_depth_duration_MTurk/v2_DepthDuration_HTML.html#70,70,1386,713,1920,1080,8-20-2022,10-57-47,37,depth_duration_stimuli/000758_2014-06-08_22-05-08_260595134347_rgbf000085-resize_0/000758_2014-06-08_22-05-08_260595134347_rgbf000085-resize_0-target.png,250,3.3810000000000002,12,3887,255,feet,jsons/v1_VE250_randls_73.json,675466,841389,25,Woman
37,386006,DepthScenes,duration_manipulation_targetAtFixation,jsons/v1_VE250_randls_73.json,http://54.235.29.9/FacialAge/BNav_EC2/DepthDuration/v2_depth_duration_MTurk/v2_DepthDuration_HTML.html#70,70,1386,713,1920,1080,8-20-2022,10-57-47,38,depth_duration_stimuli/000854_2014-06-09_19-43-13_260595134347_rgbf000066-resize_0/000854_2014-06-09_19-43-13_260595134347_rgbf000066-resize_0-target.png,250,3.068,2,4549,254,feet,jsons/v1_VE250_randls_73.json,675466,841389,25,Woman
38,386006,DepthScenes,duration_manipulation_targetAtFixation,jsons/v1_VE250_randls_73.json,http://54.235.29.9/FacialAge/BNav_EC2/DepthDuration/v2_depth_duration_MTurk/v2_DepthDuration_HTML.html#70,70,1386,713,1920,1080,8-20-2022,10-57-47,39,depth_duration_stimuli/002153_2014-06-25_21-27-18_260595134347_rgbf000038-resize_5/002153_2014-06-25_21-27-18_260595134347_rgbf000038-resize_5-target.png,250,2.505,5,3555,250,feet,jsons/v1_VE250_randls_73.json,675466,841389,25,Woman
39,386006,DepthScenes,duration_manipulation_targetAtFixation,jsons/v1_VE250_randls_73.json,http://54.235.29.9/FacialAge/BNav_EC2/DepthDuration/v2_depth_duration_MTurk/v2_DepthDuration_HTML.html#70,70,1386,713,1920,1080,8-20-2022,10-57-47,40,depth_duration_stimuli/002660_2014-06-13_15-44-18_094959634447_rgbf001878-resize_2/002660_2014-06-13_15-44-18_094959634447_rgbf001878-resize_2-target.png,250,3.576,0,3048,252,feet,jsons/v1_VE250_randls_73.json,675466,841389,25,Woman
40,386006,DepthScenes,duration_manipulation_targetAtFixation,jsons/v1_VE250_randls_73.json,http://54.235.29.9/FacialAge/BNav_EC2/DepthDuration/v2_depth_duration_MTurk/v2_DepthDuration_HTML.html#70,70,1386,713,1920,1080,8-20-2022,10-57-47,41,depth_duration_stimuli/001055_2014-06-08_18-45-35_260595134347_rgbf000111-resize_4/001055_2014-06-08_18-45-35_260595134347_rgbf000111-resize_4-target.png,250,2.4290000000000003,6,3782,252,feet,jsons/v1_VE250_randls_73.json,675466,841389,25,Woman
41,386006,DepthScenes,duration_manipulation_targetAtFixation,jsons/v1_VE250_randls_73.json,http://54.235.29.9/FacialAge/BNav_EC2/DepthDuration/v2_depth_duration_MTurk/v2_DepthDuration_HTML.html#70,70,1386,713,1920,1080,8-20-2022,10-57-47,42,depth_duration_stimuli/000549_2014-06-08_22-10-24_260595134347_rgbf000247-resize_3/000549_2014-06-08_22-10-24_260595134347_rgbf000247-resize_3-target.png,250,1.841,2,3892,254,feet,jsons/v1_VE250_randls_73.json,675466,841389,25,Woman
42,386006,DepthScenes,duration_manipulation_targetAtFixation,jsons/v1_VE250_randls_73.json,http://54.235.29.9/FacialAge/BNav_EC2/DepthDuration/v2_depth_duration_MTurk/v2_DepthDuration_HTML.html#70,70,1386,713,1920,1080,8-20-2022,10-57-47,43,depth_duration_stimuli/002725_2014-06-22_11-47-51_094959634447_rgbf000070-resize_1/002725_2014-06-22_11-47-51_094959634447_rgbf000070-resize_1-target.png,250,2.195,7,4263,245,feet,jsons/v1_VE250_randls_73.json,675466,841389,25,Woman
43,386006,DepthScenes,duration_manipulation_targetAtFixation,jsons/v1_VE250_randls_73.json,http://54.235.29.9/FacialAge/BNav_EC2/DepthDuration/v2_depth_duration_MTurk/v2_DepthDuration_HTML.html#70,70,1386,713,1920,1080,8-20-2022,10-57-47,44,depth_duration_stimuli/002344_2014-06-28_20-06-29_260595134347_rgbf000030-resize_1/002344_2014-06-28_20-06-29_260595134347_rgbf000030-resize_1-target.png,250,1.5795,5,3626,238,feet,jsons/v1_VE250_randls_73.json,675466,841389,25,Woman
44,386006,DepthScenes,duration_manipulation_targetAtFixation,jsons/v1_VE250_randls_73.json,http://54.235.29.9/FacialAge/BNav_EC2/DepthDuration/v2_depth_duration_MTurk/v2_DepthDuration_HTML.html#70,70,1386,713,1920,1080,8-20-2022,10-57-47,45,depth_duration_stimuli/000787_2014-06-08_22-33-53_260595134347_rgbf000175-resize_1/000787_2014-06-08_22-33-53_260595134347_rgbf000175-resize-original.jpg,250,4.784,0,2591,251,feet,jsons/v1_VE250_randls_73.json,675466,841389,25,Woman
45,386006,DepthScenes,duration_manipulation_targetAtFixation,jsons/v1_VE250_randls_73.json,http://54.235.29.9/FacialAge/BNav_EC2/DepthDuration/v2_depth_duration_MTurk/v2_DepthDuration_HTML.html#70,70,1386,713,1920,1080,8-20-2022,10-57-47,46,depth_duration_stimuli/002784_2014-06-22_19-26-30_094959634447_rgbf000083-resize_3/002784_2014-06-22_19-26-30_094959634447_rgbf000083-resize_3-target.png,250,1.8046666666667,3,3371,255,feet,jsons/v1_VE250_randls_73.json,675466,841389,25,Woman
46,386006,DepthScenes,duration_manipulation_targetAtFixation,jsons/v1_VE250_randls_73.json,http://54.235.29.9/FacialAge/BNav_EC2/DepthDuration/v2_depth_duration_MTurk/v2_DepthDuration_HTML.html#70,70,1386,713,1920,1080,8-20-2022,10-57-47,47,depth_duration_stimuli/001100_2014-06-15_17-46-26_260595134347_rgbf000225-resize_2/001100_2014-06-15_17-46-26_260595134347_rgbf000225-resize_2-target.png,250,2.24,4,3214,253,feet,jsons/v1_VE250_randls_73.json,675466,841389,25,Woman
47,386006,DepthScenes,duration_manipulation_targetAtFixation,jsons/v1_VE250_randls_73.json,http://54.235.29.9/FacialAge/BNav_EC2/DepthDuration/v2_depth_duration_MTurk/v2_DepthDuration_HTML.html#70,70,1386,713,1920,1080,8-20-2022,10-57-47,48,depth_duration_stimuli/001016_2014-06-09_16-16-10_260595134347_rgbf000112-resize_5/001016_2014-06-09_16-16-10_260595134347_rgbf000112-resize_5-target.png,250,1.6565,5,2912,250,feet,jsons/v1_VE250_randls_73.json,675466,841389,25,Woman
48,386006,DepthScenes,duration_manipulation_targetAtFixation,jsons/v1_VE250_randls_73.json,http://54.235.29.9/FacialAge/BNav_EC2/DepthDuration/v2_depth_duration_MTurk/v2_DepthDuration_HTML.html#70,70,1386,713,1920,1080,8-20-2022,10-57-47,49,depth_duration_stimuli/002340_2014-06-28_20-05-46_260595134347_rgbf000113-resize_0/002340_2014-06-28_20-05-46_260595134347_rgbf000113-resize_0-target.png,250,2.4735,7,6233,250,feet,jsons/v1_VE250_randls_73.json,675466,841389,25,Woman
49,386006,DepthScenes,duration_manipulation_targetAtFixation,jsons/v1_VE250_randls_73.json,http://54.235.29.9/FacialAge/BNav_EC2/DepthDuration/v2_depth_duration_MTurk/v2_DepthDuration_HTML.html#70,70,1386,713,1920,1080,8-20-2022,10-57-47,50,depth_duration_stimuli/003621_2014-05-23_18-06-08_094959634447_rgbf000101-resize_1/003621_2014-05-23_18-06-08_094959634447_rgbf000101-resize_1-target.png,250,3.9835,5,8862,251,feet,jsons/v1_VE250_randls_73.json,675466,841389,25,Woman
50,386006,DepthScenes,duration_manipulation_targetAtFixation,jsons/v1_VE250_randls_73.json,http://54.235.29.9/FacialAge/BNav_EC2/DepthDuration/v2_depth_duration_MTurk/v2_DepthDuration_HTML.html#70,70,1386,713,1920,1080,8-20-2022,10-57-47,51,depth_duration_stimuli/001584_2014-06-20_11-07-43_260595134347_rgbf000002-resize_1/001584_2014-06-20_11-07-43_260595134347_rgbf000002-resize_1-target.png,250,3.53,6,4500,247,feet,jsons/v1_VE250_randls_73.json,675466,841389,25,Woman
51,386006,DepthScenes,duration_manipulation_targetAtFixation,jsons/v1_VE250_randls_73.json,http://54.235.29.9/FacialAge/BNav_EC2/DepthDuration/v2_depth_duration_MTurk/v2_DepthDuration_HTML.html#70,70,1386,713,1920,1080,8-20-2022,10-57-47,52,depth_duration_stimuli/002549_2014-06-24_13-41-39_094959634447_rgbf000022-resize_3/002549_2014-06-24_13-41-39_094959634447_rgbf000022-resize_3-target.png,250,1.476,0,3362,250,feet,jsons/v1_VE250_randls_73.json,675466,841389,25,Woman
52,386006,DepthScenes,duration_manipulation_targetAtFixation,jsons/v1_VE250_randls_73.json,http://54.235.29.9/FacialAge/BNav_EC2/DepthDuration/v2_depth_duration_MTurk/v2_DepthDuration_HTML.html#70,70,1386,713,1920,1080,8-20-2022,10-57-47,53,depth_duration_stimuli/002750_2014-06-22_19-08-03_094959634447_rgbf000094-resize_4/002750_2014-06-22_19-08-03_094959634447_rgbf000094-resize_4-target.png,250,2.354,7,3634,251,feet,jsons/v1_VE250_randls_73.json,675466,841389,25,Woman
53,386006,DepthScenes,duration_manipulation_targetAtFixation,jsons/v1_VE250_randls_73.json,http://54.235.29.9/FacialAge/BNav_EC2/DepthDuration/v2_depth_duration_MTurk/v2_DepthDuration_HTML.html#70,70,1386,713,1920,1080,8-20-2022,10-57-47,54,depth_duration_stimuli/002570_2014-06-24_13-59-54_094959634447_rgbf000059-resize_0/002570_2014-06-24_13-59-54_094959634447_rgbf000059-resize_0-target.png,250,4.037,12,2872,251,feet,jsons/v1_VE250_randls_73.json,675466,841389,25,Woman
54,386006,DepthScenes,duration_manipulation_targetAtFixation,jsons/v1_VE250_randls_73.json,http://54.235.29.9/FacialAge/BNav_EC2/DepthDuration/v2_depth_duration_MTurk/v2_DepthDuration_HTML.html#70,70,1386,713,1920,1080,8-20-2022,10-57-47,55,depth_duration_stimuli/002467_2014-06-28_20-38-07_260595134347_rgbf000026-resize_2/002467_2014-06-28_20-38-07_260595134347_rgbf000026-resize_2-target.png,250,4.742,15,4221,238,feet,jsons/v1_VE250_randls_73.json,675466,841389,25,Woman
55,386006,DepthScenes,duration_manipulation_targetAtFixation,jsons/v1_VE250_randls_73.json,http://54.235.29.9/FacialAge/BNav_EC2/DepthDuration/v2_depth_duration_MTurk/v2_DepthDuration_HTML.html#70,70,1386,713,1920,1080,8-20-2022,10-57-47,56,depth_duration_stimuli/001029_2014-06-08_13-17-57_260595134347_rgbf000065-resize_1/001029_2014-06-08_13-17-57_260595134347_rgbf000065-resize_1-target.png,250,3.0835,6,3971,254,feet,jsons/v1_VE250_randls_73.json,675466,841389,25,Woman
56,386006,DepthScenes,duration_manipulation_targetAtFixation,jsons/v1_VE250_randls_73.json,http://54.235.29.9/FacialAge/BNav_EC2/DepthDuration/v2_depth_duration_MTurk/v2_DepthDuration_HTML.html#70,70,1386,713,1920,1080,8-20-2022,10-57-47,57,depth_duration_stimuli/000677_2014-06-08_23-10-32_260595134347_rgbf000158-resize_6/000677_2014-06-08_23-10-32_260595134347_rgbf000158-resize_6-target.png,250,3.556,8,3452,238,feet,jsons/v1_VE250_randls_73.json,675466,841389,25,Woman
57,386006,DepthScenes,duration_manipulation_targetAtFixation,jsons/v1_VE250_randls_73.json,http://54.235.29.9/FacialAge/BNav_EC2/DepthDuration/v2_depth_duration_MTurk/v2_DepthDuration_HTML.html#70,70,1386,713,1920,1080,8-20-2022,10-57-47,58,depth_duration_stimuli/001808_2014-06-26_20-50-58_260595134347_rgbf000029-resize_1/001808_2014-06-26_20-50-58_260595134347_rgbf000029-resize_1-target.png,250,4.249,12,3516,250,feet,jsons/v1_VE250_randls_73.json,675466,841389,25,Woman
58,386006,DepthScenes,duration_manipulation_targetAtFixation,jsons/v1_VE250_randls_73.json,http://54.235.29.9/FacialAge/BNav_EC2/DepthDuration/v2_depth_duration_MTurk/v2_DepthDuration_HTML.html#70,70,1386,713,1920,1080,8-20-2022,10-57-47,59,depth_duration_stimuli/001815_2014-06-26_20-52-55_260595134347_rgbf000020-resize_0/001815_2014-06-26_20-52-55_260595134347_rgbf000020-resize_0-target.png,250,3.3865,10,2600,253,feet,jsons/v1_VE250_randls_73.json,675466,841389,25,Woman
59,386006,DepthScenes,duration_manipulation_targetAtFixation,jsons/v1_VE250_randls_73.json,http://54.235.29.9/FacialAge/BNav_EC2/DepthDuration/v2_depth_duration_MTurk/v2_DepthDuration_HTML.html#70,70,1386,713,1920,1080,8-20-2022,10-57-47,60,depth_duration_stimuli/001806_2014-06-26_20-50-20_260595134347_rgbf000091-resize_1/001806_2014-06-26_20-50-20_260595134347_rgbf000091-resize_1-target.png,250,2.7305,4,3474,250,feet,jsons/v1_VE250_randls_73.json,675466,841389,25,Woman
60,386006,DepthScenes,duration_manipulation_targetAtFixation,jsons/v1_VE250_randls_73.json,http://54.235.29.9/FacialAge/BNav_EC2/DepthDuration/v2_depth_duration_MTurk/v2_DepthDuration_HTML.html#70,70,1386,713,1920,1080,8-20-2022,10-57-47,61,depth_duration_stimuli/001617_2014-06-20_11-35-32_260595134347_rgbf000066-resize_1/001617_2014-06-20_11-35-32_260595134347_rgbf000066-resize_1-target.png,250,3.7910000000000004,6,4311,251,feet,jsons/v1_VE250_randls_73.json,675466,841389,25,Woman
61,386006,DepthScenes,duration_manipulation_targetAtFixation,jsons/v1_VE250_randls_73.json,http://54.235.29.9/FacialAge/BNav_EC2/DepthDuration/v2_depth_duration_MTurk/v2_DepthDuration_HTML.html#70,70,1386,713,1920,1080,8-20-2022,10-57-47,62,depth_duration_stimuli/001158_2014-06-17_15-32-16_260595134347_rgbf000138-resize_2/001158_2014-06-17_15-32-16_260595134347_rgbf000138-resize_2-target.png,250,4.5315,8,3818,239,feet,jsons/v1_VE250_randls_73.json,675466,841389,25,Woman
62,386006,DepthScenes,duration_manipulation_targetAtFixation,jsons/v1_VE250_randls_73.json,http://54.235.29.9/FacialAge/BNav_EC2/DepthDuration/v2_depth_duration_MTurk/v2_DepthDuration_HTML.html#70,70,1386,713,1920,1080,8-20-2022,10-57-47,63,depth_duration_stimuli/000556_2014-06-09_22-42-56_260595134347_rgbf000214-resize_1/000556_2014-06-09_22-42-56_260595134347_rgbf000214-resize_1-target.png,250,4.8415,8,4235,252,feet,jsons/v1_VE250_randls_73.json,675466,841389,25,Woman
63,386006,DepthScenes,duration_manipulation_targetAtFixation,jsons/v1_VE250_randls_73.json,http://54.235.29.9/FacialAge/BNav_EC2/DepthDuration/v2_depth_duration_MTurk/v2_DepthDuration_HTML.html#70,70,1386,713,1920,1080,8-20-2022,10-57-47,64,depth_duration_stimuli/002039_2014-06-24_20-22-38_260595134347_rgbf000084-resize_1/002039_2014-06-24_20-22-38_260595134347_rgbf000084-resize_1-target.png,250,4.408,12,3304,252,feet,jsons/v1_VE250_randls_73.json,675466,841389,25,Woman
64,386006,DepthScenes,duration_manipulation_targetAtFixation,jsons/v1_VE250_randls_73.json,http://54.235.29.9/FacialAge/BNav_EC2/DepthDuration/v2_depth_duration_MTurk/v2_DepthDuration_HTML.html#70,70,1386,713,1920,1080,8-20-2022,10-57-47,65,depth_duration_stimuli/002103_2014-06-25_20-00-40_260595134347_rgbf000049-resize_0/002103_2014-06-25_20-00-40_260595134347_rgbf000049-resize_0-target.png,250,4.105,6,4720,251,feet,jsons/v1_VE250_randls_73.json,675466,841389,25,Woman
65,386006,DepthScenes,duration_manipulation_targetAtFixation,jsons/v1_VE250_randls_73.json,http://54.235.29.9/FacialAge/BNav_EC2/DepthDuration/v2_depth_duration_MTurk/v2_DepthDuration_HTML.html#70,70,1386,713,1920,1080,8-20-2022,10-57-47,66,depth_duration_stimuli/001222_2014-06-17_16-24-06_260595134347_rgbf000073-resize_0/001222_2014-06-17_16-24-06_260595134347_rgbf000073-resize-original.jpg,250,1.4385,0,2323,251,feet,jsons/v1_VE250_randls_73.json,675466,841389,25,Woman
66,386006,DepthScenes,duration_manipulation_targetAtFixation,jsons/v1_VE250_randls_73.json,http://54.235.29.9/FacialAge/BNav_EC2/DepthDuration/v2_depth_duration_MTurk/v2_DepthDuration_HTML.html#70,70,1386,713,1920,1080,8-20-2022,10-57-47,67,depth_duration_stimuli/001449_2014-06-19_17-01-27_260595134347_rgbf000116-resize_2/001449_2014-06-19_17-01-27_260595134347_rgbf000116-resize_2-target.png,250,3.452,6,4841,250,feet,jsons/v1_VE250_randls_73.json,675466,841389,25,Woman
67,386006,DepthScenes,duration_manipulation_targetAtFixation,jsons/v1_VE250_randls_73.json,http://54.235.29.9/FacialAge/BNav_EC2/DepthDuration/v2_depth_duration_MTurk/v2_DepthDuration_HTML.html#70,70,1386,713,1920,1080,8-20-2022,10-57-47,68,depth_duration_stimuli/001450_2014-06-19_17-02-03_260595134347_rgbf000203-resize_4/001450_2014-06-19_17-02-03_260595134347_rgbf000203-resize_4-target.png,250,4.0106666666667,8,4905,252,feet,jsons/v1_VE250_randls_73.json,675466,841389,25,Woman
68,386006,DepthScenes,duration_manipulation_targetAtFixation,jsons/v1_VE250_randls_73.json,http://54.235.29.9/FacialAge/BNav_EC2/DepthDuration/v2_depth_duration_MTurk/v2_DepthDuration_HTML.html#70,70,1386,713,1920,1080,8-20-2022,10-57-47,69,depth_duration_stimuli/001199_2014-06-17_16-03-48_260595134347_rgbf000077-resize_0/001199_2014-06-17_16-03-48_260595134347_rgbf000077-resize_0-target.png,250,3.4375,6,3527,251,feet,jsons/v1_VE250_randls_73.json,675466,841389,25,Woman
69,386006,DepthScenes,duration_manipulation_targetAtFixation,jsons/v1_VE250_randls_73.json,http://54.235.29.9/FacialAge/BNav_EC2/DepthDuration/v2_depth_duration_MTurk/v2_DepthDuration_HTML.html#70,70,1386,713,1920,1080,8-20-2022,10-57-47,70,depth_duration_stimuli/000502_2014-06-08_23-02-32_260595134347_rgbf000063-resize_4/000502_2014-06-08_23-02-32_260595134347_rgbf000063-resize_4-target.png,250,2.431,2,3158,253,feet,jsons/v1_VE250_randls_73.json,675466,841389,25,Woman
70,386006,DepthScenes,duration_manipulation_targetAtFixation,jsons/v1_VE250_randls_73.json,http://54.235.29.9/FacialAge/BNav_EC2/DepthDuration/v2_depth_duration_MTurk/v2_DepthDuration_HTML.html#70,70,1386,713,1920,1080,8-20-2022,10-57-47,71,depth_duration_stimuli/000469_2014-06-09_19-42-10_260595134347_rgbf000081-resize_1/000469_2014-06-09_19-42-10_260595134347_rgbf000081-resize_1-target.png,250,1.652,3,3432,252,feet,jsons/v1_VE250_randls_73.json,675466,841389,25,Woman
71,386006,DepthScenes,duration_manipulation_targetAtFixation,jsons/v1_VE250_randls_73.json,http://54.235.29.9/FacialAge/BNav_EC2/DepthDuration/v2_depth_duration_MTurk/v2_DepthDuration_HTML.html#70,70,1386,713,1920,1080,8-20-2022,10-57-47,72,depth_duration_stimuli/000483_2014-06-09_20-41-45_260595134347_rgbf000116-resize_4/000483_2014-06-09_20-41-45_260595134347_rgbf000116-resize_4-target.png,250,1.337,1,4126,238,feet,jsons/v1_VE250_randls_73.json,675466,841389,25,Woman
72,386006,DepthScenes,duration_manipulation_targetAtFixation,jsons/v1_VE250_randls_73.json,http://54.235.29.9/FacialAge/BNav_EC2/DepthDuration/v2_depth_duration_MTurk/v2_DepthDuration_HTML.html#70,70,1386,713,1920,1080,8-20-2022,10-57-47,73,depth_duration_stimuli/002964_2014-06-08_17-46-11_094959634447_rgbf000091-resize_4/002964_2014-06-08_17-46-11_094959634447_rgbf000091-resize_4-target.png,250,1.6909999999999998,3,2985,239,feet,jsons/v1_VE250_randls_73.json,675466,841389,25,Woman
73,386006,DepthScenes,duration_manipulation_targetAtFixation,jsons/v1_VE250_randls_73.json,http://54.235.29.9/FacialAge/BNav_EC2/DepthDuration/v2_depth_duration_MTurk/v2_DepthDuration_HTML.html#70,70,1386,713,1920,1080,8-20-2022,10-57-47,74,depth_duration_stimuli/002136_2014-06-25_21-18-03_260595134347_rgbf000109-resize_3/002136_2014-06-25_21-18-03_260595134347_rgbf000109-resize_3-target.png,250,1.9569999999999999,5,3027,255,feet,jsons/v1_VE250_randls_73.json,675466,841389,25,Woman
74,386006,DepthScenes,duration_manipulation_targetAtFixation,jsons/v1_VE250_randls_73.json,http://54.235.29.9/FacialAge/BNav_EC2/DepthDuration/v2_depth_duration_MTurk/v2_DepthDuration_HTML.html#70,70,1386,713,1920,1080,8-20-2022,10-57-47,75,depth_duration_stimuli/001150_2014-06-17_15-27-34_260595134347_rgbf000108-resize_2/001150_2014-06-17_15-27-34_260595134347_rgbf000108-resize_2-target.png,250,4.0325,5,2195,253,feet,jsons/v1_VE250_randls_73.json,675466,841389,25,Woman
75,386006,DepthScenes,duration_manipulation_targetAtFixation,jsons/v1_VE250_randls_73.json,http://54.235.29.9/FacialAge/BNav_EC2/DepthDuration/v2_depth_duration_MTurk/v2_DepthDuration_HTML.html#70,70,1386,713,1920,1080,8-20-2022,10-57-47,76,depth_duration_stimuli/000665_2014-06-09_20-42-35_260595134347_rgbf000110-resize_1/000665_2014-06-09_20-42-35_260595134347_rgbf000110-resize_1-target.png,250,3.057,8,3158,260,feet,jsons/v1_VE250_randls_73.json,675466,841389,25,Woman
76,386006,DepthScenes,duration_manipulation_targetAtFixation,jsons/v1_VE250_randls_73.json,http://54.235.29.9/FacialAge/BNav_EC2/DepthDuration/v2_depth_duration_MTurk/v2_DepthDuration_HTML.html#70,70,1386,713,1920,1080,8-20-2022,10-57-47,77,depth_duration_stimuli/000414_2014-06-04_19-49-13_260595134347_rgbf000044-resize_0/000414_2014-06-04_19-49-13_260595134347_rgbf000044-resize_0-target.png,250,4.329,12,2933,254,feet,jsons/v1_VE250_randls_73.json,675466,841389,25,Woman
77,386006,DepthScenes,duration_manipulation_targetAtFixation,jsons/v1_VE250_randls_73.json,http://54.235.29.9/FacialAge/BNav_EC2/DepthDuration/v2_depth_duration_MTurk/v2_DepthDuration_HTML.html#70,70,1386,713,1920,1080,8-20-2022,10-57-47,78,depth_duration_stimuli/003129_2014-05-12_10-48-10_094959634447_rgbf000100-resize_0/003129_2014-05-12_10-48-10_094959634447_rgbf000100-resize_0-target.png,250,4.9305,0,2486,255,feet,jsons/v1_VE250_randls_73.json,675466,841389,25,Woman
78,386006,DepthScenes,duration_manipulation_targetAtFixation,jsons/v1_VE250_randls_73.json,http://54.235.29.9/FacialAge/BNav_EC2/DepthDuration/v2_depth_duration_MTurk/v2_DepthDuration_HTML.html#70,70,1386,713,1920,1080,8-20-2022,10-57-47,79,depth_duration_stimuli/000773_2014-06-08_22-24-54_260595134347_rgbf000093-resize_1/000773_2014-06-08_22-24-54_260595134347_rgbf000093-resize_1-target.png,250,4.973,10,2824,252,feet,jsons/v1_VE250_randls_73.json,675466,841389,25,Woman
79,386006,DepthScenes,duration_manipulation_targetAtFixation,jsons/v1_VE250_randls_73.json,http://54.235.29.9/FacialAge/BNav_EC2/DepthDuration/v2_depth_duration_MTurk/v2_DepthDuration_HTML.html#70,70,1386,713,1920,1080,8-20-2022,10-57-47,80,depth_duration_stimuli/002414_2014-06-28_20-24-58_260595134347_rgbf000067-resize_4/002414_2014-06-28_20-24-58_260595134347_rgbf000067-resize_4-target.png,250,4.363,15,2835,251,feet,jsons/v1_VE250_randls_73.json,675466,841389,25,Woman
80,386006,DepthScenes,duration_manipulation_targetAtFixation,jsons/v1_VE250_randls_73.json,http://54.235.29.9/FacialAge/BNav_EC2/DepthDuration/v2_depth_duration_MTurk/v2_DepthDuration_HTML.html#70,70,1386,713,1920,1080,8-20-2022,10-57-47,81,depth_duration_stimuli/002057_2014-06-24_21-00-13_260595134347_rgbf000120-resize_1/002057_2014-06-24_21-00-13_260595134347_rgbf000120-resize_1-target.png,250,2.967,7,5839,253,feet,jsons/v1_VE250_randls_73.json,675466,841389,25,Woman
81,386006,DepthScenes,duration_manipulation_targetAtFixation,jsons/v1_VE250_randls_73.json,http://54.235.29.9/FacialAge/BNav_EC2/DepthDuration/v2_depth_duration_MTurk/v2_DepthDuration_HTML.html#70,70,1386,713,1920,1080,8-20-2022,10-57-47,82,depth_duration_stimuli/000709_2014-06-08_13-51-55_260595134347_rgbf000068-resize_3/000709_2014-06-08_13-51-55_260595134347_rgbf000068-resize_3-target.png,250,1.8030000000000002,4,3682,253,feet,jsons/v1_VE250_randls_73.json,675466,841389,25,Woman
82,386006,DepthScenes,duration_manipulation_targetAtFixation,jsons/v1_VE250_randls_73.json,http://54.235.29.9/FacialAge/BNav_EC2/DepthDuration/v2_depth_duration_MTurk/v2_DepthDuration_HTML.html#70,70,1386,713,1920,1080,8-20-2022,10-57-47,83,depth_duration_stimuli/002600_2014-06-24_14-27-04_094959634447_rgbf000074-resize_2/002600_2014-06-24_14-27-04_094959634447_rgbf000074-resize_2-target.png,250,2.7575,8,4130,255,feet,jsons/v1_VE250_randls_73.json,675466,841389,25,Woman
83,386006,DepthScenes,duration_manipulation_targetAtFixation,jsons/v1_VE250_randls_73.json,http://54.235.29.9/FacialAge/BNav_EC2/DepthDuration/v2_depth_duration_MTurk/v2_DepthDuration_HTML.html#70,70,1386,713,1920,1080,8-20-2022,10-57-47,84,depth_duration_stimuli/003228_2014-05-14_13-42-35_094959634447_rgbf000101-resize_1/003228_2014-05-14_13-42-35_094959634447_rgbf000101-resize_1-target.png,250,1.9680000000000002,3,2345,252,feet,jsons/v1_VE250_randls_73.json,675466,841389,25,Woman
84,386006,DepthScenes,duration_manipulation_targetAtFixation,jsons/v1_VE250_randls_73.json,http://54.235.29.9/FacialAge/BNav_EC2/DepthDuration/v2_depth_duration_MTurk/v2_DepthDuration_HTML.html#70,70,1386,713,1920,1080,8-20-2022,10-57-47,85,depth_duration_stimuli/002213_2014-06-28_18-37-58_260595134347_rgbf000055-resize_1/002213_2014-06-28_18-37-58_260595134347_rgbf000055-resize_1-target.png,250,3.62,15,4434,252,feet,jsons/v1_VE250_randls_73.json,675466,841389,25,Woman
85,386006,DepthScenes,duration_manipulation_targetAtFixation,jsons/v1_VE250_randls_73.json,http://54.235.29.9/FacialAge/BNav_EC2/DepthDuration/v2_depth_duration_MTurk/v2_DepthDuration_HTML.html#70,70,1386,713,1920,1080,8-20-2022,10-57-47,86,depth_duration_stimuli/000691_2014-06-08_13-08-50_260595134347_rgbf000132-resize_3/000691_2014-06-08_13-08-50_260595134347_rgbf000132-resize_3-target.png,250,4.1530000000000005,10,3521,239,feet,jsons/v1_VE250_randls_73.json,675466,841389,25,Woman
86,386006,DepthScenes,duration_manipulation_targetAtFixation,jsons/v1_VE250_randls_73.json,http://54.235.29.9/FacialAge/BNav_EC2/DepthDuration/v2_depth_duration_MTurk/v2_DepthDuration_HTML.html#70,70,1386,713,1920,1080,8-20-2022,10-57-47,87,depth_duration_stimuli/002763_2014-06-22_19-13-10_094959634447_rgbf000075-resize_4/002763_2014-06-22_19-13-10_094959634447_rgbf000075-resize_4-target.png,250,1.68375,0,2683,251,feet,jsons/v1_VE250_randls_73.json,675466,841389,25,Woman
87,386006,DepthScenes,duration_manipulation_targetAtFixation,jsons/v1_VE250_randls_73.json,http://54.235.29.9/FacialAge/BNav_EC2/DepthDuration/v2_depth_duration_MTurk/v2_DepthDuration_HTML.html#70,70,1386,713,1920,1080,8-20-2022,10-57-47,88,depth_duration_stimuli/002209_2014-06-28_18-36-10_260595134347_rgbf000051-resize_1/002209_2014-06-28_18-36-10_260595134347_rgbf000051-resize_1-target.png,250,2.057,3,2505,235,feet,jsons/v1_VE250_randls_73.json,675466,841389,25,Woman
88,386006,DepthScenes,duration_manipulation_targetAtFixation,jsons/v1_VE250_randls_73.json,http://54.235.29.9/FacialAge/BNav_EC2/DepthDuration/v2_depth_duration_MTurk/v2_DepthDuration_HTML.html#70,70,1386,713,1920,1080,8-20-2022,10-57-47,89,depth_duration_stimuli/000486_2014-06-09_20-47-20_260595134347_rgbf000143-resize_2/000486_2014-06-09_20-47-20_260595134347_rgbf000143-resize_2-target.png,250,4.8325,6,4259,253,feet,jsons/v1_VE250_randls_73.json,675466,841389,25,Woman
89,386006,DepthScenes,duration_manipulation_targetAtFixation,jsons/v1_VE250_randls_73.json,http://54.235.29.9/FacialAge/BNav_EC2/DepthDuration/v2_depth_duration_MTurk/v2_DepthDuration_HTML.html#70,70,1386,713,1920,1080,8-20-2022,10-57-47,90,depth_duration_stimuli/003083_2014-06-15_15-21-03_094959634447_rgbf000063-resize_1/003083_2014-06-15_15-21-03_094959634447_rgbf000063-resize_1-target.png,250,4.1405,12,4313,253,feet,jsons/v1_VE250_randls_73.json,675466,841389,25,Woman
90,386006,DepthScenes,duration_manipulation_targetAtFixation,jsons/v1_VE250_randls_73.json,http://54.235.29.9/FacialAge/BNav_EC2/DepthDuration/v2_depth_duration_MTurk/v2_DepthDuration_HTML.html#70,70,1386,713,1920,1080,8-20-2022,10-57-47,91,depth_duration_stimuli/001110_2014-06-15_17-25-28_260595134347_rgbf000150-resize_1/001110_2014-06-15_17-25-28_260595134347_rgbf000150-resize_1-target.png,250,1.7115,5,3114,253,feet,jsons/v1_VE250_randls_73.json,675466,841389,25,Woman
91,386006,DepthScenes,duration_manipulation_targetAtFixation,jsons/v1_VE250_randls_73.json,http://54.235.29.9/FacialAge/BNav_EC2/DepthDuration/v2_depth_duration_MTurk/v2_DepthDuration_HTML.html#70,70,1386,713,1920,1080,8-20-2022,10-57-47,92,depth_duration_stimuli/000927_2014-06-09_16-32-30_260595134347_rgbf000123-resize_3/000927_2014-06-09_16-32-30_260595134347_rgbf000123-resize_3-target.png,250,2.6785,9,3668,254,feet,jsons/v1_VE250_randls_73.json,675466,841389,25,Woman
92,386006,DepthScenes,duration_manipulation_targetAtFixation,jsons/v1_VE250_randls_73.json,http://54.235.29.9/FacialAge/BNav_EC2/DepthDuration/v2_depth_duration_MTurk/v2_DepthDuration_HTML.html#70,70,1386,713,1920,1080,8-20-2022,10-57-47,93,depth_duration_stimuli/003070_2014-06-15_14-58-27_094959634447_rgbf000150-resize_3/003070_2014-06-15_14-58-27_094959634447_rgbf000150-resize_3-target.png,250,2.9415,5,2889,251,feet,jsons/v1_VE250_randls_73.json,675466,841389,25,Woman
93,386006,DepthScenes,duration_manipulation_targetAtFixation,jsons/v1_VE250_randls_73.json,http://54.235.29.9/FacialAge/BNav_EC2/DepthDuration/v2_depth_duration_MTurk/v2_DepthDuration_HTML.html#70,70,1386,713,1920,1080,8-20-2022,10-57-47,94,depth_duration_stimuli/000943_2014-06-09_19-31-07_260595134347_rgbf000128-resize_1/000943_2014-06-09_19-31-07_260595134347_rgbf000128-resize_1-target.png,250,1.9765,3,3380,252,feet,jsons/v1_VE250_randls_73.json,675466,841389,25,Woman
94,386006,DepthScenes,duration_manipulation_targetAtFixation,jsons/v1_VE250_randls_73.json,http://54.235.29.9/FacialAge/BNav_EC2/DepthDuration/v2_depth_duration_MTurk/v2_DepthDuration_HTML.html#70,70,1386,713,1920,1080,8-20-2022,10-57-47,95,depth_duration_stimuli/001059_2014-06-08_21-53-27_260595134347_rgbf000061-resize_4/001059_2014-06-08_21-53-27_260595134347_rgbf000061-resize_4-target.png,250,2.4185,5,2869,246,feet,jsons/v1_VE250_randls_73.json,675466,841389,25,Woman
95,386006,DepthScenes,duration_manipulation_targetAtFixation,jsons/v1_VE250_randls_73.json,http://54.235.29.9/FacialAge/BNav_EC2/DepthDuration/v2_depth_duration_MTurk/v2_DepthDuration_HTML.html#70,70,1386,713,1920,1080,8-20-2022,10-57-47,96,depth_duration_stimuli/001032_2014-06-08_13-23-17_260595134347_rgbf000021-resize_3/001032_2014-06-08_13-23-17_260595134347_rgbf000021-resize_3-target.png,250,3.2725,6,6142,262,feet,jsons/v1_VE250_randls_73.json,675466,841389,25,Woman
96,386006,DepthScenes,duration_manipulation_targetAtFixation,jsons/v1_VE250_randls_73.json,http://54.235.29.9/FacialAge/BNav_EC2/DepthDuration/v2_depth_duration_MTurk/v2_DepthDuration_HTML.html#70,70,1386,713,1920,1080,8-20-2022,10-57-47,97,depth_duration_stimuli/002748_2014-06-22_19-07-22_094959634447_rgbf000078-resize_1/002748_2014-06-22_19-07-22_094959634447_rgbf000078-resize_1-target.png,250,4.6705,16,5047,262,feet,jsons/v1_VE250_randls_73.json,675466,841389,25,Woman
97,386006,DepthScenes,duration_manipulation_targetAtFixation,jsons/v1_VE250_randls_73.json,http://54.235.29.9/FacialAge/BNav_EC2/DepthDuration/v2_depth_duration_MTurk/v2_DepthDuration_HTML.html#70,70,1386,713,1920,1080,8-20-2022,10-57-47,98,depth_duration_stimuli/002995_2014-06-15_12-31-26_094959634447_rgbf000150-resize_1/002995_2014-06-15_12-31-26_094959634447_rgbf000150-resize_1-target.png,250,3.8360000000000003,9,3472,249,feet,jsons/v1_VE250_randls_73.json,675466,841389,25,Woman
98,386006,DepthScenes,duration_manipulation_targetAtFixation,jsons/v1_VE250_randls_73.json,http://54.235.29.9/FacialAge/BNav_EC2/DepthDuration/v2_depth_duration_MTurk/v2_DepthDuration_HTML.html#70,70,1386,713,1920,1080,8-20-2022,10-57-47,99,depth_duration_stimuli/001540_2014-06-20_17-01-05_260595134347_rgbf000086-resize_2/001540_2014-06-20_17-01-05_260595134347_rgbf000086-resize-original.jpg,250,1.459,0,6785,255,feet,jsons/v1_VE250_randls_73.json,675466,841389,25,Woman
99,386006,DepthScenes,duration_manipulation_targetAtFixation,jsons/v1_VE250_randls_73.json,http://54.235.29.9/FacialAge/BNav_EC2/DepthDuration/v2_depth_duration_MTurk/v2_DepthDuration_HTML.html#70,70,1386,713,1920,1080,8-20-2022,10-57-47,100,depth_duration_stimuli/002445_2014-06-28_20-32-16_260595134347_rgbf000029-resize_4/002445_2014-06-28_20-32-16_260595134347_rgbf000029-resize_4-target.png,250,2.5315,3,2867,237,feet,jsons/v1_VE250_randls_73.json,675466,841389,25,Woman
100,386006,DepthScenes,duration_manipulation_targetAtFixation,jsons/v1_VE250_randls_73.json,http://54.235.29.9/FacialAge/BNav_EC2/DepthDuration/v2_depth_duration_MTurk/v2_DepthDuration_HTML.html#70,70,1386,713,1920,1080,8-20-2022,10-57-47,101,depth_duration_stimuli/000780_2014-06-08_22-28-29_260595134347_rgbf000126-resize_1/000780_2014-06-08_22-28-29_260595134347_rgbf000126-resize_1-target.png,250,3.3825,8,3661,253,feet,jsons/v1_VE250_randls_73.json,675466,841389,25,Woman
101,386006,DepthScenes,duration_manipulation_targetAtFixation,jsons/v1_VE250_randls_73.json,http://54.235.29.9/FacialAge/BNav_EC2/DepthDuration/v2_depth_duration_MTurk/v2_DepthDuration_HTML.html#70,70,1386,713,1920,1080,8-20-2022,10-57-47,102,depth_duration_stimuli/000692_2014-06-08_13-09-42_260595134347_rgbf000199-resize_2/000692_2014-06-08_13-09-42_260595134347_rgbf000199-resize_2-target.png,250,3.661,12,2338,250,feet,jsons/v1_VE250_randls_73.json,675466,841389,25,Woman
102,386006,DepthScenes,duration_manipulation_targetAtFixation,jsons/v1_VE250_randls_73.json,http://54.235.29.9/FacialAge/BNav_EC2/DepthDuration/v2_depth_duration_MTurk/v2_DepthDuration_HTML.html#70,70,1386,713,1920,1080,8-20-2022,10-57-47,103,depth_duration_stimuli/001094_2014-06-15_17-36-00_260595134347_rgbf000205-resize_0/001094_2014-06-15_17-36-00_260595134347_rgbf000205-resize_0-target.png,250,4.2175,10,2417,279,feet,jsons/v1_VE250_randls_73.json,675466,841389,25,Woman
103,386006,DepthScenes,duration_manipulation_targetAtFixation,jsons/v1_VE250_randls_73.json,http://54.235.29.9/FacialAge/BNav_EC2/DepthDuration/v2_depth_duration_MTurk/v2_DepthDuration_HTML.html#70,70,1386,713,1920,1080,8-20-2022,10-57-47,104,depth_duration_stimuli/002043_2014-06-24_20-29-38_260595134347_rgbf000039-resize_4/002043_2014-06-24_20-29-38_260595134347_rgbf000039-resize_4-target.png,250,2.8435,6,2937,252,feet,jsons/v1_VE250_randls_73.json,675466,841389,25,Woman
104,386006,DepthScenes,duration_manipulation_targetAtFixation,jsons/v1_VE250_randls_73.json,http://54.235.29.9/FacialAge/BNav_EC2/DepthDuration/v2_depth_duration_MTurk/v2_DepthDuration_HTML.html#70,70,1386,713,1920,1080,8-20-2022,10-57-47,105,depth_duration_stimuli/003048_2014-06-15_13-49-43_094959634447_rgbf000150-resize_1/003048_2014-06-15_13-49-43_094959634447_rgbf000150-resize_1-target.png,250,4.0035,10,4736,236,feet,jsons/v1_VE250_randls_73.json,675466,841389,25,Woman
105,386006,DepthScenes,duration_manipulation_targetAtFixation,jsons/v1_VE250_randls_73.json,http://54.235.29.9/FacialAge/BNav_EC2/DepthDuration/v2_depth_duration_MTurk/v2_DepthDuration_HTML.html#70,70,1386,713,1920,1080,8-20-2022,10-57-47,106,depth_duration_stimuli/001244_2014-06-17_16-47-45_260595134347_rgbf000030-resize_4/001244_2014-06-17_16-47-45_260595134347_rgbf000030-resize_4-target.png,250,2.0425,0,2590,237,feet,jsons/v1_VE250_randls_73.json,675466,841389,25,Woman
106,386006,DepthScenes,duration_manipulation_targetAtFixation,jsons/v1_VE250_randls_73.json,http://54.235.29.9/FacialAge/BNav_EC2/DepthDuration/v2_depth_duration_MTurk/v2_DepthDuration_HTML.html#70,70,1386,713,1920,1080,8-20-2022,10-57-47,107,depth_duration_stimuli/003495_2014-05-21_16-01-51_094959634447_rgbf000100-resize_3/003495_2014-05-21_16-01-51_094959634447_rgbf000100-resize_3-target.png,250,1.6255,6,3244,253,feet,jsons/v1_VE250_randls_73.json,675466,841389,25,Woman
107,386006,DepthScenes,duration_manipulation_targetAtFixation,jsons/v1_VE250_randls_73.json,http://54.235.29.9/FacialAge/BNav_EC2/DepthDuration/v2_depth_duration_MTurk/v2_DepthDuration_HTML.html#70,70,1386,713,1920,1080,8-20-2022,10-57-47,108,depth_duration_stimuli/002988_2014-06-15_12-24-20_094959634447_rgbf000150-resize_1/002988_2014-06-15_12-24-20_094959634447_rgbf000150-resize_1-target.png,250,4.7669999999999995,10,2776,253,feet,jsons/v1_VE250_randls_73.json,675466,841389,25,Woman
108,386006,DepthScenes,duration_manipulation_targetAtFixation,jsons/v1_VE250_randls_73.json,http://54.235.29.9/FacialAge/BNav_EC2/DepthDuration/v2_depth_duration_MTurk/v2_DepthDuration_HTML.html#70,70,1386,713,1920,1080,8-20-2022,10-57-47,109,depth_duration_stimuli/001052_2014-06-08_18-24-54_260595134347_rgbf000130-resize_1/001052_2014-06-08_18-24-54_260595134347_rgbf000130-resize_1-target.png,250,4.1045,9,3759,255,feet,jsons/v1_VE250_randls_73.json,675466,841389,25,Woman
109,386006,DepthScenes,duration_manipulation_targetAtFixation,jsons/v1_VE250_randls_73.json,http://54.235.29.9/FacialAge/BNav_EC2/DepthDuration/v2_depth_duration_MTurk/v2_DepthDuration_HTML.html#70,70,1386,713,1920,1080,8-20-2022,10-57-47,110,depth_duration_stimuli/000642_2014-06-08_16-59-25_260595134347_rgbf000098-resize_2/000642_2014-06-08_16-59-25_260595134347_rgbf000098-resize_2-target.png,250,2.8815,0,2630,252,feet,jsons/v1_VE250_randls_73.json,675466,841389,25,Woman
110,386006,DepthScenes,duration_manipulation_targetAtFixation,jsons/v1_VE250_randls_73.json,http://54.235.29.9/FacialAge/BNav_EC2/DepthDuration/v2_depth_duration_MTurk/v2_DepthDuration_HTML.html#70,70,1386,713,1920,1080,8-20-2022,10-57-47,111,depth_duration_stimuli/002425_2014-06-28_20-27-29_260595134347_rgbf000031-resize_8/002425_2014-06-28_20-27-29_260595134347_rgbf000031-resize_8-target.png,250,3.8960000000000004,0,2808,252,feet,jsons/v1_VE250_randls_73.json,675466,841389,25,Woman
111,386006,DepthScenes,duration_manipulation_targetAtFixation,jsons/v1_VE250_randls_73.json,http://54.235.29.9/FacialAge/BNav_EC2/DepthDuration/v2_depth_duration_MTurk/v2_DepthDuration_HTML.html#70,70,1386,713,1920,1080,8-20-2022,10-57-47,112,depth_duration_stimuli/003534_2014-05-22_15-06-10_094959634447_rgbf000102-resize_4/003534_2014-05-22_15-06-10_094959634447_rgbf000102-resize_4-target.png,250,1.426,6,2557,250,feet,jsons/v1_VE250_randls_73.json,675466,841389,25,Woman
112,386006,DepthScenes,duration_manipulation_targetAtFixation,jsons/v1_VE250_randls_73.json,http://54.235.29.9/FacialAge/BNav_EC2/DepthDuration/v2_depth_duration_MTurk/v2_DepthDuration_HTML.html#70,70,1386,713,1920,1080,8-20-2022,10-57-47,113,depth_duration_stimuli/002637_2014-06-24_14-51-13_094959634447_rgbf000066-resize_4/002637_2014-06-24_14-51-13_094959634447_rgbf000066-resize_4-target.png,250,1.9955,8,4724,253,feet,jsons/v1_VE250_randls_73.json,675466,841389,25,Woman
113,386006,DepthScenes,duration_manipulation_targetAtFixation,jsons/v1_VE250_randls_73.json,http://54.235.29.9/FacialAge/BNav_EC2/DepthDuration/v2_depth_duration_MTurk/v2_DepthDuration_HTML.html#70,70,1386,713,1920,1080,8-20-2022,10-57-47,114,depth_duration_stimuli/002272_2014-06-28_18-53-56_260595134347_rgbf000067-resize_2/002272_2014-06-28_18-53-56_260595134347_rgbf000067-resize_2-target.png,250,1.138,2,2933,236,feet,jsons/v1_VE250_randls_73.json,675466,841389,25,Woman
114,386006,DepthScenes,duration_manipulation_targetAtFixation,jsons/v1_VE250_randls_73.json,http://54.235.29.9/FacialAge/BNav_EC2/DepthDuration/v2_depth_duration_MTurk/v2_DepthDuration_HTML.html#70,70,1386,713,1920,1080,8-20-2022,10-57-47,115,depth_duration_stimuli/001571_2014-06-20_17-21-32_260595134347_rgbf000089-resize_1/001571_2014-06-20_17-21-32_260595134347_rgbf000089-resize_1-target.png,250,1.86,6,2720,256,feet,jsons/v1_VE250_randls_73.json,675466,841389,25,Woman
115,386006,DepthScenes,duration_manipulation_targetAtFixation,jsons/v1_VE250_randls_73.json,http://54.235.29.9/FacialAge/BNav_EC2/DepthDuration/v2_depth_duration_MTurk/v2_DepthDuration_HTML.html#70,70,1386,713,1920,1080,8-20-2022,10-57-47,116,depth_duration_stimuli/001170_2014-06-17_15-43-44_260595134347_rgbf000096-resize_6/001170_2014-06-17_15-43-44_260595134347_rgbf000096-resize-original.jpg,250,1.1909999999999998,0,2893,255,feet,jsons/v1_VE250_randls_73.json,675466,841389,25,Woman
116,386006,DepthScenes,duration_manipulation_targetAtFixation,jsons/v1_VE250_randls_73.json,http://54.235.29.9/FacialAge/BNav_EC2/DepthDuration/v2_depth_duration_MTurk/v2_DepthDuration_HTML.html#70,70,1386,713,1920,1080,8-20-2022,10-57-47,117,depth_duration_stimuli/002989_2014-06-15_12-25-03_094959634447_rgbf000150-resize_3/002989_2014-06-15_12-25-03_094959634447_rgbf000150-resize_3-target.png,250,4.1975,10,2776,254,feet,jsons/v1_VE250_randls_73.json,675466,841389,25,Woman
117,386006,DepthScenes,duration_manipulation_targetAtFixation,jsons/v1_VE250_randls_73.json,http://54.235.29.9/FacialAge/BNav_EC2/DepthDuration/v2_depth_duration_MTurk/v2_DepthDuration_HTML.html#70,70,1386,713,1920,1080,8-20-2022,10-57-47,118,depth_duration_stimuli/000866_2014-06-09_20-45-42_260595134347_rgbf000139-resize_1/000866_2014-06-09_20-45-42_260595134347_rgbf000139-resize_1-target.png,250,3.2155,0,2264,253,feet,jsons/v1_VE250_randls_73.json,675466,841389,25,Woman
118,386006,DepthScenes,duration_manipulation_targetAtFixation,jsons/v1_VE250_randls_73.json,http://54.235.29.9/FacialAge/BNav_EC2/DepthDuration/v2_depth_duration_MTurk/v2_DepthDuration_HTML.html#70,70,1386,713,1920,1080,8-20-2022,10-57-47,119,depth_duration_stimuli/001810_2014-06-26_20-51-35_260595134347_rgbf000040-resize_3/001810_2014-06-26_20-51-35_260595134347_rgbf000040-resize_3-target.png,250,2.2525,3,2298,250,feet,jsons/v1_VE250_randls_73.json,675466,841389,25,Woman
119,386006,DepthScenes,duration_manipulation_targetAtFixation,jsons/v1_VE250_randls_73.json,http://54.235.29.9/FacialAge/BNav_EC2/DepthDuration/v2_depth_duration_MTurk/v2_DepthDuration_HTML.html#70,70,1386,713,1920,1080,8-20-2022,10-57-47,120,depth_duration_stimuli/003010_2014-06-15_12-54-35_094959634447_rgbf000112-resize_0/003010_2014-06-15_12-54-35_094959634447_rgbf000112-resize_0-target.png,250,3.1185,10,7029,251,feet,jsons/v1_VE250_randls_73.json,675466,841389,25,Woman
120,386006,DepthScenes,duration_manipulation_targetAtFixation,jsons/v1_VE250_randls_73.json,http://54.235.29.9/FacialAge/BNav_EC2/DepthDuration/v2_depth_duration_MTurk/v2_DepthDuration_HTML.html#70,70,1386,713,1920,1080,8-20-2022,10-57-47,121,depth_duration_stimuli/000739_2014-06-08_18-45-58_260595134347_rgbf000068-resize_1/000739_2014-06-08_18-45-58_260595134347_rgbf000068-resize_1-target.png,250,3.534,8,3609,249,feet,jsons/v1_VE250_randls_73.json,675466,841389,25,Woman
121,386006,DepthScenes,duration_manipulation_targetAtFixation,jsons/v1_VE250_randls_73.json,http://54.235.29.9/FacialAge/BNav_EC2/DepthDuration/v2_depth_duration_MTurk/v2_DepthDuration_HTML.html#70,70,1386,713,1920,1080,8-20-2022,10-57-47,122,depth_duration_stimuli/000734_2014-06-08_17-39-11_260595134347_rgbf000128-resize_2/000734_2014-06-08_17-39-11_260595134347_rgbf000128-resize_2-target.png,250,4.098,6,3204,237,feet,jsons/v1_VE250_randls_73.json,675466,841389,25,Woman
122,386006,DepthScenes,duration_manipulation_targetAtFixation,jsons/v1_VE250_randls_73.json,http://54.235.29.9/FacialAge/BNav_EC2/DepthDuration/v2_depth_duration_MTurk/v2_DepthDuration_HTML.html#70,70,1386,713,1920,1080,8-20-2022,10-57-47,123,depth_duration_stimuli/000470_2014-06-09_19-42-40_260595134347_rgbf000094-resize_1/000470_2014-06-09_19-42-40_260595134347_rgbf000094-resize_1-target.png,250,1.831,3,3828,254,feet,jsons/v1_VE250_randls_73.json,675466,841389,25,Woman
123,386006,DepthScenes,duration_manipulation_targetAtFixation,jsons/v1_VE250_randls_73.json,http://54.235.29.9/FacialAge/BNav_EC2/DepthDuration/v2_depth_duration_MTurk/v2_DepthDuration_HTML.html#70,70,1386,713,1920,1080,8-20-2022,10-57-47,124,depth_duration_stimuli/000109_2014-05-14_23-41-52_260595134347_rgbf000035-resize_9/000109_2014-05-14_23-41-52_260595134347_rgbf000035-resize_9-target.png,250,1.3545,2,2507,253,feet,jsons/v1_VE250_randls_73.json,675466,841389,25,Woman
124,386006,DepthScenes,duration_manipulation_targetAtFixation,jsons/v1_VE250_randls_73.json,http://54.235.29.9/FacialAge/BNav_EC2/DepthDuration/v2_depth_duration_MTurk/v2_DepthDuration_HTML.html#70,70,1386,713,1920,1080,8-20-2022,10-57-47,125,depth_duration_stimuli/002905_2014-06-03_18-04-43_094959634447_rgbf000151-resize_2/002905_2014-06-03_18-04-43_094959634447_rgbf000151-resize_2-target.png,250,2.0295,1,3033,256,feet,jsons/v1_VE250_randls_73.json,675466,841389,25,Woman
125,386006,DepthScenes,duration_manipulation_targetAtFixation,jsons/v1_VE250_randls_73.json,http://54.235.29.9/FacialAge/BNav_EC2/DepthDuration/v2_depth_duration_MTurk/v2_DepthDuration_HTML.html#70,70,1386,713,1920,1080,8-20-2022,10-57-47,126,depth_duration_stimuli/003423_2014-05-21_10-23-26_094959634447_rgbf002665-resize_2/003423_2014-05-21_10-23-26_094959634447_rgbf002665-resize_2-target.png,250,3.2575,10,3411,255,feet,jsons/v1_VE250_randls_73.json,675466,841389,25,Woman
126,386006,DepthScenes,duration_manipulation_targetAtFixation,jsons/v1_VE250_randls_73.json,http://54.235.29.9/FacialAge/BNav_EC2/DepthDuration/v2_depth_duration_MTurk/v2_DepthDuration_HTML.html#70,70,1386,713,1920,1080,8-20-2022,10-57-47,127,depth_duration_stimuli/001570_2014-06-20_17-21-09_260595134347_rgbf000135-resize_4/001570_2014-06-20_17-21-09_260595134347_rgbf000135-resize_4-target.png,250,4.467,8,3768,249,feet,jsons/v1_VE250_randls_73.json,675466,841389,25,Woman
127,386006,DepthScenes,duration_manipulation_targetAtFixation,jsons/v1_VE250_randls_73.json,http://54.235.29.9/FacialAge/BNav_EC2/DepthDuration/v2_depth_duration_MTurk/v2_DepthDuration_HTML.html#70,70,1386,713,1920,1080,8-20-2022,10-57-47,128,depth_duration_stimuli/001392_2014-06-19_16-07-59_260595134347_rgbf000046-resize_1/001392_2014-06-19_16-07-59_260595134347_rgbf000046-resize_1-target.png,250,4.135,5,3873,238,feet,jsons/v1_VE250_randls_73.json,675466,841389,25,Woman
128,386006,DepthScenes,duration_manipulation_targetAtFixation,jsons/v1_VE250_randls_73.json,http://54.235.29.9/FacialAge/BNav_EC2/DepthDuration/v2_depth_duration_MTurk/v2_DepthDuration_HTML.html#70,70,1386,713,1920,1080,8-20-2022,10-57-47,129,depth_duration_stimuli/002509_2014-06-24_13-19-22_094959634447_rgbf000077-resize_0/002509_2014-06-24_13-19-22_094959634447_rgbf000077-resize_0-target.png,250,1.3065,2,2718,253,feet,jsons/v1_VE250_randls_73.json,675466,841389,25,Woman
129,386006,DepthScenes,duration_manipulation_targetAtFixation,jsons/v1_VE250_randls_73.json,http://54.235.29.9/FacialAge/BNav_EC2/DepthDuration/v2_depth_duration_MTurk/v2_DepthDuration_HTML.html#70,70,1386,713,1920,1080,8-20-2022,10-57-47,130,depth_duration_stimuli/003338_2014-05-20_11-01-23_094959634447_rgbf000051-resize_6/003338_2014-05-20_11-01-23_094959634447_rgbf000051-resize_6-target.png,250,1.693,0,6974,256,feet,jsons/v1_VE250_randls_73.json,675466,841389,25,Woman
130,386006,DepthScenes,duration_manipulation_targetAtFixation,jsons/v1_VE250_randls_73.json,http://54.235.29.9/FacialAge/BNav_EC2/DepthDuration/v2_depth_duration_MTurk/v2_DepthDuration_HTML.html#70,70,1386,713,1920,1080,8-20-2022,10-57-47,131,depth_duration_stimuli/000506_2014-06-08_23-21-00_260595134347_rgbf000070-resize_7/000506_2014-06-08_23-21-00_260595134347_rgbf000070-resize_7-target.png,250,4.0585,8,3076,251,feet,jsons/v1_VE250_randls_73.json,675466,841389,25,Woman
131,386006,DepthScenes,duration_manipulation_targetAtFixation,jsons/v1_VE250_randls_73.json,http://54.235.29.9/FacialAge/BNav_EC2/DepthDuration/v2_depth_duration_MTurk/v2_DepthDuration_HTML.html#70,70,1386,713,1920,1080,8-20-2022,10-57-47,132,depth_duration_stimuli/003079_2014-06-15_15-18-20_094959634447_rgbf000152-resize_8/003079_2014-06-15_15-18-20_094959634447_rgbf000152-resize_8-target.png,250,2.8775,5,2550,251,feet,jsons/v1_VE250_randls_73.json,675466,841389,25,Woman
132,386006,DepthScenes,duration_manipulation_targetAtFixation,jsons/v1_VE250_randls_73.json,http://54.235.29.9/FacialAge/BNav_EC2/DepthDuration/v2_depth_duration_MTurk/v2_DepthDuration_HTML.html#70,70,1386,713,1920,1080,8-20-2022,10-57-47,133,depth_duration_stimuli/001164_2014-06-17_15-35-46_260595134347_rgbf000085-resize_3/001164_2014-06-17_15-35-46_260595134347_rgbf000085-resize_3-target.png,250,2.354,4,2866,251,feet,jsons/v1_VE250_randls_73.json,675466,841389,25,Woman
133,386006,DepthScenes,duration_manipulation_targetAtFixation,jsons/v1_VE250_randls_73.json,http://54.235.29.9/FacialAge/BNav_EC2/DepthDuration/v2_depth_duration_MTurk/v2_DepthDuration_HTML.html#70,70,1386,713,1920,1080,8-20-2022,10-57-47,134,depth_duration_stimuli/001136_2014-06-17_15-19-41_260595134347_rgbf000076-resize_3/001136_2014-06-17_15-19-41_260595134347_rgbf000076-resize_3-target.png,250,1.8655,4,2980,250,feet,jsons/v1_VE250_randls_73.json,675466,841389,25,Woman
134,386006,DepthScenes,duration_manipulation_targetAtFixation,jsons/v1_VE250_randls_73.json,http://54.235.29.9/FacialAge/BNav_EC2/DepthDuration/v2_depth_duration_MTurk/v2_DepthDuration_HTML.html#70,70,1386,713,1920,1080,8-20-2022,10-57-47,135,depth_duration_stimuli/002072_2014-06-24_21-48-06_260595134347_rgbf000115-resize_0/002072_2014-06-24_21-48-06_260595134347_rgbf000115-resize-original.jpg,250,4.702,0,3152,250,feet,jsons/v1_VE250_randls_73.json,675466,841389,25,Woman
135,386006,DepthScenes,duration_manipulation_targetAtFixation,jsons/v1_VE250_randls_73.json,http://54.235.29.9/FacialAge/BNav_EC2/DepthDuration/v2_depth_duration_MTurk/v2_DepthDuration_HTML.html#70,70,1386,713,1920,1080,8-20-2022,10-57-47,136,depth_duration_stimuli/000788_2014-06-08_22-34-36_260595134347_rgbf000131-resize_1/000788_2014-06-08_22-34-36_260595134347_rgbf000131-resize_1-target.png,250,3.359,5,3481,255,feet,jsons/v1_VE250_randls_73.json,675466,841389,25,Woman
136,386006,DepthScenes,duration_manipulation_targetAtFixation,jsons/v1_VE250_randls_73.json,http://54.235.29.9/FacialAge/BNav_EC2/DepthDuration/v2_depth_duration_MTurk/v2_DepthDuration_HTML.html#70,70,1386,713,1920,1080,8-20-2022,10-57-47,137,depth_duration_stimuli/001235_2014-06-17_16-37-36_260595134347_rgbf000084-resize_4/001235_2014-06-17_16-37-36_260595134347_rgbf000084-resize_4-target.png,250,3.6605,4,3105,252,feet,jsons/v1_VE250_randls_73.json,675466,841389,25,Woman
137,386006,DepthScenes,duration_manipulation_targetAtFixation,jsons/v1_VE250_randls_73.json,http://54.235.29.9/FacialAge/BNav_EC2/DepthDuration/v2_depth_duration_MTurk/v2_DepthDuration_HTML.html#70,70,1386,713,1920,1080,8-20-2022,10-57-47,138,depth_duration_stimuli/000522_2014-06-08_13-35-06_260595134347_rgbf000244-resize_1/000522_2014-06-08_13-35-06_260595134347_rgbf000244-resize_1-target.png,250,2.3715,2,3045,253,feet,jsons/v1_VE250_randls_73.json,675466,841389,25,Woman
138,386006,DepthScenes,duration_manipulation_targetAtFixation,jsons/v1_VE250_randls_73.json,http://54.235.29.9/FacialAge/BNav_EC2/DepthDuration/v2_depth_duration_MTurk/v2_DepthDuration_HTML.html#70,70,1386,713,1920,1080,8-20-2022,10-57-47,139,depth_duration_stimuli/002949_2014-06-26_15-57-42_094959634447_rgbf000079-resize_1/002949_2014-06-26_15-57-42_094959634447_rgbf000079-resize_1-target.png,250,1.8915,5,3021,253,feet,jsons/v1_VE250_randls_73.json,675466,841389,25,Woman
139,386006,DepthScenes,duration_manipulation_targetAtFixation,jsons/v1_VE250_randls_73.json,http://54.235.29.9/FacialAge/BNav_EC2/DepthDuration/v2_depth_duration_MTurk/v2_DepthDuration_HTML.html#70,70,1386,713,1920,1080,8-20-2022,10-57-47,140,depth_duration_stimuli/001092_2014-06-15_17-34-58_260595134347_rgbf000171-resize_3/001092_2014-06-15_17-34-58_260595134347_rgbf000171-resize_3-target.png,250,2.6935,8,2596,254,feet,jsons/v1_VE250_randls_73.json,675466,841389,25,Woman
140,386006,DepthScenes,duration_manipulation_targetAtFixation,jsons/v1_VE250_randls_73.json,http://54.235.29.9/FacialAge/BNav_EC2/DepthDuration/v2_depth_duration_MTurk/v2_DepthDuration_HTML.html#70,70,1386,713,1920,1080,8-20-2022,10-57-47,141,depth_duration_stimuli/002545_2014-06-24_13-38-53_094959634447_rgbf000080-resize_4/002545_2014-06-24_13-38-53_094959634447_rgbf000080-resize_4-target.png,250,1.9205,3,2738,253,feet,jsons/v1_VE250_randls_73.json,675466,841389,25,Woman
141,386006,DepthScenes,duration_manipulation_targetAtFixation,jsons/v1_VE250_randls_73.json,http://54.235.29.9/FacialAge/BNav_EC2/DepthDuration/v2_depth_duration_MTurk/v2_DepthDuration_HTML.html#70,70,1386,713,1920,1080,8-20-2022,10-57-47,142,depth_duration_stimuli/001167_2014-06-17_15-38-07_260595134347_rgbf000108-resize_0/001167_2014-06-17_15-38-07_260595134347_rgbf000108-resize_0-target.png,250,1.8505,2,2009,234,feet,jsons/v1_VE250_randls_73.json,675466,841389,25,Woman
142,386006,DepthScenes,duration_manipulation_targetAtFixation,jsons/v1_VE250_randls_73.json,http://54.235.29.9/FacialAge/BNav_EC2/DepthDuration/v2_depth_duration_MTurk/v2_DepthDuration_HTML.html#70,70,1386,713,1920,1080,8-20-2022,10-57-47,143,depth_duration_stimuli/003587_2014-05-23_16-48-02_094959634447_rgbf002384-resize_2/003587_2014-05-23_16-48-02_094959634447_rgbf002384-resize_2-target.png,250,1.357,2,1976,252,feet,jsons/v1_VE250_randls_73.json,675466,841389,25,Woman
143,386006,DepthScenes,duration_manipulation_targetAtFixation,jsons/v1_VE250_randls_73.json,http://54.235.29.9/FacialAge/BNav_EC2/DepthDuration/v2_depth_duration_MTurk/v2_DepthDuration_HTML.html#70,70,1386,713,1920,1080,8-20-2022,10-57-47,144,depth_duration_stimuli/001417_2014-06-19_16-25-36_260595134347_rgbf000115-resize_5/001417_2014-06-19_16-25-36_260595134347_rgbf000115-resize_5-target.png,250,4.6255,8,2175,252,feet,jsons/v1_VE250_randls_73.json,675466,841389,25,Woman
144,386006,DepthScenes,duration_manipulation_targetAtFixation,jsons/v1_VE250_randls_73.json,http://54.235.29.9/FacialAge/BNav_EC2/DepthDuration/v2_depth_duration_MTurk/v2_DepthDuration_HTML.html#70,70,1386,713,1920,1080,8-20-2022,10-57-47,145,depth_duration_stimuli/003081_2014-06-15_15-19-16_094959634447_rgbf000150-resize_1/003081_2014-06-15_15-19-16_094959634447_rgbf000150-resize_1-target.png,250,3.9125,4,2131,255,feet,jsons/v1_VE250_randls_73.json,675466,841389,25,Woman
145,386006,DepthScenes,duration_manipulation_targetAtFixation,jsons/v1_VE250_randls_73.json,http://54.235.29.9/FacialAge/BNav_EC2/DepthDuration/v2_depth_duration_MTurk/v2_DepthDuration_HTML.html#70,70,1386,713,1920,1080,8-20-2022,10-57-47,146,depth_duration_stimuli/001498_2014-06-19_17-45-14_260595134347_rgbf000129-resize_4/001498_2014-06-19_17-45-14_260595134347_rgbf000129-resize-original.jpg,250,1.4075,0,2841,254,feet,jsons/v1_VE250_randls_73.json,675466,841389,25,Woman
146,386006,DepthScenes,duration_manipulation_targetAtFixation,jsons/v1_VE250_randls_73.json,http://54.235.29.9/FacialAge/BNav_EC2/DepthDuration/v2_depth_duration_MTurk/v2_DepthDuration_HTML.html#70,70,1386,713,1920,1080,8-20-2022,10-57-47,147,depth_duration_stimuli/001056_2014-06-08_18-46-44_260595134347_rgbf000068-resize_0/001056_2014-06-08_18-46-44_260595134347_rgbf000068-resize_0-target.png,250,2.6625,6,2632,237,feet,jsons/v1_VE250_randls_73.json,675466,841389,25,Woman
147,386006,DepthScenes,duration_manipulation_targetAtFixation,jsons/v1_VE250_randls_73.json,http://54.235.29.9/FacialAge/BNav_EC2/DepthDuration/v2_depth_duration_MTurk/v2_DepthDuration_HTML.html#70,70,1386,713,1920,1080,8-20-2022,10-57-47,148,depth_duration_stimuli/002199_2014-06-28_18-33-56_260595134347_rgbf000074-resize_0/002199_2014-06-28_18-33-56_260595134347_rgbf000074-resize_0-target.png,250,1.996,3,2251,253,feet,jsons/v1_VE250_randls_73.json,675466,841389,25,Woman
148,386006,DepthScenes,duration_manipulation_targetAtFixation,jsons/v1_VE250_randls_73.json,http://54.235.29.9/FacialAge/BNav_EC2/DepthDuration/v2_depth_duration_MTurk/v2_DepthDuration_HTML.html#70,70,1386,713,1920,1080,8-20-2022,10-57-47,149,depth_duration_stimuli/001175_2014-06-17_15-45-55_260595134347_rgbf000129-resize_4/001175_2014-06-17_15-45-55_260595134347_rgbf000129-resize_4-target.png,250,4.255,10,2945,253,feet,jsons/v1_VE250_randls_73.json,675466,841389,25,Woman
149,386006,DepthScenes,duration_manipulation_targetAtFixation,jsons/v1_VE250_randls_73.json,http://54.235.29.9/FacialAge/BNav_EC2/DepthDuration/v2_depth_duration_MTurk/v2_DepthDuration_HTML.html#70,70,1386,713,1920,1080,8-20-2022,10-57-47,150,depth_duration_stimuli/003490_2014-05-21_15-50-11_094959634447_rgbf000101-resize_3/003490_2014-05-21_15-50-11_094959634447_rgbf000101-resize_3-target.png,250,3.6445,6,2471,251,feet,jsons/v1_VE250_randls_73.json,675466,841389,25,Woman
150,386006,DepthScenes,duration_manipulation_targetAtFixation,jsons/v1_VE250_randls_73.json,http://54.235.29.9/FacialAge/BNav_EC2/DepthDuration/v2_depth_duration_MTurk/v2_DepthDuration_HTML.html#70,70,1386,713,1920,1080,8-20-2022,10-57-47,151,depth_duration_stimuli/002375_2014-06-28_20-13-44_260595134347_rgbf000032-resize_1/002375_2014-06-28_20-13-44_260595134347_rgbf000032-resize_1-target.png,250,4.0175,8,2848,254,feet,jsons/v1_VE250_randls_73.json,675466,841389,25,Woman
151,386006,DepthScenes,duration_manipulation_targetAtFixation,jsons/v1_VE250_randls_73.json,http://54.235.29.9/FacialAge/BNav_EC2/DepthDuration/v2_depth_duration_MTurk/v2_DepthDuration_HTML.html#70,70,1386,713,1920,1080,8-20-2022,10-57-47,152,depth_duration_stimuli/002657_2014-06-13_15-29-54_094959634447_rgbf000150-resize_1/002657_2014-06-13_15-29-54_094959634447_rgbf000150-resize_1-target.png,250,4.919,3,1954,251,feet,jsons/v1_VE250_randls_73.json,675466,841389,25,Woman
152,386006,DepthScenes,duration_manipulation_targetAtFixation,jsons/v1_VE250_randls_73.json,http://54.235.29.9/FacialAge/BNav_EC2/DepthDuration/v2_depth_duration_MTurk/v2_DepthDuration_HTML.html#70,70,1386,713,1920,1080,8-20-2022,10-57-47,153,depth_duration_stimuli/002118_2014-06-25_20-32-08_260595134347_rgbf000078-resize_1/002118_2014-06-25_20-32-08_260595134347_rgbf000078-resize_1-target.png,250,2.6460000000000004,5,3610,252,feet,jsons/v1_VE250_randls_73.json,675466,841389,25,Woman
153,386006,DepthScenes,duration_manipulation_targetAtFixation,jsons/v1_VE250_randls_73.json,http://54.235.29.9/FacialAge/BNav_EC2/DepthDuration/v2_depth_duration_MTurk/v2_DepthDuration_HTML.html#70,70,1386,713,1920,1080,8-20-2022,10-57-47,154,depth_duration_stimuli/001516_2014-06-20_16-25-09_260595134347_rgbf000076-resize_2/001516_2014-06-20_16-25-09_260595134347_rgbf000076-resize_2-target.png,250,1.7445,7,2856,255,feet,jsons/v1_VE250_randls_73.json,675466,841389,25,Woman
154,386006,DepthScenes,duration_manipulation_targetAtFixation,jsons/v1_VE250_randls_73.json,http://54.235.29.9/FacialAge/BNav_EC2/DepthDuration/v2_depth_duration_MTurk/v2_DepthDuration_HTML.html#70,70,1386,713,1920,1080,8-20-2022,10-57-47,155,depth_duration_stimuli/000929_2014-06-09_16-33-19_260595134347_rgbf000139-resize_0/000929_2014-06-09_16-33-19_260595134347_rgbf000139-resize_0-target.png,250,2.8680000000000003,5,2475,238,feet,jsons/v1_VE250_randls_73.json,675466,841389,25,Woman
155,386006,DepthScenes,duration_manipulation_targetAtFixation,jsons/v1_VE250_randls_73.json,http://54.235.29.9/FacialAge/BNav_EC2/DepthDuration/v2_depth_duration_MTurk/v2_DepthDuration_HTML.html#70,70,1386,713,1920,1080,8-20-2022,10-57-47,156,depth_duration_stimuli/000457_2014-06-08_16-52-43_260595134347_rgbf000199-resize_1/000457_2014-06-08_16-52-43_260595134347_rgbf000199-resize_1-target.png,250,3.6489999999999996,4,3882,253,feet,jsons/v1_VE250_randls_73.json,675466,841389,25,Woman
156,386006,DepthScenes,duration_manipulation_targetAtFixation,jsons/v1_VE250_randls_73.json,http://54.235.29.9/FacialAge/BNav_EC2/DepthDuration/v2_depth_duration_MTurk/v2_DepthDuration_HTML.html#70,70,1386,713,1920,1080,8-20-2022,10-57-47,157,depth_duration_stimuli/001133_2014-06-17_14-49-16_260595134347_rgbf000100-resize_0/001133_2014-06-17_14-49-16_260595134347_rgbf000100-resize_0-target.png,250,4.2115,8,2443,254,feet,jsons/v1_VE250_randls_73.json,675466,841389,25,Woman
157,386006,DepthScenes,duration_manipulation_targetAtFixation,jsons/v1_VE250_randls_73.json,http://54.235.29.9/FacialAge/BNav_EC2/DepthDuration/v2_depth_duration_MTurk/v2_DepthDuration_HTML.html#70,70,1386,713,1920,1080,8-20-2022,10-57-47,158,depth_duration_stimuli/001132_2014-06-17_14-48-54_260595134347_rgbf000100-resize_2/001132_2014-06-17_14-48-54_260595134347_rgbf000100-resize_2-target.png,250,3.753,3,3578,254,feet,jsons/v1_VE250_randls_73.json,675466,841389,25,Woman
158,386006,DepthScenes,duration_manipulation_targetAtFixation,jsons/v1_VE250_randls_73.json,http://54.235.29.9/FacialAge/BNav_EC2/DepthDuration/v2_depth_duration_MTurk/v2_DepthDuration_HTML.html#70,70,1386,713,1920,1080,8-20-2022,10-57-47,159,depth_duration_stimuli/003492_2014-05-21_15-50-55_094959634447_rgbf000828-resize_1/003492_2014-05-21_15-50-55_094959634447_rgbf000828-resize_1-target.png,250,4.06875,10,2721,253,feet,jsons/v1_VE250_randls_73.json,675466,841389,25,Woman
159,386006,DepthScenes,duration_manipulation_targetAtFixation,jsons/v1_VE250_randls_73.json,http://54.235.29.9/FacialAge/BNav_EC2/DepthDuration/v2_depth_duration_MTurk/v2_DepthDuration_HTML.html#70,70,1386,713,1920,1080,8-20-2022,10-57-47,160,depth_duration_stimuli/002568_2014-06-24_13-59-21_094959634447_rgbf000062-resize_4/002568_2014-06-24_13-59-21_094959634447_rgbf000062-resize_4-target.png,250,3.015,6,2320,249,feet,jsons/v1_VE250_randls_73.json,675466,841389,25,Woman
160,386006,DepthScenes,duration_manipulation_targetAtFixation,jsons/v1_VE250_randls_73.json,http://54.235.29.9/FacialAge/BNav_EC2/DepthDuration/v2_depth_duration_MTurk/v2_DepthDuration_HTML.html#70,70,1386,713,1920,1080,8-20-2022,10-57-47,161,depth_duration_stimuli/002630_2014-06-24_14-47-50_094959634447_rgbf000055-resize_1/002630_2014-06-24_14-47-50_094959634447_rgbf000055-resize_1-target.png,250,3.0095,7,2499,253,feet,jsons/v1_VE250_randls_73.json,675466,841389,25,Woman
161,386006,DepthScenes,duration_manipulation_targetAtFixation,jsons/v1_VE250_randls_73.json,http://54.235.29.9/FacialAge/BNav_EC2/DepthDuration/v2_depth_duration_MTurk/v2_DepthDuration_HTML.html#70,70,1386,713,1920,1080,8-20-2022,10-57-47,162,depth_duration_stimuli/002758_2014-06-22_19-11-20_094959634447_rgbf000128-resize_1/002758_2014-06-22_19-11-20_094959634447_rgbf000128-resize_1-target.png,250,2.555,5,2272,255,feet,jsons/v1_VE250_randls_73.json,675466,841389,25,Woman
162,386006,DepthScenes,duration_manipulation_targetAtFixation,jsons/v1_VE250_randls_73.json,http://54.235.29.9/FacialAge/BNav_EC2/DepthDuration/v2_depth_duration_MTurk/v2_DepthDuration_HTML.html#70,70,1386,713,1920,1080,8-20-2022,10-57-47,163,depth_duration_stimuli/002788_2014-06-22_19-36-03_094959634447_rgbf000088-resize_2/002788_2014-06-22_19-36-03_094959634447_rgbf000088-resize_2-target.png,250,1.6465,8,2300,253,feet,jsons/v1_VE250_randls_73.json,675466,841389,25,Woman
163,386006,DepthScenes,duration_manipulation_targetAtFixation,jsons/v1_VE250_randls_73.json,http://54.235.29.9/FacialAge/BNav_EC2/DepthDuration/v2_depth_duration_MTurk/v2_DepthDuration_HTML.html#70,70,1386,713,1920,1080,8-20-2022,10-57-47,164,depth_duration_stimuli/000749_2014-06-08_21-55-06_260595134347_rgbf000070-resize_2/000749_2014-06-08_21-55-06_260595134347_rgbf000070-resize_2-target.png,250,2.331,5,3024,251,feet,jsons/v1_VE250_randls_73.json,675466,841389,25,Woman
