,subjID,experimentName,versionName,sequenceName,url,selected_row,windowWidth,windowHeight,screenWidth,screenHeight,startDate,startTime,trial,stimulus,duration,actual_depth,depth_estimate,trial_RT,log_sceneDuration,unitSelection,seq_filepath,experimentTime,totalTime,age,gender
0,386796,DepthScenes,duration_manipulation_targetAtFixation,jsons/v1_VE1000_randls_6.json,http://54.235.29.9/FacialAge/BNav_EC2/DepthDuration/v2_depth_duration_MTurk/v2_DepthDuration_HTML.html#160,160,1707,781,1366,768,9-3-2022,9-12-3,1,depth_duration_stimuli/002663_2014-06-13_15-50-26_094959634447_rgbf000075-resize_1/002663_2014-06-13_15-50-26_094959634447_rgbf000075-resize_1-target.png,1000,4.7495,10,4899,1002,meters,jsons/v1_VE1000_randls_6.json,986226,1263188,25,Man
1,386796,DepthScenes,duration_manipulation_targetAtFixation,jsons/v1_VE1000_randls_6.json,http://54.235.29.9/FacialAge/BNav_EC2/DepthDuration/v2_depth_duration_MTurk/v2_DepthDuration_HTML.html#160,160,1707,781,1366,768,9-3-2022,9-12-3,2,depth_duration_stimuli/000409_2014-06-04_19-23-33_260595134347_rgbf000067-resize_0/000409_2014-06-04_19-23-33_260595134347_rgbf000067-resize_0-target.png,1000,3.7335,15,4108,998,meters,jsons/v1_VE1000_randls_6.json,986226,1263188,25,Man
2,386796,DepthScenes,duration_manipulation_targetAtFixation,jsons/v1_VE1000_randls_6.json,http://54.235.29.9/FacialAge/BNav_EC2/DepthDuration/v2_depth_duration_MTurk/v2_DepthDuration_HTML.html#160,160,1707,781,1366,768,9-3-2022,9-12-3,3,depth_duration_stimuli/002905_2014-06-03_18-04-43_094959634447_rgbf000151-resize_2/002905_2014-06-03_18-04-43_094959634447_rgbf000151-resize_2-target.png,1000,2.0295,5,4824,1000,meters,jsons/v1_VE1000_randls_6.json,986226,1263188,25,Man
3,386796,DepthScenes,duration_manipulation_targetAtFixation,jsons/v1_VE1000_randls_6.json,http://54.235.29.9/FacialAge/BNav_EC2/DepthDuration/v2_depth_duration_MTurk/v2_DepthDuration_HTML.html#160,160,1707,781,1366,768,9-3-2022,9-12-3,4,depth_duration_stimuli/003423_2014-05-21_10-23-26_094959634447_rgbf002665-resize_2/003423_2014-05-21_10-23-26_094959634447_rgbf002665-resize_2-target.png,1000,3.2575,15,4066,999,meters,jsons/v1_VE1000_randls_6.json,986226,1263188,25,Man
4,386796,DepthScenes,duration_manipulation_targetAtFixation,jsons/v1_VE1000_randls_6.json,http://54.235.29.9/FacialAge/BNav_EC2/DepthDuration/v2_depth_duration_MTurk/v2_DepthDuration_HTML.html#160,160,1707,781,1366,768,9-3-2022,9-12-3,5,depth_duration_stimuli/000642_2014-06-08_16-59-25_260595134347_rgbf000098-resize_2/000642_2014-06-08_16-59-25_260595134347_rgbf000098-resize_2-target.png,1000,2.8815,20,4099,999,meters,jsons/v1_VE1000_randls_6.json,986226,1263188,25,Man
5,386796,DepthScenes,duration_manipulation_targetAtFixation,jsons/v1_VE1000_randls_6.json,http://54.235.29.9/FacialAge/BNav_EC2/DepthDuration/v2_depth_duration_MTurk/v2_DepthDuration_HTML.html#160,160,1707,781,1366,768,9-3-2022,9-12-3,6,depth_duration_stimuli/002425_2014-06-28_20-27-29_260595134347_rgbf000031-resize_8/002425_2014-06-28_20-27-29_260595134347_rgbf000031-resize_8-target.png,1000,3.8960000000000004,25,3906,1001,meters,jsons/v1_VE1000_randls_6.json,986226,1263188,25,Man
6,386796,DepthScenes,duration_manipulation_targetAtFixation,jsons/v1_VE1000_randls_6.json,http://54.235.29.9/FacialAge/BNav_EC2/DepthDuration/v2_depth_duration_MTurk/v2_DepthDuration_HTML.html#160,160,1707,781,1366,768,9-3-2022,9-12-3,7,depth_duration_stimuli/001449_2014-06-19_17-01-27_260595134347_rgbf000116-resize_2/001449_2014-06-19_17-01-27_260595134347_rgbf000116-resize_2-target.png,1000,3.452,10,4033,999,meters,jsons/v1_VE1000_randls_6.json,986226,1263188,25,Man
7,386796,DepthScenes,duration_manipulation_targetAtFixation,jsons/v1_VE1000_randls_6.json,http://54.235.29.9/FacialAge/BNav_EC2/DepthDuration/v2_depth_duration_MTurk/v2_DepthDuration_HTML.html#160,160,1707,781,1366,768,9-3-2022,9-12-3,8,depth_duration_stimuli/001450_2014-06-19_17-02-03_260595134347_rgbf000203-resize_4/001450_2014-06-19_17-02-03_260595134347_rgbf000203-resize_4-target.png,1000,4.0106666666667,15,3980,1001,meters,jsons/v1_VE1000_randls_6.json,986226,1263188,25,Man
8,386796,DepthScenes,duration_manipulation_targetAtFixation,jsons/v1_VE1000_randls_6.json,http://54.235.29.9/FacialAge/BNav_EC2/DepthDuration/v2_depth_duration_MTurk/v2_DepthDuration_HTML.html#160,160,1707,781,1366,768,9-3-2022,9-12-3,9,depth_duration_stimuli/002272_2014-06-28_18-53-56_260595134347_rgbf000067-resize_2/002272_2014-06-28_18-53-56_260595134347_rgbf000067-resize_2-target.png,1000,1.138,13,4051,1000,meters,jsons/v1_VE1000_randls_6.json,986226,1263188,25,Man
9,386796,DepthScenes,duration_manipulation_targetAtFixation,jsons/v1_VE1000_randls_6.json,http://54.235.29.9/FacialAge/BNav_EC2/DepthDuration/v2_depth_duration_MTurk/v2_DepthDuration_HTML.html#160,160,1707,781,1366,768,9-3-2022,9-12-3,10,depth_duration_stimuli/001571_2014-06-20_17-21-32_260595134347_rgbf000089-resize_1/001571_2014-06-20_17-21-32_260595134347_rgbf000089-resize_1-target.png,1000,1.86,12,3321,999,meters,jsons/v1_VE1000_randls_6.json,986226,1263188,25,Man
10,386796,DepthScenes,duration_manipulation_targetAtFixation,jsons/v1_VE1000_randls_6.json,http://54.235.29.9/FacialAge/BNav_EC2/DepthDuration/v2_depth_duration_MTurk/v2_DepthDuration_HTML.html#160,160,1707,781,1366,768,9-3-2022,9-12-3,11,depth_duration_stimuli/002630_2014-06-24_14-47-50_094959634447_rgbf000055-resize_1/002630_2014-06-24_14-47-50_094959634447_rgbf000055-resize_1-target.png,1000,3.0095,20,3643,1001,meters,jsons/v1_VE1000_randls_6.json,986226,1263188,25,Man
11,386796,DepthScenes,duration_manipulation_targetAtFixation,jsons/v1_VE1000_randls_6.json,http://54.235.29.9/FacialAge/BNav_EC2/DepthDuration/v2_depth_duration_MTurk/v2_DepthDuration_HTML.html#160,160,1707,781,1366,768,9-3-2022,9-12-3,12,depth_duration_stimuli/002758_2014-06-22_19-11-20_094959634447_rgbf000128-resize_1/002758_2014-06-22_19-11-20_094959634447_rgbf000128-resize_1-target.png,1000,2.555,20,3961,999,meters,jsons/v1_VE1000_randls_6.json,986226,1263188,25,Man
12,386796,DepthScenes,duration_manipulation_targetAtFixation,jsons/v1_VE1000_randls_6.json,http://54.235.29.9/FacialAge/BNav_EC2/DepthDuration/v2_depth_duration_MTurk/v2_DepthDuration_HTML.html#160,160,1707,781,1366,768,9-3-2022,9-12-3,13,depth_duration_stimuli/000569_2014-06-09_22-51-47_260595134347_rgbf000141-resize_3/000569_2014-06-09_22-51-47_260595134347_rgbf000141-resize-original.jpg,1000,4.512,0,3123,1000,meters,jsons/v1_VE1000_randls_6.json,986226,1263188,25,Man
13,386796,DepthScenes,duration_manipulation_targetAtFixation,jsons/v1_VE1000_randls_6.json,http://54.235.29.9/FacialAge/BNav_EC2/DepthDuration/v2_depth_duration_MTurk/v2_DepthDuration_HTML.html#160,160,1707,781,1366,768,9-3-2022,9-12-3,14,depth_duration_stimuli/002784_2014-06-22_19-26-30_094959634447_rgbf000083-resize_3/002784_2014-06-22_19-26-30_094959634447_rgbf000083-resize_3-target.png,1000,1.8046666666667,5,4170,1000,meters,jsons/v1_VE1000_randls_6.json,986226,1263188,25,Man
14,386796,DepthScenes,duration_manipulation_targetAtFixation,jsons/v1_VE1000_randls_6.json,http://54.235.29.9/FacialAge/BNav_EC2/DepthDuration/v2_depth_duration_MTurk/v2_DepthDuration_HTML.html#160,160,1707,781,1366,768,9-3-2022,9-12-3,15,depth_duration_stimuli/001100_2014-06-15_17-46-26_260595134347_rgbf000225-resize_2/001100_2014-06-15_17-46-26_260595134347_rgbf000225-resize_2-target.png,1000,2.24,3,3892,1001,meters,jsons/v1_VE1000_randls_6.json,986226,1263188,25,Man
15,386796,DepthScenes,duration_manipulation_targetAtFixation,jsons/v1_VE1000_randls_6.json,http://54.235.29.9/FacialAge/BNav_EC2/DepthDuration/v2_depth_duration_MTurk/v2_DepthDuration_HTML.html#160,160,1707,781,1366,768,9-3-2022,9-12-3,16,depth_duration_stimuli/002988_2014-06-15_12-24-20_094959634447_rgbf000150-resize_1/002988_2014-06-15_12-24-20_094959634447_rgbf000150-resize_1-target.png,1000,4.7669999999999995,15,3346,999,meters,jsons/v1_VE1000_randls_6.json,986226,1263188,25,Man
16,386796,DepthScenes,duration_manipulation_targetAtFixation,jsons/v1_VE1000_randls_6.json,http://54.235.29.9/FacialAge/BNav_EC2/DepthDuration/v2_depth_duration_MTurk/v2_DepthDuration_HTML.html#160,160,1707,781,1366,768,9-3-2022,9-12-3,17,depth_duration_stimuli/001052_2014-06-08_18-24-54_260595134347_rgbf000130-resize_1/001052_2014-06-08_18-24-54_260595134347_rgbf000130-resize_1-target.png,1000,4.1045,16,3540,1001,meters,jsons/v1_VE1000_randls_6.json,986226,1263188,25,Man
17,386796,DepthScenes,duration_manipulation_targetAtFixation,jsons/v1_VE1000_randls_6.json,http://54.235.29.9/FacialAge/BNav_EC2/DepthDuration/v2_depth_duration_MTurk/v2_DepthDuration_HTML.html#160,160,1707,781,1366,768,9-3-2022,9-12-3,18,depth_duration_stimuli/002748_2014-06-22_19-07-22_094959634447_rgbf000078-resize_1/002748_2014-06-22_19-07-22_094959634447_rgbf000078-resize_1-target.png,1000,4.6705,20,3908,1001,meters,jsons/v1_VE1000_randls_6.json,986226,1263188,25,Man
18,386796,DepthScenes,duration_manipulation_targetAtFixation,jsons/v1_VE1000_randls_6.json,http://54.235.29.9/FacialAge/BNav_EC2/DepthDuration/v2_depth_duration_MTurk/v2_DepthDuration_HTML.html#160,160,1707,781,1366,768,9-3-2022,9-12-3,19,depth_duration_stimuli/002995_2014-06-15_12-31-26_094959634447_rgbf000150-resize_1/002995_2014-06-15_12-31-26_094959634447_rgbf000150-resize_1-target.png,1000,3.8360000000000003,25,3635,1000,meters,jsons/v1_VE1000_randls_6.json,986226,1263188,25,Man
19,386796,DepthScenes,duration_manipulation_targetAtFixation,jsons/v1_VE1000_randls_6.json,http://54.235.29.9/FacialAge/BNav_EC2/DepthDuration/v2_depth_duration_MTurk/v2_DepthDuration_HTML.html#160,160,1707,781,1366,768,9-3-2022,9-12-3,20,depth_duration_stimuli/002213_2014-06-28_18-37-58_260595134347_rgbf000055-resize_1/002213_2014-06-28_18-37-58_260595134347_rgbf000055-resize_1-target.png,1000,3.62,23,3699,999,meters,jsons/v1_VE1000_randls_6.json,986226,1263188,25,Man
20,386796,DepthScenes,duration_manipulation_targetAtFixation,jsons/v1_VE1000_randls_6.json,http://54.235.29.9/FacialAge/BNav_EC2/DepthDuration/v2_depth_duration_MTurk/v2_DepthDuration_HTML.html#160,160,1707,781,1366,768,9-3-2022,9-12-3,21,depth_duration_stimuli/000691_2014-06-08_13-08-50_260595134347_rgbf000132-resize_3/000691_2014-06-08_13-08-50_260595134347_rgbf000132-resize_3-target.png,1000,4.1530000000000005,20,3371,1001,meters,jsons/v1_VE1000_randls_6.json,986226,1263188,25,Man
21,386796,DepthScenes,duration_manipulation_targetAtFixation,jsons/v1_VE1000_randls_6.json,http://54.235.29.9/FacialAge/BNav_EC2/DepthDuration/v2_depth_duration_MTurk/v2_DepthDuration_HTML.html#160,160,1707,781,1366,768,9-3-2022,9-12-3,22,depth_duration_stimuli/003492_2014-05-21_15-50-55_094959634447_rgbf000828-resize_1/003492_2014-05-21_15-50-55_094959634447_rgbf000828-resize_1-target.png,1000,4.06875,22,3458,999,meters,jsons/v1_VE1000_randls_6.json,986226,1263188,25,Man
22,386796,DepthScenes,duration_manipulation_targetAtFixation,jsons/v1_VE1000_randls_6.json,http://54.235.29.9/FacialAge/BNav_EC2/DepthDuration/v2_depth_duration_MTurk/v2_DepthDuration_HTML.html#160,160,1707,781,1366,768,9-3-2022,9-12-3,23,depth_duration_stimuli/002568_2014-06-24_13-59-21_094959634447_rgbf000062-resize_4/002568_2014-06-24_13-59-21_094959634447_rgbf000062-resize_4-target.png,1000,3.015,20,3443,1000,meters,jsons/v1_VE1000_randls_6.json,986226,1263188,25,Man
23,386796,DepthScenes,duration_manipulation_targetAtFixation,jsons/v1_VE1000_randls_6.json,http://54.235.29.9/FacialAge/BNav_EC2/DepthDuration/v2_depth_duration_MTurk/v2_DepthDuration_HTML.html#160,160,1707,781,1366,768,9-3-2022,9-12-3,24,depth_duration_stimuli/001011_2014-06-08_23-18-54_260595134347_rgbf000044-resize_4/001011_2014-06-08_23-18-54_260595134347_rgbf000044-resize_4-target.png,1000,2.4730000000000003,15,3684,1001,meters,jsons/v1_VE1000_randls_6.json,986226,1263188,25,Man
24,386796,DepthScenes,duration_manipulation_targetAtFixation,jsons/v1_VE1000_randls_6.json,http://54.235.29.9/FacialAge/BNav_EC2/DepthDuration/v2_depth_duration_MTurk/v2_DepthDuration_HTML.html#160,160,1707,781,1366,768,9-3-2022,9-12-3,25,depth_duration_stimuli/002875_2014-06-01_15-19-00_094959634447_rgbf000151-resize_1/002875_2014-06-01_15-19-00_094959634447_rgbf000151-resize_1-target.png,1000,1.9675,13,3787,1000,meters,jsons/v1_VE1000_randls_6.json,986226,1263188,25,Man
25,386796,DepthScenes,duration_manipulation_targetAtFixation,jsons/v1_VE1000_randls_6.json,http://54.235.29.9/FacialAge/BNav_EC2/DepthDuration/v2_depth_duration_MTurk/v2_DepthDuration_HTML.html#160,160,1707,781,1366,768,9-3-2022,9-12-3,26,depth_duration_stimuli/002964_2014-06-08_17-46-11_094959634447_rgbf000091-resize_4/002964_2014-06-08_17-46-11_094959634447_rgbf000091-resize_4-target.png,1000,1.6909999999999998,10,4250,999,meters,jsons/v1_VE1000_randls_6.json,986226,1263188,25,Man
26,386796,DepthScenes,duration_manipulation_targetAtFixation,jsons/v1_VE1000_randls_6.json,http://54.235.29.9/FacialAge/BNav_EC2/DepthDuration/v2_depth_duration_MTurk/v2_DepthDuration_HTML.html#160,160,1707,781,1366,768,9-3-2022,9-12-3,27,depth_duration_stimuli/002136_2014-06-25_21-18-03_260595134347_rgbf000109-resize_3/002136_2014-06-25_21-18-03_260595134347_rgbf000109-resize_3-target.png,1000,1.9569999999999999,15,3850,1000,meters,jsons/v1_VE1000_randls_6.json,986226,1263188,25,Man
27,386796,DepthScenes,duration_manipulation_targetAtFixation,jsons/v1_VE1000_randls_6.json,http://54.235.29.9/FacialAge/BNav_EC2/DepthDuration/v2_depth_duration_MTurk/v2_DepthDuration_HTML.html#160,160,1707,781,1366,768,9-3-2022,9-12-3,28,depth_duration_stimuli/001555_2014-06-20_17-12-10_260595134347_rgbf000065-resize_4/001555_2014-06-20_17-12-10_260595134347_rgbf000065-resize_4-target.png,1000,1.633,16,4842,998,meters,jsons/v1_VE1000_randls_6.json,986226,1263188,25,Man
28,386796,DepthScenes,duration_manipulation_targetAtFixation,jsons/v1_VE1000_randls_6.json,http://54.235.29.9/FacialAge/BNav_EC2/DepthDuration/v2_depth_duration_MTurk/v2_DepthDuration_HTML.html#160,160,1707,781,1366,768,9-3-2022,9-12-3,29,depth_duration_stimuli/000103_2014-05-14_22-01-17_260595134347_rgbf000152-resize_5/000103_2014-05-14_22-01-17_260595134347_rgbf000152-resize_5-target.png,1000,1.993,15,4827,1000,meters,jsons/v1_VE1000_randls_6.json,986226,1263188,25,Man
29,386796,DepthScenes,duration_manipulation_targetAtFixation,jsons/v1_VE1000_randls_6.json,http://54.235.29.9/FacialAge/BNav_EC2/DepthDuration/v2_depth_duration_MTurk/v2_DepthDuration_HTML.html#160,160,1707,781,1366,768,9-3-2022,9-12-3,30,depth_duration_stimuli/000375_2014-06-08_11-17-29_260595134347_rgbf000133-resize_2/000375_2014-06-08_11-17-29_260595134347_rgbf000133-resize-original.jpg,1000,4.718,0,5603,1000,meters,jsons/v1_VE1000_randls_6.json,986226,1263188,25,Man
30,386796,DepthScenes,duration_manipulation_targetAtFixation,jsons/v1_VE1000_randls_6.json,http://54.235.29.9/FacialAge/BNav_EC2/DepthDuration/v2_depth_duration_MTurk/v2_DepthDuration_HTML.html#160,160,1707,781,1366,768,9-3-2022,9-12-3,31,depth_duration_stimuli/001175_2014-06-17_15-45-55_260595134347_rgbf000129-resize_4/001175_2014-06-17_15-45-55_260595134347_rgbf000129-resize_4-target.png,1000,4.255,10,55786,999,meters,jsons/v1_VE1000_randls_6.json,986226,1263188,25,Man
31,386796,DepthScenes,duration_manipulation_targetAtFixation,jsons/v1_VE1000_randls_6.json,http://54.235.29.9/FacialAge/BNav_EC2/DepthDuration/v2_depth_duration_MTurk/v2_DepthDuration_HTML.html#160,160,1707,781,1366,768,9-3-2022,9-12-3,32,depth_duration_stimuli/003490_2014-05-21_15-50-11_094959634447_rgbf000101-resize_3/003490_2014-05-21_15-50-11_094959634447_rgbf000101-resize_3-target.png,1000,3.6445,15,3819,1001,meters,jsons/v1_VE1000_randls_6.json,986226,1263188,25,Man
32,386796,DepthScenes,duration_manipulation_targetAtFixation,jsons/v1_VE1000_randls_6.json,http://54.235.29.9/FacialAge/BNav_EC2/DepthDuration/v2_depth_duration_MTurk/v2_DepthDuration_HTML.html#160,160,1707,781,1366,768,9-3-2022,9-12-3,33,depth_duration_stimuli/003534_2014-05-22_15-06-10_094959634447_rgbf000102-resize_4/003534_2014-05-22_15-06-10_094959634447_rgbf000102-resize_4-target.png,1000,1.426,10,3955,1000,meters,jsons/v1_VE1000_randls_6.json,986226,1263188,25,Man
33,386796,DepthScenes,duration_manipulation_targetAtFixation,jsons/v1_VE1000_randls_6.json,http://54.235.29.9/FacialAge/BNav_EC2/DepthDuration/v2_depth_duration_MTurk/v2_DepthDuration_HTML.html#160,160,1707,781,1366,768,9-3-2022,9-12-3,34,depth_duration_stimuli/002637_2014-06-24_14-51-13_094959634447_rgbf000066-resize_4/002637_2014-06-24_14-51-13_094959634447_rgbf000066-resize_4-target.png,1000,1.9955,10,3659,1001,meters,jsons/v1_VE1000_randls_6.json,986226,1263188,25,Man
34,386796,DepthScenes,duration_manipulation_targetAtFixation,jsons/v1_VE1000_randls_6.json,http://54.235.29.9/FacialAge/BNav_EC2/DepthDuration/v2_depth_duration_MTurk/v2_DepthDuration_HTML.html#160,160,1707,781,1366,768,9-3-2022,9-12-3,35,depth_duration_stimuli/001110_2014-06-15_17-25-28_260595134347_rgbf000150-resize_1/001110_2014-06-15_17-25-28_260595134347_rgbf000150-resize_1-target.png,1000,1.7115,12,3754,1000,meters,jsons/v1_VE1000_randls_6.json,986226,1263188,25,Man
35,386796,DepthScenes,duration_manipulation_targetAtFixation,jsons/v1_VE1000_randls_6.json,http://54.235.29.9/FacialAge/BNav_EC2/DepthDuration/v2_depth_duration_MTurk/v2_DepthDuration_HTML.html#160,160,1707,781,1366,768,9-3-2022,9-12-3,36,depth_duration_stimuli/000927_2014-06-09_16-32-30_260595134347_rgbf000123-resize_3/000927_2014-06-09_16-32-30_260595134347_rgbf000123-resize_3-target.png,1000,2.6785,13,4092,1000,meters,jsons/v1_VE1000_randls_6.json,986226,1263188,25,Man
36,386796,DepthScenes,duration_manipulation_targetAtFixation,jsons/v1_VE1000_randls_6.json,http://54.235.29.9/FacialAge/BNav_EC2/DepthDuration/v2_depth_duration_MTurk/v2_DepthDuration_HTML.html#160,160,1707,781,1366,768,9-3-2022,9-12-3,37,depth_duration_stimuli/001810_2014-06-26_20-51-35_260595134347_rgbf000040-resize_3/001810_2014-06-26_20-51-35_260595134347_rgbf000040-resize_3-target.png,1000,2.2525,20,3899,1000,meters,jsons/v1_VE1000_randls_6.json,986226,1263188,25,Man
37,386796,DepthScenes,duration_manipulation_targetAtFixation,jsons/v1_VE1000_randls_6.json,http://54.235.29.9/FacialAge/BNav_EC2/DepthDuration/v2_depth_duration_MTurk/v2_DepthDuration_HTML.html#160,160,1707,781,1366,768,9-3-2022,9-12-3,38,depth_duration_stimuli/003010_2014-06-15_12-54-35_094959634447_rgbf000112-resize_0/003010_2014-06-15_12-54-35_094959634447_rgbf000112-resize_0-target.png,1000,3.1185,10,3578,1000,meters,jsons/v1_VE1000_randls_6.json,986226,1263188,25,Man
38,386796,DepthScenes,duration_manipulation_targetAtFixation,jsons/v1_VE1000_randls_6.json,http://54.235.29.9/FacialAge/BNav_EC2/DepthDuration/v2_depth_duration_MTurk/v2_DepthDuration_HTML.html#160,160,1707,781,1366,768,9-3-2022,9-12-3,39,depth_duration_stimuli/002445_2014-06-28_20-32-16_260595134347_rgbf000029-resize_4/002445_2014-06-28_20-32-16_260595134347_rgbf000029-resize_4-target.png,1000,2.5315,15,3947,1002,meters,jsons/v1_VE1000_randls_6.json,986226,1263188,25,Man
39,386796,DepthScenes,duration_manipulation_targetAtFixation,jsons/v1_VE1000_randls_6.json,http://54.235.29.9/FacialAge/BNav_EC2/DepthDuration/v2_depth_duration_MTurk/v2_DepthDuration_HTML.html#160,160,1707,781,1366,768,9-3-2022,9-12-3,40,depth_duration_stimuli/000780_2014-06-08_22-28-29_260595134347_rgbf000126-resize_1/000780_2014-06-08_22-28-29_260595134347_rgbf000126-resize_1-target.png,1000,3.3825,20,3563,1000,meters,jsons/v1_VE1000_randls_6.json,986226,1263188,25,Man
40,386796,DepthScenes,duration_manipulation_targetAtFixation,jsons/v1_VE1000_randls_6.json,http://54.235.29.9/FacialAge/BNav_EC2/DepthDuration/v2_depth_duration_MTurk/v2_DepthDuration_HTML.html#160,160,1707,781,1366,768,9-3-2022,9-12-3,41,depth_duration_stimuli/002763_2014-06-22_19-13-10_094959634447_rgbf000075-resize_4/002763_2014-06-22_19-13-10_094959634447_rgbf000075-resize_4-target.png,1000,1.68375,15,3443,1001,meters,jsons/v1_VE1000_randls_6.json,986226,1263188,25,Man
41,386796,DepthScenes,duration_manipulation_targetAtFixation,jsons/v1_VE1000_randls_6.json,http://54.235.29.9/FacialAge/BNav_EC2/DepthDuration/v2_depth_duration_MTurk/v2_DepthDuration_HTML.html#160,160,1707,781,1366,768,9-3-2022,9-12-3,42,depth_duration_stimuli/002209_2014-06-28_18-36-10_260595134347_rgbf000051-resize_1/002209_2014-06-28_18-36-10_260595134347_rgbf000051-resize_1-target.png,1000,2.057,12,3619,1002,meters,jsons/v1_VE1000_randls_6.json,986226,1263188,25,Man
42,386796,DepthScenes,duration_manipulation_targetAtFixation,jsons/v1_VE1000_randls_6.json,http://54.235.29.9/FacialAge/BNav_EC2/DepthDuration/v2_depth_duration_MTurk/v2_DepthDuration_HTML.html#160,160,1707,781,1366,768,9-3-2022,9-12-3,43,depth_duration_stimuli/000009_2014-05-26_14-32-05_260595134347_rgbf000034-resize_3/000009_2014-05-26_14-32-05_260595134347_rgbf000034-resize_3-target.png,1000,3.8715,16,3651,1001,meters,jsons/v1_VE1000_randls_6.json,986226,1263188,25,Man
43,386796,DepthScenes,duration_manipulation_targetAtFixation,jsons/v1_VE1000_randls_6.json,http://54.235.29.9/FacialAge/BNav_EC2/DepthDuration/v2_depth_duration_MTurk/v2_DepthDuration_HTML.html#160,160,1707,781,1366,768,9-3-2022,9-12-3,44,depth_duration_stimuli/001828_2014-06-26_21-40-03_260595134347_rgbf000024-resize_0/001828_2014-06-26_21-40-03_260595134347_rgbf000024-resize_0-target.png,1000,4.8260000000000005,20,3467,1000,meters,jsons/v1_VE1000_randls_6.json,986226,1263188,25,Man
44,386796,DepthScenes,duration_manipulation_targetAtFixation,jsons/v1_VE1000_randls_6.json,http://54.235.29.9/FacialAge/BNav_EC2/DepthDuration/v2_depth_duration_MTurk/v2_DepthDuration_HTML.html#160,160,1707,781,1366,768,9-3-2022,9-12-3,45,depth_duration_stimuli/000787_2014-06-08_22-33-53_260595134347_rgbf000175-resize_1/000787_2014-06-08_22-33-53_260595134347_rgbf000175-resize-original.jpg,1000,4.784,0,2989,1000,meters,jsons/v1_VE1000_randls_6.json,986226,1263188,25,Man
45,386796,DepthScenes,duration_manipulation_targetAtFixation,jsons/v1_VE1000_randls_6.json,http://54.235.29.9/FacialAge/BNav_EC2/DepthDuration/v2_depth_duration_MTurk/v2_DepthDuration_HTML.html#160,160,1707,781,1366,768,9-3-2022,9-12-3,46,depth_duration_stimuli/000917_2014-06-09_22-45-29_260595134347_rgbf000149-resize_3/000917_2014-06-09_22-45-29_260595134347_rgbf000149-resize_3-target.png,1000,4.1865,15,3492,1002,meters,jsons/v1_VE1000_randls_6.json,986226,1263188,25,Man
46,386796,DepthScenes,duration_manipulation_targetAtFixation,jsons/v1_VE1000_randls_6.json,http://54.235.29.9/FacialAge/BNav_EC2/DepthDuration/v2_depth_duration_MTurk/v2_DepthDuration_HTML.html#160,160,1707,781,1366,768,9-3-2022,9-12-3,47,depth_duration_stimuli/002323_2014-06-28_20-01-54_260595134347_rgbf000051-resize_4/002323_2014-06-28_20-01-54_260595134347_rgbf000051-resize_4-target.png,1000,3.7310000000000003,20,4018,1000,meters,jsons/v1_VE1000_randls_6.json,986226,1263188,25,Man
47,386796,DepthScenes,duration_manipulation_targetAtFixation,jsons/v1_VE1000_randls_6.json,http://54.235.29.9/FacialAge/BNav_EC2/DepthDuration/v2_depth_duration_MTurk/v2_DepthDuration_HTML.html#160,160,1707,781,1366,768,9-3-2022,9-12-3,48,depth_duration_stimuli/001570_2014-06-20_17-21-09_260595134347_rgbf000135-resize_4/001570_2014-06-20_17-21-09_260595134347_rgbf000135-resize_4-target.png,1000,4.467,13,3956,1001,meters,jsons/v1_VE1000_randls_6.json,986226,1263188,25,Man
48,386796,DepthScenes,duration_manipulation_targetAtFixation,jsons/v1_VE1000_randls_6.json,http://54.235.29.9/FacialAge/BNav_EC2/DepthDuration/v2_depth_duration_MTurk/v2_DepthDuration_HTML.html#160,160,1707,781,1366,768,9-3-2022,9-12-3,49,depth_duration_stimuli/001392_2014-06-19_16-07-59_260595134347_rgbf000046-resize_1/001392_2014-06-19_16-07-59_260595134347_rgbf000046-resize_1-target.png,1000,4.135,20,3290,1000,meters,jsons/v1_VE1000_randls_6.json,986226,1263188,25,Man
49,386796,DepthScenes,duration_manipulation_targetAtFixation,jsons/v1_VE1000_randls_6.json,http://54.235.29.9/FacialAge/BNav_EC2/DepthDuration/v2_depth_duration_MTurk/v2_DepthDuration_HTML.html#160,160,1707,781,1366,768,9-3-2022,9-12-3,50,depth_duration_stimuli/000788_2014-06-08_22-34-36_260595134347_rgbf000131-resize_1/000788_2014-06-08_22-34-36_260595134347_rgbf000131-resize_1-target.png,1000,3.359,25,3386,999,meters,jsons/v1_VE1000_randls_6.json,986226,1263188,25,Man
50,386796,DepthScenes,duration_manipulation_targetAtFixation,jsons/v1_VE1000_randls_6.json,http://54.235.29.9/FacialAge/BNav_EC2/DepthDuration/v2_depth_duration_MTurk/v2_DepthDuration_HTML.html#160,160,1707,781,1366,768,9-3-2022,9-12-3,51,depth_duration_stimuli/001235_2014-06-17_16-37-36_260595134347_rgbf000084-resize_4/001235_2014-06-17_16-37-36_260595134347_rgbf000084-resize_4-target.png,1000,3.6605,20,3443,1000,meters,jsons/v1_VE1000_randls_6.json,986226,1263188,25,Man
51,386796,DepthScenes,duration_manipulation_targetAtFixation,jsons/v1_VE1000_randls_6.json,http://54.235.29.9/FacialAge/BNav_EC2/DepthDuration/v2_depth_duration_MTurk/v2_DepthDuration_HTML.html#160,160,1707,781,1366,768,9-3-2022,9-12-3,52,depth_duration_stimuli/000739_2014-06-08_18-45-58_260595134347_rgbf000068-resize_1/000739_2014-06-08_18-45-58_260595134347_rgbf000068-resize_1-target.png,1000,3.534,10,3427,1001,meters,jsons/v1_VE1000_randls_6.json,986226,1263188,25,Man
52,386796,DepthScenes,duration_manipulation_targetAtFixation,jsons/v1_VE1000_randls_6.json,http://54.235.29.9/FacialAge/BNav_EC2/DepthDuration/v2_depth_duration_MTurk/v2_DepthDuration_HTML.html#160,160,1707,781,1366,768,9-3-2022,9-12-3,53,depth_duration_stimuli/000734_2014-06-08_17-39-11_260595134347_rgbf000128-resize_2/000734_2014-06-08_17-39-11_260595134347_rgbf000128-resize_2-target.png,1000,4.098,15,3722,1000,meters,jsons/v1_VE1000_randls_6.json,986226,1263188,25,Man
53,386796,DepthScenes,duration_manipulation_targetAtFixation,jsons/v1_VE1000_randls_6.json,http://54.235.29.9/FacialAge/BNav_EC2/DepthDuration/v2_depth_duration_MTurk/v2_DepthDuration_HTML.html#160,160,1707,781,1366,768,9-3-2022,9-12-3,54,depth_duration_stimuli/000736_2014-06-08_18-24-15_260595134347_rgbf000206-resize_3/000736_2014-06-08_18-24-15_260595134347_rgbf000206-resize_3-target.png,1000,3.515,20,3340,1000,meters,jsons/v1_VE1000_randls_6.json,986226,1263188,25,Man
54,386796,DepthScenes,duration_manipulation_targetAtFixation,jsons/v1_VE1000_randls_6.json,http://54.235.29.9/FacialAge/BNav_EC2/DepthDuration/v2_depth_duration_MTurk/v2_DepthDuration_HTML.html#160,160,1707,781,1366,768,9-3-2022,9-12-3,55,depth_duration_stimuli/000137_2014-05-20_17-04-49_260595134347_rgbf000120-resize_1/000137_2014-05-20_17-04-49_260595134347_rgbf000120-resize_1-target.png,1000,3.786,25,3625,1000,meters,jsons/v1_VE1000_randls_6.json,986226,1263188,25,Man
55,386796,DepthScenes,duration_manipulation_targetAtFixation,jsons/v1_VE1000_randls_6.json,http://54.235.29.9/FacialAge/BNav_EC2/DepthDuration/v2_depth_duration_MTurk/v2_DepthDuration_HTML.html#160,160,1707,781,1366,768,9-3-2022,9-12-3,56,depth_duration_stimuli/001244_2014-06-17_16-47-45_260595134347_rgbf000030-resize_4/001244_2014-06-17_16-47-45_260595134347_rgbf000030-resize_4-target.png,1000,2.0425,20,3300,1000,meters,jsons/v1_VE1000_randls_6.json,986226,1263188,25,Man
56,386796,DepthScenes,duration_manipulation_targetAtFixation,jsons/v1_VE1000_randls_6.json,http://54.235.29.9/FacialAge/BNav_EC2/DepthDuration/v2_depth_duration_MTurk/v2_DepthDuration_HTML.html#160,160,1707,781,1366,768,9-3-2022,9-12-3,57,depth_duration_stimuli/003495_2014-05-21_16-01-51_094959634447_rgbf000100-resize_3/003495_2014-05-21_16-01-51_094959634447_rgbf000100-resize_3-target.png,1000,1.6255,17,5242,1000,meters,jsons/v1_VE1000_randls_6.json,986226,1263188,25,Man
57,386796,DepthScenes,duration_manipulation_targetAtFixation,jsons/v1_VE1000_randls_6.json,http://54.235.29.9/FacialAge/BNav_EC2/DepthDuration/v2_depth_duration_MTurk/v2_DepthDuration_HTML.html#160,160,1707,781,1366,768,9-3-2022,9-12-3,58,depth_duration_stimuli/002039_2014-06-24_20-22-38_260595134347_rgbf000084-resize_1/002039_2014-06-24_20-22-38_260595134347_rgbf000084-resize_1-target.png,1000,4.408,23,5825,999,meters,jsons/v1_VE1000_randls_6.json,986226,1263188,25,Man
58,386796,DepthScenes,duration_manipulation_targetAtFixation,jsons/v1_VE1000_randls_6.json,http://54.235.29.9/FacialAge/BNav_EC2/DepthDuration/v2_depth_duration_MTurk/v2_DepthDuration_HTML.html#160,160,1707,781,1366,768,9-3-2022,9-12-3,59,depth_duration_stimuli/002103_2014-06-25_20-00-40_260595134347_rgbf000049-resize_0/002103_2014-06-25_20-00-40_260595134347_rgbf000049-resize_0-target.png,1000,4.105,26,4378,999,meters,jsons/v1_VE1000_randls_6.json,986226,1263188,25,Man
59,386796,DepthScenes,duration_manipulation_targetAtFixation,jsons/v1_VE1000_randls_6.json,http://54.235.29.9/FacialAge/BNav_EC2/DepthDuration/v2_depth_duration_MTurk/v2_DepthDuration_HTML.html#160,160,1707,781,1366,768,9-3-2022,9-12-3,60,depth_duration_stimuli/003070_2014-06-15_14-58-27_094959634447_rgbf000150-resize_3/003070_2014-06-15_14-58-27_094959634447_rgbf000150-resize_3-target.png,1000,2.9415,23,3604,1000,meters,jsons/v1_VE1000_randls_6.json,986226,1263188,25,Man
60,386796,DepthScenes,duration_manipulation_targetAtFixation,jsons/v1_VE1000_randls_6.json,http://54.235.29.9/FacialAge/BNav_EC2/DepthDuration/v2_depth_duration_MTurk/v2_DepthDuration_HTML.html#160,160,1707,781,1366,768,9-3-2022,9-12-3,61,depth_duration_stimuli/000943_2014-06-09_19-31-07_260595134347_rgbf000128-resize_1/000943_2014-06-09_19-31-07_260595134347_rgbf000128-resize_1-target.png,1000,1.9765,25,3658,1000,meters,jsons/v1_VE1000_randls_6.json,986226,1263188,25,Man
61,386796,DepthScenes,duration_manipulation_targetAtFixation,jsons/v1_VE1000_randls_6.json,http://54.235.29.9/FacialAge/BNav_EC2/DepthDuration/v2_depth_duration_MTurk/v2_DepthDuration_HTML.html#160,160,1707,781,1366,768,9-3-2022,9-12-3,62,depth_duration_stimuli/001150_2014-06-17_15-27-34_260595134347_rgbf000108-resize_2/001150_2014-06-17_15-27-34_260595134347_rgbf000108-resize_2-target.png,1000,4.0325,23,6275,1000,meters,jsons/v1_VE1000_randls_6.json,986226,1263188,25,Man
62,386796,DepthScenes,duration_manipulation_targetAtFixation,jsons/v1_VE1000_randls_6.json,http://54.235.29.9/FacialAge/BNav_EC2/DepthDuration/v2_depth_duration_MTurk/v2_DepthDuration_HTML.html#160,160,1707,781,1366,768,9-3-2022,9-12-3,63,depth_duration_stimuli/000665_2014-06-09_20-42-35_260595134347_rgbf000110-resize_1/000665_2014-06-09_20-42-35_260595134347_rgbf000110-resize_1-target.png,1000,3.057,35,4233,999,meters,jsons/v1_VE1000_randls_6.json,986226,1263188,25,Man
63,386796,DepthScenes,duration_manipulation_targetAtFixation,jsons/v1_VE1000_randls_6.json,http://54.235.29.9/FacialAge/BNav_EC2/DepthDuration/v2_depth_duration_MTurk/v2_DepthDuration_HTML.html#160,160,1707,781,1366,768,9-3-2022,9-12-3,64,depth_duration_stimuli/000414_2014-06-04_19-49-13_260595134347_rgbf000044-resize_0/000414_2014-06-04_19-49-13_260595134347_rgbf000044-resize_0-target.png,1000,4.329,15,3963,1001,meters,jsons/v1_VE1000_randls_6.json,986226,1263188,25,Man
64,386796,DepthScenes,duration_manipulation_targetAtFixation,jsons/v1_VE1000_randls_6.json,http://54.235.29.9/FacialAge/BNav_EC2/DepthDuration/v2_depth_duration_MTurk/v2_DepthDuration_HTML.html#160,160,1707,781,1366,768,9-3-2022,9-12-3,65,depth_duration_stimuli/003129_2014-05-12_10-48-10_094959634447_rgbf000100-resize_0/003129_2014-05-12_10-48-10_094959634447_rgbf000100-resize_0-target.png,1000,4.9305,25,3362,1000,meters,jsons/v1_VE1000_randls_6.json,986226,1263188,25,Man
65,386796,DepthScenes,duration_manipulation_targetAtFixation,jsons/v1_VE1000_randls_6.json,http://54.235.29.9/FacialAge/BNav_EC2/DepthDuration/v2_depth_duration_MTurk/v2_DepthDuration_HTML.html#160,160,1707,781,1366,768,9-3-2022,9-12-3,66,depth_duration_stimuli/001222_2014-06-17_16-24-06_260595134347_rgbf000073-resize_0/001222_2014-06-17_16-24-06_260595134347_rgbf000073-resize-original.jpg,1000,1.4385,0,3468,1000,meters,jsons/v1_VE1000_randls_6.json,986226,1263188,25,Man
66,386796,DepthScenes,duration_manipulation_targetAtFixation,jsons/v1_VE1000_randls_6.json,http://54.235.29.9/FacialAge/BNav_EC2/DepthDuration/v2_depth_duration_MTurk/v2_DepthDuration_HTML.html#160,160,1707,781,1366,768,9-3-2022,9-12-3,67,depth_duration_stimuli/000368_2014-06-09_15-53-01_260595134347_rgbf000155-resize_2/000368_2014-06-09_15-53-01_260595134347_rgbf000155-resize_2-target.png,1000,2.4859999999999998,12,3866,1002,meters,jsons/v1_VE1000_randls_6.json,986226,1263188,25,Man
67,386796,DepthScenes,duration_manipulation_targetAtFixation,jsons/v1_VE1000_randls_6.json,http://54.235.29.9/FacialAge/BNav_EC2/DepthDuration/v2_depth_duration_MTurk/v2_DepthDuration_HTML.html#160,160,1707,781,1366,768,9-3-2022,9-12-3,68,depth_duration_stimuli/002678_2014-06-13_16-15-32_094959634447_rgbf000151-resize_6/002678_2014-06-13_16-15-32_094959634447_rgbf000151-resize_6-target.png,1000,2.1830000000000003,13,3729,998,meters,jsons/v1_VE1000_randls_6.json,986226,1263188,25,Man
68,386796,DepthScenes,duration_manipulation_targetAtFixation,jsons/v1_VE1000_randls_6.json,http://54.235.29.9/FacialAge/BNav_EC2/DepthDuration/v2_depth_duration_MTurk/v2_DepthDuration_HTML.html#160,160,1707,781,1366,768,9-3-2022,9-12-3,69,depth_duration_stimuli/002043_2014-06-24_20-29-38_260595134347_rgbf000039-resize_4/002043_2014-06-24_20-29-38_260595134347_rgbf000039-resize_4-target.png,1000,2.8435,13,13955,1000,meters,jsons/v1_VE1000_randls_6.json,986226,1263188,25,Man
69,386796,DepthScenes,duration_manipulation_targetAtFixation,jsons/v1_VE1000_randls_6.json,http://54.235.29.9/FacialAge/BNav_EC2/DepthDuration/v2_depth_duration_MTurk/v2_DepthDuration_HTML.html#160,160,1707,781,1366,768,9-3-2022,9-12-3,70,depth_duration_stimuli/003048_2014-06-15_13-49-43_094959634447_rgbf000150-resize_1/003048_2014-06-15_13-49-43_094959634447_rgbf000150-resize_1-target.png,1000,4.0035,12,4458,999,meters,jsons/v1_VE1000_randls_6.json,986226,1263188,25,Man
70,386796,DepthScenes,duration_manipulation_targetAtFixation,jsons/v1_VE1000_randls_6.json,http://54.235.29.9/FacialAge/BNav_EC2/DepthDuration/v2_depth_duration_MTurk/v2_DepthDuration_HTML.html#160,160,1707,781,1366,768,9-3-2022,9-12-3,71,depth_duration_stimuli/000810_2014-06-08_17-20-01_260595134347_rgbf000105-resize_0/000810_2014-06-08_17-20-01_260595134347_rgbf000105-resize_0-target.png,1000,1.4865,15,3883,1001,meters,jsons/v1_VE1000_randls_6.json,986226,1263188,25,Man
71,386796,DepthScenes,duration_manipulation_targetAtFixation,jsons/v1_VE1000_randls_6.json,http://54.235.29.9/FacialAge/BNav_EC2/DepthDuration/v2_depth_duration_MTurk/v2_DepthDuration_HTML.html#160,160,1707,781,1366,768,9-3-2022,9-12-3,72,depth_duration_stimuli/001214_2014-06-17_16-13-55_260595134347_rgbf000111-resize_0/001214_2014-06-17_16-13-55_260595134347_rgbf000111-resize_0-target.png,1000,2.6505,16,3796,1000,meters,jsons/v1_VE1000_randls_6.json,986226,1263188,25,Man
72,386796,DepthScenes,duration_manipulation_targetAtFixation,jsons/v1_VE1000_randls_6.json,http://54.235.29.9/FacialAge/BNav_EC2/DepthDuration/v2_depth_duration_MTurk/v2_DepthDuration_HTML.html#160,160,1707,781,1366,768,9-3-2022,9-12-3,73,depth_duration_stimuli/001029_2014-06-08_13-17-57_260595134347_rgbf000065-resize_1/001029_2014-06-08_13-17-57_260595134347_rgbf000065-resize_1-target.png,1000,3.0835,20,4433,1000,meters,jsons/v1_VE1000_randls_6.json,986226,1263188,25,Man
73,386796,DepthScenes,duration_manipulation_targetAtFixation,jsons/v1_VE1000_randls_6.json,http://54.235.29.9/FacialAge/BNav_EC2/DepthDuration/v2_depth_duration_MTurk/v2_DepthDuration_HTML.html#160,160,1707,781,1366,768,9-3-2022,9-12-3,74,depth_duration_stimuli/000677_2014-06-08_23-10-32_260595134347_rgbf000158-resize_6/000677_2014-06-08_23-10-32_260595134347_rgbf000158-resize_6-target.png,1000,3.556,23,6987,1000,meters,jsons/v1_VE1000_randls_6.json,986226,1263188,25,Man
74,386796,DepthScenes,duration_manipulation_targetAtFixation,jsons/v1_VE1000_randls_6.json,http://54.235.29.9/FacialAge/BNav_EC2/DepthDuration/v2_depth_duration_MTurk/v2_DepthDuration_HTML.html#160,160,1707,781,1366,768,9-3-2022,9-12-3,75,depth_duration_stimuli/000506_2014-06-08_23-21-00_260595134347_rgbf000070-resize_7/000506_2014-06-08_23-21-00_260595134347_rgbf000070-resize_7-target.png,1000,4.0585,10,101261,1002,meters,jsons/v1_VE1000_randls_6.json,986226,1263188,25,Man
75,386796,DepthScenes,duration_manipulation_targetAtFixation,jsons/v1_VE1000_randls_6.json,http://54.235.29.9/FacialAge/BNav_EC2/DepthDuration/v2_depth_duration_MTurk/v2_DepthDuration_HTML.html#160,160,1707,781,1366,768,9-3-2022,9-12-3,76,depth_duration_stimuli/003079_2014-06-15_15-18-20_094959634447_rgbf000152-resize_8/003079_2014-06-15_15-18-20_094959634447_rgbf000152-resize_8-target.png,1000,2.8775,15,5691,1000,meters,jsons/v1_VE1000_randls_6.json,986226,1263188,25,Man
76,386796,DepthScenes,duration_manipulation_targetAtFixation,jsons/v1_VE1000_randls_6.json,http://54.235.29.9/FacialAge/BNav_EC2/DepthDuration/v2_depth_duration_MTurk/v2_DepthDuration_HTML.html#160,160,1707,781,1366,768,9-3-2022,9-12-3,77,depth_duration_stimuli/001417_2014-06-19_16-25-36_260595134347_rgbf000115-resize_5/001417_2014-06-19_16-25-36_260595134347_rgbf000115-resize_5-target.png,1000,4.6255,13,3954,1000,meters,jsons/v1_VE1000_randls_6.json,986226,1263188,25,Man
77,386796,DepthScenes,duration_manipulation_targetAtFixation,jsons/v1_VE1000_randls_6.json,http://54.235.29.9/FacialAge/BNav_EC2/DepthDuration/v2_depth_duration_MTurk/v2_DepthDuration_HTML.html#160,160,1707,781,1366,768,9-3-2022,9-12-3,78,depth_duration_stimuli/003081_2014-06-15_15-19-16_094959634447_rgbf000150-resize_1/003081_2014-06-15_15-19-16_094959634447_rgbf000150-resize_1-target.png,1000,3.9125,12,4483,1001,meters,jsons/v1_VE1000_randls_6.json,986226,1263188,25,Man
78,386796,DepthScenes,duration_manipulation_targetAtFixation,jsons/v1_VE1000_randls_6.json,http://54.235.29.9/FacialAge/BNav_EC2/DepthDuration/v2_depth_duration_MTurk/v2_DepthDuration_HTML.html#160,160,1707,781,1366,768,9-3-2022,9-12-3,79,depth_duration_stimuli/003621_2014-05-23_18-06-08_094959634447_rgbf000101-resize_1/003621_2014-05-23_18-06-08_094959634447_rgbf000101-resize_1-target.png,1000,3.9835,20,3868,1001,meters,jsons/v1_VE1000_randls_6.json,986226,1263188,25,Man
79,386796,DepthScenes,duration_manipulation_targetAtFixation,jsons/v1_VE1000_randls_6.json,http://54.235.29.9/FacialAge/BNav_EC2/DepthDuration/v2_depth_duration_MTurk/v2_DepthDuration_HTML.html#160,160,1707,781,1366,768,9-3-2022,9-12-3,80,depth_duration_stimuli/001584_2014-06-20_11-07-43_260595134347_rgbf000002-resize_1/001584_2014-06-20_11-07-43_260595134347_rgbf000002-resize_1-target.png,1000,3.53,13,4059,1001,meters,jsons/v1_VE1000_randls_6.json,986226,1263188,25,Man
80,386796,DepthScenes,duration_manipulation_targetAtFixation,jsons/v1_VE1000_randls_6.json,http://54.235.29.9/FacialAge/BNav_EC2/DepthDuration/v2_depth_duration_MTurk/v2_DepthDuration_HTML.html#160,160,1707,781,1366,768,9-3-2022,9-12-3,81,depth_duration_stimuli/002375_2014-06-28_20-13-44_260595134347_rgbf000032-resize_1/002375_2014-06-28_20-13-44_260595134347_rgbf000032-resize_1-target.png,1000,4.0175,16,4281,999,meters,jsons/v1_VE1000_randls_6.json,986226,1263188,25,Man
81,386796,DepthScenes,duration_manipulation_targetAtFixation,jsons/v1_VE1000_randls_6.json,http://54.235.29.9/FacialAge/BNav_EC2/DepthDuration/v2_depth_duration_MTurk/v2_DepthDuration_HTML.html#160,160,1707,781,1366,768,9-3-2022,9-12-3,82,depth_duration_stimuli/002657_2014-06-13_15-29-54_094959634447_rgbf000150-resize_1/002657_2014-06-13_15-29-54_094959634447_rgbf000150-resize_1-target.png,1000,4.919,10,3500,1000,meters,jsons/v1_VE1000_randls_6.json,986226,1263188,25,Man
82,386796,DepthScenes,duration_manipulation_targetAtFixation,jsons/v1_VE1000_randls_6.json,http://54.235.29.9/FacialAge/BNav_EC2/DepthDuration/v2_depth_duration_MTurk/v2_DepthDuration_HTML.html#160,160,1707,781,1366,768,9-3-2022,9-12-3,83,depth_duration_stimuli/002509_2014-06-24_13-19-22_094959634447_rgbf000077-resize_0/002509_2014-06-24_13-19-22_094959634447_rgbf000077-resize_0-target.png,1000,1.3065,13,3586,999,meters,jsons/v1_VE1000_randls_6.json,986226,1263188,25,Man
83,386796,DepthScenes,duration_manipulation_targetAtFixation,jsons/v1_VE1000_randls_6.json,http://54.235.29.9/FacialAge/BNav_EC2/DepthDuration/v2_depth_duration_MTurk/v2_DepthDuration_HTML.html#160,160,1707,781,1366,768,9-3-2022,9-12-3,84,depth_duration_stimuli/003338_2014-05-20_11-01-23_094959634447_rgbf000051-resize_6/003338_2014-05-20_11-01-23_094959634447_rgbf000051-resize_6-target.png,1000,1.693,15,3673,999,meters,jsons/v1_VE1000_randls_6.json,986226,1263188,25,Man
84,386796,DepthScenes,duration_manipulation_targetAtFixation,jsons/v1_VE1000_randls_6.json,http://54.235.29.9/FacialAge/BNav_EC2/DepthDuration/v2_depth_duration_MTurk/v2_DepthDuration_HTML.html#160,160,1707,781,1366,768,9-3-2022,9-12-3,85,depth_duration_stimuli/002549_2014-06-24_13-41-39_094959634447_rgbf000022-resize_3/002549_2014-06-24_13-41-39_094959634447_rgbf000022-resize_3-target.png,1000,1.476,20,4034,1000,meters,jsons/v1_VE1000_randls_6.json,986226,1263188,25,Man
85,386796,DepthScenes,duration_manipulation_targetAtFixation,jsons/v1_VE1000_randls_6.json,http://54.235.29.9/FacialAge/BNav_EC2/DepthDuration/v2_depth_duration_MTurk/v2_DepthDuration_HTML.html#160,160,1707,781,1366,768,9-3-2022,9-12-3,86,depth_duration_stimuli/002750_2014-06-22_19-08-03_094959634447_rgbf000094-resize_4/002750_2014-06-22_19-08-03_094959634447_rgbf000094-resize_4-target.png,1000,2.354,25,3547,1000,meters,jsons/v1_VE1000_randls_6.json,986226,1263188,25,Man
86,386796,DepthScenes,duration_manipulation_targetAtFixation,jsons/v1_VE1000_randls_6.json,http://54.235.29.9/FacialAge/BNav_EC2/DepthDuration/v2_depth_duration_MTurk/v2_DepthDuration_HTML.html#160,160,1707,781,1366,768,9-3-2022,9-12-3,87,depth_duration_stimuli/002057_2014-06-24_21-00-13_260595134347_rgbf000120-resize_1/002057_2014-06-24_21-00-13_260595134347_rgbf000120-resize_1-target.png,1000,2.967,20,3385,1000,meters,jsons/v1_VE1000_randls_6.json,986226,1263188,25,Man
87,386796,DepthScenes,duration_manipulation_targetAtFixation,jsons/v1_VE1000_randls_6.json,http://54.235.29.9/FacialAge/BNav_EC2/DepthDuration/v2_depth_duration_MTurk/v2_DepthDuration_HTML.html#160,160,1707,781,1366,768,9-3-2022,9-12-3,88,depth_duration_stimuli/000709_2014-06-08_13-51-55_260595134347_rgbf000068-resize_3/000709_2014-06-08_13-51-55_260595134347_rgbf000068-resize_3-target.png,1000,1.8030000000000002,26,5090,1001,meters,jsons/v1_VE1000_randls_6.json,986226,1263188,25,Man
88,386796,DepthScenes,duration_manipulation_targetAtFixation,jsons/v1_VE1000_randls_6.json,http://54.235.29.9/FacialAge/BNav_EC2/DepthDuration/v2_depth_duration_MTurk/v2_DepthDuration_HTML.html#160,160,1707,781,1366,768,9-3-2022,9-12-3,89,depth_duration_stimuli/000773_2014-06-08_22-24-54_260595134347_rgbf000093-resize_1/000773_2014-06-08_22-24-54_260595134347_rgbf000093-resize_1-target.png,1000,4.973,28,3426,999,meters,jsons/v1_VE1000_randls_6.json,986226,1263188,25,Man
89,386796,DepthScenes,duration_manipulation_targetAtFixation,jsons/v1_VE1000_randls_6.json,http://54.235.29.9/FacialAge/BNav_EC2/DepthDuration/v2_depth_duration_MTurk/v2_DepthDuration_HTML.html#160,160,1707,781,1366,768,9-3-2022,9-12-3,90,depth_duration_stimuli/002414_2014-06-28_20-24-58_260595134347_rgbf000067-resize_4/002414_2014-06-28_20-24-58_260595134347_rgbf000067-resize_4-target.png,1000,4.363,20,3779,1000,meters,jsons/v1_VE1000_randls_6.json,986226,1263188,25,Man
90,386796,DepthScenes,duration_manipulation_targetAtFixation,jsons/v1_VE1000_randls_6.json,http://54.235.29.9/FacialAge/BNav_EC2/DepthDuration/v2_depth_duration_MTurk/v2_DepthDuration_HTML.html#160,160,1707,781,1366,768,9-3-2022,9-12-3,91,depth_duration_stimuli/000906_2014-06-08_13-35-43_260595134347_rgbf000155-resize_1/000906_2014-06-08_13-35-43_260595134347_rgbf000155-resize_1-target.png,1000,2.8489999999999998,21,3715,1001,meters,jsons/v1_VE1000_randls_6.json,986226,1263188,25,Man
91,386796,DepthScenes,duration_manipulation_targetAtFixation,jsons/v1_VE1000_randls_6.json,http://54.235.29.9/FacialAge/BNav_EC2/DepthDuration/v2_depth_duration_MTurk/v2_DepthDuration_HTML.html#160,160,1707,781,1366,768,9-3-2022,9-12-3,92,depth_duration_stimuli/002805_2014-06-22_19-54-03_094959634447_rgbf000079-resize_1/002805_2014-06-22_19-54-03_094959634447_rgbf000079-resize_1-target.png,1000,3.1439999999999997,22,3500,1000,meters,jsons/v1_VE1000_randls_6.json,986226,1263188,25,Man
92,386796,DepthScenes,duration_manipulation_targetAtFixation,jsons/v1_VE1000_randls_6.json,http://54.235.29.9/FacialAge/BNav_EC2/DepthDuration/v2_depth_duration_MTurk/v2_DepthDuration_HTML.html#160,160,1707,781,1366,768,9-3-2022,9-12-3,93,depth_duration_stimuli/002570_2014-06-24_13-59-54_094959634447_rgbf000059-resize_0/002570_2014-06-24_13-59-54_094959634447_rgbf000059-resize_0-target.png,1000,4.037,25,3297,999,meters,jsons/v1_VE1000_randls_6.json,986226,1263188,25,Man
93,386796,DepthScenes,duration_manipulation_targetAtFixation,jsons/v1_VE1000_randls_6.json,http://54.235.29.9/FacialAge/BNav_EC2/DepthDuration/v2_depth_duration_MTurk/v2_DepthDuration_HTML.html#160,160,1707,781,1366,768,9-3-2022,9-12-3,94,depth_duration_stimuli/002467_2014-06-28_20-38-07_260595134347_rgbf000026-resize_2/002467_2014-06-28_20-38-07_260595134347_rgbf000026-resize_2-target.png,1000,4.742,20,3569,1001,meters,jsons/v1_VE1000_randls_6.json,986226,1263188,25,Man
94,386796,DepthScenes,duration_manipulation_targetAtFixation,jsons/v1_VE1000_randls_6.json,http://54.235.29.9/FacialAge/BNav_EC2/DepthDuration/v2_depth_duration_MTurk/v2_DepthDuration_HTML.html#160,160,1707,781,1366,768,9-3-2022,9-12-3,95,depth_duration_stimuli/001806_2014-06-26_20-50-20_260595134347_rgbf000091-resize_1/001806_2014-06-26_20-50-20_260595134347_rgbf000091-resize_1-target.png,1000,2.7305,15,4507,998,meters,jsons/v1_VE1000_randls_6.json,986226,1263188,25,Man
95,386796,DepthScenes,duration_manipulation_targetAtFixation,jsons/v1_VE1000_randls_6.json,http://54.235.29.9/FacialAge/BNav_EC2/DepthDuration/v2_depth_duration_MTurk/v2_DepthDuration_HTML.html#160,160,1707,781,1366,768,9-3-2022,9-12-3,96,depth_duration_stimuli/001617_2014-06-20_11-35-32_260595134347_rgbf000066-resize_1/001617_2014-06-20_11-35-32_260595134347_rgbf000066-resize_1-target.png,1000,3.7910000000000004,25,4763,1001,meters,jsons/v1_VE1000_randls_6.json,986226,1263188,25,Man
96,386796,DepthScenes,duration_manipulation_targetAtFixation,jsons/v1_VE1000_randls_6.json,http://54.235.29.9/FacialAge/BNav_EC2/DepthDuration/v2_depth_duration_MTurk/v2_DepthDuration_HTML.html#160,160,1707,781,1366,768,9-3-2022,9-12-3,97,depth_duration_stimuli/002153_2014-06-25_21-27-18_260595134347_rgbf000038-resize_5/002153_2014-06-25_21-27-18_260595134347_rgbf000038-resize_5-target.png,1000,2.505,10,3411,1000,meters,jsons/v1_VE1000_randls_6.json,986226,1263188,25,Man
97,386796,DepthScenes,duration_manipulation_targetAtFixation,jsons/v1_VE1000_randls_6.json,http://54.235.29.9/FacialAge/BNav_EC2/DepthDuration/v2_depth_duration_MTurk/v2_DepthDuration_HTML.html#160,160,1707,781,1366,768,9-3-2022,9-12-3,98,depth_duration_stimuli/002660_2014-06-13_15-44-18_094959634447_rgbf001878-resize_2/002660_2014-06-13_15-44-18_094959634447_rgbf001878-resize_2-target.png,1000,3.576,25,3764,1000,meters,jsons/v1_VE1000_randls_6.json,986226,1263188,25,Man
98,386796,DepthScenes,duration_manipulation_targetAtFixation,jsons/v1_VE1000_randls_6.json,http://54.235.29.9/FacialAge/BNav_EC2/DepthDuration/v2_depth_duration_MTurk/v2_DepthDuration_HTML.html#160,160,1707,781,1366,768,9-3-2022,9-12-3,99,depth_duration_stimuli/001540_2014-06-20_17-01-05_260595134347_rgbf000086-resize_2/001540_2014-06-20_17-01-05_260595134347_rgbf000086-resize-original.jpg,1000,1.459,0,3019,1000,meters,jsons/v1_VE1000_randls_6.json,986226,1263188,25,Man
99,386796,DepthScenes,duration_manipulation_targetAtFixation,jsons/v1_VE1000_randls_6.json,http://54.235.29.9/FacialAge/BNav_EC2/DepthDuration/v2_depth_duration_MTurk/v2_DepthDuration_HTML.html#160,160,1707,781,1366,768,9-3-2022,9-12-3,100,depth_duration_stimuli/001055_2014-06-08_18-45-35_260595134347_rgbf000111-resize_4/001055_2014-06-08_18-45-35_260595134347_rgbf000111-resize_4-target.png,1000,2.4290000000000003,20,3410,1000,meters,jsons/v1_VE1000_randls_6.json,986226,1263188,25,Man
100,386796,DepthScenes,duration_manipulation_targetAtFixation,jsons/v1_VE1000_randls_6.json,http://54.235.29.9/FacialAge/BNav_EC2/DepthDuration/v2_depth_duration_MTurk/v2_DepthDuration_HTML.html#160,160,1707,781,1366,768,9-3-2022,9-12-3,101,depth_duration_stimuli/000549_2014-06-08_22-10-24_260595134347_rgbf000247-resize_3/000549_2014-06-08_22-10-24_260595134347_rgbf000247-resize_3-target.png,1000,1.841,10,3538,998,meters,jsons/v1_VE1000_randls_6.json,986226,1263188,25,Man
101,386796,DepthScenes,duration_manipulation_targetAtFixation,jsons/v1_VE1000_randls_6.json,http://54.235.29.9/FacialAge/BNav_EC2/DepthDuration/v2_depth_duration_MTurk/v2_DepthDuration_HTML.html#160,160,1707,781,1366,768,9-3-2022,9-12-3,102,depth_duration_stimuli/000470_2014-06-09_19-42-40_260595134347_rgbf000094-resize_1/000470_2014-06-09_19-42-40_260595134347_rgbf000094-resize_1-target.png,1000,1.831,12,3885,1000,meters,jsons/v1_VE1000_randls_6.json,986226,1263188,25,Man
102,386796,DepthScenes,duration_manipulation_targetAtFixation,jsons/v1_VE1000_randls_6.json,http://54.235.29.9/FacialAge/BNav_EC2/DepthDuration/v2_depth_duration_MTurk/v2_DepthDuration_HTML.html#160,160,1707,781,1366,768,9-3-2022,9-12-3,103,depth_duration_stimuli/000109_2014-05-14_23-41-52_260595134347_rgbf000035-resize_9/000109_2014-05-14_23-41-52_260595134347_rgbf000035-resize_9-target.png,1000,1.3545,13,3417,999,meters,jsons/v1_VE1000_randls_6.json,986226,1263188,25,Man
103,386796,DepthScenes,duration_manipulation_targetAtFixation,jsons/v1_VE1000_randls_6.json,http://54.235.29.9/FacialAge/BNav_EC2/DepthDuration/v2_depth_duration_MTurk/v2_DepthDuration_HTML.html#160,160,1707,781,1366,768,9-3-2022,9-12-3,104,depth_duration_stimuli/000469_2014-06-09_19-42-10_260595134347_rgbf000081-resize_1/000469_2014-06-09_19-42-10_260595134347_rgbf000081-resize_1-target.png,1000,1.652,10,3194,998,meters,jsons/v1_VE1000_randls_6.json,986226,1263188,25,Man
104,386796,DepthScenes,duration_manipulation_targetAtFixation,jsons/v1_VE1000_randls_6.json,http://54.235.29.9/FacialAge/BNav_EC2/DepthDuration/v2_depth_duration_MTurk/v2_DepthDuration_HTML.html#160,160,1707,781,1366,768,9-3-2022,9-12-3,105,depth_duration_stimuli/000483_2014-06-09_20-41-45_260595134347_rgbf000116-resize_4/000483_2014-06-09_20-41-45_260595134347_rgbf000116-resize_4-target.png,1000,1.337,10,3442,1000,meters,jsons/v1_VE1000_randls_6.json,986226,1263188,25,Man
105,386796,DepthScenes,duration_manipulation_targetAtFixation,jsons/v1_VE1000_randls_6.json,http://54.235.29.9/FacialAge/BNav_EC2/DepthDuration/v2_depth_duration_MTurk/v2_DepthDuration_HTML.html#160,160,1707,781,1366,768,9-3-2022,9-12-3,106,depth_duration_stimuli/001164_2014-06-17_15-35-46_260595134347_rgbf000085-resize_3/001164_2014-06-17_15-35-46_260595134347_rgbf000085-resize_3-target.png,1000,2.354,12,3522,999,meters,jsons/v1_VE1000_randls_6.json,986226,1263188,25,Man
106,386796,DepthScenes,duration_manipulation_targetAtFixation,jsons/v1_VE1000_randls_6.json,http://54.235.29.9/FacialAge/BNav_EC2/DepthDuration/v2_depth_duration_MTurk/v2_DepthDuration_HTML.html#160,160,1707,781,1366,768,9-3-2022,9-12-3,107,depth_duration_stimuli/001136_2014-06-17_15-19-41_260595134347_rgbf000076-resize_3/001136_2014-06-17_15-19-41_260595134347_rgbf000076-resize_3-target.png,1000,1.8655,13,3754,1000,meters,jsons/v1_VE1000_randls_6.json,986226,1263188,25,Man
107,386796,DepthScenes,duration_manipulation_targetAtFixation,jsons/v1_VE1000_randls_6.json,http://54.235.29.9/FacialAge/BNav_EC2/DepthDuration/v2_depth_duration_MTurk/v2_DepthDuration_HTML.html#160,160,1707,781,1366,768,9-3-2022,9-12-3,108,depth_duration_stimuli/003292_2014-05-14_21-53-49_094959634447_rgbf000100-resize_2/003292_2014-05-14_21-53-49_094959634447_rgbf000100-resize_2-target.png,1000,3.4815,15,3416,1000,meters,jsons/v1_VE1000_randls_6.json,986226,1263188,25,Man
108,386796,DepthScenes,duration_manipulation_targetAtFixation,jsons/v1_VE1000_randls_6.json,http://54.235.29.9/FacialAge/BNav_EC2/DepthDuration/v2_depth_duration_MTurk/v2_DepthDuration_HTML.html#160,160,1707,781,1366,768,9-3-2022,9-12-3,109,depth_duration_stimuli/002639_2014-06-24_14-51-37_094959634447_rgbf000074-resize_4/002639_2014-06-24_14-51-37_094959634447_rgbf000074-resize_4-target.png,1000,4.0375,20,3375,1001,meters,jsons/v1_VE1000_randls_6.json,986226,1263188,25,Man
109,386796,DepthScenes,duration_manipulation_targetAtFixation,jsons/v1_VE1000_randls_6.json,http://54.235.29.9/FacialAge/BNav_EC2/DepthDuration/v2_depth_duration_MTurk/v2_DepthDuration_HTML.html#160,160,1707,781,1366,768,9-3-2022,9-12-3,110,depth_duration_stimuli/002725_2014-06-22_11-47-51_094959634447_rgbf000070-resize_1/002725_2014-06-22_11-47-51_094959634447_rgbf000070-resize_1-target.png,1000,2.195,25,3706,1000,meters,jsons/v1_VE1000_randls_6.json,986226,1263188,25,Man
110,386796,DepthScenes,duration_manipulation_targetAtFixation,jsons/v1_VE1000_randls_6.json,http://54.235.29.9/FacialAge/BNav_EC2/DepthDuration/v2_depth_duration_MTurk/v2_DepthDuration_HTML.html#160,160,1707,781,1366,768,9-3-2022,9-12-3,111,depth_duration_stimuli/002344_2014-06-28_20-06-29_260595134347_rgbf000030-resize_1/002344_2014-06-28_20-06-29_260595134347_rgbf000030-resize_1-target.png,1000,1.5795,20,3451,1000,meters,jsons/v1_VE1000_randls_6.json,986226,1263188,25,Man
111,386796,DepthScenes,duration_manipulation_targetAtFixation,jsons/v1_VE1000_randls_6.json,http://54.235.29.9/FacialAge/BNav_EC2/DepthDuration/v2_depth_duration_MTurk/v2_DepthDuration_HTML.html#160,160,1707,781,1366,768,9-3-2022,9-12-3,112,depth_duration_stimuli/000929_2014-06-09_16-33-19_260595134347_rgbf000139-resize_0/000929_2014-06-09_16-33-19_260595134347_rgbf000139-resize_0-target.png,1000,2.8680000000000003,15,3355,1001,meters,jsons/v1_VE1000_randls_6.json,986226,1263188,25,Man
112,386796,DepthScenes,duration_manipulation_targetAtFixation,jsons/v1_VE1000_randls_6.json,http://54.235.29.9/FacialAge/BNav_EC2/DepthDuration/v2_depth_duration_MTurk/v2_DepthDuration_HTML.html#160,160,1707,781,1366,768,9-3-2022,9-12-3,113,depth_duration_stimuli/000457_2014-06-08_16-52-43_260595134347_rgbf000199-resize_1/000457_2014-06-08_16-52-43_260595134347_rgbf000199-resize_1-target.png,1000,3.6489999999999996,20,3323,1001,meters,jsons/v1_VE1000_randls_6.json,986226,1263188,25,Man
113,386796,DepthScenes,duration_manipulation_targetAtFixation,jsons/v1_VE1000_randls_6.json,http://54.235.29.9/FacialAge/BNav_EC2/DepthDuration/v2_depth_duration_MTurk/v2_DepthDuration_HTML.html#160,160,1707,781,1366,768,9-3-2022,9-12-3,114,depth_duration_stimuli/002279_2014-06-28_18-55-32_260595134347_rgbf000040-resize_5/002279_2014-06-28_18-55-32_260595134347_rgbf000040-resize_5-target.png,1000,1.5043333333333,25,3331,1000,meters,jsons/v1_VE1000_randls_6.json,986226,1263188,25,Man
114,386796,DepthScenes,duration_manipulation_targetAtFixation,jsons/v1_VE1000_randls_6.json,http://54.235.29.9/FacialAge/BNav_EC2/DepthDuration/v2_depth_duration_MTurk/v2_DepthDuration_HTML.html#160,160,1707,781,1366,768,9-3-2022,9-12-3,115,depth_duration_stimuli/000635_2014-06-08_16-38-42_260595134347_rgbf000106-resize_1/000635_2014-06-08_16-38-42_260595134347_rgbf000106-resize_1-target.png,1000,2.074,12,11876,1001,meters,jsons/v1_VE1000_randls_6.json,986226,1263188,25,Man
115,386796,DepthScenes,duration_manipulation_targetAtFixation,jsons/v1_VE1000_randls_6.json,http://54.235.29.9/FacialAge/BNav_EC2/DepthDuration/v2_depth_duration_MTurk/v2_DepthDuration_HTML.html#160,160,1707,781,1366,768,9-3-2022,9-12-3,116,depth_duration_stimuli/001170_2014-06-17_15-43-44_260595134347_rgbf000096-resize_6/001170_2014-06-17_15-43-44_260595134347_rgbf000096-resize-original.jpg,1000,1.1909999999999998,0,3163,1000,meters,jsons/v1_VE1000_randls_6.json,986226,1263188,25,Man
116,386796,DepthScenes,duration_manipulation_targetAtFixation,jsons/v1_VE1000_randls_6.json,http://54.235.29.9/FacialAge/BNav_EC2/DepthDuration/v2_depth_duration_MTurk/v2_DepthDuration_HTML.html#160,160,1707,781,1366,768,9-3-2022,9-12-3,117,depth_duration_stimuli/000692_2014-06-08_13-09-42_260595134347_rgbf000199-resize_2/000692_2014-06-08_13-09-42_260595134347_rgbf000199-resize_2-target.png,1000,3.661,15,3755,1001,meters,jsons/v1_VE1000_randls_6.json,986226,1263188,25,Man
117,386796,DepthScenes,duration_manipulation_targetAtFixation,jsons/v1_VE1000_randls_6.json,http://54.235.29.9/FacialAge/BNav_EC2/DepthDuration/v2_depth_duration_MTurk/v2_DepthDuration_HTML.html#160,160,1707,781,1366,768,9-3-2022,9-12-3,118,depth_duration_stimuli/001094_2014-06-15_17-36-00_260595134347_rgbf000205-resize_0/001094_2014-06-15_17-36-00_260595134347_rgbf000205-resize_0-target.png,1000,4.2175,20,3995,1000,meters,jsons/v1_VE1000_randls_6.json,986226,1263188,25,Man
118,386796,DepthScenes,duration_manipulation_targetAtFixation,jsons/v1_VE1000_randls_6.json,http://54.235.29.9/FacialAge/BNav_EC2/DepthDuration/v2_depth_duration_MTurk/v2_DepthDuration_HTML.html#160,160,1707,781,1366,768,9-3-2022,9-12-3,119,depth_duration_stimuli/001199_2014-06-17_16-03-48_260595134347_rgbf000077-resize_0/001199_2014-06-17_16-03-48_260595134347_rgbf000077-resize_0-target.png,1000,3.4375,25,3883,1001,meters,jsons/v1_VE1000_randls_6.json,986226,1263188,25,Man
119,386796,DepthScenes,duration_manipulation_targetAtFixation,jsons/v1_VE1000_randls_6.json,http://54.235.29.9/FacialAge/BNav_EC2/DepthDuration/v2_depth_duration_MTurk/v2_DepthDuration_HTML.html#160,160,1707,781,1366,768,9-3-2022,9-12-3,120,depth_duration_stimuli/000502_2014-06-08_23-02-32_260595134347_rgbf000063-resize_4/000502_2014-06-08_23-02-32_260595134347_rgbf000063-resize_4-target.png,1000,2.431,20,3835,1001,meters,jsons/v1_VE1000_randls_6.json,986226,1263188,25,Man
120,386796,DepthScenes,duration_manipulation_targetAtFixation,jsons/v1_VE1000_randls_6.json,http://54.235.29.9/FacialAge/BNav_EC2/DepthDuration/v2_depth_duration_MTurk/v2_DepthDuration_HTML.html#160,160,1707,781,1366,768,9-3-2022,9-12-3,121,depth_duration_stimuli/002788_2014-06-22_19-36-03_094959634447_rgbf000088-resize_2/002788_2014-06-22_19-36-03_094959634447_rgbf000088-resize_2-target.png,1000,1.6465,20,3723,999,meters,jsons/v1_VE1000_randls_6.json,986226,1263188,25,Man
121,386796,DepthScenes,duration_manipulation_targetAtFixation,jsons/v1_VE1000_randls_6.json,http://54.235.29.9/FacialAge/BNav_EC2/DepthDuration/v2_depth_duration_MTurk/v2_DepthDuration_HTML.html#160,160,1707,781,1366,768,9-3-2022,9-12-3,122,depth_duration_stimuli/000749_2014-06-08_21-55-06_260595134347_rgbf000070-resize_2/000749_2014-06-08_21-55-06_260595134347_rgbf000070-resize_2-target.png,1000,2.331,25,4242,1001,meters,jsons/v1_VE1000_randls_6.json,986226,1263188,25,Man
122,386796,DepthScenes,duration_manipulation_targetAtFixation,jsons/v1_VE1000_randls_6.json,http://54.235.29.9/FacialAge/BNav_EC2/DepthDuration/v2_depth_duration_MTurk/v2_DepthDuration_HTML.html#160,160,1707,781,1366,768,9-3-2022,9-12-3,123,depth_duration_stimuli/001092_2014-06-15_17-34-58_260595134347_rgbf000171-resize_3/001092_2014-06-15_17-34-58_260595134347_rgbf000171-resize_3-target.png,1000,2.6935,20,4460,1000,meters,jsons/v1_VE1000_randls_6.json,986226,1263188,25,Man
123,386796,DepthScenes,duration_manipulation_targetAtFixation,jsons/v1_VE1000_randls_6.json,http://54.235.29.9/FacialAge/BNav_EC2/DepthDuration/v2_depth_duration_MTurk/v2_DepthDuration_HTML.html#160,160,1707,781,1366,768,9-3-2022,9-12-3,124,depth_duration_stimuli/002545_2014-06-24_13-38-53_094959634447_rgbf000080-resize_4/002545_2014-06-24_13-38-53_094959634447_rgbf000080-resize_4-target.png,1000,1.9205,15,3698,999,meters,jsons/v1_VE1000_randls_6.json,986226,1263188,25,Man
124,386796,DepthScenes,duration_manipulation_targetAtFixation,jsons/v1_VE1000_randls_6.json,http://54.235.29.9/FacialAge/BNav_EC2/DepthDuration/v2_depth_duration_MTurk/v2_DepthDuration_HTML.html#160,160,1707,781,1366,768,9-3-2022,9-12-3,125,depth_duration_stimuli/002989_2014-06-15_12-25-03_094959634447_rgbf000150-resize_3/002989_2014-06-15_12-25-03_094959634447_rgbf000150-resize_3-target.png,1000,4.1975,30,4906,1000,meters,jsons/v1_VE1000_randls_6.json,986226,1263188,25,Man
125,386796,DepthScenes,duration_manipulation_targetAtFixation,jsons/v1_VE1000_randls_6.json,http://54.235.29.9/FacialAge/BNav_EC2/DepthDuration/v2_depth_duration_MTurk/v2_DepthDuration_HTML.html#160,160,1707,781,1366,768,9-3-2022,9-12-3,126,depth_duration_stimuli/000866_2014-06-09_20-45-42_260595134347_rgbf000139-resize_1/000866_2014-06-09_20-45-42_260595134347_rgbf000139-resize_1-target.png,1000,3.2155,30,3452,1002,meters,jsons/v1_VE1000_randls_6.json,986226,1263188,25,Man
126,386796,DepthScenes,duration_manipulation_targetAtFixation,jsons/v1_VE1000_randls_6.json,http://54.235.29.9/FacialAge/BNav_EC2/DepthDuration/v2_depth_duration_MTurk/v2_DepthDuration_HTML.html#160,160,1707,781,1366,768,9-3-2022,9-12-3,127,depth_duration_stimuli/000878_2014-06-08_22-52-45_260595134347_rgbf000045-resize_2/000878_2014-06-08_22-52-45_260595134347_rgbf000045-resize_2-target.png,1000,2.092,25,3387,1001,meters,jsons/v1_VE1000_randls_6.json,986226,1263188,25,Man
127,386796,DepthScenes,duration_manipulation_targetAtFixation,jsons/v1_VE1000_randls_6.json,http://54.235.29.9/FacialAge/BNav_EC2/DepthDuration/v2_depth_duration_MTurk/v2_DepthDuration_HTML.html#160,160,1707,781,1366,768,9-3-2022,9-12-3,128,depth_duration_stimuli/002953_2014-06-08_17-32-18_094959634447_rgbf000059-resize_5/002953_2014-06-08_17-32-18_094959634447_rgbf000059-resize_5-target.png,1000,1.551,22,3019,1000,meters,jsons/v1_VE1000_randls_6.json,986226,1263188,25,Man
128,386796,DepthScenes,duration_manipulation_targetAtFixation,jsons/v1_VE1000_randls_6.json,http://54.235.29.9/FacialAge/BNav_EC2/DepthDuration/v2_depth_duration_MTurk/v2_DepthDuration_HTML.html#160,160,1707,781,1366,768,9-3-2022,9-12-3,129,depth_duration_stimuli/000447_2014-06-08_16-15-46_260595134347_rgbf000130-resize_1/000447_2014-06-08_16-15-46_260595134347_rgbf000130-resize_1-target.png,1000,4.479,21,3573,1001,meters,jsons/v1_VE1000_randls_6.json,986226,1263188,25,Man
129,386796,DepthScenes,duration_manipulation_targetAtFixation,jsons/v1_VE1000_randls_6.json,http://54.235.29.9/FacialAge/BNav_EC2/DepthDuration/v2_depth_duration_MTurk/v2_DepthDuration_HTML.html#160,160,1707,781,1366,768,9-3-2022,9-12-3,130,depth_duration_stimuli/001447_2014-06-19_17-00-32_260595134347_rgbf000082-resize_5/001447_2014-06-19_17-00-32_260595134347_rgbf000082-resize_5-target.png,1000,4.13775,10,3915,1001,meters,jsons/v1_VE1000_randls_6.json,986226,1263188,25,Man
130,386796,DepthScenes,duration_manipulation_targetAtFixation,jsons/v1_VE1000_randls_6.json,http://54.235.29.9/FacialAge/BNav_EC2/DepthDuration/v2_depth_duration_MTurk/v2_DepthDuration_HTML.html#160,160,1707,781,1366,768,9-3-2022,9-12-3,131,depth_duration_stimuli/000493_2014-06-09_21-01-18_260595134347_rgbf000196-resize_3/000493_2014-06-09_21-01-18_260595134347_rgbf000196-resize_3-target.png,1000,3.44,12,3292,1000,meters,jsons/v1_VE1000_randls_6.json,986226,1263188,25,Man
131,386796,DepthScenes,duration_manipulation_targetAtFixation,jsons/v1_VE1000_randls_6.json,http://54.235.29.9/FacialAge/BNav_EC2/DepthDuration/v2_depth_duration_MTurk/v2_DepthDuration_HTML.html#160,160,1707,781,1366,768,9-3-2022,9-12-3,132,depth_duration_stimuli/000191_2014-05-12_17-07-38_260595134347_rgbf000199-resize_0/000191_2014-05-12_17-07-38_260595134347_rgbf000199-resize_0-target.png,1000,3.7995,15,3506,999,meters,jsons/v1_VE1000_randls_6.json,986226,1263188,25,Man
132,386796,DepthScenes,duration_manipulation_targetAtFixation,jsons/v1_VE1000_randls_6.json,http://54.235.29.9/FacialAge/BNav_EC2/DepthDuration/v2_depth_duration_MTurk/v2_DepthDuration_HTML.html#160,160,1707,781,1366,768,9-3-2022,9-12-3,133,depth_duration_stimuli/001059_2014-06-08_21-53-27_260595134347_rgbf000061-resize_4/001059_2014-06-08_21-53-27_260595134347_rgbf000061-resize_4-target.png,1000,2.4185,18,4356,1000,meters,jsons/v1_VE1000_randls_6.json,986226,1263188,25,Man
133,386796,DepthScenes,duration_manipulation_targetAtFixation,jsons/v1_VE1000_randls_6.json,http://54.235.29.9/FacialAge/BNav_EC2/DepthDuration/v2_depth_duration_MTurk/v2_DepthDuration_HTML.html#160,160,1707,781,1366,768,9-3-2022,9-12-3,134,depth_duration_stimuli/001032_2014-06-08_13-23-17_260595134347_rgbf000021-resize_3/001032_2014-06-08_13-23-17_260595134347_rgbf000021-resize_3-target.png,1000,3.2725,13,4386,1001,meters,jsons/v1_VE1000_randls_6.json,986226,1263188,25,Man
134,386796,DepthScenes,duration_manipulation_targetAtFixation,jsons/v1_VE1000_randls_6.json,http://54.235.29.9/FacialAge/BNav_EC2/DepthDuration/v2_depth_duration_MTurk/v2_DepthDuration_HTML.html#160,160,1707,781,1366,768,9-3-2022,9-12-3,135,depth_duration_stimuli/002072_2014-06-24_21-48-06_260595134347_rgbf000115-resize_0/002072_2014-06-24_21-48-06_260595134347_rgbf000115-resize-original.jpg,1000,4.702,0,3171,1000,meters,jsons/v1_VE1000_randls_6.json,986226,1263188,25,Man
135,386796,DepthScenes,duration_manipulation_targetAtFixation,jsons/v1_VE1000_randls_6.json,http://54.235.29.9/FacialAge/BNav_EC2/DepthDuration/v2_depth_duration_MTurk/v2_DepthDuration_HTML.html#160,160,1707,781,1366,768,9-3-2022,9-12-3,136,depth_duration_stimuli/001066_2014-06-08_22-03-20_260595134347_rgbf000066-resize_4/001066_2014-06-08_22-03-20_260595134347_rgbf000066-resize_4-target.png,1000,4.2330000000000005,15,3449,998,meters,jsons/v1_VE1000_randls_6.json,986226,1263188,25,Man
136,386796,DepthScenes,duration_manipulation_targetAtFixation,jsons/v1_VE1000_randls_6.json,http://54.235.29.9/FacialAge/BNav_EC2/DepthDuration/v2_depth_duration_MTurk/v2_DepthDuration_HTML.html#160,160,1707,781,1366,768,9-3-2022,9-12-3,137,depth_duration_stimuli/000742_2014-06-08_18-48-09_260595134347_rgbf000164-resize_4/000742_2014-06-08_18-48-09_260595134347_rgbf000164-resize_4-target.png,1000,4.632,13,5578,1000,meters,jsons/v1_VE1000_randls_6.json,986226,1263188,25,Man
137,386796,DepthScenes,duration_manipulation_targetAtFixation,jsons/v1_VE1000_randls_6.json,http://54.235.29.9/FacialAge/BNav_EC2/DepthDuration/v2_depth_duration_MTurk/v2_DepthDuration_HTML.html#160,160,1707,781,1366,768,9-3-2022,9-12-3,138,depth_duration_stimuli/001056_2014-06-08_18-46-44_260595134347_rgbf000068-resize_0/001056_2014-06-08_18-46-44_260595134347_rgbf000068-resize_0-target.png,1000,2.6625,1,3361,1000,meters,jsons/v1_VE1000_randls_6.json,986226,1263188,25,Man
138,386796,DepthScenes,duration_manipulation_targetAtFixation,jsons/v1_VE1000_randls_6.json,http://54.235.29.9/FacialAge/BNav_EC2/DepthDuration/v2_depth_duration_MTurk/v2_DepthDuration_HTML.html#160,160,1707,781,1366,768,9-3-2022,9-12-3,139,depth_duration_stimuli/002199_2014-06-28_18-33-56_260595134347_rgbf000074-resize_0/002199_2014-06-28_18-33-56_260595134347_rgbf000074-resize_0-target.png,1000,1.996,12,3339,1000,meters,jsons/v1_VE1000_randls_6.json,986226,1263188,25,Man
139,386796,DepthScenes,duration_manipulation_targetAtFixation,jsons/v1_VE1000_randls_6.json,http://54.235.29.9/FacialAge/BNav_EC2/DepthDuration/v2_depth_duration_MTurk/v2_DepthDuration_HTML.html#160,160,1707,781,1366,768,9-3-2022,9-12-3,140,depth_duration_stimuli/000436_2014-06-09_22-25-11_260595134347_rgbf000137-resize_1/000436_2014-06-09_22-25-11_260595134347_rgbf000137-resize_1-target.png,1000,4.0705,16,4003,1001,meters,jsons/v1_VE1000_randls_6.json,986226,1263188,25,Man
140,386796,DepthScenes,duration_manipulation_targetAtFixation,jsons/v1_VE1000_randls_6.json,http://54.235.29.9/FacialAge/BNav_EC2/DepthDuration/v2_depth_duration_MTurk/v2_DepthDuration_HTML.html#160,160,1707,781,1366,768,9-3-2022,9-12-3,141,depth_duration_stimuli/002444_2014-06-28_20-32-08_260595134347_rgbf000027-resize_0/002444_2014-06-28_20-32-08_260595134347_rgbf000027-resize_0-target.png,1000,4.388999999999999,13,3531,1001,meters,jsons/v1_VE1000_randls_6.json,986226,1263188,25,Man
141,386796,DepthScenes,duration_manipulation_targetAtFixation,jsons/v1_VE1000_randls_6.json,http://54.235.29.9/FacialAge/BNav_EC2/DepthDuration/v2_depth_duration_MTurk/v2_DepthDuration_HTML.html#160,160,1707,781,1366,768,9-3-2022,9-12-3,142,depth_duration_stimuli/001158_2014-06-17_15-32-16_260595134347_rgbf000138-resize_2/001158_2014-06-17_15-32-16_260595134347_rgbf000138-resize_2-target.png,1000,4.5315,2,3547,1000,meters,jsons/v1_VE1000_randls_6.json,986226,1263188,25,Man
142,386796,DepthScenes,duration_manipulation_targetAtFixation,jsons/v1_VE1000_randls_6.json,http://54.235.29.9/FacialAge/BNav_EC2/DepthDuration/v2_depth_duration_MTurk/v2_DepthDuration_HTML.html#160,160,1707,781,1366,768,9-3-2022,9-12-3,143,depth_duration_stimuli/000556_2014-06-09_22-42-56_260595134347_rgbf000214-resize_1/000556_2014-06-09_22-42-56_260595134347_rgbf000214-resize_1-target.png,1000,4.8415,13,3429,1000,meters,jsons/v1_VE1000_randls_6.json,986226,1263188,25,Man
143,386796,DepthScenes,duration_manipulation_targetAtFixation,jsons/v1_VE1000_randls_6.json,http://54.235.29.9/FacialAge/BNav_EC2/DepthDuration/v2_depth_duration_MTurk/v2_DepthDuration_HTML.html#160,160,1707,781,1366,768,9-3-2022,9-12-3,144,depth_duration_stimuli/001808_2014-06-26_20-50-58_260595134347_rgbf000029-resize_1/001808_2014-06-26_20-50-58_260595134347_rgbf000029-resize_1-target.png,1000,4.249,25,4339,1001,meters,jsons/v1_VE1000_randls_6.json,986226,1263188,25,Man
144,386796,DepthScenes,duration_manipulation_targetAtFixation,jsons/v1_VE1000_randls_6.json,http://54.235.29.9/FacialAge/BNav_EC2/DepthDuration/v2_depth_duration_MTurk/v2_DepthDuration_HTML.html#160,160,1707,781,1366,768,9-3-2022,9-12-3,145,depth_duration_stimuli/001815_2014-06-26_20-52-55_260595134347_rgbf000020-resize_0/001815_2014-06-26_20-52-55_260595134347_rgbf000020-resize_0-target.png,1000,3.3865,15,46225,1000,meters,jsons/v1_VE1000_randls_6.json,986226,1263188,25,Man
145,386796,DepthScenes,duration_manipulation_targetAtFixation,jsons/v1_VE1000_randls_6.json,http://54.235.29.9/FacialAge/BNav_EC2/DepthDuration/v2_depth_duration_MTurk/v2_DepthDuration_HTML.html#160,160,1707,781,1366,768,9-3-2022,9-12-3,146,depth_duration_stimuli/001498_2014-06-19_17-45-14_260595134347_rgbf000129-resize_4/001498_2014-06-19_17-45-14_260595134347_rgbf000129-resize-original.jpg,1000,1.4075,0,3241,999,meters,jsons/v1_VE1000_randls_6.json,986226,1263188,25,Man
146,386796,DepthScenes,duration_manipulation_targetAtFixation,jsons/v1_VE1000_randls_6.json,http://54.235.29.9/FacialAge/BNav_EC2/DepthDuration/v2_depth_duration_MTurk/v2_DepthDuration_HTML.html#160,160,1707,781,1366,768,9-3-2022,9-12-3,147,depth_duration_stimuli/000682_2014-06-08_23-14-58_260595134347_rgbf000041-resize_5/000682_2014-06-08_23-14-58_260595134347_rgbf000041-resize_5-target.png,1000,2.7239999999999998,15,3564,1001,meters,jsons/v1_VE1000_randls_6.json,986226,1263188,25,Man
147,386796,DepthScenes,duration_manipulation_targetAtFixation,jsons/v1_VE1000_randls_6.json,http://54.235.29.9/FacialAge/BNav_EC2/DepthDuration/v2_depth_duration_MTurk/v2_DepthDuration_HTML.html#160,160,1707,781,1366,768,9-3-2022,9-12-3,148,depth_duration_stimuli/001650_2014-06-20_12-09-00_260595134347_rgbf000087-resize_3/001650_2014-06-20_12-09-00_260595134347_rgbf000087-resize_3-target.png,1000,1.9505,26,3788,1002,meters,jsons/v1_VE1000_randls_6.json,986226,1263188,25,Man
148,386796,DepthScenes,duration_manipulation_targetAtFixation,jsons/v1_VE1000_randls_6.json,http://54.235.29.9/FacialAge/BNav_EC2/DepthDuration/v2_depth_duration_MTurk/v2_DepthDuration_HTML.html#160,160,1707,781,1366,768,9-3-2022,9-12-3,149,depth_duration_stimuli/000758_2014-06-08_22-05-08_260595134347_rgbf000085-resize_0/000758_2014-06-08_22-05-08_260595134347_rgbf000085-resize_0-target.png,1000,3.3810000000000002,23,4131,1000,meters,jsons/v1_VE1000_randls_6.json,986226,1263188,25,Man
149,386796,DepthScenes,duration_manipulation_targetAtFixation,jsons/v1_VE1000_randls_6.json,http://54.235.29.9/FacialAge/BNav_EC2/DepthDuration/v2_depth_duration_MTurk/v2_DepthDuration_HTML.html#160,160,1707,781,1366,768,9-3-2022,9-12-3,150,depth_duration_stimuli/000854_2014-06-09_19-43-13_260595134347_rgbf000066-resize_0/000854_2014-06-09_19-43-13_260595134347_rgbf000066-resize_0-target.png,1000,3.068,10,3324,1000,meters,jsons/v1_VE1000_randls_6.json,986226,1263188,25,Man
150,386796,DepthScenes,duration_manipulation_targetAtFixation,jsons/v1_VE1000_randls_6.json,http://54.235.29.9/FacialAge/BNav_EC2/DepthDuration/v2_depth_duration_MTurk/v2_DepthDuration_HTML.html#160,160,1707,781,1366,768,9-3-2022,9-12-3,151,depth_duration_stimuli/002600_2014-06-24_14-27-04_094959634447_rgbf000074-resize_2/002600_2014-06-24_14-27-04_094959634447_rgbf000074-resize_2-target.png,1000,2.7575,15,3803,1001,meters,jsons/v1_VE1000_randls_6.json,986226,1263188,25,Man
151,386796,DepthScenes,duration_manipulation_targetAtFixation,jsons/v1_VE1000_randls_6.json,http://54.235.29.9/FacialAge/BNav_EC2/DepthDuration/v2_depth_duration_MTurk/v2_DepthDuration_HTML.html#160,160,1707,781,1366,768,9-3-2022,9-12-3,152,depth_duration_stimuli/003228_2014-05-14_13-42-35_094959634447_rgbf000101-resize_1/003228_2014-05-14_13-42-35_094959634447_rgbf000101-resize_1-target.png,1000,1.9680000000000002,13,3763,1000,meters,jsons/v1_VE1000_randls_6.json,986226,1263188,25,Man
152,386796,DepthScenes,duration_manipulation_targetAtFixation,jsons/v1_VE1000_randls_6.json,http://54.235.29.9/FacialAge/BNav_EC2/DepthDuration/v2_depth_duration_MTurk/v2_DepthDuration_HTML.html#160,160,1707,781,1366,768,9-3-2022,9-12-3,153,depth_duration_stimuli/001016_2014-06-09_16-16-10_260595134347_rgbf000112-resize_5/001016_2014-06-09_16-16-10_260595134347_rgbf000112-resize_5-target.png,1000,1.6565,20,4220,1000,meters,jsons/v1_VE1000_randls_6.json,986226,1263188,25,Man
153,386796,DepthScenes,duration_manipulation_targetAtFixation,jsons/v1_VE1000_randls_6.json,http://54.235.29.9/FacialAge/BNav_EC2/DepthDuration/v2_depth_duration_MTurk/v2_DepthDuration_HTML.html#160,160,1707,781,1366,768,9-3-2022,9-12-3,154,depth_duration_stimuli/002340_2014-06-28_20-05-46_260595134347_rgbf000113-resize_0/002340_2014-06-28_20-05-46_260595134347_rgbf000113-resize_0-target.png,1000,2.4735,25,3562,1000,meters,jsons/v1_VE1000_randls_6.json,986226,1263188,25,Man
154,386796,DepthScenes,duration_manipulation_targetAtFixation,jsons/v1_VE1000_randls_6.json,http://54.235.29.9/FacialAge/BNav_EC2/DepthDuration/v2_depth_duration_MTurk/v2_DepthDuration_HTML.html#160,160,1707,781,1366,768,9-3-2022,9-12-3,155,depth_duration_stimuli/002118_2014-06-25_20-32-08_260595134347_rgbf000078-resize_1/002118_2014-06-25_20-32-08_260595134347_rgbf000078-resize_1-target.png,1000,2.6460000000000004,20,4332,1000,meters,jsons/v1_VE1000_randls_6.json,986226,1263188,25,Man
155,386796,DepthScenes,duration_manipulation_targetAtFixation,jsons/v1_VE1000_randls_6.json,http://54.235.29.9/FacialAge/BNav_EC2/DepthDuration/v2_depth_duration_MTurk/v2_DepthDuration_HTML.html#160,160,1707,781,1366,768,9-3-2022,9-12-3,156,depth_duration_stimuli/001516_2014-06-20_16-25-09_260595134347_rgbf000076-resize_2/001516_2014-06-20_16-25-09_260595134347_rgbf000076-resize_2-target.png,1000,1.7445,25,3594,1000,meters,jsons/v1_VE1000_randls_6.json,986226,1263188,25,Man
156,386796,DepthScenes,duration_manipulation_targetAtFixation,jsons/v1_VE1000_randls_6.json,http://54.235.29.9/FacialAge/BNav_EC2/DepthDuration/v2_depth_duration_MTurk/v2_DepthDuration_HTML.html#160,160,1707,781,1366,768,9-3-2022,9-12-3,157,depth_duration_stimuli/001167_2014-06-17_15-38-07_260595134347_rgbf000108-resize_0/001167_2014-06-17_15-38-07_260595134347_rgbf000108-resize_0-target.png,1000,1.8505,20,4546,1000,meters,jsons/v1_VE1000_randls_6.json,986226,1263188,25,Man
157,386796,DepthScenes,duration_manipulation_targetAtFixation,jsons/v1_VE1000_randls_6.json,http://54.235.29.9/FacialAge/BNav_EC2/DepthDuration/v2_depth_duration_MTurk/v2_DepthDuration_HTML.html#160,160,1707,781,1366,768,9-3-2022,9-12-3,158,depth_duration_stimuli/003587_2014-05-23_16-48-02_094959634447_rgbf002384-resize_2/003587_2014-05-23_16-48-02_094959634447_rgbf002384-resize_2-target.png,1000,1.357,10,4858,999,meters,jsons/v1_VE1000_randls_6.json,986226,1263188,25,Man
158,386796,DepthScenes,duration_manipulation_targetAtFixation,jsons/v1_VE1000_randls_6.json,http://54.235.29.9/FacialAge/BNav_EC2/DepthDuration/v2_depth_duration_MTurk/v2_DepthDuration_HTML.html#160,160,1707,781,1366,768,9-3-2022,9-12-3,159,depth_duration_stimuli/000486_2014-06-09_20-47-20_260595134347_rgbf000143-resize_2/000486_2014-06-09_20-47-20_260595134347_rgbf000143-resize_2-target.png,1000,4.8325,15,3675,1000,meters,jsons/v1_VE1000_randls_6.json,986226,1263188,25,Man
159,386796,DepthScenes,duration_manipulation_targetAtFixation,jsons/v1_VE1000_randls_6.json,http://54.235.29.9/FacialAge/BNav_EC2/DepthDuration/v2_depth_duration_MTurk/v2_DepthDuration_HTML.html#160,160,1707,781,1366,768,9-3-2022,9-12-3,160,depth_duration_stimuli/003083_2014-06-15_15-21-03_094959634447_rgbf000063-resize_1/003083_2014-06-15_15-21-03_094959634447_rgbf000063-resize_1-target.png,1000,4.1405,20,4091,1001,meters,jsons/v1_VE1000_randls_6.json,986226,1263188,25,Man
160,386796,DepthScenes,duration_manipulation_targetAtFixation,jsons/v1_VE1000_randls_6.json,http://54.235.29.9/FacialAge/BNav_EC2/DepthDuration/v2_depth_duration_MTurk/v2_DepthDuration_HTML.html#160,160,1707,781,1366,768,9-3-2022,9-12-3,161,depth_duration_stimuli/000522_2014-06-08_13-35-06_260595134347_rgbf000244-resize_1/000522_2014-06-08_13-35-06_260595134347_rgbf000244-resize_1-target.png,1000,2.3715,15,3493,1001,meters,jsons/v1_VE1000_randls_6.json,986226,1263188,25,Man
161,386796,DepthScenes,duration_manipulation_targetAtFixation,jsons/v1_VE1000_randls_6.json,http://54.235.29.9/FacialAge/BNav_EC2/DepthDuration/v2_depth_duration_MTurk/v2_DepthDuration_HTML.html#160,160,1707,781,1366,768,9-3-2022,9-12-3,162,depth_duration_stimuli/002949_2014-06-26_15-57-42_094959634447_rgbf000079-resize_1/002949_2014-06-26_15-57-42_094959634447_rgbf000079-resize_1-target.png,1000,1.8915,15,64996,1258,meters,jsons/v1_VE1000_randls_6.json,986226,1263188,25,Man
162,386796,DepthScenes,duration_manipulation_targetAtFixation,jsons/v1_VE1000_randls_6.json,http://54.235.29.9/FacialAge/BNav_EC2/DepthDuration/v2_depth_duration_MTurk/v2_DepthDuration_HTML.html#160,160,1707,781,1366,768,9-3-2022,9-12-3,163,depth_duration_stimuli/001133_2014-06-17_14-49-16_260595134347_rgbf000100-resize_0/001133_2014-06-17_14-49-16_260595134347_rgbf000100-resize_0-target.png,1000,4.2115,20,3201,998,meters,jsons/v1_VE1000_randls_6.json,986226,1263188,25,Man
163,386796,DepthScenes,duration_manipulation_targetAtFixation,jsons/v1_VE1000_randls_6.json,http://54.235.29.9/FacialAge/BNav_EC2/DepthDuration/v2_depth_duration_MTurk/v2_DepthDuration_HTML.html#160,160,1707,781,1366,768,9-3-2022,9-12-3,164,depth_duration_stimuli/001132_2014-06-17_14-48-54_260595134347_rgbf000100-resize_2/001132_2014-06-17_14-48-54_260595134347_rgbf000100-resize_2-target.png,1000,3.753,15,3506,999,meters,jsons/v1_VE1000_randls_6.json,986226,1263188,25,Man
