,subjID,experimentName,versionName,sequenceName,url,selected_row,windowWidth,windowHeight,screenWidth,screenHeight,startDate,startTime,trial,stimulus,duration,actual_depth,depth_estimate,trial_RT,log_sceneDuration,unitSelection,seq_filepath,experimentTime,totalTime,age,gender
0,387128,DepthScenes,duration_manipulation_targetAtFixation,jsons/VE125_randls_31.json,http://54.235.29.9/FacialAge/BNav_EC2/DepthDuration/v2_depth_duration_MTurk/v2_DepthDuration_HTML.html#280,280,1440,789,1440,900,8-29-2022,8-42-34,1,depth_duration_stimuli/001056_2014-06-08_18-46-44_260595134347_rgbf000068-resize_0/001056_2014-06-08_18-46-44_260595134347_rgbf000068-resize_0-target.png,125,2.6625,3,2443,124,meters,jsons/VE125_randls_31.json,676468,1671695,25,Man
1,387128,DepthScenes,duration_manipulation_targetAtFixation,jsons/VE125_randls_31.json,http://54.235.29.9/FacialAge/BNav_EC2/DepthDuration/v2_depth_duration_MTurk/v2_DepthDuration_HTML.html#280,280,1440,789,1440,900,8-29-2022,8-42-34,2,depth_duration_stimuli/002199_2014-06-28_18-33-56_260595134347_rgbf000074-resize_0/002199_2014-06-28_18-33-56_260595134347_rgbf000074-resize_0-target.png,125,1.996,5,2828,125,meters,jsons/VE125_randls_31.json,676468,1671695,25,Man
2,387128,DepthScenes,duration_manipulation_targetAtFixation,jsons/VE125_randls_31.json,http://54.235.29.9/FacialAge/BNav_EC2/DepthDuration/v2_depth_duration_MTurk/v2_DepthDuration_HTML.html#280,280,1440,789,1440,900,8-29-2022,8-42-34,3,depth_duration_stimuli/000642_2014-06-08_16-59-25_260595134347_rgbf000098-resize_2/000642_2014-06-08_16-59-25_260595134347_rgbf000098-resize_2-target.png,125,2.8815,3,2675,138,meters,jsons/VE125_randls_31.json,676468,1671695,25,Man
3,387128,DepthScenes,duration_manipulation_targetAtFixation,jsons/VE125_randls_31.json,http://54.235.29.9/FacialAge/BNav_EC2/DepthDuration/v2_depth_duration_MTurk/v2_DepthDuration_HTML.html#280,280,1440,789,1440,900,8-29-2022,8-42-34,4,depth_duration_stimuli/002425_2014-06-28_20-27-29_260595134347_rgbf000031-resize_8/002425_2014-06-28_20-27-29_260595134347_rgbf000031-resize_8-target.png,125,3.8960000000000004,3,2417,123,meters,jsons/VE125_randls_31.json,676468,1671695,25,Man
4,387128,DepthScenes,duration_manipulation_targetAtFixation,jsons/VE125_randls_31.json,http://54.235.29.9/FacialAge/BNav_EC2/DepthDuration/v2_depth_duration_MTurk/v2_DepthDuration_HTML.html#280,280,1440,789,1440,900,8-29-2022,8-42-34,5,depth_duration_stimuli/002600_2014-06-24_14-27-04_094959634447_rgbf000074-resize_2/002600_2014-06-24_14-27-04_094959634447_rgbf000074-resize_2-target.png,125,2.7575,5,2940,117,meters,jsons/VE125_randls_31.json,676468,1671695,25,Man
5,387128,DepthScenes,duration_manipulation_targetAtFixation,jsons/VE125_randls_31.json,http://54.235.29.9/FacialAge/BNav_EC2/DepthDuration/v2_depth_duration_MTurk/v2_DepthDuration_HTML.html#280,280,1440,789,1440,900,8-29-2022,8-42-34,6,depth_duration_stimuli/003228_2014-05-14_13-42-35_094959634447_rgbf000101-resize_1/003228_2014-05-14_13-42-35_094959634447_rgbf000101-resize_1-target.png,125,1.9680000000000002,3,2880,116,meters,jsons/VE125_randls_31.json,676468,1671695,25,Man
6,387128,DepthScenes,duration_manipulation_targetAtFixation,jsons/VE125_randls_31.json,http://54.235.29.9/FacialAge/BNav_EC2/DepthDuration/v2_depth_duration_MTurk/v2_DepthDuration_HTML.html#280,280,1440,789,1440,900,8-29-2022,8-42-34,7,depth_duration_stimuli/002445_2014-06-28_20-32-16_260595134347_rgbf000029-resize_4/002445_2014-06-28_20-32-16_260595134347_rgbf000029-resize_4-target.png,125,2.5315,5,81200,109,meters,jsons/VE125_randls_31.json,676468,1671695,25,Man
7,387128,DepthScenes,duration_manipulation_targetAtFixation,jsons/VE125_randls_31.json,http://54.235.29.9/FacialAge/BNav_EC2/DepthDuration/v2_depth_duration_MTurk/v2_DepthDuration_HTML.html#280,280,1440,789,1440,900,8-29-2022,8-42-34,8,depth_duration_stimuli/000780_2014-06-08_22-28-29_260595134347_rgbf000126-resize_1/000780_2014-06-08_22-28-29_260595134347_rgbf000126-resize_1-target.png,125,3.3825,3,2568,123,meters,jsons/VE125_randls_31.json,676468,1671695,25,Man
8,387128,DepthScenes,duration_manipulation_targetAtFixation,jsons/VE125_randls_31.json,http://54.235.29.9/FacialAge/BNav_EC2/DepthDuration/v2_depth_duration_MTurk/v2_DepthDuration_HTML.html#280,280,1440,789,1440,900,8-29-2022,8-42-34,9,depth_duration_stimuli/002989_2014-06-15_12-25-03_094959634447_rgbf000150-resize_3/002989_2014-06-15_12-25-03_094959634447_rgbf000150-resize_3-target.png,125,4.1975,5,2611,125,meters,jsons/VE125_randls_31.json,676468,1671695,25,Man
9,387128,DepthScenes,duration_manipulation_targetAtFixation,jsons/VE125_randls_31.json,http://54.235.29.9/FacialAge/BNav_EC2/DepthDuration/v2_depth_duration_MTurk/v2_DepthDuration_HTML.html#280,280,1440,789,1440,900,8-29-2022,8-42-34,10,depth_duration_stimuli/000866_2014-06-09_20-45-42_260595134347_rgbf000139-resize_1/000866_2014-06-09_20-45-42_260595134347_rgbf000139-resize_1-target.png,125,3.2155,7,2909,123,meters,jsons/VE125_randls_31.json,676468,1671695,25,Man
10,387128,DepthScenes,duration_manipulation_targetAtFixation,jsons/VE125_randls_31.json,http://54.235.29.9/FacialAge/BNav_EC2/DepthDuration/v2_depth_duration_MTurk/v2_DepthDuration_HTML.html#280,280,1440,789,1440,900,8-29-2022,8-42-34,11,depth_duration_stimuli/001175_2014-06-17_15-45-55_260595134347_rgbf000129-resize_4/001175_2014-06-17_15-45-55_260595134347_rgbf000129-resize_4-target.png,125,4.255,3,2577,124,meters,jsons/VE125_randls_31.json,676468,1671695,25,Man
11,387128,DepthScenes,duration_manipulation_targetAtFixation,jsons/VE125_randls_31.json,http://54.235.29.9/FacialAge/BNav_EC2/DepthDuration/v2_depth_duration_MTurk/v2_DepthDuration_HTML.html#280,280,1440,789,1440,900,8-29-2022,8-42-34,12,depth_duration_stimuli/003490_2014-05-21_15-50-11_094959634447_rgbf000101-resize_3/003490_2014-05-21_15-50-11_094959634447_rgbf000101-resize_3-target.png,125,3.6445,6,3736,113,meters,jsons/VE125_randls_31.json,676468,1671695,25,Man
12,387128,DepthScenes,duration_manipulation_targetAtFixation,jsons/VE125_randls_31.json,http://54.235.29.9/FacialAge/BNav_EC2/DepthDuration/v2_depth_duration_MTurk/v2_DepthDuration_HTML.html#280,280,1440,789,1440,900,8-29-2022,8-42-34,13,depth_duration_stimuli/000569_2014-06-09_22-51-47_260595134347_rgbf000141-resize_3/000569_2014-06-09_22-51-47_260595134347_rgbf000141-resize-original.jpg,125,4.512,0,2577,119,meters,jsons/VE125_randls_31.json,676468,1671695,25,Man
13,387128,DepthScenes,duration_manipulation_targetAtFixation,jsons/VE125_randls_31.json,http://54.235.29.9/FacialAge/BNav_EC2/DepthDuration/v2_depth_duration_MTurk/v2_DepthDuration_HTML.html#280,280,1440,789,1440,900,8-29-2022,8-42-34,14,depth_duration_stimuli/000758_2014-06-08_22-05-08_260595134347_rgbf000085-resize_0/000758_2014-06-08_22-05-08_260595134347_rgbf000085-resize_0-target.png,125,3.3810000000000002,3,2259,125,meters,jsons/VE125_randls_31.json,676468,1671695,25,Man
14,387128,DepthScenes,duration_manipulation_targetAtFixation,jsons/VE125_randls_31.json,http://54.235.29.9/FacialAge/BNav_EC2/DepthDuration/v2_depth_duration_MTurk/v2_DepthDuration_HTML.html#280,280,1440,789,1440,900,8-29-2022,8-42-34,15,depth_duration_stimuli/000854_2014-06-09_19-43-13_260595134347_rgbf000066-resize_0/000854_2014-06-09_19-43-13_260595134347_rgbf000066-resize_0-target.png,125,3.068,3,2538,119,meters,jsons/VE125_randls_31.json,676468,1671695,25,Man
15,387128,DepthScenes,duration_manipulation_targetAtFixation,jsons/VE125_randls_31.json,http://54.235.29.9/FacialAge/BNav_EC2/DepthDuration/v2_depth_duration_MTurk/v2_DepthDuration_HTML.html#280,280,1440,789,1440,900,8-29-2022,8-42-34,16,depth_duration_stimuli/001029_2014-06-08_13-17-57_260595134347_rgbf000065-resize_1/001029_2014-06-08_13-17-57_260595134347_rgbf000065-resize_1-target.png,125,3.0835,5,23973,124,meters,jsons/VE125_randls_31.json,676468,1671695,25,Man
16,387128,DepthScenes,duration_manipulation_targetAtFixation,jsons/VE125_randls_31.json,http://54.235.29.9/FacialAge/BNav_EC2/DepthDuration/v2_depth_duration_MTurk/v2_DepthDuration_HTML.html#280,280,1440,789,1440,900,8-29-2022,8-42-34,17,depth_duration_stimuli/000677_2014-06-08_23-10-32_260595134347_rgbf000158-resize_6/000677_2014-06-08_23-10-32_260595134347_rgbf000158-resize_6-target.png,125,3.556,0,3389,111,meters,jsons/VE125_randls_31.json,676468,1671695,25,Man
17,387128,DepthScenes,duration_manipulation_targetAtFixation,jsons/VE125_randls_31.json,http://54.235.29.9/FacialAge/BNav_EC2/DepthDuration/v2_depth_duration_MTurk/v2_DepthDuration_HTML.html#280,280,1440,789,1440,900,8-29-2022,8-42-34,18,depth_duration_stimuli/000493_2014-06-09_21-01-18_260595134347_rgbf000196-resize_3/000493_2014-06-09_21-01-18_260595134347_rgbf000196-resize_3-target.png,125,3.44,4,8237,139,meters,jsons/VE125_randls_31.json,676468,1671695,25,Man
18,387128,DepthScenes,duration_manipulation_targetAtFixation,jsons/VE125_randls_31.json,http://54.235.29.9/FacialAge/BNav_EC2/DepthDuration/v2_depth_duration_MTurk/v2_DepthDuration_HTML.html#280,280,1440,789,1440,900,8-29-2022,8-42-34,19,depth_duration_stimuli/000191_2014-05-12_17-07-38_260595134347_rgbf000199-resize_0/000191_2014-05-12_17-07-38_260595134347_rgbf000199-resize_0-target.png,125,3.7995,3,2502,115,meters,jsons/VE125_randls_31.json,676468,1671695,25,Man
19,387128,DepthScenes,duration_manipulation_targetAtFixation,jsons/VE125_randls_31.json,http://54.235.29.9/FacialAge/BNav_EC2/DepthDuration/v2_depth_duration_MTurk/v2_DepthDuration_HTML.html#280,280,1440,789,1440,900,8-29-2022,8-42-34,20,depth_duration_stimuli/001570_2014-06-20_17-21-09_260595134347_rgbf000135-resize_4/001570_2014-06-20_17-21-09_260595134347_rgbf000135-resize_4-target.png,125,4.467,5,47382,125,meters,jsons/VE125_randls_31.json,676468,1671695,25,Man
20,387128,DepthScenes,duration_manipulation_targetAtFixation,jsons/VE125_randls_31.json,http://54.235.29.9/FacialAge/BNav_EC2/DepthDuration/v2_depth_duration_MTurk/v2_DepthDuration_HTML.html#280,280,1440,789,1440,900,8-29-2022,8-42-34,21,depth_duration_stimuli/001392_2014-06-19_16-07-59_260595134347_rgbf000046-resize_1/001392_2014-06-19_16-07-59_260595134347_rgbf000046-resize_1-target.png,125,4.135,3,2579,111,meters,jsons/VE125_randls_31.json,676468,1671695,25,Man
21,387128,DepthScenes,duration_manipulation_targetAtFixation,jsons/VE125_randls_31.json,http://54.235.29.9/FacialAge/BNav_EC2/DepthDuration/v2_depth_duration_MTurk/v2_DepthDuration_HTML.html#280,280,1440,789,1440,900,8-29-2022,8-42-34,22,depth_duration_stimuli/001059_2014-06-08_21-53-27_260595134347_rgbf000061-resize_4/001059_2014-06-08_21-53-27_260595134347_rgbf000061-resize_4-target.png,125,2.4185,3,2435,130,meters,jsons/VE125_randls_31.json,676468,1671695,25,Man
22,387128,DepthScenes,duration_manipulation_targetAtFixation,jsons/VE125_randls_31.json,http://54.235.29.9/FacialAge/BNav_EC2/DepthDuration/v2_depth_duration_MTurk/v2_DepthDuration_HTML.html#280,280,1440,789,1440,900,8-29-2022,8-42-34,23,depth_duration_stimuli/001032_2014-06-08_13-23-17_260595134347_rgbf000021-resize_3/001032_2014-06-08_13-23-17_260595134347_rgbf000021-resize_3-target.png,125,3.2725,5,5361,90,meters,jsons/VE125_randls_31.json,676468,1671695,25,Man
23,387128,DepthScenes,duration_manipulation_targetAtFixation,jsons/VE125_randls_31.json,http://54.235.29.9/FacialAge/BNav_EC2/DepthDuration/v2_depth_duration_MTurk/v2_DepthDuration_HTML.html#280,280,1440,789,1440,900,8-29-2022,8-42-34,24,depth_duration_stimuli/002043_2014-06-24_20-29-38_260595134347_rgbf000039-resize_4/002043_2014-06-24_20-29-38_260595134347_rgbf000039-resize_4-target.png,125,2.8435,6,3825,127,meters,jsons/VE125_randls_31.json,676468,1671695,25,Man
24,387128,DepthScenes,duration_manipulation_targetAtFixation,jsons/VE125_randls_31.json,http://54.235.29.9/FacialAge/BNav_EC2/DepthDuration/v2_depth_duration_MTurk/v2_DepthDuration_HTML.html#280,280,1440,789,1440,900,8-29-2022,8-42-34,25,depth_duration_stimuli/003048_2014-06-15_13-49-43_094959634447_rgbf000150-resize_1/003048_2014-06-15_13-49-43_094959634447_rgbf000150-resize_1-target.png,125,4.0035,2,3593,121,meters,jsons/VE125_randls_31.json,676468,1671695,25,Man
25,387128,DepthScenes,duration_manipulation_targetAtFixation,jsons/VE125_randls_31.json,http://54.235.29.9/FacialAge/BNav_EC2/DepthDuration/v2_depth_duration_MTurk/v2_DepthDuration_HTML.html#280,280,1440,789,1440,900,8-29-2022,8-42-34,26,depth_duration_stimuli/000917_2014-06-09_22-45-29_260595134347_rgbf000149-resize_3/000917_2014-06-09_22-45-29_260595134347_rgbf000149-resize_3-target.png,125,4.1865,0,2477,135,meters,jsons/VE125_randls_31.json,676468,1671695,25,Man
26,387128,DepthScenes,duration_manipulation_targetAtFixation,jsons/VE125_randls_31.json,http://54.235.29.9/FacialAge/BNav_EC2/DepthDuration/v2_depth_duration_MTurk/v2_DepthDuration_HTML.html#280,280,1440,789,1440,900,8-29-2022,8-42-34,27,depth_duration_stimuli/002323_2014-06-28_20-01-54_260595134347_rgbf000051-resize_4/002323_2014-06-28_20-01-54_260595134347_rgbf000051-resize_4-target.png,125,3.7310000000000003,3,2844,126,meters,jsons/VE125_randls_31.json,676468,1671695,25,Man
27,387128,DepthScenes,duration_manipulation_targetAtFixation,jsons/VE125_randls_31.json,http://54.235.29.9/FacialAge/BNav_EC2/DepthDuration/v2_depth_duration_MTurk/v2_DepthDuration_HTML.html#280,280,1440,789,1440,900,8-29-2022,8-42-34,28,depth_duration_stimuli/001066_2014-06-08_22-03-20_260595134347_rgbf000066-resize_4/001066_2014-06-08_22-03-20_260595134347_rgbf000066-resize_4-target.png,125,4.2330000000000005,2,2707,135,meters,jsons/VE125_randls_31.json,676468,1671695,25,Man
28,387128,DepthScenes,duration_manipulation_targetAtFixation,jsons/VE125_randls_31.json,http://54.235.29.9/FacialAge/BNav_EC2/DepthDuration/v2_depth_duration_MTurk/v2_DepthDuration_HTML.html#280,280,1440,789,1440,900,8-29-2022,8-42-34,29,depth_duration_stimuli/000742_2014-06-08_18-48-09_260595134347_rgbf000164-resize_4/000742_2014-06-08_18-48-09_260595134347_rgbf000164-resize_4-target.png,125,4.632,3,2250,130,meters,jsons/VE125_randls_31.json,676468,1671695,25,Man
29,387128,DepthScenes,duration_manipulation_targetAtFixation,jsons/VE125_randls_31.json,http://54.235.29.9/FacialAge/BNav_EC2/DepthDuration/v2_depth_duration_MTurk/v2_DepthDuration_HTML.html#280,280,1440,789,1440,900,8-29-2022,8-42-34,30,depth_duration_stimuli/000375_2014-06-08_11-17-29_260595134347_rgbf000133-resize_2/000375_2014-06-08_11-17-29_260595134347_rgbf000133-resize-original.jpg,125,4.718,0,2265,126,meters,jsons/VE125_randls_31.json,676468,1671695,25,Man
30,387128,DepthScenes,duration_manipulation_targetAtFixation,jsons/VE125_randls_31.json,http://54.235.29.9/FacialAge/BNav_EC2/DepthDuration/v2_depth_duration_MTurk/v2_DepthDuration_HTML.html#280,280,1440,789,1440,900,8-29-2022,8-42-34,31,depth_duration_stimuli/002725_2014-06-22_11-47-51_094959634447_rgbf000070-resize_1/002725_2014-06-22_11-47-51_094959634447_rgbf000070-resize_1-target.png,125,2.195,5,2236,128,meters,jsons/VE125_randls_31.json,676468,1671695,25,Man
31,387128,DepthScenes,duration_manipulation_targetAtFixation,jsons/VE125_randls_31.json,http://54.235.29.9/FacialAge/BNav_EC2/DepthDuration/v2_depth_duration_MTurk/v2_DepthDuration_HTML.html#280,280,1440,789,1440,900,8-29-2022,8-42-34,32,depth_duration_stimuli/002344_2014-06-28_20-06-29_260595134347_rgbf000030-resize_1/002344_2014-06-28_20-06-29_260595134347_rgbf000030-resize_1-target.png,125,1.5795,5,2086,111,meters,jsons/VE125_randls_31.json,676468,1671695,25,Man
32,387128,DepthScenes,duration_manipulation_targetAtFixation,jsons/VE125_randls_31.json,http://54.235.29.9/FacialAge/BNav_EC2/DepthDuration/v2_depth_duration_MTurk/v2_DepthDuration_HTML.html#280,280,1440,789,1440,900,8-29-2022,8-42-34,33,depth_duration_stimuli/002549_2014-06-24_13-41-39_094959634447_rgbf000022-resize_3/002549_2014-06-24_13-41-39_094959634447_rgbf000022-resize_3-target.png,125,1.476,8,2300,119,meters,jsons/VE125_randls_31.json,676468,1671695,25,Man
33,387128,DepthScenes,duration_manipulation_targetAtFixation,jsons/VE125_randls_31.json,http://54.235.29.9/FacialAge/BNav_EC2/DepthDuration/v2_depth_duration_MTurk/v2_DepthDuration_HTML.html#280,280,1440,789,1440,900,8-29-2022,8-42-34,34,depth_duration_stimuli/002750_2014-06-22_19-08-03_094959634447_rgbf000094-resize_4/002750_2014-06-22_19-08-03_094959634447_rgbf000094-resize_4-target.png,125,2.354,5,2383,121,meters,jsons/VE125_randls_31.json,676468,1671695,25,Man
34,387128,DepthScenes,duration_manipulation_targetAtFixation,jsons/VE125_randls_31.json,http://54.235.29.9/FacialAge/BNav_EC2/DepthDuration/v2_depth_duration_MTurk/v2_DepthDuration_HTML.html#280,280,1440,789,1440,900,8-29-2022,8-42-34,35,depth_duration_stimuli/002663_2014-06-13_15-50-26_094959634447_rgbf000075-resize_1/002663_2014-06-13_15-50-26_094959634447_rgbf000075-resize_1-target.png,125,4.7495,4,2919,131,meters,jsons/VE125_randls_31.json,676468,1671695,25,Man
35,387128,DepthScenes,duration_manipulation_targetAtFixation,jsons/VE125_randls_31.json,http://54.235.29.9/FacialAge/BNav_EC2/DepthDuration/v2_depth_duration_MTurk/v2_DepthDuration_HTML.html#280,280,1440,789,1440,900,8-29-2022,8-42-34,36,depth_duration_stimuli/000409_2014-06-04_19-23-33_260595134347_rgbf000067-resize_0/000409_2014-06-04_19-23-33_260595134347_rgbf000067-resize_0-target.png,125,3.7335,6,2497,123,meters,jsons/VE125_randls_31.json,676468,1671695,25,Man
36,387128,DepthScenes,duration_manipulation_targetAtFixation,jsons/VE125_randls_31.json,http://54.235.29.9/FacialAge/BNav_EC2/DepthDuration/v2_depth_duration_MTurk/v2_DepthDuration_HTML.html#280,280,1440,789,1440,900,8-29-2022,8-42-34,37,depth_duration_stimuli/001110_2014-06-15_17-25-28_260595134347_rgbf000150-resize_1/001110_2014-06-15_17-25-28_260595134347_rgbf000150-resize_1-target.png,125,1.7115,5,2100,125,meters,jsons/VE125_randls_31.json,676468,1671695,25,Man
37,387128,DepthScenes,duration_manipulation_targetAtFixation,jsons/VE125_randls_31.json,http://54.235.29.9/FacialAge/BNav_EC2/DepthDuration/v2_depth_duration_MTurk/v2_DepthDuration_HTML.html#280,280,1440,789,1440,900,8-29-2022,8-42-34,38,depth_duration_stimuli/000927_2014-06-09_16-32-30_260595134347_rgbf000123-resize_3/000927_2014-06-09_16-32-30_260595134347_rgbf000123-resize_3-target.png,125,2.6785,1,2337,121,meters,jsons/VE125_randls_31.json,676468,1671695,25,Man
38,387128,DepthScenes,duration_manipulation_targetAtFixation,jsons/VE125_randls_31.json,http://54.235.29.9/FacialAge/BNav_EC2/DepthDuration/v2_depth_duration_MTurk/v2_DepthDuration_HTML.html#280,280,1440,789,1440,900,8-29-2022,8-42-34,39,depth_duration_stimuli/003292_2014-05-14_21-53-49_094959634447_rgbf000100-resize_2/003292_2014-05-14_21-53-49_094959634447_rgbf000100-resize_2-target.png,125,3.4815,3,3446,124,meters,jsons/VE125_randls_31.json,676468,1671695,25,Man
39,387128,DepthScenes,duration_manipulation_targetAtFixation,jsons/VE125_randls_31.json,http://54.235.29.9/FacialAge/BNav_EC2/DepthDuration/v2_depth_duration_MTurk/v2_DepthDuration_HTML.html#280,280,1440,789,1440,900,8-29-2022,8-42-34,40,depth_duration_stimuli/002639_2014-06-24_14-51-37_094959634447_rgbf000074-resize_4/002639_2014-06-24_14-51-37_094959634447_rgbf000074-resize_4-target.png,125,4.0375,2,2266,120,meters,jsons/VE125_randls_31.json,676468,1671695,25,Man
40,387128,DepthScenes,duration_manipulation_targetAtFixation,jsons/VE125_randls_31.json,http://54.235.29.9/FacialAge/BNav_EC2/DepthDuration/v2_depth_duration_MTurk/v2_DepthDuration_HTML.html#280,280,1440,789,1440,900,8-29-2022,8-42-34,41,depth_duration_stimuli/000878_2014-06-08_22-52-45_260595134347_rgbf000045-resize_2/000878_2014-06-08_22-52-45_260595134347_rgbf000045-resize_2-target.png,125,2.092,5,2139,134,meters,jsons/VE125_randls_31.json,676468,1671695,25,Man
41,387128,DepthScenes,duration_manipulation_targetAtFixation,jsons/VE125_randls_31.json,http://54.235.29.9/FacialAge/BNav_EC2/DepthDuration/v2_depth_duration_MTurk/v2_DepthDuration_HTML.html#280,280,1440,789,1440,900,8-29-2022,8-42-34,42,depth_duration_stimuli/002953_2014-06-08_17-32-18_094959634447_rgbf000059-resize_5/002953_2014-06-08_17-32-18_094959634447_rgbf000059-resize_5-target.png,125,1.551,5,4387,116,meters,jsons/VE125_randls_31.json,676468,1671695,25,Man
42,387128,DepthScenes,duration_manipulation_targetAtFixation,jsons/VE125_randls_31.json,http://54.235.29.9/FacialAge/BNav_EC2/DepthDuration/v2_depth_duration_MTurk/v2_DepthDuration_HTML.html#280,280,1440,789,1440,900,8-29-2022,8-42-34,43,depth_duration_stimuli/002788_2014-06-22_19-36-03_094959634447_rgbf000088-resize_2/002788_2014-06-22_19-36-03_094959634447_rgbf000088-resize_2-target.png,125,1.6465,8,2179,127,meters,jsons/VE125_randls_31.json,676468,1671695,25,Man
43,387128,DepthScenes,duration_manipulation_targetAtFixation,jsons/VE125_randls_31.json,http://54.235.29.9/FacialAge/BNav_EC2/DepthDuration/v2_depth_duration_MTurk/v2_DepthDuration_HTML.html#280,280,1440,789,1440,900,8-29-2022,8-42-34,44,depth_duration_stimuli/000749_2014-06-08_21-55-06_260595134347_rgbf000070-resize_2/000749_2014-06-08_21-55-06_260595134347_rgbf000070-resize_2-target.png,125,2.331,10,3117,134,meters,jsons/VE125_randls_31.json,676468,1671695,25,Man
44,387128,DepthScenes,duration_manipulation_targetAtFixation,jsons/VE125_randls_31.json,http://54.235.29.9/FacialAge/BNav_EC2/DepthDuration/v2_depth_duration_MTurk/v2_DepthDuration_HTML.html#280,280,1440,789,1440,900,8-29-2022,8-42-34,45,depth_duration_stimuli/000787_2014-06-08_22-33-53_260595134347_rgbf000175-resize_1/000787_2014-06-08_22-33-53_260595134347_rgbf000175-resize-original.jpg,125,4.784,0,2183,122,meters,jsons/VE125_randls_31.json,676468,1671695,25,Man
45,387128,DepthScenes,duration_manipulation_targetAtFixation,jsons/VE125_randls_31.json,http://54.235.29.9/FacialAge/BNav_EC2/DepthDuration/v2_depth_duration_MTurk/v2_DepthDuration_HTML.html#280,280,1440,789,1440,900,8-29-2022,8-42-34,46,depth_duration_stimuli/002509_2014-06-24_13-19-22_094959634447_rgbf000077-resize_0/002509_2014-06-24_13-19-22_094959634447_rgbf000077-resize_0-target.png,125,1.3065,0,2403,90,meters,jsons/VE125_randls_31.json,676468,1671695,25,Man
46,387128,DepthScenes,duration_manipulation_targetAtFixation,jsons/VE125_randls_31.json,http://54.235.29.9/FacialAge/BNav_EC2/DepthDuration/v2_depth_duration_MTurk/v2_DepthDuration_HTML.html#280,280,1440,789,1440,900,8-29-2022,8-42-34,47,depth_duration_stimuli/003338_2014-05-20_11-01-23_094959634447_rgbf000051-resize_6/003338_2014-05-20_11-01-23_094959634447_rgbf000051-resize_6-target.png,125,1.693,5,2263,91,meters,jsons/VE125_randls_31.json,676468,1671695,25,Man
47,387128,DepthScenes,duration_manipulation_targetAtFixation,jsons/VE125_randls_31.json,http://54.235.29.9/FacialAge/BNav_EC2/DepthDuration/v2_depth_duration_MTurk/v2_DepthDuration_HTML.html#280,280,1440,789,1440,900,8-29-2022,8-42-34,48,depth_duration_stimuli/002630_2014-06-24_14-47-50_094959634447_rgbf000055-resize_1/002630_2014-06-24_14-47-50_094959634447_rgbf000055-resize_1-target.png,125,3.0095,12,2514,122,meters,jsons/VE125_randls_31.json,676468,1671695,25,Man
48,387128,DepthScenes,duration_manipulation_targetAtFixation,jsons/VE125_randls_31.json,http://54.235.29.9/FacialAge/BNav_EC2/DepthDuration/v2_depth_duration_MTurk/v2_DepthDuration_HTML.html#280,280,1440,789,1440,900,8-29-2022,8-42-34,49,depth_duration_stimuli/002758_2014-06-22_19-11-20_094959634447_rgbf000128-resize_1/002758_2014-06-22_19-11-20_094959634447_rgbf000128-resize_1-target.png,125,2.555,5,2640,121,meters,jsons/VE125_randls_31.json,676468,1671695,25,Man
49,387128,DepthScenes,duration_manipulation_targetAtFixation,jsons/VE125_randls_31.json,http://54.235.29.9/FacialAge/BNav_EC2/DepthDuration/v2_depth_duration_MTurk/v2_DepthDuration_HTML.html#280,280,1440,789,1440,900,8-29-2022,8-42-34,50,depth_duration_stimuli/002118_2014-06-25_20-32-08_260595134347_rgbf000078-resize_1/002118_2014-06-25_20-32-08_260595134347_rgbf000078-resize_1-target.png,125,2.6460000000000004,6,2178,125,meters,jsons/VE125_randls_31.json,676468,1671695,25,Man
50,387128,DepthScenes,duration_manipulation_targetAtFixation,jsons/VE125_randls_31.json,http://54.235.29.9/FacialAge/BNav_EC2/DepthDuration/v2_depth_duration_MTurk/v2_DepthDuration_HTML.html#280,280,1440,789,1440,900,8-29-2022,8-42-34,51,depth_duration_stimuli/001516_2014-06-20_16-25-09_260595134347_rgbf000076-resize_2/001516_2014-06-20_16-25-09_260595134347_rgbf000076-resize_2-target.png,125,1.7445,4,2190,118,meters,jsons/VE125_randls_31.json,676468,1671695,25,Man
51,387128,DepthScenes,duration_manipulation_targetAtFixation,jsons/VE125_randls_31.json,http://54.235.29.9/FacialAge/BNav_EC2/DepthDuration/v2_depth_duration_MTurk/v2_DepthDuration_HTML.html#280,280,1440,789,1440,900,8-29-2022,8-42-34,52,depth_duration_stimuli/001167_2014-06-17_15-38-07_260595134347_rgbf000108-resize_0/001167_2014-06-17_15-38-07_260595134347_rgbf000108-resize_0-target.png,125,1.8505,8,2327,113,meters,jsons/VE125_randls_31.json,676468,1671695,25,Man
52,387128,DepthScenes,duration_manipulation_targetAtFixation,jsons/VE125_randls_31.json,http://54.235.29.9/FacialAge/BNav_EC2/DepthDuration/v2_depth_duration_MTurk/v2_DepthDuration_HTML.html#280,280,1440,789,1440,900,8-29-2022,8-42-34,53,depth_duration_stimuli/003587_2014-05-23_16-48-02_094959634447_rgbf002384-resize_2/003587_2014-05-23_16-48-02_094959634447_rgbf002384-resize_2-target.png,125,1.357,8,2651,125,meters,jsons/VE125_randls_31.json,676468,1671695,25,Man
53,387128,DepthScenes,duration_manipulation_targetAtFixation,jsons/VE125_randls_31.json,http://54.235.29.9/FacialAge/BNav_EC2/DepthDuration/v2_depth_duration_MTurk/v2_DepthDuration_HTML.html#280,280,1440,789,1440,900,8-29-2022,8-42-34,54,depth_duration_stimuli/000906_2014-06-08_13-35-43_260595134347_rgbf000155-resize_1/000906_2014-06-08_13-35-43_260595134347_rgbf000155-resize_1-target.png,125,2.8489999999999998,5,2497,118,meters,jsons/VE125_randls_31.json,676468,1671695,25,Man
54,387128,DepthScenes,duration_manipulation_targetAtFixation,jsons/VE125_randls_31.json,http://54.235.29.9/FacialAge/BNav_EC2/DepthDuration/v2_depth_duration_MTurk/v2_DepthDuration_HTML.html#280,280,1440,789,1440,900,8-29-2022,8-42-34,55,depth_duration_stimuli/002805_2014-06-22_19-54-03_094959634447_rgbf000079-resize_1/002805_2014-06-22_19-54-03_094959634447_rgbf000079-resize_1-target.png,125,3.1439999999999997,5,2798,113,meters,jsons/VE125_randls_31.json,676468,1671695,25,Man
55,387128,DepthScenes,duration_manipulation_targetAtFixation,jsons/VE125_randls_31.json,http://54.235.29.9/FacialAge/BNav_EC2/DepthDuration/v2_depth_duration_MTurk/v2_DepthDuration_HTML.html#280,280,1440,789,1440,900,8-29-2022,8-42-34,56,depth_duration_stimuli/000469_2014-06-09_19-42-10_260595134347_rgbf000081-resize_1/000469_2014-06-09_19-42-10_260595134347_rgbf000081-resize_1-target.png,125,1.652,5,3508,122,meters,jsons/VE125_randls_31.json,676468,1671695,25,Man
56,387128,DepthScenes,duration_manipulation_targetAtFixation,jsons/VE125_randls_31.json,http://54.235.29.9/FacialAge/BNav_EC2/DepthDuration/v2_depth_duration_MTurk/v2_DepthDuration_HTML.html#280,280,1440,789,1440,900,8-29-2022,8-42-34,57,depth_duration_stimuli/000483_2014-06-09_20-41-45_260595134347_rgbf000116-resize_4/000483_2014-06-09_20-41-45_260595134347_rgbf000116-resize_4-target.png,125,1.337,5,2437,117,meters,jsons/VE125_randls_31.json,676468,1671695,25,Man
57,387128,DepthScenes,duration_manipulation_targetAtFixation,jsons/VE125_randls_31.json,http://54.235.29.9/FacialAge/BNav_EC2/DepthDuration/v2_depth_duration_MTurk/v2_DepthDuration_HTML.html#280,280,1440,789,1440,900,8-29-2022,8-42-34,58,depth_duration_stimuli/002570_2014-06-24_13-59-54_094959634447_rgbf000059-resize_0/002570_2014-06-24_13-59-54_094959634447_rgbf000059-resize_0-target.png,125,4.037,8,2604,122,meters,jsons/VE125_randls_31.json,676468,1671695,25,Man
58,387128,DepthScenes,duration_manipulation_targetAtFixation,jsons/VE125_randls_31.json,http://54.235.29.9/FacialAge/BNav_EC2/DepthDuration/v2_depth_duration_MTurk/v2_DepthDuration_HTML.html#280,280,1440,789,1440,900,8-29-2022,8-42-34,59,depth_duration_stimuli/002467_2014-06-28_20-38-07_260595134347_rgbf000026-resize_2/002467_2014-06-28_20-38-07_260595134347_rgbf000026-resize_2-target.png,125,4.742,6,2519,124,meters,jsons/VE125_randls_31.json,676468,1671695,25,Man
59,387128,DepthScenes,duration_manipulation_targetAtFixation,jsons/VE125_randls_31.json,http://54.235.29.9/FacialAge/BNav_EC2/DepthDuration/v2_depth_duration_MTurk/v2_DepthDuration_HTML.html#280,280,1440,789,1440,900,8-29-2022,8-42-34,60,depth_duration_stimuli/003621_2014-05-23_18-06-08_094959634447_rgbf000101-resize_1/003621_2014-05-23_18-06-08_094959634447_rgbf000101-resize_1-target.png,125,3.9835,5,2207,115,meters,jsons/VE125_randls_31.json,676468,1671695,25,Man
60,387128,DepthScenes,duration_manipulation_targetAtFixation,jsons/VE125_randls_31.json,http://54.235.29.9/FacialAge/BNav_EC2/DepthDuration/v2_depth_duration_MTurk/v2_DepthDuration_HTML.html#280,280,1440,789,1440,900,8-29-2022,8-42-34,61,depth_duration_stimuli/001584_2014-06-20_11-07-43_260595134347_rgbf000002-resize_1/001584_2014-06-20_11-07-43_260595134347_rgbf000002-resize_1-target.png,125,3.53,8,2560,113,meters,jsons/VE125_randls_31.json,676468,1671695,25,Man
61,387128,DepthScenes,duration_manipulation_targetAtFixation,jsons/VE125_randls_31.json,http://54.235.29.9/FacialAge/BNav_EC2/DepthDuration/v2_depth_duration_MTurk/v2_DepthDuration_HTML.html#280,280,1440,789,1440,900,8-29-2022,8-42-34,62,depth_duration_stimuli/002763_2014-06-22_19-13-10_094959634447_rgbf000075-resize_4/002763_2014-06-22_19-13-10_094959634447_rgbf000075-resize_4-target.png,125,1.68375,10,2651,124,meters,jsons/VE125_randls_31.json,676468,1671695,25,Man
62,387128,DepthScenes,duration_manipulation_targetAtFixation,jsons/VE125_randls_31.json,http://54.235.29.9/FacialAge/BNav_EC2/DepthDuration/v2_depth_duration_MTurk/v2_DepthDuration_HTML.html#280,280,1440,789,1440,900,8-29-2022,8-42-34,63,depth_duration_stimuli/002209_2014-06-28_18-36-10_260595134347_rgbf000051-resize_1/002209_2014-06-28_18-36-10_260595134347_rgbf000051-resize_1-target.png,125,2.057,5,2428,128,meters,jsons/VE125_randls_31.json,676468,1671695,25,Man
63,387128,DepthScenes,duration_manipulation_targetAtFixation,jsons/VE125_randls_31.json,http://54.235.29.9/FacialAge/BNav_EC2/DepthDuration/v2_depth_duration_MTurk/v2_DepthDuration_HTML.html#280,280,1440,789,1440,900,8-29-2022,8-42-34,64,depth_duration_stimuli/002988_2014-06-15_12-24-20_094959634447_rgbf000150-resize_1/002988_2014-06-15_12-24-20_094959634447_rgbf000150-resize_1-target.png,125,4.7669999999999995,3,4443,91,meters,jsons/VE125_randls_31.json,676468,1671695,25,Man
64,387128,DepthScenes,duration_manipulation_targetAtFixation,jsons/VE125_randls_31.json,http://54.235.29.9/FacialAge/BNav_EC2/DepthDuration/v2_depth_duration_MTurk/v2_DepthDuration_HTML.html#280,280,1440,789,1440,900,8-29-2022,8-42-34,65,depth_duration_stimuli/001052_2014-06-08_18-24-54_260595134347_rgbf000130-resize_1/001052_2014-06-08_18-24-54_260595134347_rgbf000130-resize_1-target.png,125,4.1045,5,4084,121,meters,jsons/VE125_randls_31.json,676468,1671695,25,Man
65,387128,DepthScenes,duration_manipulation_targetAtFixation,jsons/VE125_randls_31.json,http://54.235.29.9/FacialAge/BNav_EC2/DepthDuration/v2_depth_duration_MTurk/v2_DepthDuration_HTML.html#280,280,1440,789,1440,900,8-29-2022,8-42-34,66,depth_duration_stimuli/001222_2014-06-17_16-24-06_260595134347_rgbf000073-resize_0/001222_2014-06-17_16-24-06_260595134347_rgbf000073-resize-original.jpg,125,1.4385,0,2137,112,meters,jsons/VE125_randls_31.json,676468,1671695,25,Man
66,387128,DepthScenes,duration_manipulation_targetAtFixation,jsons/VE125_randls_31.json,http://54.235.29.9/FacialAge/BNav_EC2/DepthDuration/v2_depth_duration_MTurk/v2_DepthDuration_HTML.html#280,280,1440,789,1440,900,8-29-2022,8-42-34,67,depth_duration_stimuli/001092_2014-06-15_17-34-58_260595134347_rgbf000171-resize_3/001092_2014-06-15_17-34-58_260595134347_rgbf000171-resize_3-target.png,125,2.6935,8,2836,131,meters,jsons/VE125_randls_31.json,676468,1671695,25,Man
67,387128,DepthScenes,duration_manipulation_targetAtFixation,jsons/VE125_randls_31.json,http://54.235.29.9/FacialAge/BNav_EC2/DepthDuration/v2_depth_duration_MTurk/v2_DepthDuration_HTML.html#280,280,1440,789,1440,900,8-29-2022,8-42-34,68,depth_duration_stimuli/002545_2014-06-24_13-38-53_094959634447_rgbf000080-resize_4/002545_2014-06-24_13-38-53_094959634447_rgbf000080-resize_4-target.png,125,1.9205,5,2611,124,meters,jsons/VE125_randls_31.json,676468,1671695,25,Man
68,387128,DepthScenes,duration_manipulation_targetAtFixation,jsons/VE125_randls_31.json,http://54.235.29.9/FacialAge/BNav_EC2/DepthDuration/v2_depth_duration_MTurk/v2_DepthDuration_HTML.html#280,280,1440,789,1440,900,8-29-2022,8-42-34,69,depth_duration_stimuli/000736_2014-06-08_18-24-15_260595134347_rgbf000206-resize_3/000736_2014-06-08_18-24-15_260595134347_rgbf000206-resize_3-target.png,125,3.515,8,2226,123,meters,jsons/VE125_randls_31.json,676468,1671695,25,Man
69,387128,DepthScenes,duration_manipulation_targetAtFixation,jsons/VE125_randls_31.json,http://54.235.29.9/FacialAge/BNav_EC2/DepthDuration/v2_depth_duration_MTurk/v2_DepthDuration_HTML.html#280,280,1440,789,1440,900,8-29-2022,8-42-34,70,depth_duration_stimuli/000137_2014-05-20_17-04-49_260595134347_rgbf000120-resize_1/000137_2014-05-20_17-04-49_260595134347_rgbf000120-resize_1-target.png,125,3.786,10,2615,124,meters,jsons/VE125_randls_31.json,676468,1671695,25,Man
70,387128,DepthScenes,duration_manipulation_targetAtFixation,jsons/VE125_randls_31.json,http://54.235.29.9/FacialAge/BNav_EC2/DepthDuration/v2_depth_duration_MTurk/v2_DepthDuration_HTML.html#280,280,1440,789,1440,900,8-29-2022,8-42-34,71,depth_duration_stimuli/000470_2014-06-09_19-42-40_260595134347_rgbf000094-resize_1/000470_2014-06-09_19-42-40_260595134347_rgbf000094-resize_1-target.png,125,1.831,2,5465,112,meters,jsons/VE125_randls_31.json,676468,1671695,25,Man
71,387128,DepthScenes,duration_manipulation_targetAtFixation,jsons/VE125_randls_31.json,http://54.235.29.9/FacialAge/BNav_EC2/DepthDuration/v2_depth_duration_MTurk/v2_DepthDuration_HTML.html#280,280,1440,789,1440,900,8-29-2022,8-42-34,72,depth_duration_stimuli/000109_2014-05-14_23-41-52_260595134347_rgbf000035-resize_9/000109_2014-05-14_23-41-52_260595134347_rgbf000035-resize_9-target.png,125,1.3545,3,2619,125,meters,jsons/VE125_randls_31.json,676468,1671695,25,Man
72,387128,DepthScenes,duration_manipulation_targetAtFixation,jsons/VE125_randls_31.json,http://54.235.29.9/FacialAge/BNav_EC2/DepthDuration/v2_depth_duration_MTurk/v2_DepthDuration_HTML.html#280,280,1440,789,1440,900,8-29-2022,8-42-34,73,depth_duration_stimuli/002748_2014-06-22_19-07-22_094959634447_rgbf000078-resize_1/002748_2014-06-22_19-07-22_094959634447_rgbf000078-resize_1-target.png,125,4.6705,5,2552,124,meters,jsons/VE125_randls_31.json,676468,1671695,25,Man
73,387128,DepthScenes,duration_manipulation_targetAtFixation,jsons/VE125_randls_31.json,http://54.235.29.9/FacialAge/BNav_EC2/DepthDuration/v2_depth_duration_MTurk/v2_DepthDuration_HTML.html#280,280,1440,789,1440,900,8-29-2022,8-42-34,74,depth_duration_stimuli/002995_2014-06-15_12-31-26_094959634447_rgbf000150-resize_1/002995_2014-06-15_12-31-26_094959634447_rgbf000150-resize_1-target.png,125,3.8360000000000003,5,2288,135,meters,jsons/VE125_randls_31.json,676468,1671695,25,Man
74,387128,DepthScenes,duration_manipulation_targetAtFixation,jsons/VE125_randls_31.json,http://54.235.29.9/FacialAge/BNav_EC2/DepthDuration/v2_depth_duration_MTurk/v2_DepthDuration_HTML.html#280,280,1440,789,1440,900,8-29-2022,8-42-34,75,depth_duration_stimuli/000929_2014-06-09_16-33-19_260595134347_rgbf000139-resize_0/000929_2014-06-09_16-33-19_260595134347_rgbf000139-resize_0-target.png,125,2.8680000000000003,58,2508,100,meters,jsons/VE125_randls_31.json,676468,1671695,25,Man
75,387128,DepthScenes,duration_manipulation_targetAtFixation,jsons/VE125_randls_31.json,http://54.235.29.9/FacialAge/BNav_EC2/DepthDuration/v2_depth_duration_MTurk/v2_DepthDuration_HTML.html#280,280,1440,789,1440,900,8-29-2022,8-42-34,76,depth_duration_stimuli/000457_2014-06-08_16-52-43_260595134347_rgbf000199-resize_1/000457_2014-06-08_16-52-43_260595134347_rgbf000199-resize_1-target.png,125,3.6489999999999996,8,3624,114,meters,jsons/VE125_randls_31.json,676468,1671695,25,Man
76,387128,DepthScenes,duration_manipulation_targetAtFixation,jsons/VE125_randls_31.json,http://54.235.29.9/FacialAge/BNav_EC2/DepthDuration/v2_depth_duration_MTurk/v2_DepthDuration_HTML.html#280,280,1440,789,1440,900,8-29-2022,8-42-34,77,depth_duration_stimuli/002039_2014-06-24_20-22-38_260595134347_rgbf000084-resize_1/002039_2014-06-24_20-22-38_260595134347_rgbf000084-resize_1-target.png,125,4.408,5,2770,115,meters,jsons/VE125_randls_31.json,676468,1671695,25,Man
77,387128,DepthScenes,duration_manipulation_targetAtFixation,jsons/VE125_randls_31.json,http://54.235.29.9/FacialAge/BNav_EC2/DepthDuration/v2_depth_duration_MTurk/v2_DepthDuration_HTML.html#280,280,1440,789,1440,900,8-29-2022,8-42-34,78,depth_duration_stimuli/002103_2014-06-25_20-00-40_260595134347_rgbf000049-resize_0/002103_2014-06-25_20-00-40_260595134347_rgbf000049-resize_0-target.png,125,4.105,3,2768,121,meters,jsons/VE125_randls_31.json,676468,1671695,25,Man
78,387128,DepthScenes,duration_manipulation_targetAtFixation,jsons/VE125_randls_31.json,http://54.235.29.9/FacialAge/BNav_EC2/DepthDuration/v2_depth_duration_MTurk/v2_DepthDuration_HTML.html#280,280,1440,789,1440,900,8-29-2022,8-42-34,79,depth_duration_stimuli/000414_2014-06-04_19-49-13_260595134347_rgbf000044-resize_0/000414_2014-06-04_19-49-13_260595134347_rgbf000044-resize_0-target.png,125,4.329,10,2497,138,meters,jsons/VE125_randls_31.json,676468,1671695,25,Man
79,387128,DepthScenes,duration_manipulation_targetAtFixation,jsons/VE125_randls_31.json,http://54.235.29.9/FacialAge/BNav_EC2/DepthDuration/v2_depth_duration_MTurk/v2_DepthDuration_HTML.html#280,280,1440,789,1440,900,8-29-2022,8-42-34,80,depth_duration_stimuli/003129_2014-05-12_10-48-10_094959634447_rgbf000100-resize_0/003129_2014-05-12_10-48-10_094959634447_rgbf000100-resize_0-target.png,125,4.9305,5,2417,128,meters,jsons/VE125_randls_31.json,676468,1671695,25,Man
80,387128,DepthScenes,duration_manipulation_targetAtFixation,jsons/VE125_randls_31.json,http://54.235.29.9/FacialAge/BNav_EC2/DepthDuration/v2_depth_duration_MTurk/v2_DepthDuration_HTML.html#280,280,1440,789,1440,900,8-29-2022,8-42-34,81,depth_duration_stimuli/001449_2014-06-19_17-01-27_260595134347_rgbf000116-resize_2/001449_2014-06-19_17-01-27_260595134347_rgbf000116-resize_2-target.png,125,3.452,8,3586,124,meters,jsons/VE125_randls_31.json,676468,1671695,25,Man
81,387128,DepthScenes,duration_manipulation_targetAtFixation,jsons/VE125_randls_31.json,http://54.235.29.9/FacialAge/BNav_EC2/DepthDuration/v2_depth_duration_MTurk/v2_DepthDuration_HTML.html#280,280,1440,789,1440,900,8-29-2022,8-42-34,82,depth_duration_stimuli/001450_2014-06-19_17-02-03_260595134347_rgbf000203-resize_4/001450_2014-06-19_17-02-03_260595134347_rgbf000203-resize_4-target.png,125,4.0106666666667,5,2923,135,meters,jsons/VE125_randls_31.json,676468,1671695,25,Man
82,387128,DepthScenes,duration_manipulation_targetAtFixation,jsons/VE125_randls_31.json,http://54.235.29.9/FacialAge/BNav_EC2/DepthDuration/v2_depth_duration_MTurk/v2_DepthDuration_HTML.html#280,280,1440,789,1440,900,8-29-2022,8-42-34,83,depth_duration_stimuli/001011_2014-06-08_23-18-54_260595134347_rgbf000044-resize_4/001011_2014-06-08_23-18-54_260595134347_rgbf000044-resize_4-target.png,125,2.4730000000000003,10,2507,133,meters,jsons/VE125_randls_31.json,676468,1671695,25,Man
83,387128,DepthScenes,duration_manipulation_targetAtFixation,jsons/VE125_randls_31.json,http://54.235.29.9/FacialAge/BNav_EC2/DepthDuration/v2_depth_duration_MTurk/v2_DepthDuration_HTML.html#280,280,1440,789,1440,900,8-29-2022,8-42-34,84,depth_duration_stimuli/002875_2014-06-01_15-19-00_094959634447_rgbf000151-resize_1/002875_2014-06-01_15-19-00_094959634447_rgbf000151-resize_1-target.png,125,1.9675,3,2409,117,meters,jsons/VE125_randls_31.json,676468,1671695,25,Man
84,387128,DepthScenes,duration_manipulation_targetAtFixation,jsons/VE125_randls_31.json,http://54.235.29.9/FacialAge/BNav_EC2/DepthDuration/v2_depth_duration_MTurk/v2_DepthDuration_HTML.html#280,280,1440,789,1440,900,8-29-2022,8-42-34,85,depth_duration_stimuli/002905_2014-06-03_18-04-43_094959634447_rgbf000151-resize_2/002905_2014-06-03_18-04-43_094959634447_rgbf000151-resize_2-target.png,125,2.0295,5,2586,123,meters,jsons/VE125_randls_31.json,676468,1671695,25,Man
85,387128,DepthScenes,duration_manipulation_targetAtFixation,jsons/VE125_randls_31.json,http://54.235.29.9/FacialAge/BNav_EC2/DepthDuration/v2_depth_duration_MTurk/v2_DepthDuration_HTML.html#280,280,1440,789,1440,900,8-29-2022,8-42-34,86,depth_duration_stimuli/003423_2014-05-21_10-23-26_094959634447_rgbf002665-resize_2/003423_2014-05-21_10-23-26_094959634447_rgbf002665-resize_2-target.png,125,3.2575,5,2452,129,meters,jsons/VE125_randls_31.json,676468,1671695,25,Man
86,387128,DepthScenes,duration_manipulation_targetAtFixation,jsons/VE125_randls_31.json,http://54.235.29.9/FacialAge/BNav_EC2/DepthDuration/v2_depth_duration_MTurk/v2_DepthDuration_HTML.html#280,280,1440,789,1440,900,8-29-2022,8-42-34,87,depth_duration_stimuli/000810_2014-06-08_17-20-01_260595134347_rgbf000105-resize_0/000810_2014-06-08_17-20-01_260595134347_rgbf000105-resize_0-target.png,125,1.4865,0,2482,126,meters,jsons/VE125_randls_31.json,676468,1671695,25,Man
87,387128,DepthScenes,duration_manipulation_targetAtFixation,jsons/VE125_randls_31.json,http://54.235.29.9/FacialAge/BNav_EC2/DepthDuration/v2_depth_duration_MTurk/v2_DepthDuration_HTML.html#280,280,1440,789,1440,900,8-29-2022,8-42-34,88,depth_duration_stimuli/001214_2014-06-17_16-13-55_260595134347_rgbf000111-resize_0/001214_2014-06-17_16-13-55_260595134347_rgbf000111-resize_0-target.png,125,2.6505,5,2219,125,meters,jsons/VE125_randls_31.json,676468,1671695,25,Man
88,387128,DepthScenes,duration_manipulation_targetAtFixation,jsons/VE125_randls_31.json,http://54.235.29.9/FacialAge/BNav_EC2/DepthDuration/v2_depth_duration_MTurk/v2_DepthDuration_HTML.html#280,280,1440,789,1440,900,8-29-2022,8-42-34,89,depth_duration_stimuli/000447_2014-06-08_16-15-46_260595134347_rgbf000130-resize_1/000447_2014-06-08_16-15-46_260595134347_rgbf000130-resize_1-target.png,125,4.479,12,2706,137,meters,jsons/VE125_randls_31.json,676468,1671695,25,Man
89,387128,DepthScenes,duration_manipulation_targetAtFixation,jsons/VE125_randls_31.json,http://54.235.29.9/FacialAge/BNav_EC2/DepthDuration/v2_depth_duration_MTurk/v2_DepthDuration_HTML.html#280,280,1440,789,1440,900,8-29-2022,8-42-34,90,depth_duration_stimuli/001447_2014-06-19_17-00-32_260595134347_rgbf000082-resize_5/001447_2014-06-19_17-00-32_260595134347_rgbf000082-resize_5-target.png,125,4.13775,10,2267,125,meters,jsons/VE125_randls_31.json,676468,1671695,25,Man
90,387128,DepthScenes,duration_manipulation_targetAtFixation,jsons/VE125_randls_31.json,http://54.235.29.9/FacialAge/BNav_EC2/DepthDuration/v2_depth_duration_MTurk/v2_DepthDuration_HTML.html#280,280,1440,789,1440,900,8-29-2022,8-42-34,91,depth_duration_stimuli/000692_2014-06-08_13-09-42_260595134347_rgbf000199-resize_2/000692_2014-06-08_13-09-42_260595134347_rgbf000199-resize_2-target.png,125,3.661,5,2263,126,meters,jsons/VE125_randls_31.json,676468,1671695,25,Man
91,387128,DepthScenes,duration_manipulation_targetAtFixation,jsons/VE125_randls_31.json,http://54.235.29.9/FacialAge/BNav_EC2/DepthDuration/v2_depth_duration_MTurk/v2_DepthDuration_HTML.html#280,280,1440,789,1440,900,8-29-2022,8-42-34,92,depth_duration_stimuli/001094_2014-06-15_17-36-00_260595134347_rgbf000205-resize_0/001094_2014-06-15_17-36-00_260595134347_rgbf000205-resize_0-target.png,125,4.2175,8,2267,132,meters,jsons/VE125_randls_31.json,676468,1671695,25,Man
92,387128,DepthScenes,duration_manipulation_targetAtFixation,jsons/VE125_randls_31.json,http://54.235.29.9/FacialAge/BNav_EC2/DepthDuration/v2_depth_duration_MTurk/v2_DepthDuration_HTML.html#280,280,1440,789,1440,900,8-29-2022,8-42-34,93,depth_duration_stimuli/002153_2014-06-25_21-27-18_260595134347_rgbf000038-resize_5/002153_2014-06-25_21-27-18_260595134347_rgbf000038-resize_5-target.png,125,2.505,6,2256,120,meters,jsons/VE125_randls_31.json,676468,1671695,25,Man
93,387128,DepthScenes,duration_manipulation_targetAtFixation,jsons/VE125_randls_31.json,http://54.235.29.9/FacialAge/BNav_EC2/DepthDuration/v2_depth_duration_MTurk/v2_DepthDuration_HTML.html#280,280,1440,789,1440,900,8-29-2022,8-42-34,94,depth_duration_stimuli/002660_2014-06-13_15-44-18_094959634447_rgbf001878-resize_2/002660_2014-06-13_15-44-18_094959634447_rgbf001878-resize_2-target.png,125,3.576,5,2370,121,meters,jsons/VE125_randls_31.json,676468,1671695,25,Man
94,387128,DepthScenes,duration_manipulation_targetAtFixation,jsons/VE125_randls_31.json,http://54.235.29.9/FacialAge/BNav_EC2/DepthDuration/v2_depth_duration_MTurk/v2_DepthDuration_HTML.html#280,280,1440,789,1440,900,8-29-2022,8-42-34,95,depth_duration_stimuli/000368_2014-06-09_15-53-01_260595134347_rgbf000155-resize_2/000368_2014-06-09_15-53-01_260595134347_rgbf000155-resize_2-target.png,125,2.4859999999999998,5,2212,119,meters,jsons/VE125_randls_31.json,676468,1671695,25,Man
95,387128,DepthScenes,duration_manipulation_targetAtFixation,jsons/VE125_randls_31.json,http://54.235.29.9/FacialAge/BNav_EC2/DepthDuration/v2_depth_duration_MTurk/v2_DepthDuration_HTML.html#280,280,1440,789,1440,900,8-29-2022,8-42-34,96,depth_duration_stimuli/002678_2014-06-13_16-15-32_094959634447_rgbf000151-resize_6/002678_2014-06-13_16-15-32_094959634447_rgbf000151-resize_6-target.png,125,2.1830000000000003,8,2752,121,meters,jsons/VE125_randls_31.json,676468,1671695,25,Man
96,387128,DepthScenes,duration_manipulation_targetAtFixation,jsons/VE125_randls_31.json,http://54.235.29.9/FacialAge/BNav_EC2/DepthDuration/v2_depth_duration_MTurk/v2_DepthDuration_HTML.html#280,280,1440,789,1440,900,8-29-2022,8-42-34,97,depth_duration_stimuli/001810_2014-06-26_20-51-35_260595134347_rgbf000040-resize_3/001810_2014-06-26_20-51-35_260595134347_rgbf000040-resize_3-target.png,125,2.2525,9,4033,112,meters,jsons/VE125_randls_31.json,676468,1671695,25,Man
97,387128,DepthScenes,duration_manipulation_targetAtFixation,jsons/VE125_randls_31.json,http://54.235.29.9/FacialAge/BNav_EC2/DepthDuration/v2_depth_duration_MTurk/v2_DepthDuration_HTML.html#280,280,1440,789,1440,900,8-29-2022,8-42-34,98,depth_duration_stimuli/003010_2014-06-15_12-54-35_094959634447_rgbf000112-resize_0/003010_2014-06-15_12-54-35_094959634447_rgbf000112-resize_0-target.png,125,3.1185,10,2670,110,meters,jsons/VE125_randls_31.json,676468,1671695,25,Man
98,387128,DepthScenes,duration_manipulation_targetAtFixation,jsons/VE125_randls_31.json,http://54.235.29.9/FacialAge/BNav_EC2/DepthDuration/v2_depth_duration_MTurk/v2_DepthDuration_HTML.html#280,280,1440,789,1440,900,8-29-2022,8-42-34,99,depth_duration_stimuli/001540_2014-06-20_17-01-05_260595134347_rgbf000086-resize_2/001540_2014-06-20_17-01-05_260595134347_rgbf000086-resize-original.jpg,125,1.459,0,2214,125,meters,jsons/VE125_randls_31.json,676468,1671695,25,Man
99,387128,DepthScenes,duration_manipulation_targetAtFixation,jsons/VE125_randls_31.json,http://54.235.29.9/FacialAge/BNav_EC2/DepthDuration/v2_depth_duration_MTurk/v2_DepthDuration_HTML.html#280,280,1440,789,1440,900,8-29-2022,8-42-34,100,depth_duration_stimuli/002375_2014-06-28_20-13-44_260595134347_rgbf000032-resize_1/002375_2014-06-28_20-13-44_260595134347_rgbf000032-resize_1-target.png,125,4.0175,5,2214,121,meters,jsons/VE125_randls_31.json,676468,1671695,25,Man
100,387128,DepthScenes,duration_manipulation_targetAtFixation,jsons/VE125_randls_31.json,http://54.235.29.9/FacialAge/BNav_EC2/DepthDuration/v2_depth_duration_MTurk/v2_DepthDuration_HTML.html#280,280,1440,789,1440,900,8-29-2022,8-42-34,101,depth_duration_stimuli/002657_2014-06-13_15-29-54_094959634447_rgbf000150-resize_1/002657_2014-06-13_15-29-54_094959634447_rgbf000150-resize_1-target.png,125,4.919,8,2296,120,meters,jsons/VE125_randls_31.json,676468,1671695,25,Man
101,387128,DepthScenes,duration_manipulation_targetAtFixation,jsons/VE125_randls_31.json,http://54.235.29.9/FacialAge/BNav_EC2/DepthDuration/v2_depth_duration_MTurk/v2_DepthDuration_HTML.html#280,280,1440,789,1440,900,8-29-2022,8-42-34,102,depth_duration_stimuli/001158_2014-06-17_15-32-16_260595134347_rgbf000138-resize_2/001158_2014-06-17_15-32-16_260595134347_rgbf000138-resize_2-target.png,125,4.5315,8,2333,118,meters,jsons/VE125_randls_31.json,676468,1671695,25,Man
102,387128,DepthScenes,duration_manipulation_targetAtFixation,jsons/VE125_randls_31.json,http://54.235.29.9/FacialAge/BNav_EC2/DepthDuration/v2_depth_duration_MTurk/v2_DepthDuration_HTML.html#280,280,1440,789,1440,900,8-29-2022,8-42-34,103,depth_duration_stimuli/000556_2014-06-09_22-42-56_260595134347_rgbf000214-resize_1/000556_2014-06-09_22-42-56_260595134347_rgbf000214-resize_1-target.png,125,4.8415,5,3482,129,meters,jsons/VE125_randls_31.json,676468,1671695,25,Man
103,387128,DepthScenes,duration_manipulation_targetAtFixation,jsons/VE125_randls_31.json,http://54.235.29.9/FacialAge/BNav_EC2/DepthDuration/v2_depth_duration_MTurk/v2_DepthDuration_HTML.html#280,280,1440,789,1440,900,8-29-2022,8-42-34,104,depth_duration_stimuli/003070_2014-06-15_14-58-27_094959634447_rgbf000150-resize_3/003070_2014-06-15_14-58-27_094959634447_rgbf000150-resize_3-target.png,125,2.9415,10,3344,124,meters,jsons/VE125_randls_31.json,676468,1671695,25,Man
104,387128,DepthScenes,duration_manipulation_targetAtFixation,jsons/VE125_randls_31.json,http://54.235.29.9/FacialAge/BNav_EC2/DepthDuration/v2_depth_duration_MTurk/v2_DepthDuration_HTML.html#280,280,1440,789,1440,900,8-29-2022,8-42-34,105,depth_duration_stimuli/000943_2014-06-09_19-31-07_260595134347_rgbf000128-resize_1/000943_2014-06-09_19-31-07_260595134347_rgbf000128-resize_1-target.png,125,1.9765,0,2675,139,meters,jsons/VE125_randls_31.json,676468,1671695,25,Man
105,387128,DepthScenes,duration_manipulation_targetAtFixation,jsons/VE125_randls_31.json,http://54.235.29.9/FacialAge/BNav_EC2/DepthDuration/v2_depth_duration_MTurk/v2_DepthDuration_HTML.html#280,280,1440,789,1440,900,8-29-2022,8-42-34,106,depth_duration_stimuli/001417_2014-06-19_16-25-36_260595134347_rgbf000115-resize_5/001417_2014-06-19_16-25-36_260595134347_rgbf000115-resize_5-target.png,125,4.6255,5,2307,112,meters,jsons/VE125_randls_31.json,676468,1671695,25,Man
106,387128,DepthScenes,duration_manipulation_targetAtFixation,jsons/VE125_randls_31.json,http://54.235.29.9/FacialAge/BNav_EC2/DepthDuration/v2_depth_duration_MTurk/v2_DepthDuration_HTML.html#280,280,1440,789,1440,900,8-29-2022,8-42-34,107,depth_duration_stimuli/003081_2014-06-15_15-19-16_094959634447_rgbf000150-resize_1/003081_2014-06-15_15-19-16_094959634447_rgbf000150-resize_1-target.png,125,3.9125,12,2599,113,meters,jsons/VE125_randls_31.json,676468,1671695,25,Man
107,387128,DepthScenes,duration_manipulation_targetAtFixation,jsons/VE125_randls_31.json,http://54.235.29.9/FacialAge/BNav_EC2/DepthDuration/v2_depth_duration_MTurk/v2_DepthDuration_HTML.html#280,280,1440,789,1440,900,8-29-2022,8-42-34,108,depth_duration_stimuli/001244_2014-06-17_16-47-45_260595134347_rgbf000030-resize_4/001244_2014-06-17_16-47-45_260595134347_rgbf000030-resize_4-target.png,125,2.0425,5,2399,123,meters,jsons/VE125_randls_31.json,676468,1671695,25,Man
108,387128,DepthScenes,duration_manipulation_targetAtFixation,jsons/VE125_randls_31.json,http://54.235.29.9/FacialAge/BNav_EC2/DepthDuration/v2_depth_duration_MTurk/v2_DepthDuration_HTML.html#280,280,1440,789,1440,900,8-29-2022,8-42-34,109,depth_duration_stimuli/003495_2014-05-21_16-01-51_094959634447_rgbf000100-resize_3/003495_2014-05-21_16-01-51_094959634447_rgbf000100-resize_3-target.png,125,1.6255,2,3620,118,meters,jsons/VE125_randls_31.json,676468,1671695,25,Man
109,387128,DepthScenes,duration_manipulation_targetAtFixation,jsons/VE125_randls_31.json,http://54.235.29.9/FacialAge/BNav_EC2/DepthDuration/v2_depth_duration_MTurk/v2_DepthDuration_HTML.html#280,280,1440,789,1440,900,8-29-2022,8-42-34,110,depth_duration_stimuli/001055_2014-06-08_18-45-35_260595134347_rgbf000111-resize_4/001055_2014-06-08_18-45-35_260595134347_rgbf000111-resize_4-target.png,125,2.4290000000000003,8,2912,131,meters,jsons/VE125_randls_31.json,676468,1671695,25,Man
110,387128,DepthScenes,duration_manipulation_targetAtFixation,jsons/VE125_randls_31.json,http://54.235.29.9/FacialAge/BNav_EC2/DepthDuration/v2_depth_duration_MTurk/v2_DepthDuration_HTML.html#280,280,1440,789,1440,900,8-29-2022,8-42-34,111,depth_duration_stimuli/000549_2014-06-08_22-10-24_260595134347_rgbf000247-resize_3/000549_2014-06-08_22-10-24_260595134347_rgbf000247-resize_3-target.png,125,1.841,2,3244,150,meters,jsons/VE125_randls_31.json,676468,1671695,25,Man
111,387128,DepthScenes,duration_manipulation_targetAtFixation,jsons/VE125_randls_31.json,http://54.235.29.9/FacialAge/BNav_EC2/DepthDuration/v2_depth_duration_MTurk/v2_DepthDuration_HTML.html#280,280,1440,789,1440,900,8-29-2022,8-42-34,112,depth_duration_stimuli/002272_2014-06-28_18-53-56_260595134347_rgbf000067-resize_2/002272_2014-06-28_18-53-56_260595134347_rgbf000067-resize_2-target.png,125,1.138,3,2318,128,meters,jsons/VE125_randls_31.json,676468,1671695,25,Man
112,387128,DepthScenes,duration_manipulation_targetAtFixation,jsons/VE125_randls_31.json,http://54.235.29.9/FacialAge/BNav_EC2/DepthDuration/v2_depth_duration_MTurk/v2_DepthDuration_HTML.html#280,280,1440,789,1440,900,8-29-2022,8-42-34,113,depth_duration_stimuli/001571_2014-06-20_17-21-32_260595134347_rgbf000089-resize_1/001571_2014-06-20_17-21-32_260595134347_rgbf000089-resize_1-target.png,125,1.86,2,2215,59,meters,jsons/VE125_randls_31.json,676468,1671695,25,Man
113,387128,DepthScenes,duration_manipulation_targetAtFixation,jsons/VE125_randls_31.json,http://54.235.29.9/FacialAge/BNav_EC2/DepthDuration/v2_depth_duration_MTurk/v2_DepthDuration_HTML.html#280,280,1440,789,1440,900,8-29-2022,8-42-34,114,depth_duration_stimuli/000522_2014-06-08_13-35-06_260595134347_rgbf000244-resize_1/000522_2014-06-08_13-35-06_260595134347_rgbf000244-resize_1-target.png,125,2.3715,2,2404,126,meters,jsons/VE125_randls_31.json,676468,1671695,25,Man
114,387128,DepthScenes,duration_manipulation_targetAtFixation,jsons/VE125_randls_31.json,http://54.235.29.9/FacialAge/BNav_EC2/DepthDuration/v2_depth_duration_MTurk/v2_DepthDuration_HTML.html#280,280,1440,789,1440,900,8-29-2022,8-42-34,115,depth_duration_stimuli/002949_2014-06-26_15-57-42_094959634447_rgbf000079-resize_1/002949_2014-06-26_15-57-42_094959634447_rgbf000079-resize_1-target.png,125,1.8915,5,2257,117,meters,jsons/VE125_randls_31.json,676468,1671695,25,Man
115,387128,DepthScenes,duration_manipulation_targetAtFixation,jsons/VE125_randls_31.json,http://54.235.29.9/FacialAge/BNav_EC2/DepthDuration/v2_depth_duration_MTurk/v2_DepthDuration_HTML.html#280,280,1440,789,1440,900,8-29-2022,8-42-34,116,depth_duration_stimuli/001170_2014-06-17_15-43-44_260595134347_rgbf000096-resize_6/001170_2014-06-17_15-43-44_260595134347_rgbf000096-resize-original.jpg,125,1.1909999999999998,0,2334,124,meters,jsons/VE125_randls_31.json,676468,1671695,25,Man
116,387128,DepthScenes,duration_manipulation_targetAtFixation,jsons/VE125_randls_31.json,http://54.235.29.9/FacialAge/BNav_EC2/DepthDuration/v2_depth_duration_MTurk/v2_DepthDuration_HTML.html#280,280,1440,789,1440,900,8-29-2022,8-42-34,117,depth_duration_stimuli/000506_2014-06-08_23-21-00_260595134347_rgbf000070-resize_7/000506_2014-06-08_23-21-00_260595134347_rgbf000070-resize_7-target.png,125,4.0585,0,2320,124,meters,jsons/VE125_randls_31.json,676468,1671695,25,Man
117,387128,DepthScenes,duration_manipulation_targetAtFixation,jsons/VE125_randls_31.json,http://54.235.29.9/FacialAge/BNav_EC2/DepthDuration/v2_depth_duration_MTurk/v2_DepthDuration_HTML.html#280,280,1440,789,1440,900,8-29-2022,8-42-34,118,depth_duration_stimuli/003079_2014-06-15_15-18-20_094959634447_rgbf000152-resize_8/003079_2014-06-15_15-18-20_094959634447_rgbf000152-resize_8-target.png,125,2.8775,5,2307,122,meters,jsons/VE125_randls_31.json,676468,1671695,25,Man
118,387128,DepthScenes,duration_manipulation_targetAtFixation,jsons/VE125_randls_31.json,http://54.235.29.9/FacialAge/BNav_EC2/DepthDuration/v2_depth_duration_MTurk/v2_DepthDuration_HTML.html#280,280,1440,789,1440,900,8-29-2022,8-42-34,119,depth_duration_stimuli/003492_2014-05-21_15-50-55_094959634447_rgbf000828-resize_1/003492_2014-05-21_15-50-55_094959634447_rgbf000828-resize_1-target.png,125,4.06875,5,2379,121,meters,jsons/VE125_randls_31.json,676468,1671695,25,Man
119,387128,DepthScenes,duration_manipulation_targetAtFixation,jsons/VE125_randls_31.json,http://54.235.29.9/FacialAge/BNav_EC2/DepthDuration/v2_depth_duration_MTurk/v2_DepthDuration_HTML.html#280,280,1440,789,1440,900,8-29-2022,8-42-34,120,depth_duration_stimuli/002568_2014-06-24_13-59-21_094959634447_rgbf000062-resize_4/002568_2014-06-24_13-59-21_094959634447_rgbf000062-resize_4-target.png,125,3.015,8,2613,117,meters,jsons/VE125_randls_31.json,676468,1671695,25,Man
120,387128,DepthScenes,duration_manipulation_targetAtFixation,jsons/VE125_randls_31.json,http://54.235.29.9/FacialAge/BNav_EC2/DepthDuration/v2_depth_duration_MTurk/v2_DepthDuration_HTML.html#280,280,1440,789,1440,900,8-29-2022,8-42-34,121,depth_duration_stimuli/000773_2014-06-08_22-24-54_260595134347_rgbf000093-resize_1/000773_2014-06-08_22-24-54_260595134347_rgbf000093-resize_1-target.png,125,4.973,5,2581,126,meters,jsons/VE125_randls_31.json,676468,1671695,25,Man
121,387128,DepthScenes,duration_manipulation_targetAtFixation,jsons/VE125_randls_31.json,http://54.235.29.9/FacialAge/BNav_EC2/DepthDuration/v2_depth_duration_MTurk/v2_DepthDuration_HTML.html#280,280,1440,789,1440,900,8-29-2022,8-42-34,122,depth_duration_stimuli/002414_2014-06-28_20-24-58_260595134347_rgbf000067-resize_4/002414_2014-06-28_20-24-58_260595134347_rgbf000067-resize_4-target.png,125,4.363,5,2314,126,meters,jsons/VE125_randls_31.json,676468,1671695,25,Man
122,387128,DepthScenes,duration_manipulation_targetAtFixation,jsons/VE125_randls_31.json,http://54.235.29.9/FacialAge/BNav_EC2/DepthDuration/v2_depth_duration_MTurk/v2_DepthDuration_HTML.html#280,280,1440,789,1440,900,8-29-2022,8-42-34,123,depth_duration_stimuli/000436_2014-06-09_22-25-11_260595134347_rgbf000137-resize_1/000436_2014-06-09_22-25-11_260595134347_rgbf000137-resize_1-target.png,125,4.0705,4,3774,126,meters,jsons/VE125_randls_31.json,676468,1671695,25,Man
123,387128,DepthScenes,duration_manipulation_targetAtFixation,jsons/VE125_randls_31.json,http://54.235.29.9/FacialAge/BNav_EC2/DepthDuration/v2_depth_duration_MTurk/v2_DepthDuration_HTML.html#280,280,1440,789,1440,900,8-29-2022,8-42-34,124,depth_duration_stimuli/002444_2014-06-28_20-32-08_260595134347_rgbf000027-resize_0/002444_2014-06-28_20-32-08_260595134347_rgbf000027-resize_0-target.png,125,4.388999999999999,10,5427,125,meters,jsons/VE125_randls_31.json,676468,1671695,25,Man
124,387128,DepthScenes,duration_manipulation_targetAtFixation,jsons/VE125_randls_31.json,http://54.235.29.9/FacialAge/BNav_EC2/DepthDuration/v2_depth_duration_MTurk/v2_DepthDuration_HTML.html#280,280,1440,789,1440,900,8-29-2022,8-42-34,125,depth_duration_stimuli/002784_2014-06-22_19-26-30_094959634447_rgbf000083-resize_3/002784_2014-06-22_19-26-30_094959634447_rgbf000083-resize_3-target.png,125,1.8046666666667,5,2223,116,meters,jsons/VE125_randls_31.json,676468,1671695,25,Man
125,387128,DepthScenes,duration_manipulation_targetAtFixation,jsons/VE125_randls_31.json,http://54.235.29.9/FacialAge/BNav_EC2/DepthDuration/v2_depth_duration_MTurk/v2_DepthDuration_HTML.html#280,280,1440,789,1440,900,8-29-2022,8-42-34,126,depth_duration_stimuli/001100_2014-06-15_17-46-26_260595134347_rgbf000225-resize_2/001100_2014-06-15_17-46-26_260595134347_rgbf000225-resize_2-target.png,125,2.24,5,2170,129,meters,jsons/VE125_randls_31.json,676468,1671695,25,Man
126,387128,DepthScenes,duration_manipulation_targetAtFixation,jsons/VE125_randls_31.json,http://54.235.29.9/FacialAge/BNav_EC2/DepthDuration/v2_depth_duration_MTurk/v2_DepthDuration_HTML.html#280,280,1440,789,1440,900,8-29-2022,8-42-34,127,depth_duration_stimuli/001555_2014-06-20_17-12-10_260595134347_rgbf000065-resize_4/001555_2014-06-20_17-12-10_260595134347_rgbf000065-resize_4-target.png,125,1.633,3,2976,123,meters,jsons/VE125_randls_31.json,676468,1671695,25,Man
127,387128,DepthScenes,duration_manipulation_targetAtFixation,jsons/VE125_randls_31.json,http://54.235.29.9/FacialAge/BNav_EC2/DepthDuration/v2_depth_duration_MTurk/v2_DepthDuration_HTML.html#280,280,1440,789,1440,900,8-29-2022,8-42-34,128,depth_duration_stimuli/000103_2014-05-14_22-01-17_260595134347_rgbf000152-resize_5/000103_2014-05-14_22-01-17_260595134347_rgbf000152-resize_5-target.png,125,1.993,2,2246,124,meters,jsons/VE125_randls_31.json,676468,1671695,25,Man
128,387128,DepthScenes,duration_manipulation_targetAtFixation,jsons/VE125_randls_31.json,http://54.235.29.9/FacialAge/BNav_EC2/DepthDuration/v2_depth_duration_MTurk/v2_DepthDuration_HTML.html#280,280,1440,789,1440,900,8-29-2022,8-42-34,129,depth_duration_stimuli/001808_2014-06-26_20-50-58_260595134347_rgbf000029-resize_1/001808_2014-06-26_20-50-58_260595134347_rgbf000029-resize_1-target.png,125,4.249,5,2222,88,meters,jsons/VE125_randls_31.json,676468,1671695,25,Man
129,387128,DepthScenes,duration_manipulation_targetAtFixation,jsons/VE125_randls_31.json,http://54.235.29.9/FacialAge/BNav_EC2/DepthDuration/v2_depth_duration_MTurk/v2_DepthDuration_HTML.html#280,280,1440,789,1440,900,8-29-2022,8-42-34,130,depth_duration_stimuli/001815_2014-06-26_20-52-55_260595134347_rgbf000020-resize_0/001815_2014-06-26_20-52-55_260595134347_rgbf000020-resize_0-target.png,125,3.3865,8,2825,101,meters,jsons/VE125_randls_31.json,676468,1671695,25,Man
130,387128,DepthScenes,duration_manipulation_targetAtFixation,jsons/VE125_randls_31.json,http://54.235.29.9/FacialAge/BNav_EC2/DepthDuration/v2_depth_duration_MTurk/v2_DepthDuration_HTML.html#280,280,1440,789,1440,900,8-29-2022,8-42-34,131,depth_duration_stimuli/002964_2014-06-08_17-46-11_094959634447_rgbf000091-resize_4/002964_2014-06-08_17-46-11_094959634447_rgbf000091-resize_4-target.png,125,1.6909999999999998,0,3105,102,meters,jsons/VE125_randls_31.json,676468,1671695,25,Man
131,387128,DepthScenes,duration_manipulation_targetAtFixation,jsons/VE125_randls_31.json,http://54.235.29.9/FacialAge/BNav_EC2/DepthDuration/v2_depth_duration_MTurk/v2_DepthDuration_HTML.html#280,280,1440,789,1440,900,8-29-2022,8-42-34,132,depth_duration_stimuli/002136_2014-06-25_21-18-03_260595134347_rgbf000109-resize_3/002136_2014-06-25_21-18-03_260595134347_rgbf000109-resize_3-target.png,125,1.9569999999999999,5,2075,124,meters,jsons/VE125_randls_31.json,676468,1671695,25,Man
132,387128,DepthScenes,duration_manipulation_targetAtFixation,jsons/VE125_randls_31.json,http://54.235.29.9/FacialAge/BNav_EC2/DepthDuration/v2_depth_duration_MTurk/v2_DepthDuration_HTML.html#280,280,1440,789,1440,900,8-29-2022,8-42-34,133,depth_duration_stimuli/000788_2014-06-08_22-34-36_260595134347_rgbf000131-resize_1/000788_2014-06-08_22-34-36_260595134347_rgbf000131-resize_1-target.png,125,3.359,5,2189,127,meters,jsons/VE125_randls_31.json,676468,1671695,25,Man
133,387128,DepthScenes,duration_manipulation_targetAtFixation,jsons/VE125_randls_31.json,http://54.235.29.9/FacialAge/BNav_EC2/DepthDuration/v2_depth_duration_MTurk/v2_DepthDuration_HTML.html#280,280,1440,789,1440,900,8-29-2022,8-42-34,134,depth_duration_stimuli/001235_2014-06-17_16-37-36_260595134347_rgbf000084-resize_4/001235_2014-06-17_16-37-36_260595134347_rgbf000084-resize_4-target.png,125,3.6605,8,2240,122,meters,jsons/VE125_randls_31.json,676468,1671695,25,Man
134,387128,DepthScenes,duration_manipulation_targetAtFixation,jsons/VE125_randls_31.json,http://54.235.29.9/FacialAge/BNav_EC2/DepthDuration/v2_depth_duration_MTurk/v2_DepthDuration_HTML.html#280,280,1440,789,1440,900,8-29-2022,8-42-34,135,depth_duration_stimuli/002072_2014-06-24_21-48-06_260595134347_rgbf000115-resize_0/002072_2014-06-24_21-48-06_260595134347_rgbf000115-resize-original.jpg,125,4.702,0,2323,123,meters,jsons/VE125_randls_31.json,676468,1671695,25,Man
135,387128,DepthScenes,duration_manipulation_targetAtFixation,jsons/VE125_randls_31.json,http://54.235.29.9/FacialAge/BNav_EC2/DepthDuration/v2_depth_duration_MTurk/v2_DepthDuration_HTML.html#280,280,1440,789,1440,900,8-29-2022,8-42-34,136,depth_duration_stimuli/003534_2014-05-22_15-06-10_094959634447_rgbf000102-resize_4/003534_2014-05-22_15-06-10_094959634447_rgbf000102-resize_4-target.png,125,1.426,5,2305,117,meters,jsons/VE125_randls_31.json,676468,1671695,25,Man
136,387128,DepthScenes,duration_manipulation_targetAtFixation,jsons/VE125_randls_31.json,http://54.235.29.9/FacialAge/BNav_EC2/DepthDuration/v2_depth_duration_MTurk/v2_DepthDuration_HTML.html#280,280,1440,789,1440,900,8-29-2022,8-42-34,137,depth_duration_stimuli/002637_2014-06-24_14-51-13_094959634447_rgbf000066-resize_4/002637_2014-06-24_14-51-13_094959634447_rgbf000066-resize_4-target.png,125,1.9955,3,2443,128,meters,jsons/VE125_randls_31.json,676468,1671695,25,Man
137,387128,DepthScenes,duration_manipulation_targetAtFixation,jsons/VE125_randls_31.json,http://54.235.29.9/FacialAge/BNav_EC2/DepthDuration/v2_depth_duration_MTurk/v2_DepthDuration_HTML.html#280,280,1440,789,1440,900,8-29-2022,8-42-34,138,depth_duration_stimuli/002213_2014-06-28_18-37-58_260595134347_rgbf000055-resize_1/002213_2014-06-28_18-37-58_260595134347_rgbf000055-resize_1-target.png,125,3.62,8,2882,128,meters,jsons/VE125_randls_31.json,676468,1671695,25,Man
138,387128,DepthScenes,duration_manipulation_targetAtFixation,jsons/VE125_randls_31.json,http://54.235.29.9/FacialAge/BNav_EC2/DepthDuration/v2_depth_duration_MTurk/v2_DepthDuration_HTML.html#280,280,1440,789,1440,900,8-29-2022,8-42-34,139,depth_duration_stimuli/000691_2014-06-08_13-08-50_260595134347_rgbf000132-resize_3/000691_2014-06-08_13-08-50_260595134347_rgbf000132-resize_3-target.png,125,4.1530000000000005,5,2447,110,meters,jsons/VE125_randls_31.json,676468,1671695,25,Man
139,387128,DepthScenes,duration_manipulation_targetAtFixation,jsons/VE125_randls_31.json,http://54.235.29.9/FacialAge/BNav_EC2/DepthDuration/v2_depth_duration_MTurk/v2_DepthDuration_HTML.html#280,280,1440,789,1440,900,8-29-2022,8-42-34,140,depth_duration_stimuli/000682_2014-06-08_23-14-58_260595134347_rgbf000041-resize_5/000682_2014-06-08_23-14-58_260595134347_rgbf000041-resize_5-target.png,125,2.7239999999999998,3,2711,125,meters,jsons/VE125_randls_31.json,676468,1671695,25,Man
140,387128,DepthScenes,duration_manipulation_targetAtFixation,jsons/VE125_randls_31.json,http://54.235.29.9/FacialAge/BNav_EC2/DepthDuration/v2_depth_duration_MTurk/v2_DepthDuration_HTML.html#280,280,1440,789,1440,900,8-29-2022,8-42-34,141,depth_duration_stimuli/001650_2014-06-20_12-09-00_260595134347_rgbf000087-resize_3/001650_2014-06-20_12-09-00_260595134347_rgbf000087-resize_3-target.png,125,1.9505,3,2158,119,meters,jsons/VE125_randls_31.json,676468,1671695,25,Man
141,387128,DepthScenes,duration_manipulation_targetAtFixation,jsons/VE125_randls_31.json,http://54.235.29.9/FacialAge/BNav_EC2/DepthDuration/v2_depth_duration_MTurk/v2_DepthDuration_HTML.html#280,280,1440,789,1440,900,8-29-2022,8-42-34,142,depth_duration_stimuli/001133_2014-06-17_14-49-16_260595134347_rgbf000100-resize_0/001133_2014-06-17_14-49-16_260595134347_rgbf000100-resize_0-target.png,125,4.2115,5,2228,125,meters,jsons/VE125_randls_31.json,676468,1671695,25,Man
142,387128,DepthScenes,duration_manipulation_targetAtFixation,jsons/VE125_randls_31.json,http://54.235.29.9/FacialAge/BNav_EC2/DepthDuration/v2_depth_duration_MTurk/v2_DepthDuration_HTML.html#280,280,1440,789,1440,900,8-29-2022,8-42-34,143,depth_duration_stimuli/001132_2014-06-17_14-48-54_260595134347_rgbf000100-resize_2/001132_2014-06-17_14-48-54_260595134347_rgbf000100-resize_2-target.png,125,3.753,8,2396,124,meters,jsons/VE125_randls_31.json,676468,1671695,25,Man
143,387128,DepthScenes,duration_manipulation_targetAtFixation,jsons/VE125_randls_31.json,http://54.235.29.9/FacialAge/BNav_EC2/DepthDuration/v2_depth_duration_MTurk/v2_DepthDuration_HTML.html#280,280,1440,789,1440,900,8-29-2022,8-42-34,144,depth_duration_stimuli/000486_2014-06-09_20-47-20_260595134347_rgbf000143-resize_2/000486_2014-06-09_20-47-20_260595134347_rgbf000143-resize_2-target.png,125,4.8325,10,2712,124,meters,jsons/VE125_randls_31.json,676468,1671695,25,Man
144,387128,DepthScenes,duration_manipulation_targetAtFixation,jsons/VE125_randls_31.json,http://54.235.29.9/FacialAge/BNav_EC2/DepthDuration/v2_depth_duration_MTurk/v2_DepthDuration_HTML.html#280,280,1440,789,1440,900,8-29-2022,8-42-34,145,depth_duration_stimuli/003083_2014-06-15_15-21-03_094959634447_rgbf000063-resize_1/003083_2014-06-15_15-21-03_094959634447_rgbf000063-resize_1-target.png,125,4.1405,5,2081,123,meters,jsons/VE125_randls_31.json,676468,1671695,25,Man
145,387128,DepthScenes,duration_manipulation_targetAtFixation,jsons/VE125_randls_31.json,http://54.235.29.9/FacialAge/BNav_EC2/DepthDuration/v2_depth_duration_MTurk/v2_DepthDuration_HTML.html#280,280,1440,789,1440,900,8-29-2022,8-42-34,146,depth_duration_stimuli/001498_2014-06-19_17-45-14_260595134347_rgbf000129-resize_4/001498_2014-06-19_17-45-14_260595134347_rgbf000129-resize-original.jpg,125,1.4075,0,2196,137,meters,jsons/VE125_randls_31.json,676468,1671695,25,Man
146,387128,DepthScenes,duration_manipulation_targetAtFixation,jsons/VE125_randls_31.json,http://54.235.29.9/FacialAge/BNav_EC2/DepthDuration/v2_depth_duration_MTurk/v2_DepthDuration_HTML.html#280,280,1440,789,1440,900,8-29-2022,8-42-34,147,depth_duration_stimuli/002279_2014-06-28_18-55-32_260595134347_rgbf000040-resize_5/002279_2014-06-28_18-55-32_260595134347_rgbf000040-resize_5-target.png,125,1.5043333333333,3,2437,124,meters,jsons/VE125_randls_31.json,676468,1671695,25,Man
147,387128,DepthScenes,duration_manipulation_targetAtFixation,jsons/VE125_randls_31.json,http://54.235.29.9/FacialAge/BNav_EC2/DepthDuration/v2_depth_duration_MTurk/v2_DepthDuration_HTML.html#280,280,1440,789,1440,900,8-29-2022,8-42-34,148,depth_duration_stimuli/000635_2014-06-08_16-38-42_260595134347_rgbf000106-resize_1/000635_2014-06-08_16-38-42_260595134347_rgbf000106-resize_1-target.png,125,2.074,5,2031,128,meters,jsons/VE125_randls_31.json,676468,1671695,25,Man
148,387128,DepthScenes,duration_manipulation_targetAtFixation,jsons/VE125_randls_31.json,http://54.235.29.9/FacialAge/BNav_EC2/DepthDuration/v2_depth_duration_MTurk/v2_DepthDuration_HTML.html#280,280,1440,789,1440,900,8-29-2022,8-42-34,149,depth_duration_stimuli/000739_2014-06-08_18-45-58_260595134347_rgbf000068-resize_1/000739_2014-06-08_18-45-58_260595134347_rgbf000068-resize_1-target.png,125,3.534,8,2929,123,meters,jsons/VE125_randls_31.json,676468,1671695,25,Man
149,387128,DepthScenes,duration_manipulation_targetAtFixation,jsons/VE125_randls_31.json,http://54.235.29.9/FacialAge/BNav_EC2/DepthDuration/v2_depth_duration_MTurk/v2_DepthDuration_HTML.html#280,280,1440,789,1440,900,8-29-2022,8-42-34,150,depth_duration_stimuli/000734_2014-06-08_17-39-11_260595134347_rgbf000128-resize_2/000734_2014-06-08_17-39-11_260595134347_rgbf000128-resize_2-target.png,125,4.098,5,2438,119,meters,jsons/VE125_randls_31.json,676468,1671695,25,Man
150,387128,DepthScenes,duration_manipulation_targetAtFixation,jsons/VE125_randls_31.json,http://54.235.29.9/FacialAge/BNav_EC2/DepthDuration/v2_depth_duration_MTurk/v2_DepthDuration_HTML.html#280,280,1440,789,1440,900,8-29-2022,8-42-34,151,depth_duration_stimuli/001150_2014-06-17_15-27-34_260595134347_rgbf000108-resize_2/001150_2014-06-17_15-27-34_260595134347_rgbf000108-resize_2-target.png,125,4.0325,5,5671,124,meters,jsons/VE125_randls_31.json,676468,1671695,25,Man
151,387128,DepthScenes,duration_manipulation_targetAtFixation,jsons/VE125_randls_31.json,http://54.235.29.9/FacialAge/BNav_EC2/DepthDuration/v2_depth_duration_MTurk/v2_DepthDuration_HTML.html#280,280,1440,789,1440,900,8-29-2022,8-42-34,152,depth_duration_stimuli/000665_2014-06-09_20-42-35_260595134347_rgbf000110-resize_1/000665_2014-06-09_20-42-35_260595134347_rgbf000110-resize_1-target.png,125,3.057,8,6073,123,meters,jsons/VE125_randls_31.json,676468,1671695,25,Man
152,387128,DepthScenes,duration_manipulation_targetAtFixation,jsons/VE125_randls_31.json,http://54.235.29.9/FacialAge/BNav_EC2/DepthDuration/v2_depth_duration_MTurk/v2_DepthDuration_HTML.html#280,280,1440,789,1440,900,8-29-2022,8-42-34,153,depth_duration_stimuli/002057_2014-06-24_21-00-13_260595134347_rgbf000120-resize_1/002057_2014-06-24_21-00-13_260595134347_rgbf000120-resize_1-target.png,125,2.967,3,2642,124,meters,jsons/VE125_randls_31.json,676468,1671695,25,Man
153,387128,DepthScenes,duration_manipulation_targetAtFixation,jsons/VE125_randls_31.json,http://54.235.29.9/FacialAge/BNav_EC2/DepthDuration/v2_depth_duration_MTurk/v2_DepthDuration_HTML.html#280,280,1440,789,1440,900,8-29-2022,8-42-34,154,depth_duration_stimuli/000709_2014-06-08_13-51-55_260595134347_rgbf000068-resize_3/000709_2014-06-08_13-51-55_260595134347_rgbf000068-resize_3-target.png,125,1.8030000000000002,0,2600,135,meters,jsons/VE125_randls_31.json,676468,1671695,25,Man
154,387128,DepthScenes,duration_manipulation_targetAtFixation,jsons/VE125_randls_31.json,http://54.235.29.9/FacialAge/BNav_EC2/DepthDuration/v2_depth_duration_MTurk/v2_DepthDuration_HTML.html#280,280,1440,789,1440,900,8-29-2022,8-42-34,155,depth_duration_stimuli/001199_2014-06-17_16-03-48_260595134347_rgbf000077-resize_0/001199_2014-06-17_16-03-48_260595134347_rgbf000077-resize_0-target.png,125,3.4375,5,3780,111,meters,jsons/VE125_randls_31.json,676468,1671695,25,Man
155,387128,DepthScenes,duration_manipulation_targetAtFixation,jsons/VE125_randls_31.json,http://54.235.29.9/FacialAge/BNav_EC2/DepthDuration/v2_depth_duration_MTurk/v2_DepthDuration_HTML.html#280,280,1440,789,1440,900,8-29-2022,8-42-34,156,depth_duration_stimuli/000502_2014-06-08_23-02-32_260595134347_rgbf000063-resize_4/000502_2014-06-08_23-02-32_260595134347_rgbf000063-resize_4-target.png,125,2.431,0,2422,121,meters,jsons/VE125_randls_31.json,676468,1671695,25,Man
156,387128,DepthScenes,duration_manipulation_targetAtFixation,jsons/VE125_randls_31.json,http://54.235.29.9/FacialAge/BNav_EC2/DepthDuration/v2_depth_duration_MTurk/v2_DepthDuration_HTML.html#280,280,1440,789,1440,900,8-29-2022,8-42-34,157,depth_duration_stimuli/001806_2014-06-26_20-50-20_260595134347_rgbf000091-resize_1/001806_2014-06-26_20-50-20_260595134347_rgbf000091-resize_1-target.png,125,2.7305,3,2507,120,meters,jsons/VE125_randls_31.json,676468,1671695,25,Man
157,387128,DepthScenes,duration_manipulation_targetAtFixation,jsons/VE125_randls_31.json,http://54.235.29.9/FacialAge/BNav_EC2/DepthDuration/v2_depth_duration_MTurk/v2_DepthDuration_HTML.html#280,280,1440,789,1440,900,8-29-2022,8-42-34,158,depth_duration_stimuli/001617_2014-06-20_11-35-32_260595134347_rgbf000066-resize_1/001617_2014-06-20_11-35-32_260595134347_rgbf000066-resize_1-target.png,125,3.7910000000000004,6,2635,119,meters,jsons/VE125_randls_31.json,676468,1671695,25,Man
158,387128,DepthScenes,duration_manipulation_targetAtFixation,jsons/VE125_randls_31.json,http://54.235.29.9/FacialAge/BNav_EC2/DepthDuration/v2_depth_duration_MTurk/v2_DepthDuration_HTML.html#280,280,1440,789,1440,900,8-29-2022,8-42-34,159,depth_duration_stimuli/001016_2014-06-09_16-16-10_260595134347_rgbf000112-resize_5/001016_2014-06-09_16-16-10_260595134347_rgbf000112-resize_5-target.png,125,1.6565,5,2614,124,meters,jsons/VE125_randls_31.json,676468,1671695,25,Man
159,387128,DepthScenes,duration_manipulation_targetAtFixation,jsons/VE125_randls_31.json,http://54.235.29.9/FacialAge/BNav_EC2/DepthDuration/v2_depth_duration_MTurk/v2_DepthDuration_HTML.html#280,280,1440,789,1440,900,8-29-2022,8-42-34,160,depth_duration_stimuli/002340_2014-06-28_20-05-46_260595134347_rgbf000113-resize_0/002340_2014-06-28_20-05-46_260595134347_rgbf000113-resize_0-target.png,125,2.4735,8,2280,123,meters,jsons/VE125_randls_31.json,676468,1671695,25,Man
160,387128,DepthScenes,duration_manipulation_targetAtFixation,jsons/VE125_randls_31.json,http://54.235.29.9/FacialAge/BNav_EC2/DepthDuration/v2_depth_duration_MTurk/v2_DepthDuration_HTML.html#280,280,1440,789,1440,900,8-29-2022,8-42-34,161,depth_duration_stimuli/000009_2014-05-26_14-32-05_260595134347_rgbf000034-resize_3/000009_2014-05-26_14-32-05_260595134347_rgbf000034-resize_3-target.png,125,3.8715,5,2248,121,meters,jsons/VE125_randls_31.json,676468,1671695,25,Man
161,387128,DepthScenes,duration_manipulation_targetAtFixation,jsons/VE125_randls_31.json,http://54.235.29.9/FacialAge/BNav_EC2/DepthDuration/v2_depth_duration_MTurk/v2_DepthDuration_HTML.html#280,280,1440,789,1440,900,8-29-2022,8-42-34,162,depth_duration_stimuli/001828_2014-06-26_21-40-03_260595134347_rgbf000024-resize_0/001828_2014-06-26_21-40-03_260595134347_rgbf000024-resize_0-target.png,125,4.8260000000000005,10,2662,127,meters,jsons/VE125_randls_31.json,676468,1671695,25,Man
162,387128,DepthScenes,duration_manipulation_targetAtFixation,jsons/VE125_randls_31.json,http://54.235.29.9/FacialAge/BNav_EC2/DepthDuration/v2_depth_duration_MTurk/v2_DepthDuration_HTML.html#280,280,1440,789,1440,900,8-29-2022,8-42-34,163,depth_duration_stimuli/001164_2014-06-17_15-35-46_260595134347_rgbf000085-resize_3/001164_2014-06-17_15-35-46_260595134347_rgbf000085-resize_3-target.png,125,2.354,5,2464,125,meters,jsons/VE125_randls_31.json,676468,1671695,25,Man
163,387128,DepthScenes,duration_manipulation_targetAtFixation,jsons/VE125_randls_31.json,http://54.235.29.9/FacialAge/BNav_EC2/DepthDuration/v2_depth_duration_MTurk/v2_DepthDuration_HTML.html#280,280,1440,789,1440,900,8-29-2022,8-42-34,164,depth_duration_stimuli/001136_2014-06-17_15-19-41_260595134347_rgbf000076-resize_3/001136_2014-06-17_15-19-41_260595134347_rgbf000076-resize_3-target.png,125,1.8655,8,2507,123,meters,jsons/VE125_randls_31.json,676468,1671695,25,Man
