,subjID,experimentName,versionName,sequenceName,url,selected_row,windowWidth,windowHeight,screenWidth,screenHeight,startDate,startTime,trial,stimulus,duration,actual_depth,depth_estimate,trial_RT,log_sceneDuration,unitSelection,seq_filepath,experimentTime,totalTime,age,gender
0,387949,DepthScenes,duration_manipulation_targetAtFixation,jsons/v1_VE250_randls_40_rotated.json,http://54.235.29.9/FacialAge/BNav_EC2/DepthDuration/v2_depth_duration_MTurk/v2_DepthDuration_HTML.html#18,18,1130,700,1536,864,8-20-2022,12-4-6,1,depth_duration_stimuli/001094_2014-06-15_17-36-00_260595134347_rgbf000205-resize_0/001094_2014-06-15_17-36-00_260595134347_rgbf000205-resize_0-target.png,250,4.2175,15,4952,252,feet,jsons/v1_VE250_randls_40_rotated.json,532569,803891,40,Man
1,387949,DepthScenes,duration_manipulation_targetAtFixation,jsons/v1_VE250_randls_40_rotated.json,http://54.235.29.9/FacialAge/BNav_EC2/DepthDuration/v2_depth_duration_MTurk/v2_DepthDuration_HTML.html#18,18,1130,700,1536,864,8-20-2022,12-4-6,2,depth_duration_stimuli/000692_2014-06-08_13-09-42_260595134347_rgbf000199-resize_2/000692_2014-06-08_13-09-42_260595134347_rgbf000199-resize_2-target.png,250,3.661,12,11438,249,feet,jsons/v1_VE250_randls_40_rotated.json,532569,803891,40,Man
2,387949,DepthScenes,duration_manipulation_targetAtFixation,jsons/v1_VE250_randls_40_rotated.json,http://54.235.29.9/FacialAge/BNav_EC2/DepthDuration/v2_depth_duration_MTurk/v2_DepthDuration_HTML.html#18,18,1130,700,1536,864,8-20-2022,12-4-6,3,depth_duration_stimuli/003423_2014-05-21_10-23-26_094959634447_rgbf002665-resize_2/003423_2014-05-21_10-23-26_094959634447_rgbf002665-resize_2-target.png,250,3.2575,15,3511,249,feet,jsons/v1_VE250_randls_40_rotated.json,532569,803891,40,Man
3,387949,DepthScenes,duration_manipulation_targetAtFixation,jsons/v1_VE250_randls_40_rotated.json,http://54.235.29.9/FacialAge/BNav_EC2/DepthDuration/v2_depth_duration_MTurk/v2_DepthDuration_HTML.html#18,18,1130,700,1536,864,8-20-2022,12-4-6,4,depth_duration_stimuli/002905_2014-06-03_18-04-43_094959634447_rgbf000151-resize_2/002905_2014-06-03_18-04-43_094959634447_rgbf000151-resize_2-target.png,250,2.0295,8,2626,248,feet,jsons/v1_VE250_randls_40_rotated.json,532569,803891,40,Man
4,387949,DepthScenes,duration_manipulation_targetAtFixation,jsons/v1_VE250_randls_40_rotated.json,http://54.235.29.9/FacialAge/BNav_EC2/DepthDuration/v2_depth_duration_MTurk/v2_DepthDuration_HTML.html#18,18,1130,700,1536,864,8-20-2022,12-4-6,5,depth_duration_stimuli/001100_2014-06-15_17-46-26_260595134347_rgbf000225-resize_2/001100_2014-06-15_17-46-26_260595134347_rgbf000225-resize_2-target.png,250,2.24,4,2378,249,feet,jsons/v1_VE250_randls_40_rotated.json,532569,803891,40,Man
5,387949,DepthScenes,duration_manipulation_targetAtFixation,jsons/v1_VE250_randls_40_rotated.json,http://54.235.29.9/FacialAge/BNav_EC2/DepthDuration/v2_depth_duration_MTurk/v2_DepthDuration_HTML.html#18,18,1130,700,1536,864,8-20-2022,12-4-6,6,depth_duration_stimuli/002784_2014-06-22_19-26-30_094959634447_rgbf000083-resize_3/002784_2014-06-22_19-26-30_094959634447_rgbf000083-resize_3-target.png,250,1.8046666666667,5,2788,249,feet,jsons/v1_VE250_randls_40_rotated.json,532569,803891,40,Man
6,387949,DepthScenes,duration_manipulation_targetAtFixation,jsons/v1_VE250_randls_40_rotated.json,http://54.235.29.9/FacialAge/BNav_EC2/DepthDuration/v2_depth_duration_MTurk/v2_DepthDuration_HTML.html#18,18,1130,700,1536,864,8-20-2022,12-4-6,7,depth_duration_stimuli/000709_2014-06-08_13-51-55_260595134347_rgbf000068-resize_3/000709_2014-06-08_13-51-55_260595134347_rgbf000068-resize_3-target.png,250,1.8030000000000002,2,2575,248,feet,jsons/v1_VE250_randls_40_rotated.json,532569,803891,40,Man
7,387949,DepthScenes,duration_manipulation_targetAtFixation,jsons/v1_VE250_randls_40_rotated.json,http://54.235.29.9/FacialAge/BNav_EC2/DepthDuration/v2_depth_duration_MTurk/v2_DepthDuration_HTML.html#18,18,1130,700,1536,864,8-20-2022,12-4-6,8,depth_duration_stimuli/002057_2014-06-24_21-00-13_260595134347_rgbf000120-resize_1/002057_2014-06-24_21-00-13_260595134347_rgbf000120-resize_1-target.png,250,2.967,10,3326,248,feet,jsons/v1_VE250_randls_40_rotated.json,532569,803891,40,Man
8,387949,DepthScenes,duration_manipulation_targetAtFixation,jsons/v1_VE250_randls_40_rotated.json,http://54.235.29.9/FacialAge/BNav_EC2/DepthDuration/v2_depth_duration_MTurk/v2_DepthDuration_HTML.html#18,18,1130,700,1536,864,8-20-2022,12-4-6,9,depth_duration_stimuli/003079_2014-06-15_15-18-20_094959634447_rgbf000152-resize_8/003079_2014-06-15_15-18-20_094959634447_rgbf000152-resize_8-target.png,250,2.8775,6,2888,260,feet,jsons/v1_VE250_randls_40_rotated.json,532569,803891,40,Man
9,387949,DepthScenes,duration_manipulation_targetAtFixation,jsons/v1_VE250_randls_40_rotated.json,http://54.235.29.9/FacialAge/BNav_EC2/DepthDuration/v2_depth_duration_MTurk/v2_DepthDuration_HTML.html#18,18,1130,700,1536,864,8-20-2022,12-4-6,10,depth_duration_stimuli/000506_2014-06-08_23-21-00_260595134347_rgbf000070-resize_7/000506_2014-06-08_23-21-00_260595134347_rgbf000070-resize_7-target.png,250,4.0585,12,2647,247,feet,jsons/v1_VE250_randls_40_rotated.json,532569,803891,40,Man
10,387949,DepthScenes,duration_manipulation_targetAtFixation,jsons/v1_VE250_randls_40_rotated.json,http://54.235.29.9/FacialAge/BNav_EC2/DepthDuration/v2_depth_duration_MTurk/v2_DepthDuration_HTML.html#18,18,1130,700,1536,864,8-20-2022,12-4-6,11,depth_duration_stimuli/002444_2014-06-28_20-32-08_260595134347_rgbf000027-resize_0/002444_2014-06-28_20-32-08_260595134347_rgbf000027-resize_0-target.png,250,4.388999999999999,20,2922,248,feet,jsons/v1_VE250_randls_40_rotated.json,532569,803891,40,Man
11,387949,DepthScenes,duration_manipulation_targetAtFixation,jsons/v1_VE250_randls_40_rotated.json,http://54.235.29.9/FacialAge/BNav_EC2/DepthDuration/v2_depth_duration_MTurk/v2_DepthDuration_HTML.html#18,18,1130,700,1536,864,8-20-2022,12-4-6,12,depth_duration_stimuli/000436_2014-06-09_22-25-11_260595134347_rgbf000137-resize_1/000436_2014-06-09_22-25-11_260595134347_rgbf000137-resize_1-target.png,250,4.0705,15,2410,250,feet,jsons/v1_VE250_randls_40_rotated.json,532569,803891,40,Man
12,387949,DepthScenes,duration_manipulation_targetAtFixation,jsons/v1_VE250_randls_40_rotated.json,http://54.235.29.9/FacialAge/BNav_EC2/DepthDuration/v2_depth_duration_MTurk/v2_DepthDuration_HTML.html#18,18,1130,700,1536,864,8-20-2022,12-4-6,13,depth_duration_stimuli/002953_2014-06-08_17-32-18_094959634447_rgbf000059-resize_5/002953_2014-06-08_17-32-18_094959634447_rgbf000059-resize_5-target.png,250,1.551,3,2791,248,feet,jsons/v1_VE250_randls_40_rotated.json,532569,803891,40,Man
13,387949,DepthScenes,duration_manipulation_targetAtFixation,jsons/v1_VE250_randls_40_rotated.json,http://54.235.29.9/FacialAge/BNav_EC2/DepthDuration/v2_depth_duration_MTurk/v2_DepthDuration_HTML.html#18,18,1130,700,1536,864,8-20-2022,12-4-6,14,depth_duration_stimuli/000878_2014-06-08_22-52-45_260595134347_rgbf000045-resize_2/000878_2014-06-08_22-52-45_260595134347_rgbf000045-resize_2-target.png,250,2.092,7,2477,246,feet,jsons/v1_VE250_randls_40_rotated.json,532569,803891,40,Man
14,387949,DepthScenes,duration_manipulation_targetAtFixation,jsons/v1_VE250_randls_40_rotated.json,http://54.235.29.9/FacialAge/BNav_EC2/DepthDuration/v2_depth_duration_MTurk/v2_DepthDuration_HTML.html#18,18,1130,700,1536,864,8-20-2022,12-4-6,15,depth_duration_stimuli/000691_2014-06-08_13-08-50_260595134347_rgbf000132-resize_3/000691_2014-06-08_13-08-50_260595134347_rgbf000132-resize_3-target.png,250,4.1530000000000005,9,2487,264,feet,jsons/v1_VE250_randls_40_rotated.json,532569,803891,40,Man
15,387949,DepthScenes,duration_manipulation_targetAtFixation,jsons/v1_VE250_randls_40_rotated.json,http://54.235.29.9/FacialAge/BNav_EC2/DepthDuration/v2_depth_duration_MTurk/v2_DepthDuration_HTML.html#18,18,1130,700,1536,864,8-20-2022,12-4-6,16,depth_duration_stimuli/002213_2014-06-28_18-37-58_260595134347_rgbf000055-resize_1/002213_2014-06-28_18-37-58_260595134347_rgbf000055-resize_1-target.png,250,3.62,12,2558,249,feet,jsons/v1_VE250_randls_40_rotated.json,532569,803891,40,Man
16,387949,DepthScenes,duration_manipulation_targetAtFixation,jsons/v1_VE250_randls_40_rotated.json,http://54.235.29.9/FacialAge/BNav_EC2/DepthDuration/v2_depth_duration_MTurk/v2_DepthDuration_HTML.html#18,18,1130,700,1536,864,8-20-2022,12-4-6,17,depth_duration_stimuli/001617_2014-06-20_11-35-32_260595134347_rgbf000066-resize_1/001617_2014-06-20_11-35-32_260595134347_rgbf000066-resize_1-target.png,250,3.7910000000000004,11,2723,250,feet,jsons/v1_VE250_randls_40_rotated.json,532569,803891,40,Man
17,387949,DepthScenes,duration_manipulation_targetAtFixation,jsons/v1_VE250_randls_40_rotated.json,http://54.235.29.9/FacialAge/BNav_EC2/DepthDuration/v2_depth_duration_MTurk/v2_DepthDuration_HTML.html#18,18,1130,700,1536,864,8-20-2022,12-4-6,18,depth_duration_stimuli/001806_2014-06-26_20-50-20_260595134347_rgbf000091-resize_1/001806_2014-06-26_20-50-20_260595134347_rgbf000091-resize_1-target.png,250,2.7305,3,3112,245,feet,jsons/v1_VE250_randls_40_rotated.json,532569,803891,40,Man
18,387949,DepthScenes,duration_manipulation_targetAtFixation,jsons/v1_VE250_randls_40_rotated.json,http://54.235.29.9/FacialAge/BNav_EC2/DepthDuration/v2_depth_duration_MTurk/v2_DepthDuration_HTML.html#18,18,1130,700,1536,864,8-20-2022,12-4-6,19,depth_duration_stimuli/001498_2014-06-19_17-45-14_260595134347_rgbf000129-resize_4/001498_2014-06-19_17-45-14_260595134347_rgbf000129-resize-original.jpg,250,1.4075,0,2228,246,feet,jsons/v1_VE250_randls_40_rotated.json,532569,803891,40,Man
19,387949,DepthScenes,duration_manipulation_targetAtFixation,jsons/v1_VE250_randls_40_rotated.json,http://54.235.29.9/FacialAge/BNav_EC2/DepthDuration/v2_depth_duration_MTurk/v2_DepthDuration_HTML.html#18,18,1130,700,1536,864,8-20-2022,12-4-6,20,depth_duration_stimuli/000502_2014-06-08_23-02-32_260595134347_rgbf000063-resize_4/000502_2014-06-08_23-02-32_260595134347_rgbf000063-resize_4-target.png,250,2.431,8,2467,251,feet,jsons/v1_VE250_randls_40_rotated.json,532569,803891,40,Man
20,387949,DepthScenes,duration_manipulation_targetAtFixation,jsons/v1_VE250_randls_40_rotated.json,http://54.235.29.9/FacialAge/BNav_EC2/DepthDuration/v2_depth_duration_MTurk/v2_DepthDuration_HTML.html#18,18,1130,700,1536,864,8-20-2022,12-4-6,21,depth_duration_stimuli/001199_2014-06-17_16-03-48_260595134347_rgbf000077-resize_0/001199_2014-06-17_16-03-48_260595134347_rgbf000077-resize_0-target.png,250,3.4375,13,3149,249,feet,jsons/v1_VE250_randls_40_rotated.json,532569,803891,40,Man
21,387949,DepthScenes,duration_manipulation_targetAtFixation,jsons/v1_VE250_randls_40_rotated.json,http://54.235.29.9/FacialAge/BNav_EC2/DepthDuration/v2_depth_duration_MTurk/v2_DepthDuration_HTML.html#18,18,1130,700,1536,864,8-20-2022,12-4-6,22,depth_duration_stimuli/002660_2014-06-13_15-44-18_094959634447_rgbf001878-resize_2/002660_2014-06-13_15-44-18_094959634447_rgbf001878-resize_2-target.png,250,3.576,9,2344,248,feet,jsons/v1_VE250_randls_40_rotated.json,532569,803891,40,Man
22,387949,DepthScenes,duration_manipulation_targetAtFixation,jsons/v1_VE250_randls_40_rotated.json,http://54.235.29.9/FacialAge/BNav_EC2/DepthDuration/v2_depth_duration_MTurk/v2_DepthDuration_HTML.html#18,18,1130,700,1536,864,8-20-2022,12-4-6,23,depth_duration_stimuli/002153_2014-06-25_21-27-18_260595134347_rgbf000038-resize_5/002153_2014-06-25_21-27-18_260595134347_rgbf000038-resize_5-target.png,250,2.505,7,2548,252,feet,jsons/v1_VE250_randls_40_rotated.json,532569,803891,40,Man
23,387949,DepthScenes,duration_manipulation_targetAtFixation,jsons/v1_VE250_randls_40_rotated.json,http://54.235.29.9/FacialAge/BNav_EC2/DepthDuration/v2_depth_duration_MTurk/v2_DepthDuration_HTML.html#18,18,1130,700,1536,864,8-20-2022,12-4-6,24,depth_duration_stimuli/003338_2014-05-20_11-01-23_094959634447_rgbf000051-resize_6/003338_2014-05-20_11-01-23_094959634447_rgbf000051-resize_6-target.png,250,1.693,4,2495,247,feet,jsons/v1_VE250_randls_40_rotated.json,532569,803891,40,Man
24,387949,DepthScenes,duration_manipulation_targetAtFixation,jsons/v1_VE250_randls_40_rotated.json,http://54.235.29.9/FacialAge/BNav_EC2/DepthDuration/v2_depth_duration_MTurk/v2_DepthDuration_HTML.html#18,18,1130,700,1536,864,8-20-2022,12-4-6,25,depth_duration_stimuli/002509_2014-06-24_13-19-22_094959634447_rgbf000077-resize_0/002509_2014-06-24_13-19-22_094959634447_rgbf000077-resize_0-target.png,250,1.3065,3,5839,249,feet,jsons/v1_VE250_randls_40_rotated.json,532569,803891,40,Man
25,387949,DepthScenes,duration_manipulation_targetAtFixation,jsons/v1_VE250_randls_40_rotated.json,http://54.235.29.9/FacialAge/BNav_EC2/DepthDuration/v2_depth_duration_MTurk/v2_DepthDuration_HTML.html#18,18,1130,700,1536,864,8-20-2022,12-4-6,26,depth_duration_stimuli/002545_2014-06-24_13-38-53_094959634447_rgbf000080-resize_4/002545_2014-06-24_13-38-53_094959634447_rgbf000080-resize_4-target.png,250,1.9205,6,2636,246,feet,jsons/v1_VE250_randls_40_rotated.json,532569,803891,40,Man
26,387949,DepthScenes,duration_manipulation_targetAtFixation,jsons/v1_VE250_randls_40_rotated.json,http://54.235.29.9/FacialAge/BNav_EC2/DepthDuration/v2_depth_duration_MTurk/v2_DepthDuration_HTML.html#18,18,1130,700,1536,864,8-20-2022,12-4-6,27,depth_duration_stimuli/001092_2014-06-15_17-34-58_260595134347_rgbf000171-resize_3/001092_2014-06-15_17-34-58_260595134347_rgbf000171-resize_3-target.png,250,2.6935,7,2950,249,feet,jsons/v1_VE250_randls_40_rotated.json,532569,803891,40,Man
27,387949,DepthScenes,duration_manipulation_targetAtFixation,jsons/v1_VE250_randls_40_rotated.json,http://54.235.29.9/FacialAge/BNav_EC2/DepthDuration/v2_depth_duration_MTurk/v2_DepthDuration_HTML.html#18,18,1130,700,1536,864,8-20-2022,12-4-6,28,depth_duration_stimuli/002199_2014-06-28_18-33-56_260595134347_rgbf000074-resize_0/002199_2014-06-28_18-33-56_260595134347_rgbf000074-resize_0-target.png,250,1.996,2,2612,251,feet,jsons/v1_VE250_randls_40_rotated.json,532569,803891,40,Man
28,387949,DepthScenes,duration_manipulation_targetAtFixation,jsons/v1_VE250_randls_40_rotated.json,http://54.235.29.9/FacialAge/BNav_EC2/DepthDuration/v2_depth_duration_MTurk/v2_DepthDuration_HTML.html#18,18,1130,700,1536,864,8-20-2022,12-4-6,29,depth_duration_stimuli/001056_2014-06-08_18-46-44_260595134347_rgbf000068-resize_0/001056_2014-06-08_18-46-44_260595134347_rgbf000068-resize_0-target.png,250,2.6625,9,2731,265,feet,jsons/v1_VE250_randls_40_rotated.json,532569,803891,40,Man
29,387949,DepthScenes,duration_manipulation_targetAtFixation,jsons/v1_VE250_randls_40_rotated.json,http://54.235.29.9/FacialAge/BNav_EC2/DepthDuration/v2_depth_duration_MTurk/v2_DepthDuration_HTML.html#18,18,1130,700,1536,864,8-20-2022,12-4-6,30,depth_duration_stimuli/002072_2014-06-24_21-48-06_260595134347_rgbf000115-resize_0/002072_2014-06-24_21-48-06_260595134347_rgbf000115-resize-original.jpg,250,4.702,0,2269,249,feet,jsons/v1_VE250_randls_40_rotated.json,532569,803891,40,Man
30,387949,DepthScenes,duration_manipulation_targetAtFixation,jsons/v1_VE250_randls_40_rotated.json,http://54.235.29.9/FacialAge/BNav_EC2/DepthDuration/v2_depth_duration_MTurk/v2_DepthDuration_HTML.html#18,18,1130,700,1536,864,8-20-2022,12-4-6,31,depth_duration_stimuli/002637_2014-06-24_14-51-13_094959634447_rgbf000066-resize_4/002637_2014-06-24_14-51-13_094959634447_rgbf000066-resize_4-target.png,250,1.9955,6,2362,247,feet,jsons/v1_VE250_randls_40_rotated.json,532569,803891,40,Man
31,387949,DepthScenes,duration_manipulation_targetAtFixation,jsons/v1_VE250_randls_40_rotated.json,http://54.235.29.9/FacialAge/BNav_EC2/DepthDuration/v2_depth_duration_MTurk/v2_DepthDuration_HTML.html#18,18,1130,700,1536,864,8-20-2022,12-4-6,32,depth_duration_stimuli/003534_2014-05-22_15-06-10_094959634447_rgbf000102-resize_4/003534_2014-05-22_15-06-10_094959634447_rgbf000102-resize_4-target.png,250,1.426,3,2451,249,feet,jsons/v1_VE250_randls_40_rotated.json,532569,803891,40,Man
32,387949,DepthScenes,duration_manipulation_targetAtFixation,jsons/v1_VE250_randls_40_rotated.json,http://54.235.29.9/FacialAge/BNav_EC2/DepthDuration/v2_depth_duration_MTurk/v2_DepthDuration_HTML.html#18,18,1130,700,1536,864,8-20-2022,12-4-6,33,depth_duration_stimuli/003495_2014-05-21_16-01-51_094959634447_rgbf000100-resize_3/003495_2014-05-21_16-01-51_094959634447_rgbf000100-resize_3-target.png,250,1.6255,5,2680,250,feet,jsons/v1_VE250_randls_40_rotated.json,532569,803891,40,Man
33,387949,DepthScenes,duration_manipulation_targetAtFixation,jsons/v1_VE250_randls_40_rotated.json,http://54.235.29.9/FacialAge/BNav_EC2/DepthDuration/v2_depth_duration_MTurk/v2_DepthDuration_HTML.html#18,18,1130,700,1536,864,8-20-2022,12-4-6,34,depth_duration_stimuli/001244_2014-06-17_16-47-45_260595134347_rgbf000030-resize_4/001244_2014-06-17_16-47-45_260595134347_rgbf000030-resize_4-target.png,250,2.0425,5,2582,250,feet,jsons/v1_VE250_randls_40_rotated.json,532569,803891,40,Man
34,387949,DepthScenes,duration_manipulation_targetAtFixation,jsons/v1_VE250_randls_40_rotated.json,http://54.235.29.9/FacialAge/BNav_EC2/DepthDuration/v2_depth_duration_MTurk/v2_DepthDuration_HTML.html#18,18,1130,700,1536,864,8-20-2022,12-4-6,35,depth_duration_stimuli/002103_2014-06-25_20-00-40_260595134347_rgbf000049-resize_0/002103_2014-06-25_20-00-40_260595134347_rgbf000049-resize_0-target.png,250,4.105,9,2463,251,feet,jsons/v1_VE250_randls_40_rotated.json,532569,803891,40,Man
35,387949,DepthScenes,duration_manipulation_targetAtFixation,jsons/v1_VE250_randls_40_rotated.json,http://54.235.29.9/FacialAge/BNav_EC2/DepthDuration/v2_depth_duration_MTurk/v2_DepthDuration_HTML.html#18,18,1130,700,1536,864,8-20-2022,12-4-6,36,depth_duration_stimuli/002039_2014-06-24_20-22-38_260595134347_rgbf000084-resize_1/002039_2014-06-24_20-22-38_260595134347_rgbf000084-resize_1-target.png,250,4.408,15,2546,248,feet,jsons/v1_VE250_randls_40_rotated.json,532569,803891,40,Man
36,387949,DepthScenes,duration_manipulation_targetAtFixation,jsons/v1_VE250_randls_40_rotated.json,http://54.235.29.9/FacialAge/BNav_EC2/DepthDuration/v2_depth_duration_MTurk/v2_DepthDuration_HTML.html#18,18,1130,700,1536,864,8-20-2022,12-4-6,37,depth_duration_stimuli/000780_2014-06-08_22-28-29_260595134347_rgbf000126-resize_1/000780_2014-06-08_22-28-29_260595134347_rgbf000126-resize_1-target.png,250,3.3825,10,2958,247,feet,jsons/v1_VE250_randls_40_rotated.json,532569,803891,40,Man
37,387949,DepthScenes,duration_manipulation_targetAtFixation,jsons/v1_VE250_randls_40_rotated.json,http://54.235.29.9/FacialAge/BNav_EC2/DepthDuration/v2_depth_duration_MTurk/v2_DepthDuration_HTML.html#18,18,1130,700,1536,864,8-20-2022,12-4-6,38,depth_duration_stimuli/002445_2014-06-28_20-32-16_260595134347_rgbf000029-resize_4/002445_2014-06-28_20-32-16_260595134347_rgbf000029-resize_4-target.png,250,2.5315,9,2386,251,feet,jsons/v1_VE250_randls_40_rotated.json,532569,803891,40,Man
38,387949,DepthScenes,duration_manipulation_targetAtFixation,jsons/v1_VE250_randls_40_rotated.json,http://54.235.29.9/FacialAge/BNav_EC2/DepthDuration/v2_depth_duration_MTurk/v2_DepthDuration_HTML.html#18,18,1130,700,1536,864,8-20-2022,12-4-6,39,depth_duration_stimuli/002805_2014-06-22_19-54-03_094959634447_rgbf000079-resize_1/002805_2014-06-22_19-54-03_094959634447_rgbf000079-resize_1-target.png,250,3.1439999999999997,12,3732,263,feet,jsons/v1_VE250_randls_40_rotated.json,532569,803891,40,Man
39,387949,DepthScenes,duration_manipulation_targetAtFixation,jsons/v1_VE250_randls_40_rotated.json,http://54.235.29.9/FacialAge/BNav_EC2/DepthDuration/v2_depth_duration_MTurk/v2_DepthDuration_HTML.html#18,18,1130,700,1536,864,8-20-2022,12-4-6,40,depth_duration_stimuli/000906_2014-06-08_13-35-43_260595134347_rgbf000155-resize_1/000906_2014-06-08_13-35-43_260595134347_rgbf000155-resize_1-target.png,250,2.8489999999999998,13,2521,251,feet,jsons/v1_VE250_randls_40_rotated.json,532569,803891,40,Man
40,387949,DepthScenes,duration_manipulation_targetAtFixation,jsons/v1_VE250_randls_40_rotated.json,http://54.235.29.9/FacialAge/BNav_EC2/DepthDuration/v2_depth_duration_MTurk/v2_DepthDuration_HTML.html#18,18,1130,700,1536,864,8-20-2022,12-4-6,41,depth_duration_stimuli/003081_2014-06-15_15-19-16_094959634447_rgbf000150-resize_1/003081_2014-06-15_15-19-16_094959634447_rgbf000150-resize_1-target.png,250,3.9125,15,2577,250,feet,jsons/v1_VE250_randls_40_rotated.json,532569,803891,40,Man
41,387949,DepthScenes,duration_manipulation_targetAtFixation,jsons/v1_VE250_randls_40_rotated.json,http://54.235.29.9/FacialAge/BNav_EC2/DepthDuration/v2_depth_duration_MTurk/v2_DepthDuration_HTML.html#18,18,1130,700,1536,864,8-20-2022,12-4-6,42,depth_duration_stimuli/001417_2014-06-19_16-25-36_260595134347_rgbf000115-resize_5/001417_2014-06-19_16-25-36_260595134347_rgbf000115-resize_5-target.png,250,4.6255,12,2585,250,feet,jsons/v1_VE250_randls_40_rotated.json,532569,803891,40,Man
42,387949,DepthScenes,duration_manipulation_targetAtFixation,jsons/v1_VE250_randls_40_rotated.json,http://54.235.29.9/FacialAge/BNav_EC2/DepthDuration/v2_depth_duration_MTurk/v2_DepthDuration_HTML.html#18,18,1130,700,1536,864,8-20-2022,12-4-6,43,depth_duration_stimuli/000943_2014-06-09_19-31-07_260595134347_rgbf000128-resize_1/000943_2014-06-09_19-31-07_260595134347_rgbf000128-resize_1-target.png,250,1.9765,6,2563,250,feet,jsons/v1_VE250_randls_40_rotated.json,532569,803891,40,Man
43,387949,DepthScenes,duration_manipulation_targetAtFixation,jsons/v1_VE250_randls_40_rotated.json,http://54.235.29.9/FacialAge/BNav_EC2/DepthDuration/v2_depth_duration_MTurk/v2_DepthDuration_HTML.html#18,18,1130,700,1536,864,8-20-2022,12-4-6,44,depth_duration_stimuli/003070_2014-06-15_14-58-27_094959634447_rgbf000150-resize_3/003070_2014-06-15_14-58-27_094959634447_rgbf000150-resize_3-target.png,250,2.9415,9,2757,265,feet,jsons/v1_VE250_randls_40_rotated.json,532569,803891,40,Man
44,387949,DepthScenes,duration_manipulation_targetAtFixation,jsons/v1_VE250_randls_40_rotated.json,http://54.235.29.9/FacialAge/BNav_EC2/DepthDuration/v2_depth_duration_MTurk/v2_DepthDuration_HTML.html#18,18,1130,700,1536,864,8-20-2022,12-4-6,45,depth_duration_stimuli/002949_2014-06-26_15-57-42_094959634447_rgbf000079-resize_1/002949_2014-06-26_15-57-42_094959634447_rgbf000079-resize_1-target.png,250,1.8915,4,2442,250,feet,jsons/v1_VE250_randls_40_rotated.json,532569,803891,40,Man
45,387949,DepthScenes,duration_manipulation_targetAtFixation,jsons/v1_VE250_randls_40_rotated.json,http://54.235.29.9/FacialAge/BNav_EC2/DepthDuration/v2_depth_duration_MTurk/v2_DepthDuration_HTML.html#18,18,1130,700,1536,864,8-20-2022,12-4-6,46,depth_duration_stimuli/000522_2014-06-08_13-35-06_260595134347_rgbf000244-resize_1/000522_2014-06-08_13-35-06_260595134347_rgbf000244-resize_1-target.png,250,2.3715,2,2525,250,feet,jsons/v1_VE250_randls_40_rotated.json,532569,803891,40,Man
46,387949,DepthScenes,duration_manipulation_targetAtFixation,jsons/v1_VE250_randls_40_rotated.json,http://54.235.29.9/FacialAge/BNav_EC2/DepthDuration/v2_depth_duration_MTurk/v2_DepthDuration_HTML.html#18,18,1130,700,1536,864,8-20-2022,12-4-6,47,depth_duration_stimuli/000927_2014-06-09_16-32-30_260595134347_rgbf000123-resize_3/000927_2014-06-09_16-32-30_260595134347_rgbf000123-resize_3-target.png,250,2.6785,9,2545,250,feet,jsons/v1_VE250_randls_40_rotated.json,532569,803891,40,Man
47,387949,DepthScenes,duration_manipulation_targetAtFixation,jsons/v1_VE250_randls_40_rotated.json,http://54.235.29.9/FacialAge/BNav_EC2/DepthDuration/v2_depth_duration_MTurk/v2_DepthDuration_HTML.html#18,18,1130,700,1536,864,8-20-2022,12-4-6,48,depth_duration_stimuli/001110_2014-06-15_17-25-28_260595134347_rgbf000150-resize_1/001110_2014-06-15_17-25-28_260595134347_rgbf000150-resize_1-target.png,250,1.7115,6,2700,248,feet,jsons/v1_VE250_randls_40_rotated.json,532569,803891,40,Man
48,387949,DepthScenes,duration_manipulation_targetAtFixation,jsons/v1_VE250_randls_40_rotated.json,http://54.235.29.9/FacialAge/BNav_EC2/DepthDuration/v2_depth_duration_MTurk/v2_DepthDuration_HTML.html#18,18,1130,700,1536,864,8-20-2022,12-4-6,49,depth_duration_stimuli/001170_2014-06-17_15-43-44_260595134347_rgbf000096-resize_6/001170_2014-06-17_15-43-44_260595134347_rgbf000096-resize-original.jpg,250,1.1909999999999998,0,2223,252,feet,jsons/v1_VE250_randls_40_rotated.json,532569,803891,40,Man
49,387949,DepthScenes,duration_manipulation_targetAtFixation,jsons/v1_VE250_randls_40_rotated.json,http://54.235.29.9/FacialAge/BNav_EC2/DepthDuration/v2_depth_duration_MTurk/v2_DepthDuration_HTML.html#18,18,1130,700,1536,864,8-20-2022,12-4-6,50,depth_duration_stimuli/002750_2014-06-22_19-08-03_094959634447_rgbf000094-resize_4/002750_2014-06-22_19-08-03_094959634447_rgbf000094-resize_4-target.png,250,2.354,8,2534,250,feet,jsons/v1_VE250_randls_40_rotated.json,532569,803891,40,Man
50,387949,DepthScenes,duration_manipulation_targetAtFixation,jsons/v1_VE250_randls_40_rotated.json,http://54.235.29.9/FacialAge/BNav_EC2/DepthDuration/v2_depth_duration_MTurk/v2_DepthDuration_HTML.html#18,18,1130,700,1536,864,8-20-2022,12-4-6,51,depth_duration_stimuli/002549_2014-06-24_13-41-39_094959634447_rgbf000022-resize_3/002549_2014-06-24_13-41-39_094959634447_rgbf000022-resize_3-target.png,250,1.476,6,3093,248,feet,jsons/v1_VE250_randls_40_rotated.json,532569,803891,40,Man
51,387949,DepthScenes,duration_manipulation_targetAtFixation,jsons/v1_VE250_randls_40_rotated.json,http://54.235.29.9/FacialAge/BNav_EC2/DepthDuration/v2_depth_duration_MTurk/v2_DepthDuration_HTML.html#18,18,1130,700,1536,864,8-20-2022,12-4-6,52,depth_duration_stimuli/002467_2014-06-28_20-38-07_260595134347_rgbf000026-resize_2/002467_2014-06-28_20-38-07_260595134347_rgbf000026-resize_2-target.png,250,4.742,15,2344,247,feet,jsons/v1_VE250_randls_40_rotated.json,532569,803891,40,Man
52,387949,DepthScenes,duration_manipulation_targetAtFixation,jsons/v1_VE250_randls_40_rotated.json,http://54.235.29.9/FacialAge/BNav_EC2/DepthDuration/v2_depth_duration_MTurk/v2_DepthDuration_HTML.html#18,18,1130,700,1536,864,8-20-2022,12-4-6,53,depth_duration_stimuli/002570_2014-06-24_13-59-54_094959634447_rgbf000059-resize_0/002570_2014-06-24_13-59-54_094959634447_rgbf000059-resize_0-target.png,250,4.037,9,2422,250,feet,jsons/v1_VE250_randls_40_rotated.json,532569,803891,40,Man
53,387949,DepthScenes,duration_manipulation_targetAtFixation,jsons/v1_VE250_randls_40_rotated.json,http://54.235.29.9/FacialAge/BNav_EC2/DepthDuration/v2_depth_duration_MTurk/v2_DepthDuration_HTML.html#18,18,1130,700,1536,864,8-20-2022,12-4-6,54,depth_duration_stimuli/000742_2014-06-08_18-48-09_260595134347_rgbf000164-resize_4/000742_2014-06-08_18-48-09_260595134347_rgbf000164-resize_4-target.png,250,4.632,14,2728,263,feet,jsons/v1_VE250_randls_40_rotated.json,532569,803891,40,Man
54,387949,DepthScenes,duration_manipulation_targetAtFixation,jsons/v1_VE250_randls_40_rotated.json,http://54.235.29.9/FacialAge/BNav_EC2/DepthDuration/v2_depth_duration_MTurk/v2_DepthDuration_HTML.html#18,18,1130,700,1536,864,8-20-2022,12-4-6,55,depth_duration_stimuli/001066_2014-06-08_22-03-20_260595134347_rgbf000066-resize_4/001066_2014-06-08_22-03-20_260595134347_rgbf000066-resize_4-target.png,250,4.2330000000000005,17,3544,250,feet,jsons/v1_VE250_randls_40_rotated.json,532569,803891,40,Man
55,387949,DepthScenes,duration_manipulation_targetAtFixation,jsons/v1_VE250_randls_40_rotated.json,http://54.235.29.9/FacialAge/BNav_EC2/DepthDuration/v2_depth_duration_MTurk/v2_DepthDuration_HTML.html#18,18,1130,700,1536,864,8-20-2022,12-4-6,56,depth_duration_stimuli/000749_2014-06-08_21-55-06_260595134347_rgbf000070-resize_2/000749_2014-06-08_21-55-06_260595134347_rgbf000070-resize_2-target.png,250,2.331,8,2548,251,feet,jsons/v1_VE250_randls_40_rotated.json,532569,803891,40,Man
56,387949,DepthScenes,duration_manipulation_targetAtFixation,jsons/v1_VE250_randls_40_rotated.json,http://54.235.29.9/FacialAge/BNav_EC2/DepthDuration/v2_depth_duration_MTurk/v2_DepthDuration_HTML.html#18,18,1130,700,1536,864,8-20-2022,12-4-6,57,depth_duration_stimuli/002788_2014-06-22_19-36-03_094959634447_rgbf000088-resize_2/002788_2014-06-22_19-36-03_094959634447_rgbf000088-resize_2-target.png,250,1.6465,12,2465,248,feet,jsons/v1_VE250_randls_40_rotated.json,532569,803891,40,Man
57,387949,DepthScenes,duration_manipulation_targetAtFixation,jsons/v1_VE250_randls_40_rotated.json,http://54.235.29.9/FacialAge/BNav_EC2/DepthDuration/v2_depth_duration_MTurk/v2_DepthDuration_HTML.html#18,18,1130,700,1536,864,8-20-2022,12-4-6,58,depth_duration_stimuli/001132_2014-06-17_14-48-54_260595134347_rgbf000100-resize_2/001132_2014-06-17_14-48-54_260595134347_rgbf000100-resize_2-target.png,250,3.753,10,2535,248,feet,jsons/v1_VE250_randls_40_rotated.json,532569,803891,40,Man
58,387949,DepthScenes,duration_manipulation_targetAtFixation,jsons/v1_VE250_randls_40_rotated.json,http://54.235.29.9/FacialAge/BNav_EC2/DepthDuration/v2_depth_duration_MTurk/v2_DepthDuration_HTML.html#18,18,1130,700,1536,864,8-20-2022,12-4-6,59,depth_duration_stimuli/001133_2014-06-17_14-49-16_260595134347_rgbf000100-resize_0/001133_2014-06-17_14-49-16_260595134347_rgbf000100-resize_0-target.png,250,4.2115,9,2401,247,feet,jsons/v1_VE250_randls_40_rotated.json,532569,803891,40,Man
59,387949,DepthScenes,duration_manipulation_targetAtFixation,jsons/v1_VE250_randls_40_rotated.json,http://54.235.29.9/FacialAge/BNav_EC2/DepthDuration/v2_depth_duration_MTurk/v2_DepthDuration_HTML.html#18,18,1130,700,1536,864,8-20-2022,12-4-6,60,depth_duration_stimuli/000137_2014-05-20_17-04-49_260595134347_rgbf000120-resize_1/000137_2014-05-20_17-04-49_260595134347_rgbf000120-resize_1-target.png,250,3.786,13,2401,250,feet,jsons/v1_VE250_randls_40_rotated.json,532569,803891,40,Man
60,387949,DepthScenes,duration_manipulation_targetAtFixation,jsons/v1_VE250_randls_40_rotated.json,http://54.235.29.9/FacialAge/BNav_EC2/DepthDuration/v2_depth_duration_MTurk/v2_DepthDuration_HTML.html#18,18,1130,700,1536,864,8-20-2022,12-4-6,61,depth_duration_stimuli/000736_2014-06-08_18-24-15_260595134347_rgbf000206-resize_3/000736_2014-06-08_18-24-15_260595134347_rgbf000206-resize_3-target.png,250,3.515,8,2235,250,feet,jsons/v1_VE250_randls_40_rotated.json,532569,803891,40,Man
61,387949,DepthScenes,duration_manipulation_targetAtFixation,jsons/v1_VE250_randls_40_rotated.json,http://54.235.29.9/FacialAge/BNav_EC2/DepthDuration/v2_depth_duration_MTurk/v2_DepthDuration_HTML.html#18,18,1130,700,1536,864,8-20-2022,12-4-6,62,depth_duration_stimuli/002678_2014-06-13_16-15-32_094959634447_rgbf000151-resize_6/002678_2014-06-13_16-15-32_094959634447_rgbf000151-resize_6-target.png,250,2.1830000000000003,8,2778,247,feet,jsons/v1_VE250_randls_40_rotated.json,532569,803891,40,Man
62,387949,DepthScenes,duration_manipulation_targetAtFixation,jsons/v1_VE250_randls_40_rotated.json,http://54.235.29.9/FacialAge/BNav_EC2/DepthDuration/v2_depth_duration_MTurk/v2_DepthDuration_HTML.html#18,18,1130,700,1536,864,8-20-2022,12-4-6,63,depth_duration_stimuli/000368_2014-06-09_15-53-01_260595134347_rgbf000155-resize_2/000368_2014-06-09_15-53-01_260595134347_rgbf000155-resize_2-target.png,250,2.4859999999999998,7,2533,253,feet,jsons/v1_VE250_randls_40_rotated.json,532569,803891,40,Man
63,387949,DepthScenes,duration_manipulation_targetAtFixation,jsons/v1_VE250_randls_40_rotated.json,http://54.235.29.9/FacialAge/BNav_EC2/DepthDuration/v2_depth_duration_MTurk/v2_DepthDuration_HTML.html#18,18,1130,700,1536,864,8-20-2022,12-4-6,64,depth_duration_stimuli/002425_2014-06-28_20-27-29_260595134347_rgbf000031-resize_8/002425_2014-06-28_20-27-29_260595134347_rgbf000031-resize_8-target.png,250,3.8960000000000004,12,2464,248,feet,jsons/v1_VE250_randls_40_rotated.json,532569,803891,40,Man
64,387949,DepthScenes,duration_manipulation_targetAtFixation,jsons/v1_VE250_randls_40_rotated.json,http://54.235.29.9/FacialAge/BNav_EC2/DepthDuration/v2_depth_duration_MTurk/v2_DepthDuration_HTML.html#18,18,1130,700,1536,864,8-20-2022,12-4-6,65,depth_duration_stimuli/000642_2014-06-08_16-59-25_260595134347_rgbf000098-resize_2/000642_2014-06-08_16-59-25_260595134347_rgbf000098-resize_2-target.png,250,2.8815,11,2519,248,feet,jsons/v1_VE250_randls_40_rotated.json,532569,803891,40,Man
65,387949,DepthScenes,duration_manipulation_targetAtFixation,jsons/v1_VE250_randls_40_rotated.json,http://54.235.29.9/FacialAge/BNav_EC2/DepthDuration/v2_depth_duration_MTurk/v2_DepthDuration_HTML.html#18,18,1130,700,1536,864,8-20-2022,12-4-6,66,depth_duration_stimuli/001540_2014-06-20_17-01-05_260595134347_rgbf000086-resize_2/001540_2014-06-20_17-01-05_260595134347_rgbf000086-resize-original.jpg,250,1.459,0,2216,248,feet,jsons/v1_VE250_randls_40_rotated.json,532569,803891,40,Man
66,387949,DepthScenes,duration_manipulation_targetAtFixation,jsons/v1_VE250_randls_40_rotated.json,http://54.235.29.9/FacialAge/BNav_EC2/DepthDuration/v2_depth_duration_MTurk/v2_DepthDuration_HTML.html#18,18,1130,700,1536,864,8-20-2022,12-4-6,67,depth_duration_stimuli/000457_2014-06-08_16-52-43_260595134347_rgbf000199-resize_1/000457_2014-06-08_16-52-43_260595134347_rgbf000199-resize_1-target.png,250,3.6489999999999996,10,2565,246,feet,jsons/v1_VE250_randls_40_rotated.json,532569,803891,40,Man
67,387949,DepthScenes,duration_manipulation_targetAtFixation,jsons/v1_VE250_randls_40_rotated.json,http://54.235.29.9/FacialAge/BNav_EC2/DepthDuration/v2_depth_duration_MTurk/v2_DepthDuration_HTML.html#18,18,1130,700,1536,864,8-20-2022,12-4-6,68,depth_duration_stimuli/000929_2014-06-09_16-33-19_260595134347_rgbf000139-resize_0/000929_2014-06-09_16-33-19_260595134347_rgbf000139-resize_0-target.png,250,2.8680000000000003,9,2956,263,feet,jsons/v1_VE250_randls_40_rotated.json,532569,803891,40,Man
68,387949,DepthScenes,duration_manipulation_targetAtFixation,jsons/v1_VE250_randls_40_rotated.json,http://54.235.29.9/FacialAge/BNav_EC2/DepthDuration/v2_depth_duration_MTurk/v2_DepthDuration_HTML.html#18,18,1130,700,1536,864,8-20-2022,12-4-6,69,depth_duration_stimuli/002136_2014-06-25_21-18-03_260595134347_rgbf000109-resize_3/002136_2014-06-25_21-18-03_260595134347_rgbf000109-resize_3-target.png,250,1.9569999999999999,5,2639,251,feet,jsons/v1_VE250_randls_40_rotated.json,532569,803891,40,Man
69,387949,DepthScenes,duration_manipulation_targetAtFixation,jsons/v1_VE250_randls_40_rotated.json,http://54.235.29.9/FacialAge/BNav_EC2/DepthDuration/v2_depth_duration_MTurk/v2_DepthDuration_HTML.html#18,18,1130,700,1536,864,8-20-2022,12-4-6,70,depth_duration_stimuli/002964_2014-06-08_17-46-11_094959634447_rgbf000091-resize_4/002964_2014-06-08_17-46-11_094959634447_rgbf000091-resize_4-target.png,250,1.6909999999999998,3,2438,250,feet,jsons/v1_VE250_randls_40_rotated.json,532569,803891,40,Man
70,387949,DepthScenes,duration_manipulation_targetAtFixation,jsons/v1_VE250_randls_40_rotated.json,http://54.235.29.9/FacialAge/BNav_EC2/DepthDuration/v2_depth_duration_MTurk/v2_DepthDuration_HTML.html#18,18,1130,700,1536,864,8-20-2022,12-4-6,71,depth_duration_stimuli/003587_2014-05-23_16-48-02_094959634447_rgbf002384-resize_2/003587_2014-05-23_16-48-02_094959634447_rgbf002384-resize_2-target.png,250,1.357,3,2451,247,feet,jsons/v1_VE250_randls_40_rotated.json,532569,803891,40,Man
71,387949,DepthScenes,duration_manipulation_targetAtFixation,jsons/v1_VE250_randls_40_rotated.json,http://54.235.29.9/FacialAge/BNav_EC2/DepthDuration/v2_depth_duration_MTurk/v2_DepthDuration_HTML.html#18,18,1130,700,1536,864,8-20-2022,12-4-6,72,depth_duration_stimuli/001167_2014-06-17_15-38-07_260595134347_rgbf000108-resize_0/001167_2014-06-17_15-38-07_260595134347_rgbf000108-resize_0-target.png,250,1.8505,5,2286,249,feet,jsons/v1_VE250_randls_40_rotated.json,532569,803891,40,Man
72,387949,DepthScenes,duration_manipulation_targetAtFixation,jsons/v1_VE250_randls_40_rotated.json,http://54.235.29.9/FacialAge/BNav_EC2/DepthDuration/v2_depth_duration_MTurk/v2_DepthDuration_HTML.html#18,18,1130,700,1536,864,8-20-2022,12-4-6,73,depth_duration_stimuli/002568_2014-06-24_13-59-21_094959634447_rgbf000062-resize_4/002568_2014-06-24_13-59-21_094959634447_rgbf000062-resize_4-target.png,250,3.015,10,2243,249,feet,jsons/v1_VE250_randls_40_rotated.json,532569,803891,40,Man
73,387949,DepthScenes,duration_manipulation_targetAtFixation,jsons/v1_VE250_randls_40_rotated.json,http://54.235.29.9/FacialAge/BNav_EC2/DepthDuration/v2_depth_duration_MTurk/v2_DepthDuration_HTML.html#18,18,1130,700,1536,864,8-20-2022,12-4-6,74,depth_duration_stimuli/003492_2014-05-21_15-50-55_094959634447_rgbf000828-resize_1/003492_2014-05-21_15-50-55_094959634447_rgbf000828-resize_1-target.png,250,4.06875,15,2274,248,feet,jsons/v1_VE250_randls_40_rotated.json,532569,803891,40,Man
74,387949,DepthScenes,duration_manipulation_targetAtFixation,jsons/v1_VE250_randls_40_rotated.json,http://54.235.29.9/FacialAge/BNav_EC2/DepthDuration/v2_depth_duration_MTurk/v2_DepthDuration_HTML.html#18,18,1130,700,1536,864,8-20-2022,12-4-6,75,depth_duration_stimuli/001032_2014-06-08_13-23-17_260595134347_rgbf000021-resize_3/001032_2014-06-08_13-23-17_260595134347_rgbf000021-resize_3-target.png,250,3.2725,9,2348,249,feet,jsons/v1_VE250_randls_40_rotated.json,532569,803891,40,Man
75,387949,DepthScenes,duration_manipulation_targetAtFixation,jsons/v1_VE250_randls_40_rotated.json,http://54.235.29.9/FacialAge/BNav_EC2/DepthDuration/v2_depth_duration_MTurk/v2_DepthDuration_HTML.html#18,18,1130,700,1536,864,8-20-2022,12-4-6,76,depth_duration_stimuli/001059_2014-06-08_21-53-27_260595134347_rgbf000061-resize_4/001059_2014-06-08_21-53-27_260595134347_rgbf000061-resize_4-target.png,250,2.4185,7,2305,249,feet,jsons/v1_VE250_randls_40_rotated.json,532569,803891,40,Man
76,387949,DepthScenes,duration_manipulation_targetAtFixation,jsons/v1_VE250_randls_40_rotated.json,http://54.235.29.9/FacialAge/BNav_EC2/DepthDuration/v2_depth_duration_MTurk/v2_DepthDuration_HTML.html#18,18,1130,700,1536,864,8-20-2022,12-4-6,77,depth_duration_stimuli/002340_2014-06-28_20-05-46_260595134347_rgbf000113-resize_0/002340_2014-06-28_20-05-46_260595134347_rgbf000113-resize_0-target.png,250,2.4735,12,2501,249,feet,jsons/v1_VE250_randls_40_rotated.json,532569,803891,40,Man
77,387949,DepthScenes,duration_manipulation_targetAtFixation,jsons/v1_VE250_randls_40_rotated.json,http://54.235.29.9/FacialAge/BNav_EC2/DepthDuration/v2_depth_duration_MTurk/v2_DepthDuration_HTML.html#18,18,1130,700,1536,864,8-20-2022,12-4-6,78,depth_duration_stimuli/001016_2014-06-09_16-16-10_260595134347_rgbf000112-resize_5/001016_2014-06-09_16-16-10_260595134347_rgbf000112-resize_5-target.png,250,1.6565,8,2257,249,feet,jsons/v1_VE250_randls_40_rotated.json,532569,803891,40,Man
78,387949,DepthScenes,duration_manipulation_targetAtFixation,jsons/v1_VE250_randls_40_rotated.json,http://54.235.29.9/FacialAge/BNav_EC2/DepthDuration/v2_depth_duration_MTurk/v2_DepthDuration_HTML.html#18,18,1130,700,1536,864,8-20-2022,12-4-6,79,depth_duration_stimuli/003010_2014-06-15_12-54-35_094959634447_rgbf000112-resize_0/003010_2014-06-15_12-54-35_094959634447_rgbf000112-resize_0-target.png,250,3.1185,15,2598,247,feet,jsons/v1_VE250_randls_40_rotated.json,532569,803891,40,Man
79,387949,DepthScenes,duration_manipulation_targetAtFixation,jsons/v1_VE250_randls_40_rotated.json,http://54.235.29.9/FacialAge/BNav_EC2/DepthDuration/v2_depth_duration_MTurk/v2_DepthDuration_HTML.html#18,18,1130,700,1536,864,8-20-2022,12-4-6,80,depth_duration_stimuli/001810_2014-06-26_20-51-35_260595134347_rgbf000040-resize_3/001810_2014-06-26_20-51-35_260595134347_rgbf000040-resize_3-target.png,250,2.2525,5,2369,246,feet,jsons/v1_VE250_randls_40_rotated.json,532569,803891,40,Man
80,387949,DepthScenes,duration_manipulation_targetAtFixation,jsons/v1_VE250_randls_40_rotated.json,http://54.235.29.9/FacialAge/BNav_EC2/DepthDuration/v2_depth_duration_MTurk/v2_DepthDuration_HTML.html#18,18,1130,700,1536,864,8-20-2022,12-4-6,81,depth_duration_stimuli/000734_2014-06-08_17-39-11_260595134347_rgbf000128-resize_2/000734_2014-06-08_17-39-11_260595134347_rgbf000128-resize_2-target.png,250,4.098,11,2808,248,feet,jsons/v1_VE250_randls_40_rotated.json,532569,803891,40,Man
81,387949,DepthScenes,duration_manipulation_targetAtFixation,jsons/v1_VE250_randls_40_rotated.json,http://54.235.29.9/FacialAge/BNav_EC2/DepthDuration/v2_depth_duration_MTurk/v2_DepthDuration_HTML.html#18,18,1130,700,1536,864,8-20-2022,12-4-6,82,depth_duration_stimuli/000739_2014-06-08_18-45-58_260595134347_rgbf000068-resize_1/000739_2014-06-08_18-45-58_260595134347_rgbf000068-resize_1-target.png,250,3.534,10,2623,248,feet,jsons/v1_VE250_randls_40_rotated.json,532569,803891,40,Man
82,387949,DepthScenes,duration_manipulation_targetAtFixation,jsons/v1_VE250_randls_40_rotated.json,http://54.235.29.9/FacialAge/BNav_EC2/DepthDuration/v2_depth_duration_MTurk/v2_DepthDuration_HTML.html#18,18,1130,700,1536,864,8-20-2022,12-4-6,83,depth_duration_stimuli/001235_2014-06-17_16-37-36_260595134347_rgbf000084-resize_4/001235_2014-06-17_16-37-36_260595134347_rgbf000084-resize_4-target.png,250,3.6605,12,2242,248,feet,jsons/v1_VE250_randls_40_rotated.json,532569,803891,40,Man
83,387949,DepthScenes,duration_manipulation_targetAtFixation,jsons/v1_VE250_randls_40_rotated.json,http://54.235.29.9/FacialAge/BNav_EC2/DepthDuration/v2_depth_duration_MTurk/v2_DepthDuration_HTML.html#18,18,1130,700,1536,864,8-20-2022,12-4-6,84,depth_duration_stimuli/000788_2014-06-08_22-34-36_260595134347_rgbf000131-resize_1/000788_2014-06-08_22-34-36_260595134347_rgbf000131-resize_1-target.png,250,3.359,10,2387,264,feet,jsons/v1_VE250_randls_40_rotated.json,532569,803891,40,Man
84,387949,DepthScenes,duration_manipulation_targetAtFixation,jsons/v1_VE250_randls_40_rotated.json,http://54.235.29.9/FacialAge/BNav_EC2/DepthDuration/v2_depth_duration_MTurk/v2_DepthDuration_HTML.html#18,18,1130,700,1536,864,8-20-2022,12-4-6,85,depth_duration_stimuli/000549_2014-06-08_22-10-24_260595134347_rgbf000247-resize_3/000549_2014-06-08_22-10-24_260595134347_rgbf000247-resize_3-target.png,250,1.841,4,2486,250,feet,jsons/v1_VE250_randls_40_rotated.json,532569,803891,40,Man
85,387949,DepthScenes,duration_manipulation_targetAtFixation,jsons/v1_VE250_randls_40_rotated.json,http://54.235.29.9/FacialAge/BNav_EC2/DepthDuration/v2_depth_duration_MTurk/v2_DepthDuration_HTML.html#18,18,1130,700,1536,864,8-20-2022,12-4-6,86,depth_duration_stimuli/001055_2014-06-08_18-45-35_260595134347_rgbf000111-resize_4/001055_2014-06-08_18-45-35_260595134347_rgbf000111-resize_4-target.png,250,2.4290000000000003,10,2768,248,feet,jsons/v1_VE250_randls_40_rotated.json,532569,803891,40,Man
86,387949,DepthScenes,duration_manipulation_targetAtFixation,jsons/v1_VE250_randls_40_rotated.json,http://54.235.29.9/FacialAge/BNav_EC2/DepthDuration/v2_depth_duration_MTurk/v2_DepthDuration_HTML.html#18,18,1130,700,1536,864,8-20-2022,12-4-6,87,depth_duration_stimuli/003228_2014-05-14_13-42-35_094959634447_rgbf000101-resize_1/003228_2014-05-14_13-42-35_094959634447_rgbf000101-resize_1-target.png,250,1.9680000000000002,6,2356,250,feet,jsons/v1_VE250_randls_40_rotated.json,532569,803891,40,Man
87,387949,DepthScenes,duration_manipulation_targetAtFixation,jsons/v1_VE250_randls_40_rotated.json,http://54.235.29.9/FacialAge/BNav_EC2/DepthDuration/v2_depth_duration_MTurk/v2_DepthDuration_HTML.html#18,18,1130,700,1536,864,8-20-2022,12-4-6,88,depth_duration_stimuli/002600_2014-06-24_14-27-04_094959634447_rgbf000074-resize_2/002600_2014-06-24_14-27-04_094959634447_rgbf000074-resize_2-target.png,250,2.7575,10,2701,248,feet,jsons/v1_VE250_randls_40_rotated.json,532569,803891,40,Man
88,387949,DepthScenes,duration_manipulation_targetAtFixation,jsons/v1_VE250_randls_40_rotated.json,http://54.235.29.9/FacialAge/BNav_EC2/DepthDuration/v2_depth_duration_MTurk/v2_DepthDuration_HTML.html#18,18,1130,700,1536,864,8-20-2022,12-4-6,89,depth_duration_stimuli/001052_2014-06-08_18-24-54_260595134347_rgbf000130-resize_1/001052_2014-06-08_18-24-54_260595134347_rgbf000130-resize_1-target.png,250,4.1045,12,2688,249,feet,jsons/v1_VE250_randls_40_rotated.json,532569,803891,40,Man
89,387949,DepthScenes,duration_manipulation_targetAtFixation,jsons/v1_VE250_randls_40_rotated.json,http://54.235.29.9/FacialAge/BNav_EC2/DepthDuration/v2_depth_duration_MTurk/v2_DepthDuration_HTML.html#18,18,1130,700,1536,864,8-20-2022,12-4-6,90,depth_duration_stimuli/002988_2014-06-15_12-24-20_094959634447_rgbf000150-resize_1/002988_2014-06-15_12-24-20_094959634447_rgbf000150-resize_1-target.png,250,4.7669999999999995,12,2537,250,feet,jsons/v1_VE250_randls_40_rotated.json,532569,803891,40,Man
90,387949,DepthScenes,duration_manipulation_targetAtFixation,jsons/v1_VE250_randls_40_rotated.json,http://54.235.29.9/FacialAge/BNav_EC2/DepthDuration/v2_depth_duration_MTurk/v2_DepthDuration_HTML.html#18,18,1130,700,1536,864,8-20-2022,12-4-6,91,depth_duration_stimuli/001214_2014-06-17_16-13-55_260595134347_rgbf000111-resize_0/001214_2014-06-17_16-13-55_260595134347_rgbf000111-resize_0-target.png,250,2.6505,9,2451,249,feet,jsons/v1_VE250_randls_40_rotated.json,532569,803891,40,Man
91,387949,DepthScenes,duration_manipulation_targetAtFixation,jsons/v1_VE250_randls_40_rotated.json,http://54.235.29.9/FacialAge/BNav_EC2/DepthDuration/v2_depth_duration_MTurk/v2_DepthDuration_HTML.html#18,18,1130,700,1536,864,8-20-2022,12-4-6,92,depth_duration_stimuli/000810_2014-06-08_17-20-01_260595134347_rgbf000105-resize_0/000810_2014-06-08_17-20-01_260595134347_rgbf000105-resize_0-target.png,250,1.4865,10,2343,249,feet,jsons/v1_VE250_randls_40_rotated.json,532569,803891,40,Man
92,387949,DepthScenes,duration_manipulation_targetAtFixation,jsons/v1_VE250_randls_40_rotated.json,http://54.235.29.9/FacialAge/BNav_EC2/DepthDuration/v2_depth_duration_MTurk/v2_DepthDuration_HTML.html#18,18,1130,700,1536,864,8-20-2022,12-4-6,93,depth_duration_stimuli/002758_2014-06-22_19-11-20_094959634447_rgbf000128-resize_1/002758_2014-06-22_19-11-20_094959634447_rgbf000128-resize_1-target.png,250,2.555,8,2109,246,feet,jsons/v1_VE250_randls_40_rotated.json,532569,803891,40,Man
93,387949,DepthScenes,duration_manipulation_targetAtFixation,jsons/v1_VE250_randls_40_rotated.json,http://54.235.29.9/FacialAge/BNav_EC2/DepthDuration/v2_depth_duration_MTurk/v2_DepthDuration_HTML.html#18,18,1130,700,1536,864,8-20-2022,12-4-6,94,depth_duration_stimuli/002630_2014-06-24_14-47-50_094959634447_rgbf000055-resize_1/002630_2014-06-24_14-47-50_094959634447_rgbf000055-resize_1-target.png,250,3.0095,15,2383,263,feet,jsons/v1_VE250_randls_40_rotated.json,532569,803891,40,Man
94,387949,DepthScenes,duration_manipulation_targetAtFixation,jsons/v1_VE250_randls_40_rotated.json,http://54.235.29.9/FacialAge/BNav_EC2/DepthDuration/v2_depth_duration_MTurk/v2_DepthDuration_HTML.html#18,18,1130,700,1536,864,8-20-2022,12-4-6,95,depth_duration_stimuli/000665_2014-06-09_20-42-35_260595134347_rgbf000110-resize_1/000665_2014-06-09_20-42-35_260595134347_rgbf000110-resize_1-target.png,250,3.057,8,2534,248,feet,jsons/v1_VE250_randls_40_rotated.json,532569,803891,40,Man
95,387949,DepthScenes,duration_manipulation_targetAtFixation,jsons/v1_VE250_randls_40_rotated.json,http://54.235.29.9/FacialAge/BNav_EC2/DepthDuration/v2_depth_duration_MTurk/v2_DepthDuration_HTML.html#18,18,1130,700,1536,864,8-20-2022,12-4-6,96,depth_duration_stimuli/001150_2014-06-17_15-27-34_260595134347_rgbf000108-resize_2/001150_2014-06-17_15-27-34_260595134347_rgbf000108-resize_2-target.png,250,4.0325,12,2370,248,feet,jsons/v1_VE250_randls_40_rotated.json,532569,803891,40,Man
96,387949,DepthScenes,duration_manipulation_targetAtFixation,jsons/v1_VE250_randls_40_rotated.json,http://54.235.29.9/FacialAge/BNav_EC2/DepthDuration/v2_depth_duration_MTurk/v2_DepthDuration_HTML.html#18,18,1130,700,1536,864,8-20-2022,12-4-6,97,depth_duration_stimuli/000635_2014-06-08_16-38-42_260595134347_rgbf000106-resize_1/000635_2014-06-08_16-38-42_260595134347_rgbf000106-resize_1-target.png,250,2.074,10,2601,249,feet,jsons/v1_VE250_randls_40_rotated.json,532569,803891,40,Man
97,387949,DepthScenes,duration_manipulation_targetAtFixation,jsons/v1_VE250_randls_40_rotated.json,http://54.235.29.9/FacialAge/BNav_EC2/DepthDuration/v2_depth_duration_MTurk/v2_DepthDuration_HTML.html#18,18,1130,700,1536,864,8-20-2022,12-4-6,98,depth_duration_stimuli/002279_2014-06-28_18-55-32_260595134347_rgbf000040-resize_5/002279_2014-06-28_18-55-32_260595134347_rgbf000040-resize_5-target.png,250,1.5043333333333,5,2620,246,feet,jsons/v1_VE250_randls_40_rotated.json,532569,803891,40,Man
98,387949,DepthScenes,duration_manipulation_targetAtFixation,jsons/v1_VE250_randls_40_rotated.json,http://54.235.29.9/FacialAge/BNav_EC2/DepthDuration/v2_depth_duration_MTurk/v2_DepthDuration_HTML.html#18,18,1130,700,1536,864,8-20-2022,12-4-6,99,depth_duration_stimuli/001222_2014-06-17_16-24-06_260595134347_rgbf000073-resize_0/001222_2014-06-17_16-24-06_260595134347_rgbf000073-resize-original.jpg,250,1.4385,0,2191,249,feet,jsons/v1_VE250_randls_40_rotated.json,532569,803891,40,Man
99,387949,DepthScenes,duration_manipulation_targetAtFixation,jsons/v1_VE250_randls_40_rotated.json,http://54.235.29.9/FacialAge/BNav_EC2/DepthDuration/v2_depth_duration_MTurk/v2_DepthDuration_HTML.html#18,18,1130,700,1536,864,8-20-2022,12-4-6,100,depth_duration_stimuli/001392_2014-06-19_16-07-59_260595134347_rgbf000046-resize_1/001392_2014-06-19_16-07-59_260595134347_rgbf000046-resize_1-target.png,250,4.135,15,2668,248,feet,jsons/v1_VE250_randls_40_rotated.json,532569,803891,40,Man
100,387949,DepthScenes,duration_manipulation_targetAtFixation,jsons/v1_VE250_randls_40_rotated.json,http://54.235.29.9/FacialAge/BNav_EC2/DepthDuration/v2_depth_duration_MTurk/v2_DepthDuration_HTML.html#18,18,1130,700,1536,864,8-20-2022,12-4-6,101,depth_duration_stimuli/001570_2014-06-20_17-21-09_260595134347_rgbf000135-resize_4/001570_2014-06-20_17-21-09_260595134347_rgbf000135-resize_4-target.png,250,4.467,15,2876,251,feet,jsons/v1_VE250_randls_40_rotated.json,532569,803891,40,Man
101,387949,DepthScenes,duration_manipulation_targetAtFixation,jsons/v1_VE250_randls_40_rotated.json,http://54.235.29.9/FacialAge/BNav_EC2/DepthDuration/v2_depth_duration_MTurk/v2_DepthDuration_HTML.html#18,18,1130,700,1536,864,8-20-2022,12-4-6,102,depth_duration_stimuli/001650_2014-06-20_12-09-00_260595134347_rgbf000087-resize_3/001650_2014-06-20_12-09-00_260595134347_rgbf000087-resize_3-target.png,250,1.9505,2,2644,262,feet,jsons/v1_VE250_randls_40_rotated.json,532569,803891,40,Man
102,387949,DepthScenes,duration_manipulation_targetAtFixation,jsons/v1_VE250_randls_40_rotated.json,http://54.235.29.9/FacialAge/BNav_EC2/DepthDuration/v2_depth_duration_MTurk/v2_DepthDuration_HTML.html#18,18,1130,700,1536,864,8-20-2022,12-4-6,103,depth_duration_stimuli/000682_2014-06-08_23-14-58_260595134347_rgbf000041-resize_5/000682_2014-06-08_23-14-58_260595134347_rgbf000041-resize_5-target.png,250,2.7239999999999998,6,2552,264,feet,jsons/v1_VE250_randls_40_rotated.json,532569,803891,40,Man
103,387949,DepthScenes,duration_manipulation_targetAtFixation,jsons/v1_VE250_randls_40_rotated.json,http://54.235.29.9/FacialAge/BNav_EC2/DepthDuration/v2_depth_duration_MTurk/v2_DepthDuration_HTML.html#18,18,1130,700,1536,864,8-20-2022,12-4-6,104,depth_duration_stimuli/002209_2014-06-28_18-36-10_260595134347_rgbf000051-resize_1/002209_2014-06-28_18-36-10_260595134347_rgbf000051-resize_1-target.png,250,2.057,7,3502,250,feet,jsons/v1_VE250_randls_40_rotated.json,532569,803891,40,Man
104,387949,DepthScenes,duration_manipulation_targetAtFixation,jsons/v1_VE250_randls_40_rotated.json,http://54.235.29.9/FacialAge/BNav_EC2/DepthDuration/v2_depth_duration_MTurk/v2_DepthDuration_HTML.html#18,18,1130,700,1536,864,8-20-2022,12-4-6,105,depth_duration_stimuli/002763_2014-06-22_19-13-10_094959634447_rgbf000075-resize_4/002763_2014-06-22_19-13-10_094959634447_rgbf000075-resize_4-target.png,250,1.68375,6,2523,250,feet,jsons/v1_VE250_randls_40_rotated.json,532569,803891,40,Man
105,387949,DepthScenes,duration_manipulation_targetAtFixation,jsons/v1_VE250_randls_40_rotated.json,http://54.235.29.9/FacialAge/BNav_EC2/DepthDuration/v2_depth_duration_MTurk/v2_DepthDuration_HTML.html#18,18,1130,700,1536,864,8-20-2022,12-4-6,106,depth_duration_stimuli/001571_2014-06-20_17-21-32_260595134347_rgbf000089-resize_1/001571_2014-06-20_17-21-32_260595134347_rgbf000089-resize_1-target.png,250,1.86,8,2635,248,feet,jsons/v1_VE250_randls_40_rotated.json,532569,803891,40,Man
106,387949,DepthScenes,duration_manipulation_targetAtFixation,jsons/v1_VE250_randls_40_rotated.json,http://54.235.29.9/FacialAge/BNav_EC2/DepthDuration/v2_depth_duration_MTurk/v2_DepthDuration_HTML.html#18,18,1130,700,1536,864,8-20-2022,12-4-6,107,depth_duration_stimuli/002272_2014-06-28_18-53-56_260595134347_rgbf000067-resize_2/002272_2014-06-28_18-53-56_260595134347_rgbf000067-resize_2-target.png,250,1.138,4,2431,249,feet,jsons/v1_VE250_randls_40_rotated.json,532569,803891,40,Man
107,387949,DepthScenes,duration_manipulation_targetAtFixation,jsons/v1_VE250_randls_40_rotated.json,http://54.235.29.9/FacialAge/BNav_EC2/DepthDuration/v2_depth_duration_MTurk/v2_DepthDuration_HTML.html#18,18,1130,700,1536,864,8-20-2022,12-4-6,108,depth_duration_stimuli/003048_2014-06-15_13-49-43_094959634447_rgbf000150-resize_1/003048_2014-06-15_13-49-43_094959634447_rgbf000150-resize_1-target.png,250,4.0035,10,3047,250,feet,jsons/v1_VE250_randls_40_rotated.json,532569,803891,40,Man
108,387949,DepthScenes,duration_manipulation_targetAtFixation,jsons/v1_VE250_randls_40_rotated.json,http://54.235.29.9/FacialAge/BNav_EC2/DepthDuration/v2_depth_duration_MTurk/v2_DepthDuration_HTML.html#18,18,1130,700,1536,864,8-20-2022,12-4-6,109,depth_duration_stimuli/002043_2014-06-24_20-29-38_260595134347_rgbf000039-resize_4/002043_2014-06-24_20-29-38_260595134347_rgbf000039-resize_4-target.png,250,2.8435,15,2616,249,feet,jsons/v1_VE250_randls_40_rotated.json,532569,803891,40,Man
109,387949,DepthScenes,duration_manipulation_targetAtFixation,jsons/v1_VE250_randls_40_rotated.json,http://54.235.29.9/FacialAge/BNav_EC2/DepthDuration/v2_depth_duration_MTurk/v2_DepthDuration_HTML.html#18,18,1130,700,1536,864,8-20-2022,12-4-6,110,depth_duration_stimuli/003129_2014-05-12_10-48-10_094959634447_rgbf000100-resize_0/003129_2014-05-12_10-48-10_094959634447_rgbf000100-resize_0-target.png,250,4.9305,15,2576,251,feet,jsons/v1_VE250_randls_40_rotated.json,532569,803891,40,Man
110,387949,DepthScenes,duration_manipulation_targetAtFixation,jsons/v1_VE250_randls_40_rotated.json,http://54.235.29.9/FacialAge/BNav_EC2/DepthDuration/v2_depth_duration_MTurk/v2_DepthDuration_HTML.html#18,18,1130,700,1536,864,8-20-2022,12-4-6,111,depth_duration_stimuli/000414_2014-06-04_19-49-13_260595134347_rgbf000044-resize_0/000414_2014-06-04_19-49-13_260595134347_rgbf000044-resize_0-target.png,250,4.329,14,2661,248,feet,jsons/v1_VE250_randls_40_rotated.json,532569,803891,40,Man
111,387949,DepthScenes,duration_manipulation_targetAtFixation,jsons/v1_VE250_randls_40_rotated.json,http://54.235.29.9/FacialAge/BNav_EC2/DepthDuration/v2_depth_duration_MTurk/v2_DepthDuration_HTML.html#18,18,1130,700,1536,864,8-20-2022,12-4-6,112,depth_duration_stimuli/002344_2014-06-28_20-06-29_260595134347_rgbf000030-resize_1/002344_2014-06-28_20-06-29_260595134347_rgbf000030-resize_1-target.png,250,1.5795,3,2627,249,feet,jsons/v1_VE250_randls_40_rotated.json,532569,803891,40,Man
112,387949,DepthScenes,duration_manipulation_targetAtFixation,jsons/v1_VE250_randls_40_rotated.json,http://54.235.29.9/FacialAge/BNav_EC2/DepthDuration/v2_depth_duration_MTurk/v2_DepthDuration_HTML.html#18,18,1130,700,1536,864,8-20-2022,12-4-6,113,depth_duration_stimuli/002725_2014-06-22_11-47-51_094959634447_rgbf000070-resize_1/002725_2014-06-22_11-47-51_094959634447_rgbf000070-resize_1-target.png,250,2.195,10,2946,251,feet,jsons/v1_VE250_randls_40_rotated.json,532569,803891,40,Man
113,387949,DepthScenes,duration_manipulation_targetAtFixation,jsons/v1_VE250_randls_40_rotated.json,http://54.235.29.9/FacialAge/BNav_EC2/DepthDuration/v2_depth_duration_MTurk/v2_DepthDuration_HTML.html#18,18,1130,700,1536,864,8-20-2022,12-4-6,114,depth_duration_stimuli/000556_2014-06-09_22-42-56_260595134347_rgbf000214-resize_1/000556_2014-06-09_22-42-56_260595134347_rgbf000214-resize_1-target.png,250,4.8415,16,3232,250,feet,jsons/v1_VE250_randls_40_rotated.json,532569,803891,40,Man
114,387949,DepthScenes,duration_manipulation_targetAtFixation,jsons/v1_VE250_randls_40_rotated.json,http://54.235.29.9/FacialAge/BNav_EC2/DepthDuration/v2_depth_duration_MTurk/v2_DepthDuration_HTML.html#18,18,1130,700,1536,864,8-20-2022,12-4-6,115,depth_duration_stimuli/001158_2014-06-17_15-32-16_260595134347_rgbf000138-resize_2/001158_2014-06-17_15-32-16_260595134347_rgbf000138-resize_2-target.png,250,4.5315,17,2847,247,feet,jsons/v1_VE250_randls_40_rotated.json,532569,803891,40,Man
115,387949,DepthScenes,duration_manipulation_targetAtFixation,jsons/v1_VE250_randls_40_rotated.json,http://54.235.29.9/FacialAge/BNav_EC2/DepthDuration/v2_depth_duration_MTurk/v2_DepthDuration_HTML.html#18,18,1130,700,1536,864,8-20-2022,12-4-6,116,depth_duration_stimuli/000103_2014-05-14_22-01-17_260595134347_rgbf000152-resize_5/000103_2014-05-14_22-01-17_260595134347_rgbf000152-resize_5-target.png,250,1.993,8,3580,251,feet,jsons/v1_VE250_randls_40_rotated.json,532569,803891,40,Man
116,387949,DepthScenes,duration_manipulation_targetAtFixation,jsons/v1_VE250_randls_40_rotated.json,http://54.235.29.9/FacialAge/BNav_EC2/DepthDuration/v2_depth_duration_MTurk/v2_DepthDuration_HTML.html#18,18,1130,700,1536,864,8-20-2022,12-4-6,117,depth_duration_stimuli/001555_2014-06-20_17-12-10_260595134347_rgbf000065-resize_4/001555_2014-06-20_17-12-10_260595134347_rgbf000065-resize_4-target.png,250,1.633,6,2330,248,feet,jsons/v1_VE250_randls_40_rotated.json,532569,803891,40,Man
117,387949,DepthScenes,duration_manipulation_targetAtFixation,jsons/v1_VE250_randls_40_rotated.json,http://54.235.29.9/FacialAge/BNav_EC2/DepthDuration/v2_depth_duration_MTurk/v2_DepthDuration_HTML.html#18,18,1130,700,1536,864,8-20-2022,12-4-6,118,depth_duration_stimuli/001136_2014-06-17_15-19-41_260595134347_rgbf000076-resize_3/001136_2014-06-17_15-19-41_260595134347_rgbf000076-resize_3-target.png,250,1.8655,8,3534,248,feet,jsons/v1_VE250_randls_40_rotated.json,532569,803891,40,Man
118,387949,DepthScenes,duration_manipulation_targetAtFixation,jsons/v1_VE250_randls_40_rotated.json,http://54.235.29.9/FacialAge/BNav_EC2/DepthDuration/v2_depth_duration_MTurk/v2_DepthDuration_HTML.html#18,18,1130,700,1536,864,8-20-2022,12-4-6,119,depth_duration_stimuli/001164_2014-06-17_15-35-46_260595134347_rgbf000085-resize_3/001164_2014-06-17_15-35-46_260595134347_rgbf000085-resize_3-target.png,250,2.354,7,2732,249,feet,jsons/v1_VE250_randls_40_rotated.json,532569,803891,40,Man
119,387949,DepthScenes,duration_manipulation_targetAtFixation,jsons/v1_VE250_randls_40_rotated.json,http://54.235.29.9/FacialAge/BNav_EC2/DepthDuration/v2_depth_duration_MTurk/v2_DepthDuration_HTML.html#18,18,1130,700,1536,864,8-20-2022,12-4-6,120,depth_duration_stimuli/000787_2014-06-08_22-33-53_260595134347_rgbf000175-resize_1/000787_2014-06-08_22-33-53_260595134347_rgbf000175-resize-original.jpg,250,4.784,0,3101,248,feet,jsons/v1_VE250_randls_40_rotated.json,532569,803891,40,Man
120,387949,DepthScenes,duration_manipulation_targetAtFixation,jsons/v1_VE250_randls_40_rotated.json,http://54.235.29.9/FacialAge/BNav_EC2/DepthDuration/v2_depth_duration_MTurk/v2_DepthDuration_HTML.html#18,18,1130,700,1536,864,8-20-2022,12-4-6,121,depth_duration_stimuli/001447_2014-06-19_17-00-32_260595134347_rgbf000082-resize_5/001447_2014-06-19_17-00-32_260595134347_rgbf000082-resize_5-target.png,250,4.13775,8,2359,250,feet,jsons/v1_VE250_randls_40_rotated.json,532569,803891,40,Man
121,387949,DepthScenes,duration_manipulation_targetAtFixation,jsons/v1_VE250_randls_40_rotated.json,http://54.235.29.9/FacialAge/BNav_EC2/DepthDuration/v2_depth_duration_MTurk/v2_DepthDuration_HTML.html#18,18,1130,700,1536,864,8-20-2022,12-4-6,122,depth_duration_stimuli/000447_2014-06-08_16-15-46_260595134347_rgbf000130-resize_1/000447_2014-06-08_16-15-46_260595134347_rgbf000130-resize_1-target.png,250,4.479,15,2798,248,feet,jsons/v1_VE250_randls_40_rotated.json,532569,803891,40,Man
122,387949,DepthScenes,duration_manipulation_targetAtFixation,jsons/v1_VE250_randls_40_rotated.json,http://54.235.29.9/FacialAge/BNav_EC2/DepthDuration/v2_depth_duration_MTurk/v2_DepthDuration_HTML.html#18,18,1130,700,1536,864,8-20-2022,12-4-6,123,depth_duration_stimuli/001815_2014-06-26_20-52-55_260595134347_rgbf000020-resize_0/001815_2014-06-26_20-52-55_260595134347_rgbf000020-resize_0-target.png,250,3.3865,11,3503,250,feet,jsons/v1_VE250_randls_40_rotated.json,532569,803891,40,Man
123,387949,DepthScenes,duration_manipulation_targetAtFixation,jsons/v1_VE250_randls_40_rotated.json,http://54.235.29.9/FacialAge/BNav_EC2/DepthDuration/v2_depth_duration_MTurk/v2_DepthDuration_HTML.html#18,18,1130,700,1536,864,8-20-2022,12-4-6,124,depth_duration_stimuli/001808_2014-06-26_20-50-58_260595134347_rgbf000029-resize_1/001808_2014-06-26_20-50-58_260595134347_rgbf000029-resize_1-target.png,250,4.249,17,2769,248,feet,jsons/v1_VE250_randls_40_rotated.json,532569,803891,40,Man
124,387949,DepthScenes,duration_manipulation_targetAtFixation,jsons/v1_VE250_randls_40_rotated.json,http://54.235.29.9/FacialAge/BNav_EC2/DepthDuration/v2_depth_duration_MTurk/v2_DepthDuration_HTML.html#18,18,1130,700,1536,864,8-20-2022,12-4-6,125,depth_duration_stimuli/000866_2014-06-09_20-45-42_260595134347_rgbf000139-resize_1/000866_2014-06-09_20-45-42_260595134347_rgbf000139-resize_1-target.png,250,3.2155,10,2655,265,feet,jsons/v1_VE250_randls_40_rotated.json,532569,803891,40,Man
125,387949,DepthScenes,duration_manipulation_targetAtFixation,jsons/v1_VE250_randls_40_rotated.json,http://54.235.29.9/FacialAge/BNav_EC2/DepthDuration/v2_depth_duration_MTurk/v2_DepthDuration_HTML.html#18,18,1130,700,1536,864,8-20-2022,12-4-6,126,depth_duration_stimuli/002989_2014-06-15_12-25-03_094959634447_rgbf000150-resize_3/002989_2014-06-15_12-25-03_094959634447_rgbf000150-resize_3-target.png,250,4.1975,16,2879,248,feet,jsons/v1_VE250_randls_40_rotated.json,532569,803891,40,Man
126,387949,DepthScenes,duration_manipulation_targetAtFixation,jsons/v1_VE250_randls_40_rotated.json,http://54.235.29.9/FacialAge/BNav_EC2/DepthDuration/v2_depth_duration_MTurk/v2_DepthDuration_HTML.html#18,18,1130,700,1536,864,8-20-2022,12-4-6,127,depth_duration_stimuli/003490_2014-05-21_15-50-11_094959634447_rgbf000101-resize_3/003490_2014-05-21_15-50-11_094959634447_rgbf000101-resize_3-target.png,250,3.6445,12,2754,235,feet,jsons/v1_VE250_randls_40_rotated.json,532569,803891,40,Man
127,387949,DepthScenes,duration_manipulation_targetAtFixation,jsons/v1_VE250_randls_40_rotated.json,http://54.235.29.9/FacialAge/BNav_EC2/DepthDuration/v2_depth_duration_MTurk/v2_DepthDuration_HTML.html#18,18,1130,700,1536,864,8-20-2022,12-4-6,128,depth_duration_stimuli/001175_2014-06-17_15-45-55_260595134347_rgbf000129-resize_4/001175_2014-06-17_15-45-55_260595134347_rgbf000129-resize_4-target.png,250,4.255,13,4367,251,feet,jsons/v1_VE250_randls_40_rotated.json,532569,803891,40,Man
128,387949,DepthScenes,duration_manipulation_targetAtFixation,jsons/v1_VE250_randls_40_rotated.json,http://54.235.29.9/FacialAge/BNav_EC2/DepthDuration/v2_depth_duration_MTurk/v2_DepthDuration_HTML.html#18,18,1130,700,1536,864,8-20-2022,12-4-6,129,depth_duration_stimuli/001516_2014-06-20_16-25-09_260595134347_rgbf000076-resize_2/001516_2014-06-20_16-25-09_260595134347_rgbf000076-resize_2-target.png,250,1.7445,9,2667,247,feet,jsons/v1_VE250_randls_40_rotated.json,532569,803891,40,Man
129,387949,DepthScenes,duration_manipulation_targetAtFixation,jsons/v1_VE250_randls_40_rotated.json,http://54.235.29.9/FacialAge/BNav_EC2/DepthDuration/v2_depth_duration_MTurk/v2_DepthDuration_HTML.html#18,18,1130,700,1536,864,8-20-2022,12-4-6,130,depth_duration_stimuli/002118_2014-06-25_20-32-08_260595134347_rgbf000078-resize_1/002118_2014-06-25_20-32-08_260595134347_rgbf000078-resize_1-target.png,250,2.6460000000000004,8,2432,249,feet,jsons/v1_VE250_randls_40_rotated.json,532569,803891,40,Man
130,387949,DepthScenes,duration_manipulation_targetAtFixation,jsons/v1_VE250_randls_40_rotated.json,http://54.235.29.9/FacialAge/BNav_EC2/DepthDuration/v2_depth_duration_MTurk/v2_DepthDuration_HTML.html#18,18,1130,700,1536,864,8-20-2022,12-4-6,131,depth_duration_stimuli/000677_2014-06-08_23-10-32_260595134347_rgbf000158-resize_6/000677_2014-06-08_23-10-32_260595134347_rgbf000158-resize_6-target.png,250,3.556,8,2390,250,feet,jsons/v1_VE250_randls_40_rotated.json,532569,803891,40,Man
131,387949,DepthScenes,duration_manipulation_targetAtFixation,jsons/v1_VE250_randls_40_rotated.json,http://54.235.29.9/FacialAge/BNav_EC2/DepthDuration/v2_depth_duration_MTurk/v2_DepthDuration_HTML.html#18,18,1130,700,1536,864,8-20-2022,12-4-6,132,depth_duration_stimuli/001029_2014-06-08_13-17-57_260595134347_rgbf000065-resize_1/001029_2014-06-08_13-17-57_260595134347_rgbf000065-resize_1-target.png,250,3.0835,7,2496,249,feet,jsons/v1_VE250_randls_40_rotated.json,532569,803891,40,Man
132,387949,DepthScenes,duration_manipulation_targetAtFixation,jsons/v1_VE250_randls_40_rotated.json,http://54.235.29.9/FacialAge/BNav_EC2/DepthDuration/v2_depth_duration_MTurk/v2_DepthDuration_HTML.html#18,18,1130,700,1536,864,8-20-2022,12-4-6,133,depth_duration_stimuli/001584_2014-06-20_11-07-43_260595134347_rgbf000002-resize_1/001584_2014-06-20_11-07-43_260595134347_rgbf000002-resize_1-target.png,250,3.53,12,2305,261,feet,jsons/v1_VE250_randls_40_rotated.json,532569,803891,40,Man
133,387949,DepthScenes,duration_manipulation_targetAtFixation,jsons/v1_VE250_randls_40_rotated.json,http://54.235.29.9/FacialAge/BNav_EC2/DepthDuration/v2_depth_duration_MTurk/v2_DepthDuration_HTML.html#18,18,1130,700,1536,864,8-20-2022,12-4-6,134,depth_duration_stimuli/003621_2014-05-23_18-06-08_094959634447_rgbf000101-resize_1/003621_2014-05-23_18-06-08_094959634447_rgbf000101-resize_1-target.png,250,3.9835,14,3578,249,feet,jsons/v1_VE250_randls_40_rotated.json,532569,803891,40,Man
134,387949,DepthScenes,duration_manipulation_targetAtFixation,jsons/v1_VE250_randls_40_rotated.json,http://54.235.29.9/FacialAge/BNav_EC2/DepthDuration/v2_depth_duration_MTurk/v2_DepthDuration_HTML.html#18,18,1130,700,1536,864,8-20-2022,12-4-6,135,depth_duration_stimuli/000375_2014-06-08_11-17-29_260595134347_rgbf000133-resize_2/000375_2014-06-08_11-17-29_260595134347_rgbf000133-resize-original.jpg,250,4.718,0,2409,251,feet,jsons/v1_VE250_randls_40_rotated.json,532569,803891,40,Man
135,387949,DepthScenes,duration_manipulation_targetAtFixation,jsons/v1_VE250_randls_40_rotated.json,http://54.235.29.9/FacialAge/BNav_EC2/DepthDuration/v2_depth_duration_MTurk/v2_DepthDuration_HTML.html#18,18,1130,700,1536,864,8-20-2022,12-4-6,136,depth_duration_stimuli/002639_2014-06-24_14-51-37_094959634447_rgbf000074-resize_4/002639_2014-06-24_14-51-37_094959634447_rgbf000074-resize_4-target.png,250,4.0375,12,2623,247,feet,jsons/v1_VE250_randls_40_rotated.json,532569,803891,40,Man
136,387949,DepthScenes,duration_manipulation_targetAtFixation,jsons/v1_VE250_randls_40_rotated.json,http://54.235.29.9/FacialAge/BNav_EC2/DepthDuration/v2_depth_duration_MTurk/v2_DepthDuration_HTML.html#18,18,1130,700,1536,864,8-20-2022,12-4-6,137,depth_duration_stimuli/003292_2014-05-14_21-53-49_094959634447_rgbf000100-resize_2/003292_2014-05-14_21-53-49_094959634447_rgbf000100-resize_2-target.png,250,3.4815,10,2600,251,feet,jsons/v1_VE250_randls_40_rotated.json,532569,803891,40,Man
137,387949,DepthScenes,duration_manipulation_targetAtFixation,jsons/v1_VE250_randls_40_rotated.json,http://54.235.29.9/FacialAge/BNav_EC2/DepthDuration/v2_depth_duration_MTurk/v2_DepthDuration_HTML.html#18,18,1130,700,1536,864,8-20-2022,12-4-6,138,depth_duration_stimuli/000854_2014-06-09_19-43-13_260595134347_rgbf000066-resize_0/000854_2014-06-09_19-43-13_260595134347_rgbf000066-resize_0-target.png,250,3.068,8,2307,250,feet,jsons/v1_VE250_randls_40_rotated.json,532569,803891,40,Man
138,387949,DepthScenes,duration_manipulation_targetAtFixation,jsons/v1_VE250_randls_40_rotated.json,http://54.235.29.9/FacialAge/BNav_EC2/DepthDuration/v2_depth_duration_MTurk/v2_DepthDuration_HTML.html#18,18,1130,700,1536,864,8-20-2022,12-4-6,139,depth_duration_stimuli/000758_2014-06-08_22-05-08_260595134347_rgbf000085-resize_0/000758_2014-06-08_22-05-08_260595134347_rgbf000085-resize_0-target.png,250,3.3810000000000002,10,3521,250,feet,jsons/v1_VE250_randls_40_rotated.json,532569,803891,40,Man
139,387949,DepthScenes,duration_manipulation_targetAtFixation,jsons/v1_VE250_randls_40_rotated.json,http://54.235.29.9/FacialAge/BNav_EC2/DepthDuration/v2_depth_duration_MTurk/v2_DepthDuration_HTML.html#18,18,1130,700,1536,864,8-20-2022,12-4-6,140,depth_duration_stimuli/000409_2014-06-04_19-23-33_260595134347_rgbf000067-resize_0/000409_2014-06-04_19-23-33_260595134347_rgbf000067-resize_0-target.png,250,3.7335,12,2729,251,feet,jsons/v1_VE250_randls_40_rotated.json,532569,803891,40,Man
140,387949,DepthScenes,duration_manipulation_targetAtFixation,jsons/v1_VE250_randls_40_rotated.json,http://54.235.29.9/FacialAge/BNav_EC2/DepthDuration/v2_depth_duration_MTurk/v2_DepthDuration_HTML.html#18,18,1130,700,1536,864,8-20-2022,12-4-6,141,depth_duration_stimuli/002663_2014-06-13_15-50-26_094959634447_rgbf000075-resize_1/002663_2014-06-13_15-50-26_094959634447_rgbf000075-resize_1-target.png,250,4.7495,20,3029,250,feet,jsons/v1_VE250_randls_40_rotated.json,532569,803891,40,Man
141,387949,DepthScenes,duration_manipulation_targetAtFixation,jsons/v1_VE250_randls_40_rotated.json,http://54.235.29.9/FacialAge/BNav_EC2/DepthDuration/v2_depth_duration_MTurk/v2_DepthDuration_HTML.html#18,18,1130,700,1536,864,8-20-2022,12-4-6,142,depth_duration_stimuli/002323_2014-06-28_20-01-54_260595134347_rgbf000051-resize_4/002323_2014-06-28_20-01-54_260595134347_rgbf000051-resize_4-target.png,250,3.7310000000000003,15,2424,251,feet,jsons/v1_VE250_randls_40_rotated.json,532569,803891,40,Man
142,387949,DepthScenes,duration_manipulation_targetAtFixation,jsons/v1_VE250_randls_40_rotated.json,http://54.235.29.9/FacialAge/BNav_EC2/DepthDuration/v2_depth_duration_MTurk/v2_DepthDuration_HTML.html#18,18,1130,700,1536,864,8-20-2022,12-4-6,143,depth_duration_stimuli/000917_2014-06-09_22-45-29_260595134347_rgbf000149-resize_3/000917_2014-06-09_22-45-29_260595134347_rgbf000149-resize_3-target.png,250,4.1865,11,2589,248,feet,jsons/v1_VE250_randls_40_rotated.json,532569,803891,40,Man
143,387949,DepthScenes,duration_manipulation_targetAtFixation,jsons/v1_VE250_randls_40_rotated.json,http://54.235.29.9/FacialAge/BNav_EC2/DepthDuration/v2_depth_duration_MTurk/v2_DepthDuration_HTML.html#18,18,1130,700,1536,864,8-20-2022,12-4-6,144,depth_duration_stimuli/002995_2014-06-15_12-31-26_094959634447_rgbf000150-resize_1/002995_2014-06-15_12-31-26_094959634447_rgbf000150-resize_1-target.png,250,3.8360000000000003,12,3550,251,feet,jsons/v1_VE250_randls_40_rotated.json,532569,803891,40,Man
144,387949,DepthScenes,duration_manipulation_targetAtFixation,jsons/v1_VE250_randls_40_rotated.json,http://54.235.29.9/FacialAge/BNav_EC2/DepthDuration/v2_depth_duration_MTurk/v2_DepthDuration_HTML.html#18,18,1130,700,1536,864,8-20-2022,12-4-6,145,depth_duration_stimuli/002748_2014-06-22_19-07-22_094959634447_rgbf000078-resize_1/002748_2014-06-22_19-07-22_094959634447_rgbf000078-resize_1-target.png,250,4.6705,18,2713,252,feet,jsons/v1_VE250_randls_40_rotated.json,532569,803891,40,Man
145,387949,DepthScenes,duration_manipulation_targetAtFixation,jsons/v1_VE250_randls_40_rotated.json,http://54.235.29.9/FacialAge/BNav_EC2/DepthDuration/v2_depth_duration_MTurk/v2_DepthDuration_HTML.html#18,18,1130,700,1536,864,8-20-2022,12-4-6,146,depth_duration_stimuli/002414_2014-06-28_20-24-58_260595134347_rgbf000067-resize_4/002414_2014-06-28_20-24-58_260595134347_rgbf000067-resize_4-target.png,250,4.363,12,2640,249,feet,jsons/v1_VE250_randls_40_rotated.json,532569,803891,40,Man
146,387949,DepthScenes,duration_manipulation_targetAtFixation,jsons/v1_VE250_randls_40_rotated.json,http://54.235.29.9/FacialAge/BNav_EC2/DepthDuration/v2_depth_duration_MTurk/v2_DepthDuration_HTML.html#18,18,1130,700,1536,864,8-20-2022,12-4-6,147,depth_duration_stimuli/000773_2014-06-08_22-24-54_260595134347_rgbf000093-resize_1/000773_2014-06-08_22-24-54_260595134347_rgbf000093-resize_1-target.png,250,4.973,16,2520,250,feet,jsons/v1_VE250_randls_40_rotated.json,532569,803891,40,Man
147,387949,DepthScenes,duration_manipulation_targetAtFixation,jsons/v1_VE250_randls_40_rotated.json,http://54.235.29.9/FacialAge/BNav_EC2/DepthDuration/v2_depth_duration_MTurk/v2_DepthDuration_HTML.html#18,18,1130,700,1536,864,8-20-2022,12-4-6,148,depth_duration_stimuli/001450_2014-06-19_17-02-03_260595134347_rgbf000203-resize_4/001450_2014-06-19_17-02-03_260595134347_rgbf000203-resize_4-target.png,250,4.0106666666667,18,2745,248,feet,jsons/v1_VE250_randls_40_rotated.json,532569,803891,40,Man
148,387949,DepthScenes,duration_manipulation_targetAtFixation,jsons/v1_VE250_randls_40_rotated.json,http://54.235.29.9/FacialAge/BNav_EC2/DepthDuration/v2_depth_duration_MTurk/v2_DepthDuration_HTML.html#18,18,1130,700,1536,864,8-20-2022,12-4-6,149,depth_duration_stimuli/001449_2014-06-19_17-01-27_260595134347_rgbf000116-resize_2/001449_2014-06-19_17-01-27_260595134347_rgbf000116-resize_2-target.png,250,3.452,10,2661,251,feet,jsons/v1_VE250_randls_40_rotated.json,532569,803891,40,Man
149,387949,DepthScenes,duration_manipulation_targetAtFixation,jsons/v1_VE250_randls_40_rotated.json,http://54.235.29.9/FacialAge/BNav_EC2/DepthDuration/v2_depth_duration_MTurk/v2_DepthDuration_HTML.html#18,18,1130,700,1536,864,8-20-2022,12-4-6,150,depth_duration_stimuli/002657_2014-06-13_15-29-54_094959634447_rgbf000150-resize_1/002657_2014-06-13_15-29-54_094959634447_rgbf000150-resize_1-target.png,250,4.919,13,2614,250,feet,jsons/v1_VE250_randls_40_rotated.json,532569,803891,40,Man
150,387949,DepthScenes,duration_manipulation_targetAtFixation,jsons/v1_VE250_randls_40_rotated.json,http://54.235.29.9/FacialAge/BNav_EC2/DepthDuration/v2_depth_duration_MTurk/v2_DepthDuration_HTML.html#18,18,1130,700,1536,864,8-20-2022,12-4-6,151,depth_duration_stimuli/002375_2014-06-28_20-13-44_260595134347_rgbf000032-resize_1/002375_2014-06-28_20-13-44_260595134347_rgbf000032-resize_1-target.png,250,4.0175,8,2405,250,feet,jsons/v1_VE250_randls_40_rotated.json,532569,803891,40,Man
151,387949,DepthScenes,duration_manipulation_targetAtFixation,jsons/v1_VE250_randls_40_rotated.json,http://54.235.29.9/FacialAge/BNav_EC2/DepthDuration/v2_depth_duration_MTurk/v2_DepthDuration_HTML.html#18,18,1130,700,1536,864,8-20-2022,12-4-6,152,depth_duration_stimuli/000569_2014-06-09_22-51-47_260595134347_rgbf000141-resize_3/000569_2014-06-09_22-51-47_260595134347_rgbf000141-resize-original.jpg,250,4.512,0,2179,246,feet,jsons/v1_VE250_randls_40_rotated.json,532569,803891,40,Man
152,387949,DepthScenes,duration_manipulation_targetAtFixation,jsons/v1_VE250_randls_40_rotated.json,http://54.235.29.9/FacialAge/BNav_EC2/DepthDuration/v2_depth_duration_MTurk/v2_DepthDuration_HTML.html#18,18,1130,700,1536,864,8-20-2022,12-4-6,153,depth_duration_stimuli/002875_2014-06-01_15-19-00_094959634447_rgbf000151-resize_1/002875_2014-06-01_15-19-00_094959634447_rgbf000151-resize_1-target.png,250,1.9675,5,2292,248,feet,jsons/v1_VE250_randls_40_rotated.json,532569,803891,40,Man
153,387949,DepthScenes,duration_manipulation_targetAtFixation,jsons/v1_VE250_randls_40_rotated.json,http://54.235.29.9/FacialAge/BNav_EC2/DepthDuration/v2_depth_duration_MTurk/v2_DepthDuration_HTML.html#18,18,1130,700,1536,864,8-20-2022,12-4-6,154,depth_duration_stimuli/001011_2014-06-08_23-18-54_260595134347_rgbf000044-resize_4/001011_2014-06-08_23-18-54_260595134347_rgbf000044-resize_4-target.png,250,2.4730000000000003,9,2923,247,feet,jsons/v1_VE250_randls_40_rotated.json,532569,803891,40,Man
154,387949,DepthScenes,duration_manipulation_targetAtFixation,jsons/v1_VE250_randls_40_rotated.json,http://54.235.29.9/FacialAge/BNav_EC2/DepthDuration/v2_depth_duration_MTurk/v2_DepthDuration_HTML.html#18,18,1130,700,1536,864,8-20-2022,12-4-6,155,depth_duration_stimuli/001828_2014-06-26_21-40-03_260595134347_rgbf000024-resize_0/001828_2014-06-26_21-40-03_260595134347_rgbf000024-resize_0-target.png,250,4.8260000000000005,15,2415,248,feet,jsons/v1_VE250_randls_40_rotated.json,532569,803891,40,Man
155,387949,DepthScenes,duration_manipulation_targetAtFixation,jsons/v1_VE250_randls_40_rotated.json,http://54.235.29.9/FacialAge/BNav_EC2/DepthDuration/v2_depth_duration_MTurk/v2_DepthDuration_HTML.html#18,18,1130,700,1536,864,8-20-2022,12-4-6,156,depth_duration_stimuli/000009_2014-05-26_14-32-05_260595134347_rgbf000034-resize_3/000009_2014-05-26_14-32-05_260595134347_rgbf000034-resize_3-target.png,250,3.8715,12,2635,248,feet,jsons/v1_VE250_randls_40_rotated.json,532569,803891,40,Man
156,387949,DepthScenes,duration_manipulation_targetAtFixation,jsons/v1_VE250_randls_40_rotated.json,http://54.235.29.9/FacialAge/BNav_EC2/DepthDuration/v2_depth_duration_MTurk/v2_DepthDuration_HTML.html#18,18,1130,700,1536,864,8-20-2022,12-4-6,157,depth_duration_stimuli/000483_2014-06-09_20-41-45_260595134347_rgbf000116-resize_4/000483_2014-06-09_20-41-45_260595134347_rgbf000116-resize_4-target.png,250,1.337,5,2136,248,feet,jsons/v1_VE250_randls_40_rotated.json,532569,803891,40,Man
157,387949,DepthScenes,duration_manipulation_targetAtFixation,jsons/v1_VE250_randls_40_rotated.json,http://54.235.29.9/FacialAge/BNav_EC2/DepthDuration/v2_depth_duration_MTurk/v2_DepthDuration_HTML.html#18,18,1130,700,1536,864,8-20-2022,12-4-6,158,depth_duration_stimuli/000469_2014-06-09_19-42-10_260595134347_rgbf000081-resize_1/000469_2014-06-09_19-42-10_260595134347_rgbf000081-resize_1-target.png,250,1.652,6,2347,249,feet,jsons/v1_VE250_randls_40_rotated.json,532569,803891,40,Man
158,387949,DepthScenes,duration_manipulation_targetAtFixation,jsons/v1_VE250_randls_40_rotated.json,http://54.235.29.9/FacialAge/BNav_EC2/DepthDuration/v2_depth_duration_MTurk/v2_DepthDuration_HTML.html#18,18,1130,700,1536,864,8-20-2022,12-4-6,159,depth_duration_stimuli/000109_2014-05-14_23-41-52_260595134347_rgbf000035-resize_9/000109_2014-05-14_23-41-52_260595134347_rgbf000035-resize_9-target.png,250,1.3545,3,2511,248,feet,jsons/v1_VE250_randls_40_rotated.json,532569,803891,40,Man
159,387949,DepthScenes,duration_manipulation_targetAtFixation,jsons/v1_VE250_randls_40_rotated.json,http://54.235.29.9/FacialAge/BNav_EC2/DepthDuration/v2_depth_duration_MTurk/v2_DepthDuration_HTML.html#18,18,1130,700,1536,864,8-20-2022,12-4-6,160,depth_duration_stimuli/000470_2014-06-09_19-42-40_260595134347_rgbf000094-resize_1/000470_2014-06-09_19-42-40_260595134347_rgbf000094-resize_1-target.png,250,1.831,5,2985,249,feet,jsons/v1_VE250_randls_40_rotated.json,532569,803891,40,Man
160,387949,DepthScenes,duration_manipulation_targetAtFixation,jsons/v1_VE250_randls_40_rotated.json,http://54.235.29.9/FacialAge/BNav_EC2/DepthDuration/v2_depth_duration_MTurk/v2_DepthDuration_HTML.html#18,18,1130,700,1536,864,8-20-2022,12-4-6,161,depth_duration_stimuli/003083_2014-06-15_15-21-03_094959634447_rgbf000063-resize_1/003083_2014-06-15_15-21-03_094959634447_rgbf000063-resize_1-target.png,250,4.1405,8,3367,250,feet,jsons/v1_VE250_randls_40_rotated.json,532569,803891,40,Man
161,387949,DepthScenes,duration_manipulation_targetAtFixation,jsons/v1_VE250_randls_40_rotated.json,http://54.235.29.9/FacialAge/BNav_EC2/DepthDuration/v2_depth_duration_MTurk/v2_DepthDuration_HTML.html#18,18,1130,700,1536,864,8-20-2022,12-4-6,162,depth_duration_stimuli/000486_2014-06-09_20-47-20_260595134347_rgbf000143-resize_2/000486_2014-06-09_20-47-20_260595134347_rgbf000143-resize_2-target.png,250,4.8325,9,2629,250,feet,jsons/v1_VE250_randls_40_rotated.json,532569,803891,40,Man
162,387949,DepthScenes,duration_manipulation_targetAtFixation,jsons/v1_VE250_randls_40_rotated.json,http://54.235.29.9/FacialAge/BNav_EC2/DepthDuration/v2_depth_duration_MTurk/v2_DepthDuration_HTML.html#18,18,1130,700,1536,864,8-20-2022,12-4-6,163,depth_duration_stimuli/000191_2014-05-12_17-07-38_260595134347_rgbf000199-resize_0/000191_2014-05-12_17-07-38_260595134347_rgbf000199-resize_0-target.png,250,3.7995,10,3072,248,feet,jsons/v1_VE250_randls_40_rotated.json,532569,803891,40,Man
163,387949,DepthScenes,duration_manipulation_targetAtFixation,jsons/v1_VE250_randls_40_rotated.json,http://54.235.29.9/FacialAge/BNav_EC2/DepthDuration/v2_depth_duration_MTurk/v2_DepthDuration_HTML.html#18,18,1130,700,1536,864,8-20-2022,12-4-6,164,depth_duration_stimuli/000493_2014-06-09_21-01-18_260595134347_rgbf000196-resize_3/000493_2014-06-09_21-01-18_260595134347_rgbf000196-resize_3-target.png,250,3.44,13,2416,249,feet,jsons/v1_VE250_randls_40_rotated.json,532569,803891,40,Man
