,subjID,experimentName,versionName,sequenceName,url,selected_row,windowWidth,windowHeight,screenWidth,screenHeight,startDate,startTime,trial,stimulus,duration,actual_depth,depth_estimate,trial_RT,log_sceneDuration,unitSelection,seq_filepath,experimentTime,totalTime,age,gender
0,388057,DepthScenes,duration_manipulation_targetAtFixation,jsons/VE125_randls_54_rotated.json,http://54.235.29.9/FacialAge/BNav_EC2/DepthDuration/v2_depth_duration_MTurk/v2_DepthDuration_HTML.html#153,153,2048,999,2048,1152,9-18-2022,11-22-40,1,depth_duration_stimuli/000137_2014-05-20_17-04-49_260595134347_rgbf000120-resize_1/000137_2014-05-20_17-04-49_260595134347_rgbf000120-resize_1-target.png,125,3.786,20,1910,124,feet,jsons/VE125_randls_54_rotated.json,879318,977950,37,Man
1,388057,DepthScenes,duration_manipulation_targetAtFixation,jsons/VE125_randls_54_rotated.json,http://54.235.29.9/FacialAge/BNav_EC2/DepthDuration/v2_depth_duration_MTurk/v2_DepthDuration_HTML.html#153,153,2048,999,2048,1152,9-18-2022,11-22-40,2,depth_duration_stimuli/000736_2014-06-08_18-24-15_260595134347_rgbf000206-resize_3/000736_2014-06-08_18-24-15_260595134347_rgbf000206-resize_3-target.png,125,3.515,10,2494,124,feet,jsons/VE125_randls_54_rotated.json,879318,977950,37,Man
2,388057,DepthScenes,duration_manipulation_targetAtFixation,jsons/VE125_randls_54_rotated.json,http://54.235.29.9/FacialAge/BNav_EC2/DepthDuration/v2_depth_duration_MTurk/v2_DepthDuration_HTML.html#153,153,2048,999,2048,1152,9-18-2022,11-22-40,3,depth_duration_stimuli/001815_2014-06-26_20-52-55_260595134347_rgbf000020-resize_0/001815_2014-06-26_20-52-55_260595134347_rgbf000020-resize_0-target.png,125,3.3865,15,2220,124,feet,jsons/VE125_randls_54_rotated.json,879318,977950,37,Man
3,388057,DepthScenes,duration_manipulation_targetAtFixation,jsons/VE125_randls_54_rotated.json,http://54.235.29.9/FacialAge/BNav_EC2/DepthDuration/v2_depth_duration_MTurk/v2_DepthDuration_HTML.html#153,153,2048,999,2048,1152,9-18-2022,11-22-40,4,depth_duration_stimuli/001808_2014-06-26_20-50-58_260595134347_rgbf000029-resize_1/001808_2014-06-26_20-50-58_260595134347_rgbf000029-resize_1-target.png,125,4.249,20,1784,126,feet,jsons/VE125_randls_54_rotated.json,879318,977950,37,Man
4,388057,DepthScenes,duration_manipulation_targetAtFixation,jsons/VE125_randls_54_rotated.json,http://54.235.29.9/FacialAge/BNav_EC2/DepthDuration/v2_depth_duration_MTurk/v2_DepthDuration_HTML.html#153,153,2048,999,2048,1152,9-18-2022,11-22-40,5,depth_duration_stimuli/001132_2014-06-17_14-48-54_260595134347_rgbf000100-resize_2/001132_2014-06-17_14-48-54_260595134347_rgbf000100-resize_2-target.png,125,3.753,12,2873,124,feet,jsons/VE125_randls_54_rotated.json,879318,977950,37,Man
5,388057,DepthScenes,duration_manipulation_targetAtFixation,jsons/VE125_randls_54_rotated.json,http://54.235.29.9/FacialAge/BNav_EC2/DepthDuration/v2_depth_duration_MTurk/v2_DepthDuration_HTML.html#153,153,2048,999,2048,1152,9-18-2022,11-22-40,6,depth_duration_stimuli/001133_2014-06-17_14-49-16_260595134347_rgbf000100-resize_0/001133_2014-06-17_14-49-16_260595134347_rgbf000100-resize_0-target.png,125,4.2115,15,2105,125,feet,jsons/VE125_randls_54_rotated.json,879318,977950,37,Man
6,388057,DepthScenes,duration_manipulation_targetAtFixation,jsons/VE125_randls_54_rotated.json,http://54.235.29.9/FacialAge/BNav_EC2/DepthDuration/v2_depth_duration_MTurk/v2_DepthDuration_HTML.html#153,153,2048,999,2048,1152,9-18-2022,11-22-40,7,depth_duration_stimuli/001235_2014-06-17_16-37-36_260595134347_rgbf000084-resize_4/001235_2014-06-17_16-37-36_260595134347_rgbf000084-resize_4-target.png,125,3.6605,15,3223,124,feet,jsons/VE125_randls_54_rotated.json,879318,977950,37,Man
7,388057,DepthScenes,duration_manipulation_targetAtFixation,jsons/VE125_randls_54_rotated.json,http://54.235.29.9/FacialAge/BNav_EC2/DepthDuration/v2_depth_duration_MTurk/v2_DepthDuration_HTML.html#153,153,2048,999,2048,1152,9-18-2022,11-22-40,8,depth_duration_stimuli/000788_2014-06-08_22-34-36_260595134347_rgbf000131-resize_1/000788_2014-06-08_22-34-36_260595134347_rgbf000131-resize_1-target.png,125,3.359,10,2828,126,feet,jsons/VE125_randls_54_rotated.json,879318,977950,37,Man
8,388057,DepthScenes,duration_manipulation_targetAtFixation,jsons/VE125_randls_54_rotated.json,http://54.235.29.9/FacialAge/BNav_EC2/DepthDuration/v2_depth_duration_MTurk/v2_DepthDuration_HTML.html#153,153,2048,999,2048,1152,9-18-2022,11-22-40,9,depth_duration_stimuli/001094_2014-06-15_17-36-00_260595134347_rgbf000205-resize_0/001094_2014-06-15_17-36-00_260595134347_rgbf000205-resize_0-target.png,125,4.2175,15,5482,124,feet,jsons/VE125_randls_54_rotated.json,879318,977950,37,Man
9,388057,DepthScenes,duration_manipulation_targetAtFixation,jsons/VE125_randls_54_rotated.json,http://54.235.29.9/FacialAge/BNav_EC2/DepthDuration/v2_depth_duration_MTurk/v2_DepthDuration_HTML.html#153,153,2048,999,2048,1152,9-18-2022,11-22-40,10,depth_duration_stimuli/000692_2014-06-08_13-09-42_260595134347_rgbf000199-resize_2/000692_2014-06-08_13-09-42_260595134347_rgbf000199-resize_2-target.png,125,3.661,0,2374,124,feet,jsons/VE125_randls_54_rotated.json,879318,977950,37,Man
10,388057,DepthScenes,duration_manipulation_targetAtFixation,jsons/VE125_randls_54_rotated.json,http://54.235.29.9/FacialAge/BNav_EC2/DepthDuration/v2_depth_duration_MTurk/v2_DepthDuration_HTML.html#153,153,2048,999,2048,1152,9-18-2022,11-22-40,11,depth_duration_stimuli/001571_2014-06-20_17-21-32_260595134347_rgbf000089-resize_1/001571_2014-06-20_17-21-32_260595134347_rgbf000089-resize_1-target.png,125,1.86,4,2672,124,feet,jsons/VE125_randls_54_rotated.json,879318,977950,37,Man
11,388057,DepthScenes,duration_manipulation_targetAtFixation,jsons/VE125_randls_54_rotated.json,http://54.235.29.9/FacialAge/BNav_EC2/DepthDuration/v2_depth_duration_MTurk/v2_DepthDuration_HTML.html#153,153,2048,999,2048,1152,9-18-2022,11-22-40,12,depth_duration_stimuli/002272_2014-06-28_18-53-56_260595134347_rgbf000067-resize_2/002272_2014-06-28_18-53-56_260595134347_rgbf000067-resize_2-target.png,125,1.138,3,1914,125,feet,jsons/VE125_randls_54_rotated.json,879318,977950,37,Man
12,388057,DepthScenes,duration_manipulation_targetAtFixation,jsons/VE125_randls_54_rotated.json,http://54.235.29.9/FacialAge/BNav_EC2/DepthDuration/v2_depth_duration_MTurk/v2_DepthDuration_HTML.html#153,153,2048,999,2048,1152,9-18-2022,11-22-40,13,depth_duration_stimuli/000191_2014-05-12_17-07-38_260595134347_rgbf000199-resize_0/000191_2014-05-12_17-07-38_260595134347_rgbf000199-resize_0-target.png,125,3.7995,15,2971,124,feet,jsons/VE125_randls_54_rotated.json,879318,977950,37,Man
13,388057,DepthScenes,duration_manipulation_targetAtFixation,jsons/VE125_randls_54_rotated.json,http://54.235.29.9/FacialAge/BNav_EC2/DepthDuration/v2_depth_duration_MTurk/v2_DepthDuration_HTML.html#153,153,2048,999,2048,1152,9-18-2022,11-22-40,14,depth_duration_stimuli/000493_2014-06-09_21-01-18_260595134347_rgbf000196-resize_3/000493_2014-06-09_21-01-18_260595134347_rgbf000196-resize_3-target.png,125,3.44,10,3251,124,feet,jsons/VE125_randls_54_rotated.json,879318,977950,37,Man
14,388057,DepthScenes,duration_manipulation_targetAtFixation,jsons/VE125_randls_54_rotated.json,http://54.235.29.9/FacialAge/BNav_EC2/DepthDuration/v2_depth_duration_MTurk/v2_DepthDuration_HTML.html#153,153,2048,999,2048,1152,9-18-2022,11-22-40,15,depth_duration_stimuli/000780_2014-06-08_22-28-29_260595134347_rgbf000126-resize_1/000780_2014-06-08_22-28-29_260595134347_rgbf000126-resize_1-target.png,125,3.3825,15,1636,124,feet,jsons/VE125_randls_54_rotated.json,879318,977950,37,Man
15,388057,DepthScenes,duration_manipulation_targetAtFixation,jsons/VE125_randls_54_rotated.json,http://54.235.29.9/FacialAge/BNav_EC2/DepthDuration/v2_depth_duration_MTurk/v2_DepthDuration_HTML.html#153,153,2048,999,2048,1152,9-18-2022,11-22-40,16,depth_duration_stimuli/002445_2014-06-28_20-32-16_260595134347_rgbf000029-resize_4/002445_2014-06-28_20-32-16_260595134347_rgbf000029-resize_4-target.png,125,2.5315,6,2279,124,feet,jsons/VE125_randls_54_rotated.json,879318,977950,37,Man
16,388057,DepthScenes,duration_manipulation_targetAtFixation,jsons/VE125_randls_54_rotated.json,http://54.235.29.9/FacialAge/BNav_EC2/DepthDuration/v2_depth_duration_MTurk/v2_DepthDuration_HTML.html#153,153,2048,999,2048,1152,9-18-2022,11-22-40,17,depth_duration_stimuli/000109_2014-05-14_23-41-52_260595134347_rgbf000035-resize_9/000109_2014-05-14_23-41-52_260595134347_rgbf000035-resize_9-target.png,125,1.3545,4,1688,126,feet,jsons/VE125_randls_54_rotated.json,879318,977950,37,Man
17,388057,DepthScenes,duration_manipulation_targetAtFixation,jsons/VE125_randls_54_rotated.json,http://54.235.29.9/FacialAge/BNav_EC2/DepthDuration/v2_depth_duration_MTurk/v2_DepthDuration_HTML.html#153,153,2048,999,2048,1152,9-18-2022,11-22-40,18,depth_duration_stimuli/000470_2014-06-09_19-42-40_260595134347_rgbf000094-resize_1/000470_2014-06-09_19-42-40_260595134347_rgbf000094-resize_1-target.png,125,1.831,3,1998,124,feet,jsons/VE125_randls_54_rotated.json,879318,977950,37,Man
18,388057,DepthScenes,duration_manipulation_targetAtFixation,jsons/VE125_randls_54_rotated.json,http://54.235.29.9/FacialAge/BNav_EC2/DepthDuration/v2_depth_duration_MTurk/v2_DepthDuration_HTML.html#153,153,2048,999,2048,1152,9-18-2022,11-22-40,19,depth_duration_stimuli/001498_2014-06-19_17-45-14_260595134347_rgbf000129-resize_4/001498_2014-06-19_17-45-14_260595134347_rgbf000129-resize-original.jpg,125,1.4075,0,1716,125,feet,jsons/VE125_randls_54_rotated.json,879318,977950,37,Man
19,388057,DepthScenes,duration_manipulation_targetAtFixation,jsons/VE125_randls_54_rotated.json,http://54.235.29.9/FacialAge/BNav_EC2/DepthDuration/v2_depth_duration_MTurk/v2_DepthDuration_HTML.html#153,153,2048,999,2048,1152,9-18-2022,11-22-40,20,depth_duration_stimuli/003010_2014-06-15_12-54-35_094959634447_rgbf000112-resize_0/003010_2014-06-15_12-54-35_094959634447_rgbf000112-resize_0-target.png,125,3.1185,20,1671,122,feet,jsons/VE125_randls_54_rotated.json,879318,977950,37,Man
20,388057,DepthScenes,duration_manipulation_targetAtFixation,jsons/VE125_randls_54_rotated.json,http://54.235.29.9/FacialAge/BNav_EC2/DepthDuration/v2_depth_duration_MTurk/v2_DepthDuration_HTML.html#153,153,2048,999,2048,1152,9-18-2022,11-22-40,21,depth_duration_stimuli/001810_2014-06-26_20-51-35_260595134347_rgbf000040-resize_3/001810_2014-06-26_20-51-35_260595134347_rgbf000040-resize_3-target.png,125,2.2525,4,1652,124,feet,jsons/VE125_randls_54_rotated.json,879318,977950,37,Man
21,388057,DepthScenes,duration_manipulation_targetAtFixation,jsons/VE125_randls_54_rotated.json,http://54.235.29.9/FacialAge/BNav_EC2/DepthDuration/v2_depth_duration_MTurk/v2_DepthDuration_HTML.html#153,153,2048,999,2048,1152,9-18-2022,11-22-40,22,depth_duration_stimuli/001392_2014-06-19_16-07-59_260595134347_rgbf000046-resize_1/001392_2014-06-19_16-07-59_260595134347_rgbf000046-resize_1-target.png,125,4.135,13,3967,126,feet,jsons/VE125_randls_54_rotated.json,879318,977950,37,Man
22,388057,DepthScenes,duration_manipulation_targetAtFixation,jsons/VE125_randls_54_rotated.json,http://54.235.29.9/FacialAge/BNav_EC2/DepthDuration/v2_depth_duration_MTurk/v2_DepthDuration_HTML.html#153,153,2048,999,2048,1152,9-18-2022,11-22-40,23,depth_duration_stimuli/001570_2014-06-20_17-21-09_260595134347_rgbf000135-resize_4/001570_2014-06-20_17-21-09_260595134347_rgbf000135-resize_4-target.png,125,4.467,18,4861,126,feet,jsons/VE125_randls_54_rotated.json,879318,977950,37,Man
23,388057,DepthScenes,duration_manipulation_targetAtFixation,jsons/VE125_randls_54_rotated.json,http://54.235.29.9/FacialAge/BNav_EC2/DepthDuration/v2_depth_duration_MTurk/v2_DepthDuration_HTML.html#153,153,2048,999,2048,1152,9-18-2022,11-22-40,24,depth_duration_stimuli/000943_2014-06-09_19-31-07_260595134347_rgbf000128-resize_1/000943_2014-06-09_19-31-07_260595134347_rgbf000128-resize_1-target.png,125,1.9765,4,1891,123,feet,jsons/VE125_randls_54_rotated.json,879318,977950,37,Man
24,388057,DepthScenes,duration_manipulation_targetAtFixation,jsons/VE125_randls_54_rotated.json,http://54.235.29.9/FacialAge/BNav_EC2/DepthDuration/v2_depth_duration_MTurk/v2_DepthDuration_HTML.html#153,153,2048,999,2048,1152,9-18-2022,11-22-40,25,depth_duration_stimuli/003070_2014-06-15_14-58-27_094959634447_rgbf000150-resize_3/003070_2014-06-15_14-58-27_094959634447_rgbf000150-resize_3-target.png,125,2.9415,8,2869,125,feet,jsons/VE125_randls_54_rotated.json,879318,977950,37,Man
25,388057,DepthScenes,duration_manipulation_targetAtFixation,jsons/VE125_randls_54_rotated.json,http://54.235.29.9/FacialAge/BNav_EC2/DepthDuration/v2_depth_duration_MTurk/v2_DepthDuration_HTML.html#153,153,2048,999,2048,1152,9-18-2022,11-22-40,26,depth_duration_stimuli/003338_2014-05-20_11-01-23_094959634447_rgbf000051-resize_6/003338_2014-05-20_11-01-23_094959634447_rgbf000051-resize_6-target.png,125,1.693,3,1585,124,feet,jsons/VE125_randls_54_rotated.json,879318,977950,37,Man
26,388057,DepthScenes,duration_manipulation_targetAtFixation,jsons/VE125_randls_54_rotated.json,http://54.235.29.9/FacialAge/BNav_EC2/DepthDuration/v2_depth_duration_MTurk/v2_DepthDuration_HTML.html#153,153,2048,999,2048,1152,9-18-2022,11-22-40,27,depth_duration_stimuli/002509_2014-06-24_13-19-22_094959634447_rgbf000077-resize_0/002509_2014-06-24_13-19-22_094959634447_rgbf000077-resize_0-target.png,125,1.3065,4,3224,124,feet,jsons/VE125_randls_54_rotated.json,879318,977950,37,Man
27,388057,DepthScenes,duration_manipulation_targetAtFixation,jsons/VE125_randls_54_rotated.json,http://54.235.29.9/FacialAge/BNav_EC2/DepthDuration/v2_depth_duration_MTurk/v2_DepthDuration_HTML.html#153,153,2048,999,2048,1152,9-18-2022,11-22-40,28,depth_duration_stimuli/002657_2014-06-13_15-29-54_094959634447_rgbf000150-resize_1/002657_2014-06-13_15-29-54_094959634447_rgbf000150-resize_1-target.png,125,4.919,7,2682,124,feet,jsons/VE125_randls_54_rotated.json,879318,977950,37,Man
28,388057,DepthScenes,duration_manipulation_targetAtFixation,jsons/VE125_randls_54_rotated.json,http://54.235.29.9/FacialAge/BNav_EC2/DepthDuration/v2_depth_duration_MTurk/v2_DepthDuration_HTML.html#153,153,2048,999,2048,1152,9-18-2022,11-22-40,29,depth_duration_stimuli/002375_2014-06-28_20-13-44_260595134347_rgbf000032-resize_1/002375_2014-06-28_20-13-44_260595134347_rgbf000032-resize_1-target.png,125,4.0175,5,1694,124,feet,jsons/VE125_randls_54_rotated.json,879318,977950,37,Man
29,388057,DepthScenes,duration_manipulation_targetAtFixation,jsons/VE125_randls_54_rotated.json,http://54.235.29.9/FacialAge/BNav_EC2/DepthDuration/v2_depth_duration_MTurk/v2_DepthDuration_HTML.html#153,153,2048,999,2048,1152,9-18-2022,11-22-40,30,depth_duration_stimuli/002072_2014-06-24_21-48-06_260595134347_rgbf000115-resize_0/002072_2014-06-24_21-48-06_260595134347_rgbf000115-resize-original.jpg,125,4.702,0,1481,124,feet,jsons/VE125_randls_54_rotated.json,879318,977950,37,Man
30,388057,DepthScenes,duration_manipulation_targetAtFixation,jsons/VE125_randls_54_rotated.json,http://54.235.29.9/FacialAge/BNav_EC2/DepthDuration/v2_depth_duration_MTurk/v2_DepthDuration_HTML.html#153,153,2048,999,2048,1152,9-18-2022,11-22-40,31,depth_duration_stimuli/000502_2014-06-08_23-02-32_260595134347_rgbf000063-resize_4/000502_2014-06-08_23-02-32_260595134347_rgbf000063-resize_4-target.png,125,2.431,3,17746,125,feet,jsons/VE125_randls_54_rotated.json,879318,977950,37,Man
31,388057,DepthScenes,duration_manipulation_targetAtFixation,jsons/VE125_randls_54_rotated.json,http://54.235.29.9/FacialAge/BNav_EC2/DepthDuration/v2_depth_duration_MTurk/v2_DepthDuration_HTML.html#153,153,2048,999,2048,1152,9-18-2022,11-22-40,32,depth_duration_stimuli/001199_2014-06-17_16-03-48_260595134347_rgbf000077-resize_0/001199_2014-06-17_16-03-48_260595134347_rgbf000077-resize_0-target.png,125,3.4375,15,2796,125,feet,jsons/VE125_randls_54_rotated.json,879318,977950,37,Man
32,388057,DepthScenes,duration_manipulation_targetAtFixation,jsons/VE125_randls_54_rotated.json,http://54.235.29.9/FacialAge/BNav_EC2/DepthDuration/v2_depth_duration_MTurk/v2_DepthDuration_HTML.html#153,153,2048,999,2048,1152,9-18-2022,11-22-40,33,depth_duration_stimuli/001828_2014-06-26_21-40-03_260595134347_rgbf000024-resize_0/001828_2014-06-26_21-40-03_260595134347_rgbf000024-resize_0-target.png,125,4.8260000000000005,16,3051,125,feet,jsons/VE125_randls_54_rotated.json,879318,977950,37,Man
33,388057,DepthScenes,duration_manipulation_targetAtFixation,jsons/VE125_randls_54_rotated.json,http://54.235.29.9/FacialAge/BNav_EC2/DepthDuration/v2_depth_duration_MTurk/v2_DepthDuration_HTML.html#153,153,2048,999,2048,1152,9-18-2022,11-22-40,34,depth_duration_stimuli/000009_2014-05-26_14-32-05_260595134347_rgbf000034-resize_3/000009_2014-05-26_14-32-05_260595134347_rgbf000034-resize_3-target.png,125,3.8715,16,3148,125,feet,jsons/VE125_randls_54_rotated.json,879318,977950,37,Man
34,388057,DepthScenes,duration_manipulation_targetAtFixation,jsons/VE125_randls_54_rotated.json,http://54.235.29.9/FacialAge/BNav_EC2/DepthDuration/v2_depth_duration_MTurk/v2_DepthDuration_HTML.html#153,153,2048,999,2048,1152,9-18-2022,11-22-40,35,depth_duration_stimuli/003587_2014-05-23_16-48-02_094959634447_rgbf002384-resize_2/003587_2014-05-23_16-48-02_094959634447_rgbf002384-resize_2-target.png,125,1.357,3,1785,125,feet,jsons/VE125_randls_54_rotated.json,879318,977950,37,Man
35,388057,DepthScenes,duration_manipulation_targetAtFixation,jsons/VE125_randls_54_rotated.json,http://54.235.29.9/FacialAge/BNav_EC2/DepthDuration/v2_depth_duration_MTurk/v2_DepthDuration_HTML.html#153,153,2048,999,2048,1152,9-18-2022,11-22-40,36,depth_duration_stimuli/001167_2014-06-17_15-38-07_260595134347_rgbf000108-resize_0/001167_2014-06-17_15-38-07_260595134347_rgbf000108-resize_0-target.png,125,1.8505,4,4522,125,feet,jsons/VE125_randls_54_rotated.json,879318,977950,37,Man
36,388057,DepthScenes,duration_manipulation_targetAtFixation,jsons/VE125_randls_54_rotated.json,http://54.235.29.9/FacialAge/BNav_EC2/DepthDuration/v2_depth_duration_MTurk/v2_DepthDuration_HTML.html#153,153,2048,999,2048,1152,9-18-2022,11-22-40,37,depth_duration_stimuli/001032_2014-06-08_13-23-17_260595134347_rgbf000021-resize_3/001032_2014-06-08_13-23-17_260595134347_rgbf000021-resize_3-target.png,125,3.2725,5,13977,125,feet,jsons/VE125_randls_54_rotated.json,879318,977950,37,Man
37,388057,DepthScenes,duration_manipulation_targetAtFixation,jsons/VE125_randls_54_rotated.json,http://54.235.29.9/FacialAge/BNav_EC2/DepthDuration/v2_depth_duration_MTurk/v2_DepthDuration_HTML.html#153,153,2048,999,2048,1152,9-18-2022,11-22-40,38,depth_duration_stimuli/001059_2014-06-08_21-53-27_260595134347_rgbf000061-resize_4/001059_2014-06-08_21-53-27_260595134347_rgbf000061-resize_4-target.png,125,2.4185,6,2093,126,feet,jsons/VE125_randls_54_rotated.json,879318,977950,37,Man
38,388057,DepthScenes,duration_manipulation_targetAtFixation,jsons/VE125_randls_54_rotated.json,http://54.235.29.9/FacialAge/BNav_EC2/DepthDuration/v2_depth_duration_MTurk/v2_DepthDuration_HTML.html#153,153,2048,999,2048,1152,9-18-2022,11-22-40,39,depth_duration_stimuli/002953_2014-06-08_17-32-18_094959634447_rgbf000059-resize_5/002953_2014-06-08_17-32-18_094959634447_rgbf000059-resize_5-target.png,125,1.551,3,1568,124,feet,jsons/VE125_randls_54_rotated.json,879318,977950,37,Man
39,388057,DepthScenes,duration_manipulation_targetAtFixation,jsons/VE125_randls_54_rotated.json,http://54.235.29.9/FacialAge/BNav_EC2/DepthDuration/v2_depth_duration_MTurk/v2_DepthDuration_HTML.html#153,153,2048,999,2048,1152,9-18-2022,11-22-40,40,depth_duration_stimuli/000878_2014-06-08_22-52-45_260595134347_rgbf000045-resize_2/000878_2014-06-08_22-52-45_260595134347_rgbf000045-resize_2-target.png,125,2.092,7,1995,125,feet,jsons/VE125_randls_54_rotated.json,879318,977950,37,Man
40,388057,DepthScenes,duration_manipulation_targetAtFixation,jsons/VE125_randls_54_rotated.json,http://54.235.29.9/FacialAge/BNav_EC2/DepthDuration/v2_depth_duration_MTurk/v2_DepthDuration_HTML.html#153,153,2048,999,2048,1152,9-18-2022,11-22-40,41,depth_duration_stimuli/000691_2014-06-08_13-08-50_260595134347_rgbf000132-resize_3/000691_2014-06-08_13-08-50_260595134347_rgbf000132-resize_3-target.png,125,4.1530000000000005,9,3198,125,feet,jsons/VE125_randls_54_rotated.json,879318,977950,37,Man
41,388057,DepthScenes,duration_manipulation_targetAtFixation,jsons/VE125_randls_54_rotated.json,http://54.235.29.9/FacialAge/BNav_EC2/DepthDuration/v2_depth_duration_MTurk/v2_DepthDuration_HTML.html#153,153,2048,999,2048,1152,9-18-2022,11-22-40,42,depth_duration_stimuli/002213_2014-06-28_18-37-58_260595134347_rgbf000055-resize_1/002213_2014-06-28_18-37-58_260595134347_rgbf000055-resize_1-target.png,125,3.62,0,1461,124,feet,jsons/VE125_randls_54_rotated.json,879318,977950,37,Man
42,388057,DepthScenes,duration_manipulation_targetAtFixation,jsons/VE125_randls_54_rotated.json,http://54.235.29.9/FacialAge/BNav_EC2/DepthDuration/v2_depth_duration_MTurk/v2_DepthDuration_HTML.html#153,153,2048,999,2048,1152,9-18-2022,11-22-40,43,depth_duration_stimuli/000103_2014-05-14_22-01-17_260595134347_rgbf000152-resize_5/000103_2014-05-14_22-01-17_260595134347_rgbf000152-resize_5-target.png,125,1.993,12,2178,127,feet,jsons/VE125_randls_54_rotated.json,879318,977950,37,Man
43,388057,DepthScenes,duration_manipulation_targetAtFixation,jsons/VE125_randls_54_rotated.json,http://54.235.29.9/FacialAge/BNav_EC2/DepthDuration/v2_depth_duration_MTurk/v2_DepthDuration_HTML.html#153,153,2048,999,2048,1152,9-18-2022,11-22-40,44,depth_duration_stimuli/001555_2014-06-20_17-12-10_260595134347_rgbf000065-resize_4/001555_2014-06-20_17-12-10_260595134347_rgbf000065-resize_4-target.png,125,1.633,4,1592,127,feet,jsons/VE125_randls_54_rotated.json,879318,977950,37,Man
44,388057,DepthScenes,duration_manipulation_targetAtFixation,jsons/VE125_randls_54_rotated.json,http://54.235.29.9/FacialAge/BNav_EC2/DepthDuration/v2_depth_duration_MTurk/v2_DepthDuration_HTML.html#153,153,2048,999,2048,1152,9-18-2022,11-22-40,45,depth_duration_stimuli/002323_2014-06-28_20-01-54_260595134347_rgbf000051-resize_4/002323_2014-06-28_20-01-54_260595134347_rgbf000051-resize_4-target.png,125,3.7310000000000003,15,2149,125,feet,jsons/VE125_randls_54_rotated.json,879318,977950,37,Man
45,388057,DepthScenes,duration_manipulation_targetAtFixation,jsons/VE125_randls_54_rotated.json,http://54.235.29.9/FacialAge/BNav_EC2/DepthDuration/v2_depth_duration_MTurk/v2_DepthDuration_HTML.html#153,153,2048,999,2048,1152,9-18-2022,11-22-40,46,depth_duration_stimuli/000917_2014-06-09_22-45-29_260595134347_rgbf000149-resize_3/000917_2014-06-09_22-45-29_260595134347_rgbf000149-resize_3-target.png,125,4.1865,9,2371,124,feet,jsons/VE125_randls_54_rotated.json,879318,977950,37,Man
46,388057,DepthScenes,duration_manipulation_targetAtFixation,jsons/VE125_randls_54_rotated.json,http://54.235.29.9/FacialAge/BNav_EC2/DepthDuration/v2_depth_duration_MTurk/v2_DepthDuration_HTML.html#153,153,2048,999,2048,1152,9-18-2022,11-22-40,47,depth_duration_stimuli/001214_2014-06-17_16-13-55_260595134347_rgbf000111-resize_0/001214_2014-06-17_16-13-55_260595134347_rgbf000111-resize_0-target.png,125,2.6505,5,1624,125,feet,jsons/VE125_randls_54_rotated.json,879318,977950,37,Man
47,388057,DepthScenes,duration_manipulation_targetAtFixation,jsons/VE125_randls_54_rotated.json,http://54.235.29.9/FacialAge/BNav_EC2/DepthDuration/v2_depth_duration_MTurk/v2_DepthDuration_HTML.html#153,153,2048,999,2048,1152,9-18-2022,11-22-40,48,depth_duration_stimuli/000810_2014-06-08_17-20-01_260595134347_rgbf000105-resize_0/000810_2014-06-08_17-20-01_260595134347_rgbf000105-resize_0-target.png,125,1.4865,5,2478,124,feet,jsons/VE125_randls_54_rotated.json,879318,977950,37,Man
48,388057,DepthScenes,duration_manipulation_targetAtFixation,jsons/VE125_randls_54_rotated.json,http://54.235.29.9/FacialAge/BNav_EC2/DepthDuration/v2_depth_duration_MTurk/v2_DepthDuration_HTML.html#153,153,2048,999,2048,1152,9-18-2022,11-22-40,49,depth_duration_stimuli/001170_2014-06-17_15-43-44_260595134347_rgbf000096-resize_6/001170_2014-06-17_15-43-44_260595134347_rgbf000096-resize-original.jpg,125,1.1909999999999998,0,1936,124,feet,jsons/VE125_randls_54_rotated.json,879318,977950,37,Man
49,388057,DepthScenes,duration_manipulation_targetAtFixation,jsons/VE125_randls_54_rotated.json,http://54.235.29.9/FacialAge/BNav_EC2/DepthDuration/v2_depth_duration_MTurk/v2_DepthDuration_HTML.html#153,153,2048,999,2048,1152,9-18-2022,11-22-40,50,depth_duration_stimuli/002103_2014-06-25_20-00-40_260595134347_rgbf000049-resize_0/002103_2014-06-25_20-00-40_260595134347_rgbf000049-resize_0-target.png,125,4.105,20,5363,123,feet,jsons/VE125_randls_54_rotated.json,879318,977950,37,Man
50,388057,DepthScenes,duration_manipulation_targetAtFixation,jsons/VE125_randls_54_rotated.json,http://54.235.29.9/FacialAge/BNav_EC2/DepthDuration/v2_depth_duration_MTurk/v2_DepthDuration_HTML.html#153,153,2048,999,2048,1152,9-18-2022,11-22-40,51,depth_duration_stimuli/002039_2014-06-24_20-22-38_260595134347_rgbf000084-resize_1/002039_2014-06-24_20-22-38_260595134347_rgbf000084-resize_1-target.png,125,4.408,15,3736,124,feet,jsons/VE125_randls_54_rotated.json,879318,977950,37,Man
51,388057,DepthScenes,duration_manipulation_targetAtFixation,jsons/VE125_randls_54_rotated.json,http://54.235.29.9/FacialAge/BNav_EC2/DepthDuration/v2_depth_duration_MTurk/v2_DepthDuration_HTML.html#153,153,2048,999,2048,1152,9-18-2022,11-22-40,52,depth_duration_stimuli/000665_2014-06-09_20-42-35_260595134347_rgbf000110-resize_1/000665_2014-06-09_20-42-35_260595134347_rgbf000110-resize_1-target.png,125,3.057,8,2252,125,feet,jsons/VE125_randls_54_rotated.json,879318,977950,37,Man
52,388057,DepthScenes,duration_manipulation_targetAtFixation,jsons/VE125_randls_54_rotated.json,http://54.235.29.9/FacialAge/BNav_EC2/DepthDuration/v2_depth_duration_MTurk/v2_DepthDuration_HTML.html#153,153,2048,999,2048,1152,9-18-2022,11-22-40,53,depth_duration_stimuli/001150_2014-06-17_15-27-34_260595134347_rgbf000108-resize_2/001150_2014-06-17_15-27-34_260595134347_rgbf000108-resize_2-target.png,125,4.0325,11,3575,126,feet,jsons/VE125_randls_54_rotated.json,879318,977950,37,Man
53,388057,DepthScenes,duration_manipulation_targetAtFixation,jsons/VE125_randls_54_rotated.json,http://54.235.29.9/FacialAge/BNav_EC2/DepthDuration/v2_depth_duration_MTurk/v2_DepthDuration_HTML.html#153,153,2048,999,2048,1152,9-18-2022,11-22-40,54,depth_duration_stimuli/001052_2014-06-08_18-24-54_260595134347_rgbf000130-resize_1/001052_2014-06-08_18-24-54_260595134347_rgbf000130-resize_1-target.png,125,4.1045,12,2803,124,feet,jsons/VE125_randls_54_rotated.json,879318,977950,37,Man
54,388057,DepthScenes,duration_manipulation_targetAtFixation,jsons/VE125_randls_54_rotated.json,http://54.235.29.9/FacialAge/BNav_EC2/DepthDuration/v2_depth_duration_MTurk/v2_DepthDuration_HTML.html#153,153,2048,999,2048,1152,9-18-2022,11-22-40,55,depth_duration_stimuli/002988_2014-06-15_12-24-20_094959634447_rgbf000150-resize_1/002988_2014-06-15_12-24-20_094959634447_rgbf000150-resize_1-target.png,125,4.7669999999999995,15,4751,123,feet,jsons/VE125_randls_54_rotated.json,879318,977950,37,Man
55,388057,DepthScenes,duration_manipulation_targetAtFixation,jsons/VE125_randls_54_rotated.json,http://54.235.29.9/FacialAge/BNav_EC2/DepthDuration/v2_depth_duration_MTurk/v2_DepthDuration_HTML.html#153,153,2048,999,2048,1152,9-18-2022,11-22-40,56,depth_duration_stimuli/000409_2014-06-04_19-23-33_260595134347_rgbf000067-resize_0/000409_2014-06-04_19-23-33_260595134347_rgbf000067-resize_0-target.png,125,3.7335,5,2836,124,feet,jsons/VE125_randls_54_rotated.json,879318,977950,37,Man
56,388057,DepthScenes,duration_manipulation_targetAtFixation,jsons/VE125_randls_54_rotated.json,http://54.235.29.9/FacialAge/BNav_EC2/DepthDuration/v2_depth_duration_MTurk/v2_DepthDuration_HTML.html#153,153,2048,999,2048,1152,9-18-2022,11-22-40,57,depth_duration_stimuli/002663_2014-06-13_15-50-26_094959634447_rgbf000075-resize_1/002663_2014-06-13_15-50-26_094959634447_rgbf000075-resize_1-target.png,125,4.7495,15,3000,126,feet,jsons/VE125_randls_54_rotated.json,879318,977950,37,Man
57,388057,DepthScenes,duration_manipulation_targetAtFixation,jsons/VE125_randls_54_rotated.json,http://54.235.29.9/FacialAge/BNav_EC2/DepthDuration/v2_depth_duration_MTurk/v2_DepthDuration_HTML.html#153,153,2048,999,2048,1152,9-18-2022,11-22-40,58,depth_duration_stimuli/002949_2014-06-26_15-57-42_094959634447_rgbf000079-resize_1/002949_2014-06-26_15-57-42_094959634447_rgbf000079-resize_1-target.png,125,1.8915,4,1813,127,feet,jsons/VE125_randls_54_rotated.json,879318,977950,37,Man
58,388057,DepthScenes,duration_manipulation_targetAtFixation,jsons/VE125_randls_54_rotated.json,http://54.235.29.9/FacialAge/BNav_EC2/DepthDuration/v2_depth_duration_MTurk/v2_DepthDuration_HTML.html#153,153,2048,999,2048,1152,9-18-2022,11-22-40,59,depth_duration_stimuli/000522_2014-06-08_13-35-06_260595134347_rgbf000244-resize_1/000522_2014-06-08_13-35-06_260595134347_rgbf000244-resize_1-target.png,125,2.3715,3,1565,125,feet,jsons/VE125_randls_54_rotated.json,879318,977950,37,Man
59,388057,DepthScenes,duration_manipulation_targetAtFixation,jsons/VE125_randls_54_rotated.json,http://54.235.29.9/FacialAge/BNav_EC2/DepthDuration/v2_depth_duration_MTurk/v2_DepthDuration_HTML.html#153,153,2048,999,2048,1152,9-18-2022,11-22-40,60,depth_duration_stimuli/000866_2014-06-09_20-45-42_260595134347_rgbf000139-resize_1/000866_2014-06-09_20-45-42_260595134347_rgbf000139-resize_1-target.png,125,3.2155,7,1780,126,feet,jsons/VE125_randls_54_rotated.json,879318,977950,37,Man
60,388057,DepthScenes,duration_manipulation_targetAtFixation,jsons/VE125_randls_54_rotated.json,http://54.235.29.9/FacialAge/BNav_EC2/DepthDuration/v2_depth_duration_MTurk/v2_DepthDuration_HTML.html#153,153,2048,999,2048,1152,9-18-2022,11-22-40,61,depth_duration_stimuli/002989_2014-06-15_12-25-03_094959634447_rgbf000150-resize_3/002989_2014-06-15_12-25-03_094959634447_rgbf000150-resize_3-target.png,125,4.1975,15,2504,123,feet,jsons/VE125_randls_54_rotated.json,879318,977950,37,Man
61,388057,DepthScenes,duration_manipulation_targetAtFixation,jsons/VE125_randls_54_rotated.json,http://54.235.29.9/FacialAge/BNav_EC2/DepthDuration/v2_depth_duration_MTurk/v2_DepthDuration_HTML.html#153,153,2048,999,2048,1152,9-18-2022,11-22-40,62,depth_duration_stimuli/000927_2014-06-09_16-32-30_260595134347_rgbf000123-resize_3/000927_2014-06-09_16-32-30_260595134347_rgbf000123-resize_3-target.png,125,2.6785,10,3573,126,feet,jsons/VE125_randls_54_rotated.json,879318,977950,37,Man
62,388057,DepthScenes,duration_manipulation_targetAtFixation,jsons/VE125_randls_54_rotated.json,http://54.235.29.9/FacialAge/BNav_EC2/DepthDuration/v2_depth_duration_MTurk/v2_DepthDuration_HTML.html#153,153,2048,999,2048,1152,9-18-2022,11-22-40,63,depth_duration_stimuli/001110_2014-06-15_17-25-28_260595134347_rgbf000150-resize_1/001110_2014-06-15_17-25-28_260595134347_rgbf000150-resize_1-target.png,125,1.7115,4,1585,124,feet,jsons/VE125_randls_54_rotated.json,879318,977950,37,Man
63,388057,DepthScenes,duration_manipulation_targetAtFixation,jsons/VE125_randls_54_rotated.json,http://54.235.29.9/FacialAge/BNav_EC2/DepthDuration/v2_depth_duration_MTurk/v2_DepthDuration_HTML.html#153,153,2048,999,2048,1152,9-18-2022,11-22-40,64,depth_duration_stimuli/002444_2014-06-28_20-32-08_260595134347_rgbf000027-resize_0/002444_2014-06-28_20-32-08_260595134347_rgbf000027-resize_0-target.png,125,4.388999999999999,15,2657,126,feet,jsons/VE125_randls_54_rotated.json,879318,977950,37,Man
64,388057,DepthScenes,duration_manipulation_targetAtFixation,jsons/VE125_randls_54_rotated.json,http://54.235.29.9/FacialAge/BNav_EC2/DepthDuration/v2_depth_duration_MTurk/v2_DepthDuration_HTML.html#153,153,2048,999,2048,1152,9-18-2022,11-22-40,65,depth_duration_stimuli/000436_2014-06-09_22-25-11_260595134347_rgbf000137-resize_1/000436_2014-06-09_22-25-11_260595134347_rgbf000137-resize_1-target.png,125,4.0705,16,2380,125,feet,jsons/VE125_randls_54_rotated.json,879318,977950,37,Man
65,388057,DepthScenes,duration_manipulation_targetAtFixation,jsons/VE125_randls_54_rotated.json,http://54.235.29.9/FacialAge/BNav_EC2/DepthDuration/v2_depth_duration_MTurk/v2_DepthDuration_HTML.html#153,153,2048,999,2048,1152,9-18-2022,11-22-40,66,depth_duration_stimuli/001540_2014-06-20_17-01-05_260595134347_rgbf000086-resize_2/001540_2014-06-20_17-01-05_260595134347_rgbf000086-resize-original.jpg,125,1.459,0,20081,123,feet,jsons/VE125_randls_54_rotated.json,879318,977950,37,Man
66,388057,DepthScenes,duration_manipulation_targetAtFixation,jsons/VE125_randls_54_rotated.json,http://54.235.29.9/FacialAge/BNav_EC2/DepthDuration/v2_depth_duration_MTurk/v2_DepthDuration_HTML.html#153,153,2048,999,2048,1152,9-18-2022,11-22-40,67,depth_duration_stimuli/001516_2014-06-20_16-25-09_260595134347_rgbf000076-resize_2/001516_2014-06-20_16-25-09_260595134347_rgbf000076-resize_2-target.png,125,1.7445,5,2602,126,feet,jsons/VE125_randls_54_rotated.json,879318,977950,37,Man
67,388057,DepthScenes,duration_manipulation_targetAtFixation,jsons/VE125_randls_54_rotated.json,http://54.235.29.9/FacialAge/BNav_EC2/DepthDuration/v2_depth_duration_MTurk/v2_DepthDuration_HTML.html#153,153,2048,999,2048,1152,9-18-2022,11-22-40,68,depth_duration_stimuli/002118_2014-06-25_20-32-08_260595134347_rgbf000078-resize_1/002118_2014-06-25_20-32-08_260595134347_rgbf000078-resize_1-target.png,125,2.6460000000000004,4,3079,125,feet,jsons/VE125_randls_54_rotated.json,879318,977950,37,Man
68,388057,DepthScenes,duration_manipulation_targetAtFixation,jsons/VE125_randls_54_rotated.json,http://54.235.29.9/FacialAge/BNav_EC2/DepthDuration/v2_depth_duration_MTurk/v2_DepthDuration_HTML.html#153,153,2048,999,2048,1152,9-18-2022,11-22-40,69,depth_duration_stimuli/002209_2014-06-28_18-36-10_260595134347_rgbf000051-resize_1/002209_2014-06-28_18-36-10_260595134347_rgbf000051-resize_1-target.png,125,2.057,0,1613,124,feet,jsons/VE125_randls_54_rotated.json,879318,977950,37,Man
69,388057,DepthScenes,duration_manipulation_targetAtFixation,jsons/VE125_randls_54_rotated.json,http://54.235.29.9/FacialAge/BNav_EC2/DepthDuration/v2_depth_duration_MTurk/v2_DepthDuration_HTML.html#153,153,2048,999,2048,1152,9-18-2022,11-22-40,70,depth_duration_stimuli/002763_2014-06-22_19-13-10_094959634447_rgbf000075-resize_4/002763_2014-06-22_19-13-10_094959634447_rgbf000075-resize_4-target.png,125,1.68375,5,1502,126,feet,jsons/VE125_randls_54_rotated.json,879318,977950,37,Man
70,388057,DepthScenes,duration_manipulation_targetAtFixation,jsons/VE125_randls_54_rotated.json,http://54.235.29.9/FacialAge/BNav_EC2/DepthDuration/v2_depth_duration_MTurk/v2_DepthDuration_HTML.html#153,153,2048,999,2048,1152,9-18-2022,11-22-40,71,depth_duration_stimuli/000734_2014-06-08_17-39-11_260595134347_rgbf000128-resize_2/000734_2014-06-08_17-39-11_260595134347_rgbf000128-resize_2-target.png,125,4.098,7,1586,124,feet,jsons/VE125_randls_54_rotated.json,879318,977950,37,Man
71,388057,DepthScenes,duration_manipulation_targetAtFixation,jsons/VE125_randls_54_rotated.json,http://54.235.29.9/FacialAge/BNav_EC2/DepthDuration/v2_depth_duration_MTurk/v2_DepthDuration_HTML.html#153,153,2048,999,2048,1152,9-18-2022,11-22-40,72,depth_duration_stimuli/000739_2014-06-08_18-45-58_260595134347_rgbf000068-resize_1/000739_2014-06-08_18-45-58_260595134347_rgbf000068-resize_1-target.png,125,3.534,8,1547,126,feet,jsons/VE125_randls_54_rotated.json,879318,977950,37,Man
72,388057,DepthScenes,duration_manipulation_targetAtFixation,jsons/VE125_randls_54_rotated.json,http://54.235.29.9/FacialAge/BNav_EC2/DepthDuration/v2_depth_duration_MTurk/v2_DepthDuration_HTML.html#153,153,2048,999,2048,1152,9-18-2022,11-22-40,73,depth_duration_stimuli/001584_2014-06-20_11-07-43_260595134347_rgbf000002-resize_1/001584_2014-06-20_11-07-43_260595134347_rgbf000002-resize_1-target.png,125,3.53,9,1576,125,feet,jsons/VE125_randls_54_rotated.json,879318,977950,37,Man
73,388057,DepthScenes,duration_manipulation_targetAtFixation,jsons/VE125_randls_54_rotated.json,http://54.235.29.9/FacialAge/BNav_EC2/DepthDuration/v2_depth_duration_MTurk/v2_DepthDuration_HTML.html#153,153,2048,999,2048,1152,9-18-2022,11-22-40,74,depth_duration_stimuli/003621_2014-05-23_18-06-08_094959634447_rgbf000101-resize_1/003621_2014-05-23_18-06-08_094959634447_rgbf000101-resize_1-target.png,125,3.9835,11,1919,122,feet,jsons/VE125_randls_54_rotated.json,879318,977950,37,Man
74,388057,DepthScenes,duration_manipulation_targetAtFixation,jsons/VE125_randls_54_rotated.json,http://54.235.29.9/FacialAge/BNav_EC2/DepthDuration/v2_depth_duration_MTurk/v2_DepthDuration_HTML.html#153,153,2048,999,2048,1152,9-18-2022,11-22-40,75,depth_duration_stimuli/002875_2014-06-01_15-19-00_094959634447_rgbf000151-resize_1/002875_2014-06-01_15-19-00_094959634447_rgbf000151-resize_1-target.png,125,1.9675,4,1657,125,feet,jsons/VE125_randls_54_rotated.json,879318,977950,37,Man
75,388057,DepthScenes,duration_manipulation_targetAtFixation,jsons/VE125_randls_54_rotated.json,http://54.235.29.9/FacialAge/BNav_EC2/DepthDuration/v2_depth_duration_MTurk/v2_DepthDuration_HTML.html#153,153,2048,999,2048,1152,9-18-2022,11-22-40,76,depth_duration_stimuli/001011_2014-06-08_23-18-54_260595134347_rgbf000044-resize_4/001011_2014-06-08_23-18-54_260595134347_rgbf000044-resize_4-target.png,125,2.4730000000000003,7,1790,124,feet,jsons/VE125_randls_54_rotated.json,879318,977950,37,Man
76,388057,DepthScenes,duration_manipulation_targetAtFixation,jsons/VE125_randls_54_rotated.json,http://54.235.29.9/FacialAge/BNav_EC2/DepthDuration/v2_depth_duration_MTurk/v2_DepthDuration_HTML.html#153,153,2048,999,2048,1152,9-18-2022,11-22-40,77,depth_duration_stimuli/002344_2014-06-28_20-06-29_260595134347_rgbf000030-resize_1/002344_2014-06-28_20-06-29_260595134347_rgbf000030-resize_1-target.png,125,1.5795,3,1639,126,feet,jsons/VE125_randls_54_rotated.json,879318,977950,37,Man
77,388057,DepthScenes,duration_manipulation_targetAtFixation,jsons/VE125_randls_54_rotated.json,http://54.235.29.9/FacialAge/BNav_EC2/DepthDuration/v2_depth_duration_MTurk/v2_DepthDuration_HTML.html#153,153,2048,999,2048,1152,9-18-2022,11-22-40,78,depth_duration_stimuli/002725_2014-06-22_11-47-51_094959634447_rgbf000070-resize_1/002725_2014-06-22_11-47-51_094959634447_rgbf000070-resize_1-target.png,125,2.195,4,2592,125,feet,jsons/VE125_randls_54_rotated.json,879318,977950,37,Man
78,388057,DepthScenes,duration_manipulation_targetAtFixation,jsons/VE125_randls_54_rotated.json,http://54.235.29.9/FacialAge/BNav_EC2/DepthDuration/v2_depth_duration_MTurk/v2_DepthDuration_HTML.html#153,153,2048,999,2048,1152,9-18-2022,11-22-40,79,depth_duration_stimuli/002136_2014-06-25_21-18-03_260595134347_rgbf000109-resize_3/002136_2014-06-25_21-18-03_260595134347_rgbf000109-resize_3-target.png,125,1.9569999999999999,3,1401,125,feet,jsons/VE125_randls_54_rotated.json,879318,977950,37,Man
79,388057,DepthScenes,duration_manipulation_targetAtFixation,jsons/VE125_randls_54_rotated.json,http://54.235.29.9/FacialAge/BNav_EC2/DepthDuration/v2_depth_duration_MTurk/v2_DepthDuration_HTML.html#153,153,2048,999,2048,1152,9-18-2022,11-22-40,80,depth_duration_stimuli/002964_2014-06-08_17-46-11_094959634447_rgbf000091-resize_4/002964_2014-06-08_17-46-11_094959634447_rgbf000091-resize_4-target.png,125,1.6909999999999998,2,1792,125,feet,jsons/VE125_randls_54_rotated.json,879318,977950,37,Man
80,388057,DepthScenes,duration_manipulation_targetAtFixation,jsons/VE125_randls_54_rotated.json,http://54.235.29.9/FacialAge/BNav_EC2/DepthDuration/v2_depth_duration_MTurk/v2_DepthDuration_HTML.html#153,153,2048,999,2048,1152,9-18-2022,11-22-40,81,depth_duration_stimuli/003079_2014-06-15_15-18-20_094959634447_rgbf000152-resize_8/003079_2014-06-15_15-18-20_094959634447_rgbf000152-resize_8-target.png,125,2.8775,8,1640,126,feet,jsons/VE125_randls_54_rotated.json,879318,977950,37,Man
81,388057,DepthScenes,duration_manipulation_targetAtFixation,jsons/VE125_randls_54_rotated.json,http://54.235.29.9/FacialAge/BNav_EC2/DepthDuration/v2_depth_duration_MTurk/v2_DepthDuration_HTML.html#153,153,2048,999,2048,1152,9-18-2022,11-22-40,82,depth_duration_stimuli/000506_2014-06-08_23-21-00_260595134347_rgbf000070-resize_7/000506_2014-06-08_23-21-00_260595134347_rgbf000070-resize_7-target.png,125,4.0585,7,1643,125,feet,jsons/VE125_randls_54_rotated.json,879318,977950,37,Man
82,388057,DepthScenes,duration_manipulation_targetAtFixation,jsons/VE125_randls_54_rotated.json,http://54.235.29.9/FacialAge/BNav_EC2/DepthDuration/v2_depth_duration_MTurk/v2_DepthDuration_HTML.html#153,153,2048,999,2048,1152,9-18-2022,11-22-40,83,depth_duration_stimuli/001136_2014-06-17_15-19-41_260595134347_rgbf000076-resize_3/001136_2014-06-17_15-19-41_260595134347_rgbf000076-resize_3-target.png,125,1.8655,6,2360,125,feet,jsons/VE125_randls_54_rotated.json,879318,977950,37,Man
83,388057,DepthScenes,duration_manipulation_targetAtFixation,jsons/VE125_randls_54_rotated.json,http://54.235.29.9/FacialAge/BNav_EC2/DepthDuration/v2_depth_duration_MTurk/v2_DepthDuration_HTML.html#153,153,2048,999,2048,1152,9-18-2022,11-22-40,84,depth_duration_stimuli/001164_2014-06-17_15-35-46_260595134347_rgbf000085-resize_3/001164_2014-06-17_15-35-46_260595134347_rgbf000085-resize_3-target.png,125,2.354,8,1703,125,feet,jsons/VE125_randls_54_rotated.json,879318,977950,37,Man
84,388057,DepthScenes,duration_manipulation_targetAtFixation,jsons/VE125_randls_54_rotated.json,http://54.235.29.9/FacialAge/BNav_EC2/DepthDuration/v2_depth_duration_MTurk/v2_DepthDuration_HTML.html#153,153,2048,999,2048,1152,9-18-2022,11-22-40,85,depth_duration_stimuli/002568_2014-06-24_13-59-21_094959634447_rgbf000062-resize_4/002568_2014-06-24_13-59-21_094959634447_rgbf000062-resize_4-target.png,125,3.015,8,1826,126,feet,jsons/VE125_randls_54_rotated.json,879318,977950,37,Man
85,388057,DepthScenes,duration_manipulation_targetAtFixation,jsons/VE125_randls_54_rotated.json,http://54.235.29.9/FacialAge/BNav_EC2/DepthDuration/v2_depth_duration_MTurk/v2_DepthDuration_HTML.html#153,153,2048,999,2048,1152,9-18-2022,11-22-40,86,depth_duration_stimuli/003492_2014-05-21_15-50-55_094959634447_rgbf000828-resize_1/003492_2014-05-21_15-50-55_094959634447_rgbf000828-resize_1-target.png,125,4.06875,11,14446,124,feet,jsons/VE125_randls_54_rotated.json,879318,977950,37,Man
86,388057,DepthScenes,duration_manipulation_targetAtFixation,jsons/VE125_randls_54_rotated.json,http://54.235.29.9/FacialAge/BNav_EC2/DepthDuration/v2_depth_duration_MTurk/v2_DepthDuration_HTML.html#153,153,2048,999,2048,1152,9-18-2022,11-22-40,87,depth_duration_stimuli/000677_2014-06-08_23-10-32_260595134347_rgbf000158-resize_6/000677_2014-06-08_23-10-32_260595134347_rgbf000158-resize_6-target.png,125,3.556,8,1843,124,feet,jsons/VE125_randls_54_rotated.json,879318,977950,37,Man
87,388057,DepthScenes,duration_manipulation_targetAtFixation,jsons/VE125_randls_54_rotated.json,http://54.235.29.9/FacialAge/BNav_EC2/DepthDuration/v2_depth_duration_MTurk/v2_DepthDuration_HTML.html#153,153,2048,999,2048,1152,9-18-2022,11-22-40,88,depth_duration_stimuli/001029_2014-06-08_13-17-57_260595134347_rgbf000065-resize_1/001029_2014-06-08_13-17-57_260595134347_rgbf000065-resize_1-target.png,125,3.0835,7,1773,124,feet,jsons/VE125_randls_54_rotated.json,879318,977950,37,Man
88,388057,DepthScenes,duration_manipulation_targetAtFixation,jsons/VE125_randls_54_rotated.json,http://54.235.29.9/FacialAge/BNav_EC2/DepthDuration/v2_depth_duration_MTurk/v2_DepthDuration_HTML.html#153,153,2048,999,2048,1152,9-18-2022,11-22-40,89,depth_duration_stimuli/002750_2014-06-22_19-08-03_094959634447_rgbf000094-resize_4/002750_2014-06-22_19-08-03_094959634447_rgbf000094-resize_4-target.png,125,2.354,6,12300,125,feet,jsons/VE125_randls_54_rotated.json,879318,977950,37,Man
89,388057,DepthScenes,duration_manipulation_targetAtFixation,jsons/VE125_randls_54_rotated.json,http://54.235.29.9/FacialAge/BNav_EC2/DepthDuration/v2_depth_duration_MTurk/v2_DepthDuration_HTML.html#153,153,2048,999,2048,1152,9-18-2022,11-22-40,90,depth_duration_stimuli/002549_2014-06-24_13-41-39_094959634447_rgbf000022-resize_3/002549_2014-06-24_13-41-39_094959634447_rgbf000022-resize_3-target.png,125,1.476,4,1586,125,feet,jsons/VE125_randls_54_rotated.json,879318,977950,37,Man
90,388057,DepthScenes,duration_manipulation_targetAtFixation,jsons/VE125_randls_54_rotated.json,http://54.235.29.9/FacialAge/BNav_EC2/DepthDuration/v2_depth_duration_MTurk/v2_DepthDuration_HTML.html#153,153,2048,999,2048,1152,9-18-2022,11-22-40,91,depth_duration_stimuli/002340_2014-06-28_20-05-46_260595134347_rgbf000113-resize_0/002340_2014-06-28_20-05-46_260595134347_rgbf000113-resize_0-target.png,125,2.4735,0,1414,124,feet,jsons/VE125_randls_54_rotated.json,879318,977950,37,Man
91,388057,DepthScenes,duration_manipulation_targetAtFixation,jsons/VE125_randls_54_rotated.json,http://54.235.29.9/FacialAge/BNav_EC2/DepthDuration/v2_depth_duration_MTurk/v2_DepthDuration_HTML.html#153,153,2048,999,2048,1152,9-18-2022,11-22-40,92,depth_duration_stimuli/001016_2014-06-09_16-16-10_260595134347_rgbf000112-resize_5/001016_2014-06-09_16-16-10_260595134347_rgbf000112-resize_5-target.png,125,1.6565,5,1682,125,feet,jsons/VE125_randls_54_rotated.json,879318,977950,37,Man
92,388057,DepthScenes,duration_manipulation_targetAtFixation,jsons/VE125_randls_54_rotated.json,http://54.235.29.9/FacialAge/BNav_EC2/DepthDuration/v2_depth_duration_MTurk/v2_DepthDuration_HTML.html#153,153,2048,999,2048,1152,9-18-2022,11-22-40,93,depth_duration_stimuli/000749_2014-06-08_21-55-06_260595134347_rgbf000070-resize_2/000749_2014-06-08_21-55-06_260595134347_rgbf000070-resize_2-target.png,125,2.331,5,1639,124,feet,jsons/VE125_randls_54_rotated.json,879318,977950,37,Man
93,388057,DepthScenes,duration_manipulation_targetAtFixation,jsons/VE125_randls_54_rotated.json,http://54.235.29.9/FacialAge/BNav_EC2/DepthDuration/v2_depth_duration_MTurk/v2_DepthDuration_HTML.html#153,153,2048,999,2048,1152,9-18-2022,11-22-40,94,depth_duration_stimuli/002788_2014-06-22_19-36-03_094959634447_rgbf000088-resize_2/002788_2014-06-22_19-36-03_094959634447_rgbf000088-resize_2-target.png,125,1.6465,6,2111,124,feet,jsons/VE125_randls_54_rotated.json,879318,977950,37,Man
94,388057,DepthScenes,duration_manipulation_targetAtFixation,jsons/VE125_randls_54_rotated.json,http://54.235.29.9/FacialAge/BNav_EC2/DepthDuration/v2_depth_duration_MTurk/v2_DepthDuration_HTML.html#153,153,2048,999,2048,1152,9-18-2022,11-22-40,95,depth_duration_stimuli/003228_2014-05-14_13-42-35_094959634447_rgbf000101-resize_1/003228_2014-05-14_13-42-35_094959634447_rgbf000101-resize_1-target.png,125,1.9680000000000002,4,1458,130,feet,jsons/VE125_randls_54_rotated.json,879318,977950,37,Man
95,388057,DepthScenes,duration_manipulation_targetAtFixation,jsons/VE125_randls_54_rotated.json,http://54.235.29.9/FacialAge/BNav_EC2/DepthDuration/v2_depth_duration_MTurk/v2_DepthDuration_HTML.html#153,153,2048,999,2048,1152,9-18-2022,11-22-40,96,depth_duration_stimuli/002600_2014-06-24_14-27-04_094959634447_rgbf000074-resize_2/002600_2014-06-24_14-27-04_094959634447_rgbf000074-resize_2-target.png,125,2.7575,5,1965,124,feet,jsons/VE125_randls_54_rotated.json,879318,977950,37,Man
96,388057,DepthScenes,duration_manipulation_targetAtFixation,jsons/VE125_randls_54_rotated.json,http://54.235.29.9/FacialAge/BNav_EC2/DepthDuration/v2_depth_duration_MTurk/v2_DepthDuration_HTML.html#153,153,2048,999,2048,1152,9-18-2022,11-22-40,97,depth_duration_stimuli/000556_2014-06-09_22-42-56_260595134347_rgbf000214-resize_1/000556_2014-06-09_22-42-56_260595134347_rgbf000214-resize_1-target.png,125,4.8415,7,325306,127,feet,jsons/VE125_randls_54_rotated.json,879318,977950,37,Man
97,388057,DepthScenes,duration_manipulation_targetAtFixation,jsons/VE125_randls_54_rotated.json,http://54.235.29.9/FacialAge/BNav_EC2/DepthDuration/v2_depth_duration_MTurk/v2_DepthDuration_HTML.html#153,153,2048,999,2048,1152,9-18-2022,11-22-40,98,depth_duration_stimuli/001158_2014-06-17_15-32-16_260595134347_rgbf000138-resize_2/001158_2014-06-17_15-32-16_260595134347_rgbf000138-resize_2-target.png,125,4.5315,15,3012,125,feet,jsons/VE125_randls_54_rotated.json,879318,977950,37,Man
98,388057,DepthScenes,duration_manipulation_targetAtFixation,jsons/VE125_randls_54_rotated.json,http://54.235.29.9/FacialAge/BNav_EC2/DepthDuration/v2_depth_duration_MTurk/v2_DepthDuration_HTML.html#153,153,2048,999,2048,1152,9-18-2022,11-22-40,99,depth_duration_stimuli/001222_2014-06-17_16-24-06_260595134347_rgbf000073-resize_0/001222_2014-06-17_16-24-06_260595134347_rgbf000073-resize-original.jpg,125,1.4385,0,2454,124,feet,jsons/VE125_randls_54_rotated.json,879318,977950,37,Man
99,388057,DepthScenes,duration_manipulation_targetAtFixation,jsons/VE125_randls_54_rotated.json,http://54.235.29.9/FacialAge/BNav_EC2/DepthDuration/v2_depth_duration_MTurk/v2_DepthDuration_HTML.html#153,153,2048,999,2048,1152,9-18-2022,11-22-40,100,depth_duration_stimuli/001447_2014-06-19_17-00-32_260595134347_rgbf000082-resize_5/001447_2014-06-19_17-00-32_260595134347_rgbf000082-resize_5-target.png,125,4.13775,5,2574,125,feet,jsons/VE125_randls_54_rotated.json,879318,977950,37,Man
100,388057,DepthScenes,duration_manipulation_targetAtFixation,jsons/VE125_randls_54_rotated.json,http://54.235.29.9/FacialAge/BNav_EC2/DepthDuration/v2_depth_duration_MTurk/v2_DepthDuration_HTML.html#153,153,2048,999,2048,1152,9-18-2022,11-22-40,101,depth_duration_stimuli/000447_2014-06-08_16-15-46_260595134347_rgbf000130-resize_1/000447_2014-06-08_16-15-46_260595134347_rgbf000130-resize_1-target.png,125,4.479,15,3799,125,feet,jsons/VE125_randls_54_rotated.json,879318,977950,37,Man
101,388057,DepthScenes,duration_manipulation_targetAtFixation,jsons/VE125_randls_54_rotated.json,http://54.235.29.9/FacialAge/BNav_EC2/DepthDuration/v2_depth_duration_MTurk/v2_DepthDuration_HTML.html#153,153,2048,999,2048,1152,9-18-2022,11-22-40,102,depth_duration_stimuli/003490_2014-05-21_15-50-11_094959634447_rgbf000101-resize_3/003490_2014-05-21_15-50-11_094959634447_rgbf000101-resize_3-target.png,125,3.6445,12,2642,124,feet,jsons/VE125_randls_54_rotated.json,879318,977950,37,Man
102,388057,DepthScenes,duration_manipulation_targetAtFixation,jsons/VE125_randls_54_rotated.json,http://54.235.29.9/FacialAge/BNav_EC2/DepthDuration/v2_depth_duration_MTurk/v2_DepthDuration_HTML.html#153,153,2048,999,2048,1152,9-18-2022,11-22-40,103,depth_duration_stimuli/001175_2014-06-17_15-45-55_260595134347_rgbf000129-resize_4/001175_2014-06-17_15-45-55_260595134347_rgbf000129-resize_4-target.png,125,4.255,16,6648,124,feet,jsons/VE125_randls_54_rotated.json,879318,977950,37,Man
103,388057,DepthScenes,duration_manipulation_targetAtFixation,jsons/VE125_randls_54_rotated.json,http://54.235.29.9/FacialAge/BNav_EC2/DepthDuration/v2_depth_duration_MTurk/v2_DepthDuration_HTML.html#153,153,2048,999,2048,1152,9-18-2022,11-22-40,104,depth_duration_stimuli/002637_2014-06-24_14-51-13_094959634447_rgbf000066-resize_4/002637_2014-06-24_14-51-13_094959634447_rgbf000066-resize_4-target.png,125,1.9955,7,2635,125,feet,jsons/VE125_randls_54_rotated.json,879318,977950,37,Man
104,388057,DepthScenes,duration_manipulation_targetAtFixation,jsons/VE125_randls_54_rotated.json,http://54.235.29.9/FacialAge/BNav_EC2/DepthDuration/v2_depth_duration_MTurk/v2_DepthDuration_HTML.html#153,153,2048,999,2048,1152,9-18-2022,11-22-40,105,depth_duration_stimuli/003534_2014-05-22_15-06-10_094959634447_rgbf000102-resize_4/003534_2014-05-22_15-06-10_094959634447_rgbf000102-resize_4-target.png,125,1.426,3,2707,126,feet,jsons/VE125_randls_54_rotated.json,879318,977950,37,Man
105,388057,DepthScenes,duration_manipulation_targetAtFixation,jsons/VE125_randls_54_rotated.json,http://54.235.29.9/FacialAge/BNav_EC2/DepthDuration/v2_depth_duration_MTurk/v2_DepthDuration_HTML.html#153,153,2048,999,2048,1152,9-18-2022,11-22-40,106,depth_duration_stimuli/002545_2014-06-24_13-38-53_094959634447_rgbf000080-resize_4/002545_2014-06-24_13-38-53_094959634447_rgbf000080-resize_4-target.png,125,1.9205,10,5088,124,feet,jsons/VE125_randls_54_rotated.json,879318,977950,37,Man
106,388057,DepthScenes,duration_manipulation_targetAtFixation,jsons/VE125_randls_54_rotated.json,http://54.235.29.9/FacialAge/BNav_EC2/DepthDuration/v2_depth_duration_MTurk/v2_DepthDuration_HTML.html#153,153,2048,999,2048,1152,9-18-2022,11-22-40,107,depth_duration_stimuli/001092_2014-06-15_17-34-58_260595134347_rgbf000171-resize_3/001092_2014-06-15_17-34-58_260595134347_rgbf000171-resize_3-target.png,125,2.6935,5,2683,125,feet,jsons/VE125_randls_54_rotated.json,879318,977950,37,Man
107,388057,DepthScenes,duration_manipulation_targetAtFixation,jsons/VE125_randls_54_rotated.json,http://54.235.29.9/FacialAge/BNav_EC2/DepthDuration/v2_depth_duration_MTurk/v2_DepthDuration_HTML.html#153,153,2048,999,2048,1152,9-18-2022,11-22-40,108,depth_duration_stimuli/003129_2014-05-12_10-48-10_094959634447_rgbf000100-resize_0/003129_2014-05-12_10-48-10_094959634447_rgbf000100-resize_0-target.png,125,4.9305,12,4862,125,feet,jsons/VE125_randls_54_rotated.json,879318,977950,37,Man
108,388057,DepthScenes,duration_manipulation_targetAtFixation,jsons/VE125_randls_54_rotated.json,http://54.235.29.9/FacialAge/BNav_EC2/DepthDuration/v2_depth_duration_MTurk/v2_DepthDuration_HTML.html#153,153,2048,999,2048,1152,9-18-2022,11-22-40,109,depth_duration_stimuli/000414_2014-06-04_19-49-13_260595134347_rgbf000044-resize_0/000414_2014-06-04_19-49-13_260595134347_rgbf000044-resize_0-target.png,125,4.329,15,3083,125,feet,jsons/VE125_randls_54_rotated.json,879318,977950,37,Man
109,388057,DepthScenes,duration_manipulation_targetAtFixation,jsons/VE125_randls_54_rotated.json,http://54.235.29.9/FacialAge/BNav_EC2/DepthDuration/v2_depth_duration_MTurk/v2_DepthDuration_HTML.html#153,153,2048,999,2048,1152,9-18-2022,11-22-40,110,depth_duration_stimuli/000635_2014-06-08_16-38-42_260595134347_rgbf000106-resize_1/000635_2014-06-08_16-38-42_260595134347_rgbf000106-resize_1-target.png,125,2.074,6,3446,125,feet,jsons/VE125_randls_54_rotated.json,879318,977950,37,Man
110,388057,DepthScenes,duration_manipulation_targetAtFixation,jsons/VE125_randls_54_rotated.json,http://54.235.29.9/FacialAge/BNav_EC2/DepthDuration/v2_depth_duration_MTurk/v2_DepthDuration_HTML.html#153,153,2048,999,2048,1152,9-18-2022,11-22-40,111,depth_duration_stimuli/002279_2014-06-28_18-55-32_260595134347_rgbf000040-resize_5/002279_2014-06-28_18-55-32_260595134347_rgbf000040-resize_5-target.png,125,1.5043333333333,3,2727,124,feet,jsons/VE125_randls_54_rotated.json,879318,977950,37,Man
111,388057,DepthScenes,duration_manipulation_targetAtFixation,jsons/VE125_randls_54_rotated.json,http://54.235.29.9/FacialAge/BNav_EC2/DepthDuration/v2_depth_duration_MTurk/v2_DepthDuration_HTML.html#153,153,2048,999,2048,1152,9-18-2022,11-22-40,112,depth_duration_stimuli/000483_2014-06-09_20-41-45_260595134347_rgbf000116-resize_4/000483_2014-06-09_20-41-45_260595134347_rgbf000116-resize_4-target.png,125,1.337,2,2577,125,feet,jsons/VE125_randls_54_rotated.json,879318,977950,37,Man
112,388057,DepthScenes,duration_manipulation_targetAtFixation,jsons/VE125_randls_54_rotated.json,http://54.235.29.9/FacialAge/BNav_EC2/DepthDuration/v2_depth_duration_MTurk/v2_DepthDuration_HTML.html#153,153,2048,999,2048,1152,9-18-2022,11-22-40,113,depth_duration_stimuli/000469_2014-06-09_19-42-10_260595134347_rgbf000081-resize_1/000469_2014-06-09_19-42-10_260595134347_rgbf000081-resize_1-target.png,125,1.652,3,2224,125,feet,jsons/VE125_randls_54_rotated.json,879318,977950,37,Man
113,388057,DepthScenes,duration_manipulation_targetAtFixation,jsons/VE125_randls_54_rotated.json,http://54.235.29.9/FacialAge/BNav_EC2/DepthDuration/v2_depth_duration_MTurk/v2_DepthDuration_HTML.html#153,153,2048,999,2048,1152,9-18-2022,11-22-40,114,depth_duration_stimuli/003423_2014-05-21_10-23-26_094959634447_rgbf002665-resize_2/003423_2014-05-21_10-23-26_094959634447_rgbf002665-resize_2-target.png,125,3.2575,6,2708,126,feet,jsons/VE125_randls_54_rotated.json,879318,977950,37,Man
114,388057,DepthScenes,duration_manipulation_targetAtFixation,jsons/VE125_randls_54_rotated.json,http://54.235.29.9/FacialAge/BNav_EC2/DepthDuration/v2_depth_duration_MTurk/v2_DepthDuration_HTML.html#153,153,2048,999,2048,1152,9-18-2022,11-22-40,115,depth_duration_stimuli/002905_2014-06-03_18-04-43_094959634447_rgbf000151-resize_2/002905_2014-06-03_18-04-43_094959634447_rgbf000151-resize_2-target.png,125,2.0295,4,1803,124,feet,jsons/VE125_randls_54_rotated.json,879318,977950,37,Man
115,388057,DepthScenes,duration_manipulation_targetAtFixation,jsons/VE125_randls_54_rotated.json,http://54.235.29.9/FacialAge/BNav_EC2/DepthDuration/v2_depth_duration_MTurk/v2_DepthDuration_HTML.html#153,153,2048,999,2048,1152,9-18-2022,11-22-40,116,depth_duration_stimuli/003495_2014-05-21_16-01-51_094959634447_rgbf000100-resize_3/003495_2014-05-21_16-01-51_094959634447_rgbf000100-resize_3-target.png,125,1.6255,3,1523,126,feet,jsons/VE125_randls_54_rotated.json,879318,977950,37,Man
116,388057,DepthScenes,duration_manipulation_targetAtFixation,jsons/VE125_randls_54_rotated.json,http://54.235.29.9/FacialAge/BNav_EC2/DepthDuration/v2_depth_duration_MTurk/v2_DepthDuration_HTML.html#153,153,2048,999,2048,1152,9-18-2022,11-22-40,117,depth_duration_stimuli/001244_2014-06-17_16-47-45_260595134347_rgbf000030-resize_4/001244_2014-06-17_16-47-45_260595134347_rgbf000030-resize_4-target.png,125,2.0425,6,1837,124,feet,jsons/VE125_randls_54_rotated.json,879318,977950,37,Man
117,388057,DepthScenes,duration_manipulation_targetAtFixation,jsons/VE125_randls_54_rotated.json,http://54.235.29.9/FacialAge/BNav_EC2/DepthDuration/v2_depth_duration_MTurk/v2_DepthDuration_HTML.html#153,153,2048,999,2048,1152,9-18-2022,11-22-40,118,depth_duration_stimuli/002199_2014-06-28_18-33-56_260595134347_rgbf000074-resize_0/002199_2014-06-28_18-33-56_260595134347_rgbf000074-resize_0-target.png,125,1.996,2,1742,126,feet,jsons/VE125_randls_54_rotated.json,879318,977950,37,Man
118,388057,DepthScenes,duration_manipulation_targetAtFixation,jsons/VE125_randls_54_rotated.json,http://54.235.29.9/FacialAge/BNav_EC2/DepthDuration/v2_depth_duration_MTurk/v2_DepthDuration_HTML.html#153,153,2048,999,2048,1152,9-18-2022,11-22-40,119,depth_duration_stimuli/001056_2014-06-08_18-46-44_260595134347_rgbf000068-resize_0/001056_2014-06-08_18-46-44_260595134347_rgbf000068-resize_0-target.png,125,2.6625,4,1609,125,feet,jsons/VE125_randls_54_rotated.json,879318,977950,37,Man
119,388057,DepthScenes,duration_manipulation_targetAtFixation,jsons/VE125_randls_54_rotated.json,http://54.235.29.9/FacialAge/BNav_EC2/DepthDuration/v2_depth_duration_MTurk/v2_DepthDuration_HTML.html#153,153,2048,999,2048,1152,9-18-2022,11-22-40,120,depth_duration_stimuli/000787_2014-06-08_22-33-53_260595134347_rgbf000175-resize_1/000787_2014-06-08_22-33-53_260595134347_rgbf000175-resize-original.jpg,125,4.784,0,2330,126,feet,jsons/VE125_randls_54_rotated.json,879318,977950,37,Man
120,388057,DepthScenes,duration_manipulation_targetAtFixation,jsons/VE125_randls_54_rotated.json,http://54.235.29.9/FacialAge/BNav_EC2/DepthDuration/v2_depth_duration_MTurk/v2_DepthDuration_HTML.html#153,153,2048,999,2048,1152,9-18-2022,11-22-40,121,depth_duration_stimuli/002414_2014-06-28_20-24-58_260595134347_rgbf000067-resize_4/002414_2014-06-28_20-24-58_260595134347_rgbf000067-resize_4-target.png,125,4.363,7,2446,125,feet,jsons/VE125_randls_54_rotated.json,879318,977950,37,Man
121,388057,DepthScenes,duration_manipulation_targetAtFixation,jsons/VE125_randls_54_rotated.json,http://54.235.29.9/FacialAge/BNav_EC2/DepthDuration/v2_depth_duration_MTurk/v2_DepthDuration_HTML.html#153,153,2048,999,2048,1152,9-18-2022,11-22-40,122,depth_duration_stimuli/000773_2014-06-08_22-24-54_260595134347_rgbf000093-resize_1/000773_2014-06-08_22-24-54_260595134347_rgbf000093-resize_1-target.png,125,4.973,12,1961,123,feet,jsons/VE125_randls_54_rotated.json,879318,977950,37,Man
122,388057,DepthScenes,duration_manipulation_targetAtFixation,jsons/VE125_randls_54_rotated.json,http://54.235.29.9/FacialAge/BNav_EC2/DepthDuration/v2_depth_duration_MTurk/v2_DepthDuration_HTML.html#153,153,2048,999,2048,1152,9-18-2022,11-22-40,123,depth_duration_stimuli/001450_2014-06-19_17-02-03_260595134347_rgbf000203-resize_4/001450_2014-06-19_17-02-03_260595134347_rgbf000203-resize_4-target.png,125,4.0106666666667,11,2109,127,feet,jsons/VE125_randls_54_rotated.json,879318,977950,37,Man
123,388057,DepthScenes,duration_manipulation_targetAtFixation,jsons/VE125_randls_54_rotated.json,http://54.235.29.9/FacialAge/BNav_EC2/DepthDuration/v2_depth_duration_MTurk/v2_DepthDuration_HTML.html#153,153,2048,999,2048,1152,9-18-2022,11-22-40,124,depth_duration_stimuli/001449_2014-06-19_17-01-27_260595134347_rgbf000116-resize_2/001449_2014-06-19_17-01-27_260595134347_rgbf000116-resize_2-target.png,125,3.452,5,2403,126,feet,jsons/VE125_randls_54_rotated.json,879318,977950,37,Man
124,388057,DepthScenes,duration_manipulation_targetAtFixation,jsons/VE125_randls_54_rotated.json,http://54.235.29.9/FacialAge/BNav_EC2/DepthDuration/v2_depth_duration_MTurk/v2_DepthDuration_HTML.html#153,153,2048,999,2048,1152,9-18-2022,11-22-40,125,depth_duration_stimuli/001650_2014-06-20_12-09-00_260595134347_rgbf000087-resize_3/001650_2014-06-20_12-09-00_260595134347_rgbf000087-resize_3-target.png,125,1.9505,3,1762,124,feet,jsons/VE125_randls_54_rotated.json,879318,977950,37,Man
125,388057,DepthScenes,duration_manipulation_targetAtFixation,jsons/VE125_randls_54_rotated.json,http://54.235.29.9/FacialAge/BNav_EC2/DepthDuration/v2_depth_duration_MTurk/v2_DepthDuration_HTML.html#153,153,2048,999,2048,1152,9-18-2022,11-22-40,126,depth_duration_stimuli/000682_2014-06-08_23-14-58_260595134347_rgbf000041-resize_5/000682_2014-06-08_23-14-58_260595134347_rgbf000041-resize_5-target.png,125,2.7239999999999998,7,3961,126,feet,jsons/VE125_randls_54_rotated.json,879318,977950,37,Man
126,388057,DepthScenes,duration_manipulation_targetAtFixation,jsons/VE125_randls_54_rotated.json,http://54.235.29.9/FacialAge/BNav_EC2/DepthDuration/v2_depth_duration_MTurk/v2_DepthDuration_HTML.html#153,153,2048,999,2048,1152,9-18-2022,11-22-40,127,depth_duration_stimuli/002758_2014-06-22_19-11-20_094959634447_rgbf000128-resize_1/002758_2014-06-22_19-11-20_094959634447_rgbf000128-resize_1-target.png,125,2.555,4,3851,125,feet,jsons/VE125_randls_54_rotated.json,879318,977950,37,Man
127,388057,DepthScenes,duration_manipulation_targetAtFixation,jsons/VE125_randls_54_rotated.json,http://54.235.29.9/FacialAge/BNav_EC2/DepthDuration/v2_depth_duration_MTurk/v2_DepthDuration_HTML.html#153,153,2048,999,2048,1152,9-18-2022,11-22-40,128,depth_duration_stimuli/002630_2014-06-24_14-47-50_094959634447_rgbf000055-resize_1/002630_2014-06-24_14-47-50_094959634447_rgbf000055-resize_1-target.png,125,3.0095,13,3428,125,feet,jsons/VE125_randls_54_rotated.json,879318,977950,37,Man
128,388057,DepthScenes,duration_manipulation_targetAtFixation,jsons/VE125_randls_54_rotated.json,http://54.235.29.9/FacialAge/BNav_EC2/DepthDuration/v2_depth_duration_MTurk/v2_DepthDuration_HTML.html#153,153,2048,999,2048,1152,9-18-2022,11-22-40,129,depth_duration_stimuli/002995_2014-06-15_12-31-26_094959634447_rgbf000150-resize_1/002995_2014-06-15_12-31-26_094959634447_rgbf000150-resize_1-target.png,125,3.8360000000000003,10,2925,125,feet,jsons/VE125_randls_54_rotated.json,879318,977950,37,Man
129,388057,DepthScenes,duration_manipulation_targetAtFixation,jsons/VE125_randls_54_rotated.json,http://54.235.29.9/FacialAge/BNav_EC2/DepthDuration/v2_depth_duration_MTurk/v2_DepthDuration_HTML.html#153,153,2048,999,2048,1152,9-18-2022,11-22-40,130,depth_duration_stimuli/002748_2014-06-22_19-07-22_094959634447_rgbf000078-resize_1/002748_2014-06-22_19-07-22_094959634447_rgbf000078-resize_1-target.png,125,4.6705,15,2188,123,feet,jsons/VE125_randls_54_rotated.json,879318,977950,37,Man
130,388057,DepthScenes,duration_manipulation_targetAtFixation,jsons/VE125_randls_54_rotated.json,http://54.235.29.9/FacialAge/BNav_EC2/DepthDuration/v2_depth_duration_MTurk/v2_DepthDuration_HTML.html#153,153,2048,999,2048,1152,9-18-2022,11-22-40,131,depth_duration_stimuli/000854_2014-06-09_19-43-13_260595134347_rgbf000066-resize_0/000854_2014-06-09_19-43-13_260595134347_rgbf000066-resize_0-target.png,125,3.068,5,2414,124,feet,jsons/VE125_randls_54_rotated.json,879318,977950,37,Man
131,388057,DepthScenes,duration_manipulation_targetAtFixation,jsons/VE125_randls_54_rotated.json,http://54.235.29.9/FacialAge/BNav_EC2/DepthDuration/v2_depth_duration_MTurk/v2_DepthDuration_HTML.html#153,153,2048,999,2048,1152,9-18-2022,11-22-40,132,depth_duration_stimuli/000758_2014-06-08_22-05-08_260595134347_rgbf000085-resize_0/000758_2014-06-08_22-05-08_260595134347_rgbf000085-resize_0-target.png,125,3.3810000000000002,10,2137,123,feet,jsons/VE125_randls_54_rotated.json,879318,977950,37,Man
132,388057,DepthScenes,duration_manipulation_targetAtFixation,jsons/VE125_randls_54_rotated.json,http://54.235.29.9/FacialAge/BNav_EC2/DepthDuration/v2_depth_duration_MTurk/v2_DepthDuration_HTML.html#153,153,2048,999,2048,1152,9-18-2022,11-22-40,133,depth_duration_stimuli/002425_2014-06-28_20-27-29_260595134347_rgbf000031-resize_8/002425_2014-06-28_20-27-29_260595134347_rgbf000031-resize_8-target.png,125,3.8960000000000004,11,1722,123,feet,jsons/VE125_randls_54_rotated.json,879318,977950,37,Man
133,388057,DepthScenes,duration_manipulation_targetAtFixation,jsons/VE125_randls_54_rotated.json,http://54.235.29.9/FacialAge/BNav_EC2/DepthDuration/v2_depth_duration_MTurk/v2_DepthDuration_HTML.html#153,153,2048,999,2048,1152,9-18-2022,11-22-40,134,depth_duration_stimuli/000642_2014-06-08_16-59-25_260595134347_rgbf000098-resize_2/000642_2014-06-08_16-59-25_260595134347_rgbf000098-resize_2-target.png,125,2.8815,5,1911,125,feet,jsons/VE125_randls_54_rotated.json,879318,977950,37,Man
134,388057,DepthScenes,duration_manipulation_targetAtFixation,jsons/VE125_randls_54_rotated.json,http://54.235.29.9/FacialAge/BNav_EC2/DepthDuration/v2_depth_duration_MTurk/v2_DepthDuration_HTML.html#153,153,2048,999,2048,1152,9-18-2022,11-22-40,135,depth_duration_stimuli/000375_2014-06-08_11-17-29_260595134347_rgbf000133-resize_2/000375_2014-06-08_11-17-29_260595134347_rgbf000133-resize-original.jpg,125,4.718,0,1948,123,feet,jsons/VE125_randls_54_rotated.json,879318,977950,37,Man
135,388057,DepthScenes,duration_manipulation_targetAtFixation,jsons/VE125_randls_54_rotated.json,http://54.235.29.9/FacialAge/BNav_EC2/DepthDuration/v2_depth_duration_MTurk/v2_DepthDuration_HTML.html#153,153,2048,999,2048,1152,9-18-2022,11-22-40,136,depth_duration_stimuli/001617_2014-06-20_11-35-32_260595134347_rgbf000066-resize_1/001617_2014-06-20_11-35-32_260595134347_rgbf000066-resize_1-target.png,125,3.7910000000000004,12,2226,124,feet,jsons/VE125_randls_54_rotated.json,879318,977950,37,Man
136,388057,DepthScenes,duration_manipulation_targetAtFixation,jsons/VE125_randls_54_rotated.json,http://54.235.29.9/FacialAge/BNav_EC2/DepthDuration/v2_depth_duration_MTurk/v2_DepthDuration_HTML.html#153,153,2048,999,2048,1152,9-18-2022,11-22-40,137,depth_duration_stimuli/001806_2014-06-26_20-50-20_260595134347_rgbf000091-resize_1/001806_2014-06-26_20-50-20_260595134347_rgbf000091-resize_1-target.png,125,2.7305,4,2726,123,feet,jsons/VE125_randls_54_rotated.json,879318,977950,37,Man
137,388057,DepthScenes,duration_manipulation_targetAtFixation,jsons/VE125_randls_54_rotated.json,http://54.235.29.9/FacialAge/BNav_EC2/DepthDuration/v2_depth_duration_MTurk/v2_DepthDuration_HTML.html#153,153,2048,999,2048,1152,9-18-2022,11-22-40,138,depth_duration_stimuli/000549_2014-06-08_22-10-24_260595134347_rgbf000247-resize_3/000549_2014-06-08_22-10-24_260595134347_rgbf000247-resize_3-target.png,125,1.841,3,1632,123,feet,jsons/VE125_randls_54_rotated.json,879318,977950,37,Man
138,388057,DepthScenes,duration_manipulation_targetAtFixation,jsons/VE125_randls_54_rotated.json,http://54.235.29.9/FacialAge/BNav_EC2/DepthDuration/v2_depth_duration_MTurk/v2_DepthDuration_HTML.html#153,153,2048,999,2048,1152,9-18-2022,11-22-40,139,depth_duration_stimuli/001055_2014-06-08_18-45-35_260595134347_rgbf000111-resize_4/001055_2014-06-08_18-45-35_260595134347_rgbf000111-resize_4-target.png,125,2.4290000000000003,11,4557,125,feet,jsons/VE125_randls_54_rotated.json,879318,977950,37,Man
139,388057,DepthScenes,duration_manipulation_targetAtFixation,jsons/VE125_randls_54_rotated.json,http://54.235.29.9/FacialAge/BNav_EC2/DepthDuration/v2_depth_duration_MTurk/v2_DepthDuration_HTML.html#153,153,2048,999,2048,1152,9-18-2022,11-22-40,140,depth_duration_stimuli/000457_2014-06-08_16-52-43_260595134347_rgbf000199-resize_1/000457_2014-06-08_16-52-43_260595134347_rgbf000199-resize_1-target.png,125,3.6489999999999996,10,4158,126,feet,jsons/VE125_randls_54_rotated.json,879318,977950,37,Man
140,388057,DepthScenes,duration_manipulation_targetAtFixation,jsons/VE125_randls_54_rotated.json,http://54.235.29.9/FacialAge/BNav_EC2/DepthDuration/v2_depth_duration_MTurk/v2_DepthDuration_HTML.html#153,153,2048,999,2048,1152,9-18-2022,11-22-40,141,depth_duration_stimuli/000929_2014-06-09_16-33-19_260595134347_rgbf000139-resize_0/000929_2014-06-09_16-33-19_260595134347_rgbf000139-resize_0-target.png,125,2.8680000000000003,7,1557,126,feet,jsons/VE125_randls_54_rotated.json,879318,977950,37,Man
141,388057,DepthScenes,duration_manipulation_targetAtFixation,jsons/VE125_randls_54_rotated.json,http://54.235.29.9/FacialAge/BNav_EC2/DepthDuration/v2_depth_duration_MTurk/v2_DepthDuration_HTML.html#153,153,2048,999,2048,1152,9-18-2022,11-22-40,142,depth_duration_stimuli/003048_2014-06-15_13-49-43_094959634447_rgbf000150-resize_1/003048_2014-06-15_13-49-43_094959634447_rgbf000150-resize_1-target.png,125,4.0035,12,2868,126,feet,jsons/VE125_randls_54_rotated.json,879318,977950,37,Man
142,388057,DepthScenes,duration_manipulation_targetAtFixation,jsons/VE125_randls_54_rotated.json,http://54.235.29.9/FacialAge/BNav_EC2/DepthDuration/v2_depth_duration_MTurk/v2_DepthDuration_HTML.html#153,153,2048,999,2048,1152,9-18-2022,11-22-40,143,depth_duration_stimuli/002043_2014-06-24_20-29-38_260595134347_rgbf000039-resize_4/002043_2014-06-24_20-29-38_260595134347_rgbf000039-resize_4-target.png,125,2.8435,7,6655,123,feet,jsons/VE125_randls_54_rotated.json,879318,977950,37,Man
143,388057,DepthScenes,duration_manipulation_targetAtFixation,jsons/VE125_randls_54_rotated.json,http://54.235.29.9/FacialAge/BNav_EC2/DepthDuration/v2_depth_duration_MTurk/v2_DepthDuration_HTML.html#153,153,2048,999,2048,1152,9-18-2022,11-22-40,144,depth_duration_stimuli/002660_2014-06-13_15-44-18_094959634447_rgbf001878-resize_2/002660_2014-06-13_15-44-18_094959634447_rgbf001878-resize_2-target.png,125,3.576,8,1458,125,feet,jsons/VE125_randls_54_rotated.json,879318,977950,37,Man
144,388057,DepthScenes,duration_manipulation_targetAtFixation,jsons/VE125_randls_54_rotated.json,http://54.235.29.9/FacialAge/BNav_EC2/DepthDuration/v2_depth_duration_MTurk/v2_DepthDuration_HTML.html#153,153,2048,999,2048,1152,9-18-2022,11-22-40,145,depth_duration_stimuli/002153_2014-06-25_21-27-18_260595134347_rgbf000038-resize_5/002153_2014-06-25_21-27-18_260595134347_rgbf000038-resize_5-target.png,125,2.505,4,1454,125,feet,jsons/VE125_randls_54_rotated.json,879318,977950,37,Man
145,388057,DepthScenes,duration_manipulation_targetAtFixation,jsons/VE125_randls_54_rotated.json,http://54.235.29.9/FacialAge/BNav_EC2/DepthDuration/v2_depth_duration_MTurk/v2_DepthDuration_HTML.html#153,153,2048,999,2048,1152,9-18-2022,11-22-40,146,depth_duration_stimuli/003083_2014-06-15_15-21-03_094959634447_rgbf000063-resize_1/003083_2014-06-15_15-21-03_094959634447_rgbf000063-resize_1-target.png,125,4.1405,15,3253,124,feet,jsons/VE125_randls_54_rotated.json,879318,977950,37,Man
146,388057,DepthScenes,duration_manipulation_targetAtFixation,jsons/VE125_randls_54_rotated.json,http://54.235.29.9/FacialAge/BNav_EC2/DepthDuration/v2_depth_duration_MTurk/v2_DepthDuration_HTML.html#153,153,2048,999,2048,1152,9-18-2022,11-22-40,147,depth_duration_stimuli/000486_2014-06-09_20-47-20_260595134347_rgbf000143-resize_2/000486_2014-06-09_20-47-20_260595134347_rgbf000143-resize_2-target.png,125,4.8325,6,2884,125,feet,jsons/VE125_randls_54_rotated.json,879318,977950,37,Man
147,388057,DepthScenes,duration_manipulation_targetAtFixation,jsons/VE125_randls_54_rotated.json,http://54.235.29.9/FacialAge/BNav_EC2/DepthDuration/v2_depth_duration_MTurk/v2_DepthDuration_HTML.html#153,153,2048,999,2048,1152,9-18-2022,11-22-40,148,depth_duration_stimuli/002678_2014-06-13_16-15-32_094959634447_rgbf000151-resize_6/002678_2014-06-13_16-15-32_094959634447_rgbf000151-resize_6-target.png,125,2.1830000000000003,5,1955,124,feet,jsons/VE125_randls_54_rotated.json,879318,977950,37,Man
148,388057,DepthScenes,duration_manipulation_targetAtFixation,jsons/VE125_randls_54_rotated.json,http://54.235.29.9/FacialAge/BNav_EC2/DepthDuration/v2_depth_duration_MTurk/v2_DepthDuration_HTML.html#153,153,2048,999,2048,1152,9-18-2022,11-22-40,149,depth_duration_stimuli/000368_2014-06-09_15-53-01_260595134347_rgbf000155-resize_2/000368_2014-06-09_15-53-01_260595134347_rgbf000155-resize_2-target.png,125,2.4859999999999998,4,1619,125,feet,jsons/VE125_randls_54_rotated.json,879318,977950,37,Man
149,388057,DepthScenes,duration_manipulation_targetAtFixation,jsons/VE125_randls_54_rotated.json,http://54.235.29.9/FacialAge/BNav_EC2/DepthDuration/v2_depth_duration_MTurk/v2_DepthDuration_HTML.html#153,153,2048,999,2048,1152,9-18-2022,11-22-40,150,depth_duration_stimuli/003081_2014-06-15_15-19-16_094959634447_rgbf000150-resize_1/003081_2014-06-15_15-19-16_094959634447_rgbf000150-resize_1-target.png,125,3.9125,9,1832,125,feet,jsons/VE125_randls_54_rotated.json,879318,977950,37,Man
150,388057,DepthScenes,duration_manipulation_targetAtFixation,jsons/VE125_randls_54_rotated.json,http://54.235.29.9/FacialAge/BNav_EC2/DepthDuration/v2_depth_duration_MTurk/v2_DepthDuration_HTML.html#153,153,2048,999,2048,1152,9-18-2022,11-22-40,151,depth_duration_stimuli/001417_2014-06-19_16-25-36_260595134347_rgbf000115-resize_5/001417_2014-06-19_16-25-36_260595134347_rgbf000115-resize_5-target.png,125,4.6255,12,1781,125,feet,jsons/VE125_randls_54_rotated.json,879318,977950,37,Man
151,388057,DepthScenes,duration_manipulation_targetAtFixation,jsons/VE125_randls_54_rotated.json,http://54.235.29.9/FacialAge/BNav_EC2/DepthDuration/v2_depth_duration_MTurk/v2_DepthDuration_HTML.html#153,153,2048,999,2048,1152,9-18-2022,11-22-40,152,depth_duration_stimuli/000569_2014-06-09_22-51-47_260595134347_rgbf000141-resize_3/000569_2014-06-09_22-51-47_260595134347_rgbf000141-resize-original.jpg,125,4.512,0,1714,125,feet,jsons/VE125_randls_54_rotated.json,879318,977950,37,Man
152,388057,DepthScenes,duration_manipulation_targetAtFixation,jsons/VE125_randls_54_rotated.json,http://54.235.29.9/FacialAge/BNav_EC2/DepthDuration/v2_depth_duration_MTurk/v2_DepthDuration_HTML.html#153,153,2048,999,2048,1152,9-18-2022,11-22-40,153,depth_duration_stimuli/002467_2014-06-28_20-38-07_260595134347_rgbf000026-resize_2/002467_2014-06-28_20-38-07_260595134347_rgbf000026-resize_2-target.png,125,4.742,12,11744,125,feet,jsons/VE125_randls_54_rotated.json,879318,977950,37,Man
153,388057,DepthScenes,duration_manipulation_targetAtFixation,jsons/VE125_randls_54_rotated.json,http://54.235.29.9/FacialAge/BNav_EC2/DepthDuration/v2_depth_duration_MTurk/v2_DepthDuration_HTML.html#153,153,2048,999,2048,1152,9-18-2022,11-22-40,154,depth_duration_stimuli/002570_2014-06-24_13-59-54_094959634447_rgbf000059-resize_0/002570_2014-06-24_13-59-54_094959634447_rgbf000059-resize_0-target.png,125,4.037,6,1880,126,feet,jsons/VE125_randls_54_rotated.json,879318,977950,37,Man
154,388057,DepthScenes,duration_manipulation_targetAtFixation,jsons/VE125_randls_54_rotated.json,http://54.235.29.9/FacialAge/BNav_EC2/DepthDuration/v2_depth_duration_MTurk/v2_DepthDuration_HTML.html#153,153,2048,999,2048,1152,9-18-2022,11-22-40,155,depth_duration_stimuli/002805_2014-06-22_19-54-03_094959634447_rgbf000079-resize_1/002805_2014-06-22_19-54-03_094959634447_rgbf000079-resize_1-target.png,125,3.1439999999999997,10,1624,124,feet,jsons/VE125_randls_54_rotated.json,879318,977950,37,Man
155,388057,DepthScenes,duration_manipulation_targetAtFixation,jsons/VE125_randls_54_rotated.json,http://54.235.29.9/FacialAge/BNav_EC2/DepthDuration/v2_depth_duration_MTurk/v2_DepthDuration_HTML.html#153,153,2048,999,2048,1152,9-18-2022,11-22-40,156,depth_duration_stimuli/000906_2014-06-08_13-35-43_260595134347_rgbf000155-resize_1/000906_2014-06-08_13-35-43_260595134347_rgbf000155-resize_1-target.png,125,2.8489999999999998,14,3815,125,feet,jsons/VE125_randls_54_rotated.json,879318,977950,37,Man
156,388057,DepthScenes,duration_manipulation_targetAtFixation,jsons/VE125_randls_54_rotated.json,http://54.235.29.9/FacialAge/BNav_EC2/DepthDuration/v2_depth_duration_MTurk/v2_DepthDuration_HTML.html#153,153,2048,999,2048,1152,9-18-2022,11-22-40,157,depth_duration_stimuli/002639_2014-06-24_14-51-37_094959634447_rgbf000074-resize_4/002639_2014-06-24_14-51-37_094959634447_rgbf000074-resize_4-target.png,125,4.0375,10,2188,123,feet,jsons/VE125_randls_54_rotated.json,879318,977950,37,Man
157,388057,DepthScenes,duration_manipulation_targetAtFixation,jsons/VE125_randls_54_rotated.json,http://54.235.29.9/FacialAge/BNav_EC2/DepthDuration/v2_depth_duration_MTurk/v2_DepthDuration_HTML.html#153,153,2048,999,2048,1152,9-18-2022,11-22-40,158,depth_duration_stimuli/003292_2014-05-14_21-53-49_094959634447_rgbf000100-resize_2/003292_2014-05-14_21-53-49_094959634447_rgbf000100-resize_2-target.png,125,3.4815,8,1427,125,feet,jsons/VE125_randls_54_rotated.json,879318,977950,37,Man
158,388057,DepthScenes,duration_manipulation_targetAtFixation,jsons/VE125_randls_54_rotated.json,http://54.235.29.9/FacialAge/BNav_EC2/DepthDuration/v2_depth_duration_MTurk/v2_DepthDuration_HTML.html#153,153,2048,999,2048,1152,9-18-2022,11-22-40,159,depth_duration_stimuli/000709_2014-06-08_13-51-55_260595134347_rgbf000068-resize_3/000709_2014-06-08_13-51-55_260595134347_rgbf000068-resize_3-target.png,125,1.8030000000000002,6,1836,125,feet,jsons/VE125_randls_54_rotated.json,879318,977950,37,Man
159,388057,DepthScenes,duration_manipulation_targetAtFixation,jsons/VE125_randls_54_rotated.json,http://54.235.29.9/FacialAge/BNav_EC2/DepthDuration/v2_depth_duration_MTurk/v2_DepthDuration_HTML.html#153,153,2048,999,2048,1152,9-18-2022,11-22-40,160,depth_duration_stimuli/002057_2014-06-24_21-00-13_260595134347_rgbf000120-resize_1/002057_2014-06-24_21-00-13_260595134347_rgbf000120-resize_1-target.png,125,2.967,15,1786,124,feet,jsons/VE125_randls_54_rotated.json,879318,977950,37,Man
160,388057,DepthScenes,duration_manipulation_targetAtFixation,jsons/VE125_randls_54_rotated.json,http://54.235.29.9/FacialAge/BNav_EC2/DepthDuration/v2_depth_duration_MTurk/v2_DepthDuration_HTML.html#153,153,2048,999,2048,1152,9-18-2022,11-22-40,161,depth_duration_stimuli/001100_2014-06-15_17-46-26_260595134347_rgbf000225-resize_2/001100_2014-06-15_17-46-26_260595134347_rgbf000225-resize_2-target.png,125,2.24,3,1895,125,feet,jsons/VE125_randls_54_rotated.json,879318,977950,37,Man
161,388057,DepthScenes,duration_manipulation_targetAtFixation,jsons/VE125_randls_54_rotated.json,http://54.235.29.9/FacialAge/BNav_EC2/DepthDuration/v2_depth_duration_MTurk/v2_DepthDuration_HTML.html#153,153,2048,999,2048,1152,9-18-2022,11-22-40,162,depth_duration_stimuli/002784_2014-06-22_19-26-30_094959634447_rgbf000083-resize_3/002784_2014-06-22_19-26-30_094959634447_rgbf000083-resize_3-target.png,125,1.8046666666667,4,1488,126,feet,jsons/VE125_randls_54_rotated.json,879318,977950,37,Man
162,388057,DepthScenes,duration_manipulation_targetAtFixation,jsons/VE125_randls_54_rotated.json,http://54.235.29.9/FacialAge/BNav_EC2/DepthDuration/v2_depth_duration_MTurk/v2_DepthDuration_HTML.html#153,153,2048,999,2048,1152,9-18-2022,11-22-40,163,depth_duration_stimuli/000742_2014-06-08_18-48-09_260595134347_rgbf000164-resize_4/000742_2014-06-08_18-48-09_260595134347_rgbf000164-resize_4-target.png,125,4.632,9,1732,125,feet,jsons/VE125_randls_54_rotated.json,879318,977950,37,Man
163,388057,DepthScenes,duration_manipulation_targetAtFixation,jsons/VE125_randls_54_rotated.json,http://54.235.29.9/FacialAge/BNav_EC2/DepthDuration/v2_depth_duration_MTurk/v2_DepthDuration_HTML.html#153,153,2048,999,2048,1152,9-18-2022,11-22-40,164,depth_duration_stimuli/001066_2014-06-08_22-03-20_260595134347_rgbf000066-resize_4/001066_2014-06-08_22-03-20_260595134347_rgbf000066-resize_4-target.png,125,4.2330000000000005,12,1635,125,feet,jsons/VE125_randls_54_rotated.json,879318,977950,37,Man
