,subjID,experimentName,versionName,sequenceName,url,selected_row,windowWidth,windowHeight,screenWidth,screenHeight,startDate,startTime,trial,stimulus,duration,actual_depth,depth_estimate,trial_RT,log_sceneDuration,unitSelection,seq_filepath,experimentTime,totalTime,age,gender
0,388835,DepthScenes,duration_manipulation_targetAtFixation,jsons/VE125_randls_36_rotated.json,http://54.235.29.9/FacialAge/BNav_EC2/DepthDuration/v2_depth_duration_MTurk/v2_DepthDuration_HTML.html#63,63,1639,850,1639,922,8-21-2022,9-36-45,1,depth_duration_stimuli/002750_2014-06-22_19-08-03_094959634447_rgbf000094-resize_4/002750_2014-06-22_19-08-03_094959634447_rgbf000094-resize_4-target.png,125,2.354,8,3610,116,feet,jsons/VE125_randls_36_rotated.json,762111,1020640,73,Man
1,388835,DepthScenes,duration_manipulation_targetAtFixation,jsons/VE125_randls_36_rotated.json,http://54.235.29.9/FacialAge/BNav_EC2/DepthDuration/v2_depth_duration_MTurk/v2_DepthDuration_HTML.html#63,63,1639,850,1639,922,8-21-2022,9-36-45,2,depth_duration_stimuli/002549_2014-06-24_13-41-39_094959634447_rgbf000022-resize_3/002549_2014-06-24_13-41-39_094959634447_rgbf000022-resize_3-target.png,125,1.476,6,15170,135,feet,jsons/VE125_randls_36_rotated.json,762111,1020640,73,Man
2,388835,DepthScenes,duration_manipulation_targetAtFixation,jsons/VE125_randls_36_rotated.json,http://54.235.29.9/FacialAge/BNav_EC2/DepthDuration/v2_depth_duration_MTurk/v2_DepthDuration_HTML.html#63,63,1639,850,1639,922,8-21-2022,9-36-45,3,depth_duration_stimuli/003490_2014-05-21_15-50-11_094959634447_rgbf000101-resize_3/003490_2014-05-21_15-50-11_094959634447_rgbf000101-resize_3-target.png,125,3.6445,7,3736,125,feet,jsons/VE125_randls_36_rotated.json,762111,1020640,73,Man
3,388835,DepthScenes,duration_manipulation_targetAtFixation,jsons/VE125_randls_36_rotated.json,http://54.235.29.9/FacialAge/BNav_EC2/DepthDuration/v2_depth_duration_MTurk/v2_DepthDuration_HTML.html#63,63,1639,850,1639,922,8-21-2022,9-36-45,4,depth_duration_stimuli/001175_2014-06-17_15-45-55_260595134347_rgbf000129-resize_4/001175_2014-06-17_15-45-55_260595134347_rgbf000129-resize_4-target.png,125,4.255,8,6193,134,feet,jsons/VE125_randls_36_rotated.json,762111,1020640,73,Man
4,388835,DepthScenes,duration_manipulation_targetAtFixation,jsons/VE125_randls_36_rotated.json,http://54.235.29.9/FacialAge/BNav_EC2/DepthDuration/v2_depth_duration_MTurk/v2_DepthDuration_HTML.html#63,63,1639,850,1639,922,8-21-2022,9-36-45,5,depth_duration_stimuli/003495_2014-05-21_16-01-51_094959634447_rgbf000100-resize_3/003495_2014-05-21_16-01-51_094959634447_rgbf000100-resize_3-target.png,125,1.6255,5,15955,132,feet,jsons/VE125_randls_36_rotated.json,762111,1020640,73,Man
5,388835,DepthScenes,duration_manipulation_targetAtFixation,jsons/VE125_randls_36_rotated.json,http://54.235.29.9/FacialAge/BNav_EC2/DepthDuration/v2_depth_duration_MTurk/v2_DepthDuration_HTML.html#63,63,1639,850,1639,922,8-21-2022,9-36-45,6,depth_duration_stimuli/001244_2014-06-17_16-47-45_260595134347_rgbf000030-resize_4/001244_2014-06-17_16-47-45_260595134347_rgbf000030-resize_4-target.png,125,2.0425,8,4007,124,feet,jsons/VE125_randls_36_rotated.json,762111,1020640,73,Man
6,388835,DepthScenes,duration_manipulation_targetAtFixation,jsons/VE125_randls_36_rotated.json,http://54.235.29.9/FacialAge/BNav_EC2/DepthDuration/v2_depth_duration_MTurk/v2_DepthDuration_HTML.html#63,63,1639,850,1639,922,8-21-2022,9-36-45,7,depth_duration_stimuli/001571_2014-06-20_17-21-32_260595134347_rgbf000089-resize_1/001571_2014-06-20_17-21-32_260595134347_rgbf000089-resize_1-target.png,125,1.86,5,3663,123,feet,jsons/VE125_randls_36_rotated.json,762111,1020640,73,Man
7,388835,DepthScenes,duration_manipulation_targetAtFixation,jsons/VE125_randls_36_rotated.json,http://54.235.29.9/FacialAge/BNav_EC2/DepthDuration/v2_depth_duration_MTurk/v2_DepthDuration_HTML.html#63,63,1639,850,1639,922,8-21-2022,9-36-45,8,depth_duration_stimuli/002272_2014-06-28_18-53-56_260595134347_rgbf000067-resize_2/002272_2014-06-28_18-53-56_260595134347_rgbf000067-resize_2-target.png,125,1.138,4,3341,135,feet,jsons/VE125_randls_36_rotated.json,762111,1020640,73,Man
8,388835,DepthScenes,duration_manipulation_targetAtFixation,jsons/VE125_randls_36_rotated.json,http://54.235.29.9/FacialAge/BNav_EC2/DepthDuration/v2_depth_duration_MTurk/v2_DepthDuration_HTML.html#63,63,1639,850,1639,922,8-21-2022,9-36-45,9,depth_duration_stimuli/002103_2014-06-25_20-00-40_260595134347_rgbf000049-resize_0/002103_2014-06-25_20-00-40_260595134347_rgbf000049-resize_0-target.png,125,4.105,7,3791,120,feet,jsons/VE125_randls_36_rotated.json,762111,1020640,73,Man
9,388835,DepthScenes,duration_manipulation_targetAtFixation,jsons/VE125_randls_36_rotated.json,http://54.235.29.9/FacialAge/BNav_EC2/DepthDuration/v2_depth_duration_MTurk/v2_DepthDuration_HTML.html#63,63,1639,850,1639,922,8-21-2022,9-36-45,10,depth_duration_stimuli/002039_2014-06-24_20-22-38_260595134347_rgbf000084-resize_1/002039_2014-06-24_20-22-38_260595134347_rgbf000084-resize_1-target.png,125,4.408,10,3780,132,feet,jsons/VE125_randls_36_rotated.json,762111,1020640,73,Man
10,388835,DepthScenes,duration_manipulation_targetAtFixation,jsons/VE125_randls_36_rotated.json,http://54.235.29.9/FacialAge/BNav_EC2/DepthDuration/v2_depth_duration_MTurk/v2_DepthDuration_HTML.html#63,63,1639,850,1639,922,8-21-2022,9-36-45,11,depth_duration_stimuli/002657_2014-06-13_15-29-54_094959634447_rgbf000150-resize_1/002657_2014-06-13_15-29-54_094959634447_rgbf000150-resize_1-target.png,125,4.919,8,3999,111,feet,jsons/VE125_randls_36_rotated.json,762111,1020640,73,Man
11,388835,DepthScenes,duration_manipulation_targetAtFixation,jsons/VE125_randls_36_rotated.json,http://54.235.29.9/FacialAge/BNav_EC2/DepthDuration/v2_depth_duration_MTurk/v2_DepthDuration_HTML.html#63,63,1639,850,1639,922,8-21-2022,9-36-45,12,depth_duration_stimuli/002375_2014-06-28_20-13-44_260595134347_rgbf000032-resize_1/002375_2014-06-28_20-13-44_260595134347_rgbf000032-resize_1-target.png,125,4.0175,6,3385,123,feet,jsons/VE125_randls_36_rotated.json,762111,1020640,73,Man
12,388835,DepthScenes,duration_manipulation_targetAtFixation,jsons/VE125_randls_36_rotated.json,http://54.235.29.9/FacialAge/BNav_EC2/DepthDuration/v2_depth_duration_MTurk/v2_DepthDuration_HTML.html#63,63,1639,850,1639,922,8-21-2022,9-36-45,13,depth_duration_stimuli/002758_2014-06-22_19-11-20_094959634447_rgbf000128-resize_1/002758_2014-06-22_19-11-20_094959634447_rgbf000128-resize_1-target.png,125,2.555,9,3853,136,feet,jsons/VE125_randls_36_rotated.json,762111,1020640,73,Man
13,388835,DepthScenes,duration_manipulation_targetAtFixation,jsons/VE125_randls_36_rotated.json,http://54.235.29.9/FacialAge/BNav_EC2/DepthDuration/v2_depth_duration_MTurk/v2_DepthDuration_HTML.html#63,63,1639,850,1639,922,8-21-2022,9-36-45,14,depth_duration_stimuli/002630_2014-06-24_14-47-50_094959634447_rgbf000055-resize_1/002630_2014-06-24_14-47-50_094959634447_rgbf000055-resize_1-target.png,125,3.0095,10,3983,125,feet,jsons/VE125_randls_36_rotated.json,762111,1020640,73,Man
14,388835,DepthScenes,duration_manipulation_targetAtFixation,jsons/VE125_randls_36_rotated.json,http://54.235.29.9/FacialAge/BNav_EC2/DepthDuration/v2_depth_duration_MTurk/v2_DepthDuration_HTML.html#63,63,1639,850,1639,922,8-21-2022,9-36-45,15,depth_duration_stimuli/002340_2014-06-28_20-05-46_260595134347_rgbf000113-resize_0/002340_2014-06-28_20-05-46_260595134347_rgbf000113-resize_0-target.png,125,2.4735,8,3189,129,feet,jsons/VE125_randls_36_rotated.json,762111,1020640,73,Man
15,388835,DepthScenes,duration_manipulation_targetAtFixation,jsons/VE125_randls_36_rotated.json,http://54.235.29.9/FacialAge/BNav_EC2/DepthDuration/v2_depth_duration_MTurk/v2_DepthDuration_HTML.html#63,63,1639,850,1639,922,8-21-2022,9-36-45,16,depth_duration_stimuli/001016_2014-06-09_16-16-10_260595134347_rgbf000112-resize_5/001016_2014-06-09_16-16-10_260595134347_rgbf000112-resize_5-target.png,125,1.6565,10,3858,128,feet,jsons/VE125_randls_36_rotated.json,762111,1020640,73,Man
16,388835,DepthScenes,duration_manipulation_targetAtFixation,jsons/VE125_randls_36_rotated.json,http://54.235.29.9/FacialAge/BNav_EC2/DepthDuration/v2_depth_duration_MTurk/v2_DepthDuration_HTML.html#63,63,1639,850,1639,922,8-21-2022,9-36-45,17,depth_duration_stimuli/000502_2014-06-08_23-02-32_260595134347_rgbf000063-resize_4/000502_2014-06-08_23-02-32_260595134347_rgbf000063-resize_4-target.png,125,2.431,11,4258,113,feet,jsons/VE125_randls_36_rotated.json,762111,1020640,73,Man
17,388835,DepthScenes,duration_manipulation_targetAtFixation,jsons/VE125_randls_36_rotated.json,http://54.235.29.9/FacialAge/BNav_EC2/DepthDuration/v2_depth_duration_MTurk/v2_DepthDuration_HTML.html#63,63,1639,850,1639,922,8-21-2022,9-36-45,18,depth_duration_stimuli/001199_2014-06-17_16-03-48_260595134347_rgbf000077-resize_0/001199_2014-06-17_16-03-48_260595134347_rgbf000077-resize_0-target.png,125,3.4375,8,3716,117,feet,jsons/VE125_randls_36_rotated.json,762111,1020640,73,Man
18,388835,DepthScenes,duration_manipulation_targetAtFixation,jsons/VE125_randls_36_rotated.json,http://54.235.29.9/FacialAge/BNav_EC2/DepthDuration/v2_depth_duration_MTurk/v2_DepthDuration_HTML.html#63,63,1639,850,1639,922,8-21-2022,9-36-45,19,depth_duration_stimuli/001498_2014-06-19_17-45-14_260595134347_rgbf000129-resize_4/001498_2014-06-19_17-45-14_260595134347_rgbf000129-resize-original.jpg,125,1.4075,6,3748,125,feet,jsons/VE125_randls_36_rotated.json,762111,1020640,73,Man
19,388835,DepthScenes,duration_manipulation_targetAtFixation,jsons/VE125_randls_36_rotated.json,http://54.235.29.9/FacialAge/BNav_EC2/DepthDuration/v2_depth_duration_MTurk/v2_DepthDuration_HTML.html#63,63,1639,850,1639,922,8-21-2022,9-36-45,20,depth_duration_stimuli/000191_2014-05-12_17-07-38_260595134347_rgbf000199-resize_0/000191_2014-05-12_17-07-38_260595134347_rgbf000199-resize_0-target.png,125,3.7995,12,3751,127,feet,jsons/VE125_randls_36_rotated.json,762111,1020640,73,Man
20,388835,DepthScenes,duration_manipulation_targetAtFixation,jsons/VE125_randls_36_rotated.json,http://54.235.29.9/FacialAge/BNav_EC2/DepthDuration/v2_depth_duration_MTurk/v2_DepthDuration_HTML.html#63,63,1639,850,1639,922,8-21-2022,9-36-45,21,depth_duration_stimuli/000493_2014-06-09_21-01-18_260595134347_rgbf000196-resize_3/000493_2014-06-09_21-01-18_260595134347_rgbf000196-resize_3-target.png,125,3.44,8,3709,115,feet,jsons/VE125_randls_36_rotated.json,762111,1020640,73,Man
21,388835,DepthScenes,duration_manipulation_targetAtFixation,jsons/VE125_randls_36_rotated.json,http://54.235.29.9/FacialAge/BNav_EC2/DepthDuration/v2_depth_duration_MTurk/v2_DepthDuration_HTML.html#63,63,1639,850,1639,922,8-21-2022,9-36-45,22,depth_duration_stimuli/002995_2014-06-15_12-31-26_094959634447_rgbf000150-resize_1/002995_2014-06-15_12-31-26_094959634447_rgbf000150-resize_1-target.png,125,3.8360000000000003,10,3555,120,feet,jsons/VE125_randls_36_rotated.json,762111,1020640,73,Man
22,388835,DepthScenes,duration_manipulation_targetAtFixation,jsons/VE125_randls_36_rotated.json,http://54.235.29.9/FacialAge/BNav_EC2/DepthDuration/v2_depth_duration_MTurk/v2_DepthDuration_HTML.html#63,63,1639,850,1639,922,8-21-2022,9-36-45,23,depth_duration_stimuli/002748_2014-06-22_19-07-22_094959634447_rgbf000078-resize_1/002748_2014-06-22_19-07-22_094959634447_rgbf000078-resize_1-target.png,125,4.6705,12,4001,112,feet,jsons/VE125_randls_36_rotated.json,762111,1020640,73,Man
23,388835,DepthScenes,duration_manipulation_targetAtFixation,jsons/VE125_randls_36_rotated.json,http://54.235.29.9/FacialAge/BNav_EC2/DepthDuration/v2_depth_duration_MTurk/v2_DepthDuration_HTML.html#63,63,1639,850,1639,922,8-21-2022,9-36-45,24,depth_duration_stimuli/001094_2014-06-15_17-36-00_260595134347_rgbf000205-resize_0/001094_2014-06-15_17-36-00_260595134347_rgbf000205-resize_0-target.png,125,4.2175,10,3817,117,feet,jsons/VE125_randls_36_rotated.json,762111,1020640,73,Man
24,388835,DepthScenes,duration_manipulation_targetAtFixation,jsons/VE125_randls_36_rotated.json,http://54.235.29.9/FacialAge/BNav_EC2/DepthDuration/v2_depth_duration_MTurk/v2_DepthDuration_HTML.html#63,63,1639,850,1639,922,8-21-2022,9-36-45,25,depth_duration_stimuli/000692_2014-06-08_13-09-42_260595134347_rgbf000199-resize_2/000692_2014-06-08_13-09-42_260595134347_rgbf000199-resize_2-target.png,125,3.661,8,3338,127,feet,jsons/VE125_randls_36_rotated.json,762111,1020640,73,Man
25,388835,DepthScenes,duration_manipulation_targetAtFixation,jsons/VE125_randls_36_rotated.json,http://54.235.29.9/FacialAge/BNav_EC2/DepthDuration/v2_depth_duration_MTurk/v2_DepthDuration_HTML.html#63,63,1639,850,1639,922,8-21-2022,9-36-45,26,depth_duration_stimuli/002639_2014-06-24_14-51-37_094959634447_rgbf000074-resize_4/002639_2014-06-24_14-51-37_094959634447_rgbf000074-resize_4-target.png,125,4.0375,10,4355,126,feet,jsons/VE125_randls_36_rotated.json,762111,1020640,73,Man
26,388835,DepthScenes,duration_manipulation_targetAtFixation,jsons/VE125_randls_36_rotated.json,http://54.235.29.9/FacialAge/BNav_EC2/DepthDuration/v2_depth_duration_MTurk/v2_DepthDuration_HTML.html#63,63,1639,850,1639,922,8-21-2022,9-36-45,27,depth_duration_stimuli/003292_2014-05-14_21-53-49_094959634447_rgbf000100-resize_2/003292_2014-05-14_21-53-49_094959634447_rgbf000100-resize_2-target.png,125,3.4815,9,4096,115,feet,jsons/VE125_randls_36_rotated.json,762111,1020640,73,Man
27,388835,DepthScenes,duration_manipulation_targetAtFixation,jsons/VE125_randls_36_rotated.json,http://54.235.29.9/FacialAge/BNav_EC2/DepthDuration/v2_depth_duration_MTurk/v2_DepthDuration_HTML.html#63,63,1639,850,1639,922,8-21-2022,9-36-45,28,depth_duration_stimuli/000409_2014-06-04_19-23-33_260595134347_rgbf000067-resize_0/000409_2014-06-04_19-23-33_260595134347_rgbf000067-resize_0-target.png,125,3.7335,10,3727,139,feet,jsons/VE125_randls_36_rotated.json,762111,1020640,73,Man
28,388835,DepthScenes,duration_manipulation_targetAtFixation,jsons/VE125_randls_36_rotated.json,http://54.235.29.9/FacialAge/BNav_EC2/DepthDuration/v2_depth_duration_MTurk/v2_DepthDuration_HTML.html#63,63,1639,850,1639,922,8-21-2022,9-36-45,29,depth_duration_stimuli/002663_2014-06-13_15-50-26_094959634447_rgbf000075-resize_1/002663_2014-06-13_15-50-26_094959634447_rgbf000075-resize_1-target.png,125,4.7495,11,3717,125,feet,jsons/VE125_randls_36_rotated.json,762111,1020640,73,Man
29,388835,DepthScenes,duration_manipulation_targetAtFixation,jsons/VE125_randls_36_rotated.json,http://54.235.29.9/FacialAge/BNav_EC2/DepthDuration/v2_depth_duration_MTurk/v2_DepthDuration_HTML.html#63,63,1639,850,1639,922,8-21-2022,9-36-45,30,depth_duration_stimuli/002072_2014-06-24_21-48-06_260595134347_rgbf000115-resize_0/002072_2014-06-24_21-48-06_260595134347_rgbf000115-resize-original.jpg,125,4.702,8,3842,131,feet,jsons/VE125_randls_36_rotated.json,762111,1020640,73,Man
30,388835,DepthScenes,duration_manipulation_targetAtFixation,jsons/VE125_randls_36_rotated.json,http://54.235.29.9/FacialAge/BNav_EC2/DepthDuration/v2_depth_duration_MTurk/v2_DepthDuration_HTML.html#63,63,1639,850,1639,922,8-21-2022,9-36-45,31,depth_duration_stimuli/000109_2014-05-14_23-41-52_260595134347_rgbf000035-resize_9/000109_2014-05-14_23-41-52_260595134347_rgbf000035-resize_9-target.png,125,1.3545,5,3838,110,feet,jsons/VE125_randls_36_rotated.json,762111,1020640,73,Man
31,388835,DepthScenes,duration_manipulation_targetAtFixation,jsons/VE125_randls_36_rotated.json,http://54.235.29.9/FacialAge/BNav_EC2/DepthDuration/v2_depth_duration_MTurk/v2_DepthDuration_HTML.html#63,63,1639,850,1639,922,8-21-2022,9-36-45,32,depth_duration_stimuli/000470_2014-06-09_19-42-40_260595134347_rgbf000094-resize_1/000470_2014-06-09_19-42-40_260595134347_rgbf000094-resize_1-target.png,125,1.831,6,3877,139,feet,jsons/VE125_randls_36_rotated.json,762111,1020640,73,Man
32,388835,DepthScenes,duration_manipulation_targetAtFixation,jsons/VE125_randls_36_rotated.json,http://54.235.29.9/FacialAge/BNav_EC2/DepthDuration/v2_depth_duration_MTurk/v2_DepthDuration_HTML.html#63,63,1639,850,1639,922,8-21-2022,9-36-45,33,depth_duration_stimuli/001650_2014-06-20_12-09-00_260595134347_rgbf000087-resize_3/001650_2014-06-20_12-09-00_260595134347_rgbf000087-resize_3-target.png,125,1.9505,5,3416,129,feet,jsons/VE125_randls_36_rotated.json,762111,1020640,73,Man
33,388835,DepthScenes,duration_manipulation_targetAtFixation,jsons/VE125_randls_36_rotated.json,http://54.235.29.9/FacialAge/BNav_EC2/DepthDuration/v2_depth_duration_MTurk/v2_DepthDuration_HTML.html#63,63,1639,850,1639,922,8-21-2022,9-36-45,34,depth_duration_stimuli/000682_2014-06-08_23-14-58_260595134347_rgbf000041-resize_5/000682_2014-06-08_23-14-58_260595134347_rgbf000041-resize_5-target.png,125,2.7239999999999998,7,3702,132,feet,jsons/VE125_randls_36_rotated.json,762111,1020640,73,Man
34,388835,DepthScenes,duration_manipulation_targetAtFixation,jsons/VE125_randls_36_rotated.json,http://54.235.29.9/FacialAge/BNav_EC2/DepthDuration/v2_depth_duration_MTurk/v2_DepthDuration_HTML.html#63,63,1639,850,1639,922,8-21-2022,9-36-45,35,depth_duration_stimuli/000103_2014-05-14_22-01-17_260595134347_rgbf000152-resize_5/000103_2014-05-14_22-01-17_260595134347_rgbf000152-resize_5-target.png,125,1.993,8,3306,120,feet,jsons/VE125_randls_36_rotated.json,762111,1020640,73,Man
35,388835,DepthScenes,duration_manipulation_targetAtFixation,jsons/VE125_randls_36_rotated.json,http://54.235.29.9/FacialAge/BNav_EC2/DepthDuration/v2_depth_duration_MTurk/v2_DepthDuration_HTML.html#63,63,1639,850,1639,922,8-21-2022,9-36-45,36,depth_duration_stimuli/001555_2014-06-20_17-12-10_260595134347_rgbf000065-resize_4/001555_2014-06-20_17-12-10_260595134347_rgbf000065-resize_4-target.png,125,1.633,4,3425,126,feet,jsons/VE125_randls_36_rotated.json,762111,1020640,73,Man
36,388835,DepthScenes,duration_manipulation_targetAtFixation,jsons/VE125_randls_36_rotated.json,http://54.235.29.9/FacialAge/BNav_EC2/DepthDuration/v2_depth_duration_MTurk/v2_DepthDuration_HTML.html#63,63,1639,850,1639,922,8-21-2022,9-36-45,37,depth_duration_stimuli/001214_2014-06-17_16-13-55_260595134347_rgbf000111-resize_0/001214_2014-06-17_16-13-55_260595134347_rgbf000111-resize_0-target.png,125,2.6505,8,3431,133,feet,jsons/VE125_randls_36_rotated.json,762111,1020640,73,Man
37,388835,DepthScenes,duration_manipulation_targetAtFixation,jsons/VE125_randls_36_rotated.json,http://54.235.29.9/FacialAge/BNav_EC2/DepthDuration/v2_depth_duration_MTurk/v2_DepthDuration_HTML.html#63,63,1639,850,1639,922,8-21-2022,9-36-45,38,depth_duration_stimuli/000810_2014-06-08_17-20-01_260595134347_rgbf000105-resize_0/000810_2014-06-08_17-20-01_260595134347_rgbf000105-resize_0-target.png,125,1.4865,8,3470,125,feet,jsons/VE125_randls_36_rotated.json,762111,1020640,73,Man
38,388835,DepthScenes,duration_manipulation_targetAtFixation,jsons/VE125_randls_36_rotated.json,http://54.235.29.9/FacialAge/BNav_EC2/DepthDuration/v2_depth_duration_MTurk/v2_DepthDuration_HTML.html#63,63,1639,850,1639,922,8-21-2022,9-36-45,39,depth_duration_stimuli/000677_2014-06-08_23-10-32_260595134347_rgbf000158-resize_6/000677_2014-06-08_23-10-32_260595134347_rgbf000158-resize_6-target.png,125,3.556,10,4110,128,feet,jsons/VE125_randls_36_rotated.json,762111,1020640,73,Man
39,388835,DepthScenes,duration_manipulation_targetAtFixation,jsons/VE125_randls_36_rotated.json,http://54.235.29.9/FacialAge/BNav_EC2/DepthDuration/v2_depth_duration_MTurk/v2_DepthDuration_HTML.html#63,63,1639,850,1639,922,8-21-2022,9-36-45,40,depth_duration_stimuli/001029_2014-06-08_13-17-57_260595134347_rgbf000065-resize_1/001029_2014-06-08_13-17-57_260595134347_rgbf000065-resize_1-target.png,125,3.0835,10,3970,130,feet,jsons/VE125_randls_36_rotated.json,762111,1020640,73,Man
40,388835,DepthScenes,duration_manipulation_targetAtFixation,jsons/VE125_randls_36_rotated.json,http://54.235.29.9/FacialAge/BNav_EC2/DepthDuration/v2_depth_duration_MTurk/v2_DepthDuration_HTML.html#63,63,1639,850,1639,922,8-21-2022,9-36-45,41,depth_duration_stimuli/002637_2014-06-24_14-51-13_094959634447_rgbf000066-resize_4/002637_2014-06-24_14-51-13_094959634447_rgbf000066-resize_4-target.png,125,1.9955,8,4051,124,feet,jsons/VE125_randls_36_rotated.json,762111,1020640,73,Man
41,388835,DepthScenes,duration_manipulation_targetAtFixation,jsons/VE125_randls_36_rotated.json,http://54.235.29.9/FacialAge/BNav_EC2/DepthDuration/v2_depth_duration_MTurk/v2_DepthDuration_HTML.html#63,63,1639,850,1639,922,8-21-2022,9-36-45,42,depth_duration_stimuli/003534_2014-05-22_15-06-10_094959634447_rgbf000102-resize_4/003534_2014-05-22_15-06-10_094959634447_rgbf000102-resize_4-target.png,125,1.426,7,3662,124,feet,jsons/VE125_randls_36_rotated.json,762111,1020640,73,Man
42,388835,DepthScenes,duration_manipulation_targetAtFixation,jsons/VE125_randls_36_rotated.json,http://54.235.29.9/FacialAge/BNav_EC2/DepthDuration/v2_depth_duration_MTurk/v2_DepthDuration_HTML.html#63,63,1639,850,1639,922,8-21-2022,9-36-45,43,depth_duration_stimuli/001584_2014-06-20_11-07-43_260595134347_rgbf000002-resize_1/001584_2014-06-20_11-07-43_260595134347_rgbf000002-resize_1-target.png,125,3.53,8,3487,121,feet,jsons/VE125_randls_36_rotated.json,762111,1020640,73,Man
43,388835,DepthScenes,duration_manipulation_targetAtFixation,jsons/VE125_randls_36_rotated.json,http://54.235.29.9/FacialAge/BNav_EC2/DepthDuration/v2_depth_duration_MTurk/v2_DepthDuration_HTML.html#63,63,1639,850,1639,922,8-21-2022,9-36-45,44,depth_duration_stimuli/003621_2014-05-23_18-06-08_094959634447_rgbf000101-resize_1/003621_2014-05-23_18-06-08_094959634447_rgbf000101-resize_1-target.png,125,3.9835,9,3965,135,feet,jsons/VE125_randls_36_rotated.json,762111,1020640,73,Man
44,388835,DepthScenes,duration_manipulation_targetAtFixation,jsons/VE125_randls_36_rotated.json,http://54.235.29.9/FacialAge/BNav_EC2/DepthDuration/v2_depth_duration_MTurk/v2_DepthDuration_HTML.html#63,63,1639,850,1639,922,8-21-2022,9-36-45,45,depth_duration_stimuli/002678_2014-06-13_16-15-32_094959634447_rgbf000151-resize_6/002678_2014-06-13_16-15-32_094959634447_rgbf000151-resize_6-target.png,125,2.1830000000000003,14,3822,136,feet,jsons/VE125_randls_36_rotated.json,762111,1020640,73,Man
45,388835,DepthScenes,duration_manipulation_targetAtFixation,jsons/VE125_randls_36_rotated.json,http://54.235.29.9/FacialAge/BNav_EC2/DepthDuration/v2_depth_duration_MTurk/v2_DepthDuration_HTML.html#63,63,1639,850,1639,922,8-21-2022,9-36-45,46,depth_duration_stimuli/000368_2014-06-09_15-53-01_260595134347_rgbf000155-resize_2/000368_2014-06-09_15-53-01_260595134347_rgbf000155-resize_2-target.png,125,2.4859999999999998,10,4072,133,feet,jsons/VE125_randls_36_rotated.json,762111,1020640,73,Man
46,388835,DepthScenes,duration_manipulation_targetAtFixation,jsons/VE125_randls_36_rotated.json,http://54.235.29.9/FacialAge/BNav_EC2/DepthDuration/v2_depth_duration_MTurk/v2_DepthDuration_HTML.html#63,63,1639,850,1639,922,8-21-2022,9-36-45,47,depth_duration_stimuli/003083_2014-06-15_15-21-03_094959634447_rgbf000063-resize_1/003083_2014-06-15_15-21-03_094959634447_rgbf000063-resize_1-target.png,125,4.1405,10,4065,130,feet,jsons/VE125_randls_36_rotated.json,762111,1020640,73,Man
47,388835,DepthScenes,duration_manipulation_targetAtFixation,jsons/VE125_randls_36_rotated.json,http://54.235.29.9/FacialAge/BNav_EC2/DepthDuration/v2_depth_duration_MTurk/v2_DepthDuration_HTML.html#63,63,1639,850,1639,922,8-21-2022,9-36-45,48,depth_duration_stimuli/000486_2014-06-09_20-47-20_260595134347_rgbf000143-resize_2/000486_2014-06-09_20-47-20_260595134347_rgbf000143-resize_2-target.png,125,4.8325,12,3912,131,feet,jsons/VE125_randls_36_rotated.json,762111,1020640,73,Man
48,388835,DepthScenes,duration_manipulation_targetAtFixation,jsons/VE125_randls_36_rotated.json,http://54.235.29.9/FacialAge/BNav_EC2/DepthDuration/v2_depth_duration_MTurk/v2_DepthDuration_HTML.html#63,63,1639,850,1639,922,8-21-2022,9-36-45,49,depth_duration_stimuli/001170_2014-06-17_15-43-44_260595134347_rgbf000096-resize_6/001170_2014-06-17_15-43-44_260595134347_rgbf000096-resize-original.jpg,125,1.1909999999999998,5,3315,131,feet,jsons/VE125_randls_36_rotated.json,762111,1020640,73,Man
49,388835,DepthScenes,duration_manipulation_targetAtFixation,jsons/VE125_randls_36_rotated.json,http://54.235.29.9/FacialAge/BNav_EC2/DepthDuration/v2_depth_duration_MTurk/v2_DepthDuration_HTML.html#63,63,1639,850,1639,922,8-21-2022,9-36-45,50,depth_duration_stimuli/000709_2014-06-08_13-51-55_260595134347_rgbf000068-resize_3/000709_2014-06-08_13-51-55_260595134347_rgbf000068-resize_3-target.png,125,1.8030000000000002,7,3451,130,feet,jsons/VE125_randls_36_rotated.json,762111,1020640,73,Man
50,388835,DepthScenes,duration_manipulation_targetAtFixation,jsons/VE125_randls_36_rotated.json,http://54.235.29.9/FacialAge/BNav_EC2/DepthDuration/v2_depth_duration_MTurk/v2_DepthDuration_HTML.html#63,63,1639,850,1639,922,8-21-2022,9-36-45,51,depth_duration_stimuli/002057_2014-06-24_21-00-13_260595134347_rgbf000120-resize_1/002057_2014-06-24_21-00-13_260595134347_rgbf000120-resize_1-target.png,125,2.967,9,4221,129,feet,jsons/VE125_randls_36_rotated.json,762111,1020640,73,Man
51,388835,DepthScenes,duration_manipulation_targetAtFixation,jsons/VE125_randls_36_rotated.json,http://54.235.29.9/FacialAge/BNav_EC2/DepthDuration/v2_depth_duration_MTurk/v2_DepthDuration_HTML.html#63,63,1639,850,1639,922,8-21-2022,9-36-45,52,depth_duration_stimuli/002444_2014-06-28_20-32-08_260595134347_rgbf000027-resize_0/002444_2014-06-28_20-32-08_260595134347_rgbf000027-resize_0-target.png,125,4.388999999999999,8,18334,129,feet,jsons/VE125_randls_36_rotated.json,762111,1020640,73,Man
52,388835,DepthScenes,duration_manipulation_targetAtFixation,jsons/VE125_randls_36_rotated.json,http://54.235.29.9/FacialAge/BNav_EC2/DepthDuration/v2_depth_duration_MTurk/v2_DepthDuration_HTML.html#63,63,1639,850,1639,922,8-21-2022,9-36-45,53,depth_duration_stimuli/000436_2014-06-09_22-25-11_260595134347_rgbf000137-resize_1/000436_2014-06-09_22-25-11_260595134347_rgbf000137-resize_1-target.png,125,4.0705,9,3744,133,feet,jsons/VE125_randls_36_rotated.json,762111,1020640,73,Man
53,388835,DepthScenes,duration_manipulation_targetAtFixation,jsons/VE125_randls_36_rotated.json,http://54.235.29.9/FacialAge/BNav_EC2/DepthDuration/v2_depth_duration_MTurk/v2_DepthDuration_HTML.html#63,63,1639,850,1639,922,8-21-2022,9-36-45,54,depth_duration_stimuli/000780_2014-06-08_22-28-29_260595134347_rgbf000126-resize_1/000780_2014-06-08_22-28-29_260595134347_rgbf000126-resize_1-target.png,125,3.3825,8,3293,130,feet,jsons/VE125_randls_36_rotated.json,762111,1020640,73,Man
54,388835,DepthScenes,duration_manipulation_targetAtFixation,jsons/VE125_randls_36_rotated.json,http://54.235.29.9/FacialAge/BNav_EC2/DepthDuration/v2_depth_duration_MTurk/v2_DepthDuration_HTML.html#63,63,1639,850,1639,922,8-21-2022,9-36-45,55,depth_duration_stimuli/002445_2014-06-28_20-32-16_260595134347_rgbf000029-resize_4/002445_2014-06-28_20-32-16_260595134347_rgbf000029-resize_4-target.png,125,2.5315,6,3355,105,feet,jsons/VE125_randls_36_rotated.json,762111,1020640,73,Man
55,388835,DepthScenes,duration_manipulation_targetAtFixation,jsons/VE125_randls_36_rotated.json,http://54.235.29.9/FacialAge/BNav_EC2/DepthDuration/v2_depth_duration_MTurk/v2_DepthDuration_HTML.html#63,63,1639,850,1639,922,8-21-2022,9-36-45,56,depth_duration_stimuli/003587_2014-05-23_16-48-02_094959634447_rgbf002384-resize_2/003587_2014-05-23_16-48-02_094959634447_rgbf002384-resize_2-target.png,125,1.357,4,3533,134,feet,jsons/VE125_randls_36_rotated.json,762111,1020640,73,Man
56,388835,DepthScenes,duration_manipulation_targetAtFixation,jsons/VE125_randls_36_rotated.json,http://54.235.29.9/FacialAge/BNav_EC2/DepthDuration/v2_depth_duration_MTurk/v2_DepthDuration_HTML.html#63,63,1639,850,1639,922,8-21-2022,9-36-45,57,depth_duration_stimuli/001167_2014-06-17_15-38-07_260595134347_rgbf000108-resize_0/001167_2014-06-17_15-38-07_260595134347_rgbf000108-resize_0-target.png,125,1.8505,5,3465,117,feet,jsons/VE125_randls_36_rotated.json,762111,1020640,73,Man
57,388835,DepthScenes,duration_manipulation_targetAtFixation,jsons/VE125_randls_36_rotated.json,http://54.235.29.9/FacialAge/BNav_EC2/DepthDuration/v2_depth_duration_MTurk/v2_DepthDuration_HTML.html#63,63,1639,850,1639,922,8-21-2022,9-36-45,58,depth_duration_stimuli/002467_2014-06-28_20-38-07_260595134347_rgbf000026-resize_2/002467_2014-06-28_20-38-07_260595134347_rgbf000026-resize_2-target.png,125,4.742,12,3684,119,feet,jsons/VE125_randls_36_rotated.json,762111,1020640,73,Man
58,388835,DepthScenes,duration_manipulation_targetAtFixation,jsons/VE125_randls_36_rotated.json,http://54.235.29.9/FacialAge/BNav_EC2/DepthDuration/v2_depth_duration_MTurk/v2_DepthDuration_HTML.html#63,63,1639,850,1639,922,8-21-2022,9-36-45,59,depth_duration_stimuli/002570_2014-06-24_13-59-54_094959634447_rgbf000059-resize_0/002570_2014-06-24_13-59-54_094959634447_rgbf000059-resize_0-target.png,125,4.037,8,3450,113,feet,jsons/VE125_randls_36_rotated.json,762111,1020640,73,Man
59,388835,DepthScenes,duration_manipulation_targetAtFixation,jsons/VE125_randls_36_rotated.json,http://54.235.29.9/FacialAge/BNav_EC2/DepthDuration/v2_depth_duration_MTurk/v2_DepthDuration_HTML.html#63,63,1639,850,1639,922,8-21-2022,9-36-45,60,depth_duration_stimuli/002425_2014-06-28_20-27-29_260595134347_rgbf000031-resize_8/002425_2014-06-28_20-27-29_260595134347_rgbf000031-resize_8-target.png,125,3.8960000000000004,9,4068,123,feet,jsons/VE125_randls_36_rotated.json,762111,1020640,73,Man
60,388835,DepthScenes,duration_manipulation_targetAtFixation,jsons/VE125_randls_36_rotated.json,http://54.235.29.9/FacialAge/BNav_EC2/DepthDuration/v2_depth_duration_MTurk/v2_DepthDuration_HTML.html#63,63,1639,850,1639,922,8-21-2022,9-36-45,61,depth_duration_stimuli/000642_2014-06-08_16-59-25_260595134347_rgbf000098-resize_2/000642_2014-06-08_16-59-25_260595134347_rgbf000098-resize_2-target.png,125,2.8815,8,3460,123,feet,jsons/VE125_randls_36_rotated.json,762111,1020640,73,Man
61,388835,DepthScenes,duration_manipulation_targetAtFixation,jsons/VE125_randls_36_rotated.json,http://54.235.29.9/FacialAge/BNav_EC2/DepthDuration/v2_depth_duration_MTurk/v2_DepthDuration_HTML.html#63,63,1639,850,1639,922,8-21-2022,9-36-45,62,depth_duration_stimuli/001815_2014-06-26_20-52-55_260595134347_rgbf000020-resize_0/001815_2014-06-26_20-52-55_260595134347_rgbf000020-resize_0-target.png,125,3.3865,5,4948,135,feet,jsons/VE125_randls_36_rotated.json,762111,1020640,73,Man
62,388835,DepthScenes,duration_manipulation_targetAtFixation,jsons/VE125_randls_36_rotated.json,http://54.235.29.9/FacialAge/BNav_EC2/DepthDuration/v2_depth_duration_MTurk/v2_DepthDuration_HTML.html#63,63,1639,850,1639,922,8-21-2022,9-36-45,63,depth_duration_stimuli/001808_2014-06-26_20-50-58_260595134347_rgbf000029-resize_1/001808_2014-06-26_20-50-58_260595134347_rgbf000029-resize_1-target.png,125,4.249,9,3702,138,feet,jsons/VE125_randls_36_rotated.json,762111,1020640,73,Man
63,388835,DepthScenes,duration_manipulation_targetAtFixation,jsons/VE125_randls_36_rotated.json,http://54.235.29.9/FacialAge/BNav_EC2/DepthDuration/v2_depth_duration_MTurk/v2_DepthDuration_HTML.html#63,63,1639,850,1639,922,8-21-2022,9-36-45,64,depth_duration_stimuli/003423_2014-05-21_10-23-26_094959634447_rgbf002665-resize_2/003423_2014-05-21_10-23-26_094959634447_rgbf002665-resize_2-target.png,125,3.2575,8,3480,122,feet,jsons/VE125_randls_36_rotated.json,762111,1020640,73,Man
64,388835,DepthScenes,duration_manipulation_targetAtFixation,jsons/VE125_randls_36_rotated.json,http://54.235.29.9/FacialAge/BNav_EC2/DepthDuration/v2_depth_duration_MTurk/v2_DepthDuration_HTML.html#63,63,1639,850,1639,922,8-21-2022,9-36-45,65,depth_duration_stimuli/002905_2014-06-03_18-04-43_094959634447_rgbf000151-resize_2/002905_2014-06-03_18-04-43_094959634447_rgbf000151-resize_2-target.png,125,2.0295,8,3757,123,feet,jsons/VE125_randls_36_rotated.json,762111,1020640,73,Man
65,388835,DepthScenes,duration_manipulation_targetAtFixation,jsons/VE125_randls_36_rotated.json,http://54.235.29.9/FacialAge/BNav_EC2/DepthDuration/v2_depth_duration_MTurk/v2_DepthDuration_HTML.html#63,63,1639,850,1639,922,8-21-2022,9-36-45,66,depth_duration_stimuli/001540_2014-06-20_17-01-05_260595134347_rgbf000086-resize_2/001540_2014-06-20_17-01-05_260595134347_rgbf000086-resize-original.jpg,125,1.459,6,3782,133,feet,jsons/VE125_randls_36_rotated.json,762111,1020640,73,Man
66,388835,DepthScenes,duration_manipulation_targetAtFixation,jsons/VE125_randls_36_rotated.json,http://54.235.29.9/FacialAge/BNav_EC2/DepthDuration/v2_depth_duration_MTurk/v2_DepthDuration_HTML.html#63,63,1639,850,1639,922,8-21-2022,9-36-45,67,depth_duration_stimuli/000943_2014-06-09_19-31-07_260595134347_rgbf000128-resize_1/000943_2014-06-09_19-31-07_260595134347_rgbf000128-resize_1-target.png,125,1.9765,6,4023,140,feet,jsons/VE125_randls_36_rotated.json,762111,1020640,73,Man
67,388835,DepthScenes,duration_manipulation_targetAtFixation,jsons/VE125_randls_36_rotated.json,http://54.235.29.9/FacialAge/BNav_EC2/DepthDuration/v2_depth_duration_MTurk/v2_DepthDuration_HTML.html#63,63,1639,850,1639,922,8-21-2022,9-36-45,68,depth_duration_stimuli/003070_2014-06-15_14-58-27_094959634447_rgbf000150-resize_3/003070_2014-06-15_14-58-27_094959634447_rgbf000150-resize_3-target.png,125,2.9415,8,3378,127,feet,jsons/VE125_randls_36_rotated.json,762111,1020640,73,Man
68,388835,DepthScenes,duration_manipulation_targetAtFixation,jsons/VE125_randls_36_rotated.json,http://54.235.29.9/FacialAge/BNav_EC2/DepthDuration/v2_depth_duration_MTurk/v2_DepthDuration_HTML.html#63,63,1639,850,1639,922,8-21-2022,9-36-45,69,depth_duration_stimuli/000691_2014-06-08_13-08-50_260595134347_rgbf000132-resize_3/000691_2014-06-08_13-08-50_260595134347_rgbf000132-resize_3-target.png,125,4.1530000000000005,14,4614,119,feet,jsons/VE125_randls_36_rotated.json,762111,1020640,73,Man
69,388835,DepthScenes,duration_manipulation_targetAtFixation,jsons/VE125_randls_36_rotated.json,http://54.235.29.9/FacialAge/BNav_EC2/DepthDuration/v2_depth_duration_MTurk/v2_DepthDuration_HTML.html#63,63,1639,850,1639,922,8-21-2022,9-36-45,70,depth_duration_stimuli/002213_2014-06-28_18-37-58_260595134347_rgbf000055-resize_1/002213_2014-06-28_18-37-58_260595134347_rgbf000055-resize_1-target.png,125,3.62,12,4099,125,feet,jsons/VE125_randls_36_rotated.json,762111,1020640,73,Man
70,388835,DepthScenes,duration_manipulation_targetAtFixation,jsons/VE125_randls_36_rotated.json,http://54.235.29.9/FacialAge/BNav_EC2/DepthDuration/v2_depth_duration_MTurk/v2_DepthDuration_HTML.html#63,63,1639,850,1639,922,8-21-2022,9-36-45,71,depth_duration_stimuli/001828_2014-06-26_21-40-03_260595134347_rgbf000024-resize_0/001828_2014-06-26_21-40-03_260595134347_rgbf000024-resize_0-target.png,125,4.8260000000000005,8,3552,130,feet,jsons/VE125_randls_36_rotated.json,762111,1020640,73,Man
71,388835,DepthScenes,duration_manipulation_targetAtFixation,jsons/VE125_randls_36_rotated.json,http://54.235.29.9/FacialAge/BNav_EC2/DepthDuration/v2_depth_duration_MTurk/v2_DepthDuration_HTML.html#63,63,1639,850,1639,922,8-21-2022,9-36-45,72,depth_duration_stimuli/000009_2014-05-26_14-32-05_260595134347_rgbf000034-resize_3/000009_2014-05-26_14-32-05_260595134347_rgbf000034-resize_3-target.png,125,3.8715,12,3897,118,feet,jsons/VE125_randls_36_rotated.json,762111,1020640,73,Man
72,388835,DepthScenes,duration_manipulation_targetAtFixation,jsons/VE125_randls_36_rotated.json,http://54.235.29.9/FacialAge/BNav_EC2/DepthDuration/v2_depth_duration_MTurk/v2_DepthDuration_HTML.html#63,63,1639,850,1639,922,8-21-2022,9-36-45,73,depth_duration_stimuli/002953_2014-06-08_17-32-18_094959634447_rgbf000059-resize_5/002953_2014-06-08_17-32-18_094959634447_rgbf000059-resize_5-target.png,125,1.551,5,3781,126,feet,jsons/VE125_randls_36_rotated.json,762111,1020640,73,Man
73,388835,DepthScenes,duration_manipulation_targetAtFixation,jsons/VE125_randls_36_rotated.json,http://54.235.29.9/FacialAge/BNav_EC2/DepthDuration/v2_depth_duration_MTurk/v2_DepthDuration_HTML.html#63,63,1639,850,1639,922,8-21-2022,9-36-45,74,depth_duration_stimuli/000878_2014-06-08_22-52-45_260595134347_rgbf000045-resize_2/000878_2014-06-08_22-52-45_260595134347_rgbf000045-resize_2-target.png,125,2.092,10,4445,124,feet,jsons/VE125_randls_36_rotated.json,762111,1020640,73,Man
74,388835,DepthScenes,duration_manipulation_targetAtFixation,jsons/VE125_randls_36_rotated.json,http://54.235.29.9/FacialAge/BNav_EC2/DepthDuration/v2_depth_duration_MTurk/v2_DepthDuration_HTML.html#63,63,1639,850,1639,922,8-21-2022,9-36-45,75,depth_duration_stimuli/000483_2014-06-09_20-41-45_260595134347_rgbf000116-resize_4/000483_2014-06-09_20-41-45_260595134347_rgbf000116-resize_4-target.png,125,1.337,6,3333,124,feet,jsons/VE125_randls_36_rotated.json,762111,1020640,73,Man
75,388835,DepthScenes,duration_manipulation_targetAtFixation,jsons/VE125_randls_36_rotated.json,http://54.235.29.9/FacialAge/BNav_EC2/DepthDuration/v2_depth_duration_MTurk/v2_DepthDuration_HTML.html#63,63,1639,850,1639,922,8-21-2022,9-36-45,76,depth_duration_stimuli/000469_2014-06-09_19-42-10_260595134347_rgbf000081-resize_1/000469_2014-06-09_19-42-10_260595134347_rgbf000081-resize_1-target.png,125,1.652,6,3591,130,feet,jsons/VE125_randls_36_rotated.json,762111,1020640,73,Man
76,388835,DepthScenes,duration_manipulation_targetAtFixation,jsons/VE125_randls_36_rotated.json,http://54.235.29.9/FacialAge/BNav_EC2/DepthDuration/v2_depth_duration_MTurk/v2_DepthDuration_HTML.html#63,63,1639,850,1639,922,8-21-2022,9-36-45,77,depth_duration_stimuli/003129_2014-05-12_10-48-10_094959634447_rgbf000100-resize_0/003129_2014-05-12_10-48-10_094959634447_rgbf000100-resize_0-target.png,125,4.9305,8,3454,139,feet,jsons/VE125_randls_36_rotated.json,762111,1020640,73,Man
77,388835,DepthScenes,duration_manipulation_targetAtFixation,jsons/VE125_randls_36_rotated.json,http://54.235.29.9/FacialAge/BNav_EC2/DepthDuration/v2_depth_duration_MTurk/v2_DepthDuration_HTML.html#63,63,1639,850,1639,922,8-21-2022,9-36-45,78,depth_duration_stimuli/000414_2014-06-04_19-49-13_260595134347_rgbf000044-resize_0/000414_2014-06-04_19-49-13_260595134347_rgbf000044-resize_0-target.png,125,4.329,12,4102,130,feet,jsons/VE125_randls_36_rotated.json,762111,1020640,73,Man
78,388835,DepthScenes,duration_manipulation_targetAtFixation,jsons/VE125_randls_36_rotated.json,http://54.235.29.9/FacialAge/BNav_EC2/DepthDuration/v2_depth_duration_MTurk/v2_DepthDuration_HTML.html#63,63,1639,850,1639,922,8-21-2022,9-36-45,79,depth_duration_stimuli/001100_2014-06-15_17-46-26_260595134347_rgbf000225-resize_2/001100_2014-06-15_17-46-26_260595134347_rgbf000225-resize_2-target.png,125,2.24,3,5002,130,feet,jsons/VE125_randls_36_rotated.json,762111,1020640,73,Man
79,388835,DepthScenes,duration_manipulation_targetAtFixation,jsons/VE125_randls_36_rotated.json,http://54.235.29.9/FacialAge/BNav_EC2/DepthDuration/v2_depth_duration_MTurk/v2_DepthDuration_HTML.html#63,63,1639,850,1639,922,8-21-2022,9-36-45,80,depth_duration_stimuli/002784_2014-06-22_19-26-30_094959634447_rgbf000083-resize_3/002784_2014-06-22_19-26-30_094959634447_rgbf000083-resize_3-target.png,125,1.8046666666667,6,4388,131,feet,jsons/VE125_randls_36_rotated.json,762111,1020640,73,Man
80,388835,DepthScenes,duration_manipulation_targetAtFixation,jsons/VE125_randls_36_rotated.json,http://54.235.29.9/FacialAge/BNav_EC2/DepthDuration/v2_depth_duration_MTurk/v2_DepthDuration_HTML.html#63,63,1639,850,1639,922,8-21-2022,9-36-45,81,depth_duration_stimuli/000866_2014-06-09_20-45-42_260595134347_rgbf000139-resize_1/000866_2014-06-09_20-45-42_260595134347_rgbf000139-resize_1-target.png,125,3.2155,8,3969,118,feet,jsons/VE125_randls_36_rotated.json,762111,1020640,73,Man
81,388835,DepthScenes,duration_manipulation_targetAtFixation,jsons/VE125_randls_36_rotated.json,http://54.235.29.9/FacialAge/BNav_EC2/DepthDuration/v2_depth_duration_MTurk/v2_DepthDuration_HTML.html#63,63,1639,850,1639,922,8-21-2022,9-36-45,82,depth_duration_stimuli/002989_2014-06-15_12-25-03_094959634447_rgbf000150-resize_3/002989_2014-06-15_12-25-03_094959634447_rgbf000150-resize_3-target.png,125,4.1975,10,5355,134,feet,jsons/VE125_randls_36_rotated.json,762111,1020640,73,Man
82,388835,DepthScenes,duration_manipulation_targetAtFixation,jsons/VE125_randls_36_rotated.json,http://54.235.29.9/FacialAge/BNav_EC2/DepthDuration/v2_depth_duration_MTurk/v2_DepthDuration_HTML.html#63,63,1639,850,1639,922,8-21-2022,9-36-45,83,depth_duration_stimuli/002209_2014-06-28_18-36-10_260595134347_rgbf000051-resize_1/002209_2014-06-28_18-36-10_260595134347_rgbf000051-resize_1-target.png,125,2.057,10,11138,115,feet,jsons/VE125_randls_36_rotated.json,762111,1020640,73,Man
83,388835,DepthScenes,duration_manipulation_targetAtFixation,jsons/VE125_randls_36_rotated.json,http://54.235.29.9/FacialAge/BNav_EC2/DepthDuration/v2_depth_duration_MTurk/v2_DepthDuration_HTML.html#63,63,1639,850,1639,922,8-21-2022,9-36-45,84,depth_duration_stimuli/002763_2014-06-22_19-13-10_094959634447_rgbf000075-resize_4/002763_2014-06-22_19-13-10_094959634447_rgbf000075-resize_4-target.png,125,1.68375,6,4052,137,feet,jsons/VE125_randls_36_rotated.json,762111,1020640,73,Man
84,388835,DepthScenes,duration_manipulation_targetAtFixation,jsons/VE125_randls_36_rotated.json,http://54.235.29.9/FacialAge/BNav_EC2/DepthDuration/v2_depth_duration_MTurk/v2_DepthDuration_HTML.html#63,63,1639,850,1639,922,8-21-2022,9-36-45,85,depth_duration_stimuli/002545_2014-06-24_13-38-53_094959634447_rgbf000080-resize_4/002545_2014-06-24_13-38-53_094959634447_rgbf000080-resize_4-target.png,125,1.9205,8,3281,125,feet,jsons/VE125_randls_36_rotated.json,762111,1020640,73,Man
85,388835,DepthScenes,duration_manipulation_targetAtFixation,jsons/VE125_randls_36_rotated.json,http://54.235.29.9/FacialAge/BNav_EC2/DepthDuration/v2_depth_duration_MTurk/v2_DepthDuration_HTML.html#63,63,1639,850,1639,922,8-21-2022,9-36-45,86,depth_duration_stimuli/001092_2014-06-15_17-34-58_260595134347_rgbf000171-resize_3/001092_2014-06-15_17-34-58_260595134347_rgbf000171-resize_3-target.png,125,2.6935,7,4615,124,feet,jsons/VE125_randls_36_rotated.json,762111,1020640,73,Man
86,388835,DepthScenes,duration_manipulation_targetAtFixation,jsons/VE125_randls_36_rotated.json,http://54.235.29.9/FacialAge/BNav_EC2/DepthDuration/v2_depth_duration_MTurk/v2_DepthDuration_HTML.html#63,63,1639,850,1639,922,8-21-2022,9-36-45,87,depth_duration_stimuli/002805_2014-06-22_19-54-03_094959634447_rgbf000079-resize_1/002805_2014-06-22_19-54-03_094959634447_rgbf000079-resize_1-target.png,125,3.1439999999999997,10,3617,118,feet,jsons/VE125_randls_36_rotated.json,762111,1020640,73,Man
87,388835,DepthScenes,duration_manipulation_targetAtFixation,jsons/VE125_randls_36_rotated.json,http://54.235.29.9/FacialAge/BNav_EC2/DepthDuration/v2_depth_duration_MTurk/v2_DepthDuration_HTML.html#63,63,1639,850,1639,922,8-21-2022,9-36-45,88,depth_duration_stimuli/000906_2014-06-08_13-35-43_260595134347_rgbf000155-resize_1/000906_2014-06-08_13-35-43_260595134347_rgbf000155-resize_1-target.png,125,2.8489999999999998,9,3378,121,feet,jsons/VE125_randls_36_rotated.json,762111,1020640,73,Man
88,388835,DepthScenes,duration_manipulation_targetAtFixation,jsons/VE125_randls_36_rotated.json,http://54.235.29.9/FacialAge/BNav_EC2/DepthDuration/v2_depth_duration_MTurk/v2_DepthDuration_HTML.html#63,63,1639,850,1639,922,8-21-2022,9-36-45,89,depth_duration_stimuli/003010_2014-06-15_12-54-35_094959634447_rgbf000112-resize_0/003010_2014-06-15_12-54-35_094959634447_rgbf000112-resize_0-target.png,125,3.1185,12,3694,119,feet,jsons/VE125_randls_36_rotated.json,762111,1020640,73,Man
89,388835,DepthScenes,duration_manipulation_targetAtFixation,jsons/VE125_randls_36_rotated.json,http://54.235.29.9/FacialAge/BNav_EC2/DepthDuration/v2_depth_duration_MTurk/v2_DepthDuration_HTML.html#63,63,1639,850,1639,922,8-21-2022,9-36-45,90,depth_duration_stimuli/001810_2014-06-26_20-51-35_260595134347_rgbf000040-resize_3/001810_2014-06-26_20-51-35_260595134347_rgbf000040-resize_3-target.png,125,2.2525,8,3396,119,feet,jsons/VE125_randls_36_rotated.json,762111,1020640,73,Man
90,388835,DepthScenes,duration_manipulation_targetAtFixation,jsons/VE125_randls_36_rotated.json,http://54.235.29.9/FacialAge/BNav_EC2/DepthDuration/v2_depth_duration_MTurk/v2_DepthDuration_HTML.html#63,63,1639,850,1639,922,8-21-2022,9-36-45,91,depth_duration_stimuli/000854_2014-06-09_19-43-13_260595134347_rgbf000066-resize_0/000854_2014-06-09_19-43-13_260595134347_rgbf000066-resize_0-target.png,125,3.068,4,7638,118,feet,jsons/VE125_randls_36_rotated.json,762111,1020640,73,Man
91,388835,DepthScenes,duration_manipulation_targetAtFixation,jsons/VE125_randls_36_rotated.json,http://54.235.29.9/FacialAge/BNav_EC2/DepthDuration/v2_depth_duration_MTurk/v2_DepthDuration_HTML.html#63,63,1639,850,1639,922,8-21-2022,9-36-45,92,depth_duration_stimuli/000758_2014-06-08_22-05-08_260595134347_rgbf000085-resize_0/000758_2014-06-08_22-05-08_260595134347_rgbf000085-resize_0-target.png,125,3.3810000000000002,10,3996,141,feet,jsons/VE125_randls_36_rotated.json,762111,1020640,73,Man
92,388835,DepthScenes,duration_manipulation_targetAtFixation,jsons/VE125_randls_36_rotated.json,http://54.235.29.9/FacialAge/BNav_EC2/DepthDuration/v2_depth_duration_MTurk/v2_DepthDuration_HTML.html#63,63,1639,850,1639,922,8-21-2022,9-36-45,93,depth_duration_stimuli/000635_2014-06-08_16-38-42_260595134347_rgbf000106-resize_1/000635_2014-06-08_16-38-42_260595134347_rgbf000106-resize_1-target.png,125,2.074,11,6155,128,feet,jsons/VE125_randls_36_rotated.json,762111,1020640,73,Man
93,388835,DepthScenes,duration_manipulation_targetAtFixation,jsons/VE125_randls_36_rotated.json,http://54.235.29.9/FacialAge/BNav_EC2/DepthDuration/v2_depth_duration_MTurk/v2_DepthDuration_HTML.html#63,63,1639,850,1639,922,8-21-2022,9-36-45,94,depth_duration_stimuli/002279_2014-06-28_18-55-32_260595134347_rgbf000040-resize_5/002279_2014-06-28_18-55-32_260595134347_rgbf000040-resize_5-target.png,125,1.5043333333333,4,3368,129,feet,jsons/VE125_randls_36_rotated.json,762111,1020640,73,Man
94,388835,DepthScenes,duration_manipulation_targetAtFixation,jsons/VE125_randls_36_rotated.json,http://54.235.29.9/FacialAge/BNav_EC2/DepthDuration/v2_depth_duration_MTurk/v2_DepthDuration_HTML.html#63,63,1639,850,1639,922,8-21-2022,9-36-45,95,depth_duration_stimuli/002344_2014-06-28_20-06-29_260595134347_rgbf000030-resize_1/002344_2014-06-28_20-06-29_260595134347_rgbf000030-resize_1-target.png,125,1.5795,3,3671,120,feet,jsons/VE125_randls_36_rotated.json,762111,1020640,73,Man
95,388835,DepthScenes,duration_manipulation_targetAtFixation,jsons/VE125_randls_36_rotated.json,http://54.235.29.9/FacialAge/BNav_EC2/DepthDuration/v2_depth_duration_MTurk/v2_DepthDuration_HTML.html#63,63,1639,850,1639,922,8-21-2022,9-36-45,96,depth_duration_stimuli/002725_2014-06-22_11-47-51_094959634447_rgbf000070-resize_1/002725_2014-06-22_11-47-51_094959634447_rgbf000070-resize_1-target.png,125,2.195,8,3302,132,feet,jsons/VE125_randls_36_rotated.json,762111,1020640,73,Man
96,388835,DepthScenes,duration_manipulation_targetAtFixation,jsons/VE125_randls_36_rotated.json,http://54.235.29.9/FacialAge/BNav_EC2/DepthDuration/v2_depth_duration_MTurk/v2_DepthDuration_HTML.html#63,63,1639,850,1639,922,8-21-2022,9-36-45,97,depth_duration_stimuli/001516_2014-06-20_16-25-09_260595134347_rgbf000076-resize_2/001516_2014-06-20_16-25-09_260595134347_rgbf000076-resize_2-target.png,125,1.7445,6,3714,123,feet,jsons/VE125_randls_36_rotated.json,762111,1020640,73,Man
97,388835,DepthScenes,duration_manipulation_targetAtFixation,jsons/VE125_randls_36_rotated.json,http://54.235.29.9/FacialAge/BNav_EC2/DepthDuration/v2_depth_duration_MTurk/v2_DepthDuration_HTML.html#63,63,1639,850,1639,922,8-21-2022,9-36-45,98,depth_duration_stimuli/002118_2014-06-25_20-32-08_260595134347_rgbf000078-resize_1/002118_2014-06-25_20-32-08_260595134347_rgbf000078-resize_1-target.png,125,2.6460000000000004,8,3258,124,feet,jsons/VE125_randls_36_rotated.json,762111,1020640,73,Man
98,388835,DepthScenes,duration_manipulation_targetAtFixation,jsons/VE125_randls_36_rotated.json,http://54.235.29.9/FacialAge/BNav_EC2/DepthDuration/v2_depth_duration_MTurk/v2_DepthDuration_HTML.html#63,63,1639,850,1639,922,8-21-2022,9-36-45,99,depth_duration_stimuli/001222_2014-06-17_16-24-06_260595134347_rgbf000073-resize_0/001222_2014-06-17_16-24-06_260595134347_rgbf000073-resize-original.jpg,125,1.4385,2,3803,130,feet,jsons/VE125_randls_36_rotated.json,762111,1020640,73,Man
99,388835,DepthScenes,duration_manipulation_targetAtFixation,jsons/VE125_randls_36_rotated.json,http://54.235.29.9/FacialAge/BNav_EC2/DepthDuration/v2_depth_duration_MTurk/v2_DepthDuration_HTML.html#63,63,1639,850,1639,922,8-21-2022,9-36-45,100,depth_duration_stimuli/003081_2014-06-15_15-19-16_094959634447_rgbf000150-resize_1/003081_2014-06-15_15-19-16_094959634447_rgbf000150-resize_1-target.png,125,3.9125,6,3515,118,feet,jsons/VE125_randls_36_rotated.json,762111,1020640,73,Man
100,388835,DepthScenes,duration_manipulation_targetAtFixation,jsons/VE125_randls_36_rotated.json,http://54.235.29.9/FacialAge/BNav_EC2/DepthDuration/v2_depth_duration_MTurk/v2_DepthDuration_HTML.html#63,63,1639,850,1639,922,8-21-2022,9-36-45,101,depth_duration_stimuli/001417_2014-06-19_16-25-36_260595134347_rgbf000115-resize_5/001417_2014-06-19_16-25-36_260595134347_rgbf000115-resize_5-target.png,125,4.6255,10,4264,124,feet,jsons/VE125_randls_36_rotated.json,762111,1020640,73,Man
101,388835,DepthScenes,duration_manipulation_targetAtFixation,jsons/VE125_randls_36_rotated.json,http://54.235.29.9/FacialAge/BNav_EC2/DepthDuration/v2_depth_duration_MTurk/v2_DepthDuration_HTML.html#63,63,1639,850,1639,922,8-21-2022,9-36-45,102,depth_duration_stimuli/001032_2014-06-08_13-23-17_260595134347_rgbf000021-resize_3/001032_2014-06-08_13-23-17_260595134347_rgbf000021-resize_3-target.png,125,3.2725,6,3105,120,feet,jsons/VE125_randls_36_rotated.json,762111,1020640,73,Man
102,388835,DepthScenes,duration_manipulation_targetAtFixation,jsons/VE125_randls_36_rotated.json,http://54.235.29.9/FacialAge/BNav_EC2/DepthDuration/v2_depth_duration_MTurk/v2_DepthDuration_HTML.html#63,63,1639,850,1639,922,8-21-2022,9-36-45,103,depth_duration_stimuli/001059_2014-06-08_21-53-27_260595134347_rgbf000061-resize_4/001059_2014-06-08_21-53-27_260595134347_rgbf000061-resize_4-target.png,125,2.4185,8,3295,121,feet,jsons/VE125_randls_36_rotated.json,762111,1020640,73,Man
103,388835,DepthScenes,duration_manipulation_targetAtFixation,jsons/VE125_randls_36_rotated.json,http://54.235.29.9/FacialAge/BNav_EC2/DepthDuration/v2_depth_duration_MTurk/v2_DepthDuration_HTML.html#63,63,1639,850,1639,922,8-21-2022,9-36-45,104,depth_duration_stimuli/002875_2014-06-01_15-19-00_094959634447_rgbf000151-resize_1/002875_2014-06-01_15-19-00_094959634447_rgbf000151-resize_1-target.png,125,1.9675,3,3321,120,feet,jsons/VE125_randls_36_rotated.json,762111,1020640,73,Man
104,388835,DepthScenes,duration_manipulation_targetAtFixation,jsons/VE125_randls_36_rotated.json,http://54.235.29.9/FacialAge/BNav_EC2/DepthDuration/v2_depth_duration_MTurk/v2_DepthDuration_HTML.html#63,63,1639,850,1639,922,8-21-2022,9-36-45,105,depth_duration_stimuli/001011_2014-06-08_23-18-54_260595134347_rgbf000044-resize_4/001011_2014-06-08_23-18-54_260595134347_rgbf000044-resize_4-target.png,125,2.4730000000000003,8,4022,132,feet,jsons/VE125_randls_36_rotated.json,762111,1020640,73,Man
105,388835,DepthScenes,duration_manipulation_targetAtFixation,jsons/VE125_randls_36_rotated.json,http://54.235.29.9/FacialAge/BNav_EC2/DepthDuration/v2_depth_duration_MTurk/v2_DepthDuration_HTML.html#63,63,1639,850,1639,922,8-21-2022,9-36-45,106,depth_duration_stimuli/003079_2014-06-15_15-18-20_094959634447_rgbf000152-resize_8/003079_2014-06-15_15-18-20_094959634447_rgbf000152-resize_8-target.png,125,2.8775,10,3766,117,feet,jsons/VE125_randls_36_rotated.json,762111,1020640,73,Man
106,388835,DepthScenes,duration_manipulation_targetAtFixation,jsons/VE125_randls_36_rotated.json,http://54.235.29.9/FacialAge/BNav_EC2/DepthDuration/v2_depth_duration_MTurk/v2_DepthDuration_HTML.html#63,63,1639,850,1639,922,8-21-2022,9-36-45,107,depth_duration_stimuli/000506_2014-06-08_23-21-00_260595134347_rgbf000070-resize_7/000506_2014-06-08_23-21-00_260595134347_rgbf000070-resize_7-target.png,125,4.0585,11,3947,123,feet,jsons/VE125_randls_36_rotated.json,762111,1020640,73,Man
107,388835,DepthScenes,duration_manipulation_targetAtFixation,jsons/VE125_randls_36_rotated.json,http://54.235.29.9/FacialAge/BNav_EC2/DepthDuration/v2_depth_duration_MTurk/v2_DepthDuration_HTML.html#63,63,1639,850,1639,922,8-21-2022,9-36-45,108,depth_duration_stimuli/001132_2014-06-17_14-48-54_260595134347_rgbf000100-resize_2/001132_2014-06-17_14-48-54_260595134347_rgbf000100-resize_2-target.png,125,3.753,8,3185,121,feet,jsons/VE125_randls_36_rotated.json,762111,1020640,73,Man
108,388835,DepthScenes,duration_manipulation_targetAtFixation,jsons/VE125_randls_36_rotated.json,http://54.235.29.9/FacialAge/BNav_EC2/DepthDuration/v2_depth_duration_MTurk/v2_DepthDuration_HTML.html#63,63,1639,850,1639,922,8-21-2022,9-36-45,109,depth_duration_stimuli/001133_2014-06-17_14-49-16_260595134347_rgbf000100-resize_0/001133_2014-06-17_14-49-16_260595134347_rgbf000100-resize_0-target.png,125,4.2115,8,3402,103,feet,jsons/VE125_randls_36_rotated.json,762111,1020640,73,Man
109,388835,DepthScenes,duration_manipulation_targetAtFixation,jsons/VE125_randls_36_rotated.json,http://54.235.29.9/FacialAge/BNav_EC2/DepthDuration/v2_depth_duration_MTurk/v2_DepthDuration_HTML.html#63,63,1639,850,1639,922,8-21-2022,9-36-45,110,depth_duration_stimuli/000927_2014-06-09_16-32-30_260595134347_rgbf000123-resize_3/000927_2014-06-09_16-32-30_260595134347_rgbf000123-resize_3-target.png,125,2.6785,6,4319,133,feet,jsons/VE125_randls_36_rotated.json,762111,1020640,73,Man
110,388835,DepthScenes,duration_manipulation_targetAtFixation,jsons/VE125_randls_36_rotated.json,http://54.235.29.9/FacialAge/BNav_EC2/DepthDuration/v2_depth_duration_MTurk/v2_DepthDuration_HTML.html#63,63,1639,850,1639,922,8-21-2022,9-36-45,111,depth_duration_stimuli/001110_2014-06-15_17-25-28_260595134347_rgbf000150-resize_1/001110_2014-06-15_17-25-28_260595134347_rgbf000150-resize_1-target.png,125,1.7115,5,3551,132,feet,jsons/VE125_randls_36_rotated.json,762111,1020640,73,Man
111,388835,DepthScenes,duration_manipulation_targetAtFixation,jsons/VE125_randls_36_rotated.json,http://54.235.29.9/FacialAge/BNav_EC2/DepthDuration/v2_depth_duration_MTurk/v2_DepthDuration_HTML.html#63,63,1639,850,1639,922,8-21-2022,9-36-45,112,depth_duration_stimuli/001136_2014-06-17_15-19-41_260595134347_rgbf000076-resize_3/001136_2014-06-17_15-19-41_260595134347_rgbf000076-resize_3-target.png,125,1.8655,8,3835,131,feet,jsons/VE125_randls_36_rotated.json,762111,1020640,73,Man
112,388835,DepthScenes,duration_manipulation_targetAtFixation,jsons/VE125_randls_36_rotated.json,http://54.235.29.9/FacialAge/BNav_EC2/DepthDuration/v2_depth_duration_MTurk/v2_DepthDuration_HTML.html#63,63,1639,850,1639,922,8-21-2022,9-36-45,113,depth_duration_stimuli/001164_2014-06-17_15-35-46_260595134347_rgbf000085-resize_3/001164_2014-06-17_15-35-46_260595134347_rgbf000085-resize_3-target.png,125,2.354,7,3420,122,feet,jsons/VE125_randls_36_rotated.json,762111,1020640,73,Man
113,388835,DepthScenes,duration_manipulation_targetAtFixation,jsons/VE125_randls_36_rotated.json,http://54.235.29.9/FacialAge/BNav_EC2/DepthDuration/v2_depth_duration_MTurk/v2_DepthDuration_HTML.html#63,63,1639,850,1639,922,8-21-2022,9-36-45,114,depth_duration_stimuli/001450_2014-06-19_17-02-03_260595134347_rgbf000203-resize_4/001450_2014-06-19_17-02-03_260595134347_rgbf000203-resize_4-target.png,125,4.0106666666667,5,3756,129,feet,jsons/VE125_randls_36_rotated.json,762111,1020640,73,Man
114,388835,DepthScenes,duration_manipulation_targetAtFixation,jsons/VE125_randls_36_rotated.json,http://54.235.29.9/FacialAge/BNav_EC2/DepthDuration/v2_depth_duration_MTurk/v2_DepthDuration_HTML.html#63,63,1639,850,1639,922,8-21-2022,9-36-45,115,depth_duration_stimuli/001449_2014-06-19_17-01-27_260595134347_rgbf000116-resize_2/001449_2014-06-19_17-01-27_260595134347_rgbf000116-resize_2-target.png,125,3.452,4,3274,138,feet,jsons/VE125_randls_36_rotated.json,762111,1020640,73,Man
115,388835,DepthScenes,duration_manipulation_targetAtFixation,jsons/VE125_randls_36_rotated.json,http://54.235.29.9/FacialAge/BNav_EC2/DepthDuration/v2_depth_duration_MTurk/v2_DepthDuration_HTML.html#63,63,1639,850,1639,922,8-21-2022,9-36-45,116,depth_duration_stimuli/000734_2014-06-08_17-39-11_260595134347_rgbf000128-resize_2/000734_2014-06-08_17-39-11_260595134347_rgbf000128-resize_2-target.png,125,4.098,5,3297,131,feet,jsons/VE125_randls_36_rotated.json,762111,1020640,73,Man
116,388835,DepthScenes,duration_manipulation_targetAtFixation,jsons/VE125_randls_36_rotated.json,http://54.235.29.9/FacialAge/BNav_EC2/DepthDuration/v2_depth_duration_MTurk/v2_DepthDuration_HTML.html#63,63,1639,850,1639,922,8-21-2022,9-36-45,117,depth_duration_stimuli/000739_2014-06-08_18-45-58_260595134347_rgbf000068-resize_1/000739_2014-06-08_18-45-58_260595134347_rgbf000068-resize_1-target.png,125,3.534,8,3921,130,feet,jsons/VE125_randls_36_rotated.json,762111,1020640,73,Man
117,388835,DepthScenes,duration_manipulation_targetAtFixation,jsons/VE125_randls_36_rotated.json,http://54.235.29.9/FacialAge/BNav_EC2/DepthDuration/v2_depth_duration_MTurk/v2_DepthDuration_HTML.html#63,63,1639,850,1639,922,8-21-2022,9-36-45,118,depth_duration_stimuli/000742_2014-06-08_18-48-09_260595134347_rgbf000164-resize_4/000742_2014-06-08_18-48-09_260595134347_rgbf000164-resize_4-target.png,125,4.632,5,3737,121,feet,jsons/VE125_randls_36_rotated.json,762111,1020640,73,Man
118,388835,DepthScenes,duration_manipulation_targetAtFixation,jsons/VE125_randls_36_rotated.json,http://54.235.29.9/FacialAge/BNav_EC2/DepthDuration/v2_depth_duration_MTurk/v2_DepthDuration_HTML.html#63,63,1639,850,1639,922,8-21-2022,9-36-45,119,depth_duration_stimuli/001066_2014-06-08_22-03-20_260595134347_rgbf000066-resize_4/001066_2014-06-08_22-03-20_260595134347_rgbf000066-resize_4-target.png,125,4.2330000000000005,5,3486,132,feet,jsons/VE125_randls_36_rotated.json,762111,1020640,73,Man
119,388835,DepthScenes,duration_manipulation_targetAtFixation,jsons/VE125_randls_36_rotated.json,http://54.235.29.9/FacialAge/BNav_EC2/DepthDuration/v2_depth_duration_MTurk/v2_DepthDuration_HTML.html#63,63,1639,850,1639,922,8-21-2022,9-36-45,120,depth_duration_stimuli/000787_2014-06-08_22-33-53_260595134347_rgbf000175-resize_1/000787_2014-06-08_22-33-53_260595134347_rgbf000175-resize-original.jpg,125,4.784,0,4254,124,feet,jsons/VE125_randls_36_rotated.json,762111,1020640,73,Man
120,388835,DepthScenes,duration_manipulation_targetAtFixation,jsons/VE125_randls_36_rotated.json,http://54.235.29.9/FacialAge/BNav_EC2/DepthDuration/v2_depth_duration_MTurk/v2_DepthDuration_HTML.html#63,63,1639,850,1639,922,8-21-2022,9-36-45,121,depth_duration_stimuli/003338_2014-05-20_11-01-23_094959634447_rgbf000051-resize_6/003338_2014-05-20_11-01-23_094959634447_rgbf000051-resize_6-target.png,125,1.693,3,3546,121,feet,jsons/VE125_randls_36_rotated.json,762111,1020640,73,Man
121,388835,DepthScenes,duration_manipulation_targetAtFixation,jsons/VE125_randls_36_rotated.json,http://54.235.29.9/FacialAge/BNav_EC2/DepthDuration/v2_depth_duration_MTurk/v2_DepthDuration_HTML.html#63,63,1639,850,1639,922,8-21-2022,9-36-45,122,depth_duration_stimuli/002509_2014-06-24_13-19-22_094959634447_rgbf000077-resize_0/002509_2014-06-24_13-19-22_094959634447_rgbf000077-resize_0-target.png,125,1.3065,2,3825,113,feet,jsons/VE125_randls_36_rotated.json,762111,1020640,73,Man
122,388835,DepthScenes,duration_manipulation_targetAtFixation,jsons/VE125_randls_36_rotated.json,http://54.235.29.9/FacialAge/BNav_EC2/DepthDuration/v2_depth_duration_MTurk/v2_DepthDuration_HTML.html#63,63,1639,850,1639,922,8-21-2022,9-36-45,123,depth_duration_stimuli/002199_2014-06-28_18-33-56_260595134347_rgbf000074-resize_0/002199_2014-06-28_18-33-56_260595134347_rgbf000074-resize_0-target.png,125,1.996,3,3594,112,feet,jsons/VE125_randls_36_rotated.json,762111,1020640,73,Man
123,388835,DepthScenes,duration_manipulation_targetAtFixation,jsons/VE125_randls_36_rotated.json,http://54.235.29.9/FacialAge/BNav_EC2/DepthDuration/v2_depth_duration_MTurk/v2_DepthDuration_HTML.html#63,63,1639,850,1639,922,8-21-2022,9-36-45,124,depth_duration_stimuli/001056_2014-06-08_18-46-44_260595134347_rgbf000068-resize_0/001056_2014-06-08_18-46-44_260595134347_rgbf000068-resize_0-target.png,125,2.6625,4,3317,120,feet,jsons/VE125_randls_36_rotated.json,762111,1020640,73,Man
124,388835,DepthScenes,duration_manipulation_targetAtFixation,jsons/VE125_randls_36_rotated.json,http://54.235.29.9/FacialAge/BNav_EC2/DepthDuration/v2_depth_duration_MTurk/v2_DepthDuration_HTML.html#63,63,1639,850,1639,922,8-21-2022,9-36-45,125,depth_duration_stimuli/001052_2014-06-08_18-24-54_260595134347_rgbf000130-resize_1/001052_2014-06-08_18-24-54_260595134347_rgbf000130-resize_1-target.png,125,4.1045,5,4003,140,feet,jsons/VE125_randls_36_rotated.json,762111,1020640,73,Man
125,388835,DepthScenes,duration_manipulation_targetAtFixation,jsons/VE125_randls_36_rotated.json,http://54.235.29.9/FacialAge/BNav_EC2/DepthDuration/v2_depth_duration_MTurk/v2_DepthDuration_HTML.html#63,63,1639,850,1639,922,8-21-2022,9-36-45,126,depth_duration_stimuli/002988_2014-06-15_12-24-20_094959634447_rgbf000150-resize_1/002988_2014-06-15_12-24-20_094959634447_rgbf000150-resize_1-target.png,125,4.7669999999999995,5,3567,128,feet,jsons/VE125_randls_36_rotated.json,762111,1020640,73,Man
126,388835,DepthScenes,duration_manipulation_targetAtFixation,jsons/VE125_randls_36_rotated.json,http://54.235.29.9/FacialAge/BNav_EC2/DepthDuration/v2_depth_duration_MTurk/v2_DepthDuration_HTML.html#63,63,1639,850,1639,922,8-21-2022,9-36-45,127,depth_duration_stimuli/001617_2014-06-20_11-35-32_260595134347_rgbf000066-resize_1/001617_2014-06-20_11-35-32_260595134347_rgbf000066-resize_1-target.png,125,3.7910000000000004,6,3980,126,feet,jsons/VE125_randls_36_rotated.json,762111,1020640,73,Man
127,388835,DepthScenes,duration_manipulation_targetAtFixation,jsons/VE125_randls_36_rotated.json,http://54.235.29.9/FacialAge/BNav_EC2/DepthDuration/v2_depth_duration_MTurk/v2_DepthDuration_HTML.html#63,63,1639,850,1639,922,8-21-2022,9-36-45,128,depth_duration_stimuli/001806_2014-06-26_20-50-20_260595134347_rgbf000091-resize_1/001806_2014-06-26_20-50-20_260595134347_rgbf000091-resize_1-target.png,125,2.7305,8,3498,130,feet,jsons/VE125_randls_36_rotated.json,762111,1020640,73,Man
128,388835,DepthScenes,duration_manipulation_targetAtFixation,jsons/VE125_randls_36_rotated.json,http://54.235.29.9/FacialAge/BNav_EC2/DepthDuration/v2_depth_duration_MTurk/v2_DepthDuration_HTML.html#63,63,1639,850,1639,922,8-21-2022,9-36-45,129,depth_duration_stimuli/001447_2014-06-19_17-00-32_260595134347_rgbf000082-resize_5/001447_2014-06-19_17-00-32_260595134347_rgbf000082-resize_5-target.png,125,4.13775,5,3479,114,feet,jsons/VE125_randls_36_rotated.json,762111,1020640,73,Man
129,388835,DepthScenes,duration_manipulation_targetAtFixation,jsons/VE125_randls_36_rotated.json,http://54.235.29.9/FacialAge/BNav_EC2/DepthDuration/v2_depth_duration_MTurk/v2_DepthDuration_HTML.html#63,63,1639,850,1639,922,8-21-2022,9-36-45,130,depth_duration_stimuli/000447_2014-06-08_16-15-46_260595134347_rgbf000130-resize_1/000447_2014-06-08_16-15-46_260595134347_rgbf000130-resize_1-target.png,125,4.479,6,3676,127,feet,jsons/VE125_randls_36_rotated.json,762111,1020640,73,Man
130,388835,DepthScenes,duration_manipulation_targetAtFixation,jsons/VE125_randls_36_rotated.json,http://54.235.29.9/FacialAge/BNav_EC2/DepthDuration/v2_depth_duration_MTurk/v2_DepthDuration_HTML.html#63,63,1639,850,1639,922,8-21-2022,9-36-45,131,depth_duration_stimuli/000556_2014-06-09_22-42-56_260595134347_rgbf000214-resize_1/000556_2014-06-09_22-42-56_260595134347_rgbf000214-resize_1-target.png,125,4.8415,8,3144,123,feet,jsons/VE125_randls_36_rotated.json,762111,1020640,73,Man
131,388835,DepthScenes,duration_manipulation_targetAtFixation,jsons/VE125_randls_36_rotated.json,http://54.235.29.9/FacialAge/BNav_EC2/DepthDuration/v2_depth_duration_MTurk/v2_DepthDuration_HTML.html#63,63,1639,850,1639,922,8-21-2022,9-36-45,132,depth_duration_stimuli/001158_2014-06-17_15-32-16_260595134347_rgbf000138-resize_2/001158_2014-06-17_15-32-16_260595134347_rgbf000138-resize_2-target.png,125,4.5315,3,4666,129,feet,jsons/VE125_randls_36_rotated.json,762111,1020640,73,Man
132,388835,DepthScenes,duration_manipulation_targetAtFixation,jsons/VE125_randls_36_rotated.json,http://54.235.29.9/FacialAge/BNav_EC2/DepthDuration/v2_depth_duration_MTurk/v2_DepthDuration_HTML.html#63,63,1639,850,1639,922,8-21-2022,9-36-45,133,depth_duration_stimuli/000549_2014-06-08_22-10-24_260595134347_rgbf000247-resize_3/000549_2014-06-08_22-10-24_260595134347_rgbf000247-resize_3-target.png,125,1.841,2,3089,129,feet,jsons/VE125_randls_36_rotated.json,762111,1020640,73,Man
133,388835,DepthScenes,duration_manipulation_targetAtFixation,jsons/VE125_randls_36_rotated.json,http://54.235.29.9/FacialAge/BNav_EC2/DepthDuration/v2_depth_duration_MTurk/v2_DepthDuration_HTML.html#63,63,1639,850,1639,922,8-21-2022,9-36-45,134,depth_duration_stimuli/001055_2014-06-08_18-45-35_260595134347_rgbf000111-resize_4/001055_2014-06-08_18-45-35_260595134347_rgbf000111-resize_4-target.png,125,2.4290000000000003,8,3924,114,feet,jsons/VE125_randls_36_rotated.json,762111,1020640,73,Man
134,388835,DepthScenes,duration_manipulation_targetAtFixation,jsons/VE125_randls_36_rotated.json,http://54.235.29.9/FacialAge/BNav_EC2/DepthDuration/v2_depth_duration_MTurk/v2_DepthDuration_HTML.html#63,63,1639,850,1639,922,8-21-2022,9-36-45,135,depth_duration_stimuli/000375_2014-06-08_11-17-29_260595134347_rgbf000133-resize_2/000375_2014-06-08_11-17-29_260595134347_rgbf000133-resize-original.jpg,125,4.718,9,3361,113,feet,jsons/VE125_randls_36_rotated.json,762111,1020640,73,Man
135,388835,DepthScenes,duration_manipulation_targetAtFixation,jsons/VE125_randls_36_rotated.json,http://54.235.29.9/FacialAge/BNav_EC2/DepthDuration/v2_depth_duration_MTurk/v2_DepthDuration_HTML.html#63,63,1639,850,1639,922,8-21-2022,9-36-45,136,depth_duration_stimuli/002568_2014-06-24_13-59-21_094959634447_rgbf000062-resize_4/002568_2014-06-24_13-59-21_094959634447_rgbf000062-resize_4-target.png,125,3.015,8,3482,132,feet,jsons/VE125_randls_36_rotated.json,762111,1020640,73,Man
136,388835,DepthScenes,duration_manipulation_targetAtFixation,jsons/VE125_randls_36_rotated.json,http://54.235.29.9/FacialAge/BNav_EC2/DepthDuration/v2_depth_duration_MTurk/v2_DepthDuration_HTML.html#63,63,1639,850,1639,922,8-21-2022,9-36-45,137,depth_duration_stimuli/003492_2014-05-21_15-50-55_094959634447_rgbf000828-resize_1/003492_2014-05-21_15-50-55_094959634447_rgbf000828-resize_1-target.png,125,4.06875,8,3121,115,feet,jsons/VE125_randls_36_rotated.json,762111,1020640,73,Man
137,388835,DepthScenes,duration_manipulation_targetAtFixation,jsons/VE125_randls_36_rotated.json,http://54.235.29.9/FacialAge/BNav_EC2/DepthDuration/v2_depth_duration_MTurk/v2_DepthDuration_HTML.html#63,63,1639,850,1639,922,8-21-2022,9-36-45,138,depth_duration_stimuli/003048_2014-06-15_13-49-43_094959634447_rgbf000150-resize_1/003048_2014-06-15_13-49-43_094959634447_rgbf000150-resize_1-target.png,125,4.0035,8,7214,113,feet,jsons/VE125_randls_36_rotated.json,762111,1020640,73,Man
138,388835,DepthScenes,duration_manipulation_targetAtFixation,jsons/VE125_randls_36_rotated.json,http://54.235.29.9/FacialAge/BNav_EC2/DepthDuration/v2_depth_duration_MTurk/v2_DepthDuration_HTML.html#63,63,1639,850,1639,922,8-21-2022,9-36-45,139,depth_duration_stimuli/002043_2014-06-24_20-29-38_260595134347_rgbf000039-resize_4/002043_2014-06-24_20-29-38_260595134347_rgbf000039-resize_4-target.png,125,2.8435,9,3377,116,feet,jsons/VE125_randls_36_rotated.json,762111,1020640,73,Man
139,388835,DepthScenes,duration_manipulation_targetAtFixation,jsons/VE125_randls_36_rotated.json,http://54.235.29.9/FacialAge/BNav_EC2/DepthDuration/v2_depth_duration_MTurk/v2_DepthDuration_HTML.html#63,63,1639,850,1639,922,8-21-2022,9-36-45,140,depth_duration_stimuli/000665_2014-06-09_20-42-35_260595134347_rgbf000110-resize_1/000665_2014-06-09_20-42-35_260595134347_rgbf000110-resize_1-target.png,125,3.057,8,3451,112,feet,jsons/VE125_randls_36_rotated.json,762111,1020640,73,Man
140,388835,DepthScenes,duration_manipulation_targetAtFixation,jsons/VE125_randls_36_rotated.json,http://54.235.29.9/FacialAge/BNav_EC2/DepthDuration/v2_depth_duration_MTurk/v2_DepthDuration_HTML.html#63,63,1639,850,1639,922,8-21-2022,9-36-45,141,depth_duration_stimuli/001150_2014-06-17_15-27-34_260595134347_rgbf000108-resize_2/001150_2014-06-17_15-27-34_260595134347_rgbf000108-resize_2-target.png,125,4.0325,10,4305,112,feet,jsons/VE125_randls_36_rotated.json,762111,1020640,73,Man
141,388835,DepthScenes,duration_manipulation_targetAtFixation,jsons/VE125_randls_36_rotated.json,http://54.235.29.9/FacialAge/BNav_EC2/DepthDuration/v2_depth_duration_MTurk/v2_DepthDuration_HTML.html#63,63,1639,850,1639,922,8-21-2022,9-36-45,142,depth_duration_stimuli/003228_2014-05-14_13-42-35_094959634447_rgbf000101-resize_1/003228_2014-05-14_13-42-35_094959634447_rgbf000101-resize_1-target.png,125,1.9680000000000002,4,3484,128,feet,jsons/VE125_randls_36_rotated.json,762111,1020640,73,Man
142,388835,DepthScenes,duration_manipulation_targetAtFixation,jsons/VE125_randls_36_rotated.json,http://54.235.29.9/FacialAge/BNav_EC2/DepthDuration/v2_depth_duration_MTurk/v2_DepthDuration_HTML.html#63,63,1639,850,1639,922,8-21-2022,9-36-45,143,depth_duration_stimuli/002600_2014-06-24_14-27-04_094959634447_rgbf000074-resize_2/002600_2014-06-24_14-27-04_094959634447_rgbf000074-resize_2-target.png,125,2.7575,7,3564,131,feet,jsons/VE125_randls_36_rotated.json,762111,1020640,73,Man
143,388835,DepthScenes,duration_manipulation_targetAtFixation,jsons/VE125_randls_36_rotated.json,http://54.235.29.9/FacialAge/BNav_EC2/DepthDuration/v2_depth_duration_MTurk/v2_DepthDuration_HTML.html#63,63,1639,850,1639,922,8-21-2022,9-36-45,144,depth_duration_stimuli/002323_2014-06-28_20-01-54_260595134347_rgbf000051-resize_4/002323_2014-06-28_20-01-54_260595134347_rgbf000051-resize_4-target.png,125,3.7310000000000003,8,3448,134,feet,jsons/VE125_randls_36_rotated.json,762111,1020640,73,Man
144,388835,DepthScenes,duration_manipulation_targetAtFixation,jsons/VE125_randls_36_rotated.json,http://54.235.29.9/FacialAge/BNav_EC2/DepthDuration/v2_depth_duration_MTurk/v2_DepthDuration_HTML.html#63,63,1639,850,1639,922,8-21-2022,9-36-45,145,depth_duration_stimuli/000917_2014-06-09_22-45-29_260595134347_rgbf000149-resize_3/000917_2014-06-09_22-45-29_260595134347_rgbf000149-resize_3-target.png,125,4.1865,10,3948,132,feet,jsons/VE125_randls_36_rotated.json,762111,1020640,73,Man
145,388835,DepthScenes,duration_manipulation_targetAtFixation,jsons/VE125_randls_36_rotated.json,http://54.235.29.9/FacialAge/BNav_EC2/DepthDuration/v2_depth_duration_MTurk/v2_DepthDuration_HTML.html#63,63,1639,850,1639,922,8-21-2022,9-36-45,146,depth_duration_stimuli/001235_2014-06-17_16-37-36_260595134347_rgbf000084-resize_4/001235_2014-06-17_16-37-36_260595134347_rgbf000084-resize_4-target.png,125,3.6605,9,3777,138,feet,jsons/VE125_randls_36_rotated.json,762111,1020640,73,Man
146,388835,DepthScenes,duration_manipulation_targetAtFixation,jsons/VE125_randls_36_rotated.json,http://54.235.29.9/FacialAge/BNav_EC2/DepthDuration/v2_depth_duration_MTurk/v2_DepthDuration_HTML.html#63,63,1639,850,1639,922,8-21-2022,9-36-45,147,depth_duration_stimuli/000788_2014-06-08_22-34-36_260595134347_rgbf000131-resize_1/000788_2014-06-08_22-34-36_260595134347_rgbf000131-resize_1-target.png,125,3.359,8,3378,120,feet,jsons/VE125_randls_36_rotated.json,762111,1020640,73,Man
147,388835,DepthScenes,duration_manipulation_targetAtFixation,jsons/VE125_randls_36_rotated.json,http://54.235.29.9/FacialAge/BNav_EC2/DepthDuration/v2_depth_duration_MTurk/v2_DepthDuration_HTML.html#63,63,1639,850,1639,922,8-21-2022,9-36-45,148,depth_duration_stimuli/000457_2014-06-08_16-52-43_260595134347_rgbf000199-resize_1/000457_2014-06-08_16-52-43_260595134347_rgbf000199-resize_1-target.png,125,3.6489999999999996,8,3675,126,feet,jsons/VE125_randls_36_rotated.json,762111,1020640,73,Man
148,388835,DepthScenes,duration_manipulation_targetAtFixation,jsons/VE125_randls_36_rotated.json,http://54.235.29.9/FacialAge/BNav_EC2/DepthDuration/v2_depth_duration_MTurk/v2_DepthDuration_HTML.html#63,63,1639,850,1639,922,8-21-2022,9-36-45,149,depth_duration_stimuli/000929_2014-06-09_16-33-19_260595134347_rgbf000139-resize_0/000929_2014-06-09_16-33-19_260595134347_rgbf000139-resize_0-target.png,125,2.8680000000000003,6,3465,116,feet,jsons/VE125_randls_36_rotated.json,762111,1020640,73,Man
149,388835,DepthScenes,duration_manipulation_targetAtFixation,jsons/VE125_randls_36_rotated.json,http://54.235.29.9/FacialAge/BNav_EC2/DepthDuration/v2_depth_duration_MTurk/v2_DepthDuration_HTML.html#63,63,1639,850,1639,922,8-21-2022,9-36-45,150,depth_duration_stimuli/002414_2014-06-28_20-24-58_260595134347_rgbf000067-resize_4/002414_2014-06-28_20-24-58_260595134347_rgbf000067-resize_4-target.png,125,4.363,8,3396,124,feet,jsons/VE125_randls_36_rotated.json,762111,1020640,73,Man
150,388835,DepthScenes,duration_manipulation_targetAtFixation,jsons/VE125_randls_36_rotated.json,http://54.235.29.9/FacialAge/BNav_EC2/DepthDuration/v2_depth_duration_MTurk/v2_DepthDuration_HTML.html#63,63,1639,850,1639,922,8-21-2022,9-36-45,151,depth_duration_stimuli/000773_2014-06-08_22-24-54_260595134347_rgbf000093-resize_1/000773_2014-06-08_22-24-54_260595134347_rgbf000093-resize_1-target.png,125,4.973,5,3758,115,feet,jsons/VE125_randls_36_rotated.json,762111,1020640,73,Man
151,388835,DepthScenes,duration_manipulation_targetAtFixation,jsons/VE125_randls_36_rotated.json,http://54.235.29.9/FacialAge/BNav_EC2/DepthDuration/v2_depth_duration_MTurk/v2_DepthDuration_HTML.html#63,63,1639,850,1639,922,8-21-2022,9-36-45,152,depth_duration_stimuli/000569_2014-06-09_22-51-47_260595134347_rgbf000141-resize_3/000569_2014-06-09_22-51-47_260595134347_rgbf000141-resize-original.jpg,125,4.512,8,3489,127,feet,jsons/VE125_randls_36_rotated.json,762111,1020640,73,Man
152,388835,DepthScenes,duration_manipulation_targetAtFixation,jsons/VE125_randls_36_rotated.json,http://54.235.29.9/FacialAge/BNav_EC2/DepthDuration/v2_depth_duration_MTurk/v2_DepthDuration_HTML.html#63,63,1639,850,1639,922,8-21-2022,9-36-45,153,depth_duration_stimuli/002949_2014-06-26_15-57-42_094959634447_rgbf000079-resize_1/002949_2014-06-26_15-57-42_094959634447_rgbf000079-resize_1-target.png,125,1.8915,5,4027,136,feet,jsons/VE125_randls_36_rotated.json,762111,1020640,73,Man
153,388835,DepthScenes,duration_manipulation_targetAtFixation,jsons/VE125_randls_36_rotated.json,http://54.235.29.9/FacialAge/BNav_EC2/DepthDuration/v2_depth_duration_MTurk/v2_DepthDuration_HTML.html#63,63,1639,850,1639,922,8-21-2022,9-36-45,154,depth_duration_stimuli/000522_2014-06-08_13-35-06_260595134347_rgbf000244-resize_1/000522_2014-06-08_13-35-06_260595134347_rgbf000244-resize_1-target.png,125,2.3715,4,3311,127,feet,jsons/VE125_randls_36_rotated.json,762111,1020640,73,Man
154,388835,DepthScenes,duration_manipulation_targetAtFixation,jsons/VE125_randls_36_rotated.json,http://54.235.29.9/FacialAge/BNav_EC2/DepthDuration/v2_depth_duration_MTurk/v2_DepthDuration_HTML.html#63,63,1639,850,1639,922,8-21-2022,9-36-45,155,depth_duration_stimuli/002660_2014-06-13_15-44-18_094959634447_rgbf001878-resize_2/002660_2014-06-13_15-44-18_094959634447_rgbf001878-resize_2-target.png,125,3.576,10,13104,120,feet,jsons/VE125_randls_36_rotated.json,762111,1020640,73,Man
155,388835,DepthScenes,duration_manipulation_targetAtFixation,jsons/VE125_randls_36_rotated.json,http://54.235.29.9/FacialAge/BNav_EC2/DepthDuration/v2_depth_duration_MTurk/v2_DepthDuration_HTML.html#63,63,1639,850,1639,922,8-21-2022,9-36-45,156,depth_duration_stimuli/002153_2014-06-25_21-27-18_260595134347_rgbf000038-resize_5/002153_2014-06-25_21-27-18_260595134347_rgbf000038-resize_5-target.png,125,2.505,6,3527,129,feet,jsons/VE125_randls_36_rotated.json,762111,1020640,73,Man
156,388835,DepthScenes,duration_manipulation_targetAtFixation,jsons/VE125_randls_36_rotated.json,http://54.235.29.9/FacialAge/BNav_EC2/DepthDuration/v2_depth_duration_MTurk/v2_DepthDuration_HTML.html#63,63,1639,850,1639,922,8-21-2022,9-36-45,157,depth_duration_stimuli/002136_2014-06-25_21-18-03_260595134347_rgbf000109-resize_3/002136_2014-06-25_21-18-03_260595134347_rgbf000109-resize_3-target.png,125,1.9569999999999999,2,3525,131,feet,jsons/VE125_randls_36_rotated.json,762111,1020640,73,Man
157,388835,DepthScenes,duration_manipulation_targetAtFixation,jsons/VE125_randls_36_rotated.json,http://54.235.29.9/FacialAge/BNav_EC2/DepthDuration/v2_depth_duration_MTurk/v2_DepthDuration_HTML.html#63,63,1639,850,1639,922,8-21-2022,9-36-45,158,depth_duration_stimuli/002964_2014-06-08_17-46-11_094959634447_rgbf000091-resize_4/002964_2014-06-08_17-46-11_094959634447_rgbf000091-resize_4-target.png,125,1.6909999999999998,2,3370,120,feet,jsons/VE125_randls_36_rotated.json,762111,1020640,73,Man
158,388835,DepthScenes,duration_manipulation_targetAtFixation,jsons/VE125_randls_36_rotated.json,http://54.235.29.9/FacialAge/BNav_EC2/DepthDuration/v2_depth_duration_MTurk/v2_DepthDuration_HTML.html#63,63,1639,850,1639,922,8-21-2022,9-36-45,159,depth_duration_stimuli/001392_2014-06-19_16-07-59_260595134347_rgbf000046-resize_1/001392_2014-06-19_16-07-59_260595134347_rgbf000046-resize_1-target.png,125,4.135,8,3934,111,feet,jsons/VE125_randls_36_rotated.json,762111,1020640,73,Man
159,388835,DepthScenes,duration_manipulation_targetAtFixation,jsons/VE125_randls_36_rotated.json,http://54.235.29.9/FacialAge/BNav_EC2/DepthDuration/v2_depth_duration_MTurk/v2_DepthDuration_HTML.html#63,63,1639,850,1639,922,8-21-2022,9-36-45,160,depth_duration_stimuli/001570_2014-06-20_17-21-09_260595134347_rgbf000135-resize_4/001570_2014-06-20_17-21-09_260595134347_rgbf000135-resize_4-target.png,125,4.467,10,3950,126,feet,jsons/VE125_randls_36_rotated.json,762111,1020640,73,Man
160,388835,DepthScenes,duration_manipulation_targetAtFixation,jsons/VE125_randls_36_rotated.json,http://54.235.29.9/FacialAge/BNav_EC2/DepthDuration/v2_depth_duration_MTurk/v2_DepthDuration_HTML.html#63,63,1639,850,1639,922,8-21-2022,9-36-45,161,depth_duration_stimuli/000137_2014-05-20_17-04-49_260595134347_rgbf000120-resize_1/000137_2014-05-20_17-04-49_260595134347_rgbf000120-resize_1-target.png,125,3.786,8,3694,111,feet,jsons/VE125_randls_36_rotated.json,762111,1020640,73,Man
161,388835,DepthScenes,duration_manipulation_targetAtFixation,jsons/VE125_randls_36_rotated.json,http://54.235.29.9/FacialAge/BNav_EC2/DepthDuration/v2_depth_duration_MTurk/v2_DepthDuration_HTML.html#63,63,1639,850,1639,922,8-21-2022,9-36-45,162,depth_duration_stimuli/000736_2014-06-08_18-24-15_260595134347_rgbf000206-resize_3/000736_2014-06-08_18-24-15_260595134347_rgbf000206-resize_3-target.png,125,3.515,8,4367,132,feet,jsons/VE125_randls_36_rotated.json,762111,1020640,73,Man
162,388835,DepthScenes,duration_manipulation_targetAtFixation,jsons/VE125_randls_36_rotated.json,http://54.235.29.9/FacialAge/BNav_EC2/DepthDuration/v2_depth_duration_MTurk/v2_DepthDuration_HTML.html#63,63,1639,850,1639,922,8-21-2022,9-36-45,163,depth_duration_stimuli/000749_2014-06-08_21-55-06_260595134347_rgbf000070-resize_2/000749_2014-06-08_21-55-06_260595134347_rgbf000070-resize_2-target.png,125,2.331,9,3725,135,feet,jsons/VE125_randls_36_rotated.json,762111,1020640,73,Man
163,388835,DepthScenes,duration_manipulation_targetAtFixation,jsons/VE125_randls_36_rotated.json,http://54.235.29.9/FacialAge/BNav_EC2/DepthDuration/v2_depth_duration_MTurk/v2_DepthDuration_HTML.html#63,63,1639,850,1639,922,8-21-2022,9-36-45,164,depth_duration_stimuli/002788_2014-06-22_19-36-03_094959634447_rgbf000088-resize_2/002788_2014-06-22_19-36-03_094959634447_rgbf000088-resize_2-target.png,125,1.6465,8,3843,118,feet,jsons/VE125_randls_36_rotated.json,762111,1020640,73,Man
