,subjID,experimentName,versionName,sequenceName,url,selected_row,windowWidth,windowHeight,screenWidth,screenHeight,startDate,startTime,trial,stimulus,duration,actual_depth,depth_estimate,trial_RT,log_sceneDuration,unitSelection,seq_filepath,experimentTime,totalTime,age,gender
0,390384,DepthScenes,duration_manipulation_targetAtFixation,jsons/v1_VE250_randls_47.json,http://54.235.29.9/FacialAge/BNav_EC2/DepthDuration/v2_depth_duration_MTurk/v2_DepthDuration_HTML.html#261,261,1360,625,1360,768,8-29-2022,14-52-7,1,depth_duration_stimuli/003070_2014-06-15_14-58-27_094959634447_rgbf000150-resize_3/003070_2014-06-15_14-58-27_094959634447_rgbf000150-resize_3-target.png,250,2.9415,6,2962,250,feet,jsons/v1_VE250_randls_47.json,505380,619602,34,Man
1,390384,DepthScenes,duration_manipulation_targetAtFixation,jsons/v1_VE250_randls_47.json,http://54.235.29.9/FacialAge/BNav_EC2/DepthDuration/v2_depth_duration_MTurk/v2_DepthDuration_HTML.html#261,261,1360,625,1360,768,8-29-2022,14-52-7,2,depth_duration_stimuli/000943_2014-06-09_19-31-07_260595134347_rgbf000128-resize_1/000943_2014-06-09_19-31-07_260595134347_rgbf000128-resize_1-target.png,250,1.9765,4,2923,248,feet,jsons/v1_VE250_randls_47.json,505380,619602,34,Man
2,390384,DepthScenes,duration_manipulation_targetAtFixation,jsons/v1_VE250_randls_47.json,http://54.235.29.9/FacialAge/BNav_EC2/DepthDuration/v2_depth_duration_MTurk/v2_DepthDuration_HTML.html#261,261,1360,625,1360,768,8-29-2022,14-52-7,3,depth_duration_stimuli/002630_2014-06-24_14-47-50_094959634447_rgbf000055-resize_1/002630_2014-06-24_14-47-50_094959634447_rgbf000055-resize_1-target.png,250,3.0095,8,2351,246,feet,jsons/v1_VE250_randls_47.json,505380,619602,34,Man
3,390384,DepthScenes,duration_manipulation_targetAtFixation,jsons/v1_VE250_randls_47.json,http://54.235.29.9/FacialAge/BNav_EC2/DepthDuration/v2_depth_duration_MTurk/v2_DepthDuration_HTML.html#261,261,1360,625,1360,768,8-29-2022,14-52-7,4,depth_duration_stimuli/002758_2014-06-22_19-11-20_094959634447_rgbf000128-resize_1/002758_2014-06-22_19-11-20_094959634447_rgbf000128-resize_1-target.png,250,2.555,4,2623,246,feet,jsons/v1_VE250_randls_47.json,505380,619602,34,Man
4,390384,DepthScenes,duration_manipulation_targetAtFixation,jsons/v1_VE250_randls_47.json,http://54.235.29.9/FacialAge/BNav_EC2/DepthDuration/v2_depth_duration_MTurk/v2_DepthDuration_HTML.html#261,261,1360,625,1360,768,8-29-2022,14-52-7,5,depth_duration_stimuli/000436_2014-06-09_22-25-11_260595134347_rgbf000137-resize_1/000436_2014-06-09_22-25-11_260595134347_rgbf000137-resize_1-target.png,250,4.0705,9,2442,260,feet,jsons/v1_VE250_randls_47.json,505380,619602,34,Man
5,390384,DepthScenes,duration_manipulation_targetAtFixation,jsons/v1_VE250_randls_47.json,http://54.235.29.9/FacialAge/BNav_EC2/DepthDuration/v2_depth_duration_MTurk/v2_DepthDuration_HTML.html#261,261,1360,625,1360,768,8-29-2022,14-52-7,6,depth_duration_stimuli/002444_2014-06-28_20-32-08_260595134347_rgbf000027-resize_0/002444_2014-06-28_20-32-08_260595134347_rgbf000027-resize_0-target.png,250,4.388999999999999,6,2408,245,feet,jsons/v1_VE250_randls_47.json,505380,619602,34,Man
6,390384,DepthScenes,duration_manipulation_targetAtFixation,jsons/v1_VE250_randls_47.json,http://54.235.29.9/FacialAge/BNav_EC2/DepthDuration/v2_depth_duration_MTurk/v2_DepthDuration_HTML.html#261,261,1360,625,1360,768,8-29-2022,14-52-7,7,depth_duration_stimuli/000736_2014-06-08_18-24-15_260595134347_rgbf000206-resize_3/000736_2014-06-08_18-24-15_260595134347_rgbf000206-resize_3-target.png,250,3.515,5,2401,249,feet,jsons/v1_VE250_randls_47.json,505380,619602,34,Man
7,390384,DepthScenes,duration_manipulation_targetAtFixation,jsons/v1_VE250_randls_47.json,http://54.235.29.9/FacialAge/BNav_EC2/DepthDuration/v2_depth_duration_MTurk/v2_DepthDuration_HTML.html#261,261,1360,625,1360,768,8-29-2022,14-52-7,8,depth_duration_stimuli/000137_2014-05-20_17-04-49_260595134347_rgbf000120-resize_1/000137_2014-05-20_17-04-49_260595134347_rgbf000120-resize_1-target.png,250,3.786,7,2165,217,feet,jsons/v1_VE250_randls_47.json,505380,619602,34,Man
8,390384,DepthScenes,duration_manipulation_targetAtFixation,jsons/v1_VE250_randls_47.json,http://54.235.29.9/FacialAge/BNav_EC2/DepthDuration/v2_depth_duration_MTurk/v2_DepthDuration_HTML.html#261,261,1360,625,1360,768,8-29-2022,14-52-7,9,depth_duration_stimuli/002039_2014-06-24_20-22-38_260595134347_rgbf000084-resize_1/002039_2014-06-24_20-22-38_260595134347_rgbf000084-resize_1-target.png,250,4.408,7,2447,247,feet,jsons/v1_VE250_randls_47.json,505380,619602,34,Man
9,390384,DepthScenes,duration_manipulation_targetAtFixation,jsons/v1_VE250_randls_47.json,http://54.235.29.9/FacialAge/BNav_EC2/DepthDuration/v2_depth_duration_MTurk/v2_DepthDuration_HTML.html#261,261,1360,625,1360,768,8-29-2022,14-52-7,10,depth_duration_stimuli/002103_2014-06-25_20-00-40_260595134347_rgbf000049-resize_0/002103_2014-06-25_20-00-40_260595134347_rgbf000049-resize_0-target.png,250,4.105,0,2342,265,feet,jsons/v1_VE250_randls_47.json,505380,619602,34,Man
10,390384,DepthScenes,duration_manipulation_targetAtFixation,jsons/v1_VE250_randls_47.json,http://54.235.29.9/FacialAge/BNav_EC2/DepthDuration/v2_depth_duration_MTurk/v2_DepthDuration_HTML.html#261,261,1360,625,1360,768,8-29-2022,14-52-7,11,depth_duration_stimuli/002509_2014-06-24_13-19-22_094959634447_rgbf000077-resize_0/002509_2014-06-24_13-19-22_094959634447_rgbf000077-resize_0-target.png,250,1.3065,3,2924,254,feet,jsons/v1_VE250_randls_47.json,505380,619602,34,Man
11,390384,DepthScenes,duration_manipulation_targetAtFixation,jsons/v1_VE250_randls_47.json,http://54.235.29.9/FacialAge/BNav_EC2/DepthDuration/v2_depth_duration_MTurk/v2_DepthDuration_HTML.html#261,261,1360,625,1360,768,8-29-2022,14-52-7,12,depth_duration_stimuli/003338_2014-05-20_11-01-23_094959634447_rgbf000051-resize_6/003338_2014-05-20_11-01-23_094959634447_rgbf000051-resize_6-target.png,250,1.693,3,2926,249,feet,jsons/v1_VE250_randls_47.json,505380,619602,34,Man
12,390384,DepthScenes,duration_manipulation_targetAtFixation,jsons/v1_VE250_randls_47.json,http://54.235.29.9/FacialAge/BNav_EC2/DepthDuration/v2_depth_duration_MTurk/v2_DepthDuration_HTML.html#261,261,1360,625,1360,768,8-29-2022,14-52-7,13,depth_duration_stimuli/000569_2014-06-09_22-51-47_260595134347_rgbf000141-resize_3/000569_2014-06-09_22-51-47_260595134347_rgbf000141-resize-original.jpg,250,4.512,0,13369,232,feet,jsons/v1_VE250_randls_47.json,505380,619602,34,Man
13,390384,DepthScenes,duration_manipulation_targetAtFixation,jsons/v1_VE250_randls_47.json,http://54.235.29.9/FacialAge/BNav_EC2/DepthDuration/v2_depth_duration_MTurk/v2_DepthDuration_HTML.html#261,261,1360,625,1360,768,8-29-2022,14-52-7,14,depth_duration_stimuli/002272_2014-06-28_18-53-56_260595134347_rgbf000067-resize_2/002272_2014-06-28_18-53-56_260595134347_rgbf000067-resize_2-target.png,250,1.138,3,2927,249,feet,jsons/v1_VE250_randls_47.json,505380,619602,34,Man
14,390384,DepthScenes,duration_manipulation_targetAtFixation,jsons/v1_VE250_randls_47.json,http://54.235.29.9/FacialAge/BNav_EC2/DepthDuration/v2_depth_duration_MTurk/v2_DepthDuration_HTML.html#261,261,1360,625,1360,768,8-29-2022,14-52-7,15,depth_duration_stimuli/001571_2014-06-20_17-21-32_260595134347_rgbf000089-resize_1/001571_2014-06-20_17-21-32_260595134347_rgbf000089-resize_1-target.png,250,1.86,4,5036,249,feet,jsons/v1_VE250_randls_47.json,505380,619602,34,Man
15,390384,DepthScenes,duration_manipulation_targetAtFixation,jsons/v1_VE250_randls_47.json,http://54.235.29.9/FacialAge/BNav_EC2/DepthDuration/v2_depth_duration_MTurk/v2_DepthDuration_HTML.html#261,261,1360,625,1360,768,8-29-2022,14-52-7,16,depth_duration_stimuli/002118_2014-06-25_20-32-08_260595134347_rgbf000078-resize_1/002118_2014-06-25_20-32-08_260595134347_rgbf000078-resize_1-target.png,250,2.6460000000000004,6,3140,248,feet,jsons/v1_VE250_randls_47.json,505380,619602,34,Man
16,390384,DepthScenes,duration_manipulation_targetAtFixation,jsons/v1_VE250_randls_47.json,http://54.235.29.9/FacialAge/BNav_EC2/DepthDuration/v2_depth_duration_MTurk/v2_DepthDuration_HTML.html#261,261,1360,625,1360,768,8-29-2022,14-52-7,17,depth_duration_stimuli/001516_2014-06-20_16-25-09_260595134347_rgbf000076-resize_2/001516_2014-06-20_16-25-09_260595134347_rgbf000076-resize_2-target.png,250,1.7445,5,2789,265,feet,jsons/v1_VE250_randls_47.json,505380,619602,34,Man
17,390384,DepthScenes,duration_manipulation_targetAtFixation,jsons/v1_VE250_randls_47.json,http://54.235.29.9/FacialAge/BNav_EC2/DepthDuration/v2_depth_duration_MTurk/v2_DepthDuration_HTML.html#261,261,1360,625,1360,768,8-29-2022,14-52-7,18,depth_duration_stimuli/002549_2014-06-24_13-41-39_094959634447_rgbf000022-resize_3/002549_2014-06-24_13-41-39_094959634447_rgbf000022-resize_3-target.png,250,1.476,4,2392,244,feet,jsons/v1_VE250_randls_47.json,505380,619602,34,Man
18,390384,DepthScenes,duration_manipulation_targetAtFixation,jsons/v1_VE250_randls_47.json,http://54.235.29.9/FacialAge/BNav_EC2/DepthDuration/v2_depth_duration_MTurk/v2_DepthDuration_HTML.html#261,261,1360,625,1360,768,8-29-2022,14-52-7,19,depth_duration_stimuli/002750_2014-06-22_19-08-03_094959634447_rgbf000094-resize_4/002750_2014-06-22_19-08-03_094959634447_rgbf000094-resize_4-target.png,250,2.354,6,2567,251,feet,jsons/v1_VE250_randls_47.json,505380,619602,34,Man
19,390384,DepthScenes,duration_manipulation_targetAtFixation,jsons/v1_VE250_randls_47.json,http://54.235.29.9/FacialAge/BNav_EC2/DepthDuration/v2_depth_duration_MTurk/v2_DepthDuration_HTML.html#261,261,1360,625,1360,768,8-29-2022,14-52-7,20,depth_duration_stimuli/000682_2014-06-08_23-14-58_260595134347_rgbf000041-resize_5/000682_2014-06-08_23-14-58_260595134347_rgbf000041-resize_5-target.png,250,2.7239999999999998,7,2521,256,feet,jsons/v1_VE250_randls_47.json,505380,619602,34,Man
20,390384,DepthScenes,duration_manipulation_targetAtFixation,jsons/v1_VE250_randls_47.json,http://54.235.29.9/FacialAge/BNav_EC2/DepthDuration/v2_depth_duration_MTurk/v2_DepthDuration_HTML.html#261,261,1360,625,1360,768,8-29-2022,14-52-7,21,depth_duration_stimuli/001650_2014-06-20_12-09-00_260595134347_rgbf000087-resize_3/001650_2014-06-20_12-09-00_260595134347_rgbf000087-resize_3-target.png,250,1.9505,2,2975,243,feet,jsons/v1_VE250_randls_47.json,505380,619602,34,Man
21,390384,DepthScenes,duration_manipulation_targetAtFixation,jsons/v1_VE250_randls_47.json,http://54.235.29.9/FacialAge/BNav_EC2/DepthDuration/v2_depth_duration_MTurk/v2_DepthDuration_HTML.html#261,261,1360,625,1360,768,8-29-2022,14-52-7,22,depth_duration_stimuli/001158_2014-06-17_15-32-16_260595134347_rgbf000138-resize_2/001158_2014-06-17_15-32-16_260595134347_rgbf000138-resize_2-target.png,250,4.5315,8,3152,249,feet,jsons/v1_VE250_randls_47.json,505380,619602,34,Man
22,390384,DepthScenes,duration_manipulation_targetAtFixation,jsons/v1_VE250_randls_47.json,http://54.235.29.9/FacialAge/BNav_EC2/DepthDuration/v2_depth_duration_MTurk/v2_DepthDuration_HTML.html#261,261,1360,625,1360,768,8-29-2022,14-52-7,23,depth_duration_stimuli/000556_2014-06-09_22-42-56_260595134347_rgbf000214-resize_1/000556_2014-06-09_22-42-56_260595134347_rgbf000214-resize_1-target.png,250,4.8415,8,2833,245,feet,jsons/v1_VE250_randls_47.json,505380,619602,34,Man
23,390384,DepthScenes,duration_manipulation_targetAtFixation,jsons/v1_VE250_randls_47.json,http://54.235.29.9/FacialAge/BNav_EC2/DepthDuration/v2_depth_duration_MTurk/v2_DepthDuration_HTML.html#261,261,1360,625,1360,768,8-29-2022,14-52-7,24,depth_duration_stimuli/002748_2014-06-22_19-07-22_094959634447_rgbf000078-resize_1/002748_2014-06-22_19-07-22_094959634447_rgbf000078-resize_1-target.png,250,4.6705,10,3244,236,feet,jsons/v1_VE250_randls_47.json,505380,619602,34,Man
24,390384,DepthScenes,duration_manipulation_targetAtFixation,jsons/v1_VE250_randls_47.json,http://54.235.29.9/FacialAge/BNav_EC2/DepthDuration/v2_depth_duration_MTurk/v2_DepthDuration_HTML.html#261,261,1360,625,1360,768,8-29-2022,14-52-7,25,depth_duration_stimuli/002995_2014-06-15_12-31-26_094959634447_rgbf000150-resize_1/002995_2014-06-15_12-31-26_094959634447_rgbf000150-resize_1-target.png,250,3.8360000000000003,7,3062,241,feet,jsons/v1_VE250_randls_47.json,505380,619602,34,Man
25,390384,DepthScenes,duration_manipulation_targetAtFixation,jsons/v1_VE250_randls_47.json,http://54.235.29.9/FacialAge/BNav_EC2/DepthDuration/v2_depth_duration_MTurk/v2_DepthDuration_HTML.html#261,261,1360,625,1360,768,8-29-2022,14-52-7,26,depth_duration_stimuli/003621_2014-05-23_18-06-08_094959634447_rgbf000101-resize_1/003621_2014-05-23_18-06-08_094959634447_rgbf000101-resize_1-target.png,250,3.9835,9,3902,248,feet,jsons/v1_VE250_randls_47.json,505380,619602,34,Man
26,390384,DepthScenes,duration_manipulation_targetAtFixation,jsons/v1_VE250_randls_47.json,http://54.235.29.9/FacialAge/BNav_EC2/DepthDuration/v2_depth_duration_MTurk/v2_DepthDuration_HTML.html#261,261,1360,625,1360,768,8-29-2022,14-52-7,27,depth_duration_stimuli/001584_2014-06-20_11-07-43_260595134347_rgbf000002-resize_1/001584_2014-06-20_11-07-43_260595134347_rgbf000002-resize_1-target.png,250,3.53,6,2791,250,feet,jsons/v1_VE250_randls_47.json,505380,619602,34,Man
27,390384,DepthScenes,duration_manipulation_targetAtFixation,jsons/v1_VE250_randls_47.json,http://54.235.29.9/FacialAge/BNav_EC2/DepthDuration/v2_depth_duration_MTurk/v2_DepthDuration_HTML.html#261,261,1360,625,1360,768,8-29-2022,14-52-7,28,depth_duration_stimuli/000878_2014-06-08_22-52-45_260595134347_rgbf000045-resize_2/000878_2014-06-08_22-52-45_260595134347_rgbf000045-resize_2-target.png,250,2.092,5,3110,249,feet,jsons/v1_VE250_randls_47.json,505380,619602,34,Man
28,390384,DepthScenes,duration_manipulation_targetAtFixation,jsons/v1_VE250_randls_47.json,http://54.235.29.9/FacialAge/BNav_EC2/DepthDuration/v2_depth_duration_MTurk/v2_DepthDuration_HTML.html#261,261,1360,625,1360,768,8-29-2022,14-52-7,29,depth_duration_stimuli/002953_2014-06-08_17-32-18_094959634447_rgbf000059-resize_5/002953_2014-06-08_17-32-18_094959634447_rgbf000059-resize_5-target.png,250,1.551,3,2502,251,feet,jsons/v1_VE250_randls_47.json,505380,619602,34,Man
29,390384,DepthScenes,duration_manipulation_targetAtFixation,jsons/v1_VE250_randls_47.json,http://54.235.29.9/FacialAge/BNav_EC2/DepthDuration/v2_depth_duration_MTurk/v2_DepthDuration_HTML.html#261,261,1360,625,1360,768,8-29-2022,14-52-7,30,depth_duration_stimuli/000375_2014-06-08_11-17-29_260595134347_rgbf000133-resize_2/000375_2014-06-08_11-17-29_260595134347_rgbf000133-resize-original.jpg,250,4.718,0,2672,237,feet,jsons/v1_VE250_randls_47.json,505380,619602,34,Man
30,390384,DepthScenes,duration_manipulation_targetAtFixation,jsons/v1_VE250_randls_47.json,http://54.235.29.9/FacialAge/BNav_EC2/DepthDuration/v2_depth_duration_MTurk/v2_DepthDuration_HTML.html#261,261,1360,625,1360,768,8-29-2022,14-52-7,31,depth_duration_stimuli/001133_2014-06-17_14-49-16_260595134347_rgbf000100-resize_0/001133_2014-06-17_14-49-16_260595134347_rgbf000100-resize_0-target.png,250,4.2115,7,2558,249,feet,jsons/v1_VE250_randls_47.json,505380,619602,34,Man
31,390384,DepthScenes,duration_manipulation_targetAtFixation,jsons/v1_VE250_randls_47.json,http://54.235.29.9/FacialAge/BNav_EC2/DepthDuration/v2_depth_duration_MTurk/v2_DepthDuration_HTML.html#261,261,1360,625,1360,768,8-29-2022,14-52-7,32,depth_duration_stimuli/001132_2014-06-17_14-48-54_260595134347_rgbf000100-resize_2/001132_2014-06-17_14-48-54_260595134347_rgbf000100-resize_2-target.png,250,3.753,7,2562,248,feet,jsons/v1_VE250_randls_47.json,505380,619602,34,Man
32,390384,DepthScenes,duration_manipulation_targetAtFixation,jsons/v1_VE250_randls_47.json,http://54.235.29.9/FacialAge/BNav_EC2/DepthDuration/v2_depth_duration_MTurk/v2_DepthDuration_HTML.html#261,261,1360,625,1360,768,8-29-2022,14-52-7,33,depth_duration_stimuli/001167_2014-06-17_15-38-07_260595134347_rgbf000108-resize_0/001167_2014-06-17_15-38-07_260595134347_rgbf000108-resize_0-target.png,250,1.8505,3,3343,249,feet,jsons/v1_VE250_randls_47.json,505380,619602,34,Man
33,390384,DepthScenes,duration_manipulation_targetAtFixation,jsons/v1_VE250_randls_47.json,http://54.235.29.9/FacialAge/BNav_EC2/DepthDuration/v2_depth_duration_MTurk/v2_DepthDuration_HTML.html#261,261,1360,625,1360,768,8-29-2022,14-52-7,34,depth_duration_stimuli/003587_2014-05-23_16-48-02_094959634447_rgbf002384-resize_2/003587_2014-05-23_16-48-02_094959634447_rgbf002384-resize_2-target.png,250,1.357,3,2510,250,feet,jsons/v1_VE250_randls_47.json,505380,619602,34,Man
34,390384,DepthScenes,duration_manipulation_targetAtFixation,jsons/v1_VE250_randls_47.json,http://54.235.29.9/FacialAge/BNav_EC2/DepthDuration/v2_depth_duration_MTurk/v2_DepthDuration_HTML.html#261,261,1360,625,1360,768,8-29-2022,14-52-7,35,depth_duration_stimuli/000917_2014-06-09_22-45-29_260595134347_rgbf000149-resize_3/000917_2014-06-09_22-45-29_260595134347_rgbf000149-resize_3-target.png,250,4.1865,6,2712,252,feet,jsons/v1_VE250_randls_47.json,505380,619602,34,Man
35,390384,DepthScenes,duration_manipulation_targetAtFixation,jsons/v1_VE250_randls_47.json,http://54.235.29.9/FacialAge/BNav_EC2/DepthDuration/v2_depth_duration_MTurk/v2_DepthDuration_HTML.html#261,261,1360,625,1360,768,8-29-2022,14-52-7,36,depth_duration_stimuli/002323_2014-06-28_20-01-54_260595134347_rgbf000051-resize_4/002323_2014-06-28_20-01-54_260595134347_rgbf000051-resize_4-target.png,250,3.7310000000000003,7,2343,250,feet,jsons/v1_VE250_randls_47.json,505380,619602,34,Man
36,390384,DepthScenes,duration_manipulation_targetAtFixation,jsons/v1_VE250_randls_47.json,http://54.235.29.9/FacialAge/BNav_EC2/DepthDuration/v2_depth_duration_MTurk/v2_DepthDuration_HTML.html#261,261,1360,625,1360,768,8-29-2022,14-52-7,37,depth_duration_stimuli/002788_2014-06-22_19-36-03_094959634447_rgbf000088-resize_2/002788_2014-06-22_19-36-03_094959634447_rgbf000088-resize_2-target.png,250,1.6465,6,2285,252,feet,jsons/v1_VE250_randls_47.json,505380,619602,34,Man
37,390384,DepthScenes,duration_manipulation_targetAtFixation,jsons/v1_VE250_randls_47.json,http://54.235.29.9/FacialAge/BNav_EC2/DepthDuration/v2_depth_duration_MTurk/v2_DepthDuration_HTML.html#261,261,1360,625,1360,768,8-29-2022,14-52-7,38,depth_duration_stimuli/000749_2014-06-08_21-55-06_260595134347_rgbf000070-resize_2/000749_2014-06-08_21-55-06_260595134347_rgbf000070-resize_2-target.png,250,2.331,6,2371,248,feet,jsons/v1_VE250_randls_47.json,505380,619602,34,Man
38,390384,DepthScenes,duration_manipulation_targetAtFixation,jsons/v1_VE250_randls_47.json,http://54.235.29.9/FacialAge/BNav_EC2/DepthDuration/v2_depth_duration_MTurk/v2_DepthDuration_HTML.html#261,261,1360,625,1360,768,8-29-2022,14-52-7,39,depth_duration_stimuli/000788_2014-06-08_22-34-36_260595134347_rgbf000131-resize_1/000788_2014-06-08_22-34-36_260595134347_rgbf000131-resize_1-target.png,250,3.359,5,2209,249,feet,jsons/v1_VE250_randls_47.json,505380,619602,34,Man
39,390384,DepthScenes,duration_manipulation_targetAtFixation,jsons/v1_VE250_randls_47.json,http://54.235.29.9/FacialAge/BNav_EC2/DepthDuration/v2_depth_duration_MTurk/v2_DepthDuration_HTML.html#261,261,1360,625,1360,768,8-29-2022,14-52-7,40,depth_duration_stimuli/001235_2014-06-17_16-37-36_260595134347_rgbf000084-resize_4/001235_2014-06-17_16-37-36_260595134347_rgbf000084-resize_4-target.png,250,3.6605,5,2137,250,feet,jsons/v1_VE250_randls_47.json,505380,619602,34,Man
40,390384,DepthScenes,duration_manipulation_targetAtFixation,jsons/v1_VE250_randls_47.json,http://54.235.29.9/FacialAge/BNav_EC2/DepthDuration/v2_depth_duration_MTurk/v2_DepthDuration_HTML.html#261,261,1360,625,1360,768,8-29-2022,14-52-7,41,depth_duration_stimuli/001110_2014-06-15_17-25-28_260595134347_rgbf000150-resize_1/001110_2014-06-15_17-25-28_260595134347_rgbf000150-resize_1-target.png,250,1.7115,4,2478,252,feet,jsons/v1_VE250_randls_47.json,505380,619602,34,Man
41,390384,DepthScenes,duration_manipulation_targetAtFixation,jsons/v1_VE250_randls_47.json,http://54.235.29.9/FacialAge/BNav_EC2/DepthDuration/v2_depth_duration_MTurk/v2_DepthDuration_HTML.html#261,261,1360,625,1360,768,8-29-2022,14-52-7,42,depth_duration_stimuli/000927_2014-06-09_16-32-30_260595134347_rgbf000123-resize_3/000927_2014-06-09_16-32-30_260595134347_rgbf000123-resize_3-target.png,250,2.6785,6,2211,247,feet,jsons/v1_VE250_randls_47.json,505380,619602,34,Man
42,390384,DepthScenes,duration_manipulation_targetAtFixation,jsons/v1_VE250_randls_47.json,http://54.235.29.9/FacialAge/BNav_EC2/DepthDuration/v2_depth_duration_MTurk/v2_DepthDuration_HTML.html#261,261,1360,625,1360,768,8-29-2022,14-52-7,43,depth_duration_stimuli/000739_2014-06-08_18-45-58_260595134347_rgbf000068-resize_1/000739_2014-06-08_18-45-58_260595134347_rgbf000068-resize_1-target.png,250,3.534,7,2227,247,feet,jsons/v1_VE250_randls_47.json,505380,619602,34,Man
43,390384,DepthScenes,duration_manipulation_targetAtFixation,jsons/v1_VE250_randls_47.json,http://54.235.29.9/FacialAge/BNav_EC2/DepthDuration/v2_depth_duration_MTurk/v2_DepthDuration_HTML.html#261,261,1360,625,1360,768,8-29-2022,14-52-7,44,depth_duration_stimuli/000734_2014-06-08_17-39-11_260595134347_rgbf000128-resize_2/000734_2014-06-08_17-39-11_260595134347_rgbf000128-resize_2-target.png,250,4.098,6,2386,235,feet,jsons/v1_VE250_randls_47.json,505380,619602,34,Man
44,390384,DepthScenes,duration_manipulation_targetAtFixation,jsons/v1_VE250_randls_47.json,http://54.235.29.9/FacialAge/BNav_EC2/DepthDuration/v2_depth_duration_MTurk/v2_DepthDuration_HTML.html#261,261,1360,625,1360,768,8-29-2022,14-52-7,45,depth_duration_stimuli/000787_2014-06-08_22-33-53_260595134347_rgbf000175-resize_1/000787_2014-06-08_22-33-53_260595134347_rgbf000175-resize-original.jpg,250,4.784,0,2751,248,feet,jsons/v1_VE250_randls_47.json,505380,619602,34,Man
45,390384,DepthScenes,duration_manipulation_targetAtFixation,jsons/v1_VE250_randls_47.json,http://54.235.29.9/FacialAge/BNav_EC2/DepthDuration/v2_depth_duration_MTurk/v2_DepthDuration_HTML.html#261,261,1360,625,1360,768,8-29-2022,14-52-7,46,depth_duration_stimuli/002964_2014-06-08_17-46-11_094959634447_rgbf000091-resize_4/002964_2014-06-08_17-46-11_094959634447_rgbf000091-resize_4-target.png,250,1.6909999999999998,4,2374,251,feet,jsons/v1_VE250_randls_47.json,505380,619602,34,Man
46,390384,DepthScenes,duration_manipulation_targetAtFixation,jsons/v1_VE250_randls_47.json,http://54.235.29.9/FacialAge/BNav_EC2/DepthDuration/v2_depth_duration_MTurk/v2_DepthDuration_HTML.html#261,261,1360,625,1360,768,8-29-2022,14-52-7,47,depth_duration_stimuli/002136_2014-06-25_21-18-03_260595134347_rgbf000109-resize_3/002136_2014-06-25_21-18-03_260595134347_rgbf000109-resize_3-target.png,250,1.9569999999999999,4,2271,247,feet,jsons/v1_VE250_randls_47.json,505380,619602,34,Man
47,390384,DepthScenes,duration_manipulation_targetAtFixation,jsons/v1_VE250_randls_47.json,http://54.235.29.9/FacialAge/BNav_EC2/DepthDuration/v2_depth_duration_MTurk/v2_DepthDuration_HTML.html#261,261,1360,625,1360,768,8-29-2022,14-52-7,48,depth_duration_stimuli/002279_2014-06-28_18-55-32_260595134347_rgbf000040-resize_5/002279_2014-06-28_18-55-32_260595134347_rgbf000040-resize_5-target.png,250,1.5043333333333,3,2029,276,feet,jsons/v1_VE250_randls_47.json,505380,619602,34,Man
48,390384,DepthScenes,duration_manipulation_targetAtFixation,jsons/v1_VE250_randls_47.json,http://54.235.29.9/FacialAge/BNav_EC2/DepthDuration/v2_depth_duration_MTurk/v2_DepthDuration_HTML.html#261,261,1360,625,1360,768,8-29-2022,14-52-7,49,depth_duration_stimuli/000635_2014-06-08_16-38-42_260595134347_rgbf000106-resize_1/000635_2014-06-08_16-38-42_260595134347_rgbf000106-resize_1-target.png,250,2.074,6,2151,259,feet,jsons/v1_VE250_randls_47.json,505380,619602,34,Man
49,390384,DepthScenes,duration_manipulation_targetAtFixation,jsons/v1_VE250_randls_47.json,http://54.235.29.9/FacialAge/BNav_EC2/DepthDuration/v2_depth_duration_MTurk/v2_DepthDuration_HTML.html#261,261,1360,625,1360,768,8-29-2022,14-52-7,50,depth_duration_stimuli/000758_2014-06-08_22-05-08_260595134347_rgbf000085-resize_0/000758_2014-06-08_22-05-08_260595134347_rgbf000085-resize_0-target.png,250,3.3810000000000002,7,2445,277,feet,jsons/v1_VE250_randls_47.json,505380,619602,34,Man
50,390384,DepthScenes,duration_manipulation_targetAtFixation,jsons/v1_VE250_randls_47.json,http://54.235.29.9/FacialAge/BNav_EC2/DepthDuration/v2_depth_duration_MTurk/v2_DepthDuration_HTML.html#261,261,1360,625,1360,768,8-29-2022,14-52-7,51,depth_duration_stimuli/000854_2014-06-09_19-43-13_260595134347_rgbf000066-resize_0/000854_2014-06-09_19-43-13_260595134347_rgbf000066-resize_0-target.png,250,3.068,5,2294,250,feet,jsons/v1_VE250_randls_47.json,505380,619602,34,Man
51,390384,DepthScenes,duration_manipulation_targetAtFixation,jsons/v1_VE250_randls_47.json,http://54.235.29.9/FacialAge/BNav_EC2/DepthDuration/v2_depth_duration_MTurk/v2_DepthDuration_HTML.html#261,261,1360,625,1360,768,8-29-2022,14-52-7,52,depth_duration_stimuli/001570_2014-06-20_17-21-09_260595134347_rgbf000135-resize_4/001570_2014-06-20_17-21-09_260595134347_rgbf000135-resize_4-target.png,250,4.467,7,2060,235,feet,jsons/v1_VE250_randls_47.json,505380,619602,34,Man
52,390384,DepthScenes,duration_manipulation_targetAtFixation,jsons/v1_VE250_randls_47.json,http://54.235.29.9/FacialAge/BNav_EC2/DepthDuration/v2_depth_duration_MTurk/v2_DepthDuration_HTML.html#261,261,1360,625,1360,768,8-29-2022,14-52-7,53,depth_duration_stimuli/001392_2014-06-19_16-07-59_260595134347_rgbf000046-resize_1/001392_2014-06-19_16-07-59_260595134347_rgbf000046-resize_1-target.png,250,4.135,9,2401,247,feet,jsons/v1_VE250_randls_47.json,505380,619602,34,Man
53,390384,DepthScenes,duration_manipulation_targetAtFixation,jsons/v1_VE250_randls_47.json,http://54.235.29.9/FacialAge/BNav_EC2/DepthDuration/v2_depth_duration_MTurk/v2_DepthDuration_HTML.html#261,261,1360,625,1360,768,8-29-2022,14-52-7,54,depth_duration_stimuli/001066_2014-06-08_22-03-20_260595134347_rgbf000066-resize_4/001066_2014-06-08_22-03-20_260595134347_rgbf000066-resize_4-target.png,250,4.2330000000000005,7,2389,249,feet,jsons/v1_VE250_randls_47.json,505380,619602,34,Man
54,390384,DepthScenes,duration_manipulation_targetAtFixation,jsons/v1_VE250_randls_47.json,http://54.235.29.9/FacialAge/BNav_EC2/DepthDuration/v2_depth_duration_MTurk/v2_DepthDuration_HTML.html#261,261,1360,625,1360,768,8-29-2022,14-52-7,55,depth_duration_stimuli/000742_2014-06-08_18-48-09_260595134347_rgbf000164-resize_4/000742_2014-06-08_18-48-09_260595134347_rgbf000164-resize_4-target.png,250,4.632,7,1634,247,feet,jsons/v1_VE250_randls_47.json,505380,619602,34,Man
55,390384,DepthScenes,duration_manipulation_targetAtFixation,jsons/v1_VE250_randls_47.json,http://54.235.29.9/FacialAge/BNav_EC2/DepthDuration/v2_depth_duration_MTurk/v2_DepthDuration_HTML.html#261,261,1360,625,1360,768,8-29-2022,14-52-7,56,depth_duration_stimuli/002445_2014-06-28_20-32-16_260595134347_rgbf000029-resize_4/002445_2014-06-28_20-32-16_260595134347_rgbf000029-resize_4-target.png,250,2.5315,5,3843,245,feet,jsons/v1_VE250_randls_47.json,505380,619602,34,Man
56,390384,DepthScenes,duration_manipulation_targetAtFixation,jsons/v1_VE250_randls_47.json,http://54.235.29.9/FacialAge/BNav_EC2/DepthDuration/v2_depth_duration_MTurk/v2_DepthDuration_HTML.html#261,261,1360,625,1360,768,8-29-2022,14-52-7,57,depth_duration_stimuli/000780_2014-06-08_22-28-29_260595134347_rgbf000126-resize_1/000780_2014-06-08_22-28-29_260595134347_rgbf000126-resize_1-target.png,250,3.3825,5,2214,238,feet,jsons/v1_VE250_randls_47.json,505380,619602,34,Man
57,390384,DepthScenes,duration_manipulation_targetAtFixation,jsons/v1_VE250_randls_47.json,http://54.235.29.9/FacialAge/BNav_EC2/DepthDuration/v2_depth_duration_MTurk/v2_DepthDuration_HTML.html#261,261,1360,625,1360,768,8-29-2022,14-52-7,58,depth_duration_stimuli/000773_2014-06-08_22-24-54_260595134347_rgbf000093-resize_1/000773_2014-06-08_22-24-54_260595134347_rgbf000093-resize_1-target.png,250,4.973,8,2421,254,feet,jsons/v1_VE250_randls_47.json,505380,619602,34,Man
58,390384,DepthScenes,duration_manipulation_targetAtFixation,jsons/v1_VE250_randls_47.json,http://54.235.29.9/FacialAge/BNav_EC2/DepthDuration/v2_depth_duration_MTurk/v2_DepthDuration_HTML.html#261,261,1360,625,1360,768,8-29-2022,14-52-7,59,depth_duration_stimuli/002414_2014-06-28_20-24-58_260595134347_rgbf000067-resize_4/002414_2014-06-28_20-24-58_260595134347_rgbf000067-resize_4-target.png,250,4.363,6,3137,245,feet,jsons/v1_VE250_randls_47.json,505380,619602,34,Man
59,390384,DepthScenes,duration_manipulation_targetAtFixation,jsons/v1_VE250_randls_47.json,http://54.235.29.9/FacialAge/BNav_EC2/DepthDuration/v2_depth_duration_MTurk/v2_DepthDuration_HTML.html#261,261,1360,625,1360,768,8-29-2022,14-52-7,60,depth_duration_stimuli/000368_2014-06-09_15-53-01_260595134347_rgbf000155-resize_2/000368_2014-06-09_15-53-01_260595134347_rgbf000155-resize_2-target.png,250,2.4859999999999998,3,2487,237,feet,jsons/v1_VE250_randls_47.json,505380,619602,34,Man
60,390384,DepthScenes,duration_manipulation_targetAtFixation,jsons/v1_VE250_randls_47.json,http://54.235.29.9/FacialAge/BNav_EC2/DepthDuration/v2_depth_duration_MTurk/v2_DepthDuration_HTML.html#261,261,1360,625,1360,768,8-29-2022,14-52-7,61,depth_duration_stimuli/002678_2014-06-13_16-15-32_094959634447_rgbf000151-resize_6/002678_2014-06-13_16-15-32_094959634447_rgbf000151-resize_6-target.png,250,2.1830000000000003,6,2167,235,feet,jsons/v1_VE250_randls_47.json,505380,619602,34,Man
61,390384,DepthScenes,duration_manipulation_targetAtFixation,jsons/v1_VE250_randls_47.json,http://54.235.29.9/FacialAge/BNav_EC2/DepthDuration/v2_depth_duration_MTurk/v2_DepthDuration_HTML.html#261,261,1360,625,1360,768,8-29-2022,14-52-7,62,depth_duration_stimuli/002663_2014-06-13_15-50-26_094959634447_rgbf000075-resize_1/002663_2014-06-13_15-50-26_094959634447_rgbf000075-resize_1-target.png,250,4.7495,7,2089,245,feet,jsons/v1_VE250_randls_47.json,505380,619602,34,Man
62,390384,DepthScenes,duration_manipulation_targetAtFixation,jsons/v1_VE250_randls_47.json,http://54.235.29.9/FacialAge/BNav_EC2/DepthDuration/v2_depth_duration_MTurk/v2_DepthDuration_HTML.html#261,261,1360,625,1360,768,8-29-2022,14-52-7,63,depth_duration_stimuli/000409_2014-06-04_19-23-33_260595134347_rgbf000067-resize_0/000409_2014-06-04_19-23-33_260595134347_rgbf000067-resize_0-target.png,250,3.7335,7,2778,248,feet,jsons/v1_VE250_randls_47.json,505380,619602,34,Man
63,390384,DepthScenes,duration_manipulation_targetAtFixation,jsons/v1_VE250_randls_47.json,http://54.235.29.9/FacialAge/BNav_EC2/DepthDuration/v2_depth_duration_MTurk/v2_DepthDuration_HTML.html#261,261,1360,625,1360,768,8-29-2022,14-52-7,64,depth_duration_stimuli/003534_2014-05-22_15-06-10_094959634447_rgbf000102-resize_4/003534_2014-05-22_15-06-10_094959634447_rgbf000102-resize_4-target.png,250,1.426,3,2803,244,feet,jsons/v1_VE250_randls_47.json,505380,619602,34,Man
64,390384,DepthScenes,duration_manipulation_targetAtFixation,jsons/v1_VE250_randls_47.json,http://54.235.29.9/FacialAge/BNav_EC2/DepthDuration/v2_depth_duration_MTurk/v2_DepthDuration_HTML.html#261,261,1360,625,1360,768,8-29-2022,14-52-7,65,depth_duration_stimuli/002637_2014-06-24_14-51-13_094959634447_rgbf000066-resize_4/002637_2014-06-24_14-51-13_094959634447_rgbf000066-resize_4-target.png,250,1.9955,6,3264,250,feet,jsons/v1_VE250_randls_47.json,505380,619602,34,Man
65,390384,DepthScenes,duration_manipulation_targetAtFixation,jsons/v1_VE250_randls_47.json,http://54.235.29.9/FacialAge/BNav_EC2/DepthDuration/v2_depth_duration_MTurk/v2_DepthDuration_HTML.html#261,261,1360,625,1360,768,8-29-2022,14-52-7,66,depth_duration_stimuli/001222_2014-06-17_16-24-06_260595134347_rgbf000073-resize_0/001222_2014-06-17_16-24-06_260595134347_rgbf000073-resize-original.jpg,250,1.4385,0,2525,261,feet,jsons/v1_VE250_randls_47.json,505380,619602,34,Man
66,390384,DepthScenes,duration_manipulation_targetAtFixation,jsons/v1_VE250_randls_47.json,http://54.235.29.9/FacialAge/BNav_EC2/DepthDuration/v2_depth_duration_MTurk/v2_DepthDuration_HTML.html#261,261,1360,625,1360,768,8-29-2022,14-52-7,67,depth_duration_stimuli/002057_2014-06-24_21-00-13_260595134347_rgbf000120-resize_1/002057_2014-06-24_21-00-13_260595134347_rgbf000120-resize_1-target.png,250,2.967,8,2231,248,feet,jsons/v1_VE250_randls_47.json,505380,619602,34,Man
67,390384,DepthScenes,duration_manipulation_targetAtFixation,jsons/v1_VE250_randls_47.json,http://54.235.29.9/FacialAge/BNav_EC2/DepthDuration/v2_depth_duration_MTurk/v2_DepthDuration_HTML.html#261,261,1360,625,1360,768,8-29-2022,14-52-7,68,depth_duration_stimuli/000709_2014-06-08_13-51-55_260595134347_rgbf000068-resize_3/000709_2014-06-08_13-51-55_260595134347_rgbf000068-resize_3-target.png,250,1.8030000000000002,6,2332,235,feet,jsons/v1_VE250_randls_47.json,505380,619602,34,Man
68,390384,DepthScenes,duration_manipulation_targetAtFixation,jsons/v1_VE250_randls_47.json,http://54.235.29.9/FacialAge/BNav_EC2/DepthDuration/v2_depth_duration_MTurk/v2_DepthDuration_HTML.html#261,261,1360,625,1360,768,8-29-2022,14-52-7,69,depth_duration_stimuli/001555_2014-06-20_17-12-10_260595134347_rgbf000065-resize_4/001555_2014-06-20_17-12-10_260595134347_rgbf000065-resize_4-target.png,250,1.633,4,2277,251,feet,jsons/v1_VE250_randls_47.json,505380,619602,34,Man
69,390384,DepthScenes,duration_manipulation_targetAtFixation,jsons/v1_VE250_randls_47.json,http://54.235.29.9/FacialAge/BNav_EC2/DepthDuration/v2_depth_duration_MTurk/v2_DepthDuration_HTML.html#261,261,1360,625,1360,768,8-29-2022,14-52-7,70,depth_duration_stimuli/000103_2014-05-14_22-01-17_260595134347_rgbf000152-resize_5/000103_2014-05-14_22-01-17_260595134347_rgbf000152-resize_5-target.png,250,1.993,5,2639,241,feet,jsons/v1_VE250_randls_47.json,505380,619602,34,Man
70,390384,DepthScenes,duration_manipulation_targetAtFixation,jsons/v1_VE250_randls_47.json,http://54.235.29.9/FacialAge/BNav_EC2/DepthDuration/v2_depth_duration_MTurk/v2_DepthDuration_HTML.html#261,261,1360,625,1360,768,8-29-2022,14-52-7,71,depth_duration_stimuli/001164_2014-06-17_15-35-46_260595134347_rgbf000085-resize_3/001164_2014-06-17_15-35-46_260595134347_rgbf000085-resize_3-target.png,250,2.354,5,2708,250,feet,jsons/v1_VE250_randls_47.json,505380,619602,34,Man
71,390384,DepthScenes,duration_manipulation_targetAtFixation,jsons/v1_VE250_randls_47.json,http://54.235.29.9/FacialAge/BNav_EC2/DepthDuration/v2_depth_duration_MTurk/v2_DepthDuration_HTML.html#261,261,1360,625,1360,768,8-29-2022,14-52-7,72,depth_duration_stimuli/001136_2014-06-17_15-19-41_260595134347_rgbf000076-resize_3/001136_2014-06-17_15-19-41_260595134347_rgbf000076-resize_3-target.png,250,1.8655,5,2089,246,feet,jsons/v1_VE250_randls_47.json,505380,619602,34,Man
72,390384,DepthScenes,duration_manipulation_targetAtFixation,jsons/v1_VE250_randls_47.json,http://54.235.29.9/FacialAge/BNav_EC2/DepthDuration/v2_depth_duration_MTurk/v2_DepthDuration_HTML.html#261,261,1360,625,1360,768,8-29-2022,14-52-7,73,depth_duration_stimuli/003292_2014-05-14_21-53-49_094959634447_rgbf000100-resize_2/003292_2014-05-14_21-53-49_094959634447_rgbf000100-resize_2-target.png,250,3.4815,5,2243,262,feet,jsons/v1_VE250_randls_47.json,505380,619602,34,Man
73,390384,DepthScenes,duration_manipulation_targetAtFixation,jsons/v1_VE250_randls_47.json,http://54.235.29.9/FacialAge/BNav_EC2/DepthDuration/v2_depth_duration_MTurk/v2_DepthDuration_HTML.html#261,261,1360,625,1360,768,8-29-2022,14-52-7,74,depth_duration_stimuli/002639_2014-06-24_14-51-37_094959634447_rgbf000074-resize_4/002639_2014-06-24_14-51-37_094959634447_rgbf000074-resize_4-target.png,250,4.0375,7,2718,249,feet,jsons/v1_VE250_randls_47.json,505380,619602,34,Man
74,390384,DepthScenes,duration_manipulation_targetAtFixation,jsons/v1_VE250_randls_47.json,http://54.235.29.9/FacialAge/BNav_EC2/DepthDuration/v2_depth_duration_MTurk/v2_DepthDuration_HTML.html#261,261,1360,625,1360,768,8-29-2022,14-52-7,75,depth_duration_stimuli/002905_2014-06-03_18-04-43_094959634447_rgbf000151-resize_2/002905_2014-06-03_18-04-43_094959634447_rgbf000151-resize_2-target.png,250,2.0295,5,2216,260,feet,jsons/v1_VE250_randls_47.json,505380,619602,34,Man
75,390384,DepthScenes,duration_manipulation_targetAtFixation,jsons/v1_VE250_randls_47.json,http://54.235.29.9/FacialAge/BNav_EC2/DepthDuration/v2_depth_duration_MTurk/v2_DepthDuration_HTML.html#261,261,1360,625,1360,768,8-29-2022,14-52-7,76,depth_duration_stimuli/003423_2014-05-21_10-23-26_094959634447_rgbf002665-resize_2/003423_2014-05-21_10-23-26_094959634447_rgbf002665-resize_2-target.png,250,3.2575,7,2095,251,feet,jsons/v1_VE250_randls_47.json,505380,619602,34,Man
76,390384,DepthScenes,duration_manipulation_targetAtFixation,jsons/v1_VE250_randls_47.json,http://54.235.29.9/FacialAge/BNav_EC2/DepthDuration/v2_depth_duration_MTurk/v2_DepthDuration_HTML.html#261,261,1360,625,1360,768,8-29-2022,14-52-7,77,depth_duration_stimuli/000506_2014-06-08_23-21-00_260595134347_rgbf000070-resize_7/000506_2014-06-08_23-21-00_260595134347_rgbf000070-resize_7-target.png,250,4.0585,7,2293,235,feet,jsons/v1_VE250_randls_47.json,505380,619602,34,Man
77,390384,DepthScenes,duration_manipulation_targetAtFixation,jsons/v1_VE250_randls_47.json,http://54.235.29.9/FacialAge/BNav_EC2/DepthDuration/v2_depth_duration_MTurk/v2_DepthDuration_HTML.html#261,261,1360,625,1360,768,8-29-2022,14-52-7,78,depth_duration_stimuli/003079_2014-06-15_15-18-20_094959634447_rgbf000152-resize_8/003079_2014-06-15_15-18-20_094959634447_rgbf000152-resize_8-target.png,250,2.8775,8,2811,239,feet,jsons/v1_VE250_randls_47.json,505380,619602,34,Man
78,390384,DepthScenes,duration_manipulation_targetAtFixation,jsons/v1_VE250_randls_47.json,http://54.235.29.9/FacialAge/BNav_EC2/DepthDuration/v2_depth_duration_MTurk/v2_DepthDuration_HTML.html#261,261,1360,625,1360,768,8-29-2022,14-52-7,79,depth_duration_stimuli/002153_2014-06-25_21-27-18_260595134347_rgbf000038-resize_5/002153_2014-06-25_21-27-18_260595134347_rgbf000038-resize_5-target.png,250,2.505,7,2439,253,feet,jsons/v1_VE250_randls_47.json,505380,619602,34,Man
79,390384,DepthScenes,duration_manipulation_targetAtFixation,jsons/v1_VE250_randls_47.json,http://54.235.29.9/FacialAge/BNav_EC2/DepthDuration/v2_depth_duration_MTurk/v2_DepthDuration_HTML.html#261,261,1360,625,1360,768,8-29-2022,14-52-7,80,depth_duration_stimuli/002660_2014-06-13_15-44-18_094959634447_rgbf001878-resize_2/002660_2014-06-13_15-44-18_094959634447_rgbf001878-resize_2-target.png,250,3.576,7,1679,252,feet,jsons/v1_VE250_randls_47.json,505380,619602,34,Man
80,390384,DepthScenes,duration_manipulation_targetAtFixation,jsons/v1_VE250_randls_47.json,http://54.235.29.9/FacialAge/BNav_EC2/DepthDuration/v2_depth_duration_MTurk/v2_DepthDuration_HTML.html#261,261,1360,625,1360,768,8-29-2022,14-52-7,81,depth_duration_stimuli/001059_2014-06-08_21-53-27_260595134347_rgbf000061-resize_4/001059_2014-06-08_21-53-27_260595134347_rgbf000061-resize_4-target.png,250,2.4185,7,2310,247,feet,jsons/v1_VE250_randls_47.json,505380,619602,34,Man
81,390384,DepthScenes,duration_manipulation_targetAtFixation,jsons/v1_VE250_randls_47.json,http://54.235.29.9/FacialAge/BNav_EC2/DepthDuration/v2_depth_duration_MTurk/v2_DepthDuration_HTML.html#261,261,1360,625,1360,768,8-29-2022,14-52-7,82,depth_duration_stimuli/001032_2014-06-08_13-23-17_260595134347_rgbf000021-resize_3/001032_2014-06-08_13-23-17_260595134347_rgbf000021-resize_3-target.png,250,3.2725,6,2449,248,feet,jsons/v1_VE250_randls_47.json,505380,619602,34,Man
82,390384,DepthScenes,duration_manipulation_targetAtFixation,jsons/v1_VE250_randls_47.json,http://54.235.29.9/FacialAge/BNav_EC2/DepthDuration/v2_depth_duration_MTurk/v2_DepthDuration_HTML.html#261,261,1360,625,1360,768,8-29-2022,14-52-7,83,depth_duration_stimuli/001808_2014-06-26_20-50-58_260595134347_rgbf000029-resize_1/001808_2014-06-26_20-50-58_260595134347_rgbf000029-resize_1-target.png,250,4.249,8,2134,248,feet,jsons/v1_VE250_randls_47.json,505380,619602,34,Man
83,390384,DepthScenes,duration_manipulation_targetAtFixation,jsons/v1_VE250_randls_47.json,http://54.235.29.9/FacialAge/BNav_EC2/DepthDuration/v2_depth_duration_MTurk/v2_DepthDuration_HTML.html#261,261,1360,625,1360,768,8-29-2022,14-52-7,84,depth_duration_stimuli/001815_2014-06-26_20-52-55_260595134347_rgbf000020-resize_0/001815_2014-06-26_20-52-55_260595134347_rgbf000020-resize_0-target.png,250,3.3865,8,2056,251,feet,jsons/v1_VE250_randls_47.json,505380,619602,34,Man
84,390384,DepthScenes,duration_manipulation_targetAtFixation,jsons/v1_VE250_randls_47.json,http://54.235.29.9/FacialAge/BNav_EC2/DepthDuration/v2_depth_duration_MTurk/v2_DepthDuration_HTML.html#261,261,1360,625,1360,768,8-29-2022,14-52-7,85,depth_duration_stimuli/001092_2014-06-15_17-34-58_260595134347_rgbf000171-resize_3/001092_2014-06-15_17-34-58_260595134347_rgbf000171-resize_3-target.png,250,2.6935,5,3306,251,feet,jsons/v1_VE250_randls_47.json,505380,619602,34,Man
85,390384,DepthScenes,duration_manipulation_targetAtFixation,jsons/v1_VE250_randls_47.json,http://54.235.29.9/FacialAge/BNav_EC2/DepthDuration/v2_depth_duration_MTurk/v2_DepthDuration_HTML.html#261,261,1360,625,1360,768,8-29-2022,14-52-7,86,depth_duration_stimuli/002545_2014-06-24_13-38-53_094959634447_rgbf000080-resize_4/002545_2014-06-24_13-38-53_094959634447_rgbf000080-resize_4-target.png,250,1.9205,6,2589,251,feet,jsons/v1_VE250_randls_47.json,505380,619602,34,Man
86,390384,DepthScenes,duration_manipulation_targetAtFixation,jsons/v1_VE250_randls_47.json,http://54.235.29.9/FacialAge/BNav_EC2/DepthDuration/v2_depth_duration_MTurk/v2_DepthDuration_HTML.html#261,261,1360,625,1360,768,8-29-2022,14-52-7,87,depth_duration_stimuli/000642_2014-06-08_16-59-25_260595134347_rgbf000098-resize_2/000642_2014-06-08_16-59-25_260595134347_rgbf000098-resize_2-target.png,250,2.8815,6,2373,244,feet,jsons/v1_VE250_randls_47.json,505380,619602,34,Man
87,390384,DepthScenes,duration_manipulation_targetAtFixation,jsons/v1_VE250_randls_47.json,http://54.235.29.9/FacialAge/BNav_EC2/DepthDuration/v2_depth_duration_MTurk/v2_DepthDuration_HTML.html#261,261,1360,625,1360,768,8-29-2022,14-52-7,88,depth_duration_stimuli/002425_2014-06-28_20-27-29_260595134347_rgbf000031-resize_8/002425_2014-06-28_20-27-29_260595134347_rgbf000031-resize_8-target.png,250,3.8960000000000004,8,4297,257,feet,jsons/v1_VE250_randls_47.json,505380,619602,34,Man
88,390384,DepthScenes,duration_manipulation_targetAtFixation,jsons/v1_VE250_randls_47.json,http://54.235.29.9/FacialAge/BNav_EC2/DepthDuration/v2_depth_duration_MTurk/v2_DepthDuration_HTML.html#261,261,1360,625,1360,768,8-29-2022,14-52-7,89,depth_duration_stimuli/002988_2014-06-15_12-24-20_094959634447_rgbf000150-resize_1/002988_2014-06-15_12-24-20_094959634447_rgbf000150-resize_1-target.png,250,4.7669999999999995,9,2568,249,feet,jsons/v1_VE250_randls_47.json,505380,619602,34,Man
89,390384,DepthScenes,duration_manipulation_targetAtFixation,jsons/v1_VE250_randls_47.json,http://54.235.29.9/FacialAge/BNav_EC2/DepthDuration/v2_depth_duration_MTurk/v2_DepthDuration_HTML.html#261,261,1360,625,1360,768,8-29-2022,14-52-7,90,depth_duration_stimuli/001052_2014-06-08_18-24-54_260595134347_rgbf000130-resize_1/001052_2014-06-08_18-24-54_260595134347_rgbf000130-resize_1-target.png,250,4.1045,7,2734,246,feet,jsons/v1_VE250_randls_47.json,505380,619602,34,Man
90,390384,DepthScenes,duration_manipulation_targetAtFixation,jsons/v1_VE250_randls_47.json,http://54.235.29.9/FacialAge/BNav_EC2/DepthDuration/v2_depth_duration_MTurk/v2_DepthDuration_HTML.html#261,261,1360,625,1360,768,8-29-2022,14-52-7,91,depth_duration_stimuli/000522_2014-06-08_13-35-06_260595134347_rgbf000244-resize_1/000522_2014-06-08_13-35-06_260595134347_rgbf000244-resize_1-target.png,250,2.3715,3,2669,250,feet,jsons/v1_VE250_randls_47.json,505380,619602,34,Man
91,390384,DepthScenes,duration_manipulation_targetAtFixation,jsons/v1_VE250_randls_47.json,http://54.235.29.9/FacialAge/BNav_EC2/DepthDuration/v2_depth_duration_MTurk/v2_DepthDuration_HTML.html#261,261,1360,625,1360,768,8-29-2022,14-52-7,92,depth_duration_stimuli/002949_2014-06-26_15-57-42_094959634447_rgbf000079-resize_1/002949_2014-06-26_15-57-42_094959634447_rgbf000079-resize_1-target.png,250,1.8915,4,1898,249,feet,jsons/v1_VE250_randls_47.json,505380,619602,34,Man
92,390384,DepthScenes,duration_manipulation_targetAtFixation,jsons/v1_VE250_randls_47.json,http://54.235.29.9/FacialAge/BNav_EC2/DepthDuration/v2_depth_duration_MTurk/v2_DepthDuration_HTML.html#261,261,1360,625,1360,768,8-29-2022,14-52-7,93,depth_duration_stimuli/001016_2014-06-09_16-16-10_260595134347_rgbf000112-resize_5/001016_2014-06-09_16-16-10_260595134347_rgbf000112-resize_5-target.png,250,1.6565,5,1999,250,feet,jsons/v1_VE250_randls_47.json,505380,619602,34,Man
93,390384,DepthScenes,duration_manipulation_targetAtFixation,jsons/v1_VE250_randls_47.json,http://54.235.29.9/FacialAge/BNav_EC2/DepthDuration/v2_depth_duration_MTurk/v2_DepthDuration_HTML.html#261,261,1360,625,1360,768,8-29-2022,14-52-7,94,depth_duration_stimuli/002340_2014-06-28_20-05-46_260595134347_rgbf000113-resize_0/002340_2014-06-28_20-05-46_260595134347_rgbf000113-resize_0-target.png,250,2.4735,7,2259,265,feet,jsons/v1_VE250_randls_47.json,505380,619602,34,Man
94,390384,DepthScenes,duration_manipulation_targetAtFixation,jsons/v1_VE250_randls_47.json,http://54.235.29.9/FacialAge/BNav_EC2/DepthDuration/v2_depth_duration_MTurk/v2_DepthDuration_HTML.html#261,261,1360,625,1360,768,8-29-2022,14-52-7,95,depth_duration_stimuli/001199_2014-06-17_16-03-48_260595134347_rgbf000077-resize_0/001199_2014-06-17_16-03-48_260595134347_rgbf000077-resize_0-target.png,250,3.4375,7,1592,250,feet,jsons/v1_VE250_randls_47.json,505380,619602,34,Man
95,390384,DepthScenes,duration_manipulation_targetAtFixation,jsons/v1_VE250_randls_47.json,http://54.235.29.9/FacialAge/BNav_EC2/DepthDuration/v2_depth_duration_MTurk/v2_DepthDuration_HTML.html#261,261,1360,625,1360,768,8-29-2022,14-52-7,96,depth_duration_stimuli/000502_2014-06-08_23-02-32_260595134347_rgbf000063-resize_4/000502_2014-06-08_23-02-32_260595134347_rgbf000063-resize_4-target.png,250,2.431,6,2444,242,feet,jsons/v1_VE250_randls_47.json,505380,619602,34,Man
96,390384,DepthScenes,duration_manipulation_targetAtFixation,jsons/v1_VE250_randls_47.json,http://54.235.29.9/FacialAge/BNav_EC2/DepthDuration/v2_depth_duration_MTurk/v2_DepthDuration_HTML.html#261,261,1360,625,1360,768,8-29-2022,14-52-7,97,depth_duration_stimuli/000692_2014-06-08_13-09-42_260595134347_rgbf000199-resize_2/000692_2014-06-08_13-09-42_260595134347_rgbf000199-resize_2-target.png,250,3.661,8,2403,234,feet,jsons/v1_VE250_randls_47.json,505380,619602,34,Man
97,390384,DepthScenes,duration_manipulation_targetAtFixation,jsons/v1_VE250_randls_47.json,http://54.235.29.9/FacialAge/BNav_EC2/DepthDuration/v2_depth_duration_MTurk/v2_DepthDuration_HTML.html#261,261,1360,625,1360,768,8-29-2022,14-52-7,98,depth_duration_stimuli/001094_2014-06-15_17-36-00_260595134347_rgbf000205-resize_0/001094_2014-06-15_17-36-00_260595134347_rgbf000205-resize_0-target.png,250,4.2175,7,2368,258,feet,jsons/v1_VE250_randls_47.json,505380,619602,34,Man
98,390384,DepthScenes,duration_manipulation_targetAtFixation,jsons/v1_VE250_randls_47.json,http://54.235.29.9/FacialAge/BNav_EC2/DepthDuration/v2_depth_duration_MTurk/v2_DepthDuration_HTML.html#261,261,1360,625,1360,768,8-29-2022,14-52-7,99,depth_duration_stimuli/001540_2014-06-20_17-01-05_260595134347_rgbf000086-resize_2/001540_2014-06-20_17-01-05_260595134347_rgbf000086-resize-original.jpg,250,1.459,0,2949,249,feet,jsons/v1_VE250_randls_47.json,505380,619602,34,Man
99,390384,DepthScenes,duration_manipulation_targetAtFixation,jsons/v1_VE250_randls_47.json,http://54.235.29.9/FacialAge/BNav_EC2/DepthDuration/v2_depth_duration_MTurk/v2_DepthDuration_HTML.html#261,261,1360,625,1360,768,8-29-2022,14-52-7,100,depth_duration_stimuli/001806_2014-06-26_20-50-20_260595134347_rgbf000091-resize_1/001806_2014-06-26_20-50-20_260595134347_rgbf000091-resize_1-target.png,250,2.7305,4,2268,247,feet,jsons/v1_VE250_randls_47.json,505380,619602,34,Man
100,390384,DepthScenes,duration_manipulation_targetAtFixation,jsons/v1_VE250_randls_47.json,http://54.235.29.9/FacialAge/BNav_EC2/DepthDuration/v2_depth_duration_MTurk/v2_DepthDuration_HTML.html#261,261,1360,625,1360,768,8-29-2022,14-52-7,101,depth_duration_stimuli/001617_2014-06-20_11-35-32_260595134347_rgbf000066-resize_1/001617_2014-06-20_11-35-32_260595134347_rgbf000066-resize_1-target.png,250,3.7910000000000004,7,3054,251,feet,jsons/v1_VE250_randls_47.json,505380,619602,34,Man
101,390384,DepthScenes,duration_manipulation_targetAtFixation,jsons/v1_VE250_randls_47.json,http://54.235.29.9/FacialAge/BNav_EC2/DepthDuration/v2_depth_duration_MTurk/v2_DepthDuration_HTML.html#261,261,1360,625,1360,768,8-29-2022,14-52-7,102,depth_duration_stimuli/000486_2014-06-09_20-47-20_260595134347_rgbf000143-resize_2/000486_2014-06-09_20-47-20_260595134347_rgbf000143-resize_2-target.png,250,4.8325,7,2410,251,feet,jsons/v1_VE250_randls_47.json,505380,619602,34,Man
102,390384,DepthScenes,duration_manipulation_targetAtFixation,jsons/v1_VE250_randls_47.json,http://54.235.29.9/FacialAge/BNav_EC2/DepthDuration/v2_depth_duration_MTurk/v2_DepthDuration_HTML.html#261,261,1360,625,1360,768,8-29-2022,14-52-7,103,depth_duration_stimuli/003083_2014-06-15_15-21-03_094959634447_rgbf000063-resize_1/003083_2014-06-15_15-21-03_094959634447_rgbf000063-resize_1-target.png,250,4.1405,7,2044,247,feet,jsons/v1_VE250_randls_47.json,505380,619602,34,Man
103,390384,DepthScenes,duration_manipulation_targetAtFixation,jsons/v1_VE250_randls_47.json,http://54.235.29.9/FacialAge/BNav_EC2/DepthDuration/v2_depth_duration_MTurk/v2_DepthDuration_HTML.html#261,261,1360,625,1360,768,8-29-2022,14-52-7,104,depth_duration_stimuli/002213_2014-06-28_18-37-58_260595134347_rgbf000055-resize_1/002213_2014-06-28_18-37-58_260595134347_rgbf000055-resize_1-target.png,250,3.62,8,2497,262,feet,jsons/v1_VE250_randls_47.json,505380,619602,34,Man
104,390384,DepthScenes,duration_manipulation_targetAtFixation,jsons/v1_VE250_randls_47.json,http://54.235.29.9/FacialAge/BNav_EC2/DepthDuration/v2_depth_duration_MTurk/v2_DepthDuration_HTML.html#261,261,1360,625,1360,768,8-29-2022,14-52-7,105,depth_duration_stimuli/000691_2014-06-08_13-08-50_260595134347_rgbf000132-resize_3/000691_2014-06-08_13-08-50_260595134347_rgbf000132-resize_3-target.png,250,4.1530000000000005,9,2547,226,feet,jsons/v1_VE250_randls_47.json,505380,619602,34,Man
105,390384,DepthScenes,duration_manipulation_targetAtFixation,jsons/v1_VE250_randls_47.json,http://54.235.29.9/FacialAge/BNav_EC2/DepthDuration/v2_depth_duration_MTurk/v2_DepthDuration_HTML.html#261,261,1360,625,1360,768,8-29-2022,14-52-7,106,depth_duration_stimuli/001029_2014-06-08_13-17-57_260595134347_rgbf000065-resize_1/001029_2014-06-08_13-17-57_260595134347_rgbf000065-resize_1-target.png,250,3.0835,7,2148,237,feet,jsons/v1_VE250_randls_47.json,505380,619602,34,Man
106,390384,DepthScenes,duration_manipulation_targetAtFixation,jsons/v1_VE250_randls_47.json,http://54.235.29.9/FacialAge/BNav_EC2/DepthDuration/v2_depth_duration_MTurk/v2_DepthDuration_HTML.html#261,261,1360,625,1360,768,8-29-2022,14-52-7,107,depth_duration_stimuli/000677_2014-06-08_23-10-32_260595134347_rgbf000158-resize_6/000677_2014-06-08_23-10-32_260595134347_rgbf000158-resize_6-target.png,250,3.556,8,2547,243,feet,jsons/v1_VE250_randls_47.json,505380,619602,34,Man
107,390384,DepthScenes,duration_manipulation_targetAtFixation,jsons/v1_VE250_randls_47.json,http://54.235.29.9/FacialAge/BNav_EC2/DepthDuration/v2_depth_duration_MTurk/v2_DepthDuration_HTML.html#261,261,1360,625,1360,768,8-29-2022,14-52-7,108,depth_duration_stimuli/001449_2014-06-19_17-01-27_260595134347_rgbf000116-resize_2/001449_2014-06-19_17-01-27_260595134347_rgbf000116-resize_2-target.png,250,3.452,8,1704,240,feet,jsons/v1_VE250_randls_47.json,505380,619602,34,Man
108,390384,DepthScenes,duration_manipulation_targetAtFixation,jsons/v1_VE250_randls_47.json,http://54.235.29.9/FacialAge/BNav_EC2/DepthDuration/v2_depth_duration_MTurk/v2_DepthDuration_HTML.html#261,261,1360,625,1360,768,8-29-2022,14-52-7,109,depth_duration_stimuli/001450_2014-06-19_17-02-03_260595134347_rgbf000203-resize_4/001450_2014-06-19_17-02-03_260595134347_rgbf000203-resize_4-target.png,250,4.0106666666667,8,1571,233,feet,jsons/v1_VE250_randls_47.json,505380,619602,34,Man
109,390384,DepthScenes,duration_manipulation_targetAtFixation,jsons/v1_VE250_randls_47.json,http://54.235.29.9/FacialAge/BNav_EC2/DepthDuration/v2_depth_duration_MTurk/v2_DepthDuration_HTML.html#261,261,1360,625,1360,768,8-29-2022,14-52-7,110,depth_duration_stimuli/000414_2014-06-04_19-49-13_260595134347_rgbf000044-resize_0/000414_2014-06-04_19-49-13_260595134347_rgbf000044-resize_0-target.png,250,4.329,7,2343,249,feet,jsons/v1_VE250_randls_47.json,505380,619602,34,Man
110,390384,DepthScenes,duration_manipulation_targetAtFixation,jsons/v1_VE250_randls_47.json,http://54.235.29.9/FacialAge/BNav_EC2/DepthDuration/v2_depth_duration_MTurk/v2_DepthDuration_HTML.html#261,261,1360,625,1360,768,8-29-2022,14-52-7,111,depth_duration_stimuli/003129_2014-05-12_10-48-10_094959634447_rgbf000100-resize_0/003129_2014-05-12_10-48-10_094959634447_rgbf000100-resize_0-target.png,250,4.9305,7,1973,249,feet,jsons/v1_VE250_randls_47.json,505380,619602,34,Man
111,390384,DepthScenes,duration_manipulation_targetAtFixation,jsons/v1_VE250_randls_47.json,http://54.235.29.9/FacialAge/BNav_EC2/DepthDuration/v2_depth_duration_MTurk/v2_DepthDuration_HTML.html#261,261,1360,625,1360,768,8-29-2022,14-52-7,112,depth_duration_stimuli/002600_2014-06-24_14-27-04_094959634447_rgbf000074-resize_2/002600_2014-06-24_14-27-04_094959634447_rgbf000074-resize_2-target.png,250,2.7575,5,2829,239,feet,jsons/v1_VE250_randls_47.json,505380,619602,34,Man
112,390384,DepthScenes,duration_manipulation_targetAtFixation,jsons/v1_VE250_randls_47.json,http://54.235.29.9/FacialAge/BNav_EC2/DepthDuration/v2_depth_duration_MTurk/v2_DepthDuration_HTML.html#261,261,1360,625,1360,768,8-29-2022,14-52-7,113,depth_duration_stimuli/003228_2014-05-14_13-42-35_094959634447_rgbf000101-resize_1/003228_2014-05-14_13-42-35_094959634447_rgbf000101-resize_1-target.png,250,1.9680000000000002,3,3641,254,feet,jsons/v1_VE250_randls_47.json,505380,619602,34,Man
113,390384,DepthScenes,duration_manipulation_targetAtFixation,jsons/v1_VE250_randls_47.json,http://54.235.29.9/FacialAge/BNav_EC2/DepthDuration/v2_depth_duration_MTurk/v2_DepthDuration_HTML.html#261,261,1360,625,1360,768,8-29-2022,14-52-7,114,depth_duration_stimuli/002725_2014-06-22_11-47-51_094959634447_rgbf000070-resize_1/002725_2014-06-22_11-47-51_094959634447_rgbf000070-resize_1-target.png,250,2.195,5,3859,257,feet,jsons/v1_VE250_randls_47.json,505380,619602,34,Man
114,390384,DepthScenes,duration_manipulation_targetAtFixation,jsons/v1_VE250_randls_47.json,http://54.235.29.9/FacialAge/BNav_EC2/DepthDuration/v2_depth_duration_MTurk/v2_DepthDuration_HTML.html#261,261,1360,625,1360,768,8-29-2022,14-52-7,115,depth_duration_stimuli/002344_2014-06-28_20-06-29_260595134347_rgbf000030-resize_1/002344_2014-06-28_20-06-29_260595134347_rgbf000030-resize_1-target.png,250,1.5795,2,2629,274,feet,jsons/v1_VE250_randls_47.json,505380,619602,34,Man
115,390384,DepthScenes,duration_manipulation_targetAtFixation,jsons/v1_VE250_randls_47.json,http://54.235.29.9/FacialAge/BNav_EC2/DepthDuration/v2_depth_duration_MTurk/v2_DepthDuration_HTML.html#261,261,1360,625,1360,768,8-29-2022,14-52-7,116,depth_duration_stimuli/001170_2014-06-17_15-43-44_260595134347_rgbf000096-resize_6/001170_2014-06-17_15-43-44_260595134347_rgbf000096-resize-original.jpg,250,1.1909999999999998,0,2877,252,feet,jsons/v1_VE250_randls_47.json,505380,619602,34,Man
116,390384,DepthScenes,duration_manipulation_targetAtFixation,jsons/v1_VE250_randls_47.json,http://54.235.29.9/FacialAge/BNav_EC2/DepthDuration/v2_depth_duration_MTurk/v2_DepthDuration_HTML.html#261,261,1360,625,1360,768,8-29-2022,14-52-7,117,depth_duration_stimuli/000929_2014-06-09_16-33-19_260595134347_rgbf000139-resize_0/000929_2014-06-09_16-33-19_260595134347_rgbf000139-resize_0-target.png,250,2.8680000000000003,5,2937,247,feet,jsons/v1_VE250_randls_47.json,505380,619602,34,Man
117,390384,DepthScenes,duration_manipulation_targetAtFixation,jsons/v1_VE250_randls_47.json,http://54.235.29.9/FacialAge/BNav_EC2/DepthDuration/v2_depth_duration_MTurk/v2_DepthDuration_HTML.html#261,261,1360,625,1360,768,8-29-2022,14-52-7,118,depth_duration_stimuli/000457_2014-06-08_16-52-43_260595134347_rgbf000199-resize_1/000457_2014-06-08_16-52-43_260595134347_rgbf000199-resize_1-target.png,250,3.6489999999999996,6,2294,254,feet,jsons/v1_VE250_randls_47.json,505380,619602,34,Man
118,390384,DepthScenes,duration_manipulation_targetAtFixation,jsons/v1_VE250_randls_47.json,http://54.235.29.9/FacialAge/BNav_EC2/DepthDuration/v2_depth_duration_MTurk/v2_DepthDuration_HTML.html#261,261,1360,625,1360,768,8-29-2022,14-52-7,119,depth_duration_stimuli/001011_2014-06-08_23-18-54_260595134347_rgbf000044-resize_4/001011_2014-06-08_23-18-54_260595134347_rgbf000044-resize_4-target.png,250,2.4730000000000003,8,2249,247,feet,jsons/v1_VE250_randls_47.json,505380,619602,34,Man
119,390384,DepthScenes,duration_manipulation_targetAtFixation,jsons/v1_VE250_randls_47.json,http://54.235.29.9/FacialAge/BNav_EC2/DepthDuration/v2_depth_duration_MTurk/v2_DepthDuration_HTML.html#261,261,1360,625,1360,768,8-29-2022,14-52-7,120,depth_duration_stimuli/002875_2014-06-01_15-19-00_094959634447_rgbf000151-resize_1/002875_2014-06-01_15-19-00_094959634447_rgbf000151-resize_1-target.png,250,1.9675,5,2354,256,feet,jsons/v1_VE250_randls_47.json,505380,619602,34,Man
120,390384,DepthScenes,duration_manipulation_targetAtFixation,jsons/v1_VE250_randls_47.json,http://54.235.29.9/FacialAge/BNav_EC2/DepthDuration/v2_depth_duration_MTurk/v2_DepthDuration_HTML.html#261,261,1360,625,1360,768,8-29-2022,14-52-7,121,depth_duration_stimuli/000493_2014-06-09_21-01-18_260595134347_rgbf000196-resize_3/000493_2014-06-09_21-01-18_260595134347_rgbf000196-resize_3-target.png,250,3.44,6,1787,226,feet,jsons/v1_VE250_randls_47.json,505380,619602,34,Man
121,390384,DepthScenes,duration_manipulation_targetAtFixation,jsons/v1_VE250_randls_47.json,http://54.235.29.9/FacialAge/BNav_EC2/DepthDuration/v2_depth_duration_MTurk/v2_DepthDuration_HTML.html#261,261,1360,625,1360,768,8-29-2022,14-52-7,122,depth_duration_stimuli/000191_2014-05-12_17-07-38_260595134347_rgbf000199-resize_0/000191_2014-05-12_17-07-38_260595134347_rgbf000199-resize_0-target.png,250,3.7995,6,2053,248,feet,jsons/v1_VE250_randls_47.json,505380,619602,34,Man
122,390384,DepthScenes,duration_manipulation_targetAtFixation,jsons/v1_VE250_randls_47.json,http://54.235.29.9/FacialAge/BNav_EC2/DepthDuration/v2_depth_duration_MTurk/v2_DepthDuration_HTML.html#261,261,1360,625,1360,768,8-29-2022,14-52-7,123,depth_duration_stimuli/000447_2014-06-08_16-15-46_260595134347_rgbf000130-resize_1/000447_2014-06-08_16-15-46_260595134347_rgbf000130-resize_1-target.png,250,4.479,7,2670,232,feet,jsons/v1_VE250_randls_47.json,505380,619602,34,Man
123,390384,DepthScenes,duration_manipulation_targetAtFixation,jsons/v1_VE250_randls_47.json,http://54.235.29.9/FacialAge/BNav_EC2/DepthDuration/v2_depth_duration_MTurk/v2_DepthDuration_HTML.html#261,261,1360,625,1360,768,8-29-2022,14-52-7,124,depth_duration_stimuli/001447_2014-06-19_17-00-32_260595134347_rgbf000082-resize_5/001447_2014-06-19_17-00-32_260595134347_rgbf000082-resize_5-target.png,250,4.13775,7,2591,250,feet,jsons/v1_VE250_randls_47.json,505380,619602,34,Man
124,390384,DepthScenes,duration_manipulation_targetAtFixation,jsons/v1_VE250_randls_47.json,http://54.235.29.9/FacialAge/BNav_EC2/DepthDuration/v2_depth_duration_MTurk/v2_DepthDuration_HTML.html#261,261,1360,625,1360,768,8-29-2022,14-52-7,125,depth_duration_stimuli/001417_2014-06-19_16-25-36_260595134347_rgbf000115-resize_5/001417_2014-06-19_16-25-36_260595134347_rgbf000115-resize_5-target.png,250,4.6255,8,2238,250,feet,jsons/v1_VE250_randls_47.json,505380,619602,34,Man
125,390384,DepthScenes,duration_manipulation_targetAtFixation,jsons/v1_VE250_randls_47.json,http://54.235.29.9/FacialAge/BNav_EC2/DepthDuration/v2_depth_duration_MTurk/v2_DepthDuration_HTML.html#261,261,1360,625,1360,768,8-29-2022,14-52-7,126,depth_duration_stimuli/003081_2014-06-15_15-19-16_094959634447_rgbf000150-resize_1/003081_2014-06-15_15-19-16_094959634447_rgbf000150-resize_1-target.png,250,3.9125,7,1810,239,feet,jsons/v1_VE250_randls_47.json,505380,619602,34,Man
126,390384,DepthScenes,duration_manipulation_targetAtFixation,jsons/v1_VE250_randls_47.json,http://54.235.29.9/FacialAge/BNav_EC2/DepthDuration/v2_depth_duration_MTurk/v2_DepthDuration_HTML.html#261,261,1360,625,1360,768,8-29-2022,14-52-7,127,depth_duration_stimuli/003492_2014-05-21_15-50-55_094959634447_rgbf000828-resize_1/003492_2014-05-21_15-50-55_094959634447_rgbf000828-resize_1-target.png,250,4.06875,10,4135,257,feet,jsons/v1_VE250_randls_47.json,505380,619602,34,Man
127,390384,DepthScenes,duration_manipulation_targetAtFixation,jsons/v1_VE250_randls_47.json,http://54.235.29.9/FacialAge/BNav_EC2/DepthDuration/v2_depth_duration_MTurk/v2_DepthDuration_HTML.html#261,261,1360,625,1360,768,8-29-2022,14-52-7,128,depth_duration_stimuli/002568_2014-06-24_13-59-21_094959634447_rgbf000062-resize_4/002568_2014-06-24_13-59-21_094959634447_rgbf000062-resize_4-target.png,250,3.015,5,2939,249,feet,jsons/v1_VE250_randls_47.json,505380,619602,34,Man
128,390384,DepthScenes,duration_manipulation_targetAtFixation,jsons/v1_VE250_randls_47.json,http://54.235.29.9/FacialAge/BNav_EC2/DepthDuration/v2_depth_duration_MTurk/v2_DepthDuration_HTML.html#261,261,1360,625,1360,768,8-29-2022,14-52-7,129,depth_duration_stimuli/000906_2014-06-08_13-35-43_260595134347_rgbf000155-resize_1/000906_2014-06-08_13-35-43_260595134347_rgbf000155-resize_1-target.png,250,2.8489999999999998,7,2522,232,feet,jsons/v1_VE250_randls_47.json,505380,619602,34,Man
129,390384,DepthScenes,duration_manipulation_targetAtFixation,jsons/v1_VE250_randls_47.json,http://54.235.29.9/FacialAge/BNav_EC2/DepthDuration/v2_depth_duration_MTurk/v2_DepthDuration_HTML.html#261,261,1360,625,1360,768,8-29-2022,14-52-7,130,depth_duration_stimuli/002805_2014-06-22_19-54-03_094959634447_rgbf000079-resize_1/002805_2014-06-22_19-54-03_094959634447_rgbf000079-resize_1-target.png,250,3.1439999999999997,7,2674,248,feet,jsons/v1_VE250_randls_47.json,505380,619602,34,Man
130,390384,DepthScenes,duration_manipulation_targetAtFixation,jsons/v1_VE250_randls_47.json,http://54.235.29.9/FacialAge/BNav_EC2/DepthDuration/v2_depth_duration_MTurk/v2_DepthDuration_HTML.html#261,261,1360,625,1360,768,8-29-2022,14-52-7,131,depth_duration_stimuli/002989_2014-06-15_12-25-03_094959634447_rgbf000150-resize_3/002989_2014-06-15_12-25-03_094959634447_rgbf000150-resize_3-target.png,250,4.1975,8,2434,249,feet,jsons/v1_VE250_randls_47.json,505380,619602,34,Man
131,390384,DepthScenes,duration_manipulation_targetAtFixation,jsons/v1_VE250_randls_47.json,http://54.235.29.9/FacialAge/BNav_EC2/DepthDuration/v2_depth_duration_MTurk/v2_DepthDuration_HTML.html#261,261,1360,625,1360,768,8-29-2022,14-52-7,132,depth_duration_stimuli/000866_2014-06-09_20-45-42_260595134347_rgbf000139-resize_1/000866_2014-06-09_20-45-42_260595134347_rgbf000139-resize_1-target.png,250,3.2155,9,2382,252,feet,jsons/v1_VE250_randls_47.json,505380,619602,34,Man
132,390384,DepthScenes,duration_manipulation_targetAtFixation,jsons/v1_VE250_randls_47.json,http://54.235.29.9/FacialAge/BNav_EC2/DepthDuration/v2_depth_duration_MTurk/v2_DepthDuration_HTML.html#261,261,1360,625,1360,768,8-29-2022,14-52-7,133,depth_duration_stimuli/002043_2014-06-24_20-29-38_260595134347_rgbf000039-resize_4/002043_2014-06-24_20-29-38_260595134347_rgbf000039-resize_4-target.png,250,2.8435,7,2524,250,feet,jsons/v1_VE250_randls_47.json,505380,619602,34,Man
133,390384,DepthScenes,duration_manipulation_targetAtFixation,jsons/v1_VE250_randls_47.json,http://54.235.29.9/FacialAge/BNav_EC2/DepthDuration/v2_depth_duration_MTurk/v2_DepthDuration_HTML.html#261,261,1360,625,1360,768,8-29-2022,14-52-7,134,depth_duration_stimuli/003048_2014-06-15_13-49-43_094959634447_rgbf000150-resize_1/003048_2014-06-15_13-49-43_094959634447_rgbf000150-resize_1-target.png,250,4.0035,7,1519,249,feet,jsons/v1_VE250_randls_47.json,505380,619602,34,Man
134,390384,DepthScenes,duration_manipulation_targetAtFixation,jsons/v1_VE250_randls_47.json,http://54.235.29.9/FacialAge/BNav_EC2/DepthDuration/v2_depth_duration_MTurk/v2_DepthDuration_HTML.html#261,261,1360,625,1360,768,8-29-2022,14-52-7,135,depth_duration_stimuli/002072_2014-06-24_21-48-06_260595134347_rgbf000115-resize_0/002072_2014-06-24_21-48-06_260595134347_rgbf000115-resize-original.jpg,250,4.702,0,2459,251,feet,jsons/v1_VE250_randls_47.json,505380,619602,34,Man
135,390384,DepthScenes,duration_manipulation_targetAtFixation,jsons/v1_VE250_randls_47.json,http://54.235.29.9/FacialAge/BNav_EC2/DepthDuration/v2_depth_duration_MTurk/v2_DepthDuration_HTML.html#261,261,1360,625,1360,768,8-29-2022,14-52-7,136,depth_duration_stimuli/000469_2014-06-09_19-42-10_260595134347_rgbf000081-resize_1/000469_2014-06-09_19-42-10_260595134347_rgbf000081-resize_1-target.png,250,1.652,4,2490,252,feet,jsons/v1_VE250_randls_47.json,505380,619602,34,Man
136,390384,DepthScenes,duration_manipulation_targetAtFixation,jsons/v1_VE250_randls_47.json,http://54.235.29.9/FacialAge/BNav_EC2/DepthDuration/v2_depth_duration_MTurk/v2_DepthDuration_HTML.html#261,261,1360,625,1360,768,8-29-2022,14-52-7,137,depth_duration_stimuli/000483_2014-06-09_20-41-45_260595134347_rgbf000116-resize_4/000483_2014-06-09_20-41-45_260595134347_rgbf000116-resize_4-target.png,250,1.337,3,2928,246,feet,jsons/v1_VE250_randls_47.json,505380,619602,34,Man
137,390384,DepthScenes,duration_manipulation_targetAtFixation,jsons/v1_VE250_randls_47.json,http://54.235.29.9/FacialAge/BNav_EC2/DepthDuration/v2_depth_duration_MTurk/v2_DepthDuration_HTML.html#261,261,1360,625,1360,768,8-29-2022,14-52-7,138,depth_duration_stimuli/001244_2014-06-17_16-47-45_260595134347_rgbf000030-resize_4/001244_2014-06-17_16-47-45_260595134347_rgbf000030-resize_4-target.png,250,2.0425,5,2986,247,feet,jsons/v1_VE250_randls_47.json,505380,619602,34,Man
138,390384,DepthScenes,duration_manipulation_targetAtFixation,jsons/v1_VE250_randls_47.json,http://54.235.29.9/FacialAge/BNav_EC2/DepthDuration/v2_depth_duration_MTurk/v2_DepthDuration_HTML.html#261,261,1360,625,1360,768,8-29-2022,14-52-7,139,depth_duration_stimuli/003495_2014-05-21_16-01-51_094959634447_rgbf000100-resize_3/003495_2014-05-21_16-01-51_094959634447_rgbf000100-resize_3-target.png,250,1.6255,5,1868,250,feet,jsons/v1_VE250_randls_47.json,505380,619602,34,Man
139,390384,DepthScenes,duration_manipulation_targetAtFixation,jsons/v1_VE250_randls_47.json,http://54.235.29.9/FacialAge/BNav_EC2/DepthDuration/v2_depth_duration_MTurk/v2_DepthDuration_HTML.html#261,261,1360,625,1360,768,8-29-2022,14-52-7,140,depth_duration_stimuli/000810_2014-06-08_17-20-01_260595134347_rgbf000105-resize_0/000810_2014-06-08_17-20-01_260595134347_rgbf000105-resize_0-target.png,250,1.4865,5,1670,249,feet,jsons/v1_VE250_randls_47.json,505380,619602,34,Man
140,390384,DepthScenes,duration_manipulation_targetAtFixation,jsons/v1_VE250_randls_47.json,http://54.235.29.9/FacialAge/BNav_EC2/DepthDuration/v2_depth_duration_MTurk/v2_DepthDuration_HTML.html#261,261,1360,625,1360,768,8-29-2022,14-52-7,141,depth_duration_stimuli/001214_2014-06-17_16-13-55_260595134347_rgbf000111-resize_0/001214_2014-06-17_16-13-55_260595134347_rgbf000111-resize_0-target.png,250,2.6505,5,1697,257,feet,jsons/v1_VE250_randls_47.json,505380,619602,34,Man
141,390384,DepthScenes,duration_manipulation_targetAtFixation,jsons/v1_VE250_randls_47.json,http://54.235.29.9/FacialAge/BNav_EC2/DepthDuration/v2_depth_duration_MTurk/v2_DepthDuration_HTML.html#261,261,1360,625,1360,768,8-29-2022,14-52-7,142,depth_duration_stimuli/002784_2014-06-22_19-26-30_094959634447_rgbf000083-resize_3/002784_2014-06-22_19-26-30_094959634447_rgbf000083-resize_3-target.png,250,1.8046666666667,3,2392,253,feet,jsons/v1_VE250_randls_47.json,505380,619602,34,Man
142,390384,DepthScenes,duration_manipulation_targetAtFixation,jsons/v1_VE250_randls_47.json,http://54.235.29.9/FacialAge/BNav_EC2/DepthDuration/v2_depth_duration_MTurk/v2_DepthDuration_HTML.html#261,261,1360,625,1360,768,8-29-2022,14-52-7,143,depth_duration_stimuli/001100_2014-06-15_17-46-26_260595134347_rgbf000225-resize_2/001100_2014-06-15_17-46-26_260595134347_rgbf000225-resize_2-target.png,250,2.24,4,2821,251,feet,jsons/v1_VE250_randls_47.json,505380,619602,34,Man
143,390384,DepthScenes,duration_manipulation_targetAtFixation,jsons/v1_VE250_randls_47.json,http://54.235.29.9/FacialAge/BNav_EC2/DepthDuration/v2_depth_duration_MTurk/v2_DepthDuration_HTML.html#261,261,1360,625,1360,768,8-29-2022,14-52-7,144,depth_duration_stimuli/002375_2014-06-28_20-13-44_260595134347_rgbf000032-resize_1/002375_2014-06-28_20-13-44_260595134347_rgbf000032-resize_1-target.png,250,4.0175,6,2415,236,feet,jsons/v1_VE250_randls_47.json,505380,619602,34,Man
144,390384,DepthScenes,duration_manipulation_targetAtFixation,jsons/v1_VE250_randls_47.json,http://54.235.29.9/FacialAge/BNav_EC2/DepthDuration/v2_depth_duration_MTurk/v2_DepthDuration_HTML.html#261,261,1360,625,1360,768,8-29-2022,14-52-7,145,depth_duration_stimuli/002657_2014-06-13_15-29-54_094959634447_rgbf000150-resize_1/002657_2014-06-13_15-29-54_094959634447_rgbf000150-resize_1-target.png,250,4.919,8,2330,250,feet,jsons/v1_VE250_randls_47.json,505380,619602,34,Man
145,390384,DepthScenes,duration_manipulation_targetAtFixation,jsons/v1_VE250_randls_47.json,http://54.235.29.9/FacialAge/BNav_EC2/DepthDuration/v2_depth_duration_MTurk/v2_DepthDuration_HTML.html#261,261,1360,625,1360,768,8-29-2022,14-52-7,146,depth_duration_stimuli/001498_2014-06-19_17-45-14_260595134347_rgbf000129-resize_4/001498_2014-06-19_17-45-14_260595134347_rgbf000129-resize-original.jpg,250,1.4075,0,2921,248,feet,jsons/v1_VE250_randls_47.json,505380,619602,34,Man
146,390384,DepthScenes,duration_manipulation_targetAtFixation,jsons/v1_VE250_randls_47.json,http://54.235.29.9/FacialAge/BNav_EC2/DepthDuration/v2_depth_duration_MTurk/v2_DepthDuration_HTML.html#261,261,1360,625,1360,768,8-29-2022,14-52-7,147,depth_duration_stimuli/002763_2014-06-22_19-13-10_094959634447_rgbf000075-resize_4/002763_2014-06-22_19-13-10_094959634447_rgbf000075-resize_4-target.png,250,1.68375,5,2673,263,feet,jsons/v1_VE250_randls_47.json,505380,619602,34,Man
147,390384,DepthScenes,duration_manipulation_targetAtFixation,jsons/v1_VE250_randls_47.json,http://54.235.29.9/FacialAge/BNav_EC2/DepthDuration/v2_depth_duration_MTurk/v2_DepthDuration_HTML.html#261,261,1360,625,1360,768,8-29-2022,14-52-7,148,depth_duration_stimuli/002209_2014-06-28_18-36-10_260595134347_rgbf000051-resize_1/002209_2014-06-28_18-36-10_260595134347_rgbf000051-resize_1-target.png,250,2.057,4,2992,237,feet,jsons/v1_VE250_randls_47.json,505380,619602,34,Man
148,390384,DepthScenes,duration_manipulation_targetAtFixation,jsons/v1_VE250_randls_47.json,http://54.235.29.9/FacialAge/BNav_EC2/DepthDuration/v2_depth_duration_MTurk/v2_DepthDuration_HTML.html#261,261,1360,625,1360,768,8-29-2022,14-52-7,149,depth_duration_stimuli/001810_2014-06-26_20-51-35_260595134347_rgbf000040-resize_3/001810_2014-06-26_20-51-35_260595134347_rgbf000040-resize_3-target.png,250,2.2525,5,2335,248,feet,jsons/v1_VE250_randls_47.json,505380,619602,34,Man
149,390384,DepthScenes,duration_manipulation_targetAtFixation,jsons/v1_VE250_randls_47.json,http://54.235.29.9/FacialAge/BNav_EC2/DepthDuration/v2_depth_duration_MTurk/v2_DepthDuration_HTML.html#261,261,1360,625,1360,768,8-29-2022,14-52-7,150,depth_duration_stimuli/003010_2014-06-15_12-54-35_094959634447_rgbf000112-resize_0/003010_2014-06-15_12-54-35_094959634447_rgbf000112-resize_0-target.png,250,3.1185,8,2474,235,feet,jsons/v1_VE250_randls_47.json,505380,619602,34,Man
150,390384,DepthScenes,duration_manipulation_targetAtFixation,jsons/v1_VE250_randls_47.json,http://54.235.29.9/FacialAge/BNav_EC2/DepthDuration/v2_depth_duration_MTurk/v2_DepthDuration_HTML.html#261,261,1360,625,1360,768,8-29-2022,14-52-7,151,depth_duration_stimuli/001175_2014-06-17_15-45-55_260595134347_rgbf000129-resize_4/001175_2014-06-17_15-45-55_260595134347_rgbf000129-resize_4-target.png,250,4.255,8,2075,242,feet,jsons/v1_VE250_randls_47.json,505380,619602,34,Man
151,390384,DepthScenes,duration_manipulation_targetAtFixation,jsons/v1_VE250_randls_47.json,http://54.235.29.9/FacialAge/BNav_EC2/DepthDuration/v2_depth_duration_MTurk/v2_DepthDuration_HTML.html#261,261,1360,625,1360,768,8-29-2022,14-52-7,152,depth_duration_stimuli/003490_2014-05-21_15-50-11_094959634447_rgbf000101-resize_3/003490_2014-05-21_15-50-11_094959634447_rgbf000101-resize_3-target.png,250,3.6445,6,2558,247,feet,jsons/v1_VE250_randls_47.json,505380,619602,34,Man
152,390384,DepthScenes,duration_manipulation_targetAtFixation,jsons/v1_VE250_randls_47.json,http://54.235.29.9/FacialAge/BNav_EC2/DepthDuration/v2_depth_duration_MTurk/v2_DepthDuration_HTML.html#261,261,1360,625,1360,768,8-29-2022,14-52-7,153,depth_duration_stimuli/001055_2014-06-08_18-45-35_260595134347_rgbf000111-resize_4/001055_2014-06-08_18-45-35_260595134347_rgbf000111-resize_4-target.png,250,2.4290000000000003,8,2261,247,feet,jsons/v1_VE250_randls_47.json,505380,619602,34,Man
153,390384,DepthScenes,duration_manipulation_targetAtFixation,jsons/v1_VE250_randls_47.json,http://54.235.29.9/FacialAge/BNav_EC2/DepthDuration/v2_depth_duration_MTurk/v2_DepthDuration_HTML.html#261,261,1360,625,1360,768,8-29-2022,14-52-7,154,depth_duration_stimuli/000549_2014-06-08_22-10-24_260595134347_rgbf000247-resize_3/000549_2014-06-08_22-10-24_260595134347_rgbf000247-resize_3-target.png,250,1.841,4,2696,245,feet,jsons/v1_VE250_randls_47.json,505380,619602,34,Man
154,390384,DepthScenes,duration_manipulation_targetAtFixation,jsons/v1_VE250_randls_47.json,http://54.235.29.9/FacialAge/BNav_EC2/DepthDuration/v2_depth_duration_MTurk/v2_DepthDuration_HTML.html#261,261,1360,625,1360,768,8-29-2022,14-52-7,155,depth_duration_stimuli/000470_2014-06-09_19-42-40_260595134347_rgbf000094-resize_1/000470_2014-06-09_19-42-40_260595134347_rgbf000094-resize_1-target.png,250,1.831,4,1628,244,feet,jsons/v1_VE250_randls_47.json,505380,619602,34,Man
155,390384,DepthScenes,duration_manipulation_targetAtFixation,jsons/v1_VE250_randls_47.json,http://54.235.29.9/FacialAge/BNav_EC2/DepthDuration/v2_depth_duration_MTurk/v2_DepthDuration_HTML.html#261,261,1360,625,1360,768,8-29-2022,14-52-7,156,depth_duration_stimuli/000109_2014-05-14_23-41-52_260595134347_rgbf000035-resize_9/000109_2014-05-14_23-41-52_260595134347_rgbf000035-resize_9-target.png,250,1.3545,3,1664,259,feet,jsons/v1_VE250_randls_47.json,505380,619602,34,Man
156,390384,DepthScenes,duration_manipulation_targetAtFixation,jsons/v1_VE250_randls_47.json,http://54.235.29.9/FacialAge/BNav_EC2/DepthDuration/v2_depth_duration_MTurk/v2_DepthDuration_HTML.html#261,261,1360,625,1360,768,8-29-2022,14-52-7,157,depth_duration_stimuli/001056_2014-06-08_18-46-44_260595134347_rgbf000068-resize_0/001056_2014-06-08_18-46-44_260595134347_rgbf000068-resize_0-target.png,250,2.6625,6,2646,246,feet,jsons/v1_VE250_randls_47.json,505380,619602,34,Man
157,390384,DepthScenes,duration_manipulation_targetAtFixation,jsons/v1_VE250_randls_47.json,http://54.235.29.9/FacialAge/BNav_EC2/DepthDuration/v2_depth_duration_MTurk/v2_DepthDuration_HTML.html#261,261,1360,625,1360,768,8-29-2022,14-52-7,158,depth_duration_stimuli/002199_2014-06-28_18-33-56_260595134347_rgbf000074-resize_0/002199_2014-06-28_18-33-56_260595134347_rgbf000074-resize_0-target.png,250,1.996,3,1890,248,feet,jsons/v1_VE250_randls_47.json,505380,619602,34,Man
158,390384,DepthScenes,duration_manipulation_targetAtFixation,jsons/v1_VE250_randls_47.json,http://54.235.29.9/FacialAge/BNav_EC2/DepthDuration/v2_depth_duration_MTurk/v2_DepthDuration_HTML.html#261,261,1360,625,1360,768,8-29-2022,14-52-7,159,depth_duration_stimuli/002570_2014-06-24_13-59-54_094959634447_rgbf000059-resize_0/002570_2014-06-24_13-59-54_094959634447_rgbf000059-resize_0-target.png,250,4.037,5,2514,248,feet,jsons/v1_VE250_randls_47.json,505380,619602,34,Man
159,390384,DepthScenes,duration_manipulation_targetAtFixation,jsons/v1_VE250_randls_47.json,http://54.235.29.9/FacialAge/BNav_EC2/DepthDuration/v2_depth_duration_MTurk/v2_DepthDuration_HTML.html#261,261,1360,625,1360,768,8-29-2022,14-52-7,160,depth_duration_stimuli/002467_2014-06-28_20-38-07_260595134347_rgbf000026-resize_2/002467_2014-06-28_20-38-07_260595134347_rgbf000026-resize_2-target.png,250,4.742,6,2389,248,feet,jsons/v1_VE250_randls_47.json,505380,619602,34,Man
160,390384,DepthScenes,duration_manipulation_targetAtFixation,jsons/v1_VE250_randls_47.json,http://54.235.29.9/FacialAge/BNav_EC2/DepthDuration/v2_depth_duration_MTurk/v2_DepthDuration_HTML.html#261,261,1360,625,1360,768,8-29-2022,14-52-7,161,depth_duration_stimuli/001150_2014-06-17_15-27-34_260595134347_rgbf000108-resize_2/001150_2014-06-17_15-27-34_260595134347_rgbf000108-resize_2-target.png,250,4.0325,6,1513,255,feet,jsons/v1_VE250_randls_47.json,505380,619602,34,Man
161,390384,DepthScenes,duration_manipulation_targetAtFixation,jsons/v1_VE250_randls_47.json,http://54.235.29.9/FacialAge/BNav_EC2/DepthDuration/v2_depth_duration_MTurk/v2_DepthDuration_HTML.html#261,261,1360,625,1360,768,8-29-2022,14-52-7,162,depth_duration_stimuli/000665_2014-06-09_20-42-35_260595134347_rgbf000110-resize_1/000665_2014-06-09_20-42-35_260595134347_rgbf000110-resize_1-target.png,250,3.057,6,1637,261,feet,jsons/v1_VE250_randls_47.json,505380,619602,34,Man
162,390384,DepthScenes,duration_manipulation_targetAtFixation,jsons/v1_VE250_randls_47.json,http://54.235.29.9/FacialAge/BNav_EC2/DepthDuration/v2_depth_duration_MTurk/v2_DepthDuration_HTML.html#261,261,1360,625,1360,768,8-29-2022,14-52-7,163,depth_duration_stimuli/000009_2014-05-26_14-32-05_260595134347_rgbf000034-resize_3/000009_2014-05-26_14-32-05_260595134347_rgbf000034-resize_3-target.png,250,3.8715,8,2474,238,feet,jsons/v1_VE250_randls_47.json,505380,619602,34,Man
163,390384,DepthScenes,duration_manipulation_targetAtFixation,jsons/v1_VE250_randls_47.json,http://54.235.29.9/FacialAge/BNav_EC2/DepthDuration/v2_depth_duration_MTurk/v2_DepthDuration_HTML.html#261,261,1360,625,1360,768,8-29-2022,14-52-7,164,depth_duration_stimuli/001828_2014-06-26_21-40-03_260595134347_rgbf000024-resize_0/001828_2014-06-26_21-40-03_260595134347_rgbf000024-resize_0-target.png,250,4.8260000000000005,7,2396,251,feet,jsons/v1_VE250_randls_47.json,505380,619602,34,Man
