,subjID,experimentName,versionName,sequenceName,url,selected_row,windowWidth,windowHeight,screenWidth,screenHeight,startDate,startTime,trial,stimulus,duration,actual_depth,depth_estimate,trial_RT,log_sceneDuration,unitSelection,seq_filepath,experimentTime,totalTime,age,gender
0,390494,DepthScenes,duration_manipulation_targetAtFixation,jsons/v1_VE250_randls_54.json,http://54.235.29.9/FacialAge/BNav_EC2/DepthDuration/v2_depth_duration_MTurk/v2_DepthDuration_HTML.html#39,39,2560,1440,2560,1440,8-20-2022,11-8-50,1,depth_duration_stimuli/001066_2014-06-08_22-03-20_260595134347_rgbf000066-resize_4/001066_2014-06-08_22-03-20_260595134347_rgbf000066-resize_4-target.png,250,4.2330000000000005,8.0,5101,249,feet,jsons/v1_VE250_randls_54.json,1110746,1426649,24,Man
1,390494,DepthScenes,duration_manipulation_targetAtFixation,jsons/v1_VE250_randls_54.json,http://54.235.29.9/FacialAge/BNav_EC2/DepthDuration/v2_depth_duration_MTurk/v2_DepthDuration_HTML.html#39,39,2560,1440,2560,1440,8-20-2022,11-8-50,2,depth_duration_stimuli/000742_2014-06-08_18-48-09_260595134347_rgbf000164-resize_4/000742_2014-06-08_18-48-09_260595134347_rgbf000164-resize_4-target.png,250,4.632,6.0,4641,248,feet,jsons/v1_VE250_randls_54.json,1110746,1426649,24,Man
2,390494,DepthScenes,duration_manipulation_targetAtFixation,jsons/v1_VE250_randls_54.json,http://54.235.29.9/FacialAge/BNav_EC2/DepthDuration/v2_depth_duration_MTurk/v2_DepthDuration_HTML.html#39,39,2560,1440,2560,1440,8-20-2022,11-8-50,3,depth_duration_stimuli/002784_2014-06-22_19-26-30_094959634447_rgbf000083-resize_3/002784_2014-06-22_19-26-30_094959634447_rgbf000083-resize_3-target.png,250,1.8046666666667,2.0,3998,251,feet,jsons/v1_VE250_randls_54.json,1110746,1426649,24,Man
3,390494,DepthScenes,duration_manipulation_targetAtFixation,jsons/v1_VE250_randls_54.json,http://54.235.29.9/FacialAge/BNav_EC2/DepthDuration/v2_depth_duration_MTurk/v2_DepthDuration_HTML.html#39,39,2560,1440,2560,1440,8-20-2022,11-8-50,4,depth_duration_stimuli/001100_2014-06-15_17-46-26_260595134347_rgbf000225-resize_2/001100_2014-06-15_17-46-26_260595134347_rgbf000225-resize_2-target.png,250,2.24,1.0,4428,249,feet,jsons/v1_VE250_randls_54.json,1110746,1426649,24,Man
4,390494,DepthScenes,duration_manipulation_targetAtFixation,jsons/v1_VE250_randls_54.json,http://54.235.29.9/FacialAge/BNav_EC2/DepthDuration/v2_depth_duration_MTurk/v2_DepthDuration_HTML.html#39,39,2560,1440,2560,1440,8-20-2022,11-8-50,5,depth_duration_stimuli/002057_2014-06-24_21-00-13_260595134347_rgbf000120-resize_1/002057_2014-06-24_21-00-13_260595134347_rgbf000120-resize_1-target.png,250,2.967,6.0,6042,250,feet,jsons/v1_VE250_randls_54.json,1110746,1426649,24,Man
5,390494,DepthScenes,duration_manipulation_targetAtFixation,jsons/v1_VE250_randls_54.json,http://54.235.29.9/FacialAge/BNav_EC2/DepthDuration/v2_depth_duration_MTurk/v2_DepthDuration_HTML.html#39,39,2560,1440,2560,1440,8-20-2022,11-8-50,6,depth_duration_stimuli/000709_2014-06-08_13-51-55_260595134347_rgbf000068-resize_3/000709_2014-06-08_13-51-55_260595134347_rgbf000068-resize_3-target.png,250,1.8030000000000002,2.0,4216,250,feet,jsons/v1_VE250_randls_54.json,1110746,1426649,24,Man
6,390494,DepthScenes,duration_manipulation_targetAtFixation,jsons/v1_VE250_randls_54.json,http://54.235.29.9/FacialAge/BNav_EC2/DepthDuration/v2_depth_duration_MTurk/v2_DepthDuration_HTML.html#39,39,2560,1440,2560,1440,8-20-2022,11-8-50,7,depth_duration_stimuli/003292_2014-05-14_21-53-49_094959634447_rgbf000100-resize_2/003292_2014-05-14_21-53-49_094959634447_rgbf000100-resize_2-target.png,250,3.4815,0.0,5275,249,feet,jsons/v1_VE250_randls_54.json,1110746,1426649,24,Man
7,390494,DepthScenes,duration_manipulation_targetAtFixation,jsons/v1_VE250_randls_54.json,http://54.235.29.9/FacialAge/BNav_EC2/DepthDuration/v2_depth_duration_MTurk/v2_DepthDuration_HTML.html#39,39,2560,1440,2560,1440,8-20-2022,11-8-50,8,depth_duration_stimuli/002639_2014-06-24_14-51-37_094959634447_rgbf000074-resize_4/002639_2014-06-24_14-51-37_094959634447_rgbf000074-resize_4-target.png,250,4.0375,8.0,5170,248,feet,jsons/v1_VE250_randls_54.json,1110746,1426649,24,Man
8,390494,DepthScenes,duration_manipulation_targetAtFixation,jsons/v1_VE250_randls_54.json,http://54.235.29.9/FacialAge/BNav_EC2/DepthDuration/v2_depth_duration_MTurk/v2_DepthDuration_HTML.html#39,39,2560,1440,2560,1440,8-20-2022,11-8-50,9,depth_duration_stimuli/000906_2014-06-08_13-35-43_260595134347_rgbf000155-resize_1/000906_2014-06-08_13-35-43_260595134347_rgbf000155-resize_1-target.png,250,2.8489999999999998,6.0,3797,249,feet,jsons/v1_VE250_randls_54.json,1110746,1426649,24,Man
9,390494,DepthScenes,duration_manipulation_targetAtFixation,jsons/v1_VE250_randls_54.json,http://54.235.29.9/FacialAge/BNav_EC2/DepthDuration/v2_depth_duration_MTurk/v2_DepthDuration_HTML.html#39,39,2560,1440,2560,1440,8-20-2022,11-8-50,10,depth_duration_stimuli/002805_2014-06-22_19-54-03_094959634447_rgbf000079-resize_1/002805_2014-06-22_19-54-03_094959634447_rgbf000079-resize_1-target.png,250,3.1439999999999997,5.0,6968,250,feet,jsons/v1_VE250_randls_54.json,1110746,1426649,24,Man
10,390494,DepthScenes,duration_manipulation_targetAtFixation,jsons/v1_VE250_randls_54.json,http://54.235.29.9/FacialAge/BNav_EC2/DepthDuration/v2_depth_duration_MTurk/v2_DepthDuration_HTML.html#39,39,2560,1440,2560,1440,8-20-2022,11-8-50,11,depth_duration_stimuli/002570_2014-06-24_13-59-54_094959634447_rgbf000059-resize_0/002570_2014-06-24_13-59-54_094959634447_rgbf000059-resize_0-target.png,250,4.037,9.0,6155,249,feet,jsons/v1_VE250_randls_54.json,1110746,1426649,24,Man
11,390494,DepthScenes,duration_manipulation_targetAtFixation,jsons/v1_VE250_randls_54.json,http://54.235.29.9/FacialAge/BNav_EC2/DepthDuration/v2_depth_duration_MTurk/v2_DepthDuration_HTML.html#39,39,2560,1440,2560,1440,8-20-2022,11-8-50,12,depth_duration_stimuli/002467_2014-06-28_20-38-07_260595134347_rgbf000026-resize_2/002467_2014-06-28_20-38-07_260595134347_rgbf000026-resize_2-target.png,250,4.742,8.0,3948,249,feet,jsons/v1_VE250_randls_54.json,1110746,1426649,24,Man
12,390494,DepthScenes,duration_manipulation_targetAtFixation,jsons/v1_VE250_randls_54.json,http://54.235.29.9/FacialAge/BNav_EC2/DepthDuration/v2_depth_duration_MTurk/v2_DepthDuration_HTML.html#39,39,2560,1440,2560,1440,8-20-2022,11-8-50,13,depth_duration_stimuli/000569_2014-06-09_22-51-47_260595134347_rgbf000141-resize_3/000569_2014-06-09_22-51-47_260595134347_rgbf000141-resize-original.jpg,250,4.512,0.0,3559,248,feet,jsons/v1_VE250_randls_54.json,1110746,1426649,24,Man
13,390494,DepthScenes,duration_manipulation_targetAtFixation,jsons/v1_VE250_randls_54.json,http://54.235.29.9/FacialAge/BNav_EC2/DepthDuration/v2_depth_duration_MTurk/v2_DepthDuration_HTML.html#39,39,2560,1440,2560,1440,8-20-2022,11-8-50,14,depth_duration_stimuli/001417_2014-06-19_16-25-36_260595134347_rgbf000115-resize_5/001417_2014-06-19_16-25-36_260595134347_rgbf000115-resize_5-target.png,250,4.6255,5.0,5584,250,feet,jsons/v1_VE250_randls_54.json,1110746,1426649,24,Man
14,390494,DepthScenes,duration_manipulation_targetAtFixation,jsons/v1_VE250_randls_54.json,http://54.235.29.9/FacialAge/BNav_EC2/DepthDuration/v2_depth_duration_MTurk/v2_DepthDuration_HTML.html#39,39,2560,1440,2560,1440,8-20-2022,11-8-50,15,depth_duration_stimuli/003081_2014-06-15_15-19-16_094959634447_rgbf000150-resize_1/003081_2014-06-15_15-19-16_094959634447_rgbf000150-resize_1-target.png,250,3.9125,6.0,6402,250,feet,jsons/v1_VE250_randls_54.json,1110746,1426649,24,Man
15,390494,DepthScenes,duration_manipulation_targetAtFixation,jsons/v1_VE250_randls_54.json,http://54.235.29.9/FacialAge/BNav_EC2/DepthDuration/v2_depth_duration_MTurk/v2_DepthDuration_HTML.html#39,39,2560,1440,2560,1440,8-20-2022,11-8-50,16,depth_duration_stimuli/000368_2014-06-09_15-53-01_260595134347_rgbf000155-resize_2/000368_2014-06-09_15-53-01_260595134347_rgbf000155-resize_2-target.png,250,2.4859999999999998,5.0,11830,250,feet,jsons/v1_VE250_randls_54.json,1110746,1426649,24,Man
16,390494,DepthScenes,duration_manipulation_targetAtFixation,jsons/v1_VE250_randls_54.json,http://54.235.29.9/FacialAge/BNav_EC2/DepthDuration/v2_depth_duration_MTurk/v2_DepthDuration_HTML.html#39,39,2560,1440,2560,1440,8-20-2022,11-8-50,17,depth_duration_stimuli/002678_2014-06-13_16-15-32_094959634447_rgbf000151-resize_6/002678_2014-06-13_16-15-32_094959634447_rgbf000151-resize_6-target.png,250,2.1830000000000003,4.0,5989,250,feet,jsons/v1_VE250_randls_54.json,1110746,1426649,24,Man
17,390494,DepthScenes,duration_manipulation_targetAtFixation,jsons/v1_VE250_randls_54.json,http://54.235.29.9/FacialAge/BNav_EC2/DepthDuration/v2_depth_duration_MTurk/v2_DepthDuration_HTML.html#39,39,2560,1440,2560,1440,8-20-2022,11-8-50,18,depth_duration_stimuli/000486_2014-06-09_20-47-20_260595134347_rgbf000143-resize_2/000486_2014-06-09_20-47-20_260595134347_rgbf000143-resize_2-target.png,250,4.8325,6.0,4680,250,feet,jsons/v1_VE250_randls_54.json,1110746,1426649,24,Man
18,390494,DepthScenes,duration_manipulation_targetAtFixation,jsons/v1_VE250_randls_54.json,http://54.235.29.9/FacialAge/BNav_EC2/DepthDuration/v2_depth_duration_MTurk/v2_DepthDuration_HTML.html#39,39,2560,1440,2560,1440,8-20-2022,11-8-50,19,depth_duration_stimuli/003083_2014-06-15_15-21-03_094959634447_rgbf000063-resize_1/003083_2014-06-15_15-21-03_094959634447_rgbf000063-resize_1-target.png,250,4.1405,0.0,11722,249,feet,jsons/v1_VE250_randls_54.json,1110746,1426649,24,Man
19,390494,DepthScenes,duration_manipulation_targetAtFixation,jsons/v1_VE250_randls_54.json,http://54.235.29.9/FacialAge/BNav_EC2/DepthDuration/v2_depth_duration_MTurk/v2_DepthDuration_HTML.html#39,39,2560,1440,2560,1440,8-20-2022,11-8-50,20,depth_duration_stimuli/002153_2014-06-25_21-27-18_260595134347_rgbf000038-resize_5/002153_2014-06-25_21-27-18_260595134347_rgbf000038-resize_5-target.png,250,2.505,4.0,4367,250,feet,jsons/v1_VE250_randls_54.json,1110746,1426649,24,Man
20,390494,DepthScenes,duration_manipulation_targetAtFixation,jsons/v1_VE250_randls_54.json,http://54.235.29.9/FacialAge/BNav_EC2/DepthDuration/v2_depth_duration_MTurk/v2_DepthDuration_HTML.html#39,39,2560,1440,2560,1440,8-20-2022,11-8-50,21,depth_duration_stimuli/002660_2014-06-13_15-44-18_094959634447_rgbf001878-resize_2/002660_2014-06-13_15-44-18_094959634447_rgbf001878-resize_2-target.png,250,3.576,6.0,5318,249,feet,jsons/v1_VE250_randls_54.json,1110746,1426649,24,Man
21,390494,DepthScenes,duration_manipulation_targetAtFixation,jsons/v1_VE250_randls_54.json,http://54.235.29.9/FacialAge/BNav_EC2/DepthDuration/v2_depth_duration_MTurk/v2_DepthDuration_HTML.html#39,39,2560,1440,2560,1440,8-20-2022,11-8-50,22,depth_duration_stimuli/002043_2014-06-24_20-29-38_260595134347_rgbf000039-resize_4/002043_2014-06-24_20-29-38_260595134347_rgbf000039-resize_4-target.png,250,2.8435,5.0,3946,250,feet,jsons/v1_VE250_randls_54.json,1110746,1426649,24,Man
22,390494,DepthScenes,duration_manipulation_targetAtFixation,jsons/v1_VE250_randls_54.json,http://54.235.29.9/FacialAge/BNav_EC2/DepthDuration/v2_depth_duration_MTurk/v2_DepthDuration_HTML.html#39,39,2560,1440,2560,1440,8-20-2022,11-8-50,23,depth_duration_stimuli/003048_2014-06-15_13-49-43_094959634447_rgbf000150-resize_1/003048_2014-06-15_13-49-43_094959634447_rgbf000150-resize_1-target.png,250,4.0035,8.0,5129,249,feet,jsons/v1_VE250_randls_54.json,1110746,1426649,24,Man
23,390494,DepthScenes,duration_manipulation_targetAtFixation,jsons/v1_VE250_randls_54.json,http://54.235.29.9/FacialAge/BNav_EC2/DepthDuration/v2_depth_duration_MTurk/v2_DepthDuration_HTML.html#39,39,2560,1440,2560,1440,8-20-2022,11-8-50,24,depth_duration_stimuli/000929_2014-06-09_16-33-19_260595134347_rgbf000139-resize_0/000929_2014-06-09_16-33-19_260595134347_rgbf000139-resize_0-target.png,250,2.8680000000000003,4.0,3752,249,feet,jsons/v1_VE250_randls_54.json,1110746,1426649,24,Man
24,390494,DepthScenes,duration_manipulation_targetAtFixation,jsons/v1_VE250_randls_54.json,http://54.235.29.9/FacialAge/BNav_EC2/DepthDuration/v2_depth_duration_MTurk/v2_DepthDuration_HTML.html#39,39,2560,1440,2560,1440,8-20-2022,11-8-50,25,depth_duration_stimuli/000457_2014-06-08_16-52-43_260595134347_rgbf000199-resize_1/000457_2014-06-08_16-52-43_260595134347_rgbf000199-resize_1-target.png,250,3.6489999999999996,0.0,6442,250,feet,jsons/v1_VE250_randls_54.json,1110746,1426649,24,Man
25,390494,DepthScenes,duration_manipulation_targetAtFixation,jsons/v1_VE250_randls_54.json,http://54.235.29.9/FacialAge/BNav_EC2/DepthDuration/v2_depth_duration_MTurk/v2_DepthDuration_HTML.html#39,39,2560,1440,2560,1440,8-20-2022,11-8-50,26,depth_duration_stimuli/001055_2014-06-08_18-45-35_260595134347_rgbf000111-resize_4/001055_2014-06-08_18-45-35_260595134347_rgbf000111-resize_4-target.png,250,2.4290000000000003,10.0,7549,250,feet,jsons/v1_VE250_randls_54.json,1110746,1426649,24,Man
26,390494,DepthScenes,duration_manipulation_targetAtFixation,jsons/v1_VE250_randls_54.json,http://54.235.29.9/FacialAge/BNav_EC2/DepthDuration/v2_depth_duration_MTurk/v2_DepthDuration_HTML.html#39,39,2560,1440,2560,1440,8-20-2022,11-8-50,27,depth_duration_stimuli/000549_2014-06-08_22-10-24_260595134347_rgbf000247-resize_3/000549_2014-06-08_22-10-24_260595134347_rgbf000247-resize_3-target.png,250,1.841,1.0,4338,250,feet,jsons/v1_VE250_randls_54.json,1110746,1426649,24,Man
27,390494,DepthScenes,duration_manipulation_targetAtFixation,jsons/v1_VE250_randls_54.json,http://54.235.29.9/FacialAge/BNav_EC2/DepthDuration/v2_depth_duration_MTurk/v2_DepthDuration_HTML.html#39,39,2560,1440,2560,1440,8-20-2022,11-8-50,28,depth_duration_stimuli/001806_2014-06-26_20-50-20_260595134347_rgbf000091-resize_1/001806_2014-06-26_20-50-20_260595134347_rgbf000091-resize_1-target.png,250,2.7305,2.5,9441,251,feet,jsons/v1_VE250_randls_54.json,1110746,1426649,24,Man
28,390494,DepthScenes,duration_manipulation_targetAtFixation,jsons/v1_VE250_randls_54.json,http://54.235.29.9/FacialAge/BNav_EC2/DepthDuration/v2_depth_duration_MTurk/v2_DepthDuration_HTML.html#39,39,2560,1440,2560,1440,8-20-2022,11-8-50,29,depth_duration_stimuli/001617_2014-06-20_11-35-32_260595134347_rgbf000066-resize_1/001617_2014-06-20_11-35-32_260595134347_rgbf000066-resize_1-target.png,250,3.7910000000000004,6.0,7705,249,feet,jsons/v1_VE250_randls_54.json,1110746,1426649,24,Man
29,390494,DepthScenes,duration_manipulation_targetAtFixation,jsons/v1_VE250_randls_54.json,http://54.235.29.9/FacialAge/BNav_EC2/DepthDuration/v2_depth_duration_MTurk/v2_DepthDuration_HTML.html#39,39,2560,1440,2560,1440,8-20-2022,11-8-50,30,depth_duration_stimuli/000375_2014-06-08_11-17-29_260595134347_rgbf000133-resize_2/000375_2014-06-08_11-17-29_260595134347_rgbf000133-resize-original.jpg,250,4.718,0.0,4987,250,feet,jsons/v1_VE250_randls_54.json,1110746,1426649,24,Man
30,390494,DepthScenes,duration_manipulation_targetAtFixation,jsons/v1_VE250_randls_54.json,http://54.235.29.9/FacialAge/BNav_EC2/DepthDuration/v2_depth_duration_MTurk/v2_DepthDuration_HTML.html#39,39,2560,1440,2560,1440,8-20-2022,11-8-50,31,depth_duration_stimuli/000642_2014-06-08_16-59-25_260595134347_rgbf000098-resize_2/000642_2014-06-08_16-59-25_260595134347_rgbf000098-resize_2-target.png,250,2.8815,5.0,4010,249,feet,jsons/v1_VE250_randls_54.json,1110746,1426649,24,Man
31,390494,DepthScenes,duration_manipulation_targetAtFixation,jsons/v1_VE250_randls_54.json,http://54.235.29.9/FacialAge/BNav_EC2/DepthDuration/v2_depth_duration_MTurk/v2_DepthDuration_HTML.html#39,39,2560,1440,2560,1440,8-20-2022,11-8-50,32,depth_duration_stimuli/002425_2014-06-28_20-27-29_260595134347_rgbf000031-resize_8/002425_2014-06-28_20-27-29_260595134347_rgbf000031-resize_8-target.png,250,3.8960000000000004,8.0,6326,249,feet,jsons/v1_VE250_randls_54.json,1110746,1426649,24,Man
32,390494,DepthScenes,duration_manipulation_targetAtFixation,jsons/v1_VE250_randls_54.json,http://54.235.29.9/FacialAge/BNav_EC2/DepthDuration/v2_depth_duration_MTurk/v2_DepthDuration_HTML.html#39,39,2560,1440,2560,1440,8-20-2022,11-8-50,33,depth_duration_stimuli/000758_2014-06-08_22-05-08_260595134347_rgbf000085-resize_0/000758_2014-06-08_22-05-08_260595134347_rgbf000085-resize_0-target.png,250,3.3810000000000002,7.0,4792,251,feet,jsons/v1_VE250_randls_54.json,1110746,1426649,24,Man
33,390494,DepthScenes,duration_manipulation_targetAtFixation,jsons/v1_VE250_randls_54.json,http://54.235.29.9/FacialAge/BNav_EC2/DepthDuration/v2_depth_duration_MTurk/v2_DepthDuration_HTML.html#39,39,2560,1440,2560,1440,8-20-2022,11-8-50,34,depth_duration_stimuli/000854_2014-06-09_19-43-13_260595134347_rgbf000066-resize_0/000854_2014-06-09_19-43-13_260595134347_rgbf000066-resize_0-target.png,250,3.068,3.0,3927,249,feet,jsons/v1_VE250_randls_54.json,1110746,1426649,24,Man
34,390494,DepthScenes,duration_manipulation_targetAtFixation,jsons/v1_VE250_randls_54.json,http://54.235.29.9/FacialAge/BNav_EC2/DepthDuration/v2_depth_duration_MTurk/v2_DepthDuration_HTML.html#39,39,2560,1440,2560,1440,8-20-2022,11-8-50,35,depth_duration_stimuli/002748_2014-06-22_19-07-22_094959634447_rgbf000078-resize_1/002748_2014-06-22_19-07-22_094959634447_rgbf000078-resize_1-target.png,250,4.6705,10.0,6184,251,feet,jsons/v1_VE250_randls_54.json,1110746,1426649,24,Man
35,390494,DepthScenes,duration_manipulation_targetAtFixation,jsons/v1_VE250_randls_54.json,http://54.235.29.9/FacialAge/BNav_EC2/DepthDuration/v2_depth_duration_MTurk/v2_DepthDuration_HTML.html#39,39,2560,1440,2560,1440,8-20-2022,11-8-50,36,depth_duration_stimuli/002995_2014-06-15_12-31-26_094959634447_rgbf000150-resize_1/002995_2014-06-15_12-31-26_094959634447_rgbf000150-resize_1-target.png,250,3.8360000000000003,6.0,4524,250,feet,jsons/v1_VE250_randls_54.json,1110746,1426649,24,Man
36,390494,DepthScenes,duration_manipulation_targetAtFixation,jsons/v1_VE250_randls_54.json,http://54.235.29.9/FacialAge/BNav_EC2/DepthDuration/v2_depth_duration_MTurk/v2_DepthDuration_HTML.html#39,39,2560,1440,2560,1440,8-20-2022,11-8-50,37,depth_duration_stimuli/002630_2014-06-24_14-47-50_094959634447_rgbf000055-resize_1/002630_2014-06-24_14-47-50_094959634447_rgbf000055-resize_1-target.png,250,3.0095,6.5,7274,251,feet,jsons/v1_VE250_randls_54.json,1110746,1426649,24,Man
37,390494,DepthScenes,duration_manipulation_targetAtFixation,jsons/v1_VE250_randls_54.json,http://54.235.29.9/FacialAge/BNav_EC2/DepthDuration/v2_depth_duration_MTurk/v2_DepthDuration_HTML.html#39,39,2560,1440,2560,1440,8-20-2022,11-8-50,38,depth_duration_stimuli/002758_2014-06-22_19-11-20_094959634447_rgbf000128-resize_1/002758_2014-06-22_19-11-20_094959634447_rgbf000128-resize_1-target.png,250,2.555,4.0,3907,249,feet,jsons/v1_VE250_randls_54.json,1110746,1426649,24,Man
38,390494,DepthScenes,duration_manipulation_targetAtFixation,jsons/v1_VE250_randls_54.json,http://54.235.29.9/FacialAge/BNav_EC2/DepthDuration/v2_depth_duration_MTurk/v2_DepthDuration_HTML.html#39,39,2560,1440,2560,1440,8-20-2022,11-8-50,39,depth_duration_stimuli/000682_2014-06-08_23-14-58_260595134347_rgbf000041-resize_5/000682_2014-06-08_23-14-58_260595134347_rgbf000041-resize_5-target.png,250,2.7239999999999998,4.5,6921,250,feet,jsons/v1_VE250_randls_54.json,1110746,1426649,24,Man
39,390494,DepthScenes,duration_manipulation_targetAtFixation,jsons/v1_VE250_randls_54.json,http://54.235.29.9/FacialAge/BNav_EC2/DepthDuration/v2_depth_duration_MTurk/v2_DepthDuration_HTML.html#39,39,2560,1440,2560,1440,8-20-2022,11-8-50,40,depth_duration_stimuli/001650_2014-06-20_12-09-00_260595134347_rgbf000087-resize_3/001650_2014-06-20_12-09-00_260595134347_rgbf000087-resize_3-target.png,250,1.9505,1.0,3927,250,feet,jsons/v1_VE250_randls_54.json,1110746,1426649,24,Man
40,390494,DepthScenes,duration_manipulation_targetAtFixation,jsons/v1_VE250_randls_54.json,http://54.235.29.9/FacialAge/BNav_EC2/DepthDuration/v2_depth_duration_MTurk/v2_DepthDuration_HTML.html#39,39,2560,1440,2560,1440,8-20-2022,11-8-50,41,depth_duration_stimuli/001449_2014-06-19_17-01-27_260595134347_rgbf000116-resize_2/001449_2014-06-19_17-01-27_260595134347_rgbf000116-resize_2-target.png,250,3.452,5.5,7280,250,feet,jsons/v1_VE250_randls_54.json,1110746,1426649,24,Man
41,390494,DepthScenes,duration_manipulation_targetAtFixation,jsons/v1_VE250_randls_54.json,http://54.235.29.9/FacialAge/BNav_EC2/DepthDuration/v2_depth_duration_MTurk/v2_DepthDuration_HTML.html#39,39,2560,1440,2560,1440,8-20-2022,11-8-50,42,depth_duration_stimuli/001450_2014-06-19_17-02-03_260595134347_rgbf000203-resize_4/001450_2014-06-19_17-02-03_260595134347_rgbf000203-resize_4-target.png,250,4.0106666666667,6.0,4706,250,feet,jsons/v1_VE250_randls_54.json,1110746,1426649,24,Man
42,390494,DepthScenes,duration_manipulation_targetAtFixation,jsons/v1_VE250_randls_54.json,http://54.235.29.9/FacialAge/BNav_EC2/DepthDuration/v2_depth_duration_MTurk/v2_DepthDuration_HTML.html#39,39,2560,1440,2560,1440,8-20-2022,11-8-50,43,depth_duration_stimuli/000773_2014-06-08_22-24-54_260595134347_rgbf000093-resize_1/000773_2014-06-08_22-24-54_260595134347_rgbf000093-resize_1-target.png,250,4.973,6.0,6701,249,feet,jsons/v1_VE250_randls_54.json,1110746,1426649,24,Man
43,390494,DepthScenes,duration_manipulation_targetAtFixation,jsons/v1_VE250_randls_54.json,http://54.235.29.9/FacialAge/BNav_EC2/DepthDuration/v2_depth_duration_MTurk/v2_DepthDuration_HTML.html#39,39,2560,1440,2560,1440,8-20-2022,11-8-50,44,depth_duration_stimuli/002414_2014-06-28_20-24-58_260595134347_rgbf000067-resize_4/002414_2014-06-28_20-24-58_260595134347_rgbf000067-resize_4-target.png,250,4.363,8.5,8786,250,feet,jsons/v1_VE250_randls_54.json,1110746,1426649,24,Man
44,390494,DepthScenes,duration_manipulation_targetAtFixation,jsons/v1_VE250_randls_54.json,http://54.235.29.9/FacialAge/BNav_EC2/DepthDuration/v2_depth_duration_MTurk/v2_DepthDuration_HTML.html#39,39,2560,1440,2560,1440,8-20-2022,11-8-50,45,depth_duration_stimuli/000787_2014-06-08_22-33-53_260595134347_rgbf000175-resize_1/000787_2014-06-08_22-33-53_260595134347_rgbf000175-resize-original.jpg,250,4.784,0.0,3714,250,feet,jsons/v1_VE250_randls_54.json,1110746,1426649,24,Man
45,390494,DepthScenes,duration_manipulation_targetAtFixation,jsons/v1_VE250_randls_54.json,http://54.235.29.9/FacialAge/BNav_EC2/DepthDuration/v2_depth_duration_MTurk/v2_DepthDuration_HTML.html#39,39,2560,1440,2560,1440,8-20-2022,11-8-50,46,depth_duration_stimuli/001056_2014-06-08_18-46-44_260595134347_rgbf000068-resize_0/001056_2014-06-08_18-46-44_260595134347_rgbf000068-resize_0-target.png,250,2.6625,5.0,4335,251,feet,jsons/v1_VE250_randls_54.json,1110746,1426649,24,Man
46,390494,DepthScenes,duration_manipulation_targetAtFixation,jsons/v1_VE250_randls_54.json,http://54.235.29.9/FacialAge/BNav_EC2/DepthDuration/v2_depth_duration_MTurk/v2_DepthDuration_HTML.html#39,39,2560,1440,2560,1440,8-20-2022,11-8-50,47,depth_duration_stimuli/002199_2014-06-28_18-33-56_260595134347_rgbf000074-resize_0/002199_2014-06-28_18-33-56_260595134347_rgbf000074-resize_0-target.png,250,1.996,1.5,7319,250,feet,jsons/v1_VE250_randls_54.json,1110746,1426649,24,Man
47,390494,DepthScenes,duration_manipulation_targetAtFixation,jsons/v1_VE250_randls_54.json,http://54.235.29.9/FacialAge/BNav_EC2/DepthDuration/v2_depth_duration_MTurk/v2_DepthDuration_HTML.html#39,39,2560,1440,2560,1440,8-20-2022,11-8-50,48,depth_duration_stimuli/001244_2014-06-17_16-47-45_260595134347_rgbf000030-resize_4/001244_2014-06-17_16-47-45_260595134347_rgbf000030-resize_4-target.png,250,2.0425,2.5,8383,250,feet,jsons/v1_VE250_randls_54.json,1110746,1426649,24,Man
48,390494,DepthScenes,duration_manipulation_targetAtFixation,jsons/v1_VE250_randls_54.json,http://54.235.29.9/FacialAge/BNav_EC2/DepthDuration/v2_depth_duration_MTurk/v2_DepthDuration_HTML.html#39,39,2560,1440,2560,1440,8-20-2022,11-8-50,49,depth_duration_stimuli/003495_2014-05-21_16-01-51_094959634447_rgbf000100-resize_3/003495_2014-05-21_16-01-51_094959634447_rgbf000100-resize_3-target.png,250,1.6255,1.8,6019,251,feet,jsons/v1_VE250_randls_54.json,1110746,1426649,24,Man
49,390494,DepthScenes,duration_manipulation_targetAtFixation,jsons/v1_VE250_randls_54.json,http://54.235.29.9/FacialAge/BNav_EC2/DepthDuration/v2_depth_duration_MTurk/v2_DepthDuration_HTML.html#39,39,2560,1440,2560,1440,8-20-2022,11-8-50,50,depth_duration_stimuli/002905_2014-06-03_18-04-43_094959634447_rgbf000151-resize_2/002905_2014-06-03_18-04-43_094959634447_rgbf000151-resize_2-target.png,250,2.0295,2.0,4450,250,feet,jsons/v1_VE250_randls_54.json,1110746,1426649,24,Man
50,390494,DepthScenes,duration_manipulation_targetAtFixation,jsons/v1_VE250_randls_54.json,http://54.235.29.9/FacialAge/BNav_EC2/DepthDuration/v2_depth_duration_MTurk/v2_DepthDuration_HTML.html#39,39,2560,1440,2560,1440,8-20-2022,11-8-50,51,depth_duration_stimuli/003423_2014-05-21_10-23-26_094959634447_rgbf002665-resize_2/003423_2014-05-21_10-23-26_094959634447_rgbf002665-resize_2-target.png,250,3.2575,8.0,7902,250,feet,jsons/v1_VE250_randls_54.json,1110746,1426649,24,Man
51,390494,DepthScenes,duration_manipulation_targetAtFixation,jsons/v1_VE250_randls_54.json,http://54.235.29.9/FacialAge/BNav_EC2/DepthDuration/v2_depth_duration_MTurk/v2_DepthDuration_HTML.html#39,39,2560,1440,2560,1440,8-20-2022,11-8-50,52,depth_duration_stimuli/000469_2014-06-09_19-42-10_260595134347_rgbf000081-resize_1/000469_2014-06-09_19-42-10_260595134347_rgbf000081-resize_1-target.png,250,1.652,2.0,4422,249,feet,jsons/v1_VE250_randls_54.json,1110746,1426649,24,Man
52,390494,DepthScenes,duration_manipulation_targetAtFixation,jsons/v1_VE250_randls_54.json,http://54.235.29.9/FacialAge/BNav_EC2/DepthDuration/v2_depth_duration_MTurk/v2_DepthDuration_HTML.html#39,39,2560,1440,2560,1440,8-20-2022,11-8-50,53,depth_duration_stimuli/000483_2014-06-09_20-41-45_260595134347_rgbf000116-resize_4/000483_2014-06-09_20-41-45_260595134347_rgbf000116-resize_4-target.png,250,1.337,2.0,4766,249,feet,jsons/v1_VE250_randls_54.json,1110746,1426649,24,Man
53,390494,DepthScenes,duration_manipulation_targetAtFixation,jsons/v1_VE250_randls_54.json,http://54.235.29.9/FacialAge/BNav_EC2/DepthDuration/v2_depth_duration_MTurk/v2_DepthDuration_HTML.html#39,39,2560,1440,2560,1440,8-20-2022,11-8-50,54,depth_duration_stimuli/002279_2014-06-28_18-55-32_260595134347_rgbf000040-resize_5/002279_2014-06-28_18-55-32_260595134347_rgbf000040-resize_5-target.png,250,1.5043333333333,2.0,6979,249,feet,jsons/v1_VE250_randls_54.json,1110746,1426649,24,Man
54,390494,DepthScenes,duration_manipulation_targetAtFixation,jsons/v1_VE250_randls_54.json,http://54.235.29.9/FacialAge/BNav_EC2/DepthDuration/v2_depth_duration_MTurk/v2_DepthDuration_HTML.html#39,39,2560,1440,2560,1440,8-20-2022,11-8-50,55,depth_duration_stimuli/000635_2014-06-08_16-38-42_260595134347_rgbf000106-resize_1/000635_2014-06-08_16-38-42_260595134347_rgbf000106-resize_1-target.png,250,2.074,2.5,5859,250,feet,jsons/v1_VE250_randls_54.json,1110746,1426649,24,Man
55,390494,DepthScenes,duration_manipulation_targetAtFixation,jsons/v1_VE250_randls_54.json,http://54.235.29.9/FacialAge/BNav_EC2/DepthDuration/v2_depth_duration_MTurk/v2_DepthDuration_HTML.html#39,39,2560,1440,2560,1440,8-20-2022,11-8-50,56,depth_duration_stimuli/000414_2014-06-04_19-49-13_260595134347_rgbf000044-resize_0/000414_2014-06-04_19-49-13_260595134347_rgbf000044-resize_0-target.png,250,4.329,6.0,8743,250,feet,jsons/v1_VE250_randls_54.json,1110746,1426649,24,Man
56,390494,DepthScenes,duration_manipulation_targetAtFixation,jsons/v1_VE250_randls_54.json,http://54.235.29.9/FacialAge/BNav_EC2/DepthDuration/v2_depth_duration_MTurk/v2_DepthDuration_HTML.html#39,39,2560,1440,2560,1440,8-20-2022,11-8-50,57,depth_duration_stimuli/003129_2014-05-12_10-48-10_094959634447_rgbf000100-resize_0/003129_2014-05-12_10-48-10_094959634447_rgbf000100-resize_0-target.png,250,4.9305,8.5,12699,249,feet,jsons/v1_VE250_randls_54.json,1110746,1426649,24,Man
57,390494,DepthScenes,duration_manipulation_targetAtFixation,jsons/v1_VE250_randls_54.json,http://54.235.29.9/FacialAge/BNav_EC2/DepthDuration/v2_depth_duration_MTurk/v2_DepthDuration_HTML.html#39,39,2560,1440,2560,1440,8-20-2022,11-8-50,58,depth_duration_stimuli/001092_2014-06-15_17-34-58_260595134347_rgbf000171-resize_3/001092_2014-06-15_17-34-58_260595134347_rgbf000171-resize_3-target.png,250,2.6935,2.5,6086,250,feet,jsons/v1_VE250_randls_54.json,1110746,1426649,24,Man
58,390494,DepthScenes,duration_manipulation_targetAtFixation,jsons/v1_VE250_randls_54.json,http://54.235.29.9/FacialAge/BNav_EC2/DepthDuration/v2_depth_duration_MTurk/v2_DepthDuration_HTML.html#39,39,2560,1440,2560,1440,8-20-2022,11-8-50,59,depth_duration_stimuli/002545_2014-06-24_13-38-53_094959634447_rgbf000080-resize_4/002545_2014-06-24_13-38-53_094959634447_rgbf000080-resize_4-target.png,250,1.9205,3.0,4973,250,feet,jsons/v1_VE250_randls_54.json,1110746,1426649,24,Man
59,390494,DepthScenes,duration_manipulation_targetAtFixation,jsons/v1_VE250_randls_54.json,http://54.235.29.9/FacialAge/BNav_EC2/DepthDuration/v2_depth_duration_MTurk/v2_DepthDuration_HTML.html#39,39,2560,1440,2560,1440,8-20-2022,11-8-50,60,depth_duration_stimuli/003534_2014-05-22_15-06-10_094959634447_rgbf000102-resize_4/003534_2014-05-22_15-06-10_094959634447_rgbf000102-resize_4-target.png,250,1.426,1.5,4948,250,feet,jsons/v1_VE250_randls_54.json,1110746,1426649,24,Man
60,390494,DepthScenes,duration_manipulation_targetAtFixation,jsons/v1_VE250_randls_54.json,http://54.235.29.9/FacialAge/BNav_EC2/DepthDuration/v2_depth_duration_MTurk/v2_DepthDuration_HTML.html#39,39,2560,1440,2560,1440,8-20-2022,11-8-50,61,depth_duration_stimuli/002637_2014-06-24_14-51-13_094959634447_rgbf000066-resize_4/002637_2014-06-24_14-51-13_094959634447_rgbf000066-resize_4-target.png,250,1.9955,4.0,5166,250,feet,jsons/v1_VE250_randls_54.json,1110746,1426649,24,Man
61,390494,DepthScenes,duration_manipulation_targetAtFixation,jsons/v1_VE250_randls_54.json,http://54.235.29.9/FacialAge/BNav_EC2/DepthDuration/v2_depth_duration_MTurk/v2_DepthDuration_HTML.html#39,39,2560,1440,2560,1440,8-20-2022,11-8-50,62,depth_duration_stimuli/001175_2014-06-17_15-45-55_260595134347_rgbf000129-resize_4/001175_2014-06-17_15-45-55_260595134347_rgbf000129-resize_4-target.png,250,4.255,6.0,8377,249,feet,jsons/v1_VE250_randls_54.json,1110746,1426649,24,Man
62,390494,DepthScenes,duration_manipulation_targetAtFixation,jsons/v1_VE250_randls_54.json,http://54.235.29.9/FacialAge/BNav_EC2/DepthDuration/v2_depth_duration_MTurk/v2_DepthDuration_HTML.html#39,39,2560,1440,2560,1440,8-20-2022,11-8-50,63,depth_duration_stimuli/003490_2014-05-21_15-50-11_094959634447_rgbf000101-resize_3/003490_2014-05-21_15-50-11_094959634447_rgbf000101-resize_3-target.png,250,3.6445,7.0,9450,250,feet,jsons/v1_VE250_randls_54.json,1110746,1426649,24,Man
63,390494,DepthScenes,duration_manipulation_targetAtFixation,jsons/v1_VE250_randls_54.json,http://54.235.29.9/FacialAge/BNav_EC2/DepthDuration/v2_depth_duration_MTurk/v2_DepthDuration_HTML.html#39,39,2560,1440,2560,1440,8-20-2022,11-8-50,64,depth_duration_stimuli/000447_2014-06-08_16-15-46_260595134347_rgbf000130-resize_1/000447_2014-06-08_16-15-46_260595134347_rgbf000130-resize_1-target.png,250,4.479,7.5,11454,250,feet,jsons/v1_VE250_randls_54.json,1110746,1426649,24,Man
64,390494,DepthScenes,duration_manipulation_targetAtFixation,jsons/v1_VE250_randls_54.json,http://54.235.29.9/FacialAge/BNav_EC2/DepthDuration/v2_depth_duration_MTurk/v2_DepthDuration_HTML.html#39,39,2560,1440,2560,1440,8-20-2022,11-8-50,65,depth_duration_stimuli/001447_2014-06-19_17-00-32_260595134347_rgbf000082-resize_5/001447_2014-06-19_17-00-32_260595134347_rgbf000082-resize_5-target.png,250,4.13775,5.0,7305,249,feet,jsons/v1_VE250_randls_54.json,1110746,1426649,24,Man
65,390494,DepthScenes,duration_manipulation_targetAtFixation,jsons/v1_VE250_randls_54.json,http://54.235.29.9/FacialAge/BNav_EC2/DepthDuration/v2_depth_duration_MTurk/v2_DepthDuration_HTML.html#39,39,2560,1440,2560,1440,8-20-2022,11-8-50,66,depth_duration_stimuli/001222_2014-06-17_16-24-06_260595134347_rgbf000073-resize_0/001222_2014-06-17_16-24-06_260595134347_rgbf000073-resize-original.jpg,250,1.4385,0.0,4151,250,feet,jsons/v1_VE250_randls_54.json,1110746,1426649,24,Man
66,390494,DepthScenes,duration_manipulation_targetAtFixation,jsons/v1_VE250_randls_54.json,http://54.235.29.9/FacialAge/BNav_EC2/DepthDuration/v2_depth_duration_MTurk/v2_DepthDuration_HTML.html#39,39,2560,1440,2560,1440,8-20-2022,11-8-50,67,depth_duration_stimuli/001158_2014-06-17_15-32-16_260595134347_rgbf000138-resize_2/001158_2014-06-17_15-32-16_260595134347_rgbf000138-resize_2-target.png,250,4.5315,5.0,5669,251,feet,jsons/v1_VE250_randls_54.json,1110746,1426649,24,Man
67,390494,DepthScenes,duration_manipulation_targetAtFixation,jsons/v1_VE250_randls_54.json,http://54.235.29.9/FacialAge/BNav_EC2/DepthDuration/v2_depth_duration_MTurk/v2_DepthDuration_HTML.html#39,39,2560,1440,2560,1440,8-20-2022,11-8-50,68,depth_duration_stimuli/000556_2014-06-09_22-42-56_260595134347_rgbf000214-resize_1/000556_2014-06-09_22-42-56_260595134347_rgbf000214-resize_1-target.png,250,4.8415,6.0,6645,249,feet,jsons/v1_VE250_randls_54.json,1110746,1426649,24,Man
68,390494,DepthScenes,duration_manipulation_targetAtFixation,jsons/v1_VE250_randls_54.json,http://54.235.29.9/FacialAge/BNav_EC2/DepthDuration/v2_depth_duration_MTurk/v2_DepthDuration_HTML.html#39,39,2560,1440,2560,1440,8-20-2022,11-8-50,69,depth_duration_stimuli/002600_2014-06-24_14-27-04_094959634447_rgbf000074-resize_2/002600_2014-06-24_14-27-04_094959634447_rgbf000074-resize_2-target.png,250,2.7575,4.0,5808,250,feet,jsons/v1_VE250_randls_54.json,1110746,1426649,24,Man
69,390494,DepthScenes,duration_manipulation_targetAtFixation,jsons/v1_VE250_randls_54.json,http://54.235.29.9/FacialAge/BNav_EC2/DepthDuration/v2_depth_duration_MTurk/v2_DepthDuration_HTML.html#39,39,2560,1440,2560,1440,8-20-2022,11-8-50,70,depth_duration_stimuli/003228_2014-05-14_13-42-35_094959634447_rgbf000101-resize_1/003228_2014-05-14_13-42-35_094959634447_rgbf000101-resize_1-target.png,250,1.9680000000000002,2.5,5970,250,feet,jsons/v1_VE250_randls_54.json,1110746,1426649,24,Man
70,390494,DepthScenes,duration_manipulation_targetAtFixation,jsons/v1_VE250_randls_54.json,http://54.235.29.9/FacialAge/BNav_EC2/DepthDuration/v2_depth_duration_MTurk/v2_DepthDuration_HTML.html#39,39,2560,1440,2560,1440,8-20-2022,11-8-50,71,depth_duration_stimuli/002788_2014-06-22_19-36-03_094959634447_rgbf000088-resize_2/002788_2014-06-22_19-36-03_094959634447_rgbf000088-resize_2-target.png,250,1.6465,3.0,4420,250,feet,jsons/v1_VE250_randls_54.json,1110746,1426649,24,Man
71,390494,DepthScenes,duration_manipulation_targetAtFixation,jsons/v1_VE250_randls_54.json,http://54.235.29.9/FacialAge/BNav_EC2/DepthDuration/v2_depth_duration_MTurk/v2_DepthDuration_HTML.html#39,39,2560,1440,2560,1440,8-20-2022,11-8-50,72,depth_duration_stimuli/000749_2014-06-08_21-55-06_260595134347_rgbf000070-resize_2/000749_2014-06-08_21-55-06_260595134347_rgbf000070-resize_2-target.png,250,2.331,4.0,5205,248,feet,jsons/v1_VE250_randls_54.json,1110746,1426649,24,Man
72,390494,DepthScenes,duration_manipulation_targetAtFixation,jsons/v1_VE250_randls_54.json,http://54.235.29.9/FacialAge/BNav_EC2/DepthDuration/v2_depth_duration_MTurk/v2_DepthDuration_HTML.html#39,39,2560,1440,2560,1440,8-20-2022,11-8-50,73,depth_duration_stimuli/001016_2014-06-09_16-16-10_260595134347_rgbf000112-resize_5/001016_2014-06-09_16-16-10_260595134347_rgbf000112-resize_5-target.png,250,1.6565,4.0,4985,250,feet,jsons/v1_VE250_randls_54.json,1110746,1426649,24,Man
73,390494,DepthScenes,duration_manipulation_targetAtFixation,jsons/v1_VE250_randls_54.json,http://54.235.29.9/FacialAge/BNav_EC2/DepthDuration/v2_depth_duration_MTurk/v2_DepthDuration_HTML.html#39,39,2560,1440,2560,1440,8-20-2022,11-8-50,74,depth_duration_stimuli/002340_2014-06-28_20-05-46_260595134347_rgbf000113-resize_0/002340_2014-06-28_20-05-46_260595134347_rgbf000113-resize_0-target.png,250,2.4735,5.0,5577,249,feet,jsons/v1_VE250_randls_54.json,1110746,1426649,24,Man
74,390494,DepthScenes,duration_manipulation_targetAtFixation,jsons/v1_VE250_randls_54.json,http://54.235.29.9/FacialAge/BNav_EC2/DepthDuration/v2_depth_duration_MTurk/v2_DepthDuration_HTML.html#39,39,2560,1440,2560,1440,8-20-2022,11-8-50,75,depth_duration_stimuli/002549_2014-06-24_13-41-39_094959634447_rgbf000022-resize_3/002549_2014-06-24_13-41-39_094959634447_rgbf000022-resize_3-target.png,250,1.476,1.5,5668,250,feet,jsons/v1_VE250_randls_54.json,1110746,1426649,24,Man
75,390494,DepthScenes,duration_manipulation_targetAtFixation,jsons/v1_VE250_randls_54.json,http://54.235.29.9/FacialAge/BNav_EC2/DepthDuration/v2_depth_duration_MTurk/v2_DepthDuration_HTML.html#39,39,2560,1440,2560,1440,8-20-2022,11-8-50,76,depth_duration_stimuli/002750_2014-06-22_19-08-03_094959634447_rgbf000094-resize_4/002750_2014-06-22_19-08-03_094959634447_rgbf000094-resize_4-target.png,250,2.354,4.0,6162,251,feet,jsons/v1_VE250_randls_54.json,1110746,1426649,24,Man
76,390494,DepthScenes,duration_manipulation_targetAtFixation,jsons/v1_VE250_randls_54.json,http://54.235.29.9/FacialAge/BNav_EC2/DepthDuration/v2_depth_duration_MTurk/v2_DepthDuration_HTML.html#39,39,2560,1440,2560,1440,8-20-2022,11-8-50,77,depth_duration_stimuli/001029_2014-06-08_13-17-57_260595134347_rgbf000065-resize_1/001029_2014-06-08_13-17-57_260595134347_rgbf000065-resize_1-target.png,250,3.0835,4.0,5374,249,feet,jsons/v1_VE250_randls_54.json,1110746,1426649,24,Man
77,390494,DepthScenes,duration_manipulation_targetAtFixation,jsons/v1_VE250_randls_54.json,http://54.235.29.9/FacialAge/BNav_EC2/DepthDuration/v2_depth_duration_MTurk/v2_DepthDuration_HTML.html#39,39,2560,1440,2560,1440,8-20-2022,11-8-50,78,depth_duration_stimuli/000677_2014-06-08_23-10-32_260595134347_rgbf000158-resize_6/000677_2014-06-08_23-10-32_260595134347_rgbf000158-resize_6-target.png,250,3.556,4.0,5493,250,feet,jsons/v1_VE250_randls_54.json,1110746,1426649,24,Man
78,390494,DepthScenes,duration_manipulation_targetAtFixation,jsons/v1_VE250_randls_54.json,http://54.235.29.9/FacialAge/BNav_EC2/DepthDuration/v2_depth_duration_MTurk/v2_DepthDuration_HTML.html#39,39,2560,1440,2560,1440,8-20-2022,11-8-50,79,depth_duration_stimuli/003492_2014-05-21_15-50-55_094959634447_rgbf000828-resize_1/003492_2014-05-21_15-50-55_094959634447_rgbf000828-resize_1-target.png,250,4.06875,6.0,8438,251,feet,jsons/v1_VE250_randls_54.json,1110746,1426649,24,Man
79,390494,DepthScenes,duration_manipulation_targetAtFixation,jsons/v1_VE250_randls_54.json,http://54.235.29.9/FacialAge/BNav_EC2/DepthDuration/v2_depth_duration_MTurk/v2_DepthDuration_HTML.html#39,39,2560,1440,2560,1440,8-20-2022,11-8-50,80,depth_duration_stimuli/002568_2014-06-24_13-59-21_094959634447_rgbf000062-resize_4/002568_2014-06-24_13-59-21_094959634447_rgbf000062-resize_4-target.png,250,3.015,4.5,7639,250,feet,jsons/v1_VE250_randls_54.json,1110746,1426649,24,Man
80,390494,DepthScenes,duration_manipulation_targetAtFixation,jsons/v1_VE250_randls_54.json,http://54.235.29.9/FacialAge/BNav_EC2/DepthDuration/v2_depth_duration_MTurk/v2_DepthDuration_HTML.html#39,39,2560,1440,2560,1440,8-20-2022,11-8-50,81,depth_duration_stimuli/001164_2014-06-17_15-35-46_260595134347_rgbf000085-resize_3/001164_2014-06-17_15-35-46_260595134347_rgbf000085-resize_3-target.png,250,2.354,3.0,4848,250,feet,jsons/v1_VE250_randls_54.json,1110746,1426649,24,Man
81,390494,DepthScenes,duration_manipulation_targetAtFixation,jsons/v1_VE250_randls_54.json,http://54.235.29.9/FacialAge/BNav_EC2/DepthDuration/v2_depth_duration_MTurk/v2_DepthDuration_HTML.html#39,39,2560,1440,2560,1440,8-20-2022,11-8-50,82,depth_duration_stimuli/001136_2014-06-17_15-19-41_260595134347_rgbf000076-resize_3/001136_2014-06-17_15-19-41_260595134347_rgbf000076-resize_3-target.png,250,1.8655,2.5,5256,249,feet,jsons/v1_VE250_randls_54.json,1110746,1426649,24,Man
82,390494,DepthScenes,duration_manipulation_targetAtFixation,jsons/v1_VE250_randls_54.json,http://54.235.29.9/FacialAge/BNav_EC2/DepthDuration/v2_depth_duration_MTurk/v2_DepthDuration_HTML.html#39,39,2560,1440,2560,1440,8-20-2022,11-8-50,83,depth_duration_stimuli/000506_2014-06-08_23-21-00_260595134347_rgbf000070-resize_7/000506_2014-06-08_23-21-00_260595134347_rgbf000070-resize_7-target.png,250,4.0585,4.0,8037,249,feet,jsons/v1_VE250_randls_54.json,1110746,1426649,24,Man
83,390494,DepthScenes,duration_manipulation_targetAtFixation,jsons/v1_VE250_randls_54.json,http://54.235.29.9/FacialAge/BNav_EC2/DepthDuration/v2_depth_duration_MTurk/v2_DepthDuration_HTML.html#39,39,2560,1440,2560,1440,8-20-2022,11-8-50,84,depth_duration_stimuli/003079_2014-06-15_15-18-20_094959634447_rgbf000152-resize_8/003079_2014-06-15_15-18-20_094959634447_rgbf000152-resize_8-target.png,250,2.8775,4.0,6881,248,feet,jsons/v1_VE250_randls_54.json,1110746,1426649,24,Man
84,390494,DepthScenes,duration_manipulation_targetAtFixation,jsons/v1_VE250_randls_54.json,http://54.235.29.9/FacialAge/BNav_EC2/DepthDuration/v2_depth_duration_MTurk/v2_DepthDuration_HTML.html#39,39,2560,1440,2560,1440,8-20-2022,11-8-50,85,depth_duration_stimuli/002964_2014-06-08_17-46-11_094959634447_rgbf000091-resize_4/002964_2014-06-08_17-46-11_094959634447_rgbf000091-resize_4-target.png,250,1.6909999999999998,0.7,7516,247,feet,jsons/v1_VE250_randls_54.json,1110746,1426649,24,Man
85,390494,DepthScenes,duration_manipulation_targetAtFixation,jsons/v1_VE250_randls_54.json,http://54.235.29.9/FacialAge/BNav_EC2/DepthDuration/v2_depth_duration_MTurk/v2_DepthDuration_HTML.html#39,39,2560,1440,2560,1440,8-20-2022,11-8-50,86,depth_duration_stimuli/002136_2014-06-25_21-18-03_260595134347_rgbf000109-resize_3/002136_2014-06-25_21-18-03_260595134347_rgbf000109-resize_3-target.png,250,1.9569999999999999,1.5,5079,248,feet,jsons/v1_VE250_randls_54.json,1110746,1426649,24,Man
86,390494,DepthScenes,duration_manipulation_targetAtFixation,jsons/v1_VE250_randls_54.json,http://54.235.29.9/FacialAge/BNav_EC2/DepthDuration/v2_depth_duration_MTurk/v2_DepthDuration_HTML.html#39,39,2560,1440,2560,1440,8-20-2022,11-8-50,87,depth_duration_stimuli/002725_2014-06-22_11-47-51_094959634447_rgbf000070-resize_1/002725_2014-06-22_11-47-51_094959634447_rgbf000070-resize_1-target.png,250,2.195,3.0,5302,249,feet,jsons/v1_VE250_randls_54.json,1110746,1426649,24,Man
87,390494,DepthScenes,duration_manipulation_targetAtFixation,jsons/v1_VE250_randls_54.json,http://54.235.29.9/FacialAge/BNav_EC2/DepthDuration/v2_depth_duration_MTurk/v2_DepthDuration_HTML.html#39,39,2560,1440,2560,1440,8-20-2022,11-8-50,88,depth_duration_stimuli/002344_2014-06-28_20-06-29_260595134347_rgbf000030-resize_1/002344_2014-06-28_20-06-29_260595134347_rgbf000030-resize_1-target.png,250,1.5795,1.0,5440,250,feet,jsons/v1_VE250_randls_54.json,1110746,1426649,24,Man
88,390494,DepthScenes,duration_manipulation_targetAtFixation,jsons/v1_VE250_randls_54.json,http://54.235.29.9/FacialAge/BNav_EC2/DepthDuration/v2_depth_duration_MTurk/v2_DepthDuration_HTML.html#39,39,2560,1440,2560,1440,8-20-2022,11-8-50,89,depth_duration_stimuli/001011_2014-06-08_23-18-54_260595134347_rgbf000044-resize_4/001011_2014-06-08_23-18-54_260595134347_rgbf000044-resize_4-target.png,250,2.4730000000000003,4.0,6360,249,feet,jsons/v1_VE250_randls_54.json,1110746,1426649,24,Man
89,390494,DepthScenes,duration_manipulation_targetAtFixation,jsons/v1_VE250_randls_54.json,http://54.235.29.9/FacialAge/BNav_EC2/DepthDuration/v2_depth_duration_MTurk/v2_DepthDuration_HTML.html#39,39,2560,1440,2560,1440,8-20-2022,11-8-50,90,depth_duration_stimuli/002875_2014-06-01_15-19-00_094959634447_rgbf000151-resize_1/002875_2014-06-01_15-19-00_094959634447_rgbf000151-resize_1-target.png,250,1.9675,2.5,10737,249,feet,jsons/v1_VE250_randls_54.json,1110746,1426649,24,Man
90,390494,DepthScenes,duration_manipulation_targetAtFixation,jsons/v1_VE250_randls_54.json,http://54.235.29.9/FacialAge/BNav_EC2/DepthDuration/v2_depth_duration_MTurk/v2_DepthDuration_HTML.html#39,39,2560,1440,2560,1440,8-20-2022,11-8-50,91,depth_duration_stimuli/003621_2014-05-23_18-06-08_094959634447_rgbf000101-resize_1/003621_2014-05-23_18-06-08_094959634447_rgbf000101-resize_1-target.png,250,3.9835,5.0,13480,250,feet,jsons/v1_VE250_randls_54.json,1110746,1426649,24,Man
91,390494,DepthScenes,duration_manipulation_targetAtFixation,jsons/v1_VE250_randls_54.json,http://54.235.29.9/FacialAge/BNav_EC2/DepthDuration/v2_depth_duration_MTurk/v2_DepthDuration_HTML.html#39,39,2560,1440,2560,1440,8-20-2022,11-8-50,92,depth_duration_stimuli/001584_2014-06-20_11-07-43_260595134347_rgbf000002-resize_1/001584_2014-06-20_11-07-43_260595134347_rgbf000002-resize_1-target.png,250,3.53,2.0,5341,249,feet,jsons/v1_VE250_randls_54.json,1110746,1426649,24,Man
92,390494,DepthScenes,duration_manipulation_targetAtFixation,jsons/v1_VE250_randls_54.json,http://54.235.29.9/FacialAge/BNav_EC2/DepthDuration/v2_depth_duration_MTurk/v2_DepthDuration_HTML.html#39,39,2560,1440,2560,1440,8-20-2022,11-8-50,93,depth_duration_stimuli/000739_2014-06-08_18-45-58_260595134347_rgbf000068-resize_1/000739_2014-06-08_18-45-58_260595134347_rgbf000068-resize_1-target.png,250,3.534,5.0,6139,249,feet,jsons/v1_VE250_randls_54.json,1110746,1426649,24,Man
93,390494,DepthScenes,duration_manipulation_targetAtFixation,jsons/v1_VE250_randls_54.json,http://54.235.29.9/FacialAge/BNav_EC2/DepthDuration/v2_depth_duration_MTurk/v2_DepthDuration_HTML.html#39,39,2560,1440,2560,1440,8-20-2022,11-8-50,94,depth_duration_stimuli/000734_2014-06-08_17-39-11_260595134347_rgbf000128-resize_2/000734_2014-06-08_17-39-11_260595134347_rgbf000128-resize_2-target.png,250,4.098,4.0,5544,249,feet,jsons/v1_VE250_randls_54.json,1110746,1426649,24,Man
94,390494,DepthScenes,duration_manipulation_targetAtFixation,jsons/v1_VE250_randls_54.json,http://54.235.29.9/FacialAge/BNav_EC2/DepthDuration/v2_depth_duration_MTurk/v2_DepthDuration_HTML.html#39,39,2560,1440,2560,1440,8-20-2022,11-8-50,95,depth_duration_stimuli/002763_2014-06-22_19-13-10_094959634447_rgbf000075-resize_4/002763_2014-06-22_19-13-10_094959634447_rgbf000075-resize_4-target.png,250,1.68375,2.5,4979,250,feet,jsons/v1_VE250_randls_54.json,1110746,1426649,24,Man
95,390494,DepthScenes,duration_manipulation_targetAtFixation,jsons/v1_VE250_randls_54.json,http://54.235.29.9/FacialAge/BNav_EC2/DepthDuration/v2_depth_duration_MTurk/v2_DepthDuration_HTML.html#39,39,2560,1440,2560,1440,8-20-2022,11-8-50,96,depth_duration_stimuli/002209_2014-06-28_18-36-10_260595134347_rgbf000051-resize_1/002209_2014-06-28_18-36-10_260595134347_rgbf000051-resize_1-target.png,250,2.057,2.5,4932,250,feet,jsons/v1_VE250_randls_54.json,1110746,1426649,24,Man
96,390494,DepthScenes,duration_manipulation_targetAtFixation,jsons/v1_VE250_randls_54.json,http://54.235.29.9/FacialAge/BNav_EC2/DepthDuration/v2_depth_duration_MTurk/v2_DepthDuration_HTML.html#39,39,2560,1440,2560,1440,8-20-2022,11-8-50,97,depth_duration_stimuli/002118_2014-06-25_20-32-08_260595134347_rgbf000078-resize_1/002118_2014-06-25_20-32-08_260595134347_rgbf000078-resize_1-target.png,250,2.6460000000000004,3.5,5910,250,feet,jsons/v1_VE250_randls_54.json,1110746,1426649,24,Man
97,390494,DepthScenes,duration_manipulation_targetAtFixation,jsons/v1_VE250_randls_54.json,http://54.235.29.9/FacialAge/BNav_EC2/DepthDuration/v2_depth_duration_MTurk/v2_DepthDuration_HTML.html#39,39,2560,1440,2560,1440,8-20-2022,11-8-50,98,depth_duration_stimuli/001516_2014-06-20_16-25-09_260595134347_rgbf000076-resize_2/001516_2014-06-20_16-25-09_260595134347_rgbf000076-resize_2-target.png,250,1.7445,3.5,5948,249,feet,jsons/v1_VE250_randls_54.json,1110746,1426649,24,Man
98,390494,DepthScenes,duration_manipulation_targetAtFixation,jsons/v1_VE250_randls_54.json,http://54.235.29.9/FacialAge/BNav_EC2/DepthDuration/v2_depth_duration_MTurk/v2_DepthDuration_HTML.html#39,39,2560,1440,2560,1440,8-20-2022,11-8-50,99,depth_duration_stimuli/001540_2014-06-20_17-01-05_260595134347_rgbf000086-resize_2/001540_2014-06-20_17-01-05_260595134347_rgbf000086-resize-original.jpg,250,1.459,0.0,3855,249,feet,jsons/v1_VE250_randls_54.json,1110746,1426649,24,Man
99,390494,DepthScenes,duration_manipulation_targetAtFixation,jsons/v1_VE250_randls_54.json,http://54.235.29.9/FacialAge/BNav_EC2/DepthDuration/v2_depth_duration_MTurk/v2_DepthDuration_HTML.html#39,39,2560,1440,2560,1440,8-20-2022,11-8-50,100,depth_duration_stimuli/000436_2014-06-09_22-25-11_260595134347_rgbf000137-resize_1/000436_2014-06-09_22-25-11_260595134347_rgbf000137-resize_1-target.png,250,4.0705,6.5,12883,250,feet,jsons/v1_VE250_randls_54.json,1110746,1426649,24,Man
100,390494,DepthScenes,duration_manipulation_targetAtFixation,jsons/v1_VE250_randls_54.json,http://54.235.29.9/FacialAge/BNav_EC2/DepthDuration/v2_depth_duration_MTurk/v2_DepthDuration_HTML.html#39,39,2560,1440,2560,1440,8-20-2022,11-8-50,101,depth_duration_stimuli/002444_2014-06-28_20-32-08_260595134347_rgbf000027-resize_0/002444_2014-06-28_20-32-08_260595134347_rgbf000027-resize_0-target.png,250,4.388999999999999,8.0,7506,250,feet,jsons/v1_VE250_randls_54.json,1110746,1426649,24,Man
101,390494,DepthScenes,duration_manipulation_targetAtFixation,jsons/v1_VE250_randls_54.json,http://54.235.29.9/FacialAge/BNav_EC2/DepthDuration/v2_depth_duration_MTurk/v2_DepthDuration_HTML.html#39,39,2560,1440,2560,1440,8-20-2022,11-8-50,102,depth_duration_stimuli/001110_2014-06-15_17-25-28_260595134347_rgbf000150-resize_1/001110_2014-06-15_17-25-28_260595134347_rgbf000150-resize_1-target.png,250,1.7115,3.0,4777,251,feet,jsons/v1_VE250_randls_54.json,1110746,1426649,24,Man
102,390494,DepthScenes,duration_manipulation_targetAtFixation,jsons/v1_VE250_randls_54.json,http://54.235.29.9/FacialAge/BNav_EC2/DepthDuration/v2_depth_duration_MTurk/v2_DepthDuration_HTML.html#39,39,2560,1440,2560,1440,8-20-2022,11-8-50,103,depth_duration_stimuli/000927_2014-06-09_16-32-30_260595134347_rgbf000123-resize_3/000927_2014-06-09_16-32-30_260595134347_rgbf000123-resize_3-target.png,250,2.6785,4.0,4760,248,feet,jsons/v1_VE250_randls_54.json,1110746,1426649,24,Man
103,390494,DepthScenes,duration_manipulation_targetAtFixation,jsons/v1_VE250_randls_54.json,http://54.235.29.9/FacialAge/BNav_EC2/DepthDuration/v2_depth_duration_MTurk/v2_DepthDuration_HTML.html#39,39,2560,1440,2560,1440,8-20-2022,11-8-50,104,depth_duration_stimuli/002989_2014-06-15_12-25-03_094959634447_rgbf000150-resize_3/002989_2014-06-15_12-25-03_094959634447_rgbf000150-resize_3-target.png,250,4.1975,7.0,7636,251,feet,jsons/v1_VE250_randls_54.json,1110746,1426649,24,Man
104,390494,DepthScenes,duration_manipulation_targetAtFixation,jsons/v1_VE250_randls_54.json,http://54.235.29.9/FacialAge/BNav_EC2/DepthDuration/v2_depth_duration_MTurk/v2_DepthDuration_HTML.html#39,39,2560,1440,2560,1440,8-20-2022,11-8-50,105,depth_duration_stimuli/000866_2014-06-09_20-45-42_260595134347_rgbf000139-resize_1/000866_2014-06-09_20-45-42_260595134347_rgbf000139-resize_1-target.png,250,3.2155,5.0,5208,248,feet,jsons/v1_VE250_randls_54.json,1110746,1426649,24,Man
105,390494,DepthScenes,duration_manipulation_targetAtFixation,jsons/v1_VE250_randls_54.json,http://54.235.29.9/FacialAge/BNav_EC2/DepthDuration/v2_depth_duration_MTurk/v2_DepthDuration_HTML.html#39,39,2560,1440,2560,1440,8-20-2022,11-8-50,106,depth_duration_stimuli/000522_2014-06-08_13-35-06_260595134347_rgbf000244-resize_1/000522_2014-06-08_13-35-06_260595134347_rgbf000244-resize_1-target.png,250,2.3715,3.0,7100,250,feet,jsons/v1_VE250_randls_54.json,1110746,1426649,24,Man
106,390494,DepthScenes,duration_manipulation_targetAtFixation,jsons/v1_VE250_randls_54.json,http://54.235.29.9/FacialAge/BNav_EC2/DepthDuration/v2_depth_duration_MTurk/v2_DepthDuration_HTML.html#39,39,2560,1440,2560,1440,8-20-2022,11-8-50,107,depth_duration_stimuli/002949_2014-06-26_15-57-42_094959634447_rgbf000079-resize_1/002949_2014-06-26_15-57-42_094959634447_rgbf000079-resize_1-target.png,250,1.8915,3.0,3901,250,feet,jsons/v1_VE250_randls_54.json,1110746,1426649,24,Man
107,390494,DepthScenes,duration_manipulation_targetAtFixation,jsons/v1_VE250_randls_54.json,http://54.235.29.9/FacialAge/BNav_EC2/DepthDuration/v2_depth_duration_MTurk/v2_DepthDuration_HTML.html#39,39,2560,1440,2560,1440,8-20-2022,11-8-50,108,depth_duration_stimuli/002663_2014-06-13_15-50-26_094959634447_rgbf000075-resize_1/002663_2014-06-13_15-50-26_094959634447_rgbf000075-resize_1-target.png,250,4.7495,6.5,8970,249,feet,jsons/v1_VE250_randls_54.json,1110746,1426649,24,Man
108,390494,DepthScenes,duration_manipulation_targetAtFixation,jsons/v1_VE250_randls_54.json,http://54.235.29.9/FacialAge/BNav_EC2/DepthDuration/v2_depth_duration_MTurk/v2_DepthDuration_HTML.html#39,39,2560,1440,2560,1440,8-20-2022,11-8-50,109,depth_duration_stimuli/000409_2014-06-04_19-23-33_260595134347_rgbf000067-resize_0/000409_2014-06-04_19-23-33_260595134347_rgbf000067-resize_0-target.png,250,3.7335,3.5,5324,248,feet,jsons/v1_VE250_randls_54.json,1110746,1426649,24,Man
109,390494,DepthScenes,duration_manipulation_targetAtFixation,jsons/v1_VE250_randls_54.json,http://54.235.29.9/FacialAge/BNav_EC2/DepthDuration/v2_depth_duration_MTurk/v2_DepthDuration_HTML.html#39,39,2560,1440,2560,1440,8-20-2022,11-8-50,110,depth_duration_stimuli/002988_2014-06-15_12-24-20_094959634447_rgbf000150-resize_1/002988_2014-06-15_12-24-20_094959634447_rgbf000150-resize_1-target.png,250,4.7669999999999995,6.0,7212,250,feet,jsons/v1_VE250_randls_54.json,1110746,1426649,24,Man
110,390494,DepthScenes,duration_manipulation_targetAtFixation,jsons/v1_VE250_randls_54.json,http://54.235.29.9/FacialAge/BNav_EC2/DepthDuration/v2_depth_duration_MTurk/v2_DepthDuration_HTML.html#39,39,2560,1440,2560,1440,8-20-2022,11-8-50,111,depth_duration_stimuli/001052_2014-06-08_18-24-54_260595134347_rgbf000130-resize_1/001052_2014-06-08_18-24-54_260595134347_rgbf000130-resize_1-target.png,250,4.1045,4.5,7789,250,feet,jsons/v1_VE250_randls_54.json,1110746,1426649,24,Man
111,390494,DepthScenes,duration_manipulation_targetAtFixation,jsons/v1_VE250_randls_54.json,http://54.235.29.9/FacialAge/BNav_EC2/DepthDuration/v2_depth_duration_MTurk/v2_DepthDuration_HTML.html#39,39,2560,1440,2560,1440,8-20-2022,11-8-50,112,depth_duration_stimuli/001150_2014-06-17_15-27-34_260595134347_rgbf000108-resize_2/001150_2014-06-17_15-27-34_260595134347_rgbf000108-resize_2-target.png,250,4.0325,5.0,8573,250,feet,jsons/v1_VE250_randls_54.json,1110746,1426649,24,Man
112,390494,DepthScenes,duration_manipulation_targetAtFixation,jsons/v1_VE250_randls_54.json,http://54.235.29.9/FacialAge/BNav_EC2/DepthDuration/v2_depth_duration_MTurk/v2_DepthDuration_HTML.html#39,39,2560,1440,2560,1440,8-20-2022,11-8-50,113,depth_duration_stimuli/000665_2014-06-09_20-42-35_260595134347_rgbf000110-resize_1/000665_2014-06-09_20-42-35_260595134347_rgbf000110-resize_1-target.png,250,3.057,4.0,6146,250,feet,jsons/v1_VE250_randls_54.json,1110746,1426649,24,Man
113,390494,DepthScenes,duration_manipulation_targetAtFixation,jsons/v1_VE250_randls_54.json,http://54.235.29.9/FacialAge/BNav_EC2/DepthDuration/v2_depth_duration_MTurk/v2_DepthDuration_HTML.html#39,39,2560,1440,2560,1440,8-20-2022,11-8-50,114,depth_duration_stimuli/002039_2014-06-24_20-22-38_260595134347_rgbf000084-resize_1/002039_2014-06-24_20-22-38_260595134347_rgbf000084-resize_1-target.png,250,4.408,7.5,10158,249,feet,jsons/v1_VE250_randls_54.json,1110746,1426649,24,Man
114,390494,DepthScenes,duration_manipulation_targetAtFixation,jsons/v1_VE250_randls_54.json,http://54.235.29.9/FacialAge/BNav_EC2/DepthDuration/v2_depth_duration_MTurk/v2_DepthDuration_HTML.html#39,39,2560,1440,2560,1440,8-20-2022,11-8-50,115,depth_duration_stimuli/002103_2014-06-25_20-00-40_260595134347_rgbf000049-resize_0/002103_2014-06-25_20-00-40_260595134347_rgbf000049-resize_0-target.png,250,4.105,4.5,6787,249,feet,jsons/v1_VE250_randls_54.json,1110746,1426649,24,Man
115,390494,DepthScenes,duration_manipulation_targetAtFixation,jsons/v1_VE250_randls_54.json,http://54.235.29.9/FacialAge/BNav_EC2/DepthDuration/v2_depth_duration_MTurk/v2_DepthDuration_HTML.html#39,39,2560,1440,2560,1440,8-20-2022,11-8-50,116,depth_duration_stimuli/001170_2014-06-17_15-43-44_260595134347_rgbf000096-resize_6/001170_2014-06-17_15-43-44_260595134347_rgbf000096-resize-original.jpg,250,1.1909999999999998,0.0,2996,250,feet,jsons/v1_VE250_randls_54.json,1110746,1426649,24,Man
116,390494,DepthScenes,duration_manipulation_targetAtFixation,jsons/v1_VE250_randls_54.json,http://54.235.29.9/FacialAge/BNav_EC2/DepthDuration/v2_depth_duration_MTurk/v2_DepthDuration_HTML.html#39,39,2560,1440,2560,1440,8-20-2022,11-8-50,117,depth_duration_stimuli/000810_2014-06-08_17-20-01_260595134347_rgbf000105-resize_0/000810_2014-06-08_17-20-01_260595134347_rgbf000105-resize_0-target.png,250,1.4865,3.5,5273,249,feet,jsons/v1_VE250_randls_54.json,1110746,1426649,24,Man
117,390494,DepthScenes,duration_manipulation_targetAtFixation,jsons/v1_VE250_randls_54.json,http://54.235.29.9/FacialAge/BNav_EC2/DepthDuration/v2_depth_duration_MTurk/v2_DepthDuration_HTML.html#39,39,2560,1440,2560,1440,8-20-2022,11-8-50,118,depth_duration_stimuli/001214_2014-06-17_16-13-55_260595134347_rgbf000111-resize_0/001214_2014-06-17_16-13-55_260595134347_rgbf000111-resize_0-target.png,250,2.6505,3.0,4374,251,feet,jsons/v1_VE250_randls_54.json,1110746,1426649,24,Man
118,390494,DepthScenes,duration_manipulation_targetAtFixation,jsons/v1_VE250_randls_54.json,http://54.235.29.9/FacialAge/BNav_EC2/DepthDuration/v2_depth_duration_MTurk/v2_DepthDuration_HTML.html#39,39,2560,1440,2560,1440,8-20-2022,11-8-50,119,depth_duration_stimuli/000917_2014-06-09_22-45-29_260595134347_rgbf000149-resize_3/000917_2014-06-09_22-45-29_260595134347_rgbf000149-resize_3-target.png,250,4.1865,5.0,6631,249,feet,jsons/v1_VE250_randls_54.json,1110746,1426649,24,Man
119,390494,DepthScenes,duration_manipulation_targetAtFixation,jsons/v1_VE250_randls_54.json,http://54.235.29.9/FacialAge/BNav_EC2/DepthDuration/v2_depth_duration_MTurk/v2_DepthDuration_HTML.html#39,39,2560,1440,2560,1440,8-20-2022,11-8-50,120,depth_duration_stimuli/002323_2014-06-28_20-01-54_260595134347_rgbf000051-resize_4/002323_2014-06-28_20-01-54_260595134347_rgbf000051-resize_4-target.png,250,3.7310000000000003,6.0,16980,250,feet,jsons/v1_VE250_randls_54.json,1110746,1426649,24,Man
120,390494,DepthScenes,duration_manipulation_targetAtFixation,jsons/v1_VE250_randls_54.json,http://54.235.29.9/FacialAge/BNav_EC2/DepthDuration/v2_depth_duration_MTurk/v2_DepthDuration_HTML.html#39,39,2560,1440,2560,1440,8-20-2022,11-8-50,121,depth_duration_stimuli/001555_2014-06-20_17-12-10_260595134347_rgbf000065-resize_4/001555_2014-06-20_17-12-10_260595134347_rgbf000065-resize_4-target.png,250,1.633,2.0,3848,250,feet,jsons/v1_VE250_randls_54.json,1110746,1426649,24,Man
121,390494,DepthScenes,duration_manipulation_targetAtFixation,jsons/v1_VE250_randls_54.json,http://54.235.29.9/FacialAge/BNav_EC2/DepthDuration/v2_depth_duration_MTurk/v2_DepthDuration_HTML.html#39,39,2560,1440,2560,1440,8-20-2022,11-8-50,122,depth_duration_stimuli/000103_2014-05-14_22-01-17_260595134347_rgbf000152-resize_5/000103_2014-05-14_22-01-17_260595134347_rgbf000152-resize_5-target.png,250,1.993,4.0,4768,250,feet,jsons/v1_VE250_randls_54.json,1110746,1426649,24,Man
122,390494,DepthScenes,duration_manipulation_targetAtFixation,jsons/v1_VE250_randls_54.json,http://54.235.29.9/FacialAge/BNav_EC2/DepthDuration/v2_depth_duration_MTurk/v2_DepthDuration_HTML.html#39,39,2560,1440,2560,1440,8-20-2022,11-8-50,123,depth_duration_stimuli/002213_2014-06-28_18-37-58_260595134347_rgbf000055-resize_1/002213_2014-06-28_18-37-58_260595134347_rgbf000055-resize_1-target.png,250,3.62,6.0,6620,251,feet,jsons/v1_VE250_randls_54.json,1110746,1426649,24,Man
123,390494,DepthScenes,duration_manipulation_targetAtFixation,jsons/v1_VE250_randls_54.json,http://54.235.29.9/FacialAge/BNav_EC2/DepthDuration/v2_depth_duration_MTurk/v2_DepthDuration_HTML.html#39,39,2560,1440,2560,1440,8-20-2022,11-8-50,124,depth_duration_stimuli/000691_2014-06-08_13-08-50_260595134347_rgbf000132-resize_3/000691_2014-06-08_13-08-50_260595134347_rgbf000132-resize_3-target.png,250,4.1530000000000005,5.0,5710,250,feet,jsons/v1_VE250_randls_54.json,1110746,1426649,24,Man
124,390494,DepthScenes,duration_manipulation_targetAtFixation,jsons/v1_VE250_randls_54.json,http://54.235.29.9/FacialAge/BNav_EC2/DepthDuration/v2_depth_duration_MTurk/v2_DepthDuration_HTML.html#39,39,2560,1440,2560,1440,8-20-2022,11-8-50,125,depth_duration_stimuli/000878_2014-06-08_22-52-45_260595134347_rgbf000045-resize_2/000878_2014-06-08_22-52-45_260595134347_rgbf000045-resize_2-target.png,250,2.092,3.5,5284,250,feet,jsons/v1_VE250_randls_54.json,1110746,1426649,24,Man
125,390494,DepthScenes,duration_manipulation_targetAtFixation,jsons/v1_VE250_randls_54.json,http://54.235.29.9/FacialAge/BNav_EC2/DepthDuration/v2_depth_duration_MTurk/v2_DepthDuration_HTML.html#39,39,2560,1440,2560,1440,8-20-2022,11-8-50,126,depth_duration_stimuli/002953_2014-06-08_17-32-18_094959634447_rgbf000059-resize_5/002953_2014-06-08_17-32-18_094959634447_rgbf000059-resize_5-target.png,250,1.551,1.8,6998,249,feet,jsons/v1_VE250_randls_54.json,1110746,1426649,24,Man
126,390494,DepthScenes,duration_manipulation_targetAtFixation,jsons/v1_VE250_randls_54.json,http://54.235.29.9/FacialAge/BNav_EC2/DepthDuration/v2_depth_duration_MTurk/v2_DepthDuration_HTML.html#39,39,2560,1440,2560,1440,8-20-2022,11-8-50,127,depth_duration_stimuli/001059_2014-06-08_21-53-27_260595134347_rgbf000061-resize_4/001059_2014-06-08_21-53-27_260595134347_rgbf000061-resize_4-target.png,250,2.4185,3.0,4622,250,feet,jsons/v1_VE250_randls_54.json,1110746,1426649,24,Man
127,390494,DepthScenes,duration_manipulation_targetAtFixation,jsons/v1_VE250_randls_54.json,http://54.235.29.9/FacialAge/BNav_EC2/DepthDuration/v2_depth_duration_MTurk/v2_DepthDuration_HTML.html#39,39,2560,1440,2560,1440,8-20-2022,11-8-50,128,depth_duration_stimuli/001032_2014-06-08_13-23-17_260595134347_rgbf000021-resize_3/001032_2014-06-08_13-23-17_260595134347_rgbf000021-resize_3-target.png,250,3.2725,4.0,6281,249,feet,jsons/v1_VE250_randls_54.json,1110746,1426649,24,Man
128,390494,DepthScenes,duration_manipulation_targetAtFixation,jsons/v1_VE250_randls_54.json,http://54.235.29.9/FacialAge/BNav_EC2/DepthDuration/v2_depth_duration_MTurk/v2_DepthDuration_HTML.html#39,39,2560,1440,2560,1440,8-20-2022,11-8-50,129,depth_duration_stimuli/001167_2014-06-17_15-38-07_260595134347_rgbf000108-resize_0/001167_2014-06-17_15-38-07_260595134347_rgbf000108-resize_0-target.png,250,1.8505,3.0,5152,250,feet,jsons/v1_VE250_randls_54.json,1110746,1426649,24,Man
129,390494,DepthScenes,duration_manipulation_targetAtFixation,jsons/v1_VE250_randls_54.json,http://54.235.29.9/FacialAge/BNav_EC2/DepthDuration/v2_depth_duration_MTurk/v2_DepthDuration_HTML.html#39,39,2560,1440,2560,1440,8-20-2022,11-8-50,130,depth_duration_stimuli/003587_2014-05-23_16-48-02_094959634447_rgbf002384-resize_2/003587_2014-05-23_16-48-02_094959634447_rgbf002384-resize_2-target.png,250,1.357,1.0,3641,250,feet,jsons/v1_VE250_randls_54.json,1110746,1426649,24,Man
130,390494,DepthScenes,duration_manipulation_targetAtFixation,jsons/v1_VE250_randls_54.json,http://54.235.29.9/FacialAge/BNav_EC2/DepthDuration/v2_depth_duration_MTurk/v2_DepthDuration_HTML.html#39,39,2560,1440,2560,1440,8-20-2022,11-8-50,131,depth_duration_stimuli/000009_2014-05-26_14-32-05_260595134347_rgbf000034-resize_3/000009_2014-05-26_14-32-05_260595134347_rgbf000034-resize_3-target.png,250,3.8715,5.0,5857,249,feet,jsons/v1_VE250_randls_54.json,1110746,1426649,24,Man
131,390494,DepthScenes,duration_manipulation_targetAtFixation,jsons/v1_VE250_randls_54.json,http://54.235.29.9/FacialAge/BNav_EC2/DepthDuration/v2_depth_duration_MTurk/v2_DepthDuration_HTML.html#39,39,2560,1440,2560,1440,8-20-2022,11-8-50,132,depth_duration_stimuli/001828_2014-06-26_21-40-03_260595134347_rgbf000024-resize_0/001828_2014-06-26_21-40-03_260595134347_rgbf000024-resize_0-target.png,250,4.8260000000000005,7.0,8093,250,feet,jsons/v1_VE250_randls_54.json,1110746,1426649,24,Man
132,390494,DepthScenes,duration_manipulation_targetAtFixation,jsons/v1_VE250_randls_54.json,http://54.235.29.9/FacialAge/BNav_EC2/DepthDuration/v2_depth_duration_MTurk/v2_DepthDuration_HTML.html#39,39,2560,1440,2560,1440,8-20-2022,11-8-50,133,depth_duration_stimuli/001199_2014-06-17_16-03-48_260595134347_rgbf000077-resize_0/001199_2014-06-17_16-03-48_260595134347_rgbf000077-resize_0-target.png,250,3.4375,9.0,10157,250,feet,jsons/v1_VE250_randls_54.json,1110746,1426649,24,Man
133,390494,DepthScenes,duration_manipulation_targetAtFixation,jsons/v1_VE250_randls_54.json,http://54.235.29.9/FacialAge/BNav_EC2/DepthDuration/v2_depth_duration_MTurk/v2_DepthDuration_HTML.html#39,39,2560,1440,2560,1440,8-20-2022,11-8-50,134,depth_duration_stimuli/000502_2014-06-08_23-02-32_260595134347_rgbf000063-resize_4/000502_2014-06-08_23-02-32_260595134347_rgbf000063-resize_4-target.png,250,2.431,2.5,4788,249,feet,jsons/v1_VE250_randls_54.json,1110746,1426649,24,Man
134,390494,DepthScenes,duration_manipulation_targetAtFixation,jsons/v1_VE250_randls_54.json,http://54.235.29.9/FacialAge/BNav_EC2/DepthDuration/v2_depth_duration_MTurk/v2_DepthDuration_HTML.html#39,39,2560,1440,2560,1440,8-20-2022,11-8-50,135,depth_duration_stimuli/002072_2014-06-24_21-48-06_260595134347_rgbf000115-resize_0/002072_2014-06-24_21-48-06_260595134347_rgbf000115-resize-original.jpg,250,4.702,0.0,2943,250,feet,jsons/v1_VE250_randls_54.json,1110746,1426649,24,Man
135,390494,DepthScenes,duration_manipulation_targetAtFixation,jsons/v1_VE250_randls_54.json,http://54.235.29.9/FacialAge/BNav_EC2/DepthDuration/v2_depth_duration_MTurk/v2_DepthDuration_HTML.html#39,39,2560,1440,2560,1440,8-20-2022,11-8-50,136,depth_duration_stimuli/002375_2014-06-28_20-13-44_260595134347_rgbf000032-resize_1/002375_2014-06-28_20-13-44_260595134347_rgbf000032-resize_1-target.png,250,4.0175,5.0,7120,252,feet,jsons/v1_VE250_randls_54.json,1110746,1426649,24,Man
136,390494,DepthScenes,duration_manipulation_targetAtFixation,jsons/v1_VE250_randls_54.json,http://54.235.29.9/FacialAge/BNav_EC2/DepthDuration/v2_depth_duration_MTurk/v2_DepthDuration_HTML.html#39,39,2560,1440,2560,1440,8-20-2022,11-8-50,137,depth_duration_stimuli/002657_2014-06-13_15-29-54_094959634447_rgbf000150-resize_1/002657_2014-06-13_15-29-54_094959634447_rgbf000150-resize_1-target.png,250,4.919,7.0,6943,251,feet,jsons/v1_VE250_randls_54.json,1110746,1426649,24,Man
137,390494,DepthScenes,duration_manipulation_targetAtFixation,jsons/v1_VE250_randls_54.json,http://54.235.29.9/FacialAge/BNav_EC2/DepthDuration/v2_depth_duration_MTurk/v2_DepthDuration_HTML.html#39,39,2560,1440,2560,1440,8-20-2022,11-8-50,138,depth_duration_stimuli/002509_2014-06-24_13-19-22_094959634447_rgbf000077-resize_0/002509_2014-06-24_13-19-22_094959634447_rgbf000077-resize_0-target.png,250,1.3065,3.0,4957,249,feet,jsons/v1_VE250_randls_54.json,1110746,1426649,24,Man
138,390494,DepthScenes,duration_manipulation_targetAtFixation,jsons/v1_VE250_randls_54.json,http://54.235.29.9/FacialAge/BNav_EC2/DepthDuration/v2_depth_duration_MTurk/v2_DepthDuration_HTML.html#39,39,2560,1440,2560,1440,8-20-2022,11-8-50,139,depth_duration_stimuli/003338_2014-05-20_11-01-23_094959634447_rgbf000051-resize_6/003338_2014-05-20_11-01-23_094959634447_rgbf000051-resize_6-target.png,250,1.693,3.0,5389,249,feet,jsons/v1_VE250_randls_54.json,1110746,1426649,24,Man
139,390494,DepthScenes,duration_manipulation_targetAtFixation,jsons/v1_VE250_randls_54.json,http://54.235.29.9/FacialAge/BNav_EC2/DepthDuration/v2_depth_duration_MTurk/v2_DepthDuration_HTML.html#39,39,2560,1440,2560,1440,8-20-2022,11-8-50,140,depth_duration_stimuli/003070_2014-06-15_14-58-27_094959634447_rgbf000150-resize_3/003070_2014-06-15_14-58-27_094959634447_rgbf000150-resize_3-target.png,250,2.9415,6.0,8150,249,feet,jsons/v1_VE250_randls_54.json,1110746,1426649,24,Man
140,390494,DepthScenes,duration_manipulation_targetAtFixation,jsons/v1_VE250_randls_54.json,http://54.235.29.9/FacialAge/BNav_EC2/DepthDuration/v2_depth_duration_MTurk/v2_DepthDuration_HTML.html#39,39,2560,1440,2560,1440,8-20-2022,11-8-50,141,depth_duration_stimuli/000943_2014-06-09_19-31-07_260595134347_rgbf000128-resize_1/000943_2014-06-09_19-31-07_260595134347_rgbf000128-resize_1-target.png,250,1.9765,4.0,6066,251,feet,jsons/v1_VE250_randls_54.json,1110746,1426649,24,Man
141,390494,DepthScenes,duration_manipulation_targetAtFixation,jsons/v1_VE250_randls_54.json,http://54.235.29.9/FacialAge/BNav_EC2/DepthDuration/v2_depth_duration_MTurk/v2_DepthDuration_HTML.html#39,39,2560,1440,2560,1440,8-20-2022,11-8-50,142,depth_duration_stimuli/001570_2014-06-20_17-21-09_260595134347_rgbf000135-resize_4/001570_2014-06-20_17-21-09_260595134347_rgbf000135-resize_4-target.png,250,4.467,9.0,9381,251,feet,jsons/v1_VE250_randls_54.json,1110746,1426649,24,Man
142,390494,DepthScenes,duration_manipulation_targetAtFixation,jsons/v1_VE250_randls_54.json,http://54.235.29.9/FacialAge/BNav_EC2/DepthDuration/v2_depth_duration_MTurk/v2_DepthDuration_HTML.html#39,39,2560,1440,2560,1440,8-20-2022,11-8-50,143,depth_duration_stimuli/001392_2014-06-19_16-07-59_260595134347_rgbf000046-resize_1/001392_2014-06-19_16-07-59_260595134347_rgbf000046-resize_1-target.png,250,4.135,6.5,8947,250,feet,jsons/v1_VE250_randls_54.json,1110746,1426649,24,Man
143,390494,DepthScenes,duration_manipulation_targetAtFixation,jsons/v1_VE250_randls_54.json,http://54.235.29.9/FacialAge/BNav_EC2/DepthDuration/v2_depth_duration_MTurk/v2_DepthDuration_HTML.html#39,39,2560,1440,2560,1440,8-20-2022,11-8-50,144,depth_duration_stimuli/001810_2014-06-26_20-51-35_260595134347_rgbf000040-resize_3/001810_2014-06-26_20-51-35_260595134347_rgbf000040-resize_3-target.png,250,2.2525,2.8,5639,250,feet,jsons/v1_VE250_randls_54.json,1110746,1426649,24,Man
144,390494,DepthScenes,duration_manipulation_targetAtFixation,jsons/v1_VE250_randls_54.json,http://54.235.29.9/FacialAge/BNav_EC2/DepthDuration/v2_depth_duration_MTurk/v2_DepthDuration_HTML.html#39,39,2560,1440,2560,1440,8-20-2022,11-8-50,145,depth_duration_stimuli/003010_2014-06-15_12-54-35_094959634447_rgbf000112-resize_0/003010_2014-06-15_12-54-35_094959634447_rgbf000112-resize_0-target.png,250,3.1185,6.0,5856,251,feet,jsons/v1_VE250_randls_54.json,1110746,1426649,24,Man
145,390494,DepthScenes,duration_manipulation_targetAtFixation,jsons/v1_VE250_randls_54.json,http://54.235.29.9/FacialAge/BNav_EC2/DepthDuration/v2_depth_duration_MTurk/v2_DepthDuration_HTML.html#39,39,2560,1440,2560,1440,8-20-2022,11-8-50,146,depth_duration_stimuli/001498_2014-06-19_17-45-14_260595134347_rgbf000129-resize_4/001498_2014-06-19_17-45-14_260595134347_rgbf000129-resize-original.jpg,250,1.4075,0.0,9046,249,feet,jsons/v1_VE250_randls_54.json,1110746,1426649,24,Man
146,390494,DepthScenes,duration_manipulation_targetAtFixation,jsons/v1_VE250_randls_54.json,http://54.235.29.9/FacialAge/BNav_EC2/DepthDuration/v2_depth_duration_MTurk/v2_DepthDuration_HTML.html#39,39,2560,1440,2560,1440,8-20-2022,11-8-50,147,depth_duration_stimuli/000470_2014-06-09_19-42-40_260595134347_rgbf000094-resize_1/000470_2014-06-09_19-42-40_260595134347_rgbf000094-resize_1-target.png,250,1.831,3.0,3725,250,feet,jsons/v1_VE250_randls_54.json,1110746,1426649,24,Man
147,390494,DepthScenes,duration_manipulation_targetAtFixation,jsons/v1_VE250_randls_54.json,http://54.235.29.9/FacialAge/BNav_EC2/DepthDuration/v2_depth_duration_MTurk/v2_DepthDuration_HTML.html#39,39,2560,1440,2560,1440,8-20-2022,11-8-50,148,depth_duration_stimuli/000109_2014-05-14_23-41-52_260595134347_rgbf000035-resize_9/000109_2014-05-14_23-41-52_260595134347_rgbf000035-resize_9-target.png,250,1.3545,2.0,3807,250,feet,jsons/v1_VE250_randls_54.json,1110746,1426649,24,Man
148,390494,DepthScenes,duration_manipulation_targetAtFixation,jsons/v1_VE250_randls_54.json,http://54.235.29.9/FacialAge/BNav_EC2/DepthDuration/v2_depth_duration_MTurk/v2_DepthDuration_HTML.html#39,39,2560,1440,2560,1440,8-20-2022,11-8-50,149,depth_duration_stimuli/002445_2014-06-28_20-32-16_260595134347_rgbf000029-resize_4/002445_2014-06-28_20-32-16_260595134347_rgbf000029-resize_4-target.png,250,2.5315,4.0,4746,248,feet,jsons/v1_VE250_randls_54.json,1110746,1426649,24,Man
149,390494,DepthScenes,duration_manipulation_targetAtFixation,jsons/v1_VE250_randls_54.json,http://54.235.29.9/FacialAge/BNav_EC2/DepthDuration/v2_depth_duration_MTurk/v2_DepthDuration_HTML.html#39,39,2560,1440,2560,1440,8-20-2022,11-8-50,150,depth_duration_stimuli/000780_2014-06-08_22-28-29_260595134347_rgbf000126-resize_1/000780_2014-06-08_22-28-29_260595134347_rgbf000126-resize_1-target.png,250,3.3825,6.0,5802,248,feet,jsons/v1_VE250_randls_54.json,1110746,1426649,24,Man
150,390494,DepthScenes,duration_manipulation_targetAtFixation,jsons/v1_VE250_randls_54.json,http://54.235.29.9/FacialAge/BNav_EC2/DepthDuration/v2_depth_duration_MTurk/v2_DepthDuration_HTML.html#39,39,2560,1440,2560,1440,8-20-2022,11-8-50,151,depth_duration_stimuli/000493_2014-06-09_21-01-18_260595134347_rgbf000196-resize_3/000493_2014-06-09_21-01-18_260595134347_rgbf000196-resize_3-target.png,250,3.44,6.0,5288,251,feet,jsons/v1_VE250_randls_54.json,1110746,1426649,24,Man
151,390494,DepthScenes,duration_manipulation_targetAtFixation,jsons/v1_VE250_randls_54.json,http://54.235.29.9/FacialAge/BNav_EC2/DepthDuration/v2_depth_duration_MTurk/v2_DepthDuration_HTML.html#39,39,2560,1440,2560,1440,8-20-2022,11-8-50,152,depth_duration_stimuli/000191_2014-05-12_17-07-38_260595134347_rgbf000199-resize_0/000191_2014-05-12_17-07-38_260595134347_rgbf000199-resize_0-target.png,250,3.7995,8.0,7112,250,feet,jsons/v1_VE250_randls_54.json,1110746,1426649,24,Man
152,390494,DepthScenes,duration_manipulation_targetAtFixation,jsons/v1_VE250_randls_54.json,http://54.235.29.9/FacialAge/BNav_EC2/DepthDuration/v2_depth_duration_MTurk/v2_DepthDuration_HTML.html#39,39,2560,1440,2560,1440,8-20-2022,11-8-50,153,depth_duration_stimuli/002272_2014-06-28_18-53-56_260595134347_rgbf000067-resize_2/002272_2014-06-28_18-53-56_260595134347_rgbf000067-resize_2-target.png,250,1.138,2.0,4022,248,feet,jsons/v1_VE250_randls_54.json,1110746,1426649,24,Man
153,390494,DepthScenes,duration_manipulation_targetAtFixation,jsons/v1_VE250_randls_54.json,http://54.235.29.9/FacialAge/BNav_EC2/DepthDuration/v2_depth_duration_MTurk/v2_DepthDuration_HTML.html#39,39,2560,1440,2560,1440,8-20-2022,11-8-50,154,depth_duration_stimuli/001571_2014-06-20_17-21-32_260595134347_rgbf000089-resize_1/001571_2014-06-20_17-21-32_260595134347_rgbf000089-resize_1-target.png,250,1.86,3.5,5047,248,feet,jsons/v1_VE250_randls_54.json,1110746,1426649,24,Man
154,390494,DepthScenes,duration_manipulation_targetAtFixation,jsons/v1_VE250_randls_54.json,http://54.235.29.9/FacialAge/BNav_EC2/DepthDuration/v2_depth_duration_MTurk/v2_DepthDuration_HTML.html#39,39,2560,1440,2560,1440,8-20-2022,11-8-50,155,depth_duration_stimuli/000692_2014-06-08_13-09-42_260595134347_rgbf000199-resize_2/000692_2014-06-08_13-09-42_260595134347_rgbf000199-resize_2-target.png,250,3.661,6.0,6645,249,feet,jsons/v1_VE250_randls_54.json,1110746,1426649,24,Man
155,390494,DepthScenes,duration_manipulation_targetAtFixation,jsons/v1_VE250_randls_54.json,http://54.235.29.9/FacialAge/BNav_EC2/DepthDuration/v2_depth_duration_MTurk/v2_DepthDuration_HTML.html#39,39,2560,1440,2560,1440,8-20-2022,11-8-50,156,depth_duration_stimuli/001094_2014-06-15_17-36-00_260595134347_rgbf000205-resize_0/001094_2014-06-15_17-36-00_260595134347_rgbf000205-resize_0-target.png,250,4.2175,8.0,7074,248,feet,jsons/v1_VE250_randls_54.json,1110746,1426649,24,Man
156,390494,DepthScenes,duration_manipulation_targetAtFixation,jsons/v1_VE250_randls_54.json,http://54.235.29.9/FacialAge/BNav_EC2/DepthDuration/v2_depth_duration_MTurk/v2_DepthDuration_HTML.html#39,39,2560,1440,2560,1440,8-20-2022,11-8-50,157,depth_duration_stimuli/000788_2014-06-08_22-34-36_260595134347_rgbf000131-resize_1/000788_2014-06-08_22-34-36_260595134347_rgbf000131-resize_1-target.png,250,3.359,5.0,5340,250,feet,jsons/v1_VE250_randls_54.json,1110746,1426649,24,Man
157,390494,DepthScenes,duration_manipulation_targetAtFixation,jsons/v1_VE250_randls_54.json,http://54.235.29.9/FacialAge/BNav_EC2/DepthDuration/v2_depth_duration_MTurk/v2_DepthDuration_HTML.html#39,39,2560,1440,2560,1440,8-20-2022,11-8-50,158,depth_duration_stimuli/001235_2014-06-17_16-37-36_260595134347_rgbf000084-resize_4/001235_2014-06-17_16-37-36_260595134347_rgbf000084-resize_4-target.png,250,3.6605,5.5,6633,249,feet,jsons/v1_VE250_randls_54.json,1110746,1426649,24,Man
158,390494,DepthScenes,duration_manipulation_targetAtFixation,jsons/v1_VE250_randls_54.json,http://54.235.29.9/FacialAge/BNav_EC2/DepthDuration/v2_depth_duration_MTurk/v2_DepthDuration_HTML.html#39,39,2560,1440,2560,1440,8-20-2022,11-8-50,159,depth_duration_stimuli/001133_2014-06-17_14-49-16_260595134347_rgbf000100-resize_0/001133_2014-06-17_14-49-16_260595134347_rgbf000100-resize_0-target.png,250,4.2115,7.5,9126,248,feet,jsons/v1_VE250_randls_54.json,1110746,1426649,24,Man
159,390494,DepthScenes,duration_manipulation_targetAtFixation,jsons/v1_VE250_randls_54.json,http://54.235.29.9/FacialAge/BNav_EC2/DepthDuration/v2_depth_duration_MTurk/v2_DepthDuration_HTML.html#39,39,2560,1440,2560,1440,8-20-2022,11-8-50,160,depth_duration_stimuli/001132_2014-06-17_14-48-54_260595134347_rgbf000100-resize_2/001132_2014-06-17_14-48-54_260595134347_rgbf000100-resize_2-target.png,250,3.753,9.0,7945,250,feet,jsons/v1_VE250_randls_54.json,1110746,1426649,24,Man
160,390494,DepthScenes,duration_manipulation_targetAtFixation,jsons/v1_VE250_randls_54.json,http://54.235.29.9/FacialAge/BNav_EC2/DepthDuration/v2_depth_duration_MTurk/v2_DepthDuration_HTML.html#39,39,2560,1440,2560,1440,8-20-2022,11-8-50,161,depth_duration_stimuli/001808_2014-06-26_20-50-58_260595134347_rgbf000029-resize_1/001808_2014-06-26_20-50-58_260595134347_rgbf000029-resize_1-target.png,250,4.249,7.0,6880,249,feet,jsons/v1_VE250_randls_54.json,1110746,1426649,24,Man
161,390494,DepthScenes,duration_manipulation_targetAtFixation,jsons/v1_VE250_randls_54.json,http://54.235.29.9/FacialAge/BNav_EC2/DepthDuration/v2_depth_duration_MTurk/v2_DepthDuration_HTML.html#39,39,2560,1440,2560,1440,8-20-2022,11-8-50,162,depth_duration_stimuli/001815_2014-06-26_20-52-55_260595134347_rgbf000020-resize_0/001815_2014-06-26_20-52-55_260595134347_rgbf000020-resize_0-target.png,250,3.3865,6.0,5610,250,feet,jsons/v1_VE250_randls_54.json,1110746,1426649,24,Man
162,390494,DepthScenes,duration_manipulation_targetAtFixation,jsons/v1_VE250_randls_54.json,http://54.235.29.9/FacialAge/BNav_EC2/DepthDuration/v2_depth_duration_MTurk/v2_DepthDuration_HTML.html#39,39,2560,1440,2560,1440,8-20-2022,11-8-50,163,depth_duration_stimuli/000736_2014-06-08_18-24-15_260595134347_rgbf000206-resize_3/000736_2014-06-08_18-24-15_260595134347_rgbf000206-resize_3-target.png,250,3.515,5.5,7230,250,feet,jsons/v1_VE250_randls_54.json,1110746,1426649,24,Man
163,390494,DepthScenes,duration_manipulation_targetAtFixation,jsons/v1_VE250_randls_54.json,http://54.235.29.9/FacialAge/BNav_EC2/DepthDuration/v2_depth_duration_MTurk/v2_DepthDuration_HTML.html#39,39,2560,1440,2560,1440,8-20-2022,11-8-50,164,depth_duration_stimuli/000137_2014-05-20_17-04-49_260595134347_rgbf000120-resize_1/000137_2014-05-20_17-04-49_260595134347_rgbf000120-resize_1-target.png,250,3.786,5.5,9478,251,feet,jsons/v1_VE250_randls_54.json,1110746,1426649,24,Man
