,subjID,experimentName,versionName,sequenceName,url,selected_row,windowWidth,windowHeight,screenWidth,screenHeight,startDate,startTime,trial,stimulus,duration,actual_depth,depth_estimate,trial_RT,log_sceneDuration,unitSelection,seq_filepath,experimentTime,totalTime,age,gender
0,391366,DepthScenes,duration_manipulation_targetAtFixation,jsons/v1_VE1000_randls_13.json,http://54.235.29.9/FacialAge/BNav_EC2/DepthDuration/v2_depth_duration_MTurk/v2_DepthDuration_HTML.html#96,96,2048,1152,2048,1152,8-22-2022,7-1-8,1,depth_duration_stimuli/001808_2014-06-26_20-50-58_260595134347_rgbf000029-resize_1/001808_2014-06-26_20-50-58_260595134347_rgbf000029-resize_1-target.png,1000,4.249,5.5,3789,1000,feet,jsons/v1_VE1000_randls_13.json,520014,808519,33,Man
1,391366,DepthScenes,duration_manipulation_targetAtFixation,jsons/v1_VE1000_randls_13.json,http://54.235.29.9/FacialAge/BNav_EC2/DepthDuration/v2_depth_duration_MTurk/v2_DepthDuration_HTML.html#96,96,2048,1152,2048,1152,8-22-2022,7-1-8,2,depth_duration_stimuli/001815_2014-06-26_20-52-55_260595134347_rgbf000020-resize_0/001815_2014-06-26_20-52-55_260595134347_rgbf000020-resize_0-target.png,1000,3.3865,5.0,2474,998,feet,jsons/v1_VE1000_randls_13.json,520014,808519,33,Man
2,391366,DepthScenes,duration_manipulation_targetAtFixation,jsons/v1_VE1000_randls_13.json,http://54.235.29.9/FacialAge/BNav_EC2/DepthDuration/v2_depth_duration_MTurk/v2_DepthDuration_HTML.html#96,96,2048,1152,2048,1152,8-22-2022,7-1-8,3,depth_duration_stimuli/001029_2014-06-08_13-17-57_260595134347_rgbf000065-resize_1/001029_2014-06-08_13-17-57_260595134347_rgbf000065-resize_1-target.png,1000,3.0835,4.2,3172,1001,feet,jsons/v1_VE1000_randls_13.json,520014,808519,33,Man
3,391366,DepthScenes,duration_manipulation_targetAtFixation,jsons/v1_VE1000_randls_13.json,http://54.235.29.9/FacialAge/BNav_EC2/DepthDuration/v2_depth_duration_MTurk/v2_DepthDuration_HTML.html#96,96,2048,1152,2048,1152,8-22-2022,7-1-8,4,depth_duration_stimuli/000677_2014-06-08_23-10-32_260595134347_rgbf000158-resize_6/000677_2014-06-08_23-10-32_260595134347_rgbf000158-resize_6-target.png,1000,3.556,5.0,2611,1001,feet,jsons/v1_VE1000_randls_13.json,520014,808519,33,Man
4,391366,DepthScenes,duration_manipulation_targetAtFixation,jsons/v1_VE1000_randls_13.json,http://54.235.29.9/FacialAge/BNav_EC2/DepthDuration/v2_depth_duration_MTurk/v2_DepthDuration_HTML.html#96,96,2048,1152,2048,1152,8-22-2022,7-1-8,5,depth_duration_stimuli/002118_2014-06-25_20-32-08_260595134347_rgbf000078-resize_1/002118_2014-06-25_20-32-08_260595134347_rgbf000078-resize_1-target.png,1000,2.6460000000000004,1.8,2946,999,feet,jsons/v1_VE1000_randls_13.json,520014,808519,33,Man
5,391366,DepthScenes,duration_manipulation_targetAtFixation,jsons/v1_VE1000_randls_13.json,http://54.235.29.9/FacialAge/BNav_EC2/DepthDuration/v2_depth_duration_MTurk/v2_DepthDuration_HTML.html#96,96,2048,1152,2048,1152,8-22-2022,7-1-8,6,depth_duration_stimuli/001516_2014-06-20_16-25-09_260595134347_rgbf000076-resize_2/001516_2014-06-20_16-25-09_260595134347_rgbf000076-resize_2-target.png,1000,1.7445,2.0,2965,999,feet,jsons/v1_VE1000_randls_13.json,520014,808519,33,Man
6,391366,DepthScenes,duration_manipulation_targetAtFixation,jsons/v1_VE1000_randls_13.json,http://54.235.29.9/FacialAge/BNav_EC2/DepthDuration/v2_depth_duration_MTurk/v2_DepthDuration_HTML.html#96,96,2048,1152,2048,1152,8-22-2022,7-1-8,7,depth_duration_stimuli/001417_2014-06-19_16-25-36_260595134347_rgbf000115-resize_5/001417_2014-06-19_16-25-36_260595134347_rgbf000115-resize_5-target.png,1000,4.6255,5.3,3404,1002,feet,jsons/v1_VE1000_randls_13.json,520014,808519,33,Man
7,391366,DepthScenes,duration_manipulation_targetAtFixation,jsons/v1_VE1000_randls_13.json,http://54.235.29.9/FacialAge/BNav_EC2/DepthDuration/v2_depth_duration_MTurk/v2_DepthDuration_HTML.html#96,96,2048,1152,2048,1152,8-22-2022,7-1-8,8,depth_duration_stimuli/003081_2014-06-15_15-19-16_094959634447_rgbf000150-resize_1/003081_2014-06-15_15-19-16_094959634447_rgbf000150-resize_1-target.png,1000,3.9125,8.0,2523,1000,feet,jsons/v1_VE1000_randls_13.json,520014,808519,33,Man
8,391366,DepthScenes,duration_manipulation_targetAtFixation,jsons/v1_VE1000_randls_13.json,http://54.235.29.9/FacialAge/BNav_EC2/DepthDuration/v2_depth_duration_MTurk/v2_DepthDuration_HTML.html#96,96,2048,1152,2048,1152,8-22-2022,7-1-8,9,depth_duration_stimuli/000682_2014-06-08_23-14-58_260595134347_rgbf000041-resize_5/000682_2014-06-08_23-14-58_260595134347_rgbf000041-resize_5-target.png,1000,2.7239999999999998,3.0,2243,999,feet,jsons/v1_VE1000_randls_13.json,520014,808519,33,Man
9,391366,DepthScenes,duration_manipulation_targetAtFixation,jsons/v1_VE1000_randls_13.json,http://54.235.29.9/FacialAge/BNav_EC2/DepthDuration/v2_depth_duration_MTurk/v2_DepthDuration_HTML.html#96,96,2048,1152,2048,1152,8-22-2022,7-1-8,10,depth_duration_stimuli/001650_2014-06-20_12-09-00_260595134347_rgbf000087-resize_3/001650_2014-06-20_12-09-00_260595134347_rgbf000087-resize_3-target.png,1000,1.9505,0.5,3099,1000,feet,jsons/v1_VE1000_randls_13.json,520014,808519,33,Man
10,391366,DepthScenes,duration_manipulation_targetAtFixation,jsons/v1_VE1000_randls_13.json,http://54.235.29.9/FacialAge/BNav_EC2/DepthDuration/v2_depth_duration_MTurk/v2_DepthDuration_HTML.html#96,96,2048,1152,2048,1152,8-22-2022,7-1-8,11,depth_duration_stimuli/001244_2014-06-17_16-47-45_260595134347_rgbf000030-resize_4/001244_2014-06-17_16-47-45_260595134347_rgbf000030-resize_4-target.png,1000,2.0425,1.0,2802,1001,feet,jsons/v1_VE1000_randls_13.json,520014,808519,33,Man
11,391366,DepthScenes,duration_manipulation_targetAtFixation,jsons/v1_VE1000_randls_13.json,http://54.235.29.9/FacialAge/BNav_EC2/DepthDuration/v2_depth_duration_MTurk/v2_DepthDuration_HTML.html#96,96,2048,1152,2048,1152,8-22-2022,7-1-8,12,depth_duration_stimuli/003495_2014-05-21_16-01-51_094959634447_rgbf000100-resize_3/003495_2014-05-21_16-01-51_094959634447_rgbf000100-resize_3-target.png,1000,1.6255,1.0,2418,1000,feet,jsons/v1_VE1000_randls_13.json,520014,808519,33,Man
12,391366,DepthScenes,duration_manipulation_targetAtFixation,jsons/v1_VE1000_randls_13.json,http://54.235.29.9/FacialAge/BNav_EC2/DepthDuration/v2_depth_duration_MTurk/v2_DepthDuration_HTML.html#96,96,2048,1152,2048,1152,8-22-2022,7-1-8,13,depth_duration_stimuli/000569_2014-06-09_22-51-47_260595134347_rgbf000141-resize_3/000569_2014-06-09_22-51-47_260595134347_rgbf000141-resize-original.jpg,1000,4.512,0.0,2491,1001,feet,jsons/v1_VE1000_randls_13.json,520014,808519,33,Man
13,391366,DepthScenes,duration_manipulation_targetAtFixation,jsons/v1_VE1000_randls_13.json,http://54.235.29.9/FacialAge/BNav_EC2/DepthDuration/v2_depth_duration_MTurk/v2_DepthDuration_HTML.html#96,96,2048,1152,2048,1152,8-22-2022,7-1-8,14,depth_duration_stimuli/001158_2014-06-17_15-32-16_260595134347_rgbf000138-resize_2/001158_2014-06-17_15-32-16_260595134347_rgbf000138-resize_2-target.png,1000,4.5315,11.0,2546,998,feet,jsons/v1_VE1000_randls_13.json,520014,808519,33,Man
14,391366,DepthScenes,duration_manipulation_targetAtFixation,jsons/v1_VE1000_randls_13.json,http://54.235.29.9/FacialAge/BNav_EC2/DepthDuration/v2_depth_duration_MTurk/v2_DepthDuration_HTML.html#96,96,2048,1152,2048,1152,8-22-2022,7-1-8,15,depth_duration_stimuli/000556_2014-06-09_22-42-56_260595134347_rgbf000214-resize_1/000556_2014-06-09_22-42-56_260595134347_rgbf000214-resize_1-target.png,1000,4.8415,9.0,2345,999,feet,jsons/v1_VE1000_randls_13.json,520014,808519,33,Man
15,391366,DepthScenes,duration_manipulation_targetAtFixation,jsons/v1_VE1000_randls_13.json,http://54.235.29.9/FacialAge/BNav_EC2/DepthDuration/v2_depth_duration_MTurk/v2_DepthDuration_HTML.html#96,96,2048,1152,2048,1152,8-22-2022,7-1-8,16,depth_duration_stimuli/001150_2014-06-17_15-27-34_260595134347_rgbf000108-resize_2/001150_2014-06-17_15-27-34_260595134347_rgbf000108-resize_2-target.png,1000,4.0325,10.0,2858,1000,feet,jsons/v1_VE1000_randls_13.json,520014,808519,33,Man
16,391366,DepthScenes,duration_manipulation_targetAtFixation,jsons/v1_VE1000_randls_13.json,http://54.235.29.9/FacialAge/BNav_EC2/DepthDuration/v2_depth_duration_MTurk/v2_DepthDuration_HTML.html#96,96,2048,1152,2048,1152,8-22-2022,7-1-8,17,depth_duration_stimuli/000665_2014-06-09_20-42-35_260595134347_rgbf000110-resize_1/000665_2014-06-09_20-42-35_260595134347_rgbf000110-resize_1-target.png,1000,3.057,6.0,2266,999,feet,jsons/v1_VE1000_randls_13.json,520014,808519,33,Man
17,391366,DepthScenes,duration_manipulation_targetAtFixation,jsons/v1_VE1000_randls_13.json,http://54.235.29.9/FacialAge/BNav_EC2/DepthDuration/v2_depth_duration_MTurk/v2_DepthDuration_HTML.html#96,96,2048,1152,2048,1152,8-22-2022,7-1-8,18,depth_duration_stimuli/002375_2014-06-28_20-13-44_260595134347_rgbf000032-resize_1/002375_2014-06-28_20-13-44_260595134347_rgbf000032-resize_1-target.png,1000,4.0175,4.0,3249,999,feet,jsons/v1_VE1000_randls_13.json,520014,808519,33,Man
18,391366,DepthScenes,duration_manipulation_targetAtFixation,jsons/v1_VE1000_randls_13.json,http://54.235.29.9/FacialAge/BNav_EC2/DepthDuration/v2_depth_duration_MTurk/v2_DepthDuration_HTML.html#96,96,2048,1152,2048,1152,8-22-2022,7-1-8,19,depth_duration_stimuli/002657_2014-06-13_15-29-54_094959634447_rgbf000150-resize_1/002657_2014-06-13_15-29-54_094959634447_rgbf000150-resize_1-target.png,1000,4.919,5.8,3236,1002,feet,jsons/v1_VE1000_randls_13.json,520014,808519,33,Man
19,391366,DepthScenes,duration_manipulation_targetAtFixation,jsons/v1_VE1000_randls_13.json,http://54.235.29.9/FacialAge/BNav_EC2/DepthDuration/v2_depth_duration_MTurk/v2_DepthDuration_HTML.html#96,96,2048,1152,2048,1152,8-22-2022,7-1-8,20,depth_duration_stimuli/003492_2014-05-21_15-50-55_094959634447_rgbf000828-resize_1/003492_2014-05-21_15-50-55_094959634447_rgbf000828-resize_1-target.png,1000,4.06875,9.0,2762,1000,feet,jsons/v1_VE1000_randls_13.json,520014,808519,33,Man
20,391366,DepthScenes,duration_manipulation_targetAtFixation,jsons/v1_VE1000_randls_13.json,http://54.235.29.9/FacialAge/BNav_EC2/DepthDuration/v2_depth_duration_MTurk/v2_DepthDuration_HTML.html#96,96,2048,1152,2048,1152,8-22-2022,7-1-8,21,depth_duration_stimuli/002568_2014-06-24_13-59-21_094959634447_rgbf000062-resize_4/002568_2014-06-24_13-59-21_094959634447_rgbf000062-resize_4-target.png,1000,3.015,6.0,2258,1000,feet,jsons/v1_VE1000_randls_13.json,520014,808519,33,Man
21,391366,DepthScenes,duration_manipulation_targetAtFixation,jsons/v1_VE1000_randls_13.json,http://54.235.29.9/FacialAge/BNav_EC2/DepthDuration/v2_depth_duration_MTurk/v2_DepthDuration_HTML.html#96,96,2048,1152,2048,1152,8-22-2022,7-1-8,22,depth_duration_stimuli/000788_2014-06-08_22-34-36_260595134347_rgbf000131-resize_1/000788_2014-06-08_22-34-36_260595134347_rgbf000131-resize_1-target.png,1000,3.359,5.4,3490,998,feet,jsons/v1_VE1000_randls_13.json,520014,808519,33,Man
22,391366,DepthScenes,duration_manipulation_targetAtFixation,jsons/v1_VE1000_randls_13.json,http://54.235.29.9/FacialAge/BNav_EC2/DepthDuration/v2_depth_duration_MTurk/v2_DepthDuration_HTML.html#96,96,2048,1152,2048,1152,8-22-2022,7-1-8,23,depth_duration_stimuli/001235_2014-06-17_16-37-36_260595134347_rgbf000084-resize_4/001235_2014-06-17_16-37-36_260595134347_rgbf000084-resize_4-target.png,1000,3.6605,6.0,2435,1001,feet,jsons/v1_VE1000_randls_13.json,520014,808519,33,Man
23,391366,DepthScenes,duration_manipulation_targetAtFixation,jsons/v1_VE1000_randls_13.json,http://54.235.29.9/FacialAge/BNav_EC2/DepthDuration/v2_depth_duration_MTurk/v2_DepthDuration_HTML.html#96,96,2048,1152,2048,1152,8-22-2022,7-1-8,24,depth_duration_stimuli/000692_2014-06-08_13-09-42_260595134347_rgbf000199-resize_2/000692_2014-06-08_13-09-42_260595134347_rgbf000199-resize_2-target.png,1000,3.661,7.5,3116,1001,feet,jsons/v1_VE1000_randls_13.json,520014,808519,33,Man
24,391366,DepthScenes,duration_manipulation_targetAtFixation,jsons/v1_VE1000_randls_13.json,http://54.235.29.9/FacialAge/BNav_EC2/DepthDuration/v2_depth_duration_MTurk/v2_DepthDuration_HTML.html#96,96,2048,1152,2048,1152,8-22-2022,7-1-8,25,depth_duration_stimuli/001094_2014-06-15_17-36-00_260595134347_rgbf000205-resize_0/001094_2014-06-15_17-36-00_260595134347_rgbf000205-resize_0-target.png,1000,4.2175,12.0,3097,998,feet,jsons/v1_VE1000_randls_13.json,520014,808519,33,Man
25,391366,DepthScenes,duration_manipulation_targetAtFixation,jsons/v1_VE1000_randls_13.json,http://54.235.29.9/FacialAge/BNav_EC2/DepthDuration/v2_depth_duration_MTurk/v2_DepthDuration_HTML.html#96,96,2048,1152,2048,1152,8-22-2022,7-1-8,26,depth_duration_stimuli/002445_2014-06-28_20-32-16_260595134347_rgbf000029-resize_4/002445_2014-06-28_20-32-16_260595134347_rgbf000029-resize_4-target.png,1000,2.5315,1.0,2108,1002,feet,jsons/v1_VE1000_randls_13.json,520014,808519,33,Man
26,391366,DepthScenes,duration_manipulation_targetAtFixation,jsons/v1_VE1000_randls_13.json,http://54.235.29.9/FacialAge/BNav_EC2/DepthDuration/v2_depth_duration_MTurk/v2_DepthDuration_HTML.html#96,96,2048,1152,2048,1152,8-22-2022,7-1-8,27,depth_duration_stimuli/000780_2014-06-08_22-28-29_260595134347_rgbf000126-resize_1/000780_2014-06-08_22-28-29_260595134347_rgbf000126-resize_1-target.png,1000,3.3825,9.0,2405,1000,feet,jsons/v1_VE1000_randls_13.json,520014,808519,33,Man
27,391366,DepthScenes,duration_manipulation_targetAtFixation,jsons/v1_VE1000_randls_13.json,http://54.235.29.9/FacialAge/BNav_EC2/DepthDuration/v2_depth_duration_MTurk/v2_DepthDuration_HTML.html#96,96,2048,1152,2048,1152,8-22-2022,7-1-8,28,depth_duration_stimuli/000470_2014-06-09_19-42-40_260595134347_rgbf000094-resize_1/000470_2014-06-09_19-42-40_260595134347_rgbf000094-resize_1-target.png,1000,1.831,2.4,2791,997,feet,jsons/v1_VE1000_randls_13.json,520014,808519,33,Man
28,391366,DepthScenes,duration_manipulation_targetAtFixation,jsons/v1_VE1000_randls_13.json,http://54.235.29.9/FacialAge/BNav_EC2/DepthDuration/v2_depth_duration_MTurk/v2_DepthDuration_HTML.html#96,96,2048,1152,2048,1152,8-22-2022,7-1-8,29,depth_duration_stimuli/000109_2014-05-14_23-41-52_260595134347_rgbf000035-resize_9/000109_2014-05-14_23-41-52_260595134347_rgbf000035-resize_9-target.png,1000,1.3545,1.2,3227,998,feet,jsons/v1_VE1000_randls_13.json,520014,808519,33,Man
29,391366,DepthScenes,duration_manipulation_targetAtFixation,jsons/v1_VE1000_randls_13.json,http://54.235.29.9/FacialAge/BNav_EC2/DepthDuration/v2_depth_duration_MTurk/v2_DepthDuration_HTML.html#96,96,2048,1152,2048,1152,8-22-2022,7-1-8,30,depth_duration_stimuli/000375_2014-06-08_11-17-29_260595134347_rgbf000133-resize_2/000375_2014-06-08_11-17-29_260595134347_rgbf000133-resize-original.jpg,1000,4.718,0.0,2108,1000,feet,jsons/v1_VE1000_randls_13.json,520014,808519,33,Man
30,391366,DepthScenes,duration_manipulation_targetAtFixation,jsons/v1_VE1000_randls_13.json,http://54.235.29.9/FacialAge/BNav_EC2/DepthDuration/v2_depth_duration_MTurk/v2_DepthDuration_HTML.html#96,96,2048,1152,2048,1152,8-22-2022,7-1-8,31,depth_duration_stimuli/002509_2014-06-24_13-19-22_094959634447_rgbf000077-resize_0/002509_2014-06-24_13-19-22_094959634447_rgbf000077-resize_0-target.png,1000,1.3065,1.0,2392,998,feet,jsons/v1_VE1000_randls_13.json,520014,808519,33,Man
31,391366,DepthScenes,duration_manipulation_targetAtFixation,jsons/v1_VE1000_randls_13.json,http://54.235.29.9/FacialAge/BNav_EC2/DepthDuration/v2_depth_duration_MTurk/v2_DepthDuration_HTML.html#96,96,2048,1152,2048,1152,8-22-2022,7-1-8,32,depth_duration_stimuli/003338_2014-05-20_11-01-23_094959634447_rgbf000051-resize_6/003338_2014-05-20_11-01-23_094959634447_rgbf000051-resize_6-target.png,1000,1.693,1.0,2346,998,feet,jsons/v1_VE1000_randls_13.json,520014,808519,33,Man
32,391366,DepthScenes,duration_manipulation_targetAtFixation,jsons/v1_VE1000_randls_13.json,http://54.235.29.9/FacialAge/BNav_EC2/DepthDuration/v2_depth_duration_MTurk/v2_DepthDuration_HTML.html#96,96,2048,1152,2048,1152,8-22-2022,7-1-8,33,depth_duration_stimuli/002784_2014-06-22_19-26-30_094959634447_rgbf000083-resize_3/002784_2014-06-22_19-26-30_094959634447_rgbf000083-resize_3-target.png,1000,1.8046666666667,2.0,2274,1000,feet,jsons/v1_VE1000_randls_13.json,520014,808519,33,Man
33,391366,DepthScenes,duration_manipulation_targetAtFixation,jsons/v1_VE1000_randls_13.json,http://54.235.29.9/FacialAge/BNav_EC2/DepthDuration/v2_depth_duration_MTurk/v2_DepthDuration_HTML.html#96,96,2048,1152,2048,1152,8-22-2022,7-1-8,34,depth_duration_stimuli/001100_2014-06-15_17-46-26_260595134347_rgbf000225-resize_2/001100_2014-06-15_17-46-26_260595134347_rgbf000225-resize_2-target.png,1000,2.24,1.5,2779,1000,feet,jsons/v1_VE1000_randls_13.json,520014,808519,33,Man
34,391366,DepthScenes,duration_manipulation_targetAtFixation,jsons/v1_VE1000_randls_13.json,http://54.235.29.9/FacialAge/BNav_EC2/DepthDuration/v2_depth_duration_MTurk/v2_DepthDuration_HTML.html#96,96,2048,1152,2048,1152,8-22-2022,7-1-8,35,depth_duration_stimuli/000469_2014-06-09_19-42-10_260595134347_rgbf000081-resize_1/000469_2014-06-09_19-42-10_260595134347_rgbf000081-resize_1-target.png,1000,1.652,1.0,2066,998,feet,jsons/v1_VE1000_randls_13.json,520014,808519,33,Man
35,391366,DepthScenes,duration_manipulation_targetAtFixation,jsons/v1_VE1000_randls_13.json,http://54.235.29.9/FacialAge/BNav_EC2/DepthDuration/v2_depth_duration_MTurk/v2_DepthDuration_HTML.html#96,96,2048,1152,2048,1152,8-22-2022,7-1-8,36,depth_duration_stimuli/000483_2014-06-09_20-41-45_260595134347_rgbf000116-resize_4/000483_2014-06-09_20-41-45_260595134347_rgbf000116-resize_4-target.png,1000,1.337,0.8,2740,1000,feet,jsons/v1_VE1000_randls_13.json,520014,808519,33,Man
36,391366,DepthScenes,duration_manipulation_targetAtFixation,jsons/v1_VE1000_randls_13.json,http://54.235.29.9/FacialAge/BNav_EC2/DepthDuration/v2_depth_duration_MTurk/v2_DepthDuration_HTML.html#96,96,2048,1152,2048,1152,8-22-2022,7-1-8,37,depth_duration_stimuli/002964_2014-06-08_17-46-11_094959634447_rgbf000091-resize_4/002964_2014-06-08_17-46-11_094959634447_rgbf000091-resize_4-target.png,1000,1.6909999999999998,1.1,3132,1000,feet,jsons/v1_VE1000_randls_13.json,520014,808519,33,Man
37,391366,DepthScenes,duration_manipulation_targetAtFixation,jsons/v1_VE1000_randls_13.json,http://54.235.29.9/FacialAge/BNav_EC2/DepthDuration/v2_depth_duration_MTurk/v2_DepthDuration_HTML.html#96,96,2048,1152,2048,1152,8-22-2022,7-1-8,38,depth_duration_stimuli/002136_2014-06-25_21-18-03_260595134347_rgbf000109-resize_3/002136_2014-06-25_21-18-03_260595134347_rgbf000109-resize_3-target.png,1000,1.9569999999999999,1.7,2808,998,feet,jsons/v1_VE1000_randls_13.json,520014,808519,33,Man
38,391366,DepthScenes,duration_manipulation_targetAtFixation,jsons/v1_VE1000_randls_13.json,http://54.235.29.9/FacialAge/BNav_EC2/DepthDuration/v2_depth_duration_MTurk/v2_DepthDuration_HTML.html#96,96,2048,1152,2048,1152,8-22-2022,7-1-8,39,depth_duration_stimuli/002039_2014-06-24_20-22-38_260595134347_rgbf000084-resize_1/002039_2014-06-24_20-22-38_260595134347_rgbf000084-resize_1-target.png,1000,4.408,11.0,2819,1000,feet,jsons/v1_VE1000_randls_13.json,520014,808519,33,Man
39,391366,DepthScenes,duration_manipulation_targetAtFixation,jsons/v1_VE1000_randls_13.json,http://54.235.29.9/FacialAge/BNav_EC2/DepthDuration/v2_depth_duration_MTurk/v2_DepthDuration_HTML.html#96,96,2048,1152,2048,1152,8-22-2022,7-1-8,40,depth_duration_stimuli/002103_2014-06-25_20-00-40_260595134347_rgbf000049-resize_0/002103_2014-06-25_20-00-40_260595134347_rgbf000049-resize_0-target.png,1000,4.105,12.0,2858,1000,feet,jsons/v1_VE1000_randls_13.json,520014,808519,33,Man
40,391366,DepthScenes,duration_manipulation_targetAtFixation,jsons/v1_VE1000_randls_13.json,http://54.235.29.9/FacialAge/BNav_EC2/DepthDuration/v2_depth_duration_MTurk/v2_DepthDuration_HTML.html#96,96,2048,1152,2048,1152,8-22-2022,7-1-8,41,depth_duration_stimuli/002213_2014-06-28_18-37-58_260595134347_rgbf000055-resize_1/002213_2014-06-28_18-37-58_260595134347_rgbf000055-resize_1-target.png,1000,3.62,8.0,2739,999,feet,jsons/v1_VE1000_randls_13.json,520014,808519,33,Man
41,391366,DepthScenes,duration_manipulation_targetAtFixation,jsons/v1_VE1000_randls_13.json,http://54.235.29.9/FacialAge/BNav_EC2/DepthDuration/v2_depth_duration_MTurk/v2_DepthDuration_HTML.html#96,96,2048,1152,2048,1152,8-22-2022,7-1-8,42,depth_duration_stimuli/000691_2014-06-08_13-08-50_260595134347_rgbf000132-resize_3/000691_2014-06-08_13-08-50_260595134347_rgbf000132-resize_3-target.png,1000,4.1530000000000005,9.0,2595,1001,feet,jsons/v1_VE1000_randls_13.json,520014,808519,33,Man
42,391366,DepthScenes,duration_manipulation_targetAtFixation,jsons/v1_VE1000_randls_13.json,http://54.235.29.9/FacialAge/BNav_EC2/DepthDuration/v2_depth_duration_MTurk/v2_DepthDuration_HTML.html#96,96,2048,1152,2048,1152,8-22-2022,7-1-8,43,depth_duration_stimuli/000929_2014-06-09_16-33-19_260595134347_rgbf000139-resize_0/000929_2014-06-09_16-33-19_260595134347_rgbf000139-resize_0-target.png,1000,2.8680000000000003,5.5,2826,999,feet,jsons/v1_VE1000_randls_13.json,520014,808519,33,Man
43,391366,DepthScenes,duration_manipulation_targetAtFixation,jsons/v1_VE1000_randls_13.json,http://54.235.29.9/FacialAge/BNav_EC2/DepthDuration/v2_depth_duration_MTurk/v2_DepthDuration_HTML.html#96,96,2048,1152,2048,1152,8-22-2022,7-1-8,44,depth_duration_stimuli/000457_2014-06-08_16-52-43_260595134347_rgbf000199-resize_1/000457_2014-06-08_16-52-43_260595134347_rgbf000199-resize_1-target.png,1000,3.6489999999999996,6.0,2243,1000,feet,jsons/v1_VE1000_randls_13.json,520014,808519,33,Man
44,391366,DepthScenes,duration_manipulation_targetAtFixation,jsons/v1_VE1000_randls_13.json,http://54.235.29.9/FacialAge/BNav_EC2/DepthDuration/v2_depth_duration_MTurk/v2_DepthDuration_HTML.html#96,96,2048,1152,2048,1152,8-22-2022,7-1-8,45,depth_duration_stimuli/000787_2014-06-08_22-33-53_260595134347_rgbf000175-resize_1/000787_2014-06-08_22-33-53_260595134347_rgbf000175-resize-original.jpg,1000,4.784,0.0,2092,1000,feet,jsons/v1_VE1000_randls_13.json,520014,808519,33,Man
45,391366,DepthScenes,duration_manipulation_targetAtFixation,jsons/v1_VE1000_randls_13.json,http://54.235.29.9/FacialAge/BNav_EC2/DepthDuration/v2_depth_duration_MTurk/v2_DepthDuration_HTML.html#96,96,2048,1152,2048,1152,8-22-2022,7-1-8,46,depth_duration_stimuli/003621_2014-05-23_18-06-08_094959634447_rgbf000101-resize_1/003621_2014-05-23_18-06-08_094959634447_rgbf000101-resize_1-target.png,1000,3.9835,9.0,3050,999,feet,jsons/v1_VE1000_randls_13.json,520014,808519,33,Man
46,391366,DepthScenes,duration_manipulation_targetAtFixation,jsons/v1_VE1000_randls_13.json,http://54.235.29.9/FacialAge/BNav_EC2/DepthDuration/v2_depth_duration_MTurk/v2_DepthDuration_HTML.html#96,96,2048,1152,2048,1152,8-22-2022,7-1-8,47,depth_duration_stimuli/001584_2014-06-20_11-07-43_260595134347_rgbf000002-resize_1/001584_2014-06-20_11-07-43_260595134347_rgbf000002-resize_1-target.png,1000,3.53,7.0,2211,1000,feet,jsons/v1_VE1000_randls_13.json,520014,808519,33,Man
47,391366,DepthScenes,duration_manipulation_targetAtFixation,jsons/v1_VE1000_randls_13.json,http://54.235.29.9/FacialAge/BNav_EC2/DepthDuration/v2_depth_duration_MTurk/v2_DepthDuration_HTML.html#96,96,2048,1152,2048,1152,8-22-2022,7-1-8,48,depth_duration_stimuli/001175_2014-06-17_15-45-55_260595134347_rgbf000129-resize_4/001175_2014-06-17_15-45-55_260595134347_rgbf000129-resize_4-target.png,1000,4.255,14.0,2835,998,feet,jsons/v1_VE1000_randls_13.json,520014,808519,33,Man
48,391366,DepthScenes,duration_manipulation_targetAtFixation,jsons/v1_VE1000_randls_13.json,http://54.235.29.9/FacialAge/BNav_EC2/DepthDuration/v2_depth_duration_MTurk/v2_DepthDuration_HTML.html#96,96,2048,1152,2048,1152,8-22-2022,7-1-8,49,depth_duration_stimuli/003490_2014-05-21_15-50-11_094959634447_rgbf000101-resize_3/003490_2014-05-21_15-50-11_094959634447_rgbf000101-resize_3-target.png,1000,3.6445,8.0,2577,1000,feet,jsons/v1_VE1000_randls_13.json,520014,808519,33,Man
49,391366,DepthScenes,duration_manipulation_targetAtFixation,jsons/v1_VE1000_randls_13.json,http://54.235.29.9/FacialAge/BNav_EC2/DepthDuration/v2_depth_duration_MTurk/v2_DepthDuration_HTML.html#96,96,2048,1152,2048,1152,8-22-2022,7-1-8,50,depth_duration_stimuli/002279_2014-06-28_18-55-32_260595134347_rgbf000040-resize_5/002279_2014-06-28_18-55-32_260595134347_rgbf000040-resize_5-target.png,1000,1.5043333333333,2.0,2732,1001,feet,jsons/v1_VE1000_randls_13.json,520014,808519,33,Man
50,391366,DepthScenes,duration_manipulation_targetAtFixation,jsons/v1_VE1000_randls_13.json,http://54.235.29.9/FacialAge/BNav_EC2/DepthDuration/v2_depth_duration_MTurk/v2_DepthDuration_HTML.html#96,96,2048,1152,2048,1152,8-22-2022,7-1-8,51,depth_duration_stimuli/000635_2014-06-08_16-38-42_260595134347_rgbf000106-resize_1/000635_2014-06-08_16-38-42_260595134347_rgbf000106-resize_1-target.png,1000,2.074,3.0,2064,997,feet,jsons/v1_VE1000_randls_13.json,520014,808519,33,Man
51,391366,DepthScenes,duration_manipulation_targetAtFixation,jsons/v1_VE1000_randls_13.json,http://54.235.29.9/FacialAge/BNav_EC2/DepthDuration/v2_depth_duration_MTurk/v2_DepthDuration_HTML.html#96,96,2048,1152,2048,1152,8-22-2022,7-1-8,52,depth_duration_stimuli/002043_2014-06-24_20-29-38_260595134347_rgbf000039-resize_4/002043_2014-06-24_20-29-38_260595134347_rgbf000039-resize_4-target.png,1000,2.8435,3.5,2704,997,feet,jsons/v1_VE1000_randls_13.json,520014,808519,33,Man
52,391366,DepthScenes,duration_manipulation_targetAtFixation,jsons/v1_VE1000_randls_13.json,http://54.235.29.9/FacialAge/BNav_EC2/DepthDuration/v2_depth_duration_MTurk/v2_DepthDuration_HTML.html#96,96,2048,1152,2048,1152,8-22-2022,7-1-8,53,depth_duration_stimuli/003048_2014-06-15_13-49-43_094959634447_rgbf000150-resize_1/003048_2014-06-15_13-49-43_094959634447_rgbf000150-resize_1-target.png,1000,4.0035,8.0,2307,1000,feet,jsons/v1_VE1000_randls_13.json,520014,808519,33,Man
53,391366,DepthScenes,duration_manipulation_targetAtFixation,jsons/v1_VE1000_randls_13.json,http://54.235.29.9/FacialAge/BNav_EC2/DepthDuration/v2_depth_duration_MTurk/v2_DepthDuration_HTML.html#96,96,2048,1152,2048,1152,8-22-2022,7-1-8,54,depth_duration_stimuli/002725_2014-06-22_11-47-51_094959634447_rgbf000070-resize_1/002725_2014-06-22_11-47-51_094959634447_rgbf000070-resize_1-target.png,1000,2.195,5.0,2436,1000,feet,jsons/v1_VE1000_randls_13.json,520014,808519,33,Man
54,391366,DepthScenes,duration_manipulation_targetAtFixation,jsons/v1_VE1000_randls_13.json,http://54.235.29.9/FacialAge/BNav_EC2/DepthDuration/v2_depth_duration_MTurk/v2_DepthDuration_HTML.html#96,96,2048,1152,2048,1152,8-22-2022,7-1-8,55,depth_duration_stimuli/002344_2014-06-28_20-06-29_260595134347_rgbf000030-resize_1/002344_2014-06-28_20-06-29_260595134347_rgbf000030-resize_1-target.png,1000,1.5795,1.0,2058,1000,feet,jsons/v1_VE1000_randls_13.json,520014,808519,33,Man
55,391366,DepthScenes,duration_manipulation_targetAtFixation,jsons/v1_VE1000_randls_13.json,http://54.235.29.9/FacialAge/BNav_EC2/DepthDuration/v2_depth_duration_MTurk/v2_DepthDuration_HTML.html#96,96,2048,1152,2048,1152,8-22-2022,7-1-8,56,depth_duration_stimuli/001055_2014-06-08_18-45-35_260595134347_rgbf000111-resize_4/001055_2014-06-08_18-45-35_260595134347_rgbf000111-resize_4-target.png,1000,2.4290000000000003,6.0,3505,997,feet,jsons/v1_VE1000_randls_13.json,520014,808519,33,Man
56,391366,DepthScenes,duration_manipulation_targetAtFixation,jsons/v1_VE1000_randls_13.json,http://54.235.29.9/FacialAge/BNav_EC2/DepthDuration/v2_depth_duration_MTurk/v2_DepthDuration_HTML.html#96,96,2048,1152,2048,1152,8-22-2022,7-1-8,57,depth_duration_stimuli/000549_2014-06-08_22-10-24_260595134347_rgbf000247-resize_3/000549_2014-06-08_22-10-24_260595134347_rgbf000247-resize_3-target.png,1000,1.841,2.0,2130,1003,feet,jsons/v1_VE1000_randls_13.json,520014,808519,33,Man
57,391366,DepthScenes,duration_manipulation_targetAtFixation,jsons/v1_VE1000_randls_13.json,http://54.235.29.9/FacialAge/BNav_EC2/DepthDuration/v2_depth_duration_MTurk/v2_DepthDuration_HTML.html#96,96,2048,1152,2048,1152,8-22-2022,7-1-8,58,depth_duration_stimuli/000736_2014-06-08_18-24-15_260595134347_rgbf000206-resize_3/000736_2014-06-08_18-24-15_260595134347_rgbf000206-resize_3-target.png,1000,3.515,6.2,3402,1001,feet,jsons/v1_VE1000_randls_13.json,520014,808519,33,Man
58,391366,DepthScenes,duration_manipulation_targetAtFixation,jsons/v1_VE1000_randls_13.json,http://54.235.29.9/FacialAge/BNav_EC2/DepthDuration/v2_depth_duration_MTurk/v2_DepthDuration_HTML.html#96,96,2048,1152,2048,1152,8-22-2022,7-1-8,59,depth_duration_stimuli/000137_2014-05-20_17-04-49_260595134347_rgbf000120-resize_1/000137_2014-05-20_17-04-49_260595134347_rgbf000120-resize_1-target.png,1000,3.786,8.4,2899,1000,feet,jsons/v1_VE1000_randls_13.json,520014,808519,33,Man
59,391366,DepthScenes,duration_manipulation_targetAtFixation,jsons/v1_VE1000_randls_13.json,http://54.235.29.9/FacialAge/BNav_EC2/DepthDuration/v2_depth_duration_MTurk/v2_DepthDuration_HTML.html#96,96,2048,1152,2048,1152,8-22-2022,7-1-8,60,depth_duration_stimuli/000642_2014-06-08_16-59-25_260595134347_rgbf000098-resize_2/000642_2014-06-08_16-59-25_260595134347_rgbf000098-resize_2-target.png,1000,2.8815,7.0,2660,1000,feet,jsons/v1_VE1000_randls_13.json,520014,808519,33,Man
60,391366,DepthScenes,duration_manipulation_targetAtFixation,jsons/v1_VE1000_randls_13.json,http://54.235.29.9/FacialAge/BNav_EC2/DepthDuration/v2_depth_duration_MTurk/v2_DepthDuration_HTML.html#96,96,2048,1152,2048,1152,8-22-2022,7-1-8,61,depth_duration_stimuli/002425_2014-06-28_20-27-29_260595134347_rgbf000031-resize_8/002425_2014-06-28_20-27-29_260595134347_rgbf000031-resize_8-target.png,1000,3.8960000000000004,9.0,2412,1000,feet,jsons/v1_VE1000_randls_13.json,520014,808519,33,Man
61,391366,DepthScenes,duration_manipulation_targetAtFixation,jsons/v1_VE1000_randls_13.json,http://54.235.29.9/FacialAge/BNav_EC2/DepthDuration/v2_depth_duration_MTurk/v2_DepthDuration_HTML.html#96,96,2048,1152,2048,1152,8-22-2022,7-1-8,62,depth_duration_stimuli/001056_2014-06-08_18-46-44_260595134347_rgbf000068-resize_0/001056_2014-06-08_18-46-44_260595134347_rgbf000068-resize_0-target.png,1000,2.6625,8.0,2359,999,feet,jsons/v1_VE1000_randls_13.json,520014,808519,33,Man
62,391366,DepthScenes,duration_manipulation_targetAtFixation,jsons/v1_VE1000_randls_13.json,http://54.235.29.9/FacialAge/BNav_EC2/DepthDuration/v2_depth_duration_MTurk/v2_DepthDuration_HTML.html#96,96,2048,1152,2048,1152,8-22-2022,7-1-8,63,depth_duration_stimuli/002199_2014-06-28_18-33-56_260595134347_rgbf000074-resize_0/002199_2014-06-28_18-33-56_260595134347_rgbf000074-resize_0-target.png,1000,1.996,1.0,2104,996,feet,jsons/v1_VE1000_randls_13.json,520014,808519,33,Man
63,391366,DepthScenes,duration_manipulation_targetAtFixation,jsons/v1_VE1000_randls_13.json,http://54.235.29.9/FacialAge/BNav_EC2/DepthDuration/v2_depth_duration_MTurk/v2_DepthDuration_HTML.html#96,96,2048,1152,2048,1152,8-22-2022,7-1-8,64,depth_duration_stimuli/000917_2014-06-09_22-45-29_260595134347_rgbf000149-resize_3/000917_2014-06-09_22-45-29_260595134347_rgbf000149-resize_3-target.png,1000,4.1865,9.8,3533,1000,feet,jsons/v1_VE1000_randls_13.json,520014,808519,33,Man
64,391366,DepthScenes,duration_manipulation_targetAtFixation,jsons/v1_VE1000_randls_13.json,http://54.235.29.9/FacialAge/BNav_EC2/DepthDuration/v2_depth_duration_MTurk/v2_DepthDuration_HTML.html#96,96,2048,1152,2048,1152,8-22-2022,7-1-8,65,depth_duration_stimuli/002323_2014-06-28_20-01-54_260595134347_rgbf000051-resize_4/002323_2014-06-28_20-01-54_260595134347_rgbf000051-resize_4-target.png,1000,3.7310000000000003,8.0,3882,1000,feet,jsons/v1_VE1000_randls_13.json,520014,808519,33,Man
65,391366,DepthScenes,duration_manipulation_targetAtFixation,jsons/v1_VE1000_randls_13.json,http://54.235.29.9/FacialAge/BNav_EC2/DepthDuration/v2_depth_duration_MTurk/v2_DepthDuration_HTML.html#96,96,2048,1152,2048,1152,8-22-2022,7-1-8,66,depth_duration_stimuli/001222_2014-06-17_16-24-06_260595134347_rgbf000073-resize_0/001222_2014-06-17_16-24-06_260595134347_rgbf000073-resize-original.jpg,1000,1.4385,0.0,2370,1001,feet,jsons/v1_VE1000_randls_13.json,520014,808519,33,Man
66,391366,DepthScenes,duration_manipulation_targetAtFixation,jsons/v1_VE1000_randls_13.json,http://54.235.29.9/FacialAge/BNav_EC2/DepthDuration/v2_depth_duration_MTurk/v2_DepthDuration_HTML.html#96,96,2048,1152,2048,1152,8-22-2022,7-1-8,67,depth_duration_stimuli/000878_2014-06-08_22-52-45_260595134347_rgbf000045-resize_2/000878_2014-06-08_22-52-45_260595134347_rgbf000045-resize_2-target.png,1000,2.092,4.5,3105,998,feet,jsons/v1_VE1000_randls_13.json,520014,808519,33,Man
67,391366,DepthScenes,duration_manipulation_targetAtFixation,jsons/v1_VE1000_randls_13.json,http://54.235.29.9/FacialAge/BNav_EC2/DepthDuration/v2_depth_duration_MTurk/v2_DepthDuration_HTML.html#96,96,2048,1152,2048,1152,8-22-2022,7-1-8,68,depth_duration_stimuli/002953_2014-06-08_17-32-18_094959634447_rgbf000059-resize_5/002953_2014-06-08_17-32-18_094959634447_rgbf000059-resize_5-target.png,1000,1.551,2.0,2083,999,feet,jsons/v1_VE1000_randls_13.json,520014,808519,33,Man
68,391366,DepthScenes,duration_manipulation_targetAtFixation,jsons/v1_VE1000_randls_13.json,http://54.235.29.9/FacialAge/BNav_EC2/DepthDuration/v2_depth_duration_MTurk/v2_DepthDuration_HTML.html#96,96,2048,1152,2048,1152,8-22-2022,7-1-8,69,depth_duration_stimuli/002905_2014-06-03_18-04-43_094959634447_rgbf000151-resize_2/002905_2014-06-03_18-04-43_094959634447_rgbf000151-resize_2-target.png,1000,2.0295,2.0,2203,1003,feet,jsons/v1_VE1000_randls_13.json,520014,808519,33,Man
69,391366,DepthScenes,duration_manipulation_targetAtFixation,jsons/v1_VE1000_randls_13.json,http://54.235.29.9/FacialAge/BNav_EC2/DepthDuration/v2_depth_duration_MTurk/v2_DepthDuration_HTML.html#96,96,2048,1152,2048,1152,8-22-2022,7-1-8,70,depth_duration_stimuli/003423_2014-05-21_10-23-26_094959634447_rgbf002665-resize_2/003423_2014-05-21_10-23-26_094959634447_rgbf002665-resize_2-target.png,1000,3.2575,9.0,2804,1001,feet,jsons/v1_VE1000_randls_13.json,520014,808519,33,Man
70,391366,DepthScenes,duration_manipulation_targetAtFixation,jsons/v1_VE1000_randls_13.json,http://54.235.29.9/FacialAge/BNav_EC2/DepthDuration/v2_depth_duration_MTurk/v2_DepthDuration_HTML.html#96,96,2048,1152,2048,1152,8-22-2022,7-1-8,71,depth_duration_stimuli/000414_2014-06-04_19-49-13_260595134347_rgbf000044-resize_0/000414_2014-06-04_19-49-13_260595134347_rgbf000044-resize_0-target.png,1000,4.329,11.0,2931,1001,feet,jsons/v1_VE1000_randls_13.json,520014,808519,33,Man
71,391366,DepthScenes,duration_manipulation_targetAtFixation,jsons/v1_VE1000_randls_13.json,http://54.235.29.9/FacialAge/BNav_EC2/DepthDuration/v2_depth_duration_MTurk/v2_DepthDuration_HTML.html#96,96,2048,1152,2048,1152,8-22-2022,7-1-8,72,depth_duration_stimuli/003129_2014-05-12_10-48-10_094959634447_rgbf000100-resize_0/003129_2014-05-12_10-48-10_094959634447_rgbf000100-resize_0-target.png,1000,4.9305,13.3,2867,1002,feet,jsons/v1_VE1000_randls_13.json,520014,808519,33,Man
72,391366,DepthScenes,duration_manipulation_targetAtFixation,jsons/v1_VE1000_randls_13.json,http://54.235.29.9/FacialAge/BNav_EC2/DepthDuration/v2_depth_duration_MTurk/v2_DepthDuration_HTML.html#96,96,2048,1152,2048,1152,8-22-2022,7-1-8,73,depth_duration_stimuli/002988_2014-06-15_12-24-20_094959634447_rgbf000150-resize_1/002988_2014-06-15_12-24-20_094959634447_rgbf000150-resize_1-target.png,1000,4.7669999999999995,9.0,2187,1001,feet,jsons/v1_VE1000_randls_13.json,520014,808519,33,Man
73,391366,DepthScenes,duration_manipulation_targetAtFixation,jsons/v1_VE1000_randls_13.json,http://54.235.29.9/FacialAge/BNav_EC2/DepthDuration/v2_depth_duration_MTurk/v2_DepthDuration_HTML.html#96,96,2048,1152,2048,1152,8-22-2022,7-1-8,74,depth_duration_stimuli/001052_2014-06-08_18-24-54_260595134347_rgbf000130-resize_1/001052_2014-06-08_18-24-54_260595134347_rgbf000130-resize_1-target.png,1000,4.1045,8.0,2761,997,feet,jsons/v1_VE1000_randls_13.json,520014,808519,33,Man
74,391366,DepthScenes,duration_manipulation_targetAtFixation,jsons/v1_VE1000_randls_13.json,http://54.235.29.9/FacialAge/BNav_EC2/DepthDuration/v2_depth_duration_MTurk/v2_DepthDuration_HTML.html#96,96,2048,1152,2048,1152,8-22-2022,7-1-8,75,depth_duration_stimuli/000810_2014-06-08_17-20-01_260595134347_rgbf000105-resize_0/000810_2014-06-08_17-20-01_260595134347_rgbf000105-resize_0-target.png,1000,1.4865,4.5,2817,999,feet,jsons/v1_VE1000_randls_13.json,520014,808519,33,Man
75,391366,DepthScenes,duration_manipulation_targetAtFixation,jsons/v1_VE1000_randls_13.json,http://54.235.29.9/FacialAge/BNav_EC2/DepthDuration/v2_depth_duration_MTurk/v2_DepthDuration_HTML.html#96,96,2048,1152,2048,1152,8-22-2022,7-1-8,76,depth_duration_stimuli/001214_2014-06-17_16-13-55_260595134347_rgbf000111-resize_0/001214_2014-06-17_16-13-55_260595134347_rgbf000111-resize_0-target.png,1000,2.6505,5.8,3228,1004,feet,jsons/v1_VE1000_randls_13.json,520014,808519,33,Man
76,391366,DepthScenes,duration_manipulation_targetAtFixation,jsons/v1_VE1000_randls_13.json,http://54.235.29.9/FacialAge/BNav_EC2/DepthDuration/v2_depth_duration_MTurk/v2_DepthDuration_HTML.html#96,96,2048,1152,2048,1152,8-22-2022,7-1-8,77,depth_duration_stimuli/002272_2014-06-28_18-53-56_260595134347_rgbf000067-resize_2/002272_2014-06-28_18-53-56_260595134347_rgbf000067-resize_2-target.png,1000,1.138,1.0,2019,1000,feet,jsons/v1_VE1000_randls_13.json,520014,808519,33,Man
77,391366,DepthScenes,duration_manipulation_targetAtFixation,jsons/v1_VE1000_randls_13.json,http://54.235.29.9/FacialAge/BNav_EC2/DepthDuration/v2_depth_duration_MTurk/v2_DepthDuration_HTML.html#96,96,2048,1152,2048,1152,8-22-2022,7-1-8,78,depth_duration_stimuli/001571_2014-06-20_17-21-32_260595134347_rgbf000089-resize_1/001571_2014-06-20_17-21-32_260595134347_rgbf000089-resize_1-target.png,1000,1.86,1.8,3132,1004,feet,jsons/v1_VE1000_randls_13.json,520014,808519,33,Man
78,391366,DepthScenes,duration_manipulation_targetAtFixation,jsons/v1_VE1000_randls_13.json,http://54.235.29.9/FacialAge/BNav_EC2/DepthDuration/v2_depth_duration_MTurk/v2_DepthDuration_HTML.html#96,96,2048,1152,2048,1152,8-22-2022,7-1-8,79,depth_duration_stimuli/002788_2014-06-22_19-36-03_094959634447_rgbf000088-resize_2/002788_2014-06-22_19-36-03_094959634447_rgbf000088-resize_2-target.png,1000,1.6465,5.0,2282,999,feet,jsons/v1_VE1000_randls_13.json,520014,808519,33,Man
79,391366,DepthScenes,duration_manipulation_targetAtFixation,jsons/v1_VE1000_randls_13.json,http://54.235.29.9/FacialAge/BNav_EC2/DepthDuration/v2_depth_duration_MTurk/v2_DepthDuration_HTML.html#96,96,2048,1152,2048,1152,8-22-2022,7-1-8,80,depth_duration_stimuli/000749_2014-06-08_21-55-06_260595134347_rgbf000070-resize_2/000749_2014-06-08_21-55-06_260595134347_rgbf000070-resize_2-target.png,1000,2.331,4.0,2028,1000,feet,jsons/v1_VE1000_randls_13.json,520014,808519,33,Man
80,391366,DepthScenes,duration_manipulation_targetAtFixation,jsons/v1_VE1000_randls_13.json,http://54.235.29.9/FacialAge/BNav_EC2/DepthDuration/v2_depth_duration_MTurk/v2_DepthDuration_HTML.html#96,96,2048,1152,2048,1152,8-22-2022,7-1-8,81,depth_duration_stimuli/002748_2014-06-22_19-07-22_094959634447_rgbf000078-resize_1/002748_2014-06-22_19-07-22_094959634447_rgbf000078-resize_1-target.png,1000,4.6705,5.0,4699,999,feet,jsons/v1_VE1000_randls_13.json,520014,808519,33,Man
81,391366,DepthScenes,duration_manipulation_targetAtFixation,jsons/v1_VE1000_randls_13.json,http://54.235.29.9/FacialAge/BNav_EC2/DepthDuration/v2_depth_duration_MTurk/v2_DepthDuration_HTML.html#96,96,2048,1152,2048,1152,8-22-2022,7-1-8,82,depth_duration_stimuli/002995_2014-06-15_12-31-26_094959634447_rgbf000150-resize_1/002995_2014-06-15_12-31-26_094959634447_rgbf000150-resize_1-target.png,1000,3.8360000000000003,12.0,2571,1000,feet,jsons/v1_VE1000_randls_13.json,520014,808519,33,Man
82,391366,DepthScenes,duration_manipulation_targetAtFixation,jsons/v1_VE1000_randls_13.json,http://54.235.29.9/FacialAge/BNav_EC2/DepthDuration/v2_depth_duration_MTurk/v2_DepthDuration_HTML.html#96,96,2048,1152,2048,1152,8-22-2022,7-1-8,83,depth_duration_stimuli/000436_2014-06-09_22-25-11_260595134347_rgbf000137-resize_1/000436_2014-06-09_22-25-11_260595134347_rgbf000137-resize_1-target.png,1000,4.0705,10.5,3563,1001,feet,jsons/v1_VE1000_randls_13.json,520014,808519,33,Man
83,391366,DepthScenes,duration_manipulation_targetAtFixation,jsons/v1_VE1000_randls_13.json,http://54.235.29.9/FacialAge/BNav_EC2/DepthDuration/v2_depth_duration_MTurk/v2_DepthDuration_HTML.html#96,96,2048,1152,2048,1152,8-22-2022,7-1-8,84,depth_duration_stimuli/002444_2014-06-28_20-32-08_260595134347_rgbf000027-resize_0/002444_2014-06-28_20-32-08_260595134347_rgbf000027-resize_0-target.png,1000,4.388999999999999,9.0,3715,1000,feet,jsons/v1_VE1000_randls_13.json,520014,808519,33,Man
84,391366,DepthScenes,duration_manipulation_targetAtFixation,jsons/v1_VE1000_randls_13.json,http://54.235.29.9/FacialAge/BNav_EC2/DepthDuration/v2_depth_duration_MTurk/v2_DepthDuration_HTML.html#96,96,2048,1152,2048,1152,8-22-2022,7-1-8,85,depth_duration_stimuli/001133_2014-06-17_14-49-16_260595134347_rgbf000100-resize_0/001133_2014-06-17_14-49-16_260595134347_rgbf000100-resize_0-target.png,1000,4.2115,10.0,2867,1000,feet,jsons/v1_VE1000_randls_13.json,520014,808519,33,Man
85,391366,DepthScenes,duration_manipulation_targetAtFixation,jsons/v1_VE1000_randls_13.json,http://54.235.29.9/FacialAge/BNav_EC2/DepthDuration/v2_depth_duration_MTurk/v2_DepthDuration_HTML.html#96,96,2048,1152,2048,1152,8-22-2022,7-1-8,86,depth_duration_stimuli/001132_2014-06-17_14-48-54_260595134347_rgbf000100-resize_2/001132_2014-06-17_14-48-54_260595134347_rgbf000100-resize_2-target.png,1000,3.753,7.5,3564,1000,feet,jsons/v1_VE1000_randls_13.json,520014,808519,33,Man
86,391366,DepthScenes,duration_manipulation_targetAtFixation,jsons/v1_VE1000_randls_13.json,http://54.235.29.9/FacialAge/BNav_EC2/DepthDuration/v2_depth_duration_MTurk/v2_DepthDuration_HTML.html#96,96,2048,1152,2048,1152,8-22-2022,7-1-8,87,depth_duration_stimuli/003070_2014-06-15_14-58-27_094959634447_rgbf000150-resize_3/003070_2014-06-15_14-58-27_094959634447_rgbf000150-resize_3-target.png,1000,2.9415,6.0,2132,1000,feet,jsons/v1_VE1000_randls_13.json,520014,808519,33,Man
87,391366,DepthScenes,duration_manipulation_targetAtFixation,jsons/v1_VE1000_randls_13.json,http://54.235.29.9/FacialAge/BNav_EC2/DepthDuration/v2_depth_duration_MTurk/v2_DepthDuration_HTML.html#96,96,2048,1152,2048,1152,8-22-2022,7-1-8,88,depth_duration_stimuli/000943_2014-06-09_19-31-07_260595134347_rgbf000128-resize_1/000943_2014-06-09_19-31-07_260595134347_rgbf000128-resize_1-target.png,1000,1.9765,3.0,2130,1000,feet,jsons/v1_VE1000_randls_13.json,520014,808519,33,Man
88,391366,DepthScenes,duration_manipulation_targetAtFixation,jsons/v1_VE1000_randls_13.json,http://54.235.29.9/FacialAge/BNav_EC2/DepthDuration/v2_depth_duration_MTurk/v2_DepthDuration_HTML.html#96,96,2048,1152,2048,1152,8-22-2022,7-1-8,89,depth_duration_stimuli/002057_2014-06-24_21-00-13_260595134347_rgbf000120-resize_1/002057_2014-06-24_21-00-13_260595134347_rgbf000120-resize_1-target.png,1000,2.967,10.0,2483,1000,feet,jsons/v1_VE1000_randls_13.json,520014,808519,33,Man
89,391366,DepthScenes,duration_manipulation_targetAtFixation,jsons/v1_VE1000_randls_13.json,http://54.235.29.9/FacialAge/BNav_EC2/DepthDuration/v2_depth_duration_MTurk/v2_DepthDuration_HTML.html#96,96,2048,1152,2048,1152,8-22-2022,7-1-8,90,depth_duration_stimuli/000709_2014-06-08_13-51-55_260595134347_rgbf000068-resize_3/000709_2014-06-08_13-51-55_260595134347_rgbf000068-resize_3-target.png,1000,1.8030000000000002,3.0,2394,998,feet,jsons/v1_VE1000_randls_13.json,520014,808519,33,Man
90,391366,DepthScenes,duration_manipulation_targetAtFixation,jsons/v1_VE1000_randls_13.json,http://54.235.29.9/FacialAge/BNav_EC2/DepthDuration/v2_depth_duration_MTurk/v2_DepthDuration_HTML.html#96,96,2048,1152,2048,1152,8-22-2022,7-1-8,91,depth_duration_stimuli/000758_2014-06-08_22-05-08_260595134347_rgbf000085-resize_0/000758_2014-06-08_22-05-08_260595134347_rgbf000085-resize_0-target.png,1000,3.3810000000000002,7.0,2445,1000,feet,jsons/v1_VE1000_randls_13.json,520014,808519,33,Man
91,391366,DepthScenes,duration_manipulation_targetAtFixation,jsons/v1_VE1000_randls_13.json,http://54.235.29.9/FacialAge/BNav_EC2/DepthDuration/v2_depth_duration_MTurk/v2_DepthDuration_HTML.html#96,96,2048,1152,2048,1152,8-22-2022,7-1-8,92,depth_duration_stimuli/000854_2014-06-09_19-43-13_260595134347_rgbf000066-resize_0/000854_2014-06-09_19-43-13_260595134347_rgbf000066-resize_0-target.png,1000,3.068,2.5,2971,1001,feet,jsons/v1_VE1000_randls_13.json,520014,808519,33,Man
92,391366,DepthScenes,duration_manipulation_targetAtFixation,jsons/v1_VE1000_randls_13.json,http://54.235.29.9/FacialAge/BNav_EC2/DepthDuration/v2_depth_duration_MTurk/v2_DepthDuration_HTML.html#96,96,2048,1152,2048,1152,8-22-2022,7-1-8,93,depth_duration_stimuli/001164_2014-06-17_15-35-46_260595134347_rgbf000085-resize_3/001164_2014-06-17_15-35-46_260595134347_rgbf000085-resize_3-target.png,1000,2.354,3.0,2108,1002,feet,jsons/v1_VE1000_randls_13.json,520014,808519,33,Man
93,391366,DepthScenes,duration_manipulation_targetAtFixation,jsons/v1_VE1000_randls_13.json,http://54.235.29.9/FacialAge/BNav_EC2/DepthDuration/v2_depth_duration_MTurk/v2_DepthDuration_HTML.html#96,96,2048,1152,2048,1152,8-22-2022,7-1-8,94,depth_duration_stimuli/001136_2014-06-17_15-19-41_260595134347_rgbf000076-resize_3/001136_2014-06-17_15-19-41_260595134347_rgbf000076-resize_3-target.png,1000,1.8655,3.0,2442,1002,feet,jsons/v1_VE1000_randls_13.json,520014,808519,33,Man
94,391366,DepthScenes,duration_manipulation_targetAtFixation,jsons/v1_VE1000_randls_13.json,http://54.235.29.9/FacialAge/BNav_EC2/DepthDuration/v2_depth_duration_MTurk/v2_DepthDuration_HTML.html#96,96,2048,1152,2048,1152,8-22-2022,7-1-8,95,depth_duration_stimuli/002153_2014-06-25_21-27-18_260595134347_rgbf000038-resize_5/002153_2014-06-25_21-27-18_260595134347_rgbf000038-resize_5-target.png,1000,2.505,3.5,2923,1000,feet,jsons/v1_VE1000_randls_13.json,520014,808519,33,Man
95,391366,DepthScenes,duration_manipulation_targetAtFixation,jsons/v1_VE1000_randls_13.json,http://54.235.29.9/FacialAge/BNav_EC2/DepthDuration/v2_depth_duration_MTurk/v2_DepthDuration_HTML.html#96,96,2048,1152,2048,1152,8-22-2022,7-1-8,96,depth_duration_stimuli/002660_2014-06-13_15-44-18_094959634447_rgbf001878-resize_2/002660_2014-06-13_15-44-18_094959634447_rgbf001878-resize_2-target.png,1000,3.576,4.0,2058,999,feet,jsons/v1_VE1000_randls_13.json,520014,808519,33,Man
96,391366,DepthScenes,duration_manipulation_targetAtFixation,jsons/v1_VE1000_randls_13.json,http://54.235.29.9/FacialAge/BNav_EC2/DepthDuration/v2_depth_duration_MTurk/v2_DepthDuration_HTML.html#96,96,2048,1152,2048,1152,8-22-2022,7-1-8,97,depth_duration_stimuli/000739_2014-06-08_18-45-58_260595134347_rgbf000068-resize_1/000739_2014-06-08_18-45-58_260595134347_rgbf000068-resize_1-target.png,1000,3.534,6.0,2546,999,feet,jsons/v1_VE1000_randls_13.json,520014,808519,33,Man
97,391366,DepthScenes,duration_manipulation_targetAtFixation,jsons/v1_VE1000_randls_13.json,http://54.235.29.9/FacialAge/BNav_EC2/DepthDuration/v2_depth_duration_MTurk/v2_DepthDuration_HTML.html#96,96,2048,1152,2048,1152,8-22-2022,7-1-8,98,depth_duration_stimuli/000734_2014-06-08_17-39-11_260595134347_rgbf000128-resize_2/000734_2014-06-08_17-39-11_260595134347_rgbf000128-resize_2-target.png,1000,4.098,5.5,2731,1001,feet,jsons/v1_VE1000_randls_13.json,520014,808519,33,Man
98,391366,DepthScenes,duration_manipulation_targetAtFixation,jsons/v1_VE1000_randls_13.json,http://54.235.29.9/FacialAge/BNav_EC2/DepthDuration/v2_depth_duration_MTurk/v2_DepthDuration_HTML.html#96,96,2048,1152,2048,1152,8-22-2022,7-1-8,99,depth_duration_stimuli/001540_2014-06-20_17-01-05_260595134347_rgbf000086-resize_2/001540_2014-06-20_17-01-05_260595134347_rgbf000086-resize-original.jpg,1000,1.459,0.0,2095,996,feet,jsons/v1_VE1000_randls_13.json,520014,808519,33,Man
99,391366,DepthScenes,duration_manipulation_targetAtFixation,jsons/v1_VE1000_randls_13.json,http://54.235.29.9/FacialAge/BNav_EC2/DepthDuration/v2_depth_duration_MTurk/v2_DepthDuration_HTML.html#96,96,2048,1152,2048,1152,8-22-2022,7-1-8,100,depth_duration_stimuli/000522_2014-06-08_13-35-06_260595134347_rgbf000244-resize_1/000522_2014-06-08_13-35-06_260595134347_rgbf000244-resize_1-target.png,1000,2.3715,1.0,2311,996,feet,jsons/v1_VE1000_randls_13.json,520014,808519,33,Man
100,391366,DepthScenes,duration_manipulation_targetAtFixation,jsons/v1_VE1000_randls_13.json,http://54.235.29.9/FacialAge/BNav_EC2/DepthDuration/v2_depth_duration_MTurk/v2_DepthDuration_HTML.html#96,96,2048,1152,2048,1152,8-22-2022,7-1-8,101,depth_duration_stimuli/002949_2014-06-26_15-57-42_094959634447_rgbf000079-resize_1/002949_2014-06-26_15-57-42_094959634447_rgbf000079-resize_1-target.png,1000,1.8915,1.5,3058,1000,feet,jsons/v1_VE1000_randls_13.json,520014,808519,33,Man
101,391366,DepthScenes,duration_manipulation_targetAtFixation,jsons/v1_VE1000_randls_13.json,http://54.235.29.9/FacialAge/BNav_EC2/DepthDuration/v2_depth_duration_MTurk/v2_DepthDuration_HTML.html#96,96,2048,1152,2048,1152,8-22-2022,7-1-8,102,depth_duration_stimuli/002989_2014-06-15_12-25-03_094959634447_rgbf000150-resize_3/002989_2014-06-15_12-25-03_094959634447_rgbf000150-resize_3-target.png,1000,4.1975,8.5,2810,1000,feet,jsons/v1_VE1000_randls_13.json,520014,808519,33,Man
102,391366,DepthScenes,duration_manipulation_targetAtFixation,jsons/v1_VE1000_randls_13.json,http://54.235.29.9/FacialAge/BNav_EC2/DepthDuration/v2_depth_duration_MTurk/v2_DepthDuration_HTML.html#96,96,2048,1152,2048,1152,8-22-2022,7-1-8,103,depth_duration_stimuli/000866_2014-06-09_20-45-42_260595134347_rgbf000139-resize_1/000866_2014-06-09_20-45-42_260595134347_rgbf000139-resize_1-target.png,1000,3.2155,3.5,3066,1001,feet,jsons/v1_VE1000_randls_13.json,520014,808519,33,Man
103,391366,DepthScenes,duration_manipulation_targetAtFixation,jsons/v1_VE1000_randls_13.json,http://54.235.29.9/FacialAge/BNav_EC2/DepthDuration/v2_depth_duration_MTurk/v2_DepthDuration_HTML.html#96,96,2048,1152,2048,1152,8-22-2022,7-1-8,104,depth_duration_stimuli/001555_2014-06-20_17-12-10_260595134347_rgbf000065-resize_4/001555_2014-06-20_17-12-10_260595134347_rgbf000065-resize_4-target.png,1000,1.633,1.0,2034,1000,feet,jsons/v1_VE1000_randls_13.json,520014,808519,33,Man
104,391366,DepthScenes,duration_manipulation_targetAtFixation,jsons/v1_VE1000_randls_13.json,http://54.235.29.9/FacialAge/BNav_EC2/DepthDuration/v2_depth_duration_MTurk/v2_DepthDuration_HTML.html#96,96,2048,1152,2048,1152,8-22-2022,7-1-8,105,depth_duration_stimuli/000103_2014-05-14_22-01-17_260595134347_rgbf000152-resize_5/000103_2014-05-14_22-01-17_260595134347_rgbf000152-resize_5-target.png,1000,1.993,4.5,2634,1000,feet,jsons/v1_VE1000_randls_13.json,520014,808519,33,Man
105,391366,DepthScenes,duration_manipulation_targetAtFixation,jsons/v1_VE1000_randls_13.json,http://54.235.29.9/FacialAge/BNav_EC2/DepthDuration/v2_depth_duration_MTurk/v2_DepthDuration_HTML.html#96,96,2048,1152,2048,1152,8-22-2022,7-1-8,106,depth_duration_stimuli/003534_2014-05-22_15-06-10_094959634447_rgbf000102-resize_4/003534_2014-05-22_15-06-10_094959634447_rgbf000102-resize_4-target.png,1000,1.426,1.0,2018,1004,feet,jsons/v1_VE1000_randls_13.json,520014,808519,33,Man
106,391366,DepthScenes,duration_manipulation_targetAtFixation,jsons/v1_VE1000_randls_13.json,http://54.235.29.9/FacialAge/BNav_EC2/DepthDuration/v2_depth_duration_MTurk/v2_DepthDuration_HTML.html#96,96,2048,1152,2048,1152,8-22-2022,7-1-8,107,depth_duration_stimuli/002637_2014-06-24_14-51-13_094959634447_rgbf000066-resize_4/002637_2014-06-24_14-51-13_094959634447_rgbf000066-resize_4-target.png,1000,1.9955,4.0,2904,1001,feet,jsons/v1_VE1000_randls_13.json,520014,808519,33,Man
107,391366,DepthScenes,duration_manipulation_targetAtFixation,jsons/v1_VE1000_randls_13.json,http://54.235.29.9/FacialAge/BNav_EC2/DepthDuration/v2_depth_duration_MTurk/v2_DepthDuration_HTML.html#96,96,2048,1152,2048,1152,8-22-2022,7-1-8,108,depth_duration_stimuli/001016_2014-06-09_16-16-10_260595134347_rgbf000112-resize_5/001016_2014-06-09_16-16-10_260595134347_rgbf000112-resize_5-target.png,1000,1.6565,3.0,2275,1000,feet,jsons/v1_VE1000_randls_13.json,520014,808519,33,Man
108,391366,DepthScenes,duration_manipulation_targetAtFixation,jsons/v1_VE1000_randls_13.json,http://54.235.29.9/FacialAge/BNav_EC2/DepthDuration/v2_depth_duration_MTurk/v2_DepthDuration_HTML.html#96,96,2048,1152,2048,1152,8-22-2022,7-1-8,109,depth_duration_stimuli/002340_2014-06-28_20-05-46_260595134347_rgbf000113-resize_0/002340_2014-06-28_20-05-46_260595134347_rgbf000113-resize_0-target.png,1000,2.4735,6.6,3786,1004,feet,jsons/v1_VE1000_randls_13.json,520014,808519,33,Man
109,391366,DepthScenes,duration_manipulation_targetAtFixation,jsons/v1_VE1000_randls_13.json,http://54.235.29.9/FacialAge/BNav_EC2/DepthDuration/v2_depth_duration_MTurk/v2_DepthDuration_HTML.html#96,96,2048,1152,2048,1152,8-22-2022,7-1-8,110,depth_duration_stimuli/000773_2014-06-08_22-24-54_260595134347_rgbf000093-resize_1/000773_2014-06-08_22-24-54_260595134347_rgbf000093-resize_1-target.png,1000,4.973,9.0,2274,1004,feet,jsons/v1_VE1000_randls_13.json,520014,808519,33,Man
110,391366,DepthScenes,duration_manipulation_targetAtFixation,jsons/v1_VE1000_randls_13.json,http://54.235.29.9/FacialAge/BNav_EC2/DepthDuration/v2_depth_duration_MTurk/v2_DepthDuration_HTML.html#96,96,2048,1152,2048,1152,8-22-2022,7-1-8,111,depth_duration_stimuli/002414_2014-06-28_20-24-58_260595134347_rgbf000067-resize_4/002414_2014-06-28_20-24-58_260595134347_rgbf000067-resize_4-target.png,1000,4.363,10.0,2818,1003,feet,jsons/v1_VE1000_randls_13.json,520014,808519,33,Man
111,391366,DepthScenes,duration_manipulation_targetAtFixation,jsons/v1_VE1000_randls_13.json,http://54.235.29.9/FacialAge/BNav_EC2/DepthDuration/v2_depth_duration_MTurk/v2_DepthDuration_HTML.html#96,96,2048,1152,2048,1152,8-22-2022,7-1-8,112,depth_duration_stimuli/001059_2014-06-08_21-53-27_260595134347_rgbf000061-resize_4/001059_2014-06-08_21-53-27_260595134347_rgbf000061-resize_4-target.png,1000,2.4185,6.0,2131,1000,feet,jsons/v1_VE1000_randls_13.json,520014,808519,33,Man
112,391366,DepthScenes,duration_manipulation_targetAtFixation,jsons/v1_VE1000_randls_13.json,http://54.235.29.9/FacialAge/BNav_EC2/DepthDuration/v2_depth_duration_MTurk/v2_DepthDuration_HTML.html#96,96,2048,1152,2048,1152,8-22-2022,7-1-8,113,depth_duration_stimuli/001032_2014-06-08_13-23-17_260595134347_rgbf000021-resize_3/001032_2014-06-08_13-23-17_260595134347_rgbf000021-resize_3-target.png,1000,3.2725,5.0,2163,999,feet,jsons/v1_VE1000_randls_13.json,520014,808519,33,Man
113,391366,DepthScenes,duration_manipulation_targetAtFixation,jsons/v1_VE1000_randls_13.json,http://54.235.29.9/FacialAge/BNav_EC2/DepthDuration/v2_depth_duration_MTurk/v2_DepthDuration_HTML.html#96,96,2048,1152,2048,1152,8-22-2022,7-1-8,114,depth_duration_stimuli/003292_2014-05-14_21-53-49_094959634447_rgbf000100-resize_2/003292_2014-05-14_21-53-49_094959634447_rgbf000100-resize_2-target.png,1000,3.4815,5.0,2543,1001,feet,jsons/v1_VE1000_randls_13.json,520014,808519,33,Man
114,391366,DepthScenes,duration_manipulation_targetAtFixation,jsons/v1_VE1000_randls_13.json,http://54.235.29.9/FacialAge/BNav_EC2/DepthDuration/v2_depth_duration_MTurk/v2_DepthDuration_HTML.html#96,96,2048,1152,2048,1152,8-22-2022,7-1-8,115,depth_duration_stimuli/002639_2014-06-24_14-51-37_094959634447_rgbf000074-resize_4/002639_2014-06-24_14-51-37_094959634447_rgbf000074-resize_4-target.png,1000,4.0375,7.0,2171,999,feet,jsons/v1_VE1000_randls_13.json,520014,808519,33,Man
115,391366,DepthScenes,duration_manipulation_targetAtFixation,jsons/v1_VE1000_randls_13.json,http://54.235.29.9/FacialAge/BNav_EC2/DepthDuration/v2_depth_duration_MTurk/v2_DepthDuration_HTML.html#96,96,2048,1152,2048,1152,8-22-2022,7-1-8,116,depth_duration_stimuli/001170_2014-06-17_15-43-44_260595134347_rgbf000096-resize_6/001170_2014-06-17_15-43-44_260595134347_rgbf000096-resize-original.jpg,1000,1.1909999999999998,0.0,2090,1000,feet,jsons/v1_VE1000_randls_13.json,520014,808519,33,Man
116,391366,DepthScenes,duration_manipulation_targetAtFixation,jsons/v1_VE1000_randls_13.json,http://54.235.29.9/FacialAge/BNav_EC2/DepthDuration/v2_depth_duration_MTurk/v2_DepthDuration_HTML.html#96,96,2048,1152,2048,1152,8-22-2022,7-1-8,117,depth_duration_stimuli/001570_2014-06-20_17-21-09_260595134347_rgbf000135-resize_4/001570_2014-06-20_17-21-09_260595134347_rgbf000135-resize_4-target.png,1000,4.467,11.0,3098,1000,feet,jsons/v1_VE1000_randls_13.json,520014,808519,33,Man
117,391366,DepthScenes,duration_manipulation_targetAtFixation,jsons/v1_VE1000_randls_13.json,http://54.235.29.9/FacialAge/BNav_EC2/DepthDuration/v2_depth_duration_MTurk/v2_DepthDuration_HTML.html#96,96,2048,1152,2048,1152,8-22-2022,7-1-8,118,depth_duration_stimuli/001392_2014-06-19_16-07-59_260595134347_rgbf000046-resize_1/001392_2014-06-19_16-07-59_260595134347_rgbf000046-resize_1-target.png,1000,4.135,10.0,2399,1000,feet,jsons/v1_VE1000_randls_13.json,520014,808519,33,Man
118,391366,DepthScenes,duration_manipulation_targetAtFixation,jsons/v1_VE1000_randls_13.json,http://54.235.29.9/FacialAge/BNav_EC2/DepthDuration/v2_depth_duration_MTurk/v2_DepthDuration_HTML.html#96,96,2048,1152,2048,1152,8-22-2022,7-1-8,119,depth_duration_stimuli/000447_2014-06-08_16-15-46_260595134347_rgbf000130-resize_1/000447_2014-06-08_16-15-46_260595134347_rgbf000130-resize_1-target.png,1000,4.479,13.5,2842,999,feet,jsons/v1_VE1000_randls_13.json,520014,808519,33,Man
119,391366,DepthScenes,duration_manipulation_targetAtFixation,jsons/v1_VE1000_randls_13.json,http://54.235.29.9/FacialAge/BNav_EC2/DepthDuration/v2_depth_duration_MTurk/v2_DepthDuration_HTML.html#96,96,2048,1152,2048,1152,8-22-2022,7-1-8,120,depth_duration_stimuli/001447_2014-06-19_17-00-32_260595134347_rgbf000082-resize_5/001447_2014-06-19_17-00-32_260595134347_rgbf000082-resize_5-target.png,1000,4.13775,6.0,2458,1000,feet,jsons/v1_VE1000_randls_13.json,520014,808519,33,Man
120,391366,DepthScenes,duration_manipulation_targetAtFixation,jsons/v1_VE1000_randls_13.json,http://54.235.29.9/FacialAge/BNav_EC2/DepthDuration/v2_depth_duration_MTurk/v2_DepthDuration_HTML.html#96,96,2048,1152,2048,1152,8-22-2022,7-1-8,121,depth_duration_stimuli/001066_2014-06-08_22-03-20_260595134347_rgbf000066-resize_4/001066_2014-06-08_22-03-20_260595134347_rgbf000066-resize_4-target.png,1000,4.2330000000000005,10.0,4434,1000,feet,jsons/v1_VE1000_randls_13.json,520014,808519,33,Man
121,391366,DepthScenes,duration_manipulation_targetAtFixation,jsons/v1_VE1000_randls_13.json,http://54.235.29.9/FacialAge/BNav_EC2/DepthDuration/v2_depth_duration_MTurk/v2_DepthDuration_HTML.html#96,96,2048,1152,2048,1152,8-22-2022,7-1-8,122,depth_duration_stimuli/000742_2014-06-08_18-48-09_260595134347_rgbf000164-resize_4/000742_2014-06-08_18-48-09_260595134347_rgbf000164-resize_4-target.png,1000,4.632,10.0,2538,1000,feet,jsons/v1_VE1000_randls_13.json,520014,808519,33,Man
122,391366,DepthScenes,duration_manipulation_targetAtFixation,jsons/v1_VE1000_randls_13.json,http://54.235.29.9/FacialAge/BNav_EC2/DepthDuration/v2_depth_duration_MTurk/v2_DepthDuration_HTML.html#96,96,2048,1152,2048,1152,8-22-2022,7-1-8,123,depth_duration_stimuli/002630_2014-06-24_14-47-50_094959634447_rgbf000055-resize_1/002630_2014-06-24_14-47-50_094959634447_rgbf000055-resize_1-target.png,1000,3.0095,8.0,2226,1004,feet,jsons/v1_VE1000_randls_13.json,520014,808519,33,Man
123,391366,DepthScenes,duration_manipulation_targetAtFixation,jsons/v1_VE1000_randls_13.json,http://54.235.29.9/FacialAge/BNav_EC2/DepthDuration/v2_depth_duration_MTurk/v2_DepthDuration_HTML.html#96,96,2048,1152,2048,1152,8-22-2022,7-1-8,124,depth_duration_stimuli/002758_2014-06-22_19-11-20_094959634447_rgbf000128-resize_1/002758_2014-06-22_19-11-20_094959634447_rgbf000128-resize_1-target.png,1000,2.555,3.5,2583,996,feet,jsons/v1_VE1000_randls_13.json,520014,808519,33,Man
124,391366,DepthScenes,duration_manipulation_targetAtFixation,jsons/v1_VE1000_randls_13.json,http://54.235.29.9/FacialAge/BNav_EC2/DepthDuration/v2_depth_duration_MTurk/v2_DepthDuration_HTML.html#96,96,2048,1152,2048,1152,8-22-2022,7-1-8,125,depth_duration_stimuli/002549_2014-06-24_13-41-39_094959634447_rgbf000022-resize_3/002549_2014-06-24_13-41-39_094959634447_rgbf000022-resize_3-target.png,1000,1.476,2.0,2536,1000,feet,jsons/v1_VE1000_randls_13.json,520014,808519,33,Man
125,391366,DepthScenes,duration_manipulation_targetAtFixation,jsons/v1_VE1000_randls_13.json,http://54.235.29.9/FacialAge/BNav_EC2/DepthDuration/v2_depth_duration_MTurk/v2_DepthDuration_HTML.html#96,96,2048,1152,2048,1152,8-22-2022,7-1-8,126,depth_duration_stimuli/002750_2014-06-22_19-08-03_094959634447_rgbf000094-resize_4/002750_2014-06-22_19-08-03_094959634447_rgbf000094-resize_4-target.png,1000,2.354,4.0,5891,998,feet,jsons/v1_VE1000_randls_13.json,520014,808519,33,Man
126,391366,DepthScenes,duration_manipulation_targetAtFixation,jsons/v1_VE1000_randls_13.json,http://54.235.29.9/FacialAge/BNav_EC2/DepthDuration/v2_depth_duration_MTurk/v2_DepthDuration_HTML.html#96,96,2048,1152,2048,1152,8-22-2022,7-1-8,127,depth_duration_stimuli/001199_2014-06-17_16-03-48_260595134347_rgbf000077-resize_0/001199_2014-06-17_16-03-48_260595134347_rgbf000077-resize_0-target.png,1000,3.4375,14.0,3326,1001,feet,jsons/v1_VE1000_randls_13.json,520014,808519,33,Man
127,391366,DepthScenes,duration_manipulation_targetAtFixation,jsons/v1_VE1000_randls_13.json,http://54.235.29.9/FacialAge/BNav_EC2/DepthDuration/v2_depth_duration_MTurk/v2_DepthDuration_HTML.html#96,96,2048,1152,2048,1152,8-22-2022,7-1-8,128,depth_duration_stimuli/000502_2014-06-08_23-02-32_260595134347_rgbf000063-resize_4/000502_2014-06-08_23-02-32_260595134347_rgbf000063-resize_4-target.png,1000,2.431,5.0,2066,999,feet,jsons/v1_VE1000_randls_13.json,520014,808519,33,Man
128,391366,DepthScenes,duration_manipulation_targetAtFixation,jsons/v1_VE1000_randls_13.json,http://54.235.29.9/FacialAge/BNav_EC2/DepthDuration/v2_depth_duration_MTurk/v2_DepthDuration_HTML.html#96,96,2048,1152,2048,1152,8-22-2022,7-1-8,129,depth_duration_stimuli/000486_2014-06-09_20-47-20_260595134347_rgbf000143-resize_2/000486_2014-06-09_20-47-20_260595134347_rgbf000143-resize_2-target.png,1000,4.8325,11.5,3044,1000,feet,jsons/v1_VE1000_randls_13.json,520014,808519,33,Man
129,391366,DepthScenes,duration_manipulation_targetAtFixation,jsons/v1_VE1000_randls_13.json,http://54.235.29.9/FacialAge/BNav_EC2/DepthDuration/v2_depth_duration_MTurk/v2_DepthDuration_HTML.html#96,96,2048,1152,2048,1152,8-22-2022,7-1-8,130,depth_duration_stimuli/003083_2014-06-15_15-21-03_094959634447_rgbf000063-resize_1/003083_2014-06-15_15-21-03_094959634447_rgbf000063-resize_1-target.png,1000,4.1405,9.0,2403,999,feet,jsons/v1_VE1000_randls_13.json,520014,808519,33,Man
130,391366,DepthScenes,duration_manipulation_targetAtFixation,jsons/v1_VE1000_randls_13.json,http://54.235.29.9/FacialAge/BNav_EC2/DepthDuration/v2_depth_duration_MTurk/v2_DepthDuration_HTML.html#96,96,2048,1152,2048,1152,8-22-2022,7-1-8,131,depth_duration_stimuli/001806_2014-06-26_20-50-20_260595134347_rgbf000091-resize_1/001806_2014-06-26_20-50-20_260595134347_rgbf000091-resize_1-target.png,1000,2.7305,3.0,2751,1000,feet,jsons/v1_VE1000_randls_13.json,520014,808519,33,Man
131,391366,DepthScenes,duration_manipulation_targetAtFixation,jsons/v1_VE1000_randls_13.json,http://54.235.29.9/FacialAge/BNav_EC2/DepthDuration/v2_depth_duration_MTurk/v2_DepthDuration_HTML.html#96,96,2048,1152,2048,1152,8-22-2022,7-1-8,132,depth_duration_stimuli/001617_2014-06-20_11-35-32_260595134347_rgbf000066-resize_1/001617_2014-06-20_11-35-32_260595134347_rgbf000066-resize_1-target.png,1000,3.7910000000000004,10.0,2546,1001,feet,jsons/v1_VE1000_randls_13.json,520014,808519,33,Man
132,391366,DepthScenes,duration_manipulation_targetAtFixation,jsons/v1_VE1000_randls_13.json,http://54.235.29.9/FacialAge/BNav_EC2/DepthDuration/v2_depth_duration_MTurk/v2_DepthDuration_HTML.html#96,96,2048,1152,2048,1152,8-22-2022,7-1-8,133,depth_duration_stimuli/000493_2014-06-09_21-01-18_260595134347_rgbf000196-resize_3/000493_2014-06-09_21-01-18_260595134347_rgbf000196-resize_3-target.png,1000,3.44,8.0,2539,1002,feet,jsons/v1_VE1000_randls_13.json,520014,808519,33,Man
133,391366,DepthScenes,duration_manipulation_targetAtFixation,jsons/v1_VE1000_randls_13.json,http://54.235.29.9/FacialAge/BNav_EC2/DepthDuration/v2_depth_duration_MTurk/v2_DepthDuration_HTML.html#96,96,2048,1152,2048,1152,8-22-2022,7-1-8,134,depth_duration_stimuli/000191_2014-05-12_17-07-38_260595134347_rgbf000199-resize_0/000191_2014-05-12_17-07-38_260595134347_rgbf000199-resize_0-target.png,1000,3.7995,12.0,2473,1000,feet,jsons/v1_VE1000_randls_13.json,520014,808519,33,Man
134,391366,DepthScenes,duration_manipulation_targetAtFixation,jsons/v1_VE1000_randls_13.json,http://54.235.29.9/FacialAge/BNav_EC2/DepthDuration/v2_depth_duration_MTurk/v2_DepthDuration_HTML.html#96,96,2048,1152,2048,1152,8-22-2022,7-1-8,135,depth_duration_stimuli/002072_2014-06-24_21-48-06_260595134347_rgbf000115-resize_0/002072_2014-06-24_21-48-06_260595134347_rgbf000115-resize-original.jpg,1000,4.702,0.0,2555,999,feet,jsons/v1_VE1000_randls_13.json,520014,808519,33,Man
135,391366,DepthScenes,duration_manipulation_targetAtFixation,jsons/v1_VE1000_randls_13.json,http://54.235.29.9/FacialAge/BNav_EC2/DepthDuration/v2_depth_duration_MTurk/v2_DepthDuration_HTML.html#96,96,2048,1152,2048,1152,8-22-2022,7-1-8,136,depth_duration_stimuli/000506_2014-06-08_23-21-00_260595134347_rgbf000070-resize_7/000506_2014-06-08_23-21-00_260595134347_rgbf000070-resize_7-target.png,1000,4.0585,8.0,2835,1003,feet,jsons/v1_VE1000_randls_13.json,520014,808519,33,Man
136,391366,DepthScenes,duration_manipulation_targetAtFixation,jsons/v1_VE1000_randls_13.json,http://54.235.29.9/FacialAge/BNav_EC2/DepthDuration/v2_depth_duration_MTurk/v2_DepthDuration_HTML.html#96,96,2048,1152,2048,1152,8-22-2022,7-1-8,137,depth_duration_stimuli/003079_2014-06-15_15-18-20_094959634447_rgbf000152-resize_8/003079_2014-06-15_15-18-20_094959634447_rgbf000152-resize_8-target.png,1000,2.8775,7.0,2385,998,feet,jsons/v1_VE1000_randls_13.json,520014,808519,33,Man
137,391366,DepthScenes,duration_manipulation_targetAtFixation,jsons/v1_VE1000_randls_13.json,http://54.235.29.9/FacialAge/BNav_EC2/DepthDuration/v2_depth_duration_MTurk/v2_DepthDuration_HTML.html#96,96,2048,1152,2048,1152,8-22-2022,7-1-8,138,depth_duration_stimuli/001449_2014-06-19_17-01-27_260595134347_rgbf000116-resize_2/001449_2014-06-19_17-01-27_260595134347_rgbf000116-resize_2-target.png,1000,3.452,4.0,2330,999,feet,jsons/v1_VE1000_randls_13.json,520014,808519,33,Man
138,391366,DepthScenes,duration_manipulation_targetAtFixation,jsons/v1_VE1000_randls_13.json,http://54.235.29.9/FacialAge/BNav_EC2/DepthDuration/v2_depth_duration_MTurk/v2_DepthDuration_HTML.html#96,96,2048,1152,2048,1152,8-22-2022,7-1-8,139,depth_duration_stimuli/001450_2014-06-19_17-02-03_260595134347_rgbf000203-resize_4/001450_2014-06-19_17-02-03_260595134347_rgbf000203-resize_4-target.png,1000,4.0106666666667,8.0,2311,996,feet,jsons/v1_VE1000_randls_13.json,520014,808519,33,Man
139,391366,DepthScenes,duration_manipulation_targetAtFixation,jsons/v1_VE1000_randls_13.json,http://54.235.29.9/FacialAge/BNav_EC2/DepthDuration/v2_depth_duration_MTurk/v2_DepthDuration_HTML.html#96,96,2048,1152,2048,1152,8-22-2022,7-1-8,140,depth_duration_stimuli/002600_2014-06-24_14-27-04_094959634447_rgbf000074-resize_2/002600_2014-06-24_14-27-04_094959634447_rgbf000074-resize_2-target.png,1000,2.7575,6.0,2415,997,feet,jsons/v1_VE1000_randls_13.json,520014,808519,33,Man
140,391366,DepthScenes,duration_manipulation_targetAtFixation,jsons/v1_VE1000_randls_13.json,http://54.235.29.9/FacialAge/BNav_EC2/DepthDuration/v2_depth_duration_MTurk/v2_DepthDuration_HTML.html#96,96,2048,1152,2048,1152,8-22-2022,7-1-8,141,depth_duration_stimuli/003228_2014-05-14_13-42-35_094959634447_rgbf000101-resize_1/003228_2014-05-14_13-42-35_094959634447_rgbf000101-resize_1-target.png,1000,1.9680000000000002,1.5,2847,1000,feet,jsons/v1_VE1000_randls_13.json,520014,808519,33,Man
141,391366,DepthScenes,duration_manipulation_targetAtFixation,jsons/v1_VE1000_randls_13.json,http://54.235.29.9/FacialAge/BNav_EC2/DepthDuration/v2_depth_duration_MTurk/v2_DepthDuration_HTML.html#96,96,2048,1152,2048,1152,8-22-2022,7-1-8,142,depth_duration_stimuli/000368_2014-06-09_15-53-01_260595134347_rgbf000155-resize_2/000368_2014-06-09_15-53-01_260595134347_rgbf000155-resize_2-target.png,1000,2.4859999999999998,2.0,2770,1000,feet,jsons/v1_VE1000_randls_13.json,520014,808519,33,Man
142,391366,DepthScenes,duration_manipulation_targetAtFixation,jsons/v1_VE1000_randls_13.json,http://54.235.29.9/FacialAge/BNav_EC2/DepthDuration/v2_depth_duration_MTurk/v2_DepthDuration_HTML.html#96,96,2048,1152,2048,1152,8-22-2022,7-1-8,143,depth_duration_stimuli/002678_2014-06-13_16-15-32_094959634447_rgbf000151-resize_6/002678_2014-06-13_16-15-32_094959634447_rgbf000151-resize_6-target.png,1000,2.1830000000000003,5.5,2859,1000,feet,jsons/v1_VE1000_randls_13.json,520014,808519,33,Man
143,391366,DepthScenes,duration_manipulation_targetAtFixation,jsons/v1_VE1000_randls_13.json,http://54.235.29.9/FacialAge/BNav_EC2/DepthDuration/v2_depth_duration_MTurk/v2_DepthDuration_HTML.html#96,96,2048,1152,2048,1152,8-22-2022,7-1-8,144,depth_duration_stimuli/002763_2014-06-22_19-13-10_094959634447_rgbf000075-resize_4/002763_2014-06-22_19-13-10_094959634447_rgbf000075-resize_4-target.png,1000,1.68375,2.8,3610,1004,feet,jsons/v1_VE1000_randls_13.json,520014,808519,33,Man
144,391366,DepthScenes,duration_manipulation_targetAtFixation,jsons/v1_VE1000_randls_13.json,http://54.235.29.9/FacialAge/BNav_EC2/DepthDuration/v2_depth_duration_MTurk/v2_DepthDuration_HTML.html#96,96,2048,1152,2048,1152,8-22-2022,7-1-8,145,depth_duration_stimuli/002209_2014-06-28_18-36-10_260595134347_rgbf000051-resize_1/002209_2014-06-28_18-36-10_260595134347_rgbf000051-resize_1-target.png,1000,2.057,2.0,2159,1000,feet,jsons/v1_VE1000_randls_13.json,520014,808519,33,Man
145,391366,DepthScenes,duration_manipulation_targetAtFixation,jsons/v1_VE1000_randls_13.json,http://54.235.29.9/FacialAge/BNav_EC2/DepthDuration/v2_depth_duration_MTurk/v2_DepthDuration_HTML.html#96,96,2048,1152,2048,1152,8-22-2022,7-1-8,146,depth_duration_stimuli/001498_2014-06-19_17-45-14_260595134347_rgbf000129-resize_4/001498_2014-06-19_17-45-14_260595134347_rgbf000129-resize-original.jpg,1000,1.4075,0.0,2135,997,feet,jsons/v1_VE1000_randls_13.json,520014,808519,33,Man
146,391366,DepthScenes,duration_manipulation_targetAtFixation,jsons/v1_VE1000_randls_13.json,http://54.235.29.9/FacialAge/BNav_EC2/DepthDuration/v2_depth_duration_MTurk/v2_DepthDuration_HTML.html#96,96,2048,1152,2048,1152,8-22-2022,7-1-8,147,depth_duration_stimuli/000009_2014-05-26_14-32-05_260595134347_rgbf000034-resize_3/000009_2014-05-26_14-32-05_260595134347_rgbf000034-resize_3-target.png,1000,3.8715,12.0,2714,1003,feet,jsons/v1_VE1000_randls_13.json,520014,808519,33,Man
147,391366,DepthScenes,duration_manipulation_targetAtFixation,jsons/v1_VE1000_randls_13.json,http://54.235.29.9/FacialAge/BNav_EC2/DepthDuration/v2_depth_duration_MTurk/v2_DepthDuration_HTML.html#96,96,2048,1152,2048,1152,8-22-2022,7-1-8,148,depth_duration_stimuli/001828_2014-06-26_21-40-03_260595134347_rgbf000024-resize_0/001828_2014-06-26_21-40-03_260595134347_rgbf000024-resize_0-target.png,1000,4.8260000000000005,9.0,2234,1000,feet,jsons/v1_VE1000_randls_13.json,520014,808519,33,Man
148,391366,DepthScenes,duration_manipulation_targetAtFixation,jsons/v1_VE1000_randls_13.json,http://54.235.29.9/FacialAge/BNav_EC2/DepthDuration/v2_depth_duration_MTurk/v2_DepthDuration_HTML.html#96,96,2048,1152,2048,1152,8-22-2022,7-1-8,149,depth_duration_stimuli/000906_2014-06-08_13-35-43_260595134347_rgbf000155-resize_1/000906_2014-06-08_13-35-43_260595134347_rgbf000155-resize_1-target.png,1000,2.8489999999999998,7.5,3315,1000,feet,jsons/v1_VE1000_randls_13.json,520014,808519,33,Man
149,391366,DepthScenes,duration_manipulation_targetAtFixation,jsons/v1_VE1000_randls_13.json,http://54.235.29.9/FacialAge/BNav_EC2/DepthDuration/v2_depth_duration_MTurk/v2_DepthDuration_HTML.html#96,96,2048,1152,2048,1152,8-22-2022,7-1-8,150,depth_duration_stimuli/002805_2014-06-22_19-54-03_094959634447_rgbf000079-resize_1/002805_2014-06-22_19-54-03_094959634447_rgbf000079-resize_1-target.png,1000,3.1439999999999997,13.0,3107,1000,feet,jsons/v1_VE1000_randls_13.json,520014,808519,33,Man
150,391366,DepthScenes,duration_manipulation_targetAtFixation,jsons/v1_VE1000_randls_13.json,http://54.235.29.9/FacialAge/BNav_EC2/DepthDuration/v2_depth_duration_MTurk/v2_DepthDuration_HTML.html#96,96,2048,1152,2048,1152,8-22-2022,7-1-8,151,depth_duration_stimuli/001110_2014-06-15_17-25-28_260595134347_rgbf000150-resize_1/001110_2014-06-15_17-25-28_260595134347_rgbf000150-resize_1-target.png,1000,1.7115,4.0,2226,1003,feet,jsons/v1_VE1000_randls_13.json,520014,808519,33,Man
151,391366,DepthScenes,duration_manipulation_targetAtFixation,jsons/v1_VE1000_randls_13.json,http://54.235.29.9/FacialAge/BNav_EC2/DepthDuration/v2_depth_duration_MTurk/v2_DepthDuration_HTML.html#96,96,2048,1152,2048,1152,8-22-2022,7-1-8,152,depth_duration_stimuli/000927_2014-06-09_16-32-30_260595134347_rgbf000123-resize_3/000927_2014-06-09_16-32-30_260595134347_rgbf000123-resize_3-target.png,1000,2.6785,5.5,2843,1000,feet,jsons/v1_VE1000_randls_13.json,520014,808519,33,Man
152,391366,DepthScenes,duration_manipulation_targetAtFixation,jsons/v1_VE1000_randls_13.json,http://54.235.29.9/FacialAge/BNav_EC2/DepthDuration/v2_depth_duration_MTurk/v2_DepthDuration_HTML.html#96,96,2048,1152,2048,1152,8-22-2022,7-1-8,153,depth_duration_stimuli/002570_2014-06-24_13-59-54_094959634447_rgbf000059-resize_0/002570_2014-06-24_13-59-54_094959634447_rgbf000059-resize_0-target.png,1000,4.037,7.0,2351,997,feet,jsons/v1_VE1000_randls_13.json,520014,808519,33,Man
153,391366,DepthScenes,duration_manipulation_targetAtFixation,jsons/v1_VE1000_randls_13.json,http://54.235.29.9/FacialAge/BNav_EC2/DepthDuration/v2_depth_duration_MTurk/v2_DepthDuration_HTML.html#96,96,2048,1152,2048,1152,8-22-2022,7-1-8,154,depth_duration_stimuli/002467_2014-06-28_20-38-07_260595134347_rgbf000026-resize_2/002467_2014-06-28_20-38-07_260595134347_rgbf000026-resize_2-target.png,1000,4.742,12.0,2356,1001,feet,jsons/v1_VE1000_randls_13.json,520014,808519,33,Man
154,391366,DepthScenes,duration_manipulation_targetAtFixation,jsons/v1_VE1000_randls_13.json,http://54.235.29.9/FacialAge/BNav_EC2/DepthDuration/v2_depth_duration_MTurk/v2_DepthDuration_HTML.html#96,96,2048,1152,2048,1152,8-22-2022,7-1-8,155,depth_duration_stimuli/001810_2014-06-26_20-51-35_260595134347_rgbf000040-resize_3/001810_2014-06-26_20-51-35_260595134347_rgbf000040-resize_3-target.png,1000,2.2525,4.0,2282,1004,feet,jsons/v1_VE1000_randls_13.json,520014,808519,33,Man
155,391366,DepthScenes,duration_manipulation_targetAtFixation,jsons/v1_VE1000_randls_13.json,http://54.235.29.9/FacialAge/BNav_EC2/DepthDuration/v2_depth_duration_MTurk/v2_DepthDuration_HTML.html#96,96,2048,1152,2048,1152,8-22-2022,7-1-8,156,depth_duration_stimuli/003010_2014-06-15_12-54-35_094959634447_rgbf000112-resize_0/003010_2014-06-15_12-54-35_094959634447_rgbf000112-resize_0-target.png,1000,3.1185,12.0,2595,1000,feet,jsons/v1_VE1000_randls_13.json,520014,808519,33,Man
156,391366,DepthScenes,duration_manipulation_targetAtFixation,jsons/v1_VE1000_randls_13.json,http://54.235.29.9/FacialAge/BNav_EC2/DepthDuration/v2_depth_duration_MTurk/v2_DepthDuration_HTML.html#96,96,2048,1152,2048,1152,8-22-2022,7-1-8,157,depth_duration_stimuli/002663_2014-06-13_15-50-26_094959634447_rgbf000075-resize_1/002663_2014-06-13_15-50-26_094959634447_rgbf000075-resize_1-target.png,1000,4.7495,15.0,2208,996,feet,jsons/v1_VE1000_randls_13.json,520014,808519,33,Man
157,391366,DepthScenes,duration_manipulation_targetAtFixation,jsons/v1_VE1000_randls_13.json,http://54.235.29.9/FacialAge/BNav_EC2/DepthDuration/v2_depth_duration_MTurk/v2_DepthDuration_HTML.html#96,96,2048,1152,2048,1152,8-22-2022,7-1-8,158,depth_duration_stimuli/000409_2014-06-04_19-23-33_260595134347_rgbf000067-resize_0/000409_2014-06-04_19-23-33_260595134347_rgbf000067-resize_0-target.png,1000,3.7335,8.0,2194,1004,feet,jsons/v1_VE1000_randls_13.json,520014,808519,33,Man
158,391366,DepthScenes,duration_manipulation_targetAtFixation,jsons/v1_VE1000_randls_13.json,http://54.235.29.9/FacialAge/BNav_EC2/DepthDuration/v2_depth_duration_MTurk/v2_DepthDuration_HTML.html#96,96,2048,1152,2048,1152,8-22-2022,7-1-8,159,depth_duration_stimuli/001011_2014-06-08_23-18-54_260595134347_rgbf000044-resize_4/001011_2014-06-08_23-18-54_260595134347_rgbf000044-resize_4-target.png,1000,2.4730000000000003,7.0,2292,1000,feet,jsons/v1_VE1000_randls_13.json,520014,808519,33,Man
159,391366,DepthScenes,duration_manipulation_targetAtFixation,jsons/v1_VE1000_randls_13.json,http://54.235.29.9/FacialAge/BNav_EC2/DepthDuration/v2_depth_duration_MTurk/v2_DepthDuration_HTML.html#96,96,2048,1152,2048,1152,8-22-2022,7-1-8,160,depth_duration_stimuli/002875_2014-06-01_15-19-00_094959634447_rgbf000151-resize_1/002875_2014-06-01_15-19-00_094959634447_rgbf000151-resize_1-target.png,1000,1.9675,3.0,2266,1000,feet,jsons/v1_VE1000_randls_13.json,520014,808519,33,Man
160,391366,DepthScenes,duration_manipulation_targetAtFixation,jsons/v1_VE1000_randls_13.json,http://54.235.29.9/FacialAge/BNav_EC2/DepthDuration/v2_depth_duration_MTurk/v2_DepthDuration_HTML.html#96,96,2048,1152,2048,1152,8-22-2022,7-1-8,161,depth_duration_stimuli/001092_2014-06-15_17-34-58_260595134347_rgbf000171-resize_3/001092_2014-06-15_17-34-58_260595134347_rgbf000171-resize_3-target.png,1000,2.6935,2.0,2023,1001,feet,jsons/v1_VE1000_randls_13.json,520014,808519,33,Man
161,391366,DepthScenes,duration_manipulation_targetAtFixation,jsons/v1_VE1000_randls_13.json,http://54.235.29.9/FacialAge/BNav_EC2/DepthDuration/v2_depth_duration_MTurk/v2_DepthDuration_HTML.html#96,96,2048,1152,2048,1152,8-22-2022,7-1-8,162,depth_duration_stimuli/002545_2014-06-24_13-38-53_094959634447_rgbf000080-resize_4/002545_2014-06-24_13-38-53_094959634447_rgbf000080-resize_4-target.png,1000,1.9205,4.0,2259,1000,feet,jsons/v1_VE1000_randls_13.json,520014,808519,33,Man
162,391366,DepthScenes,duration_manipulation_targetAtFixation,jsons/v1_VE1000_randls_13.json,http://54.235.29.9/FacialAge/BNav_EC2/DepthDuration/v2_depth_duration_MTurk/v2_DepthDuration_HTML.html#96,96,2048,1152,2048,1152,8-22-2022,7-1-8,163,depth_duration_stimuli/001167_2014-06-17_15-38-07_260595134347_rgbf000108-resize_0/001167_2014-06-17_15-38-07_260595134347_rgbf000108-resize_0-target.png,1000,1.8505,1.5,2819,1000,feet,jsons/v1_VE1000_randls_13.json,520014,808519,33,Man
163,391366,DepthScenes,duration_manipulation_targetAtFixation,jsons/v1_VE1000_randls_13.json,http://54.235.29.9/FacialAge/BNav_EC2/DepthDuration/v2_depth_duration_MTurk/v2_DepthDuration_HTML.html#96,96,2048,1152,2048,1152,8-22-2022,7-1-8,164,depth_duration_stimuli/003587_2014-05-23_16-48-02_094959634447_rgbf002384-resize_2/003587_2014-05-23_16-48-02_094959634447_rgbf002384-resize_2-target.png,1000,1.357,1.0,2122,1002,feet,jsons/v1_VE1000_randls_13.json,520014,808519,33,Man
