,subjID,experimentName,versionName,sequenceName,url,selected_row,windowWidth,windowHeight,screenWidth,screenHeight,startDate,startTime,trial,stimulus,duration,actual_depth,depth_estimate,trial_RT,log_sceneDuration,unitSelection,seq_filepath,experimentTime,totalTime,age,gender
0,391365,DepthScenes,duration_manipulation_targetAtFixation,jsons/VE125_randls_73.json,http://54.235.29.9/FacialAge/BNav_EC2/DepthDuration/v2_depth_duration_MTurk/v2_DepthDuration_HTML.html#238,238,1366,768,1366,768,9-3-2022,9-9-52,1,depth_duration_stimuli/001011_2014-06-08_23-18-54_260595134347_rgbf000044-resize_4/001011_2014-06-08_23-18-54_260595134347_rgbf000044-resize_4-target.png,125,2.4730000000000003,2,5056,21,feet,jsons/VE125_randls_73.json,739698,1148004,36,Woman
1,391365,DepthScenes,duration_manipulation_targetAtFixation,jsons/VE125_randls_73.json,http://54.235.29.9/FacialAge/BNav_EC2/DepthDuration/v2_depth_duration_MTurk/v2_DepthDuration_HTML.html#238,238,1366,768,1366,768,9-3-2022,9-9-52,2,depth_duration_stimuli/002875_2014-06-01_15-19-00_094959634447_rgbf000151-resize_1/002875_2014-06-01_15-19-00_094959634447_rgbf000151-resize_1-target.png,125,1.9675,3,3280,114,feet,jsons/VE125_randls_73.json,739698,1148004,36,Woman
2,391365,DepthScenes,duration_manipulation_targetAtFixation,jsons/VE125_randls_73.json,http://54.235.29.9/FacialAge/BNav_EC2/DepthDuration/v2_depth_duration_MTurk/v2_DepthDuration_HTML.html#238,238,1366,768,1366,768,9-3-2022,9-9-52,3,depth_duration_stimuli/000810_2014-06-08_17-20-01_260595134347_rgbf000105-resize_0/000810_2014-06-08_17-20-01_260595134347_rgbf000105-resize_0-target.png,125,1.4865,2,3923,2,feet,jsons/VE125_randls_73.json,739698,1148004,36,Woman
3,391365,DepthScenes,duration_manipulation_targetAtFixation,jsons/VE125_randls_73.json,http://54.235.29.9/FacialAge/BNav_EC2/DepthDuration/v2_depth_duration_MTurk/v2_DepthDuration_HTML.html#238,238,1366,768,1366,768,9-3-2022,9-9-52,4,depth_duration_stimuli/001214_2014-06-17_16-13-55_260595134347_rgbf000111-resize_0/001214_2014-06-17_16-13-55_260595134347_rgbf000111-resize_0-target.png,125,2.6505,2,3813,124,feet,jsons/VE125_randls_73.json,739698,1148004,36,Woman
4,391365,DepthScenes,duration_manipulation_targetAtFixation,jsons/VE125_randls_73.json,http://54.235.29.9/FacialAge/BNav_EC2/DepthDuration/v2_depth_duration_MTurk/v2_DepthDuration_HTML.html#238,238,1366,768,1366,768,9-3-2022,9-9-52,5,depth_duration_stimuli/003292_2014-05-14_21-53-49_094959634447_rgbf000100-resize_2/003292_2014-05-14_21-53-49_094959634447_rgbf000100-resize_2-target.png,125,3.4815,2,4023,114,feet,jsons/VE125_randls_73.json,739698,1148004,36,Woman
5,391365,DepthScenes,duration_manipulation_targetAtFixation,jsons/VE125_randls_73.json,http://54.235.29.9/FacialAge/BNav_EC2/DepthDuration/v2_depth_duration_MTurk/v2_DepthDuration_HTML.html#238,238,1366,768,1366,768,9-3-2022,9-9-52,6,depth_duration_stimuli/002639_2014-06-24_14-51-37_094959634447_rgbf000074-resize_4/002639_2014-06-24_14-51-37_094959634447_rgbf000074-resize_4-target.png,125,4.0375,2,3883,128,feet,jsons/VE125_randls_73.json,739698,1148004,36,Woman
6,391365,DepthScenes,duration_manipulation_targetAtFixation,jsons/VE125_randls_73.json,http://54.235.29.9/FacialAge/BNav_EC2/DepthDuration/v2_depth_duration_MTurk/v2_DepthDuration_HTML.html#238,238,1366,768,1366,768,9-3-2022,9-9-52,7,depth_duration_stimuli/001066_2014-06-08_22-03-20_260595134347_rgbf000066-resize_4/001066_2014-06-08_22-03-20_260595134347_rgbf000066-resize_4-target.png,125,4.2330000000000005,4,4063,126,feet,jsons/VE125_randls_73.json,739698,1148004,36,Woman
7,391365,DepthScenes,duration_manipulation_targetAtFixation,jsons/VE125_randls_73.json,http://54.235.29.9/FacialAge/BNav_EC2/DepthDuration/v2_depth_duration_MTurk/v2_DepthDuration_HTML.html#238,238,1366,768,1366,768,9-3-2022,9-9-52,8,depth_duration_stimuli/000742_2014-06-08_18-48-09_260595134347_rgbf000164-resize_4/000742_2014-06-08_18-48-09_260595134347_rgbf000164-resize_4-target.png,125,4.632,3,3790,128,feet,jsons/VE125_randls_73.json,739698,1148004,36,Woman
8,391365,DepthScenes,duration_manipulation_targetAtFixation,jsons/VE125_randls_73.json,http://54.235.29.9/FacialAge/BNav_EC2/DepthDuration/v2_depth_duration_MTurk/v2_DepthDuration_HTML.html#238,238,1366,768,1366,768,9-3-2022,9-9-52,9,depth_duration_stimuli/001555_2014-06-20_17-12-10_260595134347_rgbf000065-resize_4/001555_2014-06-20_17-12-10_260595134347_rgbf000065-resize_4-target.png,125,1.633,2,3456,142,feet,jsons/VE125_randls_73.json,739698,1148004,36,Woman
9,391365,DepthScenes,duration_manipulation_targetAtFixation,jsons/VE125_randls_73.json,http://54.235.29.9/FacialAge/BNav_EC2/DepthDuration/v2_depth_duration_MTurk/v2_DepthDuration_HTML.html#238,238,1366,768,1366,768,9-3-2022,9-9-52,10,depth_duration_stimuli/000103_2014-05-14_22-01-17_260595134347_rgbf000152-resize_5/000103_2014-05-14_22-01-17_260595134347_rgbf000152-resize_5-target.png,125,1.993,3,3742,128,feet,jsons/VE125_randls_73.json,739698,1148004,36,Woman
10,391365,DepthScenes,duration_manipulation_targetAtFixation,jsons/VE125_randls_73.json,http://54.235.29.9/FacialAge/BNav_EC2/DepthDuration/v2_depth_duration_MTurk/v2_DepthDuration_HTML.html#238,238,1366,768,1366,768,9-3-2022,9-9-52,11,depth_duration_stimuli/000682_2014-06-08_23-14-58_260595134347_rgbf000041-resize_5/000682_2014-06-08_23-14-58_260595134347_rgbf000041-resize_5-target.png,125,2.7239999999999998,2,4199,109,feet,jsons/VE125_randls_73.json,739698,1148004,36,Woman
11,391365,DepthScenes,duration_manipulation_targetAtFixation,jsons/VE125_randls_73.json,http://54.235.29.9/FacialAge/BNav_EC2/DepthDuration/v2_depth_duration_MTurk/v2_DepthDuration_HTML.html#238,238,1366,768,1366,768,9-3-2022,9-9-52,12,depth_duration_stimuli/001650_2014-06-20_12-09-00_260595134347_rgbf000087-resize_3/001650_2014-06-20_12-09-00_260595134347_rgbf000087-resize_3-target.png,125,1.9505,1,3216,120,feet,jsons/VE125_randls_73.json,739698,1148004,36,Woman
12,391365,DepthScenes,duration_manipulation_targetAtFixation,jsons/VE125_randls_73.json,http://54.235.29.9/FacialAge/BNav_EC2/DepthDuration/v2_depth_duration_MTurk/v2_DepthDuration_HTML.html#238,238,1366,768,1366,768,9-3-2022,9-9-52,13,depth_duration_stimuli/000569_2014-06-09_22-51-47_260595134347_rgbf000141-resize_3/000569_2014-06-09_22-51-47_260595134347_rgbf000141-resize-original.jpg,125,4.512,4,5470,123,feet,jsons/VE125_randls_73.json,739698,1148004,36,Woman
13,391365,DepthScenes,duration_manipulation_targetAtFixation,jsons/VE125_randls_73.json,http://54.235.29.9/FacialAge/BNav_EC2/DepthDuration/v2_depth_duration_MTurk/v2_DepthDuration_HTML.html#238,238,1366,768,1366,768,9-3-2022,9-9-52,14,depth_duration_stimuli/000368_2014-06-09_15-53-01_260595134347_rgbf000155-resize_2/000368_2014-06-09_15-53-01_260595134347_rgbf000155-resize_2-target.png,125,2.4859999999999998,2,3893,117,feet,jsons/VE125_randls_73.json,739698,1148004,36,Woman
14,391365,DepthScenes,duration_manipulation_targetAtFixation,jsons/VE125_randls_73.json,http://54.235.29.9/FacialAge/BNav_EC2/DepthDuration/v2_depth_duration_MTurk/v2_DepthDuration_HTML.html#238,238,1366,768,1366,768,9-3-2022,9-9-52,15,depth_duration_stimuli/002678_2014-06-13_16-15-32_094959634447_rgbf000151-resize_6/002678_2014-06-13_16-15-32_094959634447_rgbf000151-resize_6-target.png,125,2.1830000000000003,4,4458,200,feet,jsons/VE125_randls_73.json,739698,1148004,36,Woman
15,391365,DepthScenes,duration_manipulation_targetAtFixation,jsons/VE125_randls_73.json,http://54.235.29.9/FacialAge/BNav_EC2/DepthDuration/v2_depth_duration_MTurk/v2_DepthDuration_HTML.html#238,238,1366,768,1366,768,9-3-2022,9-9-52,16,depth_duration_stimuli/000009_2014-05-26_14-32-05_260595134347_rgbf000034-resize_3/000009_2014-05-26_14-32-05_260595134347_rgbf000034-resize_3-target.png,125,3.8715,5,3885,130,feet,jsons/VE125_randls_73.json,739698,1148004,36,Woman
16,391365,DepthScenes,duration_manipulation_targetAtFixation,jsons/VE125_randls_73.json,http://54.235.29.9/FacialAge/BNav_EC2/DepthDuration/v2_depth_duration_MTurk/v2_DepthDuration_HTML.html#238,238,1366,768,1366,768,9-3-2022,9-9-52,17,depth_duration_stimuli/001828_2014-06-26_21-40-03_260595134347_rgbf000024-resize_0/001828_2014-06-26_21-40-03_260595134347_rgbf000024-resize_0-target.png,125,4.8260000000000005,3,4148,133,feet,jsons/VE125_randls_73.json,739698,1148004,36,Woman
17,391365,DepthScenes,duration_manipulation_targetAtFixation,jsons/VE125_randls_73.json,http://54.235.29.9/FacialAge/BNav_EC2/DepthDuration/v2_depth_duration_MTurk/v2_DepthDuration_HTML.html#238,238,1366,768,1366,768,9-3-2022,9-9-52,18,depth_duration_stimuli/002663_2014-06-13_15-50-26_094959634447_rgbf000075-resize_1/002663_2014-06-13_15-50-26_094959634447_rgbf000075-resize_1-target.png,125,4.7495,2,5789,4,feet,jsons/VE125_randls_73.json,739698,1148004,36,Woman
18,391365,DepthScenes,duration_manipulation_targetAtFixation,jsons/VE125_randls_73.json,http://54.235.29.9/FacialAge/BNav_EC2/DepthDuration/v2_depth_duration_MTurk/v2_DepthDuration_HTML.html#238,238,1366,768,1366,768,9-3-2022,9-9-52,19,depth_duration_stimuli/000409_2014-06-04_19-23-33_260595134347_rgbf000067-resize_0/000409_2014-06-04_19-23-33_260595134347_rgbf000067-resize_0-target.png,125,3.7335,3,4653,231,feet,jsons/VE125_randls_73.json,739698,1148004,36,Woman
19,391365,DepthScenes,duration_manipulation_targetAtFixation,jsons/VE125_randls_73.json,http://54.235.29.9/FacialAge/BNav_EC2/DepthDuration/v2_depth_duration_MTurk/v2_DepthDuration_HTML.html#238,238,1366,768,1366,768,9-3-2022,9-9-52,20,depth_duration_stimuli/000736_2014-06-08_18-24-15_260595134347_rgbf000206-resize_3/000736_2014-06-08_18-24-15_260595134347_rgbf000206-resize_3-target.png,125,3.515,2,3689,123,feet,jsons/VE125_randls_73.json,739698,1148004,36,Woman
20,391365,DepthScenes,duration_manipulation_targetAtFixation,jsons/VE125_randls_73.json,http://54.235.29.9/FacialAge/BNav_EC2/DepthDuration/v2_depth_duration_MTurk/v2_DepthDuration_HTML.html#238,238,1366,768,1366,768,9-3-2022,9-9-52,21,depth_duration_stimuli/000137_2014-05-20_17-04-49_260595134347_rgbf000120-resize_1/000137_2014-05-20_17-04-49_260595134347_rgbf000120-resize_1-target.png,125,3.786,3,3779,15,feet,jsons/VE125_randls_73.json,739698,1148004,36,Woman
21,391365,DepthScenes,duration_manipulation_targetAtFixation,jsons/VE125_randls_73.json,http://54.235.29.9/FacialAge/BNav_EC2/DepthDuration/v2_depth_duration_MTurk/v2_DepthDuration_HTML.html#238,238,1366,768,1366,768,9-3-2022,9-9-52,22,depth_duration_stimuli/000447_2014-06-08_16-15-46_260595134347_rgbf000130-resize_1/000447_2014-06-08_16-15-46_260595134347_rgbf000130-resize_1-target.png,125,4.479,3,3478,130,feet,jsons/VE125_randls_73.json,739698,1148004,36,Woman
22,391365,DepthScenes,duration_manipulation_targetAtFixation,jsons/VE125_randls_73.json,http://54.235.29.9/FacialAge/BNav_EC2/DepthDuration/v2_depth_duration_MTurk/v2_DepthDuration_HTML.html#238,238,1366,768,1366,768,9-3-2022,9-9-52,23,depth_duration_stimuli/001447_2014-06-19_17-00-32_260595134347_rgbf000082-resize_5/001447_2014-06-19_17-00-32_260595134347_rgbf000082-resize_5-target.png,125,4.13775,2,4169,111,feet,jsons/VE125_randls_73.json,739698,1148004,36,Woman
23,391365,DepthScenes,duration_manipulation_targetAtFixation,jsons/VE125_randls_73.json,http://54.235.29.9/FacialAge/BNav_EC2/DepthDuration/v2_depth_duration_MTurk/v2_DepthDuration_HTML.html#238,238,1366,768,1366,768,9-3-2022,9-9-52,24,depth_duration_stimuli/002279_2014-06-28_18-55-32_260595134347_rgbf000040-resize_5/002279_2014-06-28_18-55-32_260595134347_rgbf000040-resize_5-target.png,125,1.5043333333333,2,4507,128,feet,jsons/VE125_randls_73.json,739698,1148004,36,Woman
24,391365,DepthScenes,duration_manipulation_targetAtFixation,jsons/VE125_randls_73.json,http://54.235.29.9/FacialAge/BNav_EC2/DepthDuration/v2_depth_duration_MTurk/v2_DepthDuration_HTML.html#238,238,1366,768,1366,768,9-3-2022,9-9-52,25,depth_duration_stimuli/000635_2014-06-08_16-38-42_260595134347_rgbf000106-resize_1/000635_2014-06-08_16-38-42_260595134347_rgbf000106-resize_1-target.png,125,2.074,3,3567,111,feet,jsons/VE125_randls_73.json,739698,1148004,36,Woman
25,391365,DepthScenes,duration_manipulation_targetAtFixation,jsons/VE125_randls_73.json,http://54.235.29.9/FacialAge/BNav_EC2/DepthDuration/v2_depth_duration_MTurk/v2_DepthDuration_HTML.html#238,238,1366,768,1366,768,9-3-2022,9-9-52,26,depth_duration_stimuli/000906_2014-06-08_13-35-43_260595134347_rgbf000155-resize_1/000906_2014-06-08_13-35-43_260595134347_rgbf000155-resize_1-target.png,125,2.8489999999999998,3,3891,87,feet,jsons/VE125_randls_73.json,739698,1148004,36,Woman
26,391365,DepthScenes,duration_manipulation_targetAtFixation,jsons/VE125_randls_73.json,http://54.235.29.9/FacialAge/BNav_EC2/DepthDuration/v2_depth_duration_MTurk/v2_DepthDuration_HTML.html#238,238,1366,768,1366,768,9-3-2022,9-9-52,27,depth_duration_stimuli/002805_2014-06-22_19-54-03_094959634447_rgbf000079-resize_1/002805_2014-06-22_19-54-03_094959634447_rgbf000079-resize_1-target.png,125,3.1439999999999997,3,3862,110,feet,jsons/VE125_randls_73.json,739698,1148004,36,Woman
27,391365,DepthScenes,duration_manipulation_targetAtFixation,jsons/VE125_randls_73.json,http://54.235.29.9/FacialAge/BNav_EC2/DepthDuration/v2_depth_duration_MTurk/v2_DepthDuration_HTML.html#238,238,1366,768,1366,768,9-3-2022,9-9-52,28,depth_duration_stimuli/000436_2014-06-09_22-25-11_260595134347_rgbf000137-resize_1/000436_2014-06-09_22-25-11_260595134347_rgbf000137-resize_1-target.png,125,4.0705,4,4146,133,feet,jsons/VE125_randls_73.json,739698,1148004,36,Woman
28,391365,DepthScenes,duration_manipulation_targetAtFixation,jsons/VE125_randls_73.json,http://54.235.29.9/FacialAge/BNav_EC2/DepthDuration/v2_depth_duration_MTurk/v2_DepthDuration_HTML.html#238,238,1366,768,1366,768,9-3-2022,9-9-52,29,depth_duration_stimuli/002444_2014-06-28_20-32-08_260595134347_rgbf000027-resize_0/002444_2014-06-28_20-32-08_260595134347_rgbf000027-resize_0-target.png,125,4.388999999999999,3,3851,136,feet,jsons/VE125_randls_73.json,739698,1148004,36,Woman
29,391365,DepthScenes,duration_manipulation_targetAtFixation,jsons/VE125_randls_73.json,http://54.235.29.9/FacialAge/BNav_EC2/DepthDuration/v2_depth_duration_MTurk/v2_DepthDuration_HTML.html#238,238,1366,768,1366,768,9-3-2022,9-9-52,30,depth_duration_stimuli/000375_2014-06-08_11-17-29_260595134347_rgbf000133-resize_2/000375_2014-06-08_11-17-29_260595134347_rgbf000133-resize-original.jpg,125,4.718,2,4160,106,feet,jsons/VE125_randls_73.json,739698,1148004,36,Woman
30,391365,DepthScenes,duration_manipulation_targetAtFixation,jsons/VE125_randls_73.json,http://54.235.29.9/FacialAge/BNav_EC2/DepthDuration/v2_depth_duration_MTurk/v2_DepthDuration_HTML.html#238,238,1366,768,1366,768,9-3-2022,9-9-52,31,depth_duration_stimuli/000493_2014-06-09_21-01-18_260595134347_rgbf000196-resize_3/000493_2014-06-09_21-01-18_260595134347_rgbf000196-resize_3-target.png,125,3.44,2,4232,116,feet,jsons/VE125_randls_73.json,739698,1148004,36,Woman
31,391365,DepthScenes,duration_manipulation_targetAtFixation,jsons/VE125_randls_73.json,http://54.235.29.9/FacialAge/BNav_EC2/DepthDuration/v2_depth_duration_MTurk/v2_DepthDuration_HTML.html#238,238,1366,768,1366,768,9-3-2022,9-9-52,32,depth_duration_stimuli/000191_2014-05-12_17-07-38_260595134347_rgbf000199-resize_0/000191_2014-05-12_17-07-38_260595134347_rgbf000199-resize_0-target.png,125,3.7995,4,3668,122,feet,jsons/VE125_randls_73.json,739698,1148004,36,Woman
32,391365,DepthScenes,duration_manipulation_targetAtFixation,jsons/VE125_randls_73.json,http://54.235.29.9/FacialAge/BNav_EC2/DepthDuration/v2_depth_duration_MTurk/v2_DepthDuration_HTML.html#238,238,1366,768,1366,768,9-3-2022,9-9-52,33,depth_duration_stimuli/000917_2014-06-09_22-45-29_260595134347_rgbf000149-resize_3/000917_2014-06-09_22-45-29_260595134347_rgbf000149-resize_3-target.png,125,4.1865,3,4028,131,feet,jsons/VE125_randls_73.json,739698,1148004,36,Woman
33,391365,DepthScenes,duration_manipulation_targetAtFixation,jsons/VE125_randls_73.json,http://54.235.29.9/FacialAge/BNav_EC2/DepthDuration/v2_depth_duration_MTurk/v2_DepthDuration_HTML.html#238,238,1366,768,1366,768,9-3-2022,9-9-52,34,depth_duration_stimuli/002323_2014-06-28_20-01-54_260595134347_rgbf000051-resize_4/002323_2014-06-28_20-01-54_260595134347_rgbf000051-resize_4-target.png,125,3.7310000000000003,2,3654,80,feet,jsons/VE125_randls_73.json,739698,1148004,36,Woman
34,391365,DepthScenes,duration_manipulation_targetAtFixation,jsons/VE125_randls_73.json,http://54.235.29.9/FacialAge/BNav_EC2/DepthDuration/v2_depth_duration_MTurk/v2_DepthDuration_HTML.html#238,238,1366,768,1366,768,9-3-2022,9-9-52,35,depth_duration_stimuli/000878_2014-06-08_22-52-45_260595134347_rgbf000045-resize_2/000878_2014-06-08_22-52-45_260595134347_rgbf000045-resize_2-target.png,125,2.092,3,6952,124,feet,jsons/VE125_randls_73.json,739698,1148004,36,Woman
35,391365,DepthScenes,duration_manipulation_targetAtFixation,jsons/VE125_randls_73.json,http://54.235.29.9/FacialAge/BNav_EC2/DepthDuration/v2_depth_duration_MTurk/v2_DepthDuration_HTML.html#238,238,1366,768,1366,768,9-3-2022,9-9-52,36,depth_duration_stimuli/002953_2014-06-08_17-32-18_094959634447_rgbf000059-resize_5/002953_2014-06-08_17-32-18_094959634447_rgbf000059-resize_5-target.png,125,1.551,2,3406,124,feet,jsons/VE125_randls_73.json,739698,1148004,36,Woman
36,391365,DepthScenes,duration_manipulation_targetAtFixation,jsons/VE125_randls_73.json,http://54.235.29.9/FacialAge/BNav_EC2/DepthDuration/v2_depth_duration_MTurk/v2_DepthDuration_HTML.html#238,238,1366,768,1366,768,9-3-2022,9-9-52,37,depth_duration_stimuli/000758_2014-06-08_22-05-08_260595134347_rgbf000085-resize_0/000758_2014-06-08_22-05-08_260595134347_rgbf000085-resize_0-target.png,125,3.3810000000000002,3,3509,120,feet,jsons/VE125_randls_73.json,739698,1148004,36,Woman
37,391365,DepthScenes,duration_manipulation_targetAtFixation,jsons/VE125_randls_73.json,http://54.235.29.9/FacialAge/BNav_EC2/DepthDuration/v2_depth_duration_MTurk/v2_DepthDuration_HTML.html#238,238,1366,768,1366,768,9-3-2022,9-9-52,38,depth_duration_stimuli/000854_2014-06-09_19-43-13_260595134347_rgbf000066-resize_0/000854_2014-06-09_19-43-13_260595134347_rgbf000066-resize_0-target.png,125,3.068,2,6153,139,feet,jsons/VE125_randls_73.json,739698,1148004,36,Woman
38,391365,DepthScenes,duration_manipulation_targetAtFixation,jsons/VE125_randls_73.json,http://54.235.29.9/FacialAge/BNav_EC2/DepthDuration/v2_depth_duration_MTurk/v2_DepthDuration_HTML.html#238,238,1366,768,1366,768,9-3-2022,9-9-52,39,depth_duration_stimuli/002153_2014-06-25_21-27-18_260595134347_rgbf000038-resize_5/002153_2014-06-25_21-27-18_260595134347_rgbf000038-resize_5-target.png,125,2.505,2,3405,130,feet,jsons/VE125_randls_73.json,739698,1148004,36,Woman
39,391365,DepthScenes,duration_manipulation_targetAtFixation,jsons/VE125_randls_73.json,http://54.235.29.9/FacialAge/BNav_EC2/DepthDuration/v2_depth_duration_MTurk/v2_DepthDuration_HTML.html#238,238,1366,768,1366,768,9-3-2022,9-9-52,40,depth_duration_stimuli/002660_2014-06-13_15-44-18_094959634447_rgbf001878-resize_2/002660_2014-06-13_15-44-18_094959634447_rgbf001878-resize_2-target.png,125,3.576,2,3179,122,feet,jsons/VE125_randls_73.json,739698,1148004,36,Woman
40,391365,DepthScenes,duration_manipulation_targetAtFixation,jsons/VE125_randls_73.json,http://54.235.29.9/FacialAge/BNav_EC2/DepthDuration/v2_depth_duration_MTurk/v2_DepthDuration_HTML.html#238,238,1366,768,1366,768,9-3-2022,9-9-52,41,depth_duration_stimuli/001055_2014-06-08_18-45-35_260595134347_rgbf000111-resize_4/001055_2014-06-08_18-45-35_260595134347_rgbf000111-resize_4-target.png,125,2.4290000000000003,3,3472,134,feet,jsons/VE125_randls_73.json,739698,1148004,36,Woman
41,391365,DepthScenes,duration_manipulation_targetAtFixation,jsons/VE125_randls_73.json,http://54.235.29.9/FacialAge/BNav_EC2/DepthDuration/v2_depth_duration_MTurk/v2_DepthDuration_HTML.html#238,238,1366,768,1366,768,9-3-2022,9-9-52,42,depth_duration_stimuli/000549_2014-06-08_22-10-24_260595134347_rgbf000247-resize_3/000549_2014-06-08_22-10-24_260595134347_rgbf000247-resize_3-target.png,125,1.841,2,3328,128,feet,jsons/VE125_randls_73.json,739698,1148004,36,Woman
42,391365,DepthScenes,duration_manipulation_targetAtFixation,jsons/VE125_randls_73.json,http://54.235.29.9/FacialAge/BNav_EC2/DepthDuration/v2_depth_duration_MTurk/v2_DepthDuration_HTML.html#238,238,1366,768,1366,768,9-3-2022,9-9-52,43,depth_duration_stimuli/002725_2014-06-22_11-47-51_094959634447_rgbf000070-resize_1/002725_2014-06-22_11-47-51_094959634447_rgbf000070-resize_1-target.png,125,2.195,3,3624,137,feet,jsons/VE125_randls_73.json,739698,1148004,36,Woman
43,391365,DepthScenes,duration_manipulation_targetAtFixation,jsons/VE125_randls_73.json,http://54.235.29.9/FacialAge/BNav_EC2/DepthDuration/v2_depth_duration_MTurk/v2_DepthDuration_HTML.html#238,238,1366,768,1366,768,9-3-2022,9-9-52,44,depth_duration_stimuli/002344_2014-06-28_20-06-29_260595134347_rgbf000030-resize_1/002344_2014-06-28_20-06-29_260595134347_rgbf000030-resize_1-target.png,125,1.5795,2,3400,127,feet,jsons/VE125_randls_73.json,739698,1148004,36,Woman
44,391365,DepthScenes,duration_manipulation_targetAtFixation,jsons/VE125_randls_73.json,http://54.235.29.9/FacialAge/BNav_EC2/DepthDuration/v2_depth_duration_MTurk/v2_DepthDuration_HTML.html#238,238,1366,768,1366,768,9-3-2022,9-9-52,45,depth_duration_stimuli/000787_2014-06-08_22-33-53_260595134347_rgbf000175-resize_1/000787_2014-06-08_22-33-53_260595134347_rgbf000175-resize-original.jpg,125,4.784,1,3476,109,feet,jsons/VE125_randls_73.json,739698,1148004,36,Woman
45,391365,DepthScenes,duration_manipulation_targetAtFixation,jsons/VE125_randls_73.json,http://54.235.29.9/FacialAge/BNav_EC2/DepthDuration/v2_depth_duration_MTurk/v2_DepthDuration_HTML.html#238,238,1366,768,1366,768,9-3-2022,9-9-52,46,depth_duration_stimuli/002784_2014-06-22_19-26-30_094959634447_rgbf000083-resize_3/002784_2014-06-22_19-26-30_094959634447_rgbf000083-resize_3-target.png,125,1.8046666666667,1,4128,5,feet,jsons/VE125_randls_73.json,739698,1148004,36,Woman
46,391365,DepthScenes,duration_manipulation_targetAtFixation,jsons/VE125_randls_73.json,http://54.235.29.9/FacialAge/BNav_EC2/DepthDuration/v2_depth_duration_MTurk/v2_DepthDuration_HTML.html#238,238,1366,768,1366,768,9-3-2022,9-9-52,47,depth_duration_stimuli/001100_2014-06-15_17-46-26_260595134347_rgbf000225-resize_2/001100_2014-06-15_17-46-26_260595134347_rgbf000225-resize_2-target.png,125,2.24,2,3769,126,feet,jsons/VE125_randls_73.json,739698,1148004,36,Woman
47,391365,DepthScenes,duration_manipulation_targetAtFixation,jsons/VE125_randls_73.json,http://54.235.29.9/FacialAge/BNav_EC2/DepthDuration/v2_depth_duration_MTurk/v2_DepthDuration_HTML.html#238,238,1366,768,1366,768,9-3-2022,9-9-52,48,depth_duration_stimuli/001016_2014-06-09_16-16-10_260595134347_rgbf000112-resize_5/001016_2014-06-09_16-16-10_260595134347_rgbf000112-resize_5-target.png,125,1.6565,3,5267,120,feet,jsons/VE125_randls_73.json,739698,1148004,36,Woman
48,391365,DepthScenes,duration_manipulation_targetAtFixation,jsons/VE125_randls_73.json,http://54.235.29.9/FacialAge/BNav_EC2/DepthDuration/v2_depth_duration_MTurk/v2_DepthDuration_HTML.html#238,238,1366,768,1366,768,9-3-2022,9-9-52,49,depth_duration_stimuli/002340_2014-06-28_20-05-46_260595134347_rgbf000113-resize_0/002340_2014-06-28_20-05-46_260595134347_rgbf000113-resize_0-target.png,125,2.4735,4,4056,109,feet,jsons/VE125_randls_73.json,739698,1148004,36,Woman
49,391365,DepthScenes,duration_manipulation_targetAtFixation,jsons/VE125_randls_73.json,http://54.235.29.9/FacialAge/BNav_EC2/DepthDuration/v2_depth_duration_MTurk/v2_DepthDuration_HTML.html#238,238,1366,768,1366,768,9-3-2022,9-9-52,50,depth_duration_stimuli/003621_2014-05-23_18-06-08_094959634447_rgbf000101-resize_1/003621_2014-05-23_18-06-08_094959634447_rgbf000101-resize_1-target.png,125,3.9835,3,3786,131,feet,jsons/VE125_randls_73.json,739698,1148004,36,Woman
50,391365,DepthScenes,duration_manipulation_targetAtFixation,jsons/VE125_randls_73.json,http://54.235.29.9/FacialAge/BNav_EC2/DepthDuration/v2_depth_duration_MTurk/v2_DepthDuration_HTML.html#238,238,1366,768,1366,768,9-3-2022,9-9-52,51,depth_duration_stimuli/001584_2014-06-20_11-07-43_260595134347_rgbf000002-resize_1/001584_2014-06-20_11-07-43_260595134347_rgbf000002-resize_1-target.png,125,3.53,3,3423,125,feet,jsons/VE125_randls_73.json,739698,1148004,36,Woman
51,391365,DepthScenes,duration_manipulation_targetAtFixation,jsons/VE125_randls_73.json,http://54.235.29.9/FacialAge/BNav_EC2/DepthDuration/v2_depth_duration_MTurk/v2_DepthDuration_HTML.html#238,238,1366,768,1366,768,9-3-2022,9-9-52,52,depth_duration_stimuli/002549_2014-06-24_13-41-39_094959634447_rgbf000022-resize_3/002549_2014-06-24_13-41-39_094959634447_rgbf000022-resize_3-target.png,125,1.476,2,3408,124,feet,jsons/VE125_randls_73.json,739698,1148004,36,Woman
52,391365,DepthScenes,duration_manipulation_targetAtFixation,jsons/VE125_randls_73.json,http://54.235.29.9/FacialAge/BNav_EC2/DepthDuration/v2_depth_duration_MTurk/v2_DepthDuration_HTML.html#238,238,1366,768,1366,768,9-3-2022,9-9-52,53,depth_duration_stimuli/002750_2014-06-22_19-08-03_094959634447_rgbf000094-resize_4/002750_2014-06-22_19-08-03_094959634447_rgbf000094-resize_4-target.png,125,2.354,3,3919,118,feet,jsons/VE125_randls_73.json,739698,1148004,36,Woman
53,391365,DepthScenes,duration_manipulation_targetAtFixation,jsons/VE125_randls_73.json,http://54.235.29.9/FacialAge/BNav_EC2/DepthDuration/v2_depth_duration_MTurk/v2_DepthDuration_HTML.html#238,238,1366,768,1366,768,9-3-2022,9-9-52,54,depth_duration_stimuli/002570_2014-06-24_13-59-54_094959634447_rgbf000059-resize_0/002570_2014-06-24_13-59-54_094959634447_rgbf000059-resize_0-target.png,125,4.037,2,3730,34,feet,jsons/VE125_randls_73.json,739698,1148004,36,Woman
54,391365,DepthScenes,duration_manipulation_targetAtFixation,jsons/VE125_randls_73.json,http://54.235.29.9/FacialAge/BNav_EC2/DepthDuration/v2_depth_duration_MTurk/v2_DepthDuration_HTML.html#238,238,1366,768,1366,768,9-3-2022,9-9-52,55,depth_duration_stimuli/002467_2014-06-28_20-38-07_260595134347_rgbf000026-resize_2/002467_2014-06-28_20-38-07_260595134347_rgbf000026-resize_2-target.png,125,4.742,1,4571,0,feet,jsons/VE125_randls_73.json,739698,1148004,36,Woman
55,391365,DepthScenes,duration_manipulation_targetAtFixation,jsons/VE125_randls_73.json,http://54.235.29.9/FacialAge/BNav_EC2/DepthDuration/v2_depth_duration_MTurk/v2_DepthDuration_HTML.html#238,238,1366,768,1366,768,9-3-2022,9-9-52,56,depth_duration_stimuli/001029_2014-06-08_13-17-57_260595134347_rgbf000065-resize_1/001029_2014-06-08_13-17-57_260595134347_rgbf000065-resize_1-target.png,125,3.0835,2,3704,126,feet,jsons/VE125_randls_73.json,739698,1148004,36,Woman
56,391365,DepthScenes,duration_manipulation_targetAtFixation,jsons/VE125_randls_73.json,http://54.235.29.9/FacialAge/BNav_EC2/DepthDuration/v2_depth_duration_MTurk/v2_DepthDuration_HTML.html#238,238,1366,768,1366,768,9-3-2022,9-9-52,57,depth_duration_stimuli/000677_2014-06-08_23-10-32_260595134347_rgbf000158-resize_6/000677_2014-06-08_23-10-32_260595134347_rgbf000158-resize_6-target.png,125,3.556,2,5683,109,feet,jsons/VE125_randls_73.json,739698,1148004,36,Woman
57,391365,DepthScenes,duration_manipulation_targetAtFixation,jsons/VE125_randls_73.json,http://54.235.29.9/FacialAge/BNav_EC2/DepthDuration/v2_depth_duration_MTurk/v2_DepthDuration_HTML.html#238,238,1366,768,1366,768,9-3-2022,9-9-52,58,depth_duration_stimuli/001808_2014-06-26_20-50-58_260595134347_rgbf000029-resize_1/001808_2014-06-26_20-50-58_260595134347_rgbf000029-resize_1-target.png,125,4.249,3,3525,126,feet,jsons/VE125_randls_73.json,739698,1148004,36,Woman
58,391365,DepthScenes,duration_manipulation_targetAtFixation,jsons/VE125_randls_73.json,http://54.235.29.9/FacialAge/BNav_EC2/DepthDuration/v2_depth_duration_MTurk/v2_DepthDuration_HTML.html#238,238,1366,768,1366,768,9-3-2022,9-9-52,59,depth_duration_stimuli/001815_2014-06-26_20-52-55_260595134347_rgbf000020-resize_0/001815_2014-06-26_20-52-55_260595134347_rgbf000020-resize_0-target.png,125,3.3865,4,3919,123,feet,jsons/VE125_randls_73.json,739698,1148004,36,Woman
59,391365,DepthScenes,duration_manipulation_targetAtFixation,jsons/VE125_randls_73.json,http://54.235.29.9/FacialAge/BNav_EC2/DepthDuration/v2_depth_duration_MTurk/v2_DepthDuration_HTML.html#238,238,1366,768,1366,768,9-3-2022,9-9-52,60,depth_duration_stimuli/001806_2014-06-26_20-50-20_260595134347_rgbf000091-resize_1/001806_2014-06-26_20-50-20_260595134347_rgbf000091-resize_1-target.png,125,2.7305,2,4234,136,feet,jsons/VE125_randls_73.json,739698,1148004,36,Woman
60,391365,DepthScenes,duration_manipulation_targetAtFixation,jsons/VE125_randls_73.json,http://54.235.29.9/FacialAge/BNav_EC2/DepthDuration/v2_depth_duration_MTurk/v2_DepthDuration_HTML.html#238,238,1366,768,1366,768,9-3-2022,9-9-52,61,depth_duration_stimuli/001617_2014-06-20_11-35-32_260595134347_rgbf000066-resize_1/001617_2014-06-20_11-35-32_260595134347_rgbf000066-resize_1-target.png,125,3.7910000000000004,2,5764,120,feet,jsons/VE125_randls_73.json,739698,1148004,36,Woman
61,391365,DepthScenes,duration_manipulation_targetAtFixation,jsons/VE125_randls_73.json,http://54.235.29.9/FacialAge/BNav_EC2/DepthDuration/v2_depth_duration_MTurk/v2_DepthDuration_HTML.html#238,238,1366,768,1366,768,9-3-2022,9-9-52,62,depth_duration_stimuli/001158_2014-06-17_15-32-16_260595134347_rgbf000138-resize_2/001158_2014-06-17_15-32-16_260595134347_rgbf000138-resize_2-target.png,125,4.5315,2,3973,110,feet,jsons/VE125_randls_73.json,739698,1148004,36,Woman
62,391365,DepthScenes,duration_manipulation_targetAtFixation,jsons/VE125_randls_73.json,http://54.235.29.9/FacialAge/BNav_EC2/DepthDuration/v2_depth_duration_MTurk/v2_DepthDuration_HTML.html#238,238,1366,768,1366,768,9-3-2022,9-9-52,63,depth_duration_stimuli/000556_2014-06-09_22-42-56_260595134347_rgbf000214-resize_1/000556_2014-06-09_22-42-56_260595134347_rgbf000214-resize_1-target.png,125,4.8415,2,3629,117,feet,jsons/VE125_randls_73.json,739698,1148004,36,Woman
63,391365,DepthScenes,duration_manipulation_targetAtFixation,jsons/VE125_randls_73.json,http://54.235.29.9/FacialAge/BNav_EC2/DepthDuration/v2_depth_duration_MTurk/v2_DepthDuration_HTML.html#238,238,1366,768,1366,768,9-3-2022,9-9-52,64,depth_duration_stimuli/002039_2014-06-24_20-22-38_260595134347_rgbf000084-resize_1/002039_2014-06-24_20-22-38_260595134347_rgbf000084-resize_1-target.png,125,4.408,2,4475,109,feet,jsons/VE125_randls_73.json,739698,1148004,36,Woman
64,391365,DepthScenes,duration_manipulation_targetAtFixation,jsons/VE125_randls_73.json,http://54.235.29.9/FacialAge/BNav_EC2/DepthDuration/v2_depth_duration_MTurk/v2_DepthDuration_HTML.html#238,238,1366,768,1366,768,9-3-2022,9-9-52,65,depth_duration_stimuli/002103_2014-06-25_20-00-40_260595134347_rgbf000049-resize_0/002103_2014-06-25_20-00-40_260595134347_rgbf000049-resize_0-target.png,125,4.105,3,5167,125,feet,jsons/VE125_randls_73.json,739698,1148004,36,Woman
65,391365,DepthScenes,duration_manipulation_targetAtFixation,jsons/VE125_randls_73.json,http://54.235.29.9/FacialAge/BNav_EC2/DepthDuration/v2_depth_duration_MTurk/v2_DepthDuration_HTML.html#238,238,1366,768,1366,768,9-3-2022,9-9-52,66,depth_duration_stimuli/001222_2014-06-17_16-24-06_260595134347_rgbf000073-resize_0/001222_2014-06-17_16-24-06_260595134347_rgbf000073-resize-original.jpg,125,1.4385,4,4333,125,feet,jsons/VE125_randls_73.json,739698,1148004,36,Woman
66,391365,DepthScenes,duration_manipulation_targetAtFixation,jsons/VE125_randls_73.json,http://54.235.29.9/FacialAge/BNav_EC2/DepthDuration/v2_depth_duration_MTurk/v2_DepthDuration_HTML.html#238,238,1366,768,1366,768,9-3-2022,9-9-52,67,depth_duration_stimuli/001449_2014-06-19_17-01-27_260595134347_rgbf000116-resize_2/001449_2014-06-19_17-01-27_260595134347_rgbf000116-resize_2-target.png,125,3.452,3,5535,139,feet,jsons/VE125_randls_73.json,739698,1148004,36,Woman
67,391365,DepthScenes,duration_manipulation_targetAtFixation,jsons/VE125_randls_73.json,http://54.235.29.9/FacialAge/BNav_EC2/DepthDuration/v2_depth_duration_MTurk/v2_DepthDuration_HTML.html#238,238,1366,768,1366,768,9-3-2022,9-9-52,68,depth_duration_stimuli/001450_2014-06-19_17-02-03_260595134347_rgbf000203-resize_4/001450_2014-06-19_17-02-03_260595134347_rgbf000203-resize_4-target.png,125,4.0106666666667,2,4953,125,feet,jsons/VE125_randls_73.json,739698,1148004,36,Woman
68,391365,DepthScenes,duration_manipulation_targetAtFixation,jsons/VE125_randls_73.json,http://54.235.29.9/FacialAge/BNav_EC2/DepthDuration/v2_depth_duration_MTurk/v2_DepthDuration_HTML.html#238,238,1366,768,1366,768,9-3-2022,9-9-52,69,depth_duration_stimuli/001199_2014-06-17_16-03-48_260595134347_rgbf000077-resize_0/001199_2014-06-17_16-03-48_260595134347_rgbf000077-resize_0-target.png,125,3.4375,3,4537,130,feet,jsons/VE125_randls_73.json,739698,1148004,36,Woman
69,391365,DepthScenes,duration_manipulation_targetAtFixation,jsons/VE125_randls_73.json,http://54.235.29.9/FacialAge/BNav_EC2/DepthDuration/v2_depth_duration_MTurk/v2_DepthDuration_HTML.html#238,238,1366,768,1366,768,9-3-2022,9-9-52,70,depth_duration_stimuli/000502_2014-06-08_23-02-32_260595134347_rgbf000063-resize_4/000502_2014-06-08_23-02-32_260595134347_rgbf000063-resize_4-target.png,125,2.431,2,3842,115,feet,jsons/VE125_randls_73.json,739698,1148004,36,Woman
70,391365,DepthScenes,duration_manipulation_targetAtFixation,jsons/VE125_randls_73.json,http://54.235.29.9/FacialAge/BNav_EC2/DepthDuration/v2_depth_duration_MTurk/v2_DepthDuration_HTML.html#238,238,1366,768,1366,768,9-3-2022,9-9-52,71,depth_duration_stimuli/000469_2014-06-09_19-42-10_260595134347_rgbf000081-resize_1/000469_2014-06-09_19-42-10_260595134347_rgbf000081-resize_1-target.png,125,1.652,2,3991,103,feet,jsons/VE125_randls_73.json,739698,1148004,36,Woman
71,391365,DepthScenes,duration_manipulation_targetAtFixation,jsons/VE125_randls_73.json,http://54.235.29.9/FacialAge/BNav_EC2/DepthDuration/v2_depth_duration_MTurk/v2_DepthDuration_HTML.html#238,238,1366,768,1366,768,9-3-2022,9-9-52,72,depth_duration_stimuli/000483_2014-06-09_20-41-45_260595134347_rgbf000116-resize_4/000483_2014-06-09_20-41-45_260595134347_rgbf000116-resize_4-target.png,125,1.337,2,3435,116,feet,jsons/VE125_randls_73.json,739698,1148004,36,Woman
72,391365,DepthScenes,duration_manipulation_targetAtFixation,jsons/VE125_randls_73.json,http://54.235.29.9/FacialAge/BNav_EC2/DepthDuration/v2_depth_duration_MTurk/v2_DepthDuration_HTML.html#238,238,1366,768,1366,768,9-3-2022,9-9-52,73,depth_duration_stimuli/002964_2014-06-08_17-46-11_094959634447_rgbf000091-resize_4/002964_2014-06-08_17-46-11_094959634447_rgbf000091-resize_4-target.png,125,1.6909999999999998,2,3469,103,feet,jsons/VE125_randls_73.json,739698,1148004,36,Woman
73,391365,DepthScenes,duration_manipulation_targetAtFixation,jsons/VE125_randls_73.json,http://54.235.29.9/FacialAge/BNav_EC2/DepthDuration/v2_depth_duration_MTurk/v2_DepthDuration_HTML.html#238,238,1366,768,1366,768,9-3-2022,9-9-52,74,depth_duration_stimuli/002136_2014-06-25_21-18-03_260595134347_rgbf000109-resize_3/002136_2014-06-25_21-18-03_260595134347_rgbf000109-resize_3-target.png,125,1.9569999999999999,2,3581,131,feet,jsons/VE125_randls_73.json,739698,1148004,36,Woman
74,391365,DepthScenes,duration_manipulation_targetAtFixation,jsons/VE125_randls_73.json,http://54.235.29.9/FacialAge/BNav_EC2/DepthDuration/v2_depth_duration_MTurk/v2_DepthDuration_HTML.html#238,238,1366,768,1366,768,9-3-2022,9-9-52,75,depth_duration_stimuli/001150_2014-06-17_15-27-34_260595134347_rgbf000108-resize_2/001150_2014-06-17_15-27-34_260595134347_rgbf000108-resize_2-target.png,125,4.0325,2,4506,115,feet,jsons/VE125_randls_73.json,739698,1148004,36,Woman
75,391365,DepthScenes,duration_manipulation_targetAtFixation,jsons/VE125_randls_73.json,http://54.235.29.9/FacialAge/BNav_EC2/DepthDuration/v2_depth_duration_MTurk/v2_DepthDuration_HTML.html#238,238,1366,768,1366,768,9-3-2022,9-9-52,76,depth_duration_stimuli/000665_2014-06-09_20-42-35_260595134347_rgbf000110-resize_1/000665_2014-06-09_20-42-35_260595134347_rgbf000110-resize_1-target.png,125,3.057,1,4683,126,feet,jsons/VE125_randls_73.json,739698,1148004,36,Woman
76,391365,DepthScenes,duration_manipulation_targetAtFixation,jsons/VE125_randls_73.json,http://54.235.29.9/FacialAge/BNav_EC2/DepthDuration/v2_depth_duration_MTurk/v2_DepthDuration_HTML.html#238,238,1366,768,1366,768,9-3-2022,9-9-52,77,depth_duration_stimuli/000414_2014-06-04_19-49-13_260595134347_rgbf000044-resize_0/000414_2014-06-04_19-49-13_260595134347_rgbf000044-resize_0-target.png,125,4.329,3,3753,124,feet,jsons/VE125_randls_73.json,739698,1148004,36,Woman
77,391365,DepthScenes,duration_manipulation_targetAtFixation,jsons/VE125_randls_73.json,http://54.235.29.9/FacialAge/BNav_EC2/DepthDuration/v2_depth_duration_MTurk/v2_DepthDuration_HTML.html#238,238,1366,768,1366,768,9-3-2022,9-9-52,78,depth_duration_stimuli/003129_2014-05-12_10-48-10_094959634447_rgbf000100-resize_0/003129_2014-05-12_10-48-10_094959634447_rgbf000100-resize_0-target.png,125,4.9305,2,4087,130,feet,jsons/VE125_randls_73.json,739698,1148004,36,Woman
78,391365,DepthScenes,duration_manipulation_targetAtFixation,jsons/VE125_randls_73.json,http://54.235.29.9/FacialAge/BNav_EC2/DepthDuration/v2_depth_duration_MTurk/v2_DepthDuration_HTML.html#238,238,1366,768,1366,768,9-3-2022,9-9-52,79,depth_duration_stimuli/000773_2014-06-08_22-24-54_260595134347_rgbf000093-resize_1/000773_2014-06-08_22-24-54_260595134347_rgbf000093-resize_1-target.png,125,4.973,2,3650,287,feet,jsons/VE125_randls_73.json,739698,1148004,36,Woman
79,391365,DepthScenes,duration_manipulation_targetAtFixation,jsons/VE125_randls_73.json,http://54.235.29.9/FacialAge/BNav_EC2/DepthDuration/v2_depth_duration_MTurk/v2_DepthDuration_HTML.html#238,238,1366,768,1366,768,9-3-2022,9-9-52,80,depth_duration_stimuli/002414_2014-06-28_20-24-58_260595134347_rgbf000067-resize_4/002414_2014-06-28_20-24-58_260595134347_rgbf000067-resize_4-target.png,125,4.363,3,3816,99,feet,jsons/VE125_randls_73.json,739698,1148004,36,Woman
80,391365,DepthScenes,duration_manipulation_targetAtFixation,jsons/VE125_randls_73.json,http://54.235.29.9/FacialAge/BNav_EC2/DepthDuration/v2_depth_duration_MTurk/v2_DepthDuration_HTML.html#238,238,1366,768,1366,768,9-3-2022,9-9-52,81,depth_duration_stimuli/002057_2014-06-24_21-00-13_260595134347_rgbf000120-resize_1/002057_2014-06-24_21-00-13_260595134347_rgbf000120-resize_1-target.png,125,2.967,3,3852,97,feet,jsons/VE125_randls_73.json,739698,1148004,36,Woman
81,391365,DepthScenes,duration_manipulation_targetAtFixation,jsons/VE125_randls_73.json,http://54.235.29.9/FacialAge/BNav_EC2/DepthDuration/v2_depth_duration_MTurk/v2_DepthDuration_HTML.html#238,238,1366,768,1366,768,9-3-2022,9-9-52,82,depth_duration_stimuli/000709_2014-06-08_13-51-55_260595134347_rgbf000068-resize_3/000709_2014-06-08_13-51-55_260595134347_rgbf000068-resize_3-target.png,125,1.8030000000000002,3,4125,125,feet,jsons/VE125_randls_73.json,739698,1148004,36,Woman
82,391365,DepthScenes,duration_manipulation_targetAtFixation,jsons/VE125_randls_73.json,http://54.235.29.9/FacialAge/BNav_EC2/DepthDuration/v2_depth_duration_MTurk/v2_DepthDuration_HTML.html#238,238,1366,768,1366,768,9-3-2022,9-9-52,83,depth_duration_stimuli/002600_2014-06-24_14-27-04_094959634447_rgbf000074-resize_2/002600_2014-06-24_14-27-04_094959634447_rgbf000074-resize_2-target.png,125,2.7575,1,4720,107,feet,jsons/VE125_randls_73.json,739698,1148004,36,Woman
83,391365,DepthScenes,duration_manipulation_targetAtFixation,jsons/VE125_randls_73.json,http://54.235.29.9/FacialAge/BNav_EC2/DepthDuration/v2_depth_duration_MTurk/v2_DepthDuration_HTML.html#238,238,1366,768,1366,768,9-3-2022,9-9-52,84,depth_duration_stimuli/003228_2014-05-14_13-42-35_094959634447_rgbf000101-resize_1/003228_2014-05-14_13-42-35_094959634447_rgbf000101-resize_1-target.png,125,1.9680000000000002,2,3628,120,feet,jsons/VE125_randls_73.json,739698,1148004,36,Woman
84,391365,DepthScenes,duration_manipulation_targetAtFixation,jsons/VE125_randls_73.json,http://54.235.29.9/FacialAge/BNav_EC2/DepthDuration/v2_depth_duration_MTurk/v2_DepthDuration_HTML.html#238,238,1366,768,1366,768,9-3-2022,9-9-52,85,depth_duration_stimuli/002213_2014-06-28_18-37-58_260595134347_rgbf000055-resize_1/002213_2014-06-28_18-37-58_260595134347_rgbf000055-resize_1-target.png,125,3.62,3,3725,109,feet,jsons/VE125_randls_73.json,739698,1148004,36,Woman
85,391365,DepthScenes,duration_manipulation_targetAtFixation,jsons/VE125_randls_73.json,http://54.235.29.9/FacialAge/BNav_EC2/DepthDuration/v2_depth_duration_MTurk/v2_DepthDuration_HTML.html#238,238,1366,768,1366,768,9-3-2022,9-9-52,86,depth_duration_stimuli/000691_2014-06-08_13-08-50_260595134347_rgbf000132-resize_3/000691_2014-06-08_13-08-50_260595134347_rgbf000132-resize_3-target.png,125,4.1530000000000005,2,4417,120,feet,jsons/VE125_randls_73.json,739698,1148004,36,Woman
86,391365,DepthScenes,duration_manipulation_targetAtFixation,jsons/VE125_randls_73.json,http://54.235.29.9/FacialAge/BNav_EC2/DepthDuration/v2_depth_duration_MTurk/v2_DepthDuration_HTML.html#238,238,1366,768,1366,768,9-3-2022,9-9-52,87,depth_duration_stimuli/002763_2014-06-22_19-13-10_094959634447_rgbf000075-resize_4/002763_2014-06-22_19-13-10_094959634447_rgbf000075-resize_4-target.png,125,1.68375,2,3340,129,feet,jsons/VE125_randls_73.json,739698,1148004,36,Woman
87,391365,DepthScenes,duration_manipulation_targetAtFixation,jsons/VE125_randls_73.json,http://54.235.29.9/FacialAge/BNav_EC2/DepthDuration/v2_depth_duration_MTurk/v2_DepthDuration_HTML.html#238,238,1366,768,1366,768,9-3-2022,9-9-52,88,depth_duration_stimuli/002209_2014-06-28_18-36-10_260595134347_rgbf000051-resize_1/002209_2014-06-28_18-36-10_260595134347_rgbf000051-resize_1-target.png,125,2.057,2,3376,118,feet,jsons/VE125_randls_73.json,739698,1148004,36,Woman
88,391365,DepthScenes,duration_manipulation_targetAtFixation,jsons/VE125_randls_73.json,http://54.235.29.9/FacialAge/BNav_EC2/DepthDuration/v2_depth_duration_MTurk/v2_DepthDuration_HTML.html#238,238,1366,768,1366,768,9-3-2022,9-9-52,89,depth_duration_stimuli/000486_2014-06-09_20-47-20_260595134347_rgbf000143-resize_2/000486_2014-06-09_20-47-20_260595134347_rgbf000143-resize_2-target.png,125,4.8325,2,5106,199,feet,jsons/VE125_randls_73.json,739698,1148004,36,Woman
89,391365,DepthScenes,duration_manipulation_targetAtFixation,jsons/VE125_randls_73.json,http://54.235.29.9/FacialAge/BNav_EC2/DepthDuration/v2_depth_duration_MTurk/v2_DepthDuration_HTML.html#238,238,1366,768,1366,768,9-3-2022,9-9-52,90,depth_duration_stimuli/003083_2014-06-15_15-21-03_094959634447_rgbf000063-resize_1/003083_2014-06-15_15-21-03_094959634447_rgbf000063-resize_1-target.png,125,4.1405,4,3313,125,feet,jsons/VE125_randls_73.json,739698,1148004,36,Woman
90,391365,DepthScenes,duration_manipulation_targetAtFixation,jsons/VE125_randls_73.json,http://54.235.29.9/FacialAge/BNav_EC2/DepthDuration/v2_depth_duration_MTurk/v2_DepthDuration_HTML.html#238,238,1366,768,1366,768,9-3-2022,9-9-52,91,depth_duration_stimuli/001110_2014-06-15_17-25-28_260595134347_rgbf000150-resize_1/001110_2014-06-15_17-25-28_260595134347_rgbf000150-resize_1-target.png,125,1.7115,2,3807,124,feet,jsons/VE125_randls_73.json,739698,1148004,36,Woman
91,391365,DepthScenes,duration_manipulation_targetAtFixation,jsons/VE125_randls_73.json,http://54.235.29.9/FacialAge/BNav_EC2/DepthDuration/v2_depth_duration_MTurk/v2_DepthDuration_HTML.html#238,238,1366,768,1366,768,9-3-2022,9-9-52,92,depth_duration_stimuli/000927_2014-06-09_16-32-30_260595134347_rgbf000123-resize_3/000927_2014-06-09_16-32-30_260595134347_rgbf000123-resize_3-target.png,125,2.6785,3,3324,122,feet,jsons/VE125_randls_73.json,739698,1148004,36,Woman
92,391365,DepthScenes,duration_manipulation_targetAtFixation,jsons/VE125_randls_73.json,http://54.235.29.9/FacialAge/BNav_EC2/DepthDuration/v2_depth_duration_MTurk/v2_DepthDuration_HTML.html#238,238,1366,768,1366,768,9-3-2022,9-9-52,93,depth_duration_stimuli/003070_2014-06-15_14-58-27_094959634447_rgbf000150-resize_3/003070_2014-06-15_14-58-27_094959634447_rgbf000150-resize_3-target.png,125,2.9415,2,5569,129,feet,jsons/VE125_randls_73.json,739698,1148004,36,Woman
93,391365,DepthScenes,duration_manipulation_targetAtFixation,jsons/VE125_randls_73.json,http://54.235.29.9/FacialAge/BNav_EC2/DepthDuration/v2_depth_duration_MTurk/v2_DepthDuration_HTML.html#238,238,1366,768,1366,768,9-3-2022,9-9-52,94,depth_duration_stimuli/000943_2014-06-09_19-31-07_260595134347_rgbf000128-resize_1/000943_2014-06-09_19-31-07_260595134347_rgbf000128-resize_1-target.png,125,1.9765,2,3999,116,feet,jsons/VE125_randls_73.json,739698,1148004,36,Woman
94,391365,DepthScenes,duration_manipulation_targetAtFixation,jsons/VE125_randls_73.json,http://54.235.29.9/FacialAge/BNav_EC2/DepthDuration/v2_depth_duration_MTurk/v2_DepthDuration_HTML.html#238,238,1366,768,1366,768,9-3-2022,9-9-52,95,depth_duration_stimuli/001059_2014-06-08_21-53-27_260595134347_rgbf000061-resize_4/001059_2014-06-08_21-53-27_260595134347_rgbf000061-resize_4-target.png,125,2.4185,1,4070,122,feet,jsons/VE125_randls_73.json,739698,1148004,36,Woman
95,391365,DepthScenes,duration_manipulation_targetAtFixation,jsons/VE125_randls_73.json,http://54.235.29.9/FacialAge/BNav_EC2/DepthDuration/v2_depth_duration_MTurk/v2_DepthDuration_HTML.html#238,238,1366,768,1366,768,9-3-2022,9-9-52,96,depth_duration_stimuli/001032_2014-06-08_13-23-17_260595134347_rgbf000021-resize_3/001032_2014-06-08_13-23-17_260595134347_rgbf000021-resize_3-target.png,125,3.2725,2,3904,151,feet,jsons/VE125_randls_73.json,739698,1148004,36,Woman
96,391365,DepthScenes,duration_manipulation_targetAtFixation,jsons/VE125_randls_73.json,http://54.235.29.9/FacialAge/BNav_EC2/DepthDuration/v2_depth_duration_MTurk/v2_DepthDuration_HTML.html#238,238,1366,768,1366,768,9-3-2022,9-9-52,97,depth_duration_stimuli/002748_2014-06-22_19-07-22_094959634447_rgbf000078-resize_1/002748_2014-06-22_19-07-22_094959634447_rgbf000078-resize_1-target.png,125,4.6705,3,3550,130,feet,jsons/VE125_randls_73.json,739698,1148004,36,Woman
97,391365,DepthScenes,duration_manipulation_targetAtFixation,jsons/VE125_randls_73.json,http://54.235.29.9/FacialAge/BNav_EC2/DepthDuration/v2_depth_duration_MTurk/v2_DepthDuration_HTML.html#238,238,1366,768,1366,768,9-3-2022,9-9-52,98,depth_duration_stimuli/002995_2014-06-15_12-31-26_094959634447_rgbf000150-resize_1/002995_2014-06-15_12-31-26_094959634447_rgbf000150-resize_1-target.png,125,3.8360000000000003,3,3702,144,feet,jsons/VE125_randls_73.json,739698,1148004,36,Woman
98,391365,DepthScenes,duration_manipulation_targetAtFixation,jsons/VE125_randls_73.json,http://54.235.29.9/FacialAge/BNav_EC2/DepthDuration/v2_depth_duration_MTurk/v2_DepthDuration_HTML.html#238,238,1366,768,1366,768,9-3-2022,9-9-52,99,depth_duration_stimuli/001540_2014-06-20_17-01-05_260595134347_rgbf000086-resize_2/001540_2014-06-20_17-01-05_260595134347_rgbf000086-resize-original.jpg,125,1.459,1,4653,118,feet,jsons/VE125_randls_73.json,739698,1148004,36,Woman
99,391365,DepthScenes,duration_manipulation_targetAtFixation,jsons/VE125_randls_73.json,http://54.235.29.9/FacialAge/BNav_EC2/DepthDuration/v2_depth_duration_MTurk/v2_DepthDuration_HTML.html#238,238,1366,768,1366,768,9-3-2022,9-9-52,100,depth_duration_stimuli/002445_2014-06-28_20-32-16_260595134347_rgbf000029-resize_4/002445_2014-06-28_20-32-16_260595134347_rgbf000029-resize_4-target.png,125,2.5315,2,3970,149,feet,jsons/VE125_randls_73.json,739698,1148004,36,Woman
100,391365,DepthScenes,duration_manipulation_targetAtFixation,jsons/VE125_randls_73.json,http://54.235.29.9/FacialAge/BNav_EC2/DepthDuration/v2_depth_duration_MTurk/v2_DepthDuration_HTML.html#238,238,1366,768,1366,768,9-3-2022,9-9-52,101,depth_duration_stimuli/000780_2014-06-08_22-28-29_260595134347_rgbf000126-resize_1/000780_2014-06-08_22-28-29_260595134347_rgbf000126-resize_1-target.png,125,3.3825,3,4222,79,feet,jsons/VE125_randls_73.json,739698,1148004,36,Woman
101,391365,DepthScenes,duration_manipulation_targetAtFixation,jsons/VE125_randls_73.json,http://54.235.29.9/FacialAge/BNav_EC2/DepthDuration/v2_depth_duration_MTurk/v2_DepthDuration_HTML.html#238,238,1366,768,1366,768,9-3-2022,9-9-52,102,depth_duration_stimuli/000692_2014-06-08_13-09-42_260595134347_rgbf000199-resize_2/000692_2014-06-08_13-09-42_260595134347_rgbf000199-resize_2-target.png,125,3.661,3,3609,301,feet,jsons/VE125_randls_73.json,739698,1148004,36,Woman
102,391365,DepthScenes,duration_manipulation_targetAtFixation,jsons/VE125_randls_73.json,http://54.235.29.9/FacialAge/BNav_EC2/DepthDuration/v2_depth_duration_MTurk/v2_DepthDuration_HTML.html#238,238,1366,768,1366,768,9-3-2022,9-9-52,103,depth_duration_stimuli/001094_2014-06-15_17-36-00_260595134347_rgbf000205-resize_0/001094_2014-06-15_17-36-00_260595134347_rgbf000205-resize_0-target.png,125,4.2175,3,3638,129,feet,jsons/VE125_randls_73.json,739698,1148004,36,Woman
103,391365,DepthScenes,duration_manipulation_targetAtFixation,jsons/VE125_randls_73.json,http://54.235.29.9/FacialAge/BNav_EC2/DepthDuration/v2_depth_duration_MTurk/v2_DepthDuration_HTML.html#238,238,1366,768,1366,768,9-3-2022,9-9-52,104,depth_duration_stimuli/002043_2014-06-24_20-29-38_260595134347_rgbf000039-resize_4/002043_2014-06-24_20-29-38_260595134347_rgbf000039-resize_4-target.png,125,2.8435,2,4810,57,feet,jsons/VE125_randls_73.json,739698,1148004,36,Woman
104,391365,DepthScenes,duration_manipulation_targetAtFixation,jsons/VE125_randls_73.json,http://54.235.29.9/FacialAge/BNav_EC2/DepthDuration/v2_depth_duration_MTurk/v2_DepthDuration_HTML.html#238,238,1366,768,1366,768,9-3-2022,9-9-52,105,depth_duration_stimuli/003048_2014-06-15_13-49-43_094959634447_rgbf000150-resize_1/003048_2014-06-15_13-49-43_094959634447_rgbf000150-resize_1-target.png,125,4.0035,4,3274,123,feet,jsons/VE125_randls_73.json,739698,1148004,36,Woman
105,391365,DepthScenes,duration_manipulation_targetAtFixation,jsons/VE125_randls_73.json,http://54.235.29.9/FacialAge/BNav_EC2/DepthDuration/v2_depth_duration_MTurk/v2_DepthDuration_HTML.html#238,238,1366,768,1366,768,9-3-2022,9-9-52,106,depth_duration_stimuli/001244_2014-06-17_16-47-45_260595134347_rgbf000030-resize_4/001244_2014-06-17_16-47-45_260595134347_rgbf000030-resize_4-target.png,125,2.0425,2,3758,109,feet,jsons/VE125_randls_73.json,739698,1148004,36,Woman
106,391365,DepthScenes,duration_manipulation_targetAtFixation,jsons/VE125_randls_73.json,http://54.235.29.9/FacialAge/BNav_EC2/DepthDuration/v2_depth_duration_MTurk/v2_DepthDuration_HTML.html#238,238,1366,768,1366,768,9-3-2022,9-9-52,107,depth_duration_stimuli/003495_2014-05-21_16-01-51_094959634447_rgbf000100-resize_3/003495_2014-05-21_16-01-51_094959634447_rgbf000100-resize_3-target.png,125,1.6255,2,3968,110,feet,jsons/VE125_randls_73.json,739698,1148004,36,Woman
107,391365,DepthScenes,duration_manipulation_targetAtFixation,jsons/VE125_randls_73.json,http://54.235.29.9/FacialAge/BNav_EC2/DepthDuration/v2_depth_duration_MTurk/v2_DepthDuration_HTML.html#238,238,1366,768,1366,768,9-3-2022,9-9-52,108,depth_duration_stimuli/002988_2014-06-15_12-24-20_094959634447_rgbf000150-resize_1/002988_2014-06-15_12-24-20_094959634447_rgbf000150-resize_1-target.png,125,4.7669999999999995,3,3536,126,feet,jsons/VE125_randls_73.json,739698,1148004,36,Woman
108,391365,DepthScenes,duration_manipulation_targetAtFixation,jsons/VE125_randls_73.json,http://54.235.29.9/FacialAge/BNav_EC2/DepthDuration/v2_depth_duration_MTurk/v2_DepthDuration_HTML.html#238,238,1366,768,1366,768,9-3-2022,9-9-52,109,depth_duration_stimuli/001052_2014-06-08_18-24-54_260595134347_rgbf000130-resize_1/001052_2014-06-08_18-24-54_260595134347_rgbf000130-resize_1-target.png,125,4.1045,3,3476,114,feet,jsons/VE125_randls_73.json,739698,1148004,36,Woman
109,391365,DepthScenes,duration_manipulation_targetAtFixation,jsons/VE125_randls_73.json,http://54.235.29.9/FacialAge/BNav_EC2/DepthDuration/v2_depth_duration_MTurk/v2_DepthDuration_HTML.html#238,238,1366,768,1366,768,9-3-2022,9-9-52,110,depth_duration_stimuli/000642_2014-06-08_16-59-25_260595134347_rgbf000098-resize_2/000642_2014-06-08_16-59-25_260595134347_rgbf000098-resize_2-target.png,125,2.8815,2,3773,268,feet,jsons/VE125_randls_73.json,739698,1148004,36,Woman
110,391365,DepthScenes,duration_manipulation_targetAtFixation,jsons/VE125_randls_73.json,http://54.235.29.9/FacialAge/BNav_EC2/DepthDuration/v2_depth_duration_MTurk/v2_DepthDuration_HTML.html#238,238,1366,768,1366,768,9-3-2022,9-9-52,111,depth_duration_stimuli/002425_2014-06-28_20-27-29_260595134347_rgbf000031-resize_8/002425_2014-06-28_20-27-29_260595134347_rgbf000031-resize_8-target.png,125,3.8960000000000004,3,3400,125,feet,jsons/VE125_randls_73.json,739698,1148004,36,Woman
111,391365,DepthScenes,duration_manipulation_targetAtFixation,jsons/VE125_randls_73.json,http://54.235.29.9/FacialAge/BNav_EC2/DepthDuration/v2_depth_duration_MTurk/v2_DepthDuration_HTML.html#238,238,1366,768,1366,768,9-3-2022,9-9-52,112,depth_duration_stimuli/003534_2014-05-22_15-06-10_094959634447_rgbf000102-resize_4/003534_2014-05-22_15-06-10_094959634447_rgbf000102-resize_4-target.png,125,1.426,1,3438,264,feet,jsons/VE125_randls_73.json,739698,1148004,36,Woman
112,391365,DepthScenes,duration_manipulation_targetAtFixation,jsons/VE125_randls_73.json,http://54.235.29.9/FacialAge/BNav_EC2/DepthDuration/v2_depth_duration_MTurk/v2_DepthDuration_HTML.html#238,238,1366,768,1366,768,9-3-2022,9-9-52,113,depth_duration_stimuli/002637_2014-06-24_14-51-13_094959634447_rgbf000066-resize_4/002637_2014-06-24_14-51-13_094959634447_rgbf000066-resize_4-target.png,125,1.9955,2,3594,34,feet,jsons/VE125_randls_73.json,739698,1148004,36,Woman
113,391365,DepthScenes,duration_manipulation_targetAtFixation,jsons/VE125_randls_73.json,http://54.235.29.9/FacialAge/BNav_EC2/DepthDuration/v2_depth_duration_MTurk/v2_DepthDuration_HTML.html#238,238,1366,768,1366,768,9-3-2022,9-9-52,114,depth_duration_stimuli/002272_2014-06-28_18-53-56_260595134347_rgbf000067-resize_2/002272_2014-06-28_18-53-56_260595134347_rgbf000067-resize_2-target.png,125,1.138,2,3246,119,feet,jsons/VE125_randls_73.json,739698,1148004,36,Woman
114,391365,DepthScenes,duration_manipulation_targetAtFixation,jsons/VE125_randls_73.json,http://54.235.29.9/FacialAge/BNav_EC2/DepthDuration/v2_depth_duration_MTurk/v2_DepthDuration_HTML.html#238,238,1366,768,1366,768,9-3-2022,9-9-52,115,depth_duration_stimuli/001571_2014-06-20_17-21-32_260595134347_rgbf000089-resize_1/001571_2014-06-20_17-21-32_260595134347_rgbf000089-resize_1-target.png,125,1.86,2,5356,230,feet,jsons/VE125_randls_73.json,739698,1148004,36,Woman
115,391365,DepthScenes,duration_manipulation_targetAtFixation,jsons/VE125_randls_73.json,http://54.235.29.9/FacialAge/BNav_EC2/DepthDuration/v2_depth_duration_MTurk/v2_DepthDuration_HTML.html#238,238,1366,768,1366,768,9-3-2022,9-9-52,116,depth_duration_stimuli/001170_2014-06-17_15-43-44_260595134347_rgbf000096-resize_6/001170_2014-06-17_15-43-44_260595134347_rgbf000096-resize-original.jpg,125,1.1909999999999998,1,3950,125,feet,jsons/VE125_randls_73.json,739698,1148004,36,Woman
116,391365,DepthScenes,duration_manipulation_targetAtFixation,jsons/VE125_randls_73.json,http://54.235.29.9/FacialAge/BNav_EC2/DepthDuration/v2_depth_duration_MTurk/v2_DepthDuration_HTML.html#238,238,1366,768,1366,768,9-3-2022,9-9-52,117,depth_duration_stimuli/002989_2014-06-15_12-25-03_094959634447_rgbf000150-resize_3/002989_2014-06-15_12-25-03_094959634447_rgbf000150-resize_3-target.png,125,4.1975,3,3129,113,feet,jsons/VE125_randls_73.json,739698,1148004,36,Woman
117,391365,DepthScenes,duration_manipulation_targetAtFixation,jsons/VE125_randls_73.json,http://54.235.29.9/FacialAge/BNav_EC2/DepthDuration/v2_depth_duration_MTurk/v2_DepthDuration_HTML.html#238,238,1366,768,1366,768,9-3-2022,9-9-52,118,depth_duration_stimuli/000866_2014-06-09_20-45-42_260595134347_rgbf000139-resize_1/000866_2014-06-09_20-45-42_260595134347_rgbf000139-resize_1-target.png,125,3.2155,0,3727,26,feet,jsons/VE125_randls_73.json,739698,1148004,36,Woman
118,391365,DepthScenes,duration_manipulation_targetAtFixation,jsons/VE125_randls_73.json,http://54.235.29.9/FacialAge/BNav_EC2/DepthDuration/v2_depth_duration_MTurk/v2_DepthDuration_HTML.html#238,238,1366,768,1366,768,9-3-2022,9-9-52,119,depth_duration_stimuli/001810_2014-06-26_20-51-35_260595134347_rgbf000040-resize_3/001810_2014-06-26_20-51-35_260595134347_rgbf000040-resize_3-target.png,125,2.2525,2,3327,218,feet,jsons/VE125_randls_73.json,739698,1148004,36,Woman
119,391365,DepthScenes,duration_manipulation_targetAtFixation,jsons/VE125_randls_73.json,http://54.235.29.9/FacialAge/BNav_EC2/DepthDuration/v2_depth_duration_MTurk/v2_DepthDuration_HTML.html#238,238,1366,768,1366,768,9-3-2022,9-9-52,120,depth_duration_stimuli/003010_2014-06-15_12-54-35_094959634447_rgbf000112-resize_0/003010_2014-06-15_12-54-35_094959634447_rgbf000112-resize_0-target.png,125,3.1185,4,3475,117,feet,jsons/VE125_randls_73.json,739698,1148004,36,Woman
120,391365,DepthScenes,duration_manipulation_targetAtFixation,jsons/VE125_randls_73.json,http://54.235.29.9/FacialAge/BNav_EC2/DepthDuration/v2_depth_duration_MTurk/v2_DepthDuration_HTML.html#238,238,1366,768,1366,768,9-3-2022,9-9-52,121,depth_duration_stimuli/000739_2014-06-08_18-45-58_260595134347_rgbf000068-resize_1/000739_2014-06-08_18-45-58_260595134347_rgbf000068-resize_1-target.png,125,3.534,3,3566,121,feet,jsons/VE125_randls_73.json,739698,1148004,36,Woman
121,391365,DepthScenes,duration_manipulation_targetAtFixation,jsons/VE125_randls_73.json,http://54.235.29.9/FacialAge/BNav_EC2/DepthDuration/v2_depth_duration_MTurk/v2_DepthDuration_HTML.html#238,238,1366,768,1366,768,9-3-2022,9-9-52,122,depth_duration_stimuli/000734_2014-06-08_17-39-11_260595134347_rgbf000128-resize_2/000734_2014-06-08_17-39-11_260595134347_rgbf000128-resize_2-target.png,125,4.098,3,3993,74,feet,jsons/VE125_randls_73.json,739698,1148004,36,Woman
122,391365,DepthScenes,duration_manipulation_targetAtFixation,jsons/VE125_randls_73.json,http://54.235.29.9/FacialAge/BNav_EC2/DepthDuration/v2_depth_duration_MTurk/v2_DepthDuration_HTML.html#238,238,1366,768,1366,768,9-3-2022,9-9-52,123,depth_duration_stimuli/000470_2014-06-09_19-42-40_260595134347_rgbf000094-resize_1/000470_2014-06-09_19-42-40_260595134347_rgbf000094-resize_1-target.png,125,1.831,2,4002,104,feet,jsons/VE125_randls_73.json,739698,1148004,36,Woman
123,391365,DepthScenes,duration_manipulation_targetAtFixation,jsons/VE125_randls_73.json,http://54.235.29.9/FacialAge/BNav_EC2/DepthDuration/v2_depth_duration_MTurk/v2_DepthDuration_HTML.html#238,238,1366,768,1366,768,9-3-2022,9-9-52,124,depth_duration_stimuli/000109_2014-05-14_23-41-52_260595134347_rgbf000035-resize_9/000109_2014-05-14_23-41-52_260595134347_rgbf000035-resize_9-target.png,125,1.3545,2,4509,124,feet,jsons/VE125_randls_73.json,739698,1148004,36,Woman
124,391365,DepthScenes,duration_manipulation_targetAtFixation,jsons/VE125_randls_73.json,http://54.235.29.9/FacialAge/BNav_EC2/DepthDuration/v2_depth_duration_MTurk/v2_DepthDuration_HTML.html#238,238,1366,768,1366,768,9-3-2022,9-9-52,125,depth_duration_stimuli/002905_2014-06-03_18-04-43_094959634447_rgbf000151-resize_2/002905_2014-06-03_18-04-43_094959634447_rgbf000151-resize_2-target.png,125,2.0295,2,3792,123,feet,jsons/VE125_randls_73.json,739698,1148004,36,Woman
125,391365,DepthScenes,duration_manipulation_targetAtFixation,jsons/VE125_randls_73.json,http://54.235.29.9/FacialAge/BNav_EC2/DepthDuration/v2_depth_duration_MTurk/v2_DepthDuration_HTML.html#238,238,1366,768,1366,768,9-3-2022,9-9-52,126,depth_duration_stimuli/003423_2014-05-21_10-23-26_094959634447_rgbf002665-resize_2/003423_2014-05-21_10-23-26_094959634447_rgbf002665-resize_2-target.png,125,3.2575,1,3643,117,feet,jsons/VE125_randls_73.json,739698,1148004,36,Woman
126,391365,DepthScenes,duration_manipulation_targetAtFixation,jsons/VE125_randls_73.json,http://54.235.29.9/FacialAge/BNav_EC2/DepthDuration/v2_depth_duration_MTurk/v2_DepthDuration_HTML.html#238,238,1366,768,1366,768,9-3-2022,9-9-52,127,depth_duration_stimuli/001570_2014-06-20_17-21-09_260595134347_rgbf000135-resize_4/001570_2014-06-20_17-21-09_260595134347_rgbf000135-resize_4-target.png,125,4.467,2,3512,122,feet,jsons/VE125_randls_73.json,739698,1148004,36,Woman
127,391365,DepthScenes,duration_manipulation_targetAtFixation,jsons/VE125_randls_73.json,http://54.235.29.9/FacialAge/BNav_EC2/DepthDuration/v2_depth_duration_MTurk/v2_DepthDuration_HTML.html#238,238,1366,768,1366,768,9-3-2022,9-9-52,128,depth_duration_stimuli/001392_2014-06-19_16-07-59_260595134347_rgbf000046-resize_1/001392_2014-06-19_16-07-59_260595134347_rgbf000046-resize_1-target.png,125,4.135,3,4312,127,feet,jsons/VE125_randls_73.json,739698,1148004,36,Woman
128,391365,DepthScenes,duration_manipulation_targetAtFixation,jsons/VE125_randls_73.json,http://54.235.29.9/FacialAge/BNav_EC2/DepthDuration/v2_depth_duration_MTurk/v2_DepthDuration_HTML.html#238,238,1366,768,1366,768,9-3-2022,9-9-52,129,depth_duration_stimuli/002509_2014-06-24_13-19-22_094959634447_rgbf000077-resize_0/002509_2014-06-24_13-19-22_094959634447_rgbf000077-resize_0-target.png,125,1.3065,2,3764,129,feet,jsons/VE125_randls_73.json,739698,1148004,36,Woman
129,391365,DepthScenes,duration_manipulation_targetAtFixation,jsons/VE125_randls_73.json,http://54.235.29.9/FacialAge/BNav_EC2/DepthDuration/v2_depth_duration_MTurk/v2_DepthDuration_HTML.html#238,238,1366,768,1366,768,9-3-2022,9-9-52,130,depth_duration_stimuli/003338_2014-05-20_11-01-23_094959634447_rgbf000051-resize_6/003338_2014-05-20_11-01-23_094959634447_rgbf000051-resize_6-target.png,125,1.693,2,4457,115,feet,jsons/VE125_randls_73.json,739698,1148004,36,Woman
130,391365,DepthScenes,duration_manipulation_targetAtFixation,jsons/VE125_randls_73.json,http://54.235.29.9/FacialAge/BNav_EC2/DepthDuration/v2_depth_duration_MTurk/v2_DepthDuration_HTML.html#238,238,1366,768,1366,768,9-3-2022,9-9-52,131,depth_duration_stimuli/000506_2014-06-08_23-21-00_260595134347_rgbf000070-resize_7/000506_2014-06-08_23-21-00_260595134347_rgbf000070-resize_7-target.png,125,4.0585,2,3380,137,feet,jsons/VE125_randls_73.json,739698,1148004,36,Woman
131,391365,DepthScenes,duration_manipulation_targetAtFixation,jsons/VE125_randls_73.json,http://54.235.29.9/FacialAge/BNav_EC2/DepthDuration/v2_depth_duration_MTurk/v2_DepthDuration_HTML.html#238,238,1366,768,1366,768,9-3-2022,9-9-52,132,depth_duration_stimuli/003079_2014-06-15_15-18-20_094959634447_rgbf000152-resize_8/003079_2014-06-15_15-18-20_094959634447_rgbf000152-resize_8-target.png,125,2.8775,4,4025,126,feet,jsons/VE125_randls_73.json,739698,1148004,36,Woman
132,391365,DepthScenes,duration_manipulation_targetAtFixation,jsons/VE125_randls_73.json,http://54.235.29.9/FacialAge/BNav_EC2/DepthDuration/v2_depth_duration_MTurk/v2_DepthDuration_HTML.html#238,238,1366,768,1366,768,9-3-2022,9-9-52,133,depth_duration_stimuli/001164_2014-06-17_15-35-46_260595134347_rgbf000085-resize_3/001164_2014-06-17_15-35-46_260595134347_rgbf000085-resize_3-target.png,125,2.354,4,5041,123,feet,jsons/VE125_randls_73.json,739698,1148004,36,Woman
133,391365,DepthScenes,duration_manipulation_targetAtFixation,jsons/VE125_randls_73.json,http://54.235.29.9/FacialAge/BNav_EC2/DepthDuration/v2_depth_duration_MTurk/v2_DepthDuration_HTML.html#238,238,1366,768,1366,768,9-3-2022,9-9-52,134,depth_duration_stimuli/001136_2014-06-17_15-19-41_260595134347_rgbf000076-resize_3/001136_2014-06-17_15-19-41_260595134347_rgbf000076-resize_3-target.png,125,1.8655,3,4373,122,feet,jsons/VE125_randls_73.json,739698,1148004,36,Woman
134,391365,DepthScenes,duration_manipulation_targetAtFixation,jsons/VE125_randls_73.json,http://54.235.29.9/FacialAge/BNav_EC2/DepthDuration/v2_depth_duration_MTurk/v2_DepthDuration_HTML.html#238,238,1366,768,1366,768,9-3-2022,9-9-52,135,depth_duration_stimuli/002072_2014-06-24_21-48-06_260595134347_rgbf000115-resize_0/002072_2014-06-24_21-48-06_260595134347_rgbf000115-resize-original.jpg,125,4.702,2,3820,115,feet,jsons/VE125_randls_73.json,739698,1148004,36,Woman
135,391365,DepthScenes,duration_manipulation_targetAtFixation,jsons/VE125_randls_73.json,http://54.235.29.9/FacialAge/BNav_EC2/DepthDuration/v2_depth_duration_MTurk/v2_DepthDuration_HTML.html#238,238,1366,768,1366,768,9-3-2022,9-9-52,136,depth_duration_stimuli/000788_2014-06-08_22-34-36_260595134347_rgbf000131-resize_1/000788_2014-06-08_22-34-36_260595134347_rgbf000131-resize_1-target.png,125,3.359,2,3467,149,feet,jsons/VE125_randls_73.json,739698,1148004,36,Woman
136,391365,DepthScenes,duration_manipulation_targetAtFixation,jsons/VE125_randls_73.json,http://54.235.29.9/FacialAge/BNav_EC2/DepthDuration/v2_depth_duration_MTurk/v2_DepthDuration_HTML.html#238,238,1366,768,1366,768,9-3-2022,9-9-52,137,depth_duration_stimuli/001235_2014-06-17_16-37-36_260595134347_rgbf000084-resize_4/001235_2014-06-17_16-37-36_260595134347_rgbf000084-resize_4-target.png,125,3.6605,3,3460,124,feet,jsons/VE125_randls_73.json,739698,1148004,36,Woman
137,391365,DepthScenes,duration_manipulation_targetAtFixation,jsons/VE125_randls_73.json,http://54.235.29.9/FacialAge/BNav_EC2/DepthDuration/v2_depth_duration_MTurk/v2_DepthDuration_HTML.html#238,238,1366,768,1366,768,9-3-2022,9-9-52,138,depth_duration_stimuli/000522_2014-06-08_13-35-06_260595134347_rgbf000244-resize_1/000522_2014-06-08_13-35-06_260595134347_rgbf000244-resize_1-target.png,125,2.3715,1,4027,22,feet,jsons/VE125_randls_73.json,739698,1148004,36,Woman
138,391365,DepthScenes,duration_manipulation_targetAtFixation,jsons/VE125_randls_73.json,http://54.235.29.9/FacialAge/BNav_EC2/DepthDuration/v2_depth_duration_MTurk/v2_DepthDuration_HTML.html#238,238,1366,768,1366,768,9-3-2022,9-9-52,139,depth_duration_stimuli/002949_2014-06-26_15-57-42_094959634447_rgbf000079-resize_1/002949_2014-06-26_15-57-42_094959634447_rgbf000079-resize_1-target.png,125,1.8915,2,3458,114,feet,jsons/VE125_randls_73.json,739698,1148004,36,Woman
139,391365,DepthScenes,duration_manipulation_targetAtFixation,jsons/VE125_randls_73.json,http://54.235.29.9/FacialAge/BNav_EC2/DepthDuration/v2_depth_duration_MTurk/v2_DepthDuration_HTML.html#238,238,1366,768,1366,768,9-3-2022,9-9-52,140,depth_duration_stimuli/001092_2014-06-15_17-34-58_260595134347_rgbf000171-resize_3/001092_2014-06-15_17-34-58_260595134347_rgbf000171-resize_3-target.png,125,2.6935,2,3482,125,feet,jsons/VE125_randls_73.json,739698,1148004,36,Woman
140,391365,DepthScenes,duration_manipulation_targetAtFixation,jsons/VE125_randls_73.json,http://54.235.29.9/FacialAge/BNav_EC2/DepthDuration/v2_depth_duration_MTurk/v2_DepthDuration_HTML.html#238,238,1366,768,1366,768,9-3-2022,9-9-52,141,depth_duration_stimuli/002545_2014-06-24_13-38-53_094959634447_rgbf000080-resize_4/002545_2014-06-24_13-38-53_094959634447_rgbf000080-resize_4-target.png,125,1.9205,3,6680,96,feet,jsons/VE125_randls_73.json,739698,1148004,36,Woman
141,391365,DepthScenes,duration_manipulation_targetAtFixation,jsons/VE125_randls_73.json,http://54.235.29.9/FacialAge/BNav_EC2/DepthDuration/v2_depth_duration_MTurk/v2_DepthDuration_HTML.html#238,238,1366,768,1366,768,9-3-2022,9-9-52,142,depth_duration_stimuli/001167_2014-06-17_15-38-07_260595134347_rgbf000108-resize_0/001167_2014-06-17_15-38-07_260595134347_rgbf000108-resize_0-target.png,125,1.8505,2,3292,119,feet,jsons/VE125_randls_73.json,739698,1148004,36,Woman
142,391365,DepthScenes,duration_manipulation_targetAtFixation,jsons/VE125_randls_73.json,http://54.235.29.9/FacialAge/BNav_EC2/DepthDuration/v2_depth_duration_MTurk/v2_DepthDuration_HTML.html#238,238,1366,768,1366,768,9-3-2022,9-9-52,143,depth_duration_stimuli/003587_2014-05-23_16-48-02_094959634447_rgbf002384-resize_2/003587_2014-05-23_16-48-02_094959634447_rgbf002384-resize_2-target.png,125,1.357,2,3156,133,feet,jsons/VE125_randls_73.json,739698,1148004,36,Woman
143,391365,DepthScenes,duration_manipulation_targetAtFixation,jsons/VE125_randls_73.json,http://54.235.29.9/FacialAge/BNav_EC2/DepthDuration/v2_depth_duration_MTurk/v2_DepthDuration_HTML.html#238,238,1366,768,1366,768,9-3-2022,9-9-52,144,depth_duration_stimuli/001417_2014-06-19_16-25-36_260595134347_rgbf000115-resize_5/001417_2014-06-19_16-25-36_260595134347_rgbf000115-resize_5-target.png,125,4.6255,2,3218,225,feet,jsons/VE125_randls_73.json,739698,1148004,36,Woman
144,391365,DepthScenes,duration_manipulation_targetAtFixation,jsons/VE125_randls_73.json,http://54.235.29.9/FacialAge/BNav_EC2/DepthDuration/v2_depth_duration_MTurk/v2_DepthDuration_HTML.html#238,238,1366,768,1366,768,9-3-2022,9-9-52,145,depth_duration_stimuli/003081_2014-06-15_15-19-16_094959634447_rgbf000150-resize_1/003081_2014-06-15_15-19-16_094959634447_rgbf000150-resize_1-target.png,125,3.9125,3,3623,127,feet,jsons/VE125_randls_73.json,739698,1148004,36,Woman
145,391365,DepthScenes,duration_manipulation_targetAtFixation,jsons/VE125_randls_73.json,http://54.235.29.9/FacialAge/BNav_EC2/DepthDuration/v2_depth_duration_MTurk/v2_DepthDuration_HTML.html#238,238,1366,768,1366,768,9-3-2022,9-9-52,146,depth_duration_stimuli/001498_2014-06-19_17-45-14_260595134347_rgbf000129-resize_4/001498_2014-06-19_17-45-14_260595134347_rgbf000129-resize-original.jpg,125,1.4075,1,3970,125,feet,jsons/VE125_randls_73.json,739698,1148004,36,Woman
146,391365,DepthScenes,duration_manipulation_targetAtFixation,jsons/VE125_randls_73.json,http://54.235.29.9/FacialAge/BNav_EC2/DepthDuration/v2_depth_duration_MTurk/v2_DepthDuration_HTML.html#238,238,1366,768,1366,768,9-3-2022,9-9-52,147,depth_duration_stimuli/001056_2014-06-08_18-46-44_260595134347_rgbf000068-resize_0/001056_2014-06-08_18-46-44_260595134347_rgbf000068-resize_0-target.png,125,2.6625,3,4107,123,feet,jsons/VE125_randls_73.json,739698,1148004,36,Woman
147,391365,DepthScenes,duration_manipulation_targetAtFixation,jsons/VE125_randls_73.json,http://54.235.29.9/FacialAge/BNav_EC2/DepthDuration/v2_depth_duration_MTurk/v2_DepthDuration_HTML.html#238,238,1366,768,1366,768,9-3-2022,9-9-52,148,depth_duration_stimuli/002199_2014-06-28_18-33-56_260595134347_rgbf000074-resize_0/002199_2014-06-28_18-33-56_260595134347_rgbf000074-resize_0-target.png,125,1.996,3,4423,122,feet,jsons/VE125_randls_73.json,739698,1148004,36,Woman
148,391365,DepthScenes,duration_manipulation_targetAtFixation,jsons/VE125_randls_73.json,http://54.235.29.9/FacialAge/BNav_EC2/DepthDuration/v2_depth_duration_MTurk/v2_DepthDuration_HTML.html#238,238,1366,768,1366,768,9-3-2022,9-9-52,149,depth_duration_stimuli/001175_2014-06-17_15-45-55_260595134347_rgbf000129-resize_4/001175_2014-06-17_15-45-55_260595134347_rgbf000129-resize_4-target.png,125,4.255,3,3868,128,feet,jsons/VE125_randls_73.json,739698,1148004,36,Woman
149,391365,DepthScenes,duration_manipulation_targetAtFixation,jsons/VE125_randls_73.json,http://54.235.29.9/FacialAge/BNav_EC2/DepthDuration/v2_depth_duration_MTurk/v2_DepthDuration_HTML.html#238,238,1366,768,1366,768,9-3-2022,9-9-52,150,depth_duration_stimuli/003490_2014-05-21_15-50-11_094959634447_rgbf000101-resize_3/003490_2014-05-21_15-50-11_094959634447_rgbf000101-resize_3-target.png,125,3.6445,0,3832,24,feet,jsons/VE125_randls_73.json,739698,1148004,36,Woman
150,391365,DepthScenes,duration_manipulation_targetAtFixation,jsons/VE125_randls_73.json,http://54.235.29.9/FacialAge/BNav_EC2/DepthDuration/v2_depth_duration_MTurk/v2_DepthDuration_HTML.html#238,238,1366,768,1366,768,9-3-2022,9-9-52,151,depth_duration_stimuli/002375_2014-06-28_20-13-44_260595134347_rgbf000032-resize_1/002375_2014-06-28_20-13-44_260595134347_rgbf000032-resize_1-target.png,125,4.0175,2,3922,104,feet,jsons/VE125_randls_73.json,739698,1148004,36,Woman
151,391365,DepthScenes,duration_manipulation_targetAtFixation,jsons/VE125_randls_73.json,http://54.235.29.9/FacialAge/BNav_EC2/DepthDuration/v2_depth_duration_MTurk/v2_DepthDuration_HTML.html#238,238,1366,768,1366,768,9-3-2022,9-9-52,152,depth_duration_stimuli/002657_2014-06-13_15-29-54_094959634447_rgbf000150-resize_1/002657_2014-06-13_15-29-54_094959634447_rgbf000150-resize_1-target.png,125,4.919,0,4691,120,feet,jsons/VE125_randls_73.json,739698,1148004,36,Woman
152,391365,DepthScenes,duration_manipulation_targetAtFixation,jsons/VE125_randls_73.json,http://54.235.29.9/FacialAge/BNav_EC2/DepthDuration/v2_depth_duration_MTurk/v2_DepthDuration_HTML.html#238,238,1366,768,1366,768,9-3-2022,9-9-52,153,depth_duration_stimuli/002118_2014-06-25_20-32-08_260595134347_rgbf000078-resize_1/002118_2014-06-25_20-32-08_260595134347_rgbf000078-resize_1-target.png,125,2.6460000000000004,2,5140,129,feet,jsons/VE125_randls_73.json,739698,1148004,36,Woman
153,391365,DepthScenes,duration_manipulation_targetAtFixation,jsons/VE125_randls_73.json,http://54.235.29.9/FacialAge/BNav_EC2/DepthDuration/v2_depth_duration_MTurk/v2_DepthDuration_HTML.html#238,238,1366,768,1366,768,9-3-2022,9-9-52,154,depth_duration_stimuli/001516_2014-06-20_16-25-09_260595134347_rgbf000076-resize_2/001516_2014-06-20_16-25-09_260595134347_rgbf000076-resize_2-target.png,125,1.7445,0,4498,119,feet,jsons/VE125_randls_73.json,739698,1148004,36,Woman
154,391365,DepthScenes,duration_manipulation_targetAtFixation,jsons/VE125_randls_73.json,http://54.235.29.9/FacialAge/BNav_EC2/DepthDuration/v2_depth_duration_MTurk/v2_DepthDuration_HTML.html#238,238,1366,768,1366,768,9-3-2022,9-9-52,155,depth_duration_stimuli/000929_2014-06-09_16-33-19_260595134347_rgbf000139-resize_0/000929_2014-06-09_16-33-19_260595134347_rgbf000139-resize_0-target.png,125,2.8680000000000003,2,3452,116,feet,jsons/VE125_randls_73.json,739698,1148004,36,Woman
155,391365,DepthScenes,duration_manipulation_targetAtFixation,jsons/VE125_randls_73.json,http://54.235.29.9/FacialAge/BNav_EC2/DepthDuration/v2_depth_duration_MTurk/v2_DepthDuration_HTML.html#238,238,1366,768,1366,768,9-3-2022,9-9-52,156,depth_duration_stimuli/000457_2014-06-08_16-52-43_260595134347_rgbf000199-resize_1/000457_2014-06-08_16-52-43_260595134347_rgbf000199-resize_1-target.png,125,3.6489999999999996,3,3789,127,feet,jsons/VE125_randls_73.json,739698,1148004,36,Woman
156,391365,DepthScenes,duration_manipulation_targetAtFixation,jsons/VE125_randls_73.json,http://54.235.29.9/FacialAge/BNav_EC2/DepthDuration/v2_depth_duration_MTurk/v2_DepthDuration_HTML.html#238,238,1366,768,1366,768,9-3-2022,9-9-52,157,depth_duration_stimuli/001133_2014-06-17_14-49-16_260595134347_rgbf000100-resize_0/001133_2014-06-17_14-49-16_260595134347_rgbf000100-resize_0-target.png,125,4.2115,2,3402,133,feet,jsons/VE125_randls_73.json,739698,1148004,36,Woman
157,391365,DepthScenes,duration_manipulation_targetAtFixation,jsons/VE125_randls_73.json,http://54.235.29.9/FacialAge/BNav_EC2/DepthDuration/v2_depth_duration_MTurk/v2_DepthDuration_HTML.html#238,238,1366,768,1366,768,9-3-2022,9-9-52,158,depth_duration_stimuli/001132_2014-06-17_14-48-54_260595134347_rgbf000100-resize_2/001132_2014-06-17_14-48-54_260595134347_rgbf000100-resize_2-target.png,125,3.753,2,3688,125,feet,jsons/VE125_randls_73.json,739698,1148004,36,Woman
158,391365,DepthScenes,duration_manipulation_targetAtFixation,jsons/VE125_randls_73.json,http://54.235.29.9/FacialAge/BNav_EC2/DepthDuration/v2_depth_duration_MTurk/v2_DepthDuration_HTML.html#238,238,1366,768,1366,768,9-3-2022,9-9-52,159,depth_duration_stimuli/003492_2014-05-21_15-50-55_094959634447_rgbf000828-resize_1/003492_2014-05-21_15-50-55_094959634447_rgbf000828-resize_1-target.png,125,4.06875,2,3331,132,feet,jsons/VE125_randls_73.json,739698,1148004,36,Woman
159,391365,DepthScenes,duration_manipulation_targetAtFixation,jsons/VE125_randls_73.json,http://54.235.29.9/FacialAge/BNav_EC2/DepthDuration/v2_depth_duration_MTurk/v2_DepthDuration_HTML.html#238,238,1366,768,1366,768,9-3-2022,9-9-52,160,depth_duration_stimuli/002568_2014-06-24_13-59-21_094959634447_rgbf000062-resize_4/002568_2014-06-24_13-59-21_094959634447_rgbf000062-resize_4-target.png,125,3.015,2,3520,130,feet,jsons/VE125_randls_73.json,739698,1148004,36,Woman
160,391365,DepthScenes,duration_manipulation_targetAtFixation,jsons/VE125_randls_73.json,http://54.235.29.9/FacialAge/BNav_EC2/DepthDuration/v2_depth_duration_MTurk/v2_DepthDuration_HTML.html#238,238,1366,768,1366,768,9-3-2022,9-9-52,161,depth_duration_stimuli/002630_2014-06-24_14-47-50_094959634447_rgbf000055-resize_1/002630_2014-06-24_14-47-50_094959634447_rgbf000055-resize_1-target.png,125,3.0095,3,3493,110,feet,jsons/VE125_randls_73.json,739698,1148004,36,Woman
161,391365,DepthScenes,duration_manipulation_targetAtFixation,jsons/VE125_randls_73.json,http://54.235.29.9/FacialAge/BNav_EC2/DepthDuration/v2_depth_duration_MTurk/v2_DepthDuration_HTML.html#238,238,1366,768,1366,768,9-3-2022,9-9-52,162,depth_duration_stimuli/002758_2014-06-22_19-11-20_094959634447_rgbf000128-resize_1/002758_2014-06-22_19-11-20_094959634447_rgbf000128-resize_1-target.png,125,2.555,2,3360,117,feet,jsons/VE125_randls_73.json,739698,1148004,36,Woman
162,391365,DepthScenes,duration_manipulation_targetAtFixation,jsons/VE125_randls_73.json,http://54.235.29.9/FacialAge/BNav_EC2/DepthDuration/v2_depth_duration_MTurk/v2_DepthDuration_HTML.html#238,238,1366,768,1366,768,9-3-2022,9-9-52,163,depth_duration_stimuli/002788_2014-06-22_19-36-03_094959634447_rgbf000088-resize_2/002788_2014-06-22_19-36-03_094959634447_rgbf000088-resize_2-target.png,125,1.6465,3,3405,132,feet,jsons/VE125_randls_73.json,739698,1148004,36,Woman
163,391365,DepthScenes,duration_manipulation_targetAtFixation,jsons/VE125_randls_73.json,http://54.235.29.9/FacialAge/BNav_EC2/DepthDuration/v2_depth_duration_MTurk/v2_DepthDuration_HTML.html#238,238,1366,768,1366,768,9-3-2022,9-9-52,164,depth_duration_stimuli/000749_2014-06-08_21-55-06_260595134347_rgbf000070-resize_2/000749_2014-06-08_21-55-06_260595134347_rgbf000070-resize_2-target.png,125,2.331,2,3158,118,feet,jsons/VE125_randls_73.json,739698,1148004,36,Woman
