,subjID,experimentName,versionName,sequenceName,url,selected_row,windowWidth,windowHeight,screenWidth,screenHeight,startDate,startTime,trial,stimulus,duration,actual_depth,depth_estimate,trial_RT,log_sceneDuration,unitSelection,seq_filepath,experimentTime,totalTime,age,gender
0,392029,DepthScenes,duration_manipulation_targetAtFixation,jsons/VE125_randls_45_rotated.json,http://54.235.29.9/FacialAge/BNav_EC2/DepthDuration/v2_depth_duration_MTurk/v2_DepthDuration_HTML.html#294,294,1366,657,1366,768,9-3-2022,14-40-20,1,depth_duration_stimuli/000943_2014-06-09_19-31-07_260595134347_rgbf000128-resize_1/000943_2014-06-09_19-31-07_260595134347_rgbf000128-resize_1-target.png,125,1.9765,4,3128,148,feet,jsons/VE125_randls_45_rotated.json,2024367,2206103,41,Man
1,392029,DepthScenes,duration_manipulation_targetAtFixation,jsons/VE125_randls_45_rotated.json,http://54.235.29.9/FacialAge/BNav_EC2/DepthDuration/v2_depth_duration_MTurk/v2_DepthDuration_HTML.html#294,294,1366,657,1366,768,9-3-2022,14-40-20,2,depth_duration_stimuli/003070_2014-06-15_14-58-27_094959634447_rgbf000150-resize_3/003070_2014-06-15_14-58-27_094959634447_rgbf000150-resize_3-target.png,125,2.9415,6,2602,124,feet,jsons/VE125_randls_45_rotated.json,2024367,2206103,41,Man
2,392029,DepthScenes,duration_manipulation_targetAtFixation,jsons/VE125_randls_45_rotated.json,http://54.235.29.9/FacialAge/BNav_EC2/DepthDuration/v2_depth_duration_MTurk/v2_DepthDuration_HTML.html#294,294,1366,657,1366,768,9-3-2022,14-40-20,3,depth_duration_stimuli/001571_2014-06-20_17-21-32_260595134347_rgbf000089-resize_1/001571_2014-06-20_17-21-32_260595134347_rgbf000089-resize_1-target.png,125,1.86,5,3725,124,feet,jsons/VE125_randls_45_rotated.json,2024367,2206103,41,Man
3,392029,DepthScenes,duration_manipulation_targetAtFixation,jsons/VE125_randls_45_rotated.json,http://54.235.29.9/FacialAge/BNav_EC2/DepthDuration/v2_depth_duration_MTurk/v2_DepthDuration_HTML.html#294,294,1366,657,1366,768,9-3-2022,14-40-20,4,depth_duration_stimuli/002272_2014-06-28_18-53-56_260595134347_rgbf000067-resize_2/002272_2014-06-28_18-53-56_260595134347_rgbf000067-resize_2-target.png,125,1.138,6,2329,124,feet,jsons/VE125_randls_45_rotated.json,2024367,2206103,41,Man
4,392029,DepthScenes,duration_manipulation_targetAtFixation,jsons/VE125_randls_45_rotated.json,http://54.235.29.9/FacialAge/BNav_EC2/DepthDuration/v2_depth_duration_MTurk/v2_DepthDuration_HTML.html#294,294,1366,657,1366,768,9-3-2022,14-40-20,5,depth_duration_stimuli/002995_2014-06-15_12-31-26_094959634447_rgbf000150-resize_1/002995_2014-06-15_12-31-26_094959634447_rgbf000150-resize_1-target.png,125,3.8360000000000003,7,18442,173,feet,jsons/VE125_randls_45_rotated.json,2024367,2206103,41,Man
5,392029,DepthScenes,duration_manipulation_targetAtFixation,jsons/VE125_randls_45_rotated.json,http://54.235.29.9/FacialAge/BNav_EC2/DepthDuration/v2_depth_duration_MTurk/v2_DepthDuration_HTML.html#294,294,1366,657,1366,768,9-3-2022,14-40-20,6,depth_duration_stimuli/002748_2014-06-22_19-07-22_094959634447_rgbf000078-resize_1/002748_2014-06-22_19-07-22_094959634447_rgbf000078-resize_1-target.png,125,4.6705,12,2983,126,feet,jsons/VE125_randls_45_rotated.json,2024367,2206103,41,Man
6,392029,DepthScenes,duration_manipulation_targetAtFixation,jsons/VE125_randls_45_rotated.json,http://54.235.29.9/FacialAge/BNav_EC2/DepthDuration/v2_depth_duration_MTurk/v2_DepthDuration_HTML.html#294,294,1366,657,1366,768,9-3-2022,14-40-20,7,depth_duration_stimuli/000780_2014-06-08_22-28-29_260595134347_rgbf000126-resize_1/000780_2014-06-08_22-28-29_260595134347_rgbf000126-resize_1-target.png,125,3.3825,6,3678,120,feet,jsons/VE125_randls_45_rotated.json,2024367,2206103,41,Man
7,392029,DepthScenes,duration_manipulation_targetAtFixation,jsons/VE125_randls_45_rotated.json,http://54.235.29.9/FacialAge/BNav_EC2/DepthDuration/v2_depth_duration_MTurk/v2_DepthDuration_HTML.html#294,294,1366,657,1366,768,9-3-2022,14-40-20,8,depth_duration_stimuli/002445_2014-06-28_20-32-16_260595134347_rgbf000029-resize_4/002445_2014-06-28_20-32-16_260595134347_rgbf000029-resize_4-target.png,125,2.5315,7,2577,123,feet,jsons/VE125_randls_45_rotated.json,2024367,2206103,41,Man
8,392029,DepthScenes,duration_manipulation_targetAtFixation,jsons/VE125_randls_45_rotated.json,http://54.235.29.9/FacialAge/BNav_EC2/DepthDuration/v2_depth_duration_MTurk/v2_DepthDuration_HTML.html#294,294,1366,657,1366,768,9-3-2022,14-40-20,9,depth_duration_stimuli/001828_2014-06-26_21-40-03_260595134347_rgbf000024-resize_0/001828_2014-06-26_21-40-03_260595134347_rgbf000024-resize_0-target.png,125,4.8260000000000005,5,20308,129,feet,jsons/VE125_randls_45_rotated.json,2024367,2206103,41,Man
9,392029,DepthScenes,duration_manipulation_targetAtFixation,jsons/VE125_randls_45_rotated.json,http://54.235.29.9/FacialAge/BNav_EC2/DepthDuration/v2_depth_duration_MTurk/v2_DepthDuration_HTML.html#294,294,1366,657,1366,768,9-3-2022,14-40-20,10,depth_duration_stimuli/000009_2014-05-26_14-32-05_260595134347_rgbf000034-resize_3/000009_2014-05-26_14-32-05_260595134347_rgbf000034-resize_3-target.png,125,3.8715,11,2840,123,feet,jsons/VE125_randls_45_rotated.json,2024367,2206103,41,Man
10,392029,DepthScenes,duration_manipulation_targetAtFixation,jsons/VE125_randls_45_rotated.json,http://54.235.29.9/FacialAge/BNav_EC2/DepthDuration/v2_depth_duration_MTurk/v2_DepthDuration_HTML.html#294,294,1366,657,1366,768,9-3-2022,14-40-20,11,depth_duration_stimuli/001584_2014-06-20_11-07-43_260595134347_rgbf000002-resize_1/001584_2014-06-20_11-07-43_260595134347_rgbf000002-resize_1-target.png,125,3.53,7,3516,124,feet,jsons/VE125_randls_45_rotated.json,2024367,2206103,41,Man
11,392029,DepthScenes,duration_manipulation_targetAtFixation,jsons/VE125_randls_45_rotated.json,http://54.235.29.9/FacialAge/BNav_EC2/DepthDuration/v2_depth_duration_MTurk/v2_DepthDuration_HTML.html#294,294,1366,657,1366,768,9-3-2022,14-40-20,12,depth_duration_stimuli/003621_2014-05-23_18-06-08_094959634447_rgbf000101-resize_1/003621_2014-05-23_18-06-08_094959634447_rgbf000101-resize_1-target.png,125,3.9835,5,2479,138,feet,jsons/VE125_randls_45_rotated.json,2024367,2206103,41,Man
12,392029,DepthScenes,duration_manipulation_targetAtFixation,jsons/VE125_randls_45_rotated.json,http://54.235.29.9/FacialAge/BNav_EC2/DepthDuration/v2_depth_duration_MTurk/v2_DepthDuration_HTML.html#294,294,1366,657,1366,768,9-3-2022,14-40-20,13,depth_duration_stimuli/002678_2014-06-13_16-15-32_094959634447_rgbf000151-resize_6/002678_2014-06-13_16-15-32_094959634447_rgbf000151-resize_6-target.png,125,2.1830000000000003,7,3101,124,feet,jsons/VE125_randls_45_rotated.json,2024367,2206103,41,Man
13,392029,DepthScenes,duration_manipulation_targetAtFixation,jsons/VE125_randls_45_rotated.json,http://54.235.29.9/FacialAge/BNav_EC2/DepthDuration/v2_depth_duration_MTurk/v2_DepthDuration_HTML.html#294,294,1366,657,1366,768,9-3-2022,14-40-20,14,depth_duration_stimuli/000368_2014-06-09_15-53-01_260595134347_rgbf000155-resize_2/000368_2014-06-09_15-53-01_260595134347_rgbf000155-resize_2-target.png,125,2.4859999999999998,7,2496,125,feet,jsons/VE125_randls_45_rotated.json,2024367,2206103,41,Man
14,392029,DepthScenes,duration_manipulation_targetAtFixation,jsons/VE125_randls_45_rotated.json,http://54.235.29.9/FacialAge/BNav_EC2/DepthDuration/v2_depth_duration_MTurk/v2_DepthDuration_HTML.html#294,294,1366,657,1366,768,9-3-2022,14-40-20,15,depth_duration_stimuli/001136_2014-06-17_15-19-41_260595134347_rgbf000076-resize_3/001136_2014-06-17_15-19-41_260595134347_rgbf000076-resize_3-target.png,125,1.8655,8,2728,124,feet,jsons/VE125_randls_45_rotated.json,2024367,2206103,41,Man
15,392029,DepthScenes,duration_manipulation_targetAtFixation,jsons/VE125_randls_45_rotated.json,http://54.235.29.9/FacialAge/BNav_EC2/DepthDuration/v2_depth_duration_MTurk/v2_DepthDuration_HTML.html#294,294,1366,657,1366,768,9-3-2022,14-40-20,16,depth_duration_stimuli/001164_2014-06-17_15-35-46_260595134347_rgbf000085-resize_3/001164_2014-06-17_15-35-46_260595134347_rgbf000085-resize_3-target.png,125,2.354,8,2569,125,feet,jsons/VE125_randls_45_rotated.json,2024367,2206103,41,Man
16,392029,DepthScenes,duration_manipulation_targetAtFixation,jsons/VE125_randls_45_rotated.json,http://54.235.29.9/FacialAge/BNav_EC2/DepthDuration/v2_depth_duration_MTurk/v2_DepthDuration_HTML.html#294,294,1366,657,1366,768,9-3-2022,14-40-20,17,depth_duration_stimuli/003079_2014-06-15_15-18-20_094959634447_rgbf000152-resize_8/003079_2014-06-15_15-18-20_094959634447_rgbf000152-resize_8-target.png,125,2.8775,12,3164,91,feet,jsons/VE125_randls_45_rotated.json,2024367,2206103,41,Man
17,392029,DepthScenes,duration_manipulation_targetAtFixation,jsons/VE125_randls_45_rotated.json,http://54.235.29.9/FacialAge/BNav_EC2/DepthDuration/v2_depth_duration_MTurk/v2_DepthDuration_HTML.html#294,294,1366,657,1366,768,9-3-2022,14-40-20,18,depth_duration_stimuli/000506_2014-06-08_23-21-00_260595134347_rgbf000070-resize_7/000506_2014-06-08_23-21-00_260595134347_rgbf000070-resize_7-target.png,125,4.0585,7,2690,123,feet,jsons/VE125_randls_45_rotated.json,2024367,2206103,41,Man
18,392029,DepthScenes,duration_manipulation_targetAtFixation,jsons/VE125_randls_45_rotated.json,http://54.235.29.9/FacialAge/BNav_EC2/DepthDuration/v2_depth_duration_MTurk/v2_DepthDuration_HTML.html#294,294,1366,657,1366,768,9-3-2022,14-40-20,19,depth_duration_stimuli/001498_2014-06-19_17-45-14_260595134347_rgbf000129-resize_4/001498_2014-06-19_17-45-14_260595134347_rgbf000129-resize-original.jpg,125,1.4075,6,22428,123,feet,jsons/VE125_randls_45_rotated.json,2024367,2206103,41,Man
19,392029,DepthScenes,duration_manipulation_targetAtFixation,jsons/VE125_randls_45_rotated.json,http://54.235.29.9/FacialAge/BNav_EC2/DepthDuration/v2_depth_duration_MTurk/v2_DepthDuration_HTML.html#294,294,1366,657,1366,768,9-3-2022,14-40-20,20,depth_duration_stimuli/000742_2014-06-08_18-48-09_260595134347_rgbf000164-resize_4/000742_2014-06-08_18-48-09_260595134347_rgbf000164-resize_4-target.png,125,4.632,6,142142,17,feet,jsons/VE125_randls_45_rotated.json,2024367,2206103,41,Man
20,392029,DepthScenes,duration_manipulation_targetAtFixation,jsons/VE125_randls_45_rotated.json,http://54.235.29.9/FacialAge/BNav_EC2/DepthDuration/v2_depth_duration_MTurk/v2_DepthDuration_HTML.html#294,294,1366,657,1366,768,9-3-2022,14-40-20,21,depth_duration_stimuli/001066_2014-06-08_22-03-20_260595134347_rgbf000066-resize_4/001066_2014-06-08_22-03-20_260595134347_rgbf000066-resize_4-target.png,125,4.2330000000000005,7,2578,125,feet,jsons/VE125_randls_45_rotated.json,2024367,2206103,41,Man
21,392029,DepthScenes,duration_manipulation_targetAtFixation,jsons/VE125_randls_45_rotated.json,http://54.235.29.9/FacialAge/BNav_EC2/DepthDuration/v2_depth_duration_MTurk/v2_DepthDuration_HTML.html#294,294,1366,657,1366,768,9-3-2022,14-40-20,22,depth_duration_stimuli/000665_2014-06-09_20-42-35_260595134347_rgbf000110-resize_1/000665_2014-06-09_20-42-35_260595134347_rgbf000110-resize_1-target.png,125,3.057,5,12683,122,feet,jsons/VE125_randls_45_rotated.json,2024367,2206103,41,Man
22,392029,DepthScenes,duration_manipulation_targetAtFixation,jsons/VE125_randls_45_rotated.json,http://54.235.29.9/FacialAge/BNav_EC2/DepthDuration/v2_depth_duration_MTurk/v2_DepthDuration_HTML.html#294,294,1366,657,1366,768,9-3-2022,14-40-20,23,depth_duration_stimuli/001150_2014-06-17_15-27-34_260595134347_rgbf000108-resize_2/001150_2014-06-17_15-27-34_260595134347_rgbf000108-resize_2-target.png,125,4.0325,4,2158,137,feet,jsons/VE125_randls_45_rotated.json,2024367,2206103,41,Man
23,392029,DepthScenes,duration_manipulation_targetAtFixation,jsons/VE125_randls_45_rotated.json,http://54.235.29.9/FacialAge/BNav_EC2/DepthDuration/v2_depth_duration_MTurk/v2_DepthDuration_HTML.html#294,294,1366,657,1366,768,9-3-2022,14-40-20,24,depth_duration_stimuli/000866_2014-06-09_20-45-42_260595134347_rgbf000139-resize_1/000866_2014-06-09_20-45-42_260595134347_rgbf000139-resize_1-target.png,125,3.2155,5,2213,129,feet,jsons/VE125_randls_45_rotated.json,2024367,2206103,41,Man
24,392029,DepthScenes,duration_manipulation_targetAtFixation,jsons/VE125_randls_45_rotated.json,http://54.235.29.9/FacialAge/BNav_EC2/DepthDuration/v2_depth_duration_MTurk/v2_DepthDuration_HTML.html#294,294,1366,657,1366,768,9-3-2022,14-40-20,25,depth_duration_stimuli/002989_2014-06-15_12-25-03_094959634447_rgbf000150-resize_3/002989_2014-06-15_12-25-03_094959634447_rgbf000150-resize_3-target.png,125,4.1975,6,2653,135,feet,jsons/VE125_randls_45_rotated.json,2024367,2206103,41,Man
25,392029,DepthScenes,duration_manipulation_targetAtFixation,jsons/VE125_randls_45_rotated.json,http://54.235.29.9/FacialAge/BNav_EC2/DepthDuration/v2_depth_duration_MTurk/v2_DepthDuration_HTML.html#294,294,1366,657,1366,768,9-3-2022,14-40-20,26,depth_duration_stimuli/000677_2014-06-08_23-10-32_260595134347_rgbf000158-resize_6/000677_2014-06-08_23-10-32_260595134347_rgbf000158-resize_6-target.png,125,3.556,6,2278,118,feet,jsons/VE125_randls_45_rotated.json,2024367,2206103,41,Man
26,392029,DepthScenes,duration_manipulation_targetAtFixation,jsons/VE125_randls_45_rotated.json,http://54.235.29.9/FacialAge/BNav_EC2/DepthDuration/v2_depth_duration_MTurk/v2_DepthDuration_HTML.html#294,294,1366,657,1366,768,9-3-2022,14-40-20,27,depth_duration_stimuli/001029_2014-06-08_13-17-57_260595134347_rgbf000065-resize_1/001029_2014-06-08_13-17-57_260595134347_rgbf000065-resize_1-target.png,125,3.0835,5,2173,130,feet,jsons/VE125_randls_45_rotated.json,2024367,2206103,41,Man
27,392029,DepthScenes,duration_manipulation_targetAtFixation,jsons/VE125_randls_45_rotated.json,http://54.235.29.9/FacialAge/BNav_EC2/DepthDuration/v2_depth_duration_MTurk/v2_DepthDuration_HTML.html#294,294,1366,657,1366,768,9-3-2022,14-40-20,28,depth_duration_stimuli/003423_2014-05-21_10-23-26_094959634447_rgbf002665-resize_2/003423_2014-05-21_10-23-26_094959634447_rgbf002665-resize_2-target.png,125,3.2575,11,3736,114,feet,jsons/VE125_randls_45_rotated.json,2024367,2206103,41,Man
28,392029,DepthScenes,duration_manipulation_targetAtFixation,jsons/VE125_randls_45_rotated.json,http://54.235.29.9/FacialAge/BNav_EC2/DepthDuration/v2_depth_duration_MTurk/v2_DepthDuration_HTML.html#294,294,1366,657,1366,768,9-3-2022,14-40-20,29,depth_duration_stimuli/002905_2014-06-03_18-04-43_094959634447_rgbf000151-resize_2/002905_2014-06-03_18-04-43_094959634447_rgbf000151-resize_2-target.png,125,2.0295,6,2025,134,feet,jsons/VE125_randls_45_rotated.json,2024367,2206103,41,Man
29,392029,DepthScenes,duration_manipulation_targetAtFixation,jsons/VE125_randls_45_rotated.json,http://54.235.29.9/FacialAge/BNav_EC2/DepthDuration/v2_depth_duration_MTurk/v2_DepthDuration_HTML.html#294,294,1366,657,1366,768,9-3-2022,14-40-20,30,depth_duration_stimuli/002072_2014-06-24_21-48-06_260595134347_rgbf000115-resize_0/002072_2014-06-24_21-48-06_260595134347_rgbf000115-resize-original.jpg,125,4.702,7,2729,134,feet,jsons/VE125_randls_45_rotated.json,2024367,2206103,41,Man
30,392029,DepthScenes,duration_manipulation_targetAtFixation,jsons/VE125_randls_45_rotated.json,http://54.235.29.9/FacialAge/BNav_EC2/DepthDuration/v2_depth_duration_MTurk/v2_DepthDuration_HTML.html#294,294,1366,657,1366,768,9-3-2022,14-40-20,31,depth_duration_stimuli/002953_2014-06-08_17-32-18_094959634447_rgbf000059-resize_5/002953_2014-06-08_17-32-18_094959634447_rgbf000059-resize_5-target.png,125,1.551,5,2825,117,feet,jsons/VE125_randls_45_rotated.json,2024367,2206103,41,Man
31,392029,DepthScenes,duration_manipulation_targetAtFixation,jsons/VE125_randls_45_rotated.json,http://54.235.29.9/FacialAge/BNav_EC2/DepthDuration/v2_depth_duration_MTurk/v2_DepthDuration_HTML.html#294,294,1366,657,1366,768,9-3-2022,14-40-20,32,depth_duration_stimuli/000878_2014-06-08_22-52-45_260595134347_rgbf000045-resize_2/000878_2014-06-08_22-52-45_260595134347_rgbf000045-resize_2-target.png,125,2.092,6,17674,118,feet,jsons/VE125_randls_45_rotated.json,2024367,2206103,41,Man
32,392029,DepthScenes,duration_manipulation_targetAtFixation,jsons/VE125_randls_45_rotated.json,http://54.235.29.9/FacialAge/BNav_EC2/DepthDuration/v2_depth_duration_MTurk/v2_DepthDuration_HTML.html#294,294,1366,657,1366,768,9-3-2022,14-40-20,33,depth_duration_stimuli/001094_2014-06-15_17-36-00_260595134347_rgbf000205-resize_0/001094_2014-06-15_17-36-00_260595134347_rgbf000205-resize_0-target.png,125,4.2175,7,2545,118,feet,jsons/VE125_randls_45_rotated.json,2024367,2206103,41,Man
33,392029,DepthScenes,duration_manipulation_targetAtFixation,jsons/VE125_randls_45_rotated.json,http://54.235.29.9/FacialAge/BNav_EC2/DepthDuration/v2_depth_duration_MTurk/v2_DepthDuration_HTML.html#294,294,1366,657,1366,768,9-3-2022,14-40-20,34,depth_duration_stimuli/000692_2014-06-08_13-09-42_260595134347_rgbf000199-resize_2/000692_2014-06-08_13-09-42_260595134347_rgbf000199-resize_2-target.png,125,3.661,7,2395,59,feet,jsons/VE125_randls_45_rotated.json,2024367,2206103,41,Man
34,392029,DepthScenes,duration_manipulation_targetAtFixation,jsons/VE125_randls_45_rotated.json,http://54.235.29.9/FacialAge/BNav_EC2/DepthDuration/v2_depth_duration_MTurk/v2_DepthDuration_HTML.html#294,294,1366,657,1366,768,9-3-2022,14-40-20,35,depth_duration_stimuli/002545_2014-06-24_13-38-53_094959634447_rgbf000080-resize_4/002545_2014-06-24_13-38-53_094959634447_rgbf000080-resize_4-target.png,125,1.9205,5,2234,119,feet,jsons/VE125_randls_45_rotated.json,2024367,2206103,41,Man
35,392029,DepthScenes,duration_manipulation_targetAtFixation,jsons/VE125_randls_45_rotated.json,http://54.235.29.9/FacialAge/BNav_EC2/DepthDuration/v2_depth_duration_MTurk/v2_DepthDuration_HTML.html#294,294,1366,657,1366,768,9-3-2022,14-40-20,36,depth_duration_stimuli/001092_2014-06-15_17-34-58_260595134347_rgbf000171-resize_3/001092_2014-06-15_17-34-58_260595134347_rgbf000171-resize_3-target.png,125,2.6935,6,2604,119,feet,jsons/VE125_randls_45_rotated.json,2024367,2206103,41,Man
36,392029,DepthScenes,duration_manipulation_targetAtFixation,jsons/VE125_randls_45_rotated.json,http://54.235.29.9/FacialAge/BNav_EC2/DepthDuration/v2_depth_duration_MTurk/v2_DepthDuration_HTML.html#294,294,1366,657,1366,768,9-3-2022,14-40-20,37,depth_duration_stimuli/001447_2014-06-19_17-00-32_260595134347_rgbf000082-resize_5/001447_2014-06-19_17-00-32_260595134347_rgbf000082-resize_5-target.png,125,4.13775,6,3705,121,feet,jsons/VE125_randls_45_rotated.json,2024367,2206103,41,Man
37,392029,DepthScenes,duration_manipulation_targetAtFixation,jsons/VE125_randls_45_rotated.json,http://54.235.29.9/FacialAge/BNav_EC2/DepthDuration/v2_depth_duration_MTurk/v2_DepthDuration_HTML.html#294,294,1366,657,1366,768,9-3-2022,14-40-20,38,depth_duration_stimuli/000447_2014-06-08_16-15-46_260595134347_rgbf000130-resize_1/000447_2014-06-08_16-15-46_260595134347_rgbf000130-resize_1-target.png,125,4.479,6,4290,117,feet,jsons/VE125_randls_45_rotated.json,2024367,2206103,41,Man
38,392029,DepthScenes,duration_manipulation_targetAtFixation,jsons/VE125_randls_45_rotated.json,http://54.235.29.9/FacialAge/BNav_EC2/DepthDuration/v2_depth_duration_MTurk/v2_DepthDuration_HTML.html#294,294,1366,657,1366,768,9-3-2022,14-40-20,39,depth_duration_stimuli/002660_2014-06-13_15-44-18_094959634447_rgbf001878-resize_2/002660_2014-06-13_15-44-18_094959634447_rgbf001878-resize_2-target.png,125,3.576,6,15457,124,feet,jsons/VE125_randls_45_rotated.json,2024367,2206103,41,Man
39,392029,DepthScenes,duration_manipulation_targetAtFixation,jsons/VE125_randls_45_rotated.json,http://54.235.29.9/FacialAge/BNav_EC2/DepthDuration/v2_depth_duration_MTurk/v2_DepthDuration_HTML.html#294,294,1366,657,1366,768,9-3-2022,14-40-20,40,depth_duration_stimuli/002153_2014-06-25_21-27-18_260595134347_rgbf000038-resize_5/002153_2014-06-25_21-27-18_260595134347_rgbf000038-resize_5-target.png,125,2.505,6,7076,129,feet,jsons/VE125_randls_45_rotated.json,2024367,2206103,41,Man
40,392029,DepthScenes,duration_manipulation_targetAtFixation,jsons/VE125_randls_45_rotated.json,http://54.235.29.9/FacialAge/BNav_EC2/DepthDuration/v2_depth_duration_MTurk/v2_DepthDuration_HTML.html#294,294,1366,657,1366,768,9-3-2022,14-40-20,41,depth_duration_stimuli/000635_2014-06-08_16-38-42_260595134347_rgbf000106-resize_1/000635_2014-06-08_16-38-42_260595134347_rgbf000106-resize_1-target.png,125,2.074,5,3751,127,feet,jsons/VE125_randls_45_rotated.json,2024367,2206103,41,Man
41,392029,DepthScenes,duration_manipulation_targetAtFixation,jsons/VE125_randls_45_rotated.json,http://54.235.29.9/FacialAge/BNav_EC2/DepthDuration/v2_depth_duration_MTurk/v2_DepthDuration_HTML.html#294,294,1366,657,1366,768,9-3-2022,14-40-20,42,depth_duration_stimuli/002279_2014-06-28_18-55-32_260595134347_rgbf000040-resize_5/002279_2014-06-28_18-55-32_260595134347_rgbf000040-resize_5-target.png,125,1.5043333333333,6,4484,126,feet,jsons/VE125_randls_45_rotated.json,2024367,2206103,41,Man
42,392029,DepthScenes,duration_manipulation_targetAtFixation,jsons/VE125_randls_45_rotated.json,http://54.235.29.9/FacialAge/BNav_EC2/DepthDuration/v2_depth_duration_MTurk/v2_DepthDuration_HTML.html#294,294,1366,657,1366,768,9-3-2022,14-40-20,43,depth_duration_stimuli/003587_2014-05-23_16-48-02_094959634447_rgbf002384-resize_2/003587_2014-05-23_16-48-02_094959634447_rgbf002384-resize_2-target.png,125,1.357,8,17720,114,feet,jsons/VE125_randls_45_rotated.json,2024367,2206103,41,Man
43,392029,DepthScenes,duration_manipulation_targetAtFixation,jsons/VE125_randls_45_rotated.json,http://54.235.29.9/FacialAge/BNav_EC2/DepthDuration/v2_depth_duration_MTurk/v2_DepthDuration_HTML.html#294,294,1366,657,1366,768,9-3-2022,14-40-20,44,depth_duration_stimuli/001167_2014-06-17_15-38-07_260595134347_rgbf000108-resize_0/001167_2014-06-17_15-38-07_260595134347_rgbf000108-resize_0-target.png,125,1.8505,7,3560,135,feet,jsons/VE125_randls_45_rotated.json,2024367,2206103,41,Man
44,392029,DepthScenes,duration_manipulation_targetAtFixation,jsons/VE125_randls_45_rotated.json,http://54.235.29.9/FacialAge/BNav_EC2/DepthDuration/v2_depth_duration_MTurk/v2_DepthDuration_HTML.html#294,294,1366,657,1366,768,9-3-2022,14-40-20,45,depth_duration_stimuli/002199_2014-06-28_18-33-56_260595134347_rgbf000074-resize_0/002199_2014-06-28_18-33-56_260595134347_rgbf000074-resize_0-target.png,125,1.996,2,2317,132,feet,jsons/VE125_randls_45_rotated.json,2024367,2206103,41,Man
45,392029,DepthScenes,duration_manipulation_targetAtFixation,jsons/VE125_randls_45_rotated.json,http://54.235.29.9/FacialAge/BNav_EC2/DepthDuration/v2_depth_duration_MTurk/v2_DepthDuration_HTML.html#294,294,1366,657,1366,768,9-3-2022,14-40-20,46,depth_duration_stimuli/001056_2014-06-08_18-46-44_260595134347_rgbf000068-resize_0/001056_2014-06-08_18-46-44_260595134347_rgbf000068-resize_0-target.png,125,2.6625,4,2475,123,feet,jsons/VE125_randls_45_rotated.json,2024367,2206103,41,Man
46,392029,DepthScenes,duration_manipulation_targetAtFixation,jsons/VE125_randls_45_rotated.json,http://54.235.29.9/FacialAge/BNav_EC2/DepthDuration/v2_depth_duration_MTurk/v2_DepthDuration_HTML.html#294,294,1366,657,1366,768,9-3-2022,14-40-20,47,depth_duration_stimuli/002136_2014-06-25_21-18-03_260595134347_rgbf000109-resize_3/002136_2014-06-25_21-18-03_260595134347_rgbf000109-resize_3-target.png,125,1.9569999999999999,6,3149,69,feet,jsons/VE125_randls_45_rotated.json,2024367,2206103,41,Man
47,392029,DepthScenes,duration_manipulation_targetAtFixation,jsons/VE125_randls_45_rotated.json,http://54.235.29.9/FacialAge/BNav_EC2/DepthDuration/v2_depth_duration_MTurk/v2_DepthDuration_HTML.html#294,294,1366,657,1366,768,9-3-2022,14-40-20,48,depth_duration_stimuli/002964_2014-06-08_17-46-11_094959634447_rgbf000091-resize_4/002964_2014-06-08_17-46-11_094959634447_rgbf000091-resize_4-target.png,125,1.6909999999999998,6,2158,113,feet,jsons/VE125_randls_45_rotated.json,2024367,2206103,41,Man
48,392029,DepthScenes,duration_manipulation_targetAtFixation,jsons/VE125_randls_45_rotated.json,http://54.235.29.9/FacialAge/BNav_EC2/DepthDuration/v2_depth_duration_MTurk/v2_DepthDuration_HTML.html#294,294,1366,657,1366,768,9-3-2022,14-40-20,49,depth_duration_stimuli/001170_2014-06-17_15-43-44_260595134347_rgbf000096-resize_6/001170_2014-06-17_15-43-44_260595134347_rgbf000096-resize-original.jpg,125,1.1909999999999998,2,2273,131,feet,jsons/VE125_randls_45_rotated.json,2024367,2206103,41,Man
49,392029,DepthScenes,duration_manipulation_targetAtFixation,jsons/VE125_randls_45_rotated.json,http://54.235.29.9/FacialAge/BNav_EC2/DepthDuration/v2_depth_duration_MTurk/v2_DepthDuration_HTML.html#294,294,1366,657,1366,768,9-3-2022,14-40-20,50,depth_duration_stimuli/000483_2014-06-09_20-41-45_260595134347_rgbf000116-resize_4/000483_2014-06-09_20-41-45_260595134347_rgbf000116-resize_4-target.png,125,1.337,3,2121,116,feet,jsons/VE125_randls_45_rotated.json,2024367,2206103,41,Man
50,392029,DepthScenes,duration_manipulation_targetAtFixation,jsons/VE125_randls_45_rotated.json,http://54.235.29.9/FacialAge/BNav_EC2/DepthDuration/v2_depth_duration_MTurk/v2_DepthDuration_HTML.html#294,294,1366,657,1366,768,9-3-2022,14-40-20,51,depth_duration_stimuli/000469_2014-06-09_19-42-10_260595134347_rgbf000081-resize_1/000469_2014-06-09_19-42-10_260595134347_rgbf000081-resize_1-target.png,125,1.652,2,2040,115,feet,jsons/VE125_randls_45_rotated.json,2024367,2206103,41,Man
51,392029,DepthScenes,duration_manipulation_targetAtFixation,jsons/VE125_randls_45_rotated.json,http://54.235.29.9/FacialAge/BNav_EC2/DepthDuration/v2_depth_duration_MTurk/v2_DepthDuration_HTML.html#294,294,1366,657,1366,768,9-3-2022,14-40-20,52,depth_duration_stimuli/000549_2014-06-08_22-10-24_260595134347_rgbf000247-resize_3/000549_2014-06-08_22-10-24_260595134347_rgbf000247-resize_3-target.png,125,1.841,6,19601,111,feet,jsons/VE125_randls_45_rotated.json,2024367,2206103,41,Man
52,392029,DepthScenes,duration_manipulation_targetAtFixation,jsons/VE125_randls_45_rotated.json,http://54.235.29.9/FacialAge/BNav_EC2/DepthDuration/v2_depth_duration_MTurk/v2_DepthDuration_HTML.html#294,294,1366,657,1366,768,9-3-2022,14-40-20,53,depth_duration_stimuli/001055_2014-06-08_18-45-35_260595134347_rgbf000111-resize_4/001055_2014-06-08_18-45-35_260595134347_rgbf000111-resize_4-target.png,125,2.4290000000000003,7,203356,127,feet,jsons/VE125_randls_45_rotated.json,2024367,2206103,41,Man
53,392029,DepthScenes,duration_manipulation_targetAtFixation,jsons/VE125_randls_45_rotated.json,http://54.235.29.9/FacialAge/BNav_EC2/DepthDuration/v2_depth_duration_MTurk/v2_DepthDuration_HTML.html#294,294,1366,657,1366,768,9-3-2022,14-40-20,54,depth_duration_stimuli/002323_2014-06-28_20-01-54_260595134347_rgbf000051-resize_4/002323_2014-06-28_20-01-54_260595134347_rgbf000051-resize_4-target.png,125,3.7310000000000003,6,52063,124,feet,jsons/VE125_randls_45_rotated.json,2024367,2206103,41,Man
54,392029,DepthScenes,duration_manipulation_targetAtFixation,jsons/VE125_randls_45_rotated.json,http://54.235.29.9/FacialAge/BNav_EC2/DepthDuration/v2_depth_duration_MTurk/v2_DepthDuration_HTML.html#294,294,1366,657,1366,768,9-3-2022,14-40-20,55,depth_duration_stimuli/000917_2014-06-09_22-45-29_260595134347_rgbf000149-resize_3/000917_2014-06-09_22-45-29_260595134347_rgbf000149-resize_3-target.png,125,4.1865,9,4006,335,feet,jsons/VE125_randls_45_rotated.json,2024367,2206103,41,Man
55,392029,DepthScenes,duration_manipulation_targetAtFixation,jsons/VE125_randls_45_rotated.json,http://54.235.29.9/FacialAge/BNav_EC2/DepthDuration/v2_depth_duration_MTurk/v2_DepthDuration_HTML.html#294,294,1366,657,1366,768,9-3-2022,14-40-20,56,depth_duration_stimuli/002758_2014-06-22_19-11-20_094959634447_rgbf000128-resize_1/002758_2014-06-22_19-11-20_094959634447_rgbf000128-resize_1-target.png,125,2.555,7,4413,123,feet,jsons/VE125_randls_45_rotated.json,2024367,2206103,41,Man
56,392029,DepthScenes,duration_manipulation_targetAtFixation,jsons/VE125_randls_45_rotated.json,http://54.235.29.9/FacialAge/BNav_EC2/DepthDuration/v2_depth_duration_MTurk/v2_DepthDuration_HTML.html#294,294,1366,657,1366,768,9-3-2022,14-40-20,57,depth_duration_stimuli/002630_2014-06-24_14-47-50_094959634447_rgbf000055-resize_1/002630_2014-06-24_14-47-50_094959634447_rgbf000055-resize_1-target.png,125,3.0095,7,4951,124,feet,jsons/VE125_randls_45_rotated.json,2024367,2206103,41,Man
57,392029,DepthScenes,duration_manipulation_targetAtFixation,jsons/VE125_randls_45_rotated.json,http://54.235.29.9/FacialAge/BNav_EC2/DepthDuration/v2_depth_duration_MTurk/v2_DepthDuration_HTML.html#294,294,1366,657,1366,768,9-3-2022,14-40-20,58,depth_duration_stimuli/002340_2014-06-28_20-05-46_260595134347_rgbf000113-resize_0/002340_2014-06-28_20-05-46_260595134347_rgbf000113-resize_0-target.png,125,2.4735,9,3921,87,feet,jsons/VE125_randls_45_rotated.json,2024367,2206103,41,Man
58,392029,DepthScenes,duration_manipulation_targetAtFixation,jsons/VE125_randls_45_rotated.json,http://54.235.29.9/FacialAge/BNav_EC2/DepthDuration/v2_depth_duration_MTurk/v2_DepthDuration_HTML.html#294,294,1366,657,1366,768,9-3-2022,14-40-20,59,depth_duration_stimuli/001016_2014-06-09_16-16-10_260595134347_rgbf000112-resize_5/001016_2014-06-09_16-16-10_260595134347_rgbf000112-resize_5-target.png,125,1.6565,8,3702,124,feet,jsons/VE125_randls_45_rotated.json,2024367,2206103,41,Man
59,392029,DepthScenes,duration_manipulation_targetAtFixation,jsons/VE125_randls_45_rotated.json,http://54.235.29.9/FacialAge/BNav_EC2/DepthDuration/v2_depth_duration_MTurk/v2_DepthDuration_HTML.html#294,294,1366,657,1366,768,9-3-2022,14-40-20,60,depth_duration_stimuli/000502_2014-06-08_23-02-32_260595134347_rgbf000063-resize_4/000502_2014-06-08_23-02-32_260595134347_rgbf000063-resize_4-target.png,125,2.431,5,4007,125,feet,jsons/VE125_randls_45_rotated.json,2024367,2206103,41,Man
60,392029,DepthScenes,duration_manipulation_targetAtFixation,jsons/VE125_randls_45_rotated.json,http://54.235.29.9/FacialAge/BNav_EC2/DepthDuration/v2_depth_duration_MTurk/v2_DepthDuration_HTML.html#294,294,1366,657,1366,768,9-3-2022,14-40-20,61,depth_duration_stimuli/001199_2014-06-17_16-03-48_260595134347_rgbf000077-resize_0/001199_2014-06-17_16-03-48_260595134347_rgbf000077-resize_0-target.png,125,3.4375,4,3954,133,feet,jsons/VE125_randls_45_rotated.json,2024367,2206103,41,Man
61,392029,DepthScenes,duration_manipulation_targetAtFixation,jsons/VE125_randls_45_rotated.json,http://54.235.29.9/FacialAge/BNav_EC2/DepthDuration/v2_depth_duration_MTurk/v2_DepthDuration_HTML.html#294,294,1366,657,1366,768,9-3-2022,14-40-20,62,depth_duration_stimuli/003490_2014-05-21_15-50-11_094959634447_rgbf000101-resize_3/003490_2014-05-21_15-50-11_094959634447_rgbf000101-resize_3-target.png,125,3.6445,7,3878,123,feet,jsons/VE125_randls_45_rotated.json,2024367,2206103,41,Man
62,392029,DepthScenes,duration_manipulation_targetAtFixation,jsons/VE125_randls_45_rotated.json,http://54.235.29.9/FacialAge/BNav_EC2/DepthDuration/v2_depth_duration_MTurk/v2_DepthDuration_HTML.html#294,294,1366,657,1366,768,9-3-2022,14-40-20,63,depth_duration_stimuli/001175_2014-06-17_15-45-55_260595134347_rgbf000129-resize_4/001175_2014-06-17_15-45-55_260595134347_rgbf000129-resize_4-target.png,125,4.255,7,5090,125,feet,jsons/VE125_randls_45_rotated.json,2024367,2206103,41,Man
63,392029,DepthScenes,duration_manipulation_targetAtFixation,jsons/VE125_randls_45_rotated.json,http://54.235.29.9/FacialAge/BNav_EC2/DepthDuration/v2_depth_duration_MTurk/v2_DepthDuration_HTML.html#294,294,1366,657,1366,768,9-3-2022,14-40-20,64,depth_duration_stimuli/000191_2014-05-12_17-07-38_260595134347_rgbf000199-resize_0/000191_2014-05-12_17-07-38_260595134347_rgbf000199-resize_0-target.png,125,3.7995,7,15197,123,feet,jsons/VE125_randls_45_rotated.json,2024367,2206103,41,Man
64,392029,DepthScenes,duration_manipulation_targetAtFixation,jsons/VE125_randls_45_rotated.json,http://54.235.29.9/FacialAge/BNav_EC2/DepthDuration/v2_depth_duration_MTurk/v2_DepthDuration_HTML.html#294,294,1366,657,1366,768,9-3-2022,14-40-20,65,depth_duration_stimuli/000493_2014-06-09_21-01-18_260595134347_rgbf000196-resize_3/000493_2014-06-09_21-01-18_260595134347_rgbf000196-resize_3-target.png,125,3.44,6,3990,124,feet,jsons/VE125_randls_45_rotated.json,2024367,2206103,41,Man
65,392029,DepthScenes,duration_manipulation_targetAtFixation,jsons/VE125_randls_45_rotated.json,http://54.235.29.9/FacialAge/BNav_EC2/DepthDuration/v2_depth_duration_MTurk/v2_DepthDuration_HTML.html#294,294,1366,657,1366,768,9-3-2022,14-40-20,66,depth_duration_stimuli/001540_2014-06-20_17-01-05_260595134347_rgbf000086-resize_2/001540_2014-06-20_17-01-05_260595134347_rgbf000086-resize-original.jpg,125,1.459,6,9607,122,feet,jsons/VE125_randls_45_rotated.json,2024367,2206103,41,Man
66,392029,DepthScenes,duration_manipulation_targetAtFixation,jsons/VE125_randls_45_rotated.json,http://54.235.29.9/FacialAge/BNav_EC2/DepthDuration/v2_depth_duration_MTurk/v2_DepthDuration_HTML.html#294,294,1366,657,1366,768,9-3-2022,14-40-20,67,depth_duration_stimuli/001392_2014-06-19_16-07-59_260595134347_rgbf000046-resize_1/001392_2014-06-19_16-07-59_260595134347_rgbf000046-resize_1-target.png,125,4.135,5,6379,123,feet,jsons/VE125_randls_45_rotated.json,2024367,2206103,41,Man
67,392029,DepthScenes,duration_manipulation_targetAtFixation,jsons/VE125_randls_45_rotated.json,http://54.235.29.9/FacialAge/BNav_EC2/DepthDuration/v2_depth_duration_MTurk/v2_DepthDuration_HTML.html#294,294,1366,657,1366,768,9-3-2022,14-40-20,68,depth_duration_stimuli/001570_2014-06-20_17-21-09_260595134347_rgbf000135-resize_4/001570_2014-06-20_17-21-09_260595134347_rgbf000135-resize_4-target.png,125,4.467,7,4719,125,feet,jsons/VE125_randls_45_rotated.json,2024367,2206103,41,Man
68,392029,DepthScenes,duration_manipulation_targetAtFixation,jsons/VE125_randls_45_rotated.json,http://54.235.29.9/FacialAge/BNav_EC2/DepthDuration/v2_depth_duration_MTurk/v2_DepthDuration_HTML.html#294,294,1366,657,1366,768,9-3-2022,14-40-20,69,depth_duration_stimuli/000734_2014-06-08_17-39-11_260595134347_rgbf000128-resize_2/000734_2014-06-08_17-39-11_260595134347_rgbf000128-resize_2-target.png,125,4.098,8,4407,124,feet,jsons/VE125_randls_45_rotated.json,2024367,2206103,41,Man
69,392029,DepthScenes,duration_manipulation_targetAtFixation,jsons/VE125_randls_45_rotated.json,http://54.235.29.9/FacialAge/BNav_EC2/DepthDuration/v2_depth_duration_MTurk/v2_DepthDuration_HTML.html#294,294,1366,657,1366,768,9-3-2022,14-40-20,70,depth_duration_stimuli/000739_2014-06-08_18-45-58_260595134347_rgbf000068-resize_1/000739_2014-06-08_18-45-58_260595134347_rgbf000068-resize_1-target.png,125,3.534,6,4214,124,feet,jsons/VE125_randls_45_rotated.json,2024367,2206103,41,Man
70,392029,DepthScenes,duration_manipulation_targetAtFixation,jsons/VE125_randls_45_rotated.json,http://54.235.29.9/FacialAge/BNav_EC2/DepthDuration/v2_depth_duration_MTurk/v2_DepthDuration_HTML.html#294,294,1366,657,1366,768,9-3-2022,14-40-20,71,depth_duration_stimuli/003338_2014-05-20_11-01-23_094959634447_rgbf000051-resize_6/003338_2014-05-20_11-01-23_094959634447_rgbf000051-resize_6-target.png,125,1.693,4,4509,124,feet,jsons/VE125_randls_45_rotated.json,2024367,2206103,41,Man
71,392029,DepthScenes,duration_manipulation_targetAtFixation,jsons/VE125_randls_45_rotated.json,http://54.235.29.9/FacialAge/BNav_EC2/DepthDuration/v2_depth_duration_MTurk/v2_DepthDuration_HTML.html#294,294,1366,657,1366,768,9-3-2022,14-40-20,72,depth_duration_stimuli/002509_2014-06-24_13-19-22_094959634447_rgbf000077-resize_0/002509_2014-06-24_13-19-22_094959634447_rgbf000077-resize_0-target.png,125,1.3065,5,3733,124,feet,jsons/VE125_randls_45_rotated.json,2024367,2206103,41,Man
72,392029,DepthScenes,duration_manipulation_targetAtFixation,jsons/VE125_randls_45_rotated.json,http://54.235.29.9/FacialAge/BNav_EC2/DepthDuration/v2_depth_duration_MTurk/v2_DepthDuration_HTML.html#294,294,1366,657,1366,768,9-3-2022,14-40-20,73,depth_duration_stimuli/001100_2014-06-15_17-46-26_260595134347_rgbf000225-resize_2/001100_2014-06-15_17-46-26_260595134347_rgbf000225-resize_2-target.png,125,2.24,5,4049,124,feet,jsons/VE125_randls_45_rotated.json,2024367,2206103,41,Man
73,392029,DepthScenes,duration_manipulation_targetAtFixation,jsons/VE125_randls_45_rotated.json,http://54.235.29.9/FacialAge/BNav_EC2/DepthDuration/v2_depth_duration_MTurk/v2_DepthDuration_HTML.html#294,294,1366,657,1366,768,9-3-2022,14-40-20,74,depth_duration_stimuli/002784_2014-06-22_19-26-30_094959634447_rgbf000083-resize_3/002784_2014-06-22_19-26-30_094959634447_rgbf000083-resize_3-target.png,125,1.8046666666667,6,49299,124,feet,jsons/VE125_randls_45_rotated.json,2024367,2206103,41,Man
74,392029,DepthScenes,duration_manipulation_targetAtFixation,jsons/VE125_randls_45_rotated.json,http://54.235.29.9/FacialAge/BNav_EC2/DepthDuration/v2_depth_duration_MTurk/v2_DepthDuration_HTML.html#294,294,1366,657,1366,768,9-3-2022,14-40-20,75,depth_duration_stimuli/003010_2014-06-15_12-54-35_094959634447_rgbf000112-resize_0/003010_2014-06-15_12-54-35_094959634447_rgbf000112-resize_0-target.png,125,3.1185,8,2698,123,feet,jsons/VE125_randls_45_rotated.json,2024367,2206103,41,Man
75,392029,DepthScenes,duration_manipulation_targetAtFixation,jsons/VE125_randls_45_rotated.json,http://54.235.29.9/FacialAge/BNav_EC2/DepthDuration/v2_depth_duration_MTurk/v2_DepthDuration_HTML.html#294,294,1366,657,1366,768,9-3-2022,14-40-20,76,depth_duration_stimuli/001810_2014-06-26_20-51-35_260595134347_rgbf000040-resize_3/001810_2014-06-26_20-51-35_260595134347_rgbf000040-resize_3-target.png,125,2.2525,6,32230,123,feet,jsons/VE125_randls_45_rotated.json,2024367,2206103,41,Man
76,392029,DepthScenes,duration_manipulation_targetAtFixation,jsons/VE125_randls_45_rotated.json,http://54.235.29.9/FacialAge/BNav_EC2/DepthDuration/v2_depth_duration_MTurk/v2_DepthDuration_HTML.html#294,294,1366,657,1366,768,9-3-2022,14-40-20,77,depth_duration_stimuli/002657_2014-06-13_15-29-54_094959634447_rgbf000150-resize_1/002657_2014-06-13_15-29-54_094959634447_rgbf000150-resize_1-target.png,125,4.919,9,4618,124,feet,jsons/VE125_randls_45_rotated.json,2024367,2206103,41,Man
77,392029,DepthScenes,duration_manipulation_targetAtFixation,jsons/VE125_randls_45_rotated.json,http://54.235.29.9/FacialAge/BNav_EC2/DepthDuration/v2_depth_duration_MTurk/v2_DepthDuration_HTML.html#294,294,1366,657,1366,768,9-3-2022,14-40-20,78,depth_duration_stimuli/002375_2014-06-28_20-13-44_260595134347_rgbf000032-resize_1/002375_2014-06-28_20-13-44_260595134347_rgbf000032-resize_1-target.png,125,4.0175,6,4272,76,feet,jsons/VE125_randls_45_rotated.json,2024367,2206103,41,Man
78,392029,DepthScenes,duration_manipulation_targetAtFixation,jsons/VE125_randls_45_rotated.json,http://54.235.29.9/FacialAge/BNav_EC2/DepthDuration/v2_depth_duration_MTurk/v2_DepthDuration_HTML.html#294,294,1366,657,1366,768,9-3-2022,14-40-20,79,depth_duration_stimuli/003081_2014-06-15_15-19-16_094959634447_rgbf000150-resize_1/003081_2014-06-15_15-19-16_094959634447_rgbf000150-resize_1-target.png,125,3.9125,5,5666,125,feet,jsons/VE125_randls_45_rotated.json,2024367,2206103,41,Man
79,392029,DepthScenes,duration_manipulation_targetAtFixation,jsons/VE125_randls_45_rotated.json,http://54.235.29.9/FacialAge/BNav_EC2/DepthDuration/v2_depth_duration_MTurk/v2_DepthDuration_HTML.html#294,294,1366,657,1366,768,9-3-2022,14-40-20,80,depth_duration_stimuli/001417_2014-06-19_16-25-36_260595134347_rgbf000115-resize_5/001417_2014-06-19_16-25-36_260595134347_rgbf000115-resize_5-target.png,125,4.6255,6,3149,125,feet,jsons/VE125_randls_45_rotated.json,2024367,2206103,41,Man
80,392029,DepthScenes,duration_manipulation_targetAtFixation,jsons/VE125_randls_45_rotated.json,http://54.235.29.9/FacialAge/BNav_EC2/DepthDuration/v2_depth_duration_MTurk/v2_DepthDuration_HTML.html#294,294,1366,657,1366,768,9-3-2022,14-40-20,81,depth_duration_stimuli/000409_2014-06-04_19-23-33_260595134347_rgbf000067-resize_0/000409_2014-06-04_19-23-33_260595134347_rgbf000067-resize_0-target.png,125,3.7335,7,3899,129,feet,jsons/VE125_randls_45_rotated.json,2024367,2206103,41,Man
81,392029,DepthScenes,duration_manipulation_targetAtFixation,jsons/VE125_randls_45_rotated.json,http://54.235.29.9/FacialAge/BNav_EC2/DepthDuration/v2_depth_duration_MTurk/v2_DepthDuration_HTML.html#294,294,1366,657,1366,768,9-3-2022,14-40-20,82,depth_duration_stimuli/002663_2014-06-13_15-50-26_094959634447_rgbf000075-resize_1/002663_2014-06-13_15-50-26_094959634447_rgbf000075-resize_1-target.png,125,4.7495,8,4700,125,feet,jsons/VE125_randls_45_rotated.json,2024367,2206103,41,Man
82,392029,DepthScenes,duration_manipulation_targetAtFixation,jsons/VE125_randls_45_rotated.json,http://54.235.29.9/FacialAge/BNav_EC2/DepthDuration/v2_depth_duration_MTurk/v2_DepthDuration_HTML.html#294,294,1366,657,1366,768,9-3-2022,14-40-20,83,depth_duration_stimuli/000109_2014-05-14_23-41-52_260595134347_rgbf000035-resize_9/000109_2014-05-14_23-41-52_260595134347_rgbf000035-resize_9-target.png,125,1.3545,4,3167,125,feet,jsons/VE125_randls_45_rotated.json,2024367,2206103,41,Man
83,392029,DepthScenes,duration_manipulation_targetAtFixation,jsons/VE125_randls_45_rotated.json,http://54.235.29.9/FacialAge/BNav_EC2/DepthDuration/v2_depth_duration_MTurk/v2_DepthDuration_HTML.html#294,294,1366,657,1366,768,9-3-2022,14-40-20,84,depth_duration_stimuli/000470_2014-06-09_19-42-40_260595134347_rgbf000094-resize_1/000470_2014-06-09_19-42-40_260595134347_rgbf000094-resize_1-target.png,125,1.831,7,238922,14,feet,jsons/VE125_randls_45_rotated.json,2024367,2206103,41,Man
84,392029,DepthScenes,duration_manipulation_targetAtFixation,jsons/VE125_randls_45_rotated.json,http://54.235.29.9/FacialAge/BNav_EC2/DepthDuration/v2_depth_duration_MTurk/v2_DepthDuration_HTML.html#294,294,1366,657,1366,768,9-3-2022,14-40-20,85,depth_duration_stimuli/000854_2014-06-09_19-43-13_260595134347_rgbf000066-resize_0/000854_2014-06-09_19-43-13_260595134347_rgbf000066-resize_0-target.png,125,3.068,4,5245,80,feet,jsons/VE125_randls_45_rotated.json,2024367,2206103,41,Man
85,392029,DepthScenes,duration_manipulation_targetAtFixation,jsons/VE125_randls_45_rotated.json,http://54.235.29.9/FacialAge/BNav_EC2/DepthDuration/v2_depth_duration_MTurk/v2_DepthDuration_HTML.html#294,294,1366,657,1366,768,9-3-2022,14-40-20,86,depth_duration_stimuli/000758_2014-06-08_22-05-08_260595134347_rgbf000085-resize_0/000758_2014-06-08_22-05-08_260595134347_rgbf000085-resize_0-target.png,125,3.3810000000000002,6,4391,115,feet,jsons/VE125_randls_45_rotated.json,2024367,2206103,41,Man
86,392029,DepthScenes,duration_manipulation_targetAtFixation,jsons/VE125_randls_45_rotated.json,http://54.235.29.9/FacialAge/BNav_EC2/DepthDuration/v2_depth_duration_MTurk/v2_DepthDuration_HTML.html#294,294,1366,657,1366,768,9-3-2022,14-40-20,87,depth_duration_stimuli/002750_2014-06-22_19-08-03_094959634447_rgbf000094-resize_4/002750_2014-06-22_19-08-03_094959634447_rgbf000094-resize_4-target.png,125,2.354,6,6341,116,feet,jsons/VE125_randls_45_rotated.json,2024367,2206103,41,Man
87,392029,DepthScenes,duration_manipulation_targetAtFixation,jsons/VE125_randls_45_rotated.json,http://54.235.29.9/FacialAge/BNav_EC2/DepthDuration/v2_depth_duration_MTurk/v2_DepthDuration_HTML.html#294,294,1366,657,1366,768,9-3-2022,14-40-20,88,depth_duration_stimuli/002549_2014-06-24_13-41-39_094959634447_rgbf000022-resize_3/002549_2014-06-24_13-41-39_094959634447_rgbf000022-resize_3-target.png,125,1.476,7,168818,119,feet,jsons/VE125_randls_45_rotated.json,2024367,2206103,41,Man
88,392029,DepthScenes,duration_manipulation_targetAtFixation,jsons/VE125_randls_45_rotated.json,http://54.235.29.9/FacialAge/BNav_EC2/DepthDuration/v2_depth_duration_MTurk/v2_DepthDuration_HTML.html#294,294,1366,657,1366,768,9-3-2022,14-40-20,89,depth_duration_stimuli/002103_2014-06-25_20-00-40_260595134347_rgbf000049-resize_0/002103_2014-06-25_20-00-40_260595134347_rgbf000049-resize_0-target.png,125,4.105,7,4238,125,feet,jsons/VE125_randls_45_rotated.json,2024367,2206103,41,Man
89,392029,DepthScenes,duration_manipulation_targetAtFixation,jsons/VE125_randls_45_rotated.json,http://54.235.29.9/FacialAge/BNav_EC2/DepthDuration/v2_depth_duration_MTurk/v2_DepthDuration_HTML.html#294,294,1366,657,1366,768,9-3-2022,14-40-20,90,depth_duration_stimuli/002039_2014-06-24_20-22-38_260595134347_rgbf000084-resize_1/002039_2014-06-24_20-22-38_260595134347_rgbf000084-resize_1-target.png,125,4.408,5,12630,123,feet,jsons/VE125_randls_45_rotated.json,2024367,2206103,41,Man
90,392029,DepthScenes,duration_manipulation_targetAtFixation,jsons/VE125_randls_45_rotated.json,http://54.235.29.9/FacialAge/BNav_EC2/DepthDuration/v2_depth_duration_MTurk/v2_DepthDuration_HTML.html#294,294,1366,657,1366,768,9-3-2022,14-40-20,91,depth_duration_stimuli/002875_2014-06-01_15-19-00_094959634447_rgbf000151-resize_1/002875_2014-06-01_15-19-00_094959634447_rgbf000151-resize_1-target.png,125,1.9675,6,4072,156,feet,jsons/VE125_randls_45_rotated.json,2024367,2206103,41,Man
91,392029,DepthScenes,duration_manipulation_targetAtFixation,jsons/VE125_randls_45_rotated.json,http://54.235.29.9/FacialAge/BNav_EC2/DepthDuration/v2_depth_duration_MTurk/v2_DepthDuration_HTML.html#294,294,1366,657,1366,768,9-3-2022,14-40-20,92,depth_duration_stimuli/001011_2014-06-08_23-18-54_260595134347_rgbf000044-resize_4/001011_2014-06-08_23-18-54_260595134347_rgbf000044-resize_4-target.png,125,2.4730000000000003,8,5139,125,feet,jsons/VE125_randls_45_rotated.json,2024367,2206103,41,Man
92,392029,DepthScenes,duration_manipulation_targetAtFixation,jsons/VE125_randls_45_rotated.json,http://54.235.29.9/FacialAge/BNav_EC2/DepthDuration/v2_depth_duration_MTurk/v2_DepthDuration_HTML.html#294,294,1366,657,1366,768,9-3-2022,14-40-20,93,depth_duration_stimuli/001235_2014-06-17_16-37-36_260595134347_rgbf000084-resize_4/001235_2014-06-17_16-37-36_260595134347_rgbf000084-resize_4-target.png,125,3.6605,9,4663,122,feet,jsons/VE125_randls_45_rotated.json,2024367,2206103,41,Man
93,392029,DepthScenes,duration_manipulation_targetAtFixation,jsons/VE125_randls_45_rotated.json,http://54.235.29.9/FacialAge/BNav_EC2/DepthDuration/v2_depth_duration_MTurk/v2_DepthDuration_HTML.html#294,294,1366,657,1366,768,9-3-2022,14-40-20,94,depth_duration_stimuli/000788_2014-06-08_22-34-36_260595134347_rgbf000131-resize_1/000788_2014-06-08_22-34-36_260595134347_rgbf000131-resize_1-target.png,125,3.359,6,19670,123,feet,jsons/VE125_randls_45_rotated.json,2024367,2206103,41,Man
94,392029,DepthScenes,duration_manipulation_targetAtFixation,jsons/VE125_randls_45_rotated.json,http://54.235.29.9/FacialAge/BNav_EC2/DepthDuration/v2_depth_duration_MTurk/v2_DepthDuration_HTML.html#294,294,1366,657,1366,768,9-3-2022,14-40-20,95,depth_duration_stimuli/000457_2014-06-08_16-52-43_260595134347_rgbf000199-resize_1/000457_2014-06-08_16-52-43_260595134347_rgbf000199-resize_1-target.png,125,3.6489999999999996,5,3814,124,feet,jsons/VE125_randls_45_rotated.json,2024367,2206103,41,Man
95,392029,DepthScenes,duration_manipulation_targetAtFixation,jsons/VE125_randls_45_rotated.json,http://54.235.29.9/FacialAge/BNav_EC2/DepthDuration/v2_depth_duration_MTurk/v2_DepthDuration_HTML.html#294,294,1366,657,1366,768,9-3-2022,14-40-20,96,depth_duration_stimuli/000929_2014-06-09_16-33-19_260595134347_rgbf000139-resize_0/000929_2014-06-09_16-33-19_260595134347_rgbf000139-resize_0-target.png,125,2.8680000000000003,8,3219,180,feet,jsons/VE125_randls_45_rotated.json,2024367,2206103,41,Man
96,392029,DepthScenes,duration_manipulation_targetAtFixation,jsons/VE125_randls_45_rotated.json,http://54.235.29.9/FacialAge/BNav_EC2/DepthDuration/v2_depth_duration_MTurk/v2_DepthDuration_HTML.html#294,294,1366,657,1366,768,9-3-2022,14-40-20,97,depth_duration_stimuli/000691_2014-06-08_13-08-50_260595134347_rgbf000132-resize_3/000691_2014-06-08_13-08-50_260595134347_rgbf000132-resize_3-target.png,125,4.1530000000000005,5,23039,125,feet,jsons/VE125_randls_45_rotated.json,2024367,2206103,41,Man
97,392029,DepthScenes,duration_manipulation_targetAtFixation,jsons/VE125_randls_45_rotated.json,http://54.235.29.9/FacialAge/BNav_EC2/DepthDuration/v2_depth_duration_MTurk/v2_DepthDuration_HTML.html#294,294,1366,657,1366,768,9-3-2022,14-40-20,98,depth_duration_stimuli/002213_2014-06-28_18-37-58_260595134347_rgbf000055-resize_1/002213_2014-06-28_18-37-58_260595134347_rgbf000055-resize_1-target.png,125,3.62,5,5390,131,feet,jsons/VE125_randls_45_rotated.json,2024367,2206103,41,Man
98,392029,DepthScenes,duration_manipulation_targetAtFixation,jsons/VE125_randls_45_rotated.json,http://54.235.29.9/FacialAge/BNav_EC2/DepthDuration/v2_depth_duration_MTurk/v2_DepthDuration_HTML.html#294,294,1366,657,1366,768,9-3-2022,14-40-20,99,depth_duration_stimuli/001222_2014-06-17_16-24-06_260595134347_rgbf000073-resize_0/001222_2014-06-17_16-24-06_260595134347_rgbf000073-resize-original.jpg,125,1.4385,6,2519,125,feet,jsons/VE125_randls_45_rotated.json,2024367,2206103,41,Man
99,392029,DepthScenes,duration_manipulation_targetAtFixation,jsons/VE125_randls_45_rotated.json,http://54.235.29.9/FacialAge/BNav_EC2/DepthDuration/v2_depth_duration_MTurk/v2_DepthDuration_HTML.html#294,294,1366,657,1366,768,9-3-2022,14-40-20,100,depth_duration_stimuli/003048_2014-06-15_13-49-43_094959634447_rgbf000150-resize_1/003048_2014-06-15_13-49-43_094959634447_rgbf000150-resize_1-target.png,125,4.0035,2,3340,125,feet,jsons/VE125_randls_45_rotated.json,2024367,2206103,41,Man
100,392029,DepthScenes,duration_manipulation_targetAtFixation,jsons/VE125_randls_45_rotated.json,http://54.235.29.9/FacialAge/BNav_EC2/DepthDuration/v2_depth_duration_MTurk/v2_DepthDuration_HTML.html#294,294,1366,657,1366,768,9-3-2022,14-40-20,101,depth_duration_stimuli/002043_2014-06-24_20-29-38_260595134347_rgbf000039-resize_4/002043_2014-06-24_20-29-38_260595134347_rgbf000039-resize_4-target.png,125,2.8435,2,2187,124,feet,jsons/VE125_randls_45_rotated.json,2024367,2206103,41,Man
101,392029,DepthScenes,duration_manipulation_targetAtFixation,jsons/VE125_randls_45_rotated.json,http://54.235.29.9/FacialAge/BNav_EC2/DepthDuration/v2_depth_duration_MTurk/v2_DepthDuration_HTML.html#294,294,1366,657,1366,768,9-3-2022,14-40-20,102,depth_duration_stimuli/001132_2014-06-17_14-48-54_260595134347_rgbf000100-resize_2/001132_2014-06-17_14-48-54_260595134347_rgbf000100-resize_2-target.png,125,3.753,4,2289,124,feet,jsons/VE125_randls_45_rotated.json,2024367,2206103,41,Man
102,392029,DepthScenes,duration_manipulation_targetAtFixation,jsons/VE125_randls_45_rotated.json,http://54.235.29.9/FacialAge/BNav_EC2/DepthDuration/v2_depth_duration_MTurk/v2_DepthDuration_HTML.html#294,294,1366,657,1366,768,9-3-2022,14-40-20,103,depth_duration_stimuli/001133_2014-06-17_14-49-16_260595134347_rgbf000100-resize_0/001133_2014-06-17_14-49-16_260595134347_rgbf000100-resize_0-target.png,125,4.2115,4,2220,124,feet,jsons/VE125_randls_45_rotated.json,2024367,2206103,41,Man
103,392029,DepthScenes,duration_manipulation_targetAtFixation,jsons/VE125_randls_45_rotated.json,http://54.235.29.9/FacialAge/BNav_EC2/DepthDuration/v2_depth_duration_MTurk/v2_DepthDuration_HTML.html#294,294,1366,657,1366,768,9-3-2022,14-40-20,104,depth_duration_stimuli/001650_2014-06-20_12-09-00_260595134347_rgbf000087-resize_3/001650_2014-06-20_12-09-00_260595134347_rgbf000087-resize_3-target.png,125,1.9505,2,1977,125,feet,jsons/VE125_randls_45_rotated.json,2024367,2206103,41,Man
104,392029,DepthScenes,duration_manipulation_targetAtFixation,jsons/VE125_randls_45_rotated.json,http://54.235.29.9/FacialAge/BNav_EC2/DepthDuration/v2_depth_duration_MTurk/v2_DepthDuration_HTML.html#294,294,1366,657,1366,768,9-3-2022,14-40-20,105,depth_duration_stimuli/000682_2014-06-08_23-14-58_260595134347_rgbf000041-resize_5/000682_2014-06-08_23-14-58_260595134347_rgbf000041-resize_5-target.png,125,2.7239999999999998,5,2174,125,feet,jsons/VE125_randls_45_rotated.json,2024367,2206103,41,Man
105,392029,DepthScenes,duration_manipulation_targetAtFixation,jsons/VE125_randls_45_rotated.json,http://54.235.29.9/FacialAge/BNav_EC2/DepthDuration/v2_depth_duration_MTurk/v2_DepthDuration_HTML.html#294,294,1366,657,1366,768,9-3-2022,14-40-20,106,depth_duration_stimuli/001214_2014-06-17_16-13-55_260595134347_rgbf000111-resize_0/001214_2014-06-17_16-13-55_260595134347_rgbf000111-resize_0-target.png,125,2.6505,5,2200,124,feet,jsons/VE125_randls_45_rotated.json,2024367,2206103,41,Man
106,392029,DepthScenes,duration_manipulation_targetAtFixation,jsons/VE125_randls_45_rotated.json,http://54.235.29.9/FacialAge/BNav_EC2/DepthDuration/v2_depth_duration_MTurk/v2_DepthDuration_HTML.html#294,294,1366,657,1366,768,9-3-2022,14-40-20,107,depth_duration_stimuli/000810_2014-06-08_17-20-01_260595134347_rgbf000105-resize_0/000810_2014-06-08_17-20-01_260595134347_rgbf000105-resize_0-target.png,125,1.4865,4,2108,236,feet,jsons/VE125_randls_45_rotated.json,2024367,2206103,41,Man
107,392029,DepthScenes,duration_manipulation_targetAtFixation,jsons/VE125_randls_45_rotated.json,http://54.235.29.9/FacialAge/BNav_EC2/DepthDuration/v2_depth_duration_MTurk/v2_DepthDuration_HTML.html#294,294,1366,657,1366,768,9-3-2022,14-40-20,108,depth_duration_stimuli/002444_2014-06-28_20-32-08_260595134347_rgbf000027-resize_0/002444_2014-06-28_20-32-08_260595134347_rgbf000027-resize_0-target.png,125,4.388999999999999,6,2309,123,feet,jsons/VE125_randls_45_rotated.json,2024367,2206103,41,Man
108,392029,DepthScenes,duration_manipulation_targetAtFixation,jsons/VE125_randls_45_rotated.json,http://54.235.29.9/FacialAge/BNav_EC2/DepthDuration/v2_depth_duration_MTurk/v2_DepthDuration_HTML.html#294,294,1366,657,1366,768,9-3-2022,14-40-20,109,depth_duration_stimuli/000436_2014-06-09_22-25-11_260595134347_rgbf000137-resize_1/000436_2014-06-09_22-25-11_260595134347_rgbf000137-resize_1-target.png,125,4.0705,7,2781,123,feet,jsons/VE125_randls_45_rotated.json,2024367,2206103,41,Man
109,392029,DepthScenes,duration_manipulation_targetAtFixation,jsons/VE125_randls_45_rotated.json,http://54.235.29.9/FacialAge/BNav_EC2/DepthDuration/v2_depth_duration_MTurk/v2_DepthDuration_HTML.html#294,294,1366,657,1366,768,9-3-2022,14-40-20,110,depth_duration_stimuli/002209_2014-06-28_18-36-10_260595134347_rgbf000051-resize_1/002209_2014-06-28_18-36-10_260595134347_rgbf000051-resize_1-target.png,125,2.057,5,53556,123,feet,jsons/VE125_randls_45_rotated.json,2024367,2206103,41,Man
110,392029,DepthScenes,duration_manipulation_targetAtFixation,jsons/VE125_randls_45_rotated.json,http://54.235.29.9/FacialAge/BNav_EC2/DepthDuration/v2_depth_duration_MTurk/v2_DepthDuration_HTML.html#294,294,1366,657,1366,768,9-3-2022,14-40-20,111,depth_duration_stimuli/002763_2014-06-22_19-13-10_094959634447_rgbf000075-resize_4/002763_2014-06-22_19-13-10_094959634447_rgbf000075-resize_4-target.png,125,1.68375,3,2078,129,feet,jsons/VE125_randls_45_rotated.json,2024367,2206103,41,Man
111,392029,DepthScenes,duration_manipulation_targetAtFixation,jsons/VE125_randls_45_rotated.json,http://54.235.29.9/FacialAge/BNav_EC2/DepthDuration/v2_depth_duration_MTurk/v2_DepthDuration_HTML.html#294,294,1366,657,1366,768,9-3-2022,14-40-20,112,depth_duration_stimuli/000749_2014-06-08_21-55-06_260595134347_rgbf000070-resize_2/000749_2014-06-08_21-55-06_260595134347_rgbf000070-resize_2-target.png,125,2.331,4,2269,122,feet,jsons/VE125_randls_45_rotated.json,2024367,2206103,41,Man
112,392029,DepthScenes,duration_manipulation_targetAtFixation,jsons/VE125_randls_45_rotated.json,http://54.235.29.9/FacialAge/BNav_EC2/DepthDuration/v2_depth_duration_MTurk/v2_DepthDuration_HTML.html#294,294,1366,657,1366,768,9-3-2022,14-40-20,113,depth_duration_stimuli/002788_2014-06-22_19-36-03_094959634447_rgbf000088-resize_2/002788_2014-06-22_19-36-03_094959634447_rgbf000088-resize_2-target.png,125,1.6465,4,1936,124,feet,jsons/VE125_randls_45_rotated.json,2024367,2206103,41,Man
113,392029,DepthScenes,duration_manipulation_targetAtFixation,jsons/VE125_randls_45_rotated.json,http://54.235.29.9/FacialAge/BNav_EC2/DepthDuration/v2_depth_duration_MTurk/v2_DepthDuration_HTML.html#294,294,1366,657,1366,768,9-3-2022,14-40-20,114,depth_duration_stimuli/003495_2014-05-21_16-01-51_094959634447_rgbf000100-resize_3/003495_2014-05-21_16-01-51_094959634447_rgbf000100-resize_3-target.png,125,1.6255,2,2181,255,feet,jsons/VE125_randls_45_rotated.json,2024367,2206103,41,Man
114,392029,DepthScenes,duration_manipulation_targetAtFixation,jsons/VE125_randls_45_rotated.json,http://54.235.29.9/FacialAge/BNav_EC2/DepthDuration/v2_depth_duration_MTurk/v2_DepthDuration_HTML.html#294,294,1366,657,1366,768,9-3-2022,14-40-20,115,depth_duration_stimuli/001244_2014-06-17_16-47-45_260595134347_rgbf000030-resize_4/001244_2014-06-17_16-47-45_260595134347_rgbf000030-resize_4-target.png,125,2.0425,2,2416,123,feet,jsons/VE125_randls_45_rotated.json,2024367,2206103,41,Man
115,392029,DepthScenes,duration_manipulation_targetAtFixation,jsons/VE125_randls_45_rotated.json,http://54.235.29.9/FacialAge/BNav_EC2/DepthDuration/v2_depth_duration_MTurk/v2_DepthDuration_HTML.html#294,294,1366,657,1366,768,9-3-2022,14-40-20,116,depth_duration_stimuli/003083_2014-06-15_15-21-03_094959634447_rgbf000063-resize_1/003083_2014-06-15_15-21-03_094959634447_rgbf000063-resize_1-target.png,125,4.1405,7,2808,124,feet,jsons/VE125_randls_45_rotated.json,2024367,2206103,41,Man
116,392029,DepthScenes,duration_manipulation_targetAtFixation,jsons/VE125_randls_45_rotated.json,http://54.235.29.9/FacialAge/BNav_EC2/DepthDuration/v2_depth_duration_MTurk/v2_DepthDuration_HTML.html#294,294,1366,657,1366,768,9-3-2022,14-40-20,117,depth_duration_stimuli/000486_2014-06-09_20-47-20_260595134347_rgbf000143-resize_2/000486_2014-06-09_20-47-20_260595134347_rgbf000143-resize_2-target.png,125,4.8325,7,2420,125,feet,jsons/VE125_randls_45_rotated.json,2024367,2206103,41,Man
117,392029,DepthScenes,duration_manipulation_targetAtFixation,jsons/VE125_randls_45_rotated.json,http://54.235.29.9/FacialAge/BNav_EC2/DepthDuration/v2_depth_duration_MTurk/v2_DepthDuration_HTML.html#294,294,1366,657,1366,768,9-3-2022,14-40-20,118,depth_duration_stimuli/002344_2014-06-28_20-06-29_260595134347_rgbf000030-resize_1/002344_2014-06-28_20-06-29_260595134347_rgbf000030-resize_1-target.png,125,1.5795,6,2390,123,feet,jsons/VE125_randls_45_rotated.json,2024367,2206103,41,Man
118,392029,DepthScenes,duration_manipulation_targetAtFixation,jsons/VE125_randls_45_rotated.json,http://54.235.29.9/FacialAge/BNav_EC2/DepthDuration/v2_depth_duration_MTurk/v2_DepthDuration_HTML.html#294,294,1366,657,1366,768,9-3-2022,14-40-20,119,depth_duration_stimuli/002725_2014-06-22_11-47-51_094959634447_rgbf000070-resize_1/002725_2014-06-22_11-47-51_094959634447_rgbf000070-resize_1-target.png,125,2.195,7,2167,124,feet,jsons/VE125_randls_45_rotated.json,2024367,2206103,41,Man
119,392029,DepthScenes,duration_manipulation_targetAtFixation,jsons/VE125_randls_45_rotated.json,http://54.235.29.9/FacialAge/BNav_EC2/DepthDuration/v2_depth_duration_MTurk/v2_DepthDuration_HTML.html#294,294,1366,657,1366,768,9-3-2022,14-40-20,120,depth_duration_stimuli/000787_2014-06-08_22-33-53_260595134347_rgbf000175-resize_1/000787_2014-06-08_22-33-53_260595134347_rgbf000175-resize-original.jpg,125,4.784,11,2357,123,feet,jsons/VE125_randls_45_rotated.json,2024367,2206103,41,Man
120,392029,DepthScenes,duration_manipulation_targetAtFixation,jsons/VE125_randls_45_rotated.json,http://54.235.29.9/FacialAge/BNav_EC2/DepthDuration/v2_depth_duration_MTurk/v2_DepthDuration_HTML.html#294,294,1366,657,1366,768,9-3-2022,14-40-20,121,depth_duration_stimuli/001617_2014-06-20_11-35-32_260595134347_rgbf000066-resize_1/001617_2014-06-20_11-35-32_260595134347_rgbf000066-resize_1-target.png,125,3.7910000000000004,6,2325,124,feet,jsons/VE125_randls_45_rotated.json,2024367,2206103,41,Man
121,392029,DepthScenes,duration_manipulation_targetAtFixation,jsons/VE125_randls_45_rotated.json,http://54.235.29.9/FacialAge/BNav_EC2/DepthDuration/v2_depth_duration_MTurk/v2_DepthDuration_HTML.html#294,294,1366,657,1366,768,9-3-2022,14-40-20,122,depth_duration_stimuli/001806_2014-06-26_20-50-20_260595134347_rgbf000091-resize_1/001806_2014-06-26_20-50-20_260595134347_rgbf000091-resize_1-target.png,125,2.7305,5,2244,219,feet,jsons/VE125_randls_45_rotated.json,2024367,2206103,41,Man
122,392029,DepthScenes,duration_manipulation_targetAtFixation,jsons/VE125_randls_45_rotated.json,http://54.235.29.9/FacialAge/BNav_EC2/DepthDuration/v2_depth_duration_MTurk/v2_DepthDuration_HTML.html#294,294,1366,657,1366,768,9-3-2022,14-40-20,123,depth_duration_stimuli/001032_2014-06-08_13-23-17_260595134347_rgbf000021-resize_3/001032_2014-06-08_13-23-17_260595134347_rgbf000021-resize_3-target.png,125,3.2725,8,4988,125,feet,jsons/VE125_randls_45_rotated.json,2024367,2206103,41,Man
123,392029,DepthScenes,duration_manipulation_targetAtFixation,jsons/VE125_randls_45_rotated.json,http://54.235.29.9/FacialAge/BNav_EC2/DepthDuration/v2_depth_duration_MTurk/v2_DepthDuration_HTML.html#294,294,1366,657,1366,768,9-3-2022,14-40-20,124,depth_duration_stimuli/001059_2014-06-08_21-53-27_260595134347_rgbf000061-resize_4/001059_2014-06-08_21-53-27_260595134347_rgbf000061-resize_4-target.png,125,2.4185,5,2949,124,feet,jsons/VE125_randls_45_rotated.json,2024367,2206103,41,Man
124,392029,DepthScenes,duration_manipulation_targetAtFixation,jsons/VE125_randls_45_rotated.json,http://54.235.29.9/FacialAge/BNav_EC2/DepthDuration/v2_depth_duration_MTurk/v2_DepthDuration_HTML.html#294,294,1366,657,1366,768,9-3-2022,14-40-20,125,depth_duration_stimuli/002949_2014-06-26_15-57-42_094959634447_rgbf000079-resize_1/002949_2014-06-26_15-57-42_094959634447_rgbf000079-resize_1-target.png,125,1.8915,4,3148,123,feet,jsons/VE125_randls_45_rotated.json,2024367,2206103,41,Man
125,392029,DepthScenes,duration_manipulation_targetAtFixation,jsons/VE125_randls_45_rotated.json,http://54.235.29.9/FacialAge/BNav_EC2/DepthDuration/v2_depth_duration_MTurk/v2_DepthDuration_HTML.html#294,294,1366,657,1366,768,9-3-2022,14-40-20,126,depth_duration_stimuli/000522_2014-06-08_13-35-06_260595134347_rgbf000244-resize_1/000522_2014-06-08_13-35-06_260595134347_rgbf000244-resize_1-target.png,125,2.3715,7,21613,30,feet,jsons/VE125_randls_45_rotated.json,2024367,2206103,41,Man
126,392029,DepthScenes,duration_manipulation_targetAtFixation,jsons/VE125_randls_45_rotated.json,http://54.235.29.9/FacialAge/BNav_EC2/DepthDuration/v2_depth_duration_MTurk/v2_DepthDuration_HTML.html#294,294,1366,657,1366,768,9-3-2022,14-40-20,127,depth_duration_stimuli/000103_2014-05-14_22-01-17_260595134347_rgbf000152-resize_5/000103_2014-05-14_22-01-17_260595134347_rgbf000152-resize_5-target.png,125,1.993,5,2610,123,feet,jsons/VE125_randls_45_rotated.json,2024367,2206103,41,Man
127,392029,DepthScenes,duration_manipulation_targetAtFixation,jsons/VE125_randls_45_rotated.json,http://54.235.29.9/FacialAge/BNav_EC2/DepthDuration/v2_depth_duration_MTurk/v2_DepthDuration_HTML.html#294,294,1366,657,1366,768,9-3-2022,14-40-20,128,depth_duration_stimuli/001555_2014-06-20_17-12-10_260595134347_rgbf000065-resize_4/001555_2014-06-20_17-12-10_260595134347_rgbf000065-resize_4-target.png,125,1.633,5,2497,124,feet,jsons/VE125_randls_45_rotated.json,2024367,2206103,41,Man
128,392029,DepthScenes,duration_manipulation_targetAtFixation,jsons/VE125_randls_45_rotated.json,http://54.235.29.9/FacialAge/BNav_EC2/DepthDuration/v2_depth_duration_MTurk/v2_DepthDuration_HTML.html#294,294,1366,657,1366,768,9-3-2022,14-40-20,129,depth_duration_stimuli/000137_2014-05-20_17-04-49_260595134347_rgbf000120-resize_1/000137_2014-05-20_17-04-49_260595134347_rgbf000120-resize_1-target.png,125,3.786,4,2027,121,feet,jsons/VE125_randls_45_rotated.json,2024367,2206103,41,Man
129,392029,DepthScenes,duration_manipulation_targetAtFixation,jsons/VE125_randls_45_rotated.json,http://54.235.29.9/FacialAge/BNav_EC2/DepthDuration/v2_depth_duration_MTurk/v2_DepthDuration_HTML.html#294,294,1366,657,1366,768,9-3-2022,14-40-20,130,depth_duration_stimuli/000736_2014-06-08_18-24-15_260595134347_rgbf000206-resize_3/000736_2014-06-08_18-24-15_260595134347_rgbf000206-resize_3-target.png,125,3.515,7,2332,118,feet,jsons/VE125_randls_45_rotated.json,2024367,2206103,41,Man
130,392029,DepthScenes,duration_manipulation_targetAtFixation,jsons/VE125_randls_45_rotated.json,http://54.235.29.9/FacialAge/BNav_EC2/DepthDuration/v2_depth_duration_MTurk/v2_DepthDuration_HTML.html#294,294,1366,657,1366,768,9-3-2022,14-40-20,131,depth_duration_stimuli/003228_2014-05-14_13-42-35_094959634447_rgbf000101-resize_1/003228_2014-05-14_13-42-35_094959634447_rgbf000101-resize_1-target.png,125,1.9680000000000002,6,2276,123,feet,jsons/VE125_randls_45_rotated.json,2024367,2206103,41,Man
131,392029,DepthScenes,duration_manipulation_targetAtFixation,jsons/VE125_randls_45_rotated.json,http://54.235.29.9/FacialAge/BNav_EC2/DepthDuration/v2_depth_duration_MTurk/v2_DepthDuration_HTML.html#294,294,1366,657,1366,768,9-3-2022,14-40-20,132,depth_duration_stimuli/002600_2014-06-24_14-27-04_094959634447_rgbf000074-resize_2/002600_2014-06-24_14-27-04_094959634447_rgbf000074-resize_2-target.png,125,2.7575,6,2230,125,feet,jsons/VE125_randls_45_rotated.json,2024367,2206103,41,Man
132,392029,DepthScenes,duration_manipulation_targetAtFixation,jsons/VE125_randls_45_rotated.json,http://54.235.29.9/FacialAge/BNav_EC2/DepthDuration/v2_depth_duration_MTurk/v2_DepthDuration_HTML.html#294,294,1366,657,1366,768,9-3-2022,14-40-20,133,depth_duration_stimuli/002637_2014-06-24_14-51-13_094959634447_rgbf000066-resize_4/002637_2014-06-24_14-51-13_094959634447_rgbf000066-resize_4-target.png,125,1.9955,7,2739,124,feet,jsons/VE125_randls_45_rotated.json,2024367,2206103,41,Man
133,392029,DepthScenes,duration_manipulation_targetAtFixation,jsons/VE125_randls_45_rotated.json,http://54.235.29.9/FacialAge/BNav_EC2/DepthDuration/v2_depth_duration_MTurk/v2_DepthDuration_HTML.html#294,294,1366,657,1366,768,9-3-2022,14-40-20,134,depth_duration_stimuli/003534_2014-05-22_15-06-10_094959634447_rgbf000102-resize_4/003534_2014-05-22_15-06-10_094959634447_rgbf000102-resize_4-target.png,125,1.426,4,2442,124,feet,jsons/VE125_randls_45_rotated.json,2024367,2206103,41,Man
134,392029,DepthScenes,duration_manipulation_targetAtFixation,jsons/VE125_randls_45_rotated.json,http://54.235.29.9/FacialAge/BNav_EC2/DepthDuration/v2_depth_duration_MTurk/v2_DepthDuration_HTML.html#294,294,1366,657,1366,768,9-3-2022,14-40-20,135,depth_duration_stimuli/000375_2014-06-08_11-17-29_260595134347_rgbf000133-resize_2/000375_2014-06-08_11-17-29_260595134347_rgbf000133-resize-original.jpg,125,4.718,5,2451,119,feet,jsons/VE125_randls_45_rotated.json,2024367,2206103,41,Man
135,392029,DepthScenes,duration_manipulation_targetAtFixation,jsons/VE125_randls_45_rotated.json,http://54.235.29.9/FacialAge/BNav_EC2/DepthDuration/v2_depth_duration_MTurk/v2_DepthDuration_HTML.html#294,294,1366,657,1366,768,9-3-2022,14-40-20,136,depth_duration_stimuli/001516_2014-06-20_16-25-09_260595134347_rgbf000076-resize_2/001516_2014-06-20_16-25-09_260595134347_rgbf000076-resize_2-target.png,125,1.7445,6,2189,123,feet,jsons/VE125_randls_45_rotated.json,2024367,2206103,41,Man
136,392029,DepthScenes,duration_manipulation_targetAtFixation,jsons/VE125_randls_45_rotated.json,http://54.235.29.9/FacialAge/BNav_EC2/DepthDuration/v2_depth_duration_MTurk/v2_DepthDuration_HTML.html#294,294,1366,657,1366,768,9-3-2022,14-40-20,137,depth_duration_stimuli/002118_2014-06-25_20-32-08_260595134347_rgbf000078-resize_1/002118_2014-06-25_20-32-08_260595134347_rgbf000078-resize_1-target.png,125,2.6460000000000004,4,3928,211,feet,jsons/VE125_randls_45_rotated.json,2024367,2206103,41,Man
137,392029,DepthScenes,duration_manipulation_targetAtFixation,jsons/VE125_randls_45_rotated.json,http://54.235.29.9/FacialAge/BNav_EC2/DepthDuration/v2_depth_duration_MTurk/v2_DepthDuration_HTML.html#294,294,1366,657,1366,768,9-3-2022,14-40-20,138,depth_duration_stimuli/002568_2014-06-24_13-59-21_094959634447_rgbf000062-resize_4/002568_2014-06-24_13-59-21_094959634447_rgbf000062-resize_4-target.png,125,3.015,7,2579,124,feet,jsons/VE125_randls_45_rotated.json,2024367,2206103,41,Man
138,392029,DepthScenes,duration_manipulation_targetAtFixation,jsons/VE125_randls_45_rotated.json,http://54.235.29.9/FacialAge/BNav_EC2/DepthDuration/v2_depth_duration_MTurk/v2_DepthDuration_HTML.html#294,294,1366,657,1366,768,9-3-2022,14-40-20,139,depth_duration_stimuli/003492_2014-05-21_15-50-55_094959634447_rgbf000828-resize_1/003492_2014-05-21_15-50-55_094959634447_rgbf000828-resize_1-target.png,125,4.06875,2,3774,124,feet,jsons/VE125_randls_45_rotated.json,2024367,2206103,41,Man
139,392029,DepthScenes,duration_manipulation_targetAtFixation,jsons/VE125_randls_45_rotated.json,http://54.235.29.9/FacialAge/BNav_EC2/DepthDuration/v2_depth_duration_MTurk/v2_DepthDuration_HTML.html#294,294,1366,657,1366,768,9-3-2022,14-40-20,140,depth_duration_stimuli/001052_2014-06-08_18-24-54_260595134347_rgbf000130-resize_1/001052_2014-06-08_18-24-54_260595134347_rgbf000130-resize_1-target.png,125,4.1045,5,3069,124,feet,jsons/VE125_randls_45_rotated.json,2024367,2206103,41,Man
140,392029,DepthScenes,duration_manipulation_targetAtFixation,jsons/VE125_randls_45_rotated.json,http://54.235.29.9/FacialAge/BNav_EC2/DepthDuration/v2_depth_duration_MTurk/v2_DepthDuration_HTML.html#294,294,1366,657,1366,768,9-3-2022,14-40-20,141,depth_duration_stimuli/002988_2014-06-15_12-24-20_094959634447_rgbf000150-resize_1/002988_2014-06-15_12-24-20_094959634447_rgbf000150-resize_1-target.png,125,4.7669999999999995,6,2870,124,feet,jsons/VE125_randls_45_rotated.json,2024367,2206103,41,Man
141,392029,DepthScenes,duration_manipulation_targetAtFixation,jsons/VE125_randls_45_rotated.json,http://54.235.29.9/FacialAge/BNav_EC2/DepthDuration/v2_depth_duration_MTurk/v2_DepthDuration_HTML.html#294,294,1366,657,1366,768,9-3-2022,14-40-20,142,depth_duration_stimuli/003129_2014-05-12_10-48-10_094959634447_rgbf000100-resize_0/003129_2014-05-12_10-48-10_094959634447_rgbf000100-resize_0-target.png,125,4.9305,8,4039,130,feet,jsons/VE125_randls_45_rotated.json,2024367,2206103,41,Man
142,392029,DepthScenes,duration_manipulation_targetAtFixation,jsons/VE125_randls_45_rotated.json,http://54.235.29.9/FacialAge/BNav_EC2/DepthDuration/v2_depth_duration_MTurk/v2_DepthDuration_HTML.html#294,294,1366,657,1366,768,9-3-2022,14-40-20,143,depth_duration_stimuli/000414_2014-06-04_19-49-13_260595134347_rgbf000044-resize_0/000414_2014-06-04_19-49-13_260595134347_rgbf000044-resize_0-target.png,125,4.329,5,23858,123,feet,jsons/VE125_randls_45_rotated.json,2024367,2206103,41,Man
143,392029,DepthScenes,duration_manipulation_targetAtFixation,jsons/VE125_randls_45_rotated.json,http://54.235.29.9/FacialAge/BNav_EC2/DepthDuration/v2_depth_duration_MTurk/v2_DepthDuration_HTML.html#294,294,1366,657,1366,768,9-3-2022,14-40-20,144,depth_duration_stimuli/002414_2014-06-28_20-24-58_260595134347_rgbf000067-resize_4/002414_2014-06-28_20-24-58_260595134347_rgbf000067-resize_4-target.png,125,4.363,7,2596,121,feet,jsons/VE125_randls_45_rotated.json,2024367,2206103,41,Man
144,392029,DepthScenes,duration_manipulation_targetAtFixation,jsons/VE125_randls_45_rotated.json,http://54.235.29.9/FacialAge/BNav_EC2/DepthDuration/v2_depth_duration_MTurk/v2_DepthDuration_HTML.html#294,294,1366,657,1366,768,9-3-2022,14-40-20,145,depth_duration_stimuli/000773_2014-06-08_22-24-54_260595134347_rgbf000093-resize_1/000773_2014-06-08_22-24-54_260595134347_rgbf000093-resize_1-target.png,125,4.973,6,2638,124,feet,jsons/VE125_randls_45_rotated.json,2024367,2206103,41,Man
145,392029,DepthScenes,duration_manipulation_targetAtFixation,jsons/VE125_randls_45_rotated.json,http://54.235.29.9/FacialAge/BNav_EC2/DepthDuration/v2_depth_duration_MTurk/v2_DepthDuration_HTML.html#294,294,1366,657,1366,768,9-3-2022,14-40-20,146,depth_duration_stimuli/000709_2014-06-08_13-51-55_260595134347_rgbf000068-resize_3/000709_2014-06-08_13-51-55_260595134347_rgbf000068-resize_3-target.png,125,1.8030000000000002,5,2690,141,feet,jsons/VE125_randls_45_rotated.json,2024367,2206103,41,Man
146,392029,DepthScenes,duration_manipulation_targetAtFixation,jsons/VE125_randls_45_rotated.json,http://54.235.29.9/FacialAge/BNav_EC2/DepthDuration/v2_depth_duration_MTurk/v2_DepthDuration_HTML.html#294,294,1366,657,1366,768,9-3-2022,14-40-20,147,depth_duration_stimuli/002057_2014-06-24_21-00-13_260595134347_rgbf000120-resize_1/002057_2014-06-24_21-00-13_260595134347_rgbf000120-resize_1-target.png,125,2.967,7,2767,124,feet,jsons/VE125_randls_45_rotated.json,2024367,2206103,41,Man
147,392029,DepthScenes,duration_manipulation_targetAtFixation,jsons/VE125_randls_45_rotated.json,http://54.235.29.9/FacialAge/BNav_EC2/DepthDuration/v2_depth_duration_MTurk/v2_DepthDuration_HTML.html#294,294,1366,657,1366,768,9-3-2022,14-40-20,148,depth_duration_stimuli/002467_2014-06-28_20-38-07_260595134347_rgbf000026-resize_2/002467_2014-06-28_20-38-07_260595134347_rgbf000026-resize_2-target.png,125,4.742,6,2689,94,feet,jsons/VE125_randls_45_rotated.json,2024367,2206103,41,Man
148,392029,DepthScenes,duration_manipulation_targetAtFixation,jsons/VE125_randls_45_rotated.json,http://54.235.29.9/FacialAge/BNav_EC2/DepthDuration/v2_depth_duration_MTurk/v2_DepthDuration_HTML.html#294,294,1366,657,1366,768,9-3-2022,14-40-20,149,depth_duration_stimuli/002570_2014-06-24_13-59-54_094959634447_rgbf000059-resize_0/002570_2014-06-24_13-59-54_094959634447_rgbf000059-resize_0-target.png,125,4.037,8,2869,126,feet,jsons/VE125_randls_45_rotated.json,2024367,2206103,41,Man
149,392029,DepthScenes,duration_manipulation_targetAtFixation,jsons/VE125_randls_45_rotated.json,http://54.235.29.9/FacialAge/BNav_EC2/DepthDuration/v2_depth_duration_MTurk/v2_DepthDuration_HTML.html#294,294,1366,657,1366,768,9-3-2022,14-40-20,150,depth_duration_stimuli/002639_2014-06-24_14-51-37_094959634447_rgbf000074-resize_4/002639_2014-06-24_14-51-37_094959634447_rgbf000074-resize_4-target.png,125,4.0375,6,3831,122,feet,jsons/VE125_randls_45_rotated.json,2024367,2206103,41,Man
150,392029,DepthScenes,duration_manipulation_targetAtFixation,jsons/VE125_randls_45_rotated.json,http://54.235.29.9/FacialAge/BNav_EC2/DepthDuration/v2_depth_duration_MTurk/v2_DepthDuration_HTML.html#294,294,1366,657,1366,768,9-3-2022,14-40-20,151,depth_duration_stimuli/003292_2014-05-14_21-53-49_094959634447_rgbf000100-resize_2/003292_2014-05-14_21-53-49_094959634447_rgbf000100-resize_2-target.png,125,3.4815,5,2983,123,feet,jsons/VE125_randls_45_rotated.json,2024367,2206103,41,Man
151,392029,DepthScenes,duration_manipulation_targetAtFixation,jsons/VE125_randls_45_rotated.json,http://54.235.29.9/FacialAge/BNav_EC2/DepthDuration/v2_depth_duration_MTurk/v2_DepthDuration_HTML.html#294,294,1366,657,1366,768,9-3-2022,14-40-20,152,depth_duration_stimuli/000569_2014-06-09_22-51-47_260595134347_rgbf000141-resize_3/000569_2014-06-09_22-51-47_260595134347_rgbf000141-resize-original.jpg,125,4.512,7,3639,124,feet,jsons/VE125_randls_45_rotated.json,2024367,2206103,41,Man
152,392029,DepthScenes,duration_manipulation_targetAtFixation,jsons/VE125_randls_45_rotated.json,http://54.235.29.9/FacialAge/BNav_EC2/DepthDuration/v2_depth_duration_MTurk/v2_DepthDuration_HTML.html#294,294,1366,657,1366,768,9-3-2022,14-40-20,153,depth_duration_stimuli/002425_2014-06-28_20-27-29_260595134347_rgbf000031-resize_8/002425_2014-06-28_20-27-29_260595134347_rgbf000031-resize_8-target.png,125,3.8960000000000004,6,2910,124,feet,jsons/VE125_randls_45_rotated.json,2024367,2206103,41,Man
153,392029,DepthScenes,duration_manipulation_targetAtFixation,jsons/VE125_randls_45_rotated.json,http://54.235.29.9/FacialAge/BNav_EC2/DepthDuration/v2_depth_duration_MTurk/v2_DepthDuration_HTML.html#294,294,1366,657,1366,768,9-3-2022,14-40-20,154,depth_duration_stimuli/000642_2014-06-08_16-59-25_260595134347_rgbf000098-resize_2/000642_2014-06-08_16-59-25_260595134347_rgbf000098-resize_2-target.png,125,2.8815,5,41308,124,feet,jsons/VE125_randls_45_rotated.json,2024367,2206103,41,Man
154,392029,DepthScenes,duration_manipulation_targetAtFixation,jsons/VE125_randls_45_rotated.json,http://54.235.29.9/FacialAge/BNav_EC2/DepthDuration/v2_depth_duration_MTurk/v2_DepthDuration_HTML.html#294,294,1366,657,1366,768,9-3-2022,14-40-20,155,depth_duration_stimuli/001450_2014-06-19_17-02-03_260595134347_rgbf000203-resize_4/001450_2014-06-19_17-02-03_260595134347_rgbf000203-resize_4-target.png,125,4.0106666666667,6,2628,124,feet,jsons/VE125_randls_45_rotated.json,2024367,2206103,41,Man
155,392029,DepthScenes,duration_manipulation_targetAtFixation,jsons/VE125_randls_45_rotated.json,http://54.235.29.9/FacialAge/BNav_EC2/DepthDuration/v2_depth_duration_MTurk/v2_DepthDuration_HTML.html#294,294,1366,657,1366,768,9-3-2022,14-40-20,156,depth_duration_stimuli/001449_2014-06-19_17-01-27_260595134347_rgbf000116-resize_2/001449_2014-06-19_17-01-27_260595134347_rgbf000116-resize_2-target.png,125,3.452,5,2248,124,feet,jsons/VE125_randls_45_rotated.json,2024367,2206103,41,Man
156,392029,DepthScenes,duration_manipulation_targetAtFixation,jsons/VE125_randls_45_rotated.json,http://54.235.29.9/FacialAge/BNav_EC2/DepthDuration/v2_depth_duration_MTurk/v2_DepthDuration_HTML.html#294,294,1366,657,1366,768,9-3-2022,14-40-20,157,depth_duration_stimuli/001815_2014-06-26_20-52-55_260595134347_rgbf000020-resize_0/001815_2014-06-26_20-52-55_260595134347_rgbf000020-resize_0-target.png,125,3.3865,4,2579,124,feet,jsons/VE125_randls_45_rotated.json,2024367,2206103,41,Man
157,392029,DepthScenes,duration_manipulation_targetAtFixation,jsons/VE125_randls_45_rotated.json,http://54.235.29.9/FacialAge/BNav_EC2/DepthDuration/v2_depth_duration_MTurk/v2_DepthDuration_HTML.html#294,294,1366,657,1366,768,9-3-2022,14-40-20,158,depth_duration_stimuli/001808_2014-06-26_20-50-58_260595134347_rgbf000029-resize_1/001808_2014-06-26_20-50-58_260595134347_rgbf000029-resize_1-target.png,125,4.249,8,16080,124,feet,jsons/VE125_randls_45_rotated.json,2024367,2206103,41,Man
158,392029,DepthScenes,duration_manipulation_targetAtFixation,jsons/VE125_randls_45_rotated.json,http://54.235.29.9/FacialAge/BNav_EC2/DepthDuration/v2_depth_duration_MTurk/v2_DepthDuration_HTML.html#294,294,1366,657,1366,768,9-3-2022,14-40-20,159,depth_duration_stimuli/002805_2014-06-22_19-54-03_094959634447_rgbf000079-resize_1/002805_2014-06-22_19-54-03_094959634447_rgbf000079-resize_1-target.png,125,3.1439999999999997,6,10831,198,feet,jsons/VE125_randls_45_rotated.json,2024367,2206103,41,Man
159,392029,DepthScenes,duration_manipulation_targetAtFixation,jsons/VE125_randls_45_rotated.json,http://54.235.29.9/FacialAge/BNav_EC2/DepthDuration/v2_depth_duration_MTurk/v2_DepthDuration_HTML.html#294,294,1366,657,1366,768,9-3-2022,14-40-20,160,depth_duration_stimuli/000906_2014-06-08_13-35-43_260595134347_rgbf000155-resize_1/000906_2014-06-08_13-35-43_260595134347_rgbf000155-resize_1-target.png,125,2.8489999999999998,6,13642,125,feet,jsons/VE125_randls_45_rotated.json,2024367,2206103,41,Man
160,392029,DepthScenes,duration_manipulation_targetAtFixation,jsons/VE125_randls_45_rotated.json,http://54.235.29.9/FacialAge/BNav_EC2/DepthDuration/v2_depth_duration_MTurk/v2_DepthDuration_HTML.html#294,294,1366,657,1366,768,9-3-2022,14-40-20,161,depth_duration_stimuli/000927_2014-06-09_16-32-30_260595134347_rgbf000123-resize_3/000927_2014-06-09_16-32-30_260595134347_rgbf000123-resize_3-target.png,125,2.6785,8,5479,124,feet,jsons/VE125_randls_45_rotated.json,2024367,2206103,41,Man
161,392029,DepthScenes,duration_manipulation_targetAtFixation,jsons/VE125_randls_45_rotated.json,http://54.235.29.9/FacialAge/BNav_EC2/DepthDuration/v2_depth_duration_MTurk/v2_DepthDuration_HTML.html#294,294,1366,657,1366,768,9-3-2022,14-40-20,162,depth_duration_stimuli/001110_2014-06-15_17-25-28_260595134347_rgbf000150-resize_1/001110_2014-06-15_17-25-28_260595134347_rgbf000150-resize_1-target.png,125,1.7115,6,25943,74,feet,jsons/VE125_randls_45_rotated.json,2024367,2206103,41,Man
162,392029,DepthScenes,duration_manipulation_targetAtFixation,jsons/VE125_randls_45_rotated.json,http://54.235.29.9/FacialAge/BNav_EC2/DepthDuration/v2_depth_duration_MTurk/v2_DepthDuration_HTML.html#294,294,1366,657,1366,768,9-3-2022,14-40-20,163,depth_duration_stimuli/000556_2014-06-09_22-42-56_260595134347_rgbf000214-resize_1/000556_2014-06-09_22-42-56_260595134347_rgbf000214-resize_1-target.png,125,4.8415,5,120043,99,feet,jsons/VE125_randls_45_rotated.json,2024367,2206103,41,Man
163,392029,DepthScenes,duration_manipulation_targetAtFixation,jsons/VE125_randls_45_rotated.json,http://54.235.29.9/FacialAge/BNav_EC2/DepthDuration/v2_depth_duration_MTurk/v2_DepthDuration_HTML.html#294,294,1366,657,1366,768,9-3-2022,14-40-20,164,depth_duration_stimuli/001158_2014-06-17_15-32-16_260595134347_rgbf000138-resize_2/001158_2014-06-17_15-32-16_260595134347_rgbf000138-resize_2-target.png,125,4.5315,5,73576,86,feet,jsons/VE125_randls_45_rotated.json,2024367,2206103,41,Man
