,subjID,experimentName,versionName,sequenceName,url,selected_row,windowWidth,windowHeight,screenWidth,screenHeight,startDate,startTime,trial,stimulus,duration,actual_depth,depth_estimate,trial_RT,log_sceneDuration,unitSelection,seq_filepath,experimentTime,totalTime,age,gender
0,393442,DepthScenes,duration_manipulation_targetAtFixation,jsons/v1_VE250_randls_8_rotated.json,http://54.235.29.9/FacialAge/BNav_EC2/DepthDuration/v2_depth_duration_MTurk/v2_DepthDuration_HTML.html#76,76,1920,937,1920,1080,8-20-2022,9-11-0,1,depth_duration_stimuli/001447_2014-06-19_17-00-32_260595134347_rgbf000082-resize_5/001447_2014-06-19_17-00-32_260595134347_rgbf000082-resize_5-target.png,250,4.13775,8,2841,249,feet,jsons/v1_VE250_randls_8_rotated.json,495364,672683,40,Woman
1,393442,DepthScenes,duration_manipulation_targetAtFixation,jsons/v1_VE250_randls_8_rotated.json,http://54.235.29.9/FacialAge/BNav_EC2/DepthDuration/v2_depth_duration_MTurk/v2_DepthDuration_HTML.html#76,76,1920,937,1920,1080,8-20-2022,9-11-0,2,depth_duration_stimuli/000447_2014-06-08_16-15-46_260595134347_rgbf000130-resize_1/000447_2014-06-08_16-15-46_260595134347_rgbf000130-resize_1-target.png,250,4.479,14,3787,250,feet,jsons/v1_VE250_randls_8_rotated.json,495364,672683,40,Woman
2,393442,DepthScenes,duration_manipulation_targetAtFixation,jsons/v1_VE250_randls_8_rotated.json,http://54.235.29.9/FacialAge/BNav_EC2/DepthDuration/v2_depth_duration_MTurk/v2_DepthDuration_HTML.html#76,76,1920,937,1920,1080,8-20-2022,9-11-0,3,depth_duration_stimuli/002136_2014-06-25_21-18-03_260595134347_rgbf000109-resize_3/002136_2014-06-25_21-18-03_260595134347_rgbf000109-resize_3-target.png,250,1.9569999999999999,8,3585,261,feet,jsons/v1_VE250_randls_8_rotated.json,495364,672683,40,Woman
3,393442,DepthScenes,duration_manipulation_targetAtFixation,jsons/v1_VE250_randls_8_rotated.json,http://54.235.29.9/FacialAge/BNav_EC2/DepthDuration/v2_depth_duration_MTurk/v2_DepthDuration_HTML.html#76,76,1920,937,1920,1080,8-20-2022,9-11-0,4,depth_duration_stimuli/002964_2014-06-08_17-46-11_094959634447_rgbf000091-resize_4/002964_2014-06-08_17-46-11_094959634447_rgbf000091-resize_4-target.png,250,1.6909999999999998,6,2301,261,feet,jsons/v1_VE250_randls_8_rotated.json,495364,672683,40,Woman
4,393442,DepthScenes,duration_manipulation_targetAtFixation,jsons/v1_VE250_randls_8_rotated.json,http://54.235.29.9/FacialAge/BNav_EC2/DepthDuration/v2_depth_duration_MTurk/v2_DepthDuration_HTML.html#76,76,1920,937,1920,1080,8-20-2022,9-11-0,5,depth_duration_stimuli/000109_2014-05-14_23-41-52_260595134347_rgbf000035-resize_9/000109_2014-05-14_23-41-52_260595134347_rgbf000035-resize_9-target.png,250,1.3545,5,2686,250,feet,jsons/v1_VE250_randls_8_rotated.json,495364,672683,40,Woman
5,393442,DepthScenes,duration_manipulation_targetAtFixation,jsons/v1_VE250_randls_8_rotated.json,http://54.235.29.9/FacialAge/BNav_EC2/DepthDuration/v2_depth_duration_MTurk/v2_DepthDuration_HTML.html#76,76,1920,937,1920,1080,8-20-2022,9-11-0,6,depth_duration_stimuli/000470_2014-06-09_19-42-40_260595134347_rgbf000094-resize_1/000470_2014-06-09_19-42-40_260595134347_rgbf000094-resize_1-target.png,250,1.831,7,2502,249,feet,jsons/v1_VE250_randls_8_rotated.json,495364,672683,40,Woman
6,393442,DepthScenes,duration_manipulation_targetAtFixation,jsons/v1_VE250_randls_8_rotated.json,http://54.235.29.9/FacialAge/BNav_EC2/DepthDuration/v2_depth_duration_MTurk/v2_DepthDuration_HTML.html#76,76,1920,937,1920,1080,8-20-2022,9-11-0,7,depth_duration_stimuli/002657_2014-06-13_15-29-54_094959634447_rgbf000150-resize_1/002657_2014-06-13_15-29-54_094959634447_rgbf000150-resize_1-target.png,250,4.919,13,3238,247,feet,jsons/v1_VE250_randls_8_rotated.json,495364,672683,40,Woman
7,393442,DepthScenes,duration_manipulation_targetAtFixation,jsons/v1_VE250_randls_8_rotated.json,http://54.235.29.9/FacialAge/BNav_EC2/DepthDuration/v2_depth_duration_MTurk/v2_DepthDuration_HTML.html#76,76,1920,937,1920,1080,8-20-2022,9-11-0,8,depth_duration_stimuli/002375_2014-06-28_20-13-44_260595134347_rgbf000032-resize_1/002375_2014-06-28_20-13-44_260595134347_rgbf000032-resize_1-target.png,250,4.0175,12,4153,251,feet,jsons/v1_VE250_randls_8_rotated.json,495364,672683,40,Woman
8,393442,DepthScenes,duration_manipulation_targetAtFixation,jsons/v1_VE250_randls_8_rotated.json,http://54.235.29.9/FacialAge/BNav_EC2/DepthDuration/v2_depth_duration_MTurk/v2_DepthDuration_HTML.html#76,76,1920,937,1920,1080,8-20-2022,9-11-0,9,depth_duration_stimuli/001617_2014-06-20_11-35-32_260595134347_rgbf000066-resize_1/001617_2014-06-20_11-35-32_260595134347_rgbf000066-resize_1-target.png,250,3.7910000000000004,15,2365,246,feet,jsons/v1_VE250_randls_8_rotated.json,495364,672683,40,Woman
9,393442,DepthScenes,duration_manipulation_targetAtFixation,jsons/v1_VE250_randls_8_rotated.json,http://54.235.29.9/FacialAge/BNav_EC2/DepthDuration/v2_depth_duration_MTurk/v2_DepthDuration_HTML.html#76,76,1920,937,1920,1080,8-20-2022,9-11-0,10,depth_duration_stimuli/001806_2014-06-26_20-50-20_260595134347_rgbf000091-resize_1/001806_2014-06-26_20-50-20_260595134347_rgbf000091-resize_1-target.png,250,2.7305,8,2255,249,feet,jsons/v1_VE250_randls_8_rotated.json,495364,672683,40,Woman
10,393442,DepthScenes,duration_manipulation_targetAtFixation,jsons/v1_VE250_randls_8_rotated.json,http://54.235.29.9/FacialAge/BNav_EC2/DepthDuration/v2_depth_duration_MTurk/v2_DepthDuration_HTML.html#76,76,1920,937,1920,1080,8-20-2022,9-11-0,11,depth_duration_stimuli/002344_2014-06-28_20-06-29_260595134347_rgbf000030-resize_1/002344_2014-06-28_20-06-29_260595134347_rgbf000030-resize_1-target.png,250,1.5795,5,2245,250,feet,jsons/v1_VE250_randls_8_rotated.json,495364,672683,40,Woman
11,393442,DepthScenes,duration_manipulation_targetAtFixation,jsons/v1_VE250_randls_8_rotated.json,http://54.235.29.9/FacialAge/BNav_EC2/DepthDuration/v2_depth_duration_MTurk/v2_DepthDuration_HTML.html#76,76,1920,937,1920,1080,8-20-2022,9-11-0,12,depth_duration_stimuli/002725_2014-06-22_11-47-51_094959634447_rgbf000070-resize_1/002725_2014-06-22_11-47-51_094959634447_rgbf000070-resize_1-target.png,250,2.195,10,2616,250,feet,jsons/v1_VE250_randls_8_rotated.json,495364,672683,40,Woman
12,393442,DepthScenes,duration_manipulation_targetAtFixation,jsons/v1_VE250_randls_8_rotated.json,http://54.235.29.9/FacialAge/BNav_EC2/DepthDuration/v2_depth_duration_MTurk/v2_DepthDuration_HTML.html#76,76,1920,937,1920,1080,8-20-2022,9-11-0,13,depth_duration_stimuli/002875_2014-06-01_15-19-00_094959634447_rgbf000151-resize_1/002875_2014-06-01_15-19-00_094959634447_rgbf000151-resize_1-target.png,250,1.9675,8,2404,247,feet,jsons/v1_VE250_randls_8_rotated.json,495364,672683,40,Woman
13,393442,DepthScenes,duration_manipulation_targetAtFixation,jsons/v1_VE250_randls_8_rotated.json,http://54.235.29.9/FacialAge/BNav_EC2/DepthDuration/v2_depth_duration_MTurk/v2_DepthDuration_HTML.html#76,76,1920,937,1920,1080,8-20-2022,9-11-0,14,depth_duration_stimuli/001011_2014-06-08_23-18-54_260595134347_rgbf000044-resize_4/001011_2014-06-08_23-18-54_260595134347_rgbf000044-resize_4-target.png,250,2.4730000000000003,11,2190,249,feet,jsons/v1_VE250_randls_8_rotated.json,495364,672683,40,Woman
14,393442,DepthScenes,duration_manipulation_targetAtFixation,jsons/v1_VE250_randls_8_rotated.json,http://54.235.29.9/FacialAge/BNav_EC2/DepthDuration/v2_depth_duration_MTurk/v2_DepthDuration_HTML.html#76,76,1920,937,1920,1080,8-20-2022,9-11-0,15,depth_duration_stimuli/001815_2014-06-26_20-52-55_260595134347_rgbf000020-resize_0/001815_2014-06-26_20-52-55_260595134347_rgbf000020-resize_0-target.png,250,3.3865,12,1815,262,feet,jsons/v1_VE250_randls_8_rotated.json,495364,672683,40,Woman
15,393442,DepthScenes,duration_manipulation_targetAtFixation,jsons/v1_VE250_randls_8_rotated.json,http://54.235.29.9/FacialAge/BNav_EC2/DepthDuration/v2_depth_duration_MTurk/v2_DepthDuration_HTML.html#76,76,1920,937,1920,1080,8-20-2022,9-11-0,16,depth_duration_stimuli/001808_2014-06-26_20-50-58_260595134347_rgbf000029-resize_1/001808_2014-06-26_20-50-58_260595134347_rgbf000029-resize_1-target.png,250,4.249,13,2950,247,feet,jsons/v1_VE250_randls_8_rotated.json,495364,672683,40,Woman
16,393442,DepthScenes,duration_manipulation_targetAtFixation,jsons/v1_VE250_randls_8_rotated.json,http://54.235.29.9/FacialAge/BNav_EC2/DepthDuration/v2_depth_duration_MTurk/v2_DepthDuration_HTML.html#76,76,1920,937,1920,1080,8-20-2022,9-11-0,17,depth_duration_stimuli/000549_2014-06-08_22-10-24_260595134347_rgbf000247-resize_3/000549_2014-06-08_22-10-24_260595134347_rgbf000247-resize_3-target.png,250,1.841,4,2123,257,feet,jsons/v1_VE250_randls_8_rotated.json,495364,672683,40,Woman
17,393442,DepthScenes,duration_manipulation_targetAtFixation,jsons/v1_VE250_randls_8_rotated.json,http://54.235.29.9/FacialAge/BNav_EC2/DepthDuration/v2_depth_duration_MTurk/v2_DepthDuration_HTML.html#76,76,1920,937,1920,1080,8-20-2022,9-11-0,18,depth_duration_stimuli/001055_2014-06-08_18-45-35_260595134347_rgbf000111-resize_4/001055_2014-06-08_18-45-35_260595134347_rgbf000111-resize_4-target.png,250,2.4290000000000003,15,2189,248,feet,jsons/v1_VE250_randls_8_rotated.json,495364,672683,40,Woman
18,393442,DepthScenes,duration_manipulation_targetAtFixation,jsons/v1_VE250_randls_8_rotated.json,http://54.235.29.9/FacialAge/BNav_EC2/DepthDuration/v2_depth_duration_MTurk/v2_DepthDuration_HTML.html#76,76,1920,937,1920,1080,8-20-2022,9-11-0,19,depth_duration_stimuli/001498_2014-06-19_17-45-14_260595134347_rgbf000129-resize_4/001498_2014-06-19_17-45-14_260595134347_rgbf000129-resize-original.jpg,250,1.4075,0,2082,247,feet,jsons/v1_VE250_randls_8_rotated.json,495364,672683,40,Woman
19,393442,DepthScenes,duration_manipulation_targetAtFixation,jsons/v1_VE250_randls_8_rotated.json,http://54.235.29.9/FacialAge/BNav_EC2/DepthDuration/v2_depth_duration_MTurk/v2_DepthDuration_HTML.html#76,76,1920,937,1920,1080,8-20-2022,9-11-0,20,depth_duration_stimuli/002340_2014-06-28_20-05-46_260595134347_rgbf000113-resize_0/002340_2014-06-28_20-05-46_260595134347_rgbf000113-resize_0-target.png,250,2.4735,11,2093,244,feet,jsons/v1_VE250_randls_8_rotated.json,495364,672683,40,Woman
20,393442,DepthScenes,duration_manipulation_targetAtFixation,jsons/v1_VE250_randls_8_rotated.json,http://54.235.29.9/FacialAge/BNav_EC2/DepthDuration/v2_depth_duration_MTurk/v2_DepthDuration_HTML.html#76,76,1920,937,1920,1080,8-20-2022,9-11-0,21,depth_duration_stimuli/001016_2014-06-09_16-16-10_260595134347_rgbf000112-resize_5/001016_2014-06-09_16-16-10_260595134347_rgbf000112-resize_5-target.png,250,1.6565,6,2155,260,feet,jsons/v1_VE250_randls_8_rotated.json,495364,672683,40,Woman
21,393442,DepthScenes,duration_manipulation_targetAtFixation,jsons/v1_VE250_randls_8_rotated.json,http://54.235.29.9/FacialAge/BNav_EC2/DepthDuration/v2_depth_duration_MTurk/v2_DepthDuration_HTML.html#76,76,1920,937,1920,1080,8-20-2022,9-11-0,22,depth_duration_stimuli/002953_2014-06-08_17-32-18_094959634447_rgbf000059-resize_5/002953_2014-06-08_17-32-18_094959634447_rgbf000059-resize_5-target.png,250,1.551,5,1998,243,feet,jsons/v1_VE250_randls_8_rotated.json,495364,672683,40,Woman
22,393442,DepthScenes,duration_manipulation_targetAtFixation,jsons/v1_VE250_randls_8_rotated.json,http://54.235.29.9/FacialAge/BNav_EC2/DepthDuration/v2_depth_duration_MTurk/v2_DepthDuration_HTML.html#76,76,1920,937,1920,1080,8-20-2022,9-11-0,23,depth_duration_stimuli/000878_2014-06-08_22-52-45_260595134347_rgbf000045-resize_2/000878_2014-06-08_22-52-45_260595134347_rgbf000045-resize_2-target.png,250,2.092,8,3104,246,feet,jsons/v1_VE250_randls_8_rotated.json,495364,672683,40,Woman
23,393442,DepthScenes,duration_manipulation_targetAtFixation,jsons/v1_VE250_randls_8_rotated.json,http://54.235.29.9/FacialAge/BNav_EC2/DepthDuration/v2_depth_duration_MTurk/v2_DepthDuration_HTML.html#76,76,1920,937,1920,1080,8-20-2022,9-11-0,24,depth_duration_stimuli/002750_2014-06-22_19-08-03_094959634447_rgbf000094-resize_4/002750_2014-06-22_19-08-03_094959634447_rgbf000094-resize_4-target.png,250,2.354,11,2746,250,feet,jsons/v1_VE250_randls_8_rotated.json,495364,672683,40,Woman
24,393442,DepthScenes,duration_manipulation_targetAtFixation,jsons/v1_VE250_randls_8_rotated.json,http://54.235.29.9/FacialAge/BNav_EC2/DepthDuration/v2_depth_duration_MTurk/v2_DepthDuration_HTML.html#76,76,1920,937,1920,1080,8-20-2022,9-11-0,25,depth_duration_stimuli/002549_2014-06-24_13-41-39_094959634447_rgbf000022-resize_3/002549_2014-06-24_13-41-39_094959634447_rgbf000022-resize_3-target.png,250,1.476,5,1929,263,feet,jsons/v1_VE250_randls_8_rotated.json,495364,672683,40,Woman
25,393442,DepthScenes,duration_manipulation_targetAtFixation,jsons/v1_VE250_randls_8_rotated.json,http://54.235.29.9/FacialAge/BNav_EC2/DepthDuration/v2_depth_duration_MTurk/v2_DepthDuration_HTML.html#76,76,1920,937,1920,1080,8-20-2022,9-11-0,26,depth_duration_stimuli/000780_2014-06-08_22-28-29_260595134347_rgbf000126-resize_1/000780_2014-06-08_22-28-29_260595134347_rgbf000126-resize_1-target.png,250,3.3825,11,2564,254,feet,jsons/v1_VE250_randls_8_rotated.json,495364,672683,40,Woman
26,393442,DepthScenes,duration_manipulation_targetAtFixation,jsons/v1_VE250_randls_8_rotated.json,http://54.235.29.9/FacialAge/BNav_EC2/DepthDuration/v2_depth_duration_MTurk/v2_DepthDuration_HTML.html#76,76,1920,937,1920,1080,8-20-2022,9-11-0,27,depth_duration_stimuli/002445_2014-06-28_20-32-16_260595134347_rgbf000029-resize_4/002445_2014-06-28_20-32-16_260595134347_rgbf000029-resize_4-target.png,250,2.5315,9,2258,250,feet,jsons/v1_VE250_randls_8_rotated.json,495364,672683,40,Woman
27,393442,DepthScenes,duration_manipulation_targetAtFixation,jsons/v1_VE250_randls_8_rotated.json,http://54.235.29.9/FacialAge/BNav_EC2/DepthDuration/v2_depth_duration_MTurk/v2_DepthDuration_HTML.html#76,76,1920,937,1920,1080,8-20-2022,9-11-0,28,depth_duration_stimuli/003228_2014-05-14_13-42-35_094959634447_rgbf000101-resize_1/003228_2014-05-14_13-42-35_094959634447_rgbf000101-resize_1-target.png,250,1.9680000000000002,5,2464,249,feet,jsons/v1_VE250_randls_8_rotated.json,495364,672683,40,Woman
28,393442,DepthScenes,duration_manipulation_targetAtFixation,jsons/v1_VE250_randls_8_rotated.json,http://54.235.29.9/FacialAge/BNav_EC2/DepthDuration/v2_depth_duration_MTurk/v2_DepthDuration_HTML.html#76,76,1920,937,1920,1080,8-20-2022,9-11-0,29,depth_duration_stimuli/002600_2014-06-24_14-27-04_094959634447_rgbf000074-resize_2/002600_2014-06-24_14-27-04_094959634447_rgbf000074-resize_2-target.png,250,2.7575,12,2652,244,feet,jsons/v1_VE250_randls_8_rotated.json,495364,672683,40,Woman
29,393442,DepthScenes,duration_manipulation_targetAtFixation,jsons/v1_VE250_randls_8_rotated.json,http://54.235.29.9/FacialAge/BNav_EC2/DepthDuration/v2_depth_duration_MTurk/v2_DepthDuration_HTML.html#76,76,1920,937,1920,1080,8-20-2022,9-11-0,30,depth_duration_stimuli/002072_2014-06-24_21-48-06_260595134347_rgbf000115-resize_0/002072_2014-06-24_21-48-06_260595134347_rgbf000115-resize-original.jpg,250,4.702,0,3872,237,feet,jsons/v1_VE250_randls_8_rotated.json,495364,672683,40,Woman
30,393442,DepthScenes,duration_manipulation_targetAtFixation,jsons/v1_VE250_randls_8_rotated.json,http://54.235.29.9/FacialAge/BNav_EC2/DepthDuration/v2_depth_duration_MTurk/v2_DepthDuration_HTML.html#76,76,1920,937,1920,1080,8-20-2022,9-11-0,31,depth_duration_stimuli/000709_2014-06-08_13-51-55_260595134347_rgbf000068-resize_3/000709_2014-06-08_13-51-55_260595134347_rgbf000068-resize_3-target.png,250,1.8030000000000002,7,2499,250,feet,jsons/v1_VE250_randls_8_rotated.json,495364,672683,40,Woman
31,393442,DepthScenes,duration_manipulation_targetAtFixation,jsons/v1_VE250_randls_8_rotated.json,http://54.235.29.9/FacialAge/BNav_EC2/DepthDuration/v2_depth_duration_MTurk/v2_DepthDuration_HTML.html#76,76,1920,937,1920,1080,8-20-2022,9-11-0,32,depth_duration_stimuli/002057_2014-06-24_21-00-13_260595134347_rgbf000120-resize_1/002057_2014-06-24_21-00-13_260595134347_rgbf000120-resize_1-target.png,250,2.967,11,2166,249,feet,jsons/v1_VE250_randls_8_rotated.json,495364,672683,40,Woman
32,393442,DepthScenes,duration_manipulation_targetAtFixation,jsons/v1_VE250_randls_8_rotated.json,http://54.235.29.9/FacialAge/BNav_EC2/DepthDuration/v2_depth_duration_MTurk/v2_DepthDuration_HTML.html#76,76,1920,937,1920,1080,8-20-2022,9-11-0,33,depth_duration_stimuli/000103_2014-05-14_22-01-17_260595134347_rgbf000152-resize_5/000103_2014-05-14_22-01-17_260595134347_rgbf000152-resize_5-target.png,250,1.993,14,2529,249,feet,jsons/v1_VE250_randls_8_rotated.json,495364,672683,40,Woman
33,393442,DepthScenes,duration_manipulation_targetAtFixation,jsons/v1_VE250_randls_8_rotated.json,http://54.235.29.9/FacialAge/BNav_EC2/DepthDuration/v2_depth_duration_MTurk/v2_DepthDuration_HTML.html#76,76,1920,937,1920,1080,8-20-2022,9-11-0,34,depth_duration_stimuli/001555_2014-06-20_17-12-10_260595134347_rgbf000065-resize_4/001555_2014-06-20_17-12-10_260595134347_rgbf000065-resize_4-target.png,250,1.633,6,1935,248,feet,jsons/v1_VE250_randls_8_rotated.json,495364,672683,40,Woman
34,393442,DepthScenes,duration_manipulation_targetAtFixation,jsons/v1_VE250_randls_8_rotated.json,http://54.235.29.9/FacialAge/BNav_EC2/DepthDuration/v2_depth_duration_MTurk/v2_DepthDuration_HTML.html#76,76,1920,937,1920,1080,8-20-2022,9-11-0,35,depth_duration_stimuli/001094_2014-06-15_17-36-00_260595134347_rgbf000205-resize_0/001094_2014-06-15_17-36-00_260595134347_rgbf000205-resize_0-target.png,250,4.2175,13,3147,244,feet,jsons/v1_VE250_randls_8_rotated.json,495364,672683,40,Woman
35,393442,DepthScenes,duration_manipulation_targetAtFixation,jsons/v1_VE250_randls_8_rotated.json,http://54.235.29.9/FacialAge/BNav_EC2/DepthDuration/v2_depth_duration_MTurk/v2_DepthDuration_HTML.html#76,76,1920,937,1920,1080,8-20-2022,9-11-0,36,depth_duration_stimuli/000692_2014-06-08_13-09-42_260595134347_rgbf000199-resize_2/000692_2014-06-08_13-09-42_260595134347_rgbf000199-resize_2-target.png,250,3.661,15,3174,246,feet,jsons/v1_VE250_randls_8_rotated.json,495364,672683,40,Woman
36,393442,DepthScenes,duration_manipulation_targetAtFixation,jsons/v1_VE250_randls_8_rotated.json,http://54.235.29.9/FacialAge/BNav_EC2/DepthDuration/v2_depth_duration_MTurk/v2_DepthDuration_HTML.html#76,76,1920,937,1920,1080,8-20-2022,9-11-0,37,depth_duration_stimuli/001052_2014-06-08_18-24-54_260595134347_rgbf000130-resize_1/001052_2014-06-08_18-24-54_260595134347_rgbf000130-resize_1-target.png,250,4.1045,16,2540,250,feet,jsons/v1_VE250_randls_8_rotated.json,495364,672683,40,Woman
37,393442,DepthScenes,duration_manipulation_targetAtFixation,jsons/v1_VE250_randls_8_rotated.json,http://54.235.29.9/FacialAge/BNav_EC2/DepthDuration/v2_depth_duration_MTurk/v2_DepthDuration_HTML.html#76,76,1920,937,1920,1080,8-20-2022,9-11-0,38,depth_duration_stimuli/002988_2014-06-15_12-24-20_094959634447_rgbf000150-resize_1/002988_2014-06-15_12-24-20_094959634447_rgbf000150-resize_1-target.png,250,4.7669999999999995,20,2483,249,feet,jsons/v1_VE250_randls_8_rotated.json,495364,672683,40,Woman
38,393442,DepthScenes,duration_manipulation_targetAtFixation,jsons/v1_VE250_randls_8_rotated.json,http://54.235.29.9/FacialAge/BNav_EC2/DepthDuration/v2_depth_duration_MTurk/v2_DepthDuration_HTML.html#76,76,1920,937,1920,1080,8-20-2022,9-11-0,39,depth_duration_stimuli/003048_2014-06-15_13-49-43_094959634447_rgbf000150-resize_1/003048_2014-06-15_13-49-43_094959634447_rgbf000150-resize_1-target.png,250,4.0035,17,2363,247,feet,jsons/v1_VE250_randls_8_rotated.json,495364,672683,40,Woman
39,393442,DepthScenes,duration_manipulation_targetAtFixation,jsons/v1_VE250_randls_8_rotated.json,http://54.235.29.9/FacialAge/BNav_EC2/DepthDuration/v2_depth_duration_MTurk/v2_DepthDuration_HTML.html#76,76,1920,937,1920,1080,8-20-2022,9-11-0,40,depth_duration_stimuli/002043_2014-06-24_20-29-38_260595134347_rgbf000039-resize_4/002043_2014-06-24_20-29-38_260595134347_rgbf000039-resize_4-target.png,250,2.8435,14,2535,248,feet,jsons/v1_VE250_randls_8_rotated.json,495364,672683,40,Woman
40,393442,DepthScenes,duration_manipulation_targetAtFixation,jsons/v1_VE250_randls_8_rotated.json,http://54.235.29.9/FacialAge/BNav_EC2/DepthDuration/v2_depth_duration_MTurk/v2_DepthDuration_HTML.html#76,76,1920,937,1920,1080,8-20-2022,9-11-0,41,depth_duration_stimuli/002467_2014-06-28_20-38-07_260595134347_rgbf000026-resize_2/002467_2014-06-28_20-38-07_260595134347_rgbf000026-resize_2-target.png,250,4.742,21,1893,247,feet,jsons/v1_VE250_randls_8_rotated.json,495364,672683,40,Woman
41,393442,DepthScenes,duration_manipulation_targetAtFixation,jsons/v1_VE250_randls_8_rotated.json,http://54.235.29.9/FacialAge/BNav_EC2/DepthDuration/v2_depth_duration_MTurk/v2_DepthDuration_HTML.html#76,76,1920,937,1920,1080,8-20-2022,9-11-0,42,depth_duration_stimuli/002570_2014-06-24_13-59-54_094959634447_rgbf000059-resize_0/002570_2014-06-24_13-59-54_094959634447_rgbf000059-resize_0-target.png,250,4.037,6,2233,261,feet,jsons/v1_VE250_randls_8_rotated.json,495364,672683,40,Woman
42,393442,DepthScenes,duration_manipulation_targetAtFixation,jsons/v1_VE250_randls_8_rotated.json,http://54.235.29.9/FacialAge/BNav_EC2/DepthDuration/v2_depth_duration_MTurk/v2_DepthDuration_HTML.html#76,76,1920,937,1920,1080,8-20-2022,9-11-0,43,depth_duration_stimuli/000691_2014-06-08_13-08-50_260595134347_rgbf000132-resize_3/000691_2014-06-08_13-08-50_260595134347_rgbf000132-resize_3-target.png,250,4.1530000000000005,11,1923,245,feet,jsons/v1_VE250_randls_8_rotated.json,495364,672683,40,Woman
43,393442,DepthScenes,duration_manipulation_targetAtFixation,jsons/v1_VE250_randls_8_rotated.json,http://54.235.29.9/FacialAge/BNav_EC2/DepthDuration/v2_depth_duration_MTurk/v2_DepthDuration_HTML.html#76,76,1920,937,1920,1080,8-20-2022,9-11-0,44,depth_duration_stimuli/002213_2014-06-28_18-37-58_260595134347_rgbf000055-resize_1/002213_2014-06-28_18-37-58_260595134347_rgbf000055-resize_1-target.png,250,3.62,14,2023,250,feet,jsons/v1_VE250_randls_8_rotated.json,495364,672683,40,Woman
44,393442,DepthScenes,duration_manipulation_targetAtFixation,jsons/v1_VE250_randls_8_rotated.json,http://54.235.29.9/FacialAge/BNav_EC2/DepthDuration/v2_depth_duration_MTurk/v2_DepthDuration_HTML.html#76,76,1920,937,1920,1080,8-20-2022,9-11-0,45,depth_duration_stimuli/001571_2014-06-20_17-21-32_260595134347_rgbf000089-resize_1/001571_2014-06-20_17-21-32_260595134347_rgbf000089-resize_1-target.png,250,1.86,6,2007,250,feet,jsons/v1_VE250_randls_8_rotated.json,495364,672683,40,Woman
45,393442,DepthScenes,duration_manipulation_targetAtFixation,jsons/v1_VE250_randls_8_rotated.json,http://54.235.29.9/FacialAge/BNav_EC2/DepthDuration/v2_depth_duration_MTurk/v2_DepthDuration_HTML.html#76,76,1920,937,1920,1080,8-20-2022,9-11-0,46,depth_duration_stimuli/002272_2014-06-28_18-53-56_260595134347_rgbf000067-resize_2/002272_2014-06-28_18-53-56_260595134347_rgbf000067-resize_2-target.png,250,1.138,4,1822,264,feet,jsons/v1_VE250_randls_8_rotated.json,495364,672683,40,Woman
46,393442,DepthScenes,duration_manipulation_targetAtFixation,jsons/v1_VE250_randls_8_rotated.json,http://54.235.29.9/FacialAge/BNav_EC2/DepthDuration/v2_depth_duration_MTurk/v2_DepthDuration_HTML.html#76,76,1920,937,1920,1080,8-20-2022,9-11-0,47,depth_duration_stimuli/002949_2014-06-26_15-57-42_094959634447_rgbf000079-resize_1/002949_2014-06-26_15-57-42_094959634447_rgbf000079-resize_1-target.png,250,1.8915,8,2036,250,feet,jsons/v1_VE250_randls_8_rotated.json,495364,672683,40,Woman
47,393442,DepthScenes,duration_manipulation_targetAtFixation,jsons/v1_VE250_randls_8_rotated.json,http://54.235.29.9/FacialAge/BNav_EC2/DepthDuration/v2_depth_duration_MTurk/v2_DepthDuration_HTML.html#76,76,1920,937,1920,1080,8-20-2022,9-11-0,48,depth_duration_stimuli/000522_2014-06-08_13-35-06_260595134347_rgbf000244-resize_1/000522_2014-06-08_13-35-06_260595134347_rgbf000244-resize_1-target.png,250,2.3715,4,1990,264,feet,jsons/v1_VE250_randls_8_rotated.json,495364,672683,40,Woman
48,393442,DepthScenes,duration_manipulation_targetAtFixation,jsons/v1_VE250_randls_8_rotated.json,http://54.235.29.9/FacialAge/BNav_EC2/DepthDuration/v2_depth_duration_MTurk/v2_DepthDuration_HTML.html#76,76,1920,937,1920,1080,8-20-2022,9-11-0,49,depth_duration_stimuli/001170_2014-06-17_15-43-44_260595134347_rgbf000096-resize_6/001170_2014-06-17_15-43-44_260595134347_rgbf000096-resize-original.jpg,250,1.1909999999999998,0,2030,244,feet,jsons/v1_VE250_randls_8_rotated.json,495364,672683,40,Woman
49,393442,DepthScenes,duration_manipulation_targetAtFixation,jsons/v1_VE250_randls_8_rotated.json,http://54.235.29.9/FacialAge/BNav_EC2/DepthDuration/v2_depth_duration_MTurk/v2_DepthDuration_HTML.html#76,76,1920,937,1920,1080,8-20-2022,9-11-0,50,depth_duration_stimuli/002660_2014-06-13_15-44-18_094959634447_rgbf001878-resize_2/002660_2014-06-13_15-44-18_094959634447_rgbf001878-resize_2-target.png,250,3.576,11,2425,246,feet,jsons/v1_VE250_randls_8_rotated.json,495364,672683,40,Woman
50,393442,DepthScenes,duration_manipulation_targetAtFixation,jsons/v1_VE250_randls_8_rotated.json,http://54.235.29.9/FacialAge/BNav_EC2/DepthDuration/v2_depth_duration_MTurk/v2_DepthDuration_HTML.html#76,76,1920,937,1920,1080,8-20-2022,9-11-0,51,depth_duration_stimuli/002153_2014-06-25_21-27-18_260595134347_rgbf000038-resize_5/002153_2014-06-25_21-27-18_260595134347_rgbf000038-resize_5-target.png,250,2.505,8,2352,259,feet,jsons/v1_VE250_randls_8_rotated.json,495364,672683,40,Woman
51,393442,DepthScenes,duration_manipulation_targetAtFixation,jsons/v1_VE250_randls_8_rotated.json,http://54.235.29.9/FacialAge/BNav_EC2/DepthDuration/v2_depth_duration_MTurk/v2_DepthDuration_HTML.html#76,76,1920,937,1920,1080,8-20-2022,9-11-0,52,depth_duration_stimuli/000635_2014-06-08_16-38-42_260595134347_rgbf000106-resize_1/000635_2014-06-08_16-38-42_260595134347_rgbf000106-resize_1-target.png,250,2.074,9,3218,250,feet,jsons/v1_VE250_randls_8_rotated.json,495364,672683,40,Woman
52,393442,DepthScenes,duration_manipulation_targetAtFixation,jsons/v1_VE250_randls_8_rotated.json,http://54.235.29.9/FacialAge/BNav_EC2/DepthDuration/v2_depth_duration_MTurk/v2_DepthDuration_HTML.html#76,76,1920,937,1920,1080,8-20-2022,9-11-0,53,depth_duration_stimuli/002279_2014-06-28_18-55-32_260595134347_rgbf000040-resize_5/002279_2014-06-28_18-55-32_260595134347_rgbf000040-resize_5-target.png,250,1.5043333333333,5,1863,262,feet,jsons/v1_VE250_randls_8_rotated.json,495364,672683,40,Woman
53,393442,DepthScenes,duration_manipulation_targetAtFixation,jsons/v1_VE250_randls_8_rotated.json,http://54.235.29.9/FacialAge/BNav_EC2/DepthDuration/v2_depth_duration_MTurk/v2_DepthDuration_HTML.html#76,76,1920,937,1920,1080,8-20-2022,9-11-0,54,depth_duration_stimuli/003423_2014-05-21_10-23-26_094959634447_rgbf002665-resize_2/003423_2014-05-21_10-23-26_094959634447_rgbf002665-resize_2-target.png,250,3.2575,12,1997,248,feet,jsons/v1_VE250_randls_8_rotated.json,495364,672683,40,Woman
54,393442,DepthScenes,duration_manipulation_targetAtFixation,jsons/v1_VE250_randls_8_rotated.json,http://54.235.29.9/FacialAge/BNav_EC2/DepthDuration/v2_depth_duration_MTurk/v2_DepthDuration_HTML.html#76,76,1920,937,1920,1080,8-20-2022,9-11-0,55,depth_duration_stimuli/002905_2014-06-03_18-04-43_094959634447_rgbf000151-resize_2/002905_2014-06-03_18-04-43_094959634447_rgbf000151-resize_2-target.png,250,2.0295,6,1932,264,feet,jsons/v1_VE250_randls_8_rotated.json,495364,672683,40,Woman
55,393442,DepthScenes,duration_manipulation_targetAtFixation,jsons/v1_VE250_randls_8_rotated.json,http://54.235.29.9/FacialAge/BNav_EC2/DepthDuration/v2_depth_duration_MTurk/v2_DepthDuration_HTML.html#76,76,1920,937,1920,1080,8-20-2022,9-11-0,56,depth_duration_stimuli/000734_2014-06-08_17-39-11_260595134347_rgbf000128-resize_2/000734_2014-06-08_17-39-11_260595134347_rgbf000128-resize_2-target.png,250,4.098,10,2657,245,feet,jsons/v1_VE250_randls_8_rotated.json,495364,672683,40,Woman
56,393442,DepthScenes,duration_manipulation_targetAtFixation,jsons/v1_VE250_randls_8_rotated.json,http://54.235.29.9/FacialAge/BNav_EC2/DepthDuration/v2_depth_duration_MTurk/v2_DepthDuration_HTML.html#76,76,1920,937,1920,1080,8-20-2022,9-11-0,57,depth_duration_stimuli/000739_2014-06-08_18-45-58_260595134347_rgbf000068-resize_1/000739_2014-06-08_18-45-58_260595134347_rgbf000068-resize_1-target.png,250,3.534,12,2101,260,feet,jsons/v1_VE250_randls_8_rotated.json,495364,672683,40,Woman
57,393442,DepthScenes,duration_manipulation_targetAtFixation,jsons/v1_VE250_randls_8_rotated.json,http://54.235.29.9/FacialAge/BNav_EC2/DepthDuration/v2_depth_duration_MTurk/v2_DepthDuration_HTML.html#76,76,1920,937,1920,1080,8-20-2022,9-11-0,58,depth_duration_stimuli/003083_2014-06-15_15-21-03_094959634447_rgbf000063-resize_1/003083_2014-06-15_15-21-03_094959634447_rgbf000063-resize_1-target.png,250,4.1405,14,2403,258,feet,jsons/v1_VE250_randls_8_rotated.json,495364,672683,40,Woman
58,393442,DepthScenes,duration_manipulation_targetAtFixation,jsons/v1_VE250_randls_8_rotated.json,http://54.235.29.9/FacialAge/BNav_EC2/DepthDuration/v2_depth_duration_MTurk/v2_DepthDuration_HTML.html#76,76,1920,937,1920,1080,8-20-2022,9-11-0,59,depth_duration_stimuli/000486_2014-06-09_20-47-20_260595134347_rgbf000143-resize_2/000486_2014-06-09_20-47-20_260595134347_rgbf000143-resize_2-target.png,250,4.8325,17,2863,249,feet,jsons/v1_VE250_randls_8_rotated.json,495364,672683,40,Woman
59,393442,DepthScenes,duration_manipulation_targetAtFixation,jsons/v1_VE250_randls_8_rotated.json,http://54.235.29.9/FacialAge/BNav_EC2/DepthDuration/v2_depth_duration_MTurk/v2_DepthDuration_HTML.html#76,76,1920,937,1920,1080,8-20-2022,9-11-0,60,depth_duration_stimuli/002545_2014-06-24_13-38-53_094959634447_rgbf000080-resize_4/002545_2014-06-24_13-38-53_094959634447_rgbf000080-resize_4-target.png,250,1.9205,11,2518,263,feet,jsons/v1_VE250_randls_8_rotated.json,495364,672683,40,Woman
60,393442,DepthScenes,duration_manipulation_targetAtFixation,jsons/v1_VE250_randls_8_rotated.json,http://54.235.29.9/FacialAge/BNav_EC2/DepthDuration/v2_depth_duration_MTurk/v2_DepthDuration_HTML.html#76,76,1920,937,1920,1080,8-20-2022,9-11-0,61,depth_duration_stimuli/001092_2014-06-15_17-34-58_260595134347_rgbf000171-resize_3/001092_2014-06-15_17-34-58_260595134347_rgbf000171-resize_3-target.png,250,2.6935,9,1993,242,feet,jsons/v1_VE250_randls_8_rotated.json,495364,672683,40,Woman
61,393442,DepthScenes,duration_manipulation_targetAtFixation,jsons/v1_VE250_randls_8_rotated.json,http://54.235.29.9/FacialAge/BNav_EC2/DepthDuration/v2_depth_duration_MTurk/v2_DepthDuration_HTML.html#76,76,1920,937,1920,1080,8-20-2022,9-11-0,62,depth_duration_stimuli/002103_2014-06-25_20-00-40_260595134347_rgbf000049-resize_0/002103_2014-06-25_20-00-40_260595134347_rgbf000049-resize_0-target.png,250,4.105,11,3037,248,feet,jsons/v1_VE250_randls_8_rotated.json,495364,672683,40,Woman
62,393442,DepthScenes,duration_manipulation_targetAtFixation,jsons/v1_VE250_randls_8_rotated.json,http://54.235.29.9/FacialAge/BNav_EC2/DepthDuration/v2_depth_duration_MTurk/v2_DepthDuration_HTML.html#76,76,1920,937,1920,1080,8-20-2022,9-11-0,63,depth_duration_stimuli/002039_2014-06-24_20-22-38_260595134347_rgbf000084-resize_1/002039_2014-06-24_20-22-38_260595134347_rgbf000084-resize_1-target.png,250,4.408,13,2795,248,feet,jsons/v1_VE250_randls_8_rotated.json,495364,672683,40,Woman
63,393442,DepthScenes,duration_manipulation_targetAtFixation,jsons/v1_VE250_randls_8_rotated.json,http://54.235.29.9/FacialAge/BNav_EC2/DepthDuration/v2_depth_duration_MTurk/v2_DepthDuration_HTML.html#76,76,1920,937,1920,1080,8-20-2022,9-11-0,64,depth_duration_stimuli/001136_2014-06-17_15-19-41_260595134347_rgbf000076-resize_3/001136_2014-06-17_15-19-41_260595134347_rgbf000076-resize_3-target.png,250,1.8655,9,1888,247,feet,jsons/v1_VE250_randls_8_rotated.json,495364,672683,40,Woman
64,393442,DepthScenes,duration_manipulation_targetAtFixation,jsons/v1_VE250_randls_8_rotated.json,http://54.235.29.9/FacialAge/BNav_EC2/DepthDuration/v2_depth_duration_MTurk/v2_DepthDuration_HTML.html#76,76,1920,937,1920,1080,8-20-2022,9-11-0,65,depth_duration_stimuli/001164_2014-06-17_15-35-46_260595134347_rgbf000085-resize_3/001164_2014-06-17_15-35-46_260595134347_rgbf000085-resize_3-target.png,250,2.354,7,2084,263,feet,jsons/v1_VE250_randls_8_rotated.json,495364,672683,40,Woman
65,393442,DepthScenes,duration_manipulation_targetAtFixation,jsons/v1_VE250_randls_8_rotated.json,http://54.235.29.9/FacialAge/BNav_EC2/DepthDuration/v2_depth_duration_MTurk/v2_DepthDuration_HTML.html#76,76,1920,937,1920,1080,8-20-2022,9-11-0,66,depth_duration_stimuli/001540_2014-06-20_17-01-05_260595134347_rgbf000086-resize_2/001540_2014-06-20_17-01-05_260595134347_rgbf000086-resize-original.jpg,250,1.459,0,1997,247,feet,jsons/v1_VE250_randls_8_rotated.json,495364,672683,40,Woman
66,393442,DepthScenes,duration_manipulation_targetAtFixation,jsons/v1_VE250_randls_8_rotated.json,http://54.235.29.9/FacialAge/BNav_EC2/DepthDuration/v2_depth_duration_MTurk/v2_DepthDuration_HTML.html#76,76,1920,937,1920,1080,8-20-2022,9-11-0,67,depth_duration_stimuli/000665_2014-06-09_20-42-35_260595134347_rgbf000110-resize_1/000665_2014-06-09_20-42-35_260595134347_rgbf000110-resize_1-target.png,250,3.057,13,3281,248,feet,jsons/v1_VE250_randls_8_rotated.json,495364,672683,40,Woman
67,393442,DepthScenes,duration_manipulation_targetAtFixation,jsons/v1_VE250_randls_8_rotated.json,http://54.235.29.9/FacialAge/BNav_EC2/DepthDuration/v2_depth_duration_MTurk/v2_DepthDuration_HTML.html#76,76,1920,937,1920,1080,8-20-2022,9-11-0,68,depth_duration_stimuli/001150_2014-06-17_15-27-34_260595134347_rgbf000108-resize_2/001150_2014-06-17_15-27-34_260595134347_rgbf000108-resize_2-target.png,250,4.0325,9,2382,246,feet,jsons/v1_VE250_randls_8_rotated.json,495364,672683,40,Woman
68,393442,DepthScenes,duration_manipulation_targetAtFixation,jsons/v1_VE250_randls_8_rotated.json,http://54.235.29.9/FacialAge/BNav_EC2/DepthDuration/v2_depth_duration_MTurk/v2_DepthDuration_HTML.html#76,76,1920,937,1920,1080,8-20-2022,9-11-0,69,depth_duration_stimuli/002425_2014-06-28_20-27-29_260595134347_rgbf000031-resize_8/002425_2014-06-28_20-27-29_260595134347_rgbf000031-resize_8-target.png,250,3.8960000000000004,12,2277,262,feet,jsons/v1_VE250_randls_8_rotated.json,495364,672683,40,Woman
69,393442,DepthScenes,duration_manipulation_targetAtFixation,jsons/v1_VE250_randls_8_rotated.json,http://54.235.29.9/FacialAge/BNav_EC2/DepthDuration/v2_depth_duration_MTurk/v2_DepthDuration_HTML.html#76,76,1920,937,1920,1080,8-20-2022,9-11-0,70,depth_duration_stimuli/000642_2014-06-08_16-59-25_260595134347_rgbf000098-resize_2/000642_2014-06-08_16-59-25_260595134347_rgbf000098-resize_2-target.png,250,2.8815,10,5272,259,feet,jsons/v1_VE250_randls_8_rotated.json,495364,672683,40,Woman
70,393442,DepthScenes,duration_manipulation_targetAtFixation,jsons/v1_VE250_randls_8_rotated.json,http://54.235.29.9/FacialAge/BNav_EC2/DepthDuration/v2_depth_duration_MTurk/v2_DepthDuration_HTML.html#76,76,1920,937,1920,1080,8-20-2022,9-11-0,71,depth_duration_stimuli/002323_2014-06-28_20-01-54_260595134347_rgbf000051-resize_4/002323_2014-06-28_20-01-54_260595134347_rgbf000051-resize_4-target.png,250,3.7310000000000003,15,2344,250,feet,jsons/v1_VE250_randls_8_rotated.json,495364,672683,40,Woman
71,393442,DepthScenes,duration_manipulation_targetAtFixation,jsons/v1_VE250_randls_8_rotated.json,http://54.235.29.9/FacialAge/BNav_EC2/DepthDuration/v2_depth_duration_MTurk/v2_DepthDuration_HTML.html#76,76,1920,937,1920,1080,8-20-2022,9-11-0,72,depth_duration_stimuli/000917_2014-06-09_22-45-29_260595134347_rgbf000149-resize_3/000917_2014-06-09_22-45-29_260595134347_rgbf000149-resize_3-target.png,250,4.1865,17,2343,251,feet,jsons/v1_VE250_randls_8_rotated.json,495364,672683,40,Woman
72,393442,DepthScenes,duration_manipulation_targetAtFixation,jsons/v1_VE250_randls_8_rotated.json,http://54.235.29.9/FacialAge/BNav_EC2/DepthDuration/v2_depth_duration_MTurk/v2_DepthDuration_HTML.html#76,76,1920,937,1920,1080,8-20-2022,9-11-0,73,depth_duration_stimuli/001516_2014-06-20_16-25-09_260595134347_rgbf000076-resize_2/001516_2014-06-20_16-25-09_260595134347_rgbf000076-resize_2-target.png,250,1.7445,9,2045,244,feet,jsons/v1_VE250_randls_8_rotated.json,495364,672683,40,Woman
73,393442,DepthScenes,duration_manipulation_targetAtFixation,jsons/v1_VE250_randls_8_rotated.json,http://54.235.29.9/FacialAge/BNav_EC2/DepthDuration/v2_depth_duration_MTurk/v2_DepthDuration_HTML.html#76,76,1920,937,1920,1080,8-20-2022,9-11-0,74,depth_duration_stimuli/002118_2014-06-25_20-32-08_260595134347_rgbf000078-resize_1/002118_2014-06-25_20-32-08_260595134347_rgbf000078-resize_1-target.png,250,2.6460000000000004,13,2591,248,feet,jsons/v1_VE250_randls_8_rotated.json,495364,672683,40,Woman
74,393442,DepthScenes,duration_manipulation_targetAtFixation,jsons/v1_VE250_randls_8_rotated.json,http://54.235.29.9/FacialAge/BNav_EC2/DepthDuration/v2_depth_duration_MTurk/v2_DepthDuration_HTML.html#76,76,1920,937,1920,1080,8-20-2022,9-11-0,75,depth_duration_stimuli/002637_2014-06-24_14-51-13_094959634447_rgbf000066-resize_4/002637_2014-06-24_14-51-13_094959634447_rgbf000066-resize_4-target.png,250,1.9955,9,1976,247,feet,jsons/v1_VE250_randls_8_rotated.json,495364,672683,40,Woman
75,393442,DepthScenes,duration_manipulation_targetAtFixation,jsons/v1_VE250_randls_8_rotated.json,http://54.235.29.9/FacialAge/BNav_EC2/DepthDuration/v2_depth_duration_MTurk/v2_DepthDuration_HTML.html#76,76,1920,937,1920,1080,8-20-2022,9-11-0,76,depth_duration_stimuli/003534_2014-05-22_15-06-10_094959634447_rgbf000102-resize_4/003534_2014-05-22_15-06-10_094959634447_rgbf000102-resize_4-target.png,250,1.426,5,2028,249,feet,jsons/v1_VE250_randls_8_rotated.json,495364,672683,40,Woman
76,393442,DepthScenes,duration_manipulation_targetAtFixation,jsons/v1_VE250_randls_8_rotated.json,http://54.235.29.9/FacialAge/BNav_EC2/DepthDuration/v2_depth_duration_MTurk/v2_DepthDuration_HTML.html#76,76,1920,937,1920,1080,8-20-2022,9-11-0,77,depth_duration_stimuli/000677_2014-06-08_23-10-32_260595134347_rgbf000158-resize_6/000677_2014-06-08_23-10-32_260595134347_rgbf000158-resize_6-target.png,250,3.556,13,2389,249,feet,jsons/v1_VE250_randls_8_rotated.json,495364,672683,40,Woman
77,393442,DepthScenes,duration_manipulation_targetAtFixation,jsons/v1_VE250_randls_8_rotated.json,http://54.235.29.9/FacialAge/BNav_EC2/DepthDuration/v2_depth_duration_MTurk/v2_DepthDuration_HTML.html#76,76,1920,937,1920,1080,8-20-2022,9-11-0,78,depth_duration_stimuli/001029_2014-06-08_13-17-57_260595134347_rgbf000065-resize_1/001029_2014-06-08_13-17-57_260595134347_rgbf000065-resize_1-target.png,250,3.0835,10,2443,251,feet,jsons/v1_VE250_randls_8_rotated.json,495364,672683,40,Woman
78,393442,DepthScenes,duration_manipulation_targetAtFixation,jsons/v1_VE250_randls_8_rotated.json,http://54.235.29.9/FacialAge/BNav_EC2/DepthDuration/v2_depth_duration_MTurk/v2_DepthDuration_HTML.html#76,76,1920,937,1920,1080,8-20-2022,9-11-0,79,depth_duration_stimuli/001828_2014-06-26_21-40-03_260595134347_rgbf000024-resize_0/001828_2014-06-26_21-40-03_260595134347_rgbf000024-resize_0-target.png,250,4.8260000000000005,8,2586,246,feet,jsons/v1_VE250_randls_8_rotated.json,495364,672683,40,Woman
79,393442,DepthScenes,duration_manipulation_targetAtFixation,jsons/v1_VE250_randls_8_rotated.json,http://54.235.29.9/FacialAge/BNav_EC2/DepthDuration/v2_depth_duration_MTurk/v2_DepthDuration_HTML.html#76,76,1920,937,1920,1080,8-20-2022,9-11-0,80,depth_duration_stimuli/000009_2014-05-26_14-32-05_260595134347_rgbf000034-resize_3/000009_2014-05-26_14-32-05_260595134347_rgbf000034-resize_3-target.png,250,3.8715,17,2302,237,feet,jsons/v1_VE250_randls_8_rotated.json,495364,672683,40,Woman
80,393442,DepthScenes,duration_manipulation_targetAtFixation,jsons/v1_VE250_randls_8_rotated.json,http://54.235.29.9/FacialAge/BNav_EC2/DepthDuration/v2_depth_duration_MTurk/v2_DepthDuration_HTML.html#76,76,1920,937,1920,1080,8-20-2022,9-11-0,81,depth_duration_stimuli/000854_2014-06-09_19-43-13_260595134347_rgbf000066-resize_0/000854_2014-06-09_19-43-13_260595134347_rgbf000066-resize_0-target.png,250,3.068,7,1931,247,feet,jsons/v1_VE250_randls_8_rotated.json,495364,672683,40,Woman
81,393442,DepthScenes,duration_manipulation_targetAtFixation,jsons/v1_VE250_randls_8_rotated.json,http://54.235.29.9/FacialAge/BNav_EC2/DepthDuration/v2_depth_duration_MTurk/v2_DepthDuration_HTML.html#76,76,1920,937,1920,1080,8-20-2022,9-11-0,82,depth_duration_stimuli/000758_2014-06-08_22-05-08_260595134347_rgbf000085-resize_0/000758_2014-06-08_22-05-08_260595134347_rgbf000085-resize_0-target.png,250,3.3810000000000002,15,2318,260,feet,jsons/v1_VE250_randls_8_rotated.json,495364,672683,40,Woman
82,393442,DepthScenes,duration_manipulation_targetAtFixation,jsons/v1_VE250_randls_8_rotated.json,http://54.235.29.9/FacialAge/BNav_EC2/DepthDuration/v2_depth_duration_MTurk/v2_DepthDuration_HTML.html#76,76,1920,937,1920,1080,8-20-2022,9-11-0,83,depth_duration_stimuli/002444_2014-06-28_20-32-08_260595134347_rgbf000027-resize_0/002444_2014-06-28_20-32-08_260595134347_rgbf000027-resize_0-target.png,250,4.388999999999999,18,2154,249,feet,jsons/v1_VE250_randls_8_rotated.json,495364,672683,40,Woman
83,393442,DepthScenes,duration_manipulation_targetAtFixation,jsons/v1_VE250_randls_8_rotated.json,http://54.235.29.9/FacialAge/BNav_EC2/DepthDuration/v2_depth_duration_MTurk/v2_DepthDuration_HTML.html#76,76,1920,937,1920,1080,8-20-2022,9-11-0,84,depth_duration_stimuli/000436_2014-06-09_22-25-11_260595134347_rgbf000137-resize_1/000436_2014-06-09_22-25-11_260595134347_rgbf000137-resize_1-target.png,250,4.0705,20,2465,248,feet,jsons/v1_VE250_randls_8_rotated.json,495364,672683,40,Woman
84,393442,DepthScenes,duration_manipulation_targetAtFixation,jsons/v1_VE250_randls_8_rotated.json,http://54.235.29.9/FacialAge/BNav_EC2/DepthDuration/v2_depth_duration_MTurk/v2_DepthDuration_HTML.html#76,76,1920,937,1920,1080,8-20-2022,9-11-0,85,depth_duration_stimuli/002995_2014-06-15_12-31-26_094959634447_rgbf000150-resize_1/002995_2014-06-15_12-31-26_094959634447_rgbf000150-resize_1-target.png,250,3.8360000000000003,18,2598,247,feet,jsons/v1_VE250_randls_8_rotated.json,495364,672683,40,Woman
85,393442,DepthScenes,duration_manipulation_targetAtFixation,jsons/v1_VE250_randls_8_rotated.json,http://54.235.29.9/FacialAge/BNav_EC2/DepthDuration/v2_depth_duration_MTurk/v2_DepthDuration_HTML.html#76,76,1920,937,1920,1080,8-20-2022,9-11-0,86,depth_duration_stimuli/002748_2014-06-22_19-07-22_094959634447_rgbf000078-resize_1/002748_2014-06-22_19-07-22_094959634447_rgbf000078-resize_1-target.png,250,4.6705,21,2168,250,feet,jsons/v1_VE250_randls_8_rotated.json,495364,672683,40,Woman
86,393442,DepthScenes,duration_manipulation_targetAtFixation,jsons/v1_VE250_randls_8_rotated.json,http://54.235.29.9/FacialAge/BNav_EC2/DepthDuration/v2_depth_duration_MTurk/v2_DepthDuration_HTML.html#76,76,1920,937,1920,1080,8-20-2022,9-11-0,87,depth_duration_stimuli/000556_2014-06-09_22-42-56_260595134347_rgbf000214-resize_1/000556_2014-06-09_22-42-56_260595134347_rgbf000214-resize_1-target.png,250,4.8415,19,2812,250,feet,jsons/v1_VE250_randls_8_rotated.json,495364,672683,40,Woman
87,393442,DepthScenes,duration_manipulation_targetAtFixation,jsons/v1_VE250_randls_8_rotated.json,http://54.235.29.9/FacialAge/BNav_EC2/DepthDuration/v2_depth_duration_MTurk/v2_DepthDuration_HTML.html#76,76,1920,937,1920,1080,8-20-2022,9-11-0,88,depth_duration_stimuli/001158_2014-06-17_15-32-16_260595134347_rgbf000138-resize_2/001158_2014-06-17_15-32-16_260595134347_rgbf000138-resize_2-target.png,250,4.5315,24,2363,258,feet,jsons/v1_VE250_randls_8_rotated.json,495364,672683,40,Woman
88,393442,DepthScenes,duration_manipulation_targetAtFixation,jsons/v1_VE250_randls_8_rotated.json,http://54.235.29.9/FacialAge/BNav_EC2/DepthDuration/v2_depth_duration_MTurk/v2_DepthDuration_HTML.html#76,76,1920,937,1920,1080,8-20-2022,9-11-0,89,depth_duration_stimuli/002199_2014-06-28_18-33-56_260595134347_rgbf000074-resize_0/002199_2014-06-28_18-33-56_260595134347_rgbf000074-resize_0-target.png,250,1.996,5,1970,247,feet,jsons/v1_VE250_randls_8_rotated.json,495364,672683,40,Woman
89,393442,DepthScenes,duration_manipulation_targetAtFixation,jsons/v1_VE250_randls_8_rotated.json,http://54.235.29.9/FacialAge/BNav_EC2/DepthDuration/v2_depth_duration_MTurk/v2_DepthDuration_HTML.html#76,76,1920,937,1920,1080,8-20-2022,9-11-0,90,depth_duration_stimuli/001056_2014-06-08_18-46-44_260595134347_rgbf000068-resize_0/001056_2014-06-08_18-46-44_260595134347_rgbf000068-resize_0-target.png,250,2.6625,10,3056,246,feet,jsons/v1_VE250_randls_8_rotated.json,495364,672683,40,Woman
90,393442,DepthScenes,duration_manipulation_targetAtFixation,jsons/v1_VE250_randls_8_rotated.json,http://54.235.29.9/FacialAge/BNav_EC2/DepthDuration/v2_depth_duration_MTurk/v2_DepthDuration_HTML.html#76,76,1920,937,1920,1080,8-20-2022,9-11-0,91,depth_duration_stimuli/000502_2014-06-08_23-02-32_260595134347_rgbf000063-resize_4/000502_2014-06-08_23-02-32_260595134347_rgbf000063-resize_4-target.png,250,2.431,8,2163,252,feet,jsons/v1_VE250_randls_8_rotated.json,495364,672683,40,Woman
91,393442,DepthScenes,duration_manipulation_targetAtFixation,jsons/v1_VE250_randls_8_rotated.json,http://54.235.29.9/FacialAge/BNav_EC2/DepthDuration/v2_depth_duration_MTurk/v2_DepthDuration_HTML.html#76,76,1920,937,1920,1080,8-20-2022,9-11-0,92,depth_duration_stimuli/001199_2014-06-17_16-03-48_260595134347_rgbf000077-resize_0/001199_2014-06-17_16-03-48_260595134347_rgbf000077-resize_0-target.png,250,3.4375,19,2908,247,feet,jsons/v1_VE250_randls_8_rotated.json,495364,672683,40,Woman
92,393442,DepthScenes,duration_manipulation_targetAtFixation,jsons/v1_VE250_randls_8_rotated.json,http://54.235.29.9/FacialAge/BNav_EC2/DepthDuration/v2_depth_duration_MTurk/v2_DepthDuration_HTML.html#76,76,1920,937,1920,1080,8-20-2022,9-11-0,93,depth_duration_stimuli/002805_2014-06-22_19-54-03_094959634447_rgbf000079-resize_1/002805_2014-06-22_19-54-03_094959634447_rgbf000079-resize_1-target.png,250,3.1439999999999997,9,2895,248,feet,jsons/v1_VE250_randls_8_rotated.json,495364,672683,40,Woman
93,393442,DepthScenes,duration_manipulation_targetAtFixation,jsons/v1_VE250_randls_8_rotated.json,http://54.235.29.9/FacialAge/BNav_EC2/DepthDuration/v2_depth_duration_MTurk/v2_DepthDuration_HTML.html#76,76,1920,937,1920,1080,8-20-2022,9-11-0,94,depth_duration_stimuli/000906_2014-06-08_13-35-43_260595134347_rgbf000155-resize_1/000906_2014-06-08_13-35-43_260595134347_rgbf000155-resize_1-target.png,250,2.8489999999999998,10,3606,246,feet,jsons/v1_VE250_randls_8_rotated.json,495364,672683,40,Woman
94,393442,DepthScenes,duration_manipulation_targetAtFixation,jsons/v1_VE250_randls_8_rotated.json,http://54.235.29.9/FacialAge/BNav_EC2/DepthDuration/v2_depth_duration_MTurk/v2_DepthDuration_HTML.html#76,76,1920,937,1920,1080,8-20-2022,9-11-0,95,depth_duration_stimuli/003587_2014-05-23_16-48-02_094959634447_rgbf002384-resize_2/003587_2014-05-23_16-48-02_094959634447_rgbf002384-resize_2-target.png,250,1.357,5,1961,247,feet,jsons/v1_VE250_randls_8_rotated.json,495364,672683,40,Woman
95,393442,DepthScenes,duration_manipulation_targetAtFixation,jsons/v1_VE250_randls_8_rotated.json,http://54.235.29.9/FacialAge/BNav_EC2/DepthDuration/v2_depth_duration_MTurk/v2_DepthDuration_HTML.html#76,76,1920,937,1920,1080,8-20-2022,9-11-0,96,depth_duration_stimuli/001167_2014-06-17_15-38-07_260595134347_rgbf000108-resize_0/001167_2014-06-17_15-38-07_260595134347_rgbf000108-resize_0-target.png,250,1.8505,7,2698,247,feet,jsons/v1_VE250_randls_8_rotated.json,495364,672683,40,Woman
96,393442,DepthScenes,duration_manipulation_targetAtFixation,jsons/v1_VE250_randls_8_rotated.json,http://54.235.29.9/FacialAge/BNav_EC2/DepthDuration/v2_depth_duration_MTurk/v2_DepthDuration_HTML.html#76,76,1920,937,1920,1080,8-20-2022,9-11-0,97,depth_duration_stimuli/001100_2014-06-15_17-46-26_260595134347_rgbf000225-resize_2/001100_2014-06-15_17-46-26_260595134347_rgbf000225-resize_2-target.png,250,2.24,4,2088,255,feet,jsons/v1_VE250_randls_8_rotated.json,495364,672683,40,Woman
97,393442,DepthScenes,duration_manipulation_targetAtFixation,jsons/v1_VE250_randls_8_rotated.json,http://54.235.29.9/FacialAge/BNav_EC2/DepthDuration/v2_depth_duration_MTurk/v2_DepthDuration_HTML.html#76,76,1920,937,1920,1080,8-20-2022,9-11-0,98,depth_duration_stimuli/002784_2014-06-22_19-26-30_094959634447_rgbf000083-resize_3/002784_2014-06-22_19-26-30_094959634447_rgbf000083-resize_3-target.png,250,1.8046666666667,5,2968,249,feet,jsons/v1_VE250_randls_8_rotated.json,495364,672683,40,Woman
98,393442,DepthScenes,duration_manipulation_targetAtFixation,jsons/v1_VE250_randls_8_rotated.json,http://54.235.29.9/FacialAge/BNav_EC2/DepthDuration/v2_depth_duration_MTurk/v2_DepthDuration_HTML.html#76,76,1920,937,1920,1080,8-20-2022,9-11-0,99,depth_duration_stimuli/001222_2014-06-17_16-24-06_260595134347_rgbf000073-resize_0/001222_2014-06-17_16-24-06_260595134347_rgbf000073-resize-original.jpg,250,1.4385,0,2437,238,feet,jsons/v1_VE250_randls_8_rotated.json,495364,672683,40,Woman
99,393442,DepthScenes,duration_manipulation_targetAtFixation,jsons/v1_VE250_randls_8_rotated.json,http://54.235.29.9/FacialAge/BNav_EC2/DepthDuration/v2_depth_duration_MTurk/v2_DepthDuration_HTML.html#76,76,1920,937,1920,1080,8-20-2022,9-11-0,100,depth_duration_stimuli/000927_2014-06-09_16-32-30_260595134347_rgbf000123-resize_3/000927_2014-06-09_16-32-30_260595134347_rgbf000123-resize_3-target.png,250,2.6785,8,2120,249,feet,jsons/v1_VE250_randls_8_rotated.json,495364,672683,40,Woman
100,393442,DepthScenes,duration_manipulation_targetAtFixation,jsons/v1_VE250_randls_8_rotated.json,http://54.235.29.9/FacialAge/BNav_EC2/DepthDuration/v2_depth_duration_MTurk/v2_DepthDuration_HTML.html#76,76,1920,937,1920,1080,8-20-2022,9-11-0,101,depth_duration_stimuli/001110_2014-06-15_17-25-28_260595134347_rgbf000150-resize_1/001110_2014-06-15_17-25-28_260595134347_rgbf000150-resize_1-target.png,250,1.7115,7,2105,247,feet,jsons/v1_VE250_randls_8_rotated.json,495364,672683,40,Woman
101,393442,DepthScenes,duration_manipulation_targetAtFixation,jsons/v1_VE250_randls_8_rotated.json,http://54.235.29.9/FacialAge/BNav_EC2/DepthDuration/v2_depth_duration_MTurk/v2_DepthDuration_HTML.html#76,76,1920,937,1920,1080,8-20-2022,9-11-0,102,depth_duration_stimuli/003079_2014-06-15_15-18-20_094959634447_rgbf000152-resize_8/003079_2014-06-15_15-18-20_094959634447_rgbf000152-resize_8-target.png,250,2.8775,10,2905,248,feet,jsons/v1_VE250_randls_8_rotated.json,495364,672683,40,Woman
102,393442,DepthScenes,duration_manipulation_targetAtFixation,jsons/v1_VE250_randls_8_rotated.json,http://54.235.29.9/FacialAge/BNav_EC2/DepthDuration/v2_depth_duration_MTurk/v2_DepthDuration_HTML.html#76,76,1920,937,1920,1080,8-20-2022,9-11-0,103,depth_duration_stimuli/000506_2014-06-08_23-21-00_260595134347_rgbf000070-resize_7/000506_2014-06-08_23-21-00_260595134347_rgbf000070-resize_7-target.png,250,4.0585,11,2926,249,feet,jsons/v1_VE250_randls_8_rotated.json,495364,672683,40,Woman
103,393442,DepthScenes,duration_manipulation_targetAtFixation,jsons/v1_VE250_randls_8_rotated.json,http://54.235.29.9/FacialAge/BNav_EC2/DepthDuration/v2_depth_duration_MTurk/v2_DepthDuration_HTML.html#76,76,1920,937,1920,1080,8-20-2022,9-11-0,104,depth_duration_stimuli/001450_2014-06-19_17-02-03_260595134347_rgbf000203-resize_4/001450_2014-06-19_17-02-03_260595134347_rgbf000203-resize_4-target.png,250,4.0106666666667,14,2797,251,feet,jsons/v1_VE250_randls_8_rotated.json,495364,672683,40,Woman
104,393442,DepthScenes,duration_manipulation_targetAtFixation,jsons/v1_VE250_randls_8_rotated.json,http://54.235.29.9/FacialAge/BNav_EC2/DepthDuration/v2_depth_duration_MTurk/v2_DepthDuration_HTML.html#76,76,1920,937,1920,1080,8-20-2022,9-11-0,105,depth_duration_stimuli/001449_2014-06-19_17-01-27_260595134347_rgbf000116-resize_2/001449_2014-06-19_17-01-27_260595134347_rgbf000116-resize_2-target.png,250,3.452,9,2006,249,feet,jsons/v1_VE250_randls_8_rotated.json,495364,672683,40,Woman
105,393442,DepthScenes,duration_manipulation_targetAtFixation,jsons/v1_VE250_randls_8_rotated.json,http://54.235.29.9/FacialAge/BNav_EC2/DepthDuration/v2_depth_duration_MTurk/v2_DepthDuration_HTML.html#76,76,1920,937,1920,1080,8-20-2022,9-11-0,106,depth_duration_stimuli/002639_2014-06-24_14-51-37_094959634447_rgbf000074-resize_4/002639_2014-06-24_14-51-37_094959634447_rgbf000074-resize_4-target.png,250,4.0375,12,2507,247,feet,jsons/v1_VE250_randls_8_rotated.json,495364,672683,40,Woman
106,393442,DepthScenes,duration_manipulation_targetAtFixation,jsons/v1_VE250_randls_8_rotated.json,http://54.235.29.9/FacialAge/BNav_EC2/DepthDuration/v2_depth_duration_MTurk/v2_DepthDuration_HTML.html#76,76,1920,937,1920,1080,8-20-2022,9-11-0,107,depth_duration_stimuli/003292_2014-05-14_21-53-49_094959634447_rgbf000100-resize_2/003292_2014-05-14_21-53-49_094959634447_rgbf000100-resize_2-target.png,250,3.4815,10,3122,248,feet,jsons/v1_VE250_randls_8_rotated.json,495364,672683,40,Woman
107,393442,DepthScenes,duration_manipulation_targetAtFixation,jsons/v1_VE250_randls_8_rotated.json,http://54.235.29.9/FacialAge/BNav_EC2/DepthDuration/v2_depth_duration_MTurk/v2_DepthDuration_HTML.html#76,76,1920,937,1920,1080,8-20-2022,9-11-0,108,depth_duration_stimuli/000866_2014-06-09_20-45-42_260595134347_rgbf000139-resize_1/000866_2014-06-09_20-45-42_260595134347_rgbf000139-resize_1-target.png,250,3.2155,8,2851,264,feet,jsons/v1_VE250_randls_8_rotated.json,495364,672683,40,Woman
108,393442,DepthScenes,duration_manipulation_targetAtFixation,jsons/v1_VE250_randls_8_rotated.json,http://54.235.29.9/FacialAge/BNav_EC2/DepthDuration/v2_depth_duration_MTurk/v2_DepthDuration_HTML.html#76,76,1920,937,1920,1080,8-20-2022,9-11-0,109,depth_duration_stimuli/002989_2014-06-15_12-25-03_094959634447_rgbf000150-resize_3/002989_2014-06-15_12-25-03_094959634447_rgbf000150-resize_3-target.png,250,4.1975,13,3616,251,feet,jsons/v1_VE250_randls_8_rotated.json,495364,672683,40,Woman
109,393442,DepthScenes,duration_manipulation_targetAtFixation,jsons/v1_VE250_randls_8_rotated.json,http://54.235.29.9/FacialAge/BNav_EC2/DepthDuration/v2_depth_duration_MTurk/v2_DepthDuration_HTML.html#76,76,1920,937,1920,1080,8-20-2022,9-11-0,110,depth_duration_stimuli/001584_2014-06-20_11-07-43_260595134347_rgbf000002-resize_1/001584_2014-06-20_11-07-43_260595134347_rgbf000002-resize_1-target.png,250,3.53,9,2563,248,feet,jsons/v1_VE250_randls_8_rotated.json,495364,672683,40,Woman
110,393442,DepthScenes,duration_manipulation_targetAtFixation,jsons/v1_VE250_randls_8_rotated.json,http://54.235.29.9/FacialAge/BNav_EC2/DepthDuration/v2_depth_duration_MTurk/v2_DepthDuration_HTML.html#76,76,1920,937,1920,1080,8-20-2022,9-11-0,111,depth_duration_stimuli/003621_2014-05-23_18-06-08_094959634447_rgbf000101-resize_1/003621_2014-05-23_18-06-08_094959634447_rgbf000101-resize_1-target.png,250,3.9835,10,2755,247,feet,jsons/v1_VE250_randls_8_rotated.json,495364,672683,40,Woman
111,393442,DepthScenes,duration_manipulation_targetAtFixation,jsons/v1_VE250_randls_8_rotated.json,http://54.235.29.9/FacialAge/BNav_EC2/DepthDuration/v2_depth_duration_MTurk/v2_DepthDuration_HTML.html#76,76,1920,937,1920,1080,8-20-2022,9-11-0,112,depth_duration_stimuli/002678_2014-06-13_16-15-32_094959634447_rgbf000151-resize_6/002678_2014-06-13_16-15-32_094959634447_rgbf000151-resize_6-target.png,250,2.1830000000000003,12,3310,260,feet,jsons/v1_VE250_randls_8_rotated.json,495364,672683,40,Woman
112,393442,DepthScenes,duration_manipulation_targetAtFixation,jsons/v1_VE250_randls_8_rotated.json,http://54.235.29.9/FacialAge/BNav_EC2/DepthDuration/v2_depth_duration_MTurk/v2_DepthDuration_HTML.html#76,76,1920,937,1920,1080,8-20-2022,9-11-0,113,depth_duration_stimuli/000368_2014-06-09_15-53-01_260595134347_rgbf000155-resize_2/000368_2014-06-09_15-53-01_260595134347_rgbf000155-resize_2-target.png,250,2.4859999999999998,8,3158,248,feet,jsons/v1_VE250_randls_8_rotated.json,495364,672683,40,Woman
113,393442,DepthScenes,duration_manipulation_targetAtFixation,jsons/v1_VE250_randls_8_rotated.json,http://54.235.29.9/FacialAge/BNav_EC2/DepthDuration/v2_depth_duration_MTurk/v2_DepthDuration_HTML.html#76,76,1920,937,1920,1080,8-20-2022,9-11-0,114,depth_duration_stimuli/002568_2014-06-24_13-59-21_094959634447_rgbf000062-resize_4/002568_2014-06-24_13-59-21_094959634447_rgbf000062-resize_4-target.png,250,3.015,9,2203,248,feet,jsons/v1_VE250_randls_8_rotated.json,495364,672683,40,Woman
114,393442,DepthScenes,duration_manipulation_targetAtFixation,jsons/v1_VE250_randls_8_rotated.json,http://54.235.29.9/FacialAge/BNav_EC2/DepthDuration/v2_depth_duration_MTurk/v2_DepthDuration_HTML.html#76,76,1920,937,1920,1080,8-20-2022,9-11-0,115,depth_duration_stimuli/003492_2014-05-21_15-50-55_094959634447_rgbf000828-resize_1/003492_2014-05-21_15-50-55_094959634447_rgbf000828-resize_1-target.png,250,4.06875,11,2301,254,feet,jsons/v1_VE250_randls_8_rotated.json,495364,672683,40,Woman
115,393442,DepthScenes,duration_manipulation_targetAtFixation,jsons/v1_VE250_randls_8_rotated.json,http://54.235.29.9/FacialAge/BNav_EC2/DepthDuration/v2_depth_duration_MTurk/v2_DepthDuration_HTML.html#76,76,1920,937,1920,1080,8-20-2022,9-11-0,116,depth_duration_stimuli/003338_2014-05-20_11-01-23_094959634447_rgbf000051-resize_6/003338_2014-05-20_11-01-23_094959634447_rgbf000051-resize_6-target.png,250,1.693,7,2009,248,feet,jsons/v1_VE250_randls_8_rotated.json,495364,672683,40,Woman
116,393442,DepthScenes,duration_manipulation_targetAtFixation,jsons/v1_VE250_randls_8_rotated.json,http://54.235.29.9/FacialAge/BNav_EC2/DepthDuration/v2_depth_duration_MTurk/v2_DepthDuration_HTML.html#76,76,1920,937,1920,1080,8-20-2022,9-11-0,117,depth_duration_stimuli/002509_2014-06-24_13-19-22_094959634447_rgbf000077-resize_0/002509_2014-06-24_13-19-22_094959634447_rgbf000077-resize_0-target.png,250,1.3065,5,2165,249,feet,jsons/v1_VE250_randls_8_rotated.json,495364,672683,40,Woman
117,393442,DepthScenes,duration_manipulation_targetAtFixation,jsons/v1_VE250_randls_8_rotated.json,http://54.235.29.9/FacialAge/BNav_EC2/DepthDuration/v2_depth_duration_MTurk/v2_DepthDuration_HTML.html#76,76,1920,937,1920,1080,8-20-2022,9-11-0,118,depth_duration_stimuli/000749_2014-06-08_21-55-06_260595134347_rgbf000070-resize_2/000749_2014-06-08_21-55-06_260595134347_rgbf000070-resize_2-target.png,250,2.331,10,2609,249,feet,jsons/v1_VE250_randls_8_rotated.json,495364,672683,40,Woman
118,393442,DepthScenes,duration_manipulation_targetAtFixation,jsons/v1_VE250_randls_8_rotated.json,http://54.235.29.9/FacialAge/BNav_EC2/DepthDuration/v2_depth_duration_MTurk/v2_DepthDuration_HTML.html#76,76,1920,937,1920,1080,8-20-2022,9-11-0,119,depth_duration_stimuli/002788_2014-06-22_19-36-03_094959634447_rgbf000088-resize_2/002788_2014-06-22_19-36-03_094959634447_rgbf000088-resize_2-target.png,250,1.6465,9,2095,243,feet,jsons/v1_VE250_randls_8_rotated.json,495364,672683,40,Woman
119,393442,DepthScenes,duration_manipulation_targetAtFixation,jsons/v1_VE250_randls_8_rotated.json,http://54.235.29.9/FacialAge/BNav_EC2/DepthDuration/v2_depth_duration_MTurk/v2_DepthDuration_HTML.html#76,76,1920,937,1920,1080,8-20-2022,9-11-0,120,depth_duration_stimuli/000787_2014-06-08_22-33-53_260595134347_rgbf000175-resize_1/000787_2014-06-08_22-33-53_260595134347_rgbf000175-resize-original.jpg,250,4.784,0,2130,240,feet,jsons/v1_VE250_randls_8_rotated.json,495364,672683,40,Woman
120,393442,DepthScenes,duration_manipulation_targetAtFixation,jsons/v1_VE250_randls_8_rotated.json,http://54.235.29.9/FacialAge/BNav_EC2/DepthDuration/v2_depth_duration_MTurk/v2_DepthDuration_HTML.html#76,76,1920,937,1920,1080,8-20-2022,9-11-0,121,depth_duration_stimuli/000409_2014-06-04_19-23-33_260595134347_rgbf000067-resize_0/000409_2014-06-04_19-23-33_260595134347_rgbf000067-resize_0-target.png,250,3.7335,8,1950,249,feet,jsons/v1_VE250_randls_8_rotated.json,495364,672683,40,Woman
121,393442,DepthScenes,duration_manipulation_targetAtFixation,jsons/v1_VE250_randls_8_rotated.json,http://54.235.29.9/FacialAge/BNav_EC2/DepthDuration/v2_depth_duration_MTurk/v2_DepthDuration_HTML.html#76,76,1920,937,1920,1080,8-20-2022,9-11-0,122,depth_duration_stimuli/002663_2014-06-13_15-50-26_094959634447_rgbf000075-resize_1/002663_2014-06-13_15-50-26_094959634447_rgbf000075-resize_1-target.png,250,4.7495,13,2563,249,feet,jsons/v1_VE250_randls_8_rotated.json,495364,672683,40,Woman
122,393442,DepthScenes,duration_manipulation_targetAtFixation,jsons/v1_VE250_randls_8_rotated.json,http://54.235.29.9/FacialAge/BNav_EC2/DepthDuration/v2_depth_duration_MTurk/v2_DepthDuration_HTML.html#76,76,1920,937,1920,1080,8-20-2022,9-11-0,123,depth_duration_stimuli/002414_2014-06-28_20-24-58_260595134347_rgbf000067-resize_4/002414_2014-06-28_20-24-58_260595134347_rgbf000067-resize_4-target.png,250,4.363,18,2259,250,feet,jsons/v1_VE250_randls_8_rotated.json,495364,672683,40,Woman
123,393442,DepthScenes,duration_manipulation_targetAtFixation,jsons/v1_VE250_randls_8_rotated.json,http://54.235.29.9/FacialAge/BNav_EC2/DepthDuration/v2_depth_duration_MTurk/v2_DepthDuration_HTML.html#76,76,1920,937,1920,1080,8-20-2022,9-11-0,124,depth_duration_stimuli/000773_2014-06-08_22-24-54_260595134347_rgbf000093-resize_1/000773_2014-06-08_22-24-54_260595134347_rgbf000093-resize_1-target.png,250,4.973,16,2791,249,feet,jsons/v1_VE250_randls_8_rotated.json,495364,672683,40,Woman
124,393442,DepthScenes,duration_manipulation_targetAtFixation,jsons/v1_VE250_randls_8_rotated.json,http://54.235.29.9/FacialAge/BNav_EC2/DepthDuration/v2_depth_duration_MTurk/v2_DepthDuration_HTML.html#76,76,1920,937,1920,1080,8-20-2022,9-11-0,125,depth_duration_stimuli/000742_2014-06-08_18-48-09_260595134347_rgbf000164-resize_4/000742_2014-06-08_18-48-09_260595134347_rgbf000164-resize_4-target.png,250,4.632,18,2370,247,feet,jsons/v1_VE250_randls_8_rotated.json,495364,672683,40,Woman
125,393442,DepthScenes,duration_manipulation_targetAtFixation,jsons/v1_VE250_randls_8_rotated.json,http://54.235.29.9/FacialAge/BNav_EC2/DepthDuration/v2_depth_duration_MTurk/v2_DepthDuration_HTML.html#76,76,1920,937,1920,1080,8-20-2022,9-11-0,126,depth_duration_stimuli/001066_2014-06-08_22-03-20_260595134347_rgbf000066-resize_4/001066_2014-06-08_22-03-20_260595134347_rgbf000066-resize_4-target.png,250,4.2330000000000005,20,2922,248,feet,jsons/v1_VE250_randls_8_rotated.json,495364,672683,40,Woman
126,393442,DepthScenes,duration_manipulation_targetAtFixation,jsons/v1_VE250_randls_8_rotated.json,http://54.235.29.9/FacialAge/BNav_EC2/DepthDuration/v2_depth_duration_MTurk/v2_DepthDuration_HTML.html#76,76,1920,937,1920,1080,8-20-2022,9-11-0,127,depth_duration_stimuli/000457_2014-06-08_16-52-43_260595134347_rgbf000199-resize_1/000457_2014-06-08_16-52-43_260595134347_rgbf000199-resize_1-target.png,250,3.6489999999999996,11,4257,248,feet,jsons/v1_VE250_randls_8_rotated.json,495364,672683,40,Woman
127,393442,DepthScenes,duration_manipulation_targetAtFixation,jsons/v1_VE250_randls_8_rotated.json,http://54.235.29.9/FacialAge/BNav_EC2/DepthDuration/v2_depth_duration_MTurk/v2_DepthDuration_HTML.html#76,76,1920,937,1920,1080,8-20-2022,9-11-0,128,depth_duration_stimuli/000929_2014-06-09_16-33-19_260595134347_rgbf000139-resize_0/000929_2014-06-09_16-33-19_260595134347_rgbf000139-resize_0-target.png,250,2.8680000000000003,15,2143,248,feet,jsons/v1_VE250_randls_8_rotated.json,495364,672683,40,Woman
128,393442,DepthScenes,duration_manipulation_targetAtFixation,jsons/v1_VE250_randls_8_rotated.json,http://54.235.29.9/FacialAge/BNav_EC2/DepthDuration/v2_depth_duration_MTurk/v2_DepthDuration_HTML.html#76,76,1920,937,1920,1080,8-20-2022,9-11-0,129,depth_duration_stimuli/003081_2014-06-15_15-19-16_094959634447_rgbf000150-resize_1/003081_2014-06-15_15-19-16_094959634447_rgbf000150-resize_1-target.png,250,3.9125,13,2360,250,feet,jsons/v1_VE250_randls_8_rotated.json,495364,672683,40,Woman
129,393442,DepthScenes,duration_manipulation_targetAtFixation,jsons/v1_VE250_randls_8_rotated.json,http://54.235.29.9/FacialAge/BNav_EC2/DepthDuration/v2_depth_duration_MTurk/v2_DepthDuration_HTML.html#76,76,1920,937,1920,1080,8-20-2022,9-11-0,130,depth_duration_stimuli/001417_2014-06-19_16-25-36_260595134347_rgbf000115-resize_5/001417_2014-06-19_16-25-36_260595134347_rgbf000115-resize_5-target.png,250,4.6255,16,2204,263,feet,jsons/v1_VE250_randls_8_rotated.json,495364,672683,40,Woman
130,393442,DepthScenes,duration_manipulation_targetAtFixation,jsons/v1_VE250_randls_8_rotated.json,http://54.235.29.9/FacialAge/BNav_EC2/DepthDuration/v2_depth_duration_MTurk/v2_DepthDuration_HTML.html#76,76,1920,937,1920,1080,8-20-2022,9-11-0,131,depth_duration_stimuli/003129_2014-05-12_10-48-10_094959634447_rgbf000100-resize_0/003129_2014-05-12_10-48-10_094959634447_rgbf000100-resize_0-target.png,250,4.9305,19,2289,251,feet,jsons/v1_VE250_randls_8_rotated.json,495364,672683,40,Woman
131,393442,DepthScenes,duration_manipulation_targetAtFixation,jsons/v1_VE250_randls_8_rotated.json,http://54.235.29.9/FacialAge/BNav_EC2/DepthDuration/v2_depth_duration_MTurk/v2_DepthDuration_HTML.html#76,76,1920,937,1920,1080,8-20-2022,9-11-0,132,depth_duration_stimuli/000414_2014-06-04_19-49-13_260595134347_rgbf000044-resize_0/000414_2014-06-04_19-49-13_260595134347_rgbf000044-resize_0-target.png,250,4.329,20,2533,248,feet,jsons/v1_VE250_randls_8_rotated.json,495364,672683,40,Woman
132,393442,DepthScenes,duration_manipulation_targetAtFixation,jsons/v1_VE250_randls_8_rotated.json,http://54.235.29.9/FacialAge/BNav_EC2/DepthDuration/v2_depth_duration_MTurk/v2_DepthDuration_HTML.html#76,76,1920,937,1920,1080,8-20-2022,9-11-0,133,depth_duration_stimuli/001392_2014-06-19_16-07-59_260595134347_rgbf000046-resize_1/001392_2014-06-19_16-07-59_260595134347_rgbf000046-resize_1-target.png,250,4.135,16,2244,249,feet,jsons/v1_VE250_randls_8_rotated.json,495364,672683,40,Woman
133,393442,DepthScenes,duration_manipulation_targetAtFixation,jsons/v1_VE250_randls_8_rotated.json,http://54.235.29.9/FacialAge/BNav_EC2/DepthDuration/v2_depth_duration_MTurk/v2_DepthDuration_HTML.html#76,76,1920,937,1920,1080,8-20-2022,9-11-0,134,depth_duration_stimuli/001570_2014-06-20_17-21-09_260595134347_rgbf000135-resize_4/001570_2014-06-20_17-21-09_260595134347_rgbf000135-resize_4-target.png,250,4.467,18,2271,261,feet,jsons/v1_VE250_randls_8_rotated.json,495364,672683,40,Woman
134,393442,DepthScenes,duration_manipulation_targetAtFixation,jsons/v1_VE250_randls_8_rotated.json,http://54.235.29.9/FacialAge/BNav_EC2/DepthDuration/v2_depth_duration_MTurk/v2_DepthDuration_HTML.html#76,76,1920,937,1920,1080,8-20-2022,9-11-0,135,depth_duration_stimuli/000375_2014-06-08_11-17-29_260595134347_rgbf000133-resize_2/000375_2014-06-08_11-17-29_260595134347_rgbf000133-resize-original.jpg,250,4.718,0,2181,244,feet,jsons/v1_VE250_randls_8_rotated.json,495364,672683,40,Woman
135,393442,DepthScenes,duration_manipulation_targetAtFixation,jsons/v1_VE250_randls_8_rotated.json,http://54.235.29.9/FacialAge/BNav_EC2/DepthDuration/v2_depth_duration_MTurk/v2_DepthDuration_HTML.html#76,76,1920,937,1920,1080,8-20-2022,9-11-0,136,depth_duration_stimuli/002209_2014-06-28_18-36-10_260595134347_rgbf000051-resize_1/002209_2014-06-28_18-36-10_260595134347_rgbf000051-resize_1-target.png,250,2.057,9,2147,245,feet,jsons/v1_VE250_randls_8_rotated.json,495364,672683,40,Woman
136,393442,DepthScenes,duration_manipulation_targetAtFixation,jsons/v1_VE250_randls_8_rotated.json,http://54.235.29.9/FacialAge/BNav_EC2/DepthDuration/v2_depth_duration_MTurk/v2_DepthDuration_HTML.html#76,76,1920,937,1920,1080,8-20-2022,9-11-0,137,depth_duration_stimuli/002763_2014-06-22_19-13-10_094959634447_rgbf000075-resize_4/002763_2014-06-22_19-13-10_094959634447_rgbf000075-resize_4-target.png,250,1.68375,6,2113,250,feet,jsons/v1_VE250_randls_8_rotated.json,495364,672683,40,Woman
137,393442,DepthScenes,duration_manipulation_targetAtFixation,jsons/v1_VE250_randls_8_rotated.json,http://54.235.29.9/FacialAge/BNav_EC2/DepthDuration/v2_depth_duration_MTurk/v2_DepthDuration_HTML.html#76,76,1920,937,1920,1080,8-20-2022,9-11-0,138,depth_duration_stimuli/003495_2014-05-21_16-01-51_094959634447_rgbf000100-resize_3/003495_2014-05-21_16-01-51_094959634447_rgbf000100-resize_3-target.png,250,1.6255,5,2288,248,feet,jsons/v1_VE250_randls_8_rotated.json,495364,672683,40,Woman
138,393442,DepthScenes,duration_manipulation_targetAtFixation,jsons/v1_VE250_randls_8_rotated.json,http://54.235.29.9/FacialAge/BNav_EC2/DepthDuration/v2_depth_duration_MTurk/v2_DepthDuration_HTML.html#76,76,1920,937,1920,1080,8-20-2022,9-11-0,139,depth_duration_stimuli/001244_2014-06-17_16-47-45_260595134347_rgbf000030-resize_4/001244_2014-06-17_16-47-45_260595134347_rgbf000030-resize_4-target.png,250,2.0425,6,2207,247,feet,jsons/v1_VE250_randls_8_rotated.json,495364,672683,40,Woman
139,393442,DepthScenes,duration_manipulation_targetAtFixation,jsons/v1_VE250_randls_8_rotated.json,http://54.235.29.9/FacialAge/BNav_EC2/DepthDuration/v2_depth_duration_MTurk/v2_DepthDuration_HTML.html#76,76,1920,937,1920,1080,8-20-2022,9-11-0,140,depth_duration_stimuli/000191_2014-05-12_17-07-38_260595134347_rgbf000199-resize_0/000191_2014-05-12_17-07-38_260595134347_rgbf000199-resize_0-target.png,250,3.7995,11,2575,256,feet,jsons/v1_VE250_randls_8_rotated.json,495364,672683,40,Woman
140,393442,DepthScenes,duration_manipulation_targetAtFixation,jsons/v1_VE250_randls_8_rotated.json,http://54.235.29.9/FacialAge/BNav_EC2/DepthDuration/v2_depth_duration_MTurk/v2_DepthDuration_HTML.html#76,76,1920,937,1920,1080,8-20-2022,9-11-0,141,depth_duration_stimuli/000493_2014-06-09_21-01-18_260595134347_rgbf000196-resize_3/000493_2014-06-09_21-01-18_260595134347_rgbf000196-resize_3-target.png,250,3.44,9,2118,246,feet,jsons/v1_VE250_randls_8_rotated.json,495364,672683,40,Woman
141,393442,DepthScenes,duration_manipulation_targetAtFixation,jsons/v1_VE250_randls_8_rotated.json,http://54.235.29.9/FacialAge/BNav_EC2/DepthDuration/v2_depth_duration_MTurk/v2_DepthDuration_HTML.html#76,76,1920,937,1920,1080,8-20-2022,9-11-0,142,depth_duration_stimuli/000137_2014-05-20_17-04-49_260595134347_rgbf000120-resize_1/000137_2014-05-20_17-04-49_260595134347_rgbf000120-resize_1-target.png,250,3.786,12,2168,235,feet,jsons/v1_VE250_randls_8_rotated.json,495364,672683,40,Woman
142,393442,DepthScenes,duration_manipulation_targetAtFixation,jsons/v1_VE250_randls_8_rotated.json,http://54.235.29.9/FacialAge/BNav_EC2/DepthDuration/v2_depth_duration_MTurk/v2_DepthDuration_HTML.html#76,76,1920,937,1920,1080,8-20-2022,9-11-0,143,depth_duration_stimuli/000736_2014-06-08_18-24-15_260595134347_rgbf000206-resize_3/000736_2014-06-08_18-24-15_260595134347_rgbf000206-resize_3-target.png,250,3.515,10,2549,249,feet,jsons/v1_VE250_randls_8_rotated.json,495364,672683,40,Woman
143,393442,DepthScenes,duration_manipulation_targetAtFixation,jsons/v1_VE250_randls_8_rotated.json,http://54.235.29.9/FacialAge/BNav_EC2/DepthDuration/v2_depth_duration_MTurk/v2_DepthDuration_HTML.html#76,76,1920,937,1920,1080,8-20-2022,9-11-0,144,depth_duration_stimuli/001032_2014-06-08_13-23-17_260595134347_rgbf000021-resize_3/001032_2014-06-08_13-23-17_260595134347_rgbf000021-resize_3-target.png,250,3.2725,8,1890,250,feet,jsons/v1_VE250_randls_8_rotated.json,495364,672683,40,Woman
144,393442,DepthScenes,duration_manipulation_targetAtFixation,jsons/v1_VE250_randls_8_rotated.json,http://54.235.29.9/FacialAge/BNav_EC2/DepthDuration/v2_depth_duration_MTurk/v2_DepthDuration_HTML.html#76,76,1920,937,1920,1080,8-20-2022,9-11-0,145,depth_duration_stimuli/001059_2014-06-08_21-53-27_260595134347_rgbf000061-resize_4/001059_2014-06-08_21-53-27_260595134347_rgbf000061-resize_4-target.png,250,2.4185,7,1695,247,feet,jsons/v1_VE250_randls_8_rotated.json,495364,672683,40,Woman
145,393442,DepthScenes,duration_manipulation_targetAtFixation,jsons/v1_VE250_randls_8_rotated.json,http://54.235.29.9/FacialAge/BNav_EC2/DepthDuration/v2_depth_duration_MTurk/v2_DepthDuration_HTML.html#76,76,1920,937,1920,1080,8-20-2022,9-11-0,146,depth_duration_stimuli/001132_2014-06-17_14-48-54_260595134347_rgbf000100-resize_2/001132_2014-06-17_14-48-54_260595134347_rgbf000100-resize_2-target.png,250,3.753,14,2239,249,feet,jsons/v1_VE250_randls_8_rotated.json,495364,672683,40,Woman
146,393442,DepthScenes,duration_manipulation_targetAtFixation,jsons/v1_VE250_randls_8_rotated.json,http://54.235.29.9/FacialAge/BNav_EC2/DepthDuration/v2_depth_duration_MTurk/v2_DepthDuration_HTML.html#76,76,1920,937,1920,1080,8-20-2022,9-11-0,147,depth_duration_stimuli/001133_2014-06-17_14-49-16_260595134347_rgbf000100-resize_0/001133_2014-06-17_14-49-16_260595134347_rgbf000100-resize_0-target.png,250,4.2115,16,1922,248,feet,jsons/v1_VE250_randls_8_rotated.json,495364,672683,40,Woman
147,393442,DepthScenes,duration_manipulation_targetAtFixation,jsons/v1_VE250_randls_8_rotated.json,http://54.235.29.9/FacialAge/BNav_EC2/DepthDuration/v2_depth_duration_MTurk/v2_DepthDuration_HTML.html#76,76,1920,937,1920,1080,8-20-2022,9-11-0,148,depth_duration_stimuli/002758_2014-06-22_19-11-20_094959634447_rgbf000128-resize_1/002758_2014-06-22_19-11-20_094959634447_rgbf000128-resize_1-target.png,250,2.555,9,10485,248,feet,jsons/v1_VE250_randls_8_rotated.json,495364,672683,40,Woman
148,393442,DepthScenes,duration_manipulation_targetAtFixation,jsons/v1_VE250_randls_8_rotated.json,http://54.235.29.9/FacialAge/BNav_EC2/DepthDuration/v2_depth_duration_MTurk/v2_DepthDuration_HTML.html#76,76,1920,937,1920,1080,8-20-2022,9-11-0,149,depth_duration_stimuli/002630_2014-06-24_14-47-50_094959634447_rgbf000055-resize_1/002630_2014-06-24_14-47-50_094959634447_rgbf000055-resize_1-target.png,250,3.0095,10,3042,250,feet,jsons/v1_VE250_randls_8_rotated.json,495364,672683,40,Woman
149,393442,DepthScenes,duration_manipulation_targetAtFixation,jsons/v1_VE250_randls_8_rotated.json,http://54.235.29.9/FacialAge/BNav_EC2/DepthDuration/v2_depth_duration_MTurk/v2_DepthDuration_HTML.html#76,76,1920,937,1920,1080,8-20-2022,9-11-0,150,depth_duration_stimuli/001650_2014-06-20_12-09-00_260595134347_rgbf000087-resize_3/001650_2014-06-20_12-09-00_260595134347_rgbf000087-resize_3-target.png,250,1.9505,4,2244,250,feet,jsons/v1_VE250_randls_8_rotated.json,495364,672683,40,Woman
150,393442,DepthScenes,duration_manipulation_targetAtFixation,jsons/v1_VE250_randls_8_rotated.json,http://54.235.29.9/FacialAge/BNav_EC2/DepthDuration/v2_depth_duration_MTurk/v2_DepthDuration_HTML.html#76,76,1920,937,1920,1080,8-20-2022,9-11-0,151,depth_duration_stimuli/000682_2014-06-08_23-14-58_260595134347_rgbf000041-resize_5/000682_2014-06-08_23-14-58_260595134347_rgbf000041-resize_5-target.png,250,2.7239999999999998,7,2222,250,feet,jsons/v1_VE250_randls_8_rotated.json,495364,672683,40,Woman
151,393442,DepthScenes,duration_manipulation_targetAtFixation,jsons/v1_VE250_randls_8_rotated.json,http://54.235.29.9/FacialAge/BNav_EC2/DepthDuration/v2_depth_duration_MTurk/v2_DepthDuration_HTML.html#76,76,1920,937,1920,1080,8-20-2022,9-11-0,152,depth_duration_stimuli/000569_2014-06-09_22-51-47_260595134347_rgbf000141-resize_3/000569_2014-06-09_22-51-47_260595134347_rgbf000141-resize-original.jpg,250,4.512,0,2473,262,feet,jsons/v1_VE250_randls_8_rotated.json,495364,672683,40,Woman
152,393442,DepthScenes,duration_manipulation_targetAtFixation,jsons/v1_VE250_randls_8_rotated.json,http://54.235.29.9/FacialAge/BNav_EC2/DepthDuration/v2_depth_duration_MTurk/v2_DepthDuration_HTML.html#76,76,1920,937,1920,1080,8-20-2022,9-11-0,153,depth_duration_stimuli/003010_2014-06-15_12-54-35_094959634447_rgbf000112-resize_0/003010_2014-06-15_12-54-35_094959634447_rgbf000112-resize_0-target.png,250,3.1185,11,3271,261,feet,jsons/v1_VE250_randls_8_rotated.json,495364,672683,40,Woman
153,393442,DepthScenes,duration_manipulation_targetAtFixation,jsons/v1_VE250_randls_8_rotated.json,http://54.235.29.9/FacialAge/BNav_EC2/DepthDuration/v2_depth_duration_MTurk/v2_DepthDuration_HTML.html#76,76,1920,937,1920,1080,8-20-2022,9-11-0,154,depth_duration_stimuli/001810_2014-06-26_20-51-35_260595134347_rgbf000040-resize_3/001810_2014-06-26_20-51-35_260595134347_rgbf000040-resize_3-target.png,250,2.2525,6,2058,248,feet,jsons/v1_VE250_randls_8_rotated.json,495364,672683,40,Woman
154,393442,DepthScenes,duration_manipulation_targetAtFixation,jsons/v1_VE250_randls_8_rotated.json,http://54.235.29.9/FacialAge/BNav_EC2/DepthDuration/v2_depth_duration_MTurk/v2_DepthDuration_HTML.html#76,76,1920,937,1920,1080,8-20-2022,9-11-0,155,depth_duration_stimuli/000483_2014-06-09_20-41-45_260595134347_rgbf000116-resize_4/000483_2014-06-09_20-41-45_260595134347_rgbf000116-resize_4-target.png,250,1.337,4,2291,247,feet,jsons/v1_VE250_randls_8_rotated.json,495364,672683,40,Woman
155,393442,DepthScenes,duration_manipulation_targetAtFixation,jsons/v1_VE250_randls_8_rotated.json,http://54.235.29.9/FacialAge/BNav_EC2/DepthDuration/v2_depth_duration_MTurk/v2_DepthDuration_HTML.html#76,76,1920,937,1920,1080,8-20-2022,9-11-0,156,depth_duration_stimuli/000469_2014-06-09_19-42-10_260595134347_rgbf000081-resize_1/000469_2014-06-09_19-42-10_260595134347_rgbf000081-resize_1-target.png,250,1.652,5,2005,248,feet,jsons/v1_VE250_randls_8_rotated.json,495364,672683,40,Woman
156,393442,DepthScenes,duration_manipulation_targetAtFixation,jsons/v1_VE250_randls_8_rotated.json,http://54.235.29.9/FacialAge/BNav_EC2/DepthDuration/v2_depth_duration_MTurk/v2_DepthDuration_HTML.html#76,76,1920,937,1920,1080,8-20-2022,9-11-0,157,depth_duration_stimuli/000943_2014-06-09_19-31-07_260595134347_rgbf000128-resize_1/000943_2014-06-09_19-31-07_260595134347_rgbf000128-resize_1-target.png,250,1.9765,7,2074,249,feet,jsons/v1_VE250_randls_8_rotated.json,495364,672683,40,Woman
157,393442,DepthScenes,duration_manipulation_targetAtFixation,jsons/v1_VE250_randls_8_rotated.json,http://54.235.29.9/FacialAge/BNav_EC2/DepthDuration/v2_depth_duration_MTurk/v2_DepthDuration_HTML.html#76,76,1920,937,1920,1080,8-20-2022,9-11-0,158,depth_duration_stimuli/003070_2014-06-15_14-58-27_094959634447_rgbf000150-resize_3/003070_2014-06-15_14-58-27_094959634447_rgbf000150-resize_3-target.png,250,2.9415,9,2244,248,feet,jsons/v1_VE250_randls_8_rotated.json,495364,672683,40,Woman
158,393442,DepthScenes,duration_manipulation_targetAtFixation,jsons/v1_VE250_randls_8_rotated.json,http://54.235.29.9/FacialAge/BNav_EC2/DepthDuration/v2_depth_duration_MTurk/v2_DepthDuration_HTML.html#76,76,1920,937,1920,1080,8-20-2022,9-11-0,159,depth_duration_stimuli/001214_2014-06-17_16-13-55_260595134347_rgbf000111-resize_0/001214_2014-06-17_16-13-55_260595134347_rgbf000111-resize_0-target.png,250,2.6505,5,2196,248,feet,jsons/v1_VE250_randls_8_rotated.json,495364,672683,40,Woman
159,393442,DepthScenes,duration_manipulation_targetAtFixation,jsons/v1_VE250_randls_8_rotated.json,http://54.235.29.9/FacialAge/BNav_EC2/DepthDuration/v2_depth_duration_MTurk/v2_DepthDuration_HTML.html#76,76,1920,937,1920,1080,8-20-2022,9-11-0,160,depth_duration_stimuli/000810_2014-06-08_17-20-01_260595134347_rgbf000105-resize_0/000810_2014-06-08_17-20-01_260595134347_rgbf000105-resize_0-target.png,250,1.4865,4,2924,237,feet,jsons/v1_VE250_randls_8_rotated.json,495364,672683,40,Woman
160,393442,DepthScenes,duration_manipulation_targetAtFixation,jsons/v1_VE250_randls_8_rotated.json,http://54.235.29.9/FacialAge/BNav_EC2/DepthDuration/v2_depth_duration_MTurk/v2_DepthDuration_HTML.html#76,76,1920,937,1920,1080,8-20-2022,9-11-0,161,depth_duration_stimuli/003490_2014-05-21_15-50-11_094959634447_rgbf000101-resize_3/003490_2014-05-21_15-50-11_094959634447_rgbf000101-resize_3-target.png,250,3.6445,9,2412,250,feet,jsons/v1_VE250_randls_8_rotated.json,495364,672683,40,Woman
161,393442,DepthScenes,duration_manipulation_targetAtFixation,jsons/v1_VE250_randls_8_rotated.json,http://54.235.29.9/FacialAge/BNav_EC2/DepthDuration/v2_depth_duration_MTurk/v2_DepthDuration_HTML.html#76,76,1920,937,1920,1080,8-20-2022,9-11-0,162,depth_duration_stimuli/001175_2014-06-17_15-45-55_260595134347_rgbf000129-resize_4/001175_2014-06-17_15-45-55_260595134347_rgbf000129-resize_4-target.png,250,4.255,12,2440,244,feet,jsons/v1_VE250_randls_8_rotated.json,495364,672683,40,Woman
162,393442,DepthScenes,duration_manipulation_targetAtFixation,jsons/v1_VE250_randls_8_rotated.json,http://54.235.29.9/FacialAge/BNav_EC2/DepthDuration/v2_depth_duration_MTurk/v2_DepthDuration_HTML.html#76,76,1920,937,1920,1080,8-20-2022,9-11-0,163,depth_duration_stimuli/001235_2014-06-17_16-37-36_260595134347_rgbf000084-resize_4/001235_2014-06-17_16-37-36_260595134347_rgbf000084-resize_4-target.png,250,3.6605,14,2663,249,feet,jsons/v1_VE250_randls_8_rotated.json,495364,672683,40,Woman
163,393442,DepthScenes,duration_manipulation_targetAtFixation,jsons/v1_VE250_randls_8_rotated.json,http://54.235.29.9/FacialAge/BNav_EC2/DepthDuration/v2_depth_duration_MTurk/v2_DepthDuration_HTML.html#76,76,1920,937,1920,1080,8-20-2022,9-11-0,164,depth_duration_stimuli/000788_2014-06-08_22-34-36_260595134347_rgbf000131-resize_1/000788_2014-06-08_22-34-36_260595134347_rgbf000131-resize_1-target.png,250,3.359,11,2143,249,feet,jsons/v1_VE250_randls_8_rotated.json,495364,672683,40,Woman
