,subjID,experimentName,versionName,sequenceName,url,selected_row,windowWidth,windowHeight,screenWidth,screenHeight,startDate,startTime,trial,stimulus,duration,actual_depth,depth_estimate,trial_RT,log_sceneDuration,unitSelection,seq_filepath,experimentTime,totalTime,age,gender
0,394510,DepthScenes,duration_manipulation_targetAtFixation,jsons/v1_VE250_randls_72.json,http://54.235.29.9/FacialAge/BNav_EC2/DepthDuration/v2_depth_duration_MTurk/v2_DepthDuration_HTML.html#191,191,1364,625,1364,768,9-18-2022,12-52-18,1,depth_duration_stimuli/001449_2014-06-19_17-01-27_260595134347_rgbf000116-resize_2/001449_2014-06-19_17-01-27_260595134347_rgbf000116-resize_2-target.png,250,3.452,2,6097,247,feet,jsons/v1_VE250_randls_72.json,841863,974395,60,Man
1,394510,DepthScenes,duration_manipulation_targetAtFixation,jsons/v1_VE250_randls_72.json,http://54.235.29.9/FacialAge/BNav_EC2/DepthDuration/v2_depth_duration_MTurk/v2_DepthDuration_HTML.html#191,191,1364,625,1364,768,9-18-2022,12-52-18,2,depth_duration_stimuli/001450_2014-06-19_17-02-03_260595134347_rgbf000203-resize_4/001450_2014-06-19_17-02-03_260595134347_rgbf000203-resize_4-target.png,250,4.0106666666667,1,5423,296,feet,jsons/v1_VE250_randls_72.json,841863,974395,60,Man
2,394510,DepthScenes,duration_manipulation_targetAtFixation,jsons/v1_VE250_randls_72.json,http://54.235.29.9/FacialAge/BNav_EC2/DepthDuration/v2_depth_duration_MTurk/v2_DepthDuration_HTML.html#191,191,1364,625,1364,768,9-18-2022,12-52-18,3,depth_duration_stimuli/001199_2014-06-17_16-03-48_260595134347_rgbf000077-resize_0/001199_2014-06-17_16-03-48_260595134347_rgbf000077-resize_0-target.png,250,3.4375,2,4736,252,feet,jsons/v1_VE250_randls_72.json,841863,974395,60,Man
3,394510,DepthScenes,duration_manipulation_targetAtFixation,jsons/v1_VE250_randls_72.json,http://54.235.29.9/FacialAge/BNav_EC2/DepthDuration/v2_depth_duration_MTurk/v2_DepthDuration_HTML.html#191,191,1364,625,1364,768,9-18-2022,12-52-18,4,depth_duration_stimuli/000502_2014-06-08_23-02-32_260595134347_rgbf000063-resize_4/000502_2014-06-08_23-02-32_260595134347_rgbf000063-resize_4-target.png,250,2.431,2,3729,252,feet,jsons/v1_VE250_randls_72.json,841863,974395,60,Man
4,394510,DepthScenes,duration_manipulation_targetAtFixation,jsons/v1_VE250_randls_72.json,http://54.235.29.9/FacialAge/BNav_EC2/DepthDuration/v2_depth_duration_MTurk/v2_DepthDuration_HTML.html#191,191,1364,625,1364,768,9-18-2022,12-52-18,5,depth_duration_stimuli/000929_2014-06-09_16-33-19_260595134347_rgbf000139-resize_0/000929_2014-06-09_16-33-19_260595134347_rgbf000139-resize_0-target.png,250,2.8680000000000003,2,4335,211,feet,jsons/v1_VE250_randls_72.json,841863,974395,60,Man
5,394510,DepthScenes,duration_manipulation_targetAtFixation,jsons/v1_VE250_randls_72.json,http://54.235.29.9/FacialAge/BNav_EC2/DepthDuration/v2_depth_duration_MTurk/v2_DepthDuration_HTML.html#191,191,1364,625,1364,768,9-18-2022,12-52-18,6,depth_duration_stimuli/000457_2014-06-08_16-52-43_260595134347_rgbf000199-resize_1/000457_2014-06-08_16-52-43_260595134347_rgbf000199-resize_1-target.png,250,3.6489999999999996,2,3002,249,feet,jsons/v1_VE250_randls_72.json,841863,974395,60,Man
6,394510,DepthScenes,duration_manipulation_targetAtFixation,jsons/v1_VE250_randls_72.json,http://54.235.29.9/FacialAge/BNav_EC2/DepthDuration/v2_depth_duration_MTurk/v2_DepthDuration_HTML.html#191,191,1364,625,1364,768,9-18-2022,12-52-18,7,depth_duration_stimuli/000470_2014-06-09_19-42-40_260595134347_rgbf000094-resize_1/000470_2014-06-09_19-42-40_260595134347_rgbf000094-resize_1-target.png,250,1.831,2,4331,254,feet,jsons/v1_VE250_randls_72.json,841863,974395,60,Man
7,394510,DepthScenes,duration_manipulation_targetAtFixation,jsons/v1_VE250_randls_72.json,http://54.235.29.9/FacialAge/BNav_EC2/DepthDuration/v2_depth_duration_MTurk/v2_DepthDuration_HTML.html#191,191,1364,625,1364,768,9-18-2022,12-52-18,8,depth_duration_stimuli/000109_2014-05-14_23-41-52_260595134347_rgbf000035-resize_9/000109_2014-05-14_23-41-52_260595134347_rgbf000035-resize_9-target.png,250,1.3545,1,3873,250,feet,jsons/v1_VE250_randls_72.json,841863,974395,60,Man
8,394510,DepthScenes,duration_manipulation_targetAtFixation,jsons/v1_VE250_randls_72.json,http://54.235.29.9/FacialAge/BNav_EC2/DepthDuration/v2_depth_duration_MTurk/v2_DepthDuration_HTML.html#191,191,1364,625,1364,768,9-18-2022,12-52-18,9,depth_duration_stimuli/001150_2014-06-17_15-27-34_260595134347_rgbf000108-resize_2/001150_2014-06-17_15-27-34_260595134347_rgbf000108-resize_2-target.png,250,4.0325,3,4938,256,feet,jsons/v1_VE250_randls_72.json,841863,974395,60,Man
9,394510,DepthScenes,duration_manipulation_targetAtFixation,jsons/v1_VE250_randls_72.json,http://54.235.29.9/FacialAge/BNav_EC2/DepthDuration/v2_depth_duration_MTurk/v2_DepthDuration_HTML.html#191,191,1364,625,1364,768,9-18-2022,12-52-18,10,depth_duration_stimuli/000665_2014-06-09_20-42-35_260595134347_rgbf000110-resize_1/000665_2014-06-09_20-42-35_260595134347_rgbf000110-resize_1-target.png,250,3.057,2,4330,249,feet,jsons/v1_VE250_randls_72.json,841863,974395,60,Man
10,394510,DepthScenes,duration_manipulation_targetAtFixation,jsons/v1_VE250_randls_72.json,http://54.235.29.9/FacialAge/BNav_EC2/DepthDuration/v2_depth_duration_MTurk/v2_DepthDuration_HTML.html#191,191,1364,625,1364,768,9-18-2022,12-52-18,11,depth_duration_stimuli/001016_2014-06-09_16-16-10_260595134347_rgbf000112-resize_5/001016_2014-06-09_16-16-10_260595134347_rgbf000112-resize_5-target.png,250,1.6565,2,5101,245,feet,jsons/v1_VE250_randls_72.json,841863,974395,60,Man
11,394510,DepthScenes,duration_manipulation_targetAtFixation,jsons/v1_VE250_randls_72.json,http://54.235.29.9/FacialAge/BNav_EC2/DepthDuration/v2_depth_duration_MTurk/v2_DepthDuration_HTML.html#191,191,1364,625,1364,768,9-18-2022,12-52-18,12,depth_duration_stimuli/002340_2014-06-28_20-05-46_260595134347_rgbf000113-resize_0/002340_2014-06-28_20-05-46_260595134347_rgbf000113-resize_0-target.png,250,2.4735,1,3850,90,feet,jsons/v1_VE250_randls_72.json,841863,974395,60,Man
12,394510,DepthScenes,duration_manipulation_targetAtFixation,jsons/v1_VE250_randls_72.json,http://54.235.29.9/FacialAge/BNav_EC2/DepthDuration/v2_depth_duration_MTurk/v2_DepthDuration_HTML.html#191,191,1364,625,1364,768,9-18-2022,12-52-18,13,depth_duration_stimuli/000569_2014-06-09_22-51-47_260595134347_rgbf000141-resize_3/000569_2014-06-09_22-51-47_260595134347_rgbf000141-resize-original.jpg,250,4.512,0,5503,245,feet,jsons/v1_VE250_randls_72.json,841863,974395,60,Man
13,394510,DepthScenes,duration_manipulation_targetAtFixation,jsons/v1_VE250_randls_72.json,http://54.235.29.9/FacialAge/BNav_EC2/DepthDuration/v2_depth_duration_MTurk/v2_DepthDuration_HTML.html#191,191,1364,625,1364,768,9-18-2022,12-52-18,14,depth_duration_stimuli/003492_2014-05-21_15-50-55_094959634447_rgbf000828-resize_1/003492_2014-05-21_15-50-55_094959634447_rgbf000828-resize_1-target.png,250,4.06875,2,5542,250,feet,jsons/v1_VE250_randls_72.json,841863,974395,60,Man
14,394510,DepthScenes,duration_manipulation_targetAtFixation,jsons/v1_VE250_randls_72.json,http://54.235.29.9/FacialAge/BNav_EC2/DepthDuration/v2_depth_duration_MTurk/v2_DepthDuration_HTML.html#191,191,1364,625,1364,768,9-18-2022,12-52-18,15,depth_duration_stimuli/002568_2014-06-24_13-59-21_094959634447_rgbf000062-resize_4/002568_2014-06-24_13-59-21_094959634447_rgbf000062-resize_4-target.png,250,3.015,2,4101,251,feet,jsons/v1_VE250_randls_72.json,841863,974395,60,Man
15,394510,DepthScenes,duration_manipulation_targetAtFixation,jsons/v1_VE250_randls_72.json,http://54.235.29.9/FacialAge/BNav_EC2/DepthDuration/v2_depth_duration_MTurk/v2_DepthDuration_HTML.html#191,191,1364,625,1364,768,9-18-2022,12-52-18,16,depth_duration_stimuli/002784_2014-06-22_19-26-30_094959634447_rgbf000083-resize_3/002784_2014-06-22_19-26-30_094959634447_rgbf000083-resize_3-target.png,250,1.8046666666667,1,4552,260,feet,jsons/v1_VE250_randls_72.json,841863,974395,60,Man
16,394510,DepthScenes,duration_manipulation_targetAtFixation,jsons/v1_VE250_randls_72.json,http://54.235.29.9/FacialAge/BNav_EC2/DepthDuration/v2_depth_duration_MTurk/v2_DepthDuration_HTML.html#191,191,1364,625,1364,768,9-18-2022,12-52-18,17,depth_duration_stimuli/001100_2014-06-15_17-46-26_260595134347_rgbf000225-resize_2/001100_2014-06-15_17-46-26_260595134347_rgbf000225-resize_2-target.png,250,2.24,2,3295,211,feet,jsons/v1_VE250_randls_72.json,841863,974395,60,Man
17,394510,DepthScenes,duration_manipulation_targetAtFixation,jsons/v1_VE250_randls_72.json,http://54.235.29.9/FacialAge/BNav_EC2/DepthDuration/v2_depth_duration_MTurk/v2_DepthDuration_HTML.html#191,191,1364,625,1364,768,9-18-2022,12-52-18,18,depth_duration_stimuli/001175_2014-06-17_15-45-55_260595134347_rgbf000129-resize_4/001175_2014-06-17_15-45-55_260595134347_rgbf000129-resize_4-target.png,250,4.255,3,5399,250,feet,jsons/v1_VE250_randls_72.json,841863,974395,60,Man
18,394510,DepthScenes,duration_manipulation_targetAtFixation,jsons/v1_VE250_randls_72.json,http://54.235.29.9/FacialAge/BNav_EC2/DepthDuration/v2_depth_duration_MTurk/v2_DepthDuration_HTML.html#191,191,1364,625,1364,768,9-18-2022,12-52-18,19,depth_duration_stimuli/003490_2014-05-21_15-50-11_094959634447_rgbf000101-resize_3/003490_2014-05-21_15-50-11_094959634447_rgbf000101-resize_3-target.png,250,3.6445,3,3753,236,feet,jsons/v1_VE250_randls_72.json,841863,974395,60,Man
19,394510,DepthScenes,duration_manipulation_targetAtFixation,jsons/v1_VE250_randls_72.json,http://54.235.29.9/FacialAge/BNav_EC2/DepthDuration/v2_depth_duration_MTurk/v2_DepthDuration_HTML.html#191,191,1364,625,1364,768,9-18-2022,12-52-18,20,depth_duration_stimuli/001110_2014-06-15_17-25-28_260595134347_rgbf000150-resize_1/001110_2014-06-15_17-25-28_260595134347_rgbf000150-resize_1-target.png,250,1.7115,2,3733,252,feet,jsons/v1_VE250_randls_72.json,841863,974395,60,Man
20,394510,DepthScenes,duration_manipulation_targetAtFixation,jsons/v1_VE250_randls_72.json,http://54.235.29.9/FacialAge/BNav_EC2/DepthDuration/v2_depth_duration_MTurk/v2_DepthDuration_HTML.html#191,191,1364,625,1364,768,9-18-2022,12-52-18,21,depth_duration_stimuli/000927_2014-06-09_16-32-30_260595134347_rgbf000123-resize_3/000927_2014-06-09_16-32-30_260595134347_rgbf000123-resize_3-target.png,250,2.6785,1,3294,259,feet,jsons/v1_VE250_randls_72.json,841863,974395,60,Man
21,394510,DepthScenes,duration_manipulation_targetAtFixation,jsons/v1_VE250_randls_72.json,http://54.235.29.9/FacialAge/BNav_EC2/DepthDuration/v2_depth_duration_MTurk/v2_DepthDuration_HTML.html#191,191,1364,625,1364,768,9-18-2022,12-52-18,22,depth_duration_stimuli/002663_2014-06-13_15-50-26_094959634447_rgbf000075-resize_1/002663_2014-06-13_15-50-26_094959634447_rgbf000075-resize_1-target.png,250,4.7495,2,4258,250,feet,jsons/v1_VE250_randls_72.json,841863,974395,60,Man
22,394510,DepthScenes,duration_manipulation_targetAtFixation,jsons/v1_VE250_randls_72.json,http://54.235.29.9/FacialAge/BNav_EC2/DepthDuration/v2_depth_duration_MTurk/v2_DepthDuration_HTML.html#191,191,1364,625,1364,768,9-18-2022,12-52-18,23,depth_duration_stimuli/000409_2014-06-04_19-23-33_260595134347_rgbf000067-resize_0/000409_2014-06-04_19-23-33_260595134347_rgbf000067-resize_0-target.png,250,3.7335,2,3242,249,feet,jsons/v1_VE250_randls_72.json,841863,974395,60,Man
23,394510,DepthScenes,duration_manipulation_targetAtFixation,jsons/v1_VE250_randls_72.json,http://54.235.29.9/FacialAge/BNav_EC2/DepthDuration/v2_depth_duration_MTurk/v2_DepthDuration_HTML.html#191,191,1364,625,1364,768,9-18-2022,12-52-18,24,depth_duration_stimuli/000522_2014-06-08_13-35-06_260595134347_rgbf000244-resize_1/000522_2014-06-08_13-35-06_260595134347_rgbf000244-resize_1-target.png,250,2.3715,1,4039,249,feet,jsons/v1_VE250_randls_72.json,841863,974395,60,Man
24,394510,DepthScenes,duration_manipulation_targetAtFixation,jsons/v1_VE250_randls_72.json,http://54.235.29.9/FacialAge/BNav_EC2/DepthDuration/v2_depth_duration_MTurk/v2_DepthDuration_HTML.html#191,191,1364,625,1364,768,9-18-2022,12-52-18,25,depth_duration_stimuli/002949_2014-06-26_15-57-42_094959634447_rgbf000079-resize_1/002949_2014-06-26_15-57-42_094959634447_rgbf000079-resize_1-target.png,250,1.8915,2,2814,252,feet,jsons/v1_VE250_randls_72.json,841863,974395,60,Man
25,394510,DepthScenes,duration_manipulation_targetAtFixation,jsons/v1_VE250_randls_72.json,http://54.235.29.9/FacialAge/BNav_EC2/DepthDuration/v2_depth_duration_MTurk/v2_DepthDuration_HTML.html#191,191,1364,625,1364,768,9-18-2022,12-52-18,26,depth_duration_stimuli/001806_2014-06-26_20-50-20_260595134347_rgbf000091-resize_1/001806_2014-06-26_20-50-20_260595134347_rgbf000091-resize_1-target.png,250,2.7305,1,4819,248,feet,jsons/v1_VE250_randls_72.json,841863,974395,60,Man
26,394510,DepthScenes,duration_manipulation_targetAtFixation,jsons/v1_VE250_randls_72.json,http://54.235.29.9/FacialAge/BNav_EC2/DepthDuration/v2_depth_duration_MTurk/v2_DepthDuration_HTML.html#191,191,1364,625,1364,768,9-18-2022,12-52-18,27,depth_duration_stimuli/001617_2014-06-20_11-35-32_260595134347_rgbf000066-resize_1/001617_2014-06-20_11-35-32_260595134347_rgbf000066-resize_1-target.png,250,3.7910000000000004,1,2765,252,feet,jsons/v1_VE250_randls_72.json,841863,974395,60,Man
27,394510,DepthScenes,duration_manipulation_targetAtFixation,jsons/v1_VE250_randls_72.json,http://54.235.29.9/FacialAge/BNav_EC2/DepthDuration/v2_depth_duration_MTurk/v2_DepthDuration_HTML.html#191,191,1364,625,1364,768,9-18-2022,12-52-18,28,depth_duration_stimuli/000414_2014-06-04_19-49-13_260595134347_rgbf000044-resize_0/000414_2014-06-04_19-49-13_260595134347_rgbf000044-resize_0-target.png,250,4.329,3,4428,249,feet,jsons/v1_VE250_randls_72.json,841863,974395,60,Man
28,394510,DepthScenes,duration_manipulation_targetAtFixation,jsons/v1_VE250_randls_72.json,http://54.235.29.9/FacialAge/BNav_EC2/DepthDuration/v2_depth_duration_MTurk/v2_DepthDuration_HTML.html#191,191,1364,625,1364,768,9-18-2022,12-52-18,29,depth_duration_stimuli/003129_2014-05-12_10-48-10_094959634447_rgbf000100-resize_0/003129_2014-05-12_10-48-10_094959634447_rgbf000100-resize_0-target.png,250,4.9305,1,4146,250,feet,jsons/v1_VE250_randls_72.json,841863,974395,60,Man
29,394510,DepthScenes,duration_manipulation_targetAtFixation,jsons/v1_VE250_randls_72.json,http://54.235.29.9/FacialAge/BNav_EC2/DepthDuration/v2_depth_duration_MTurk/v2_DepthDuration_HTML.html#191,191,1364,625,1364,768,9-18-2022,12-52-18,30,depth_duration_stimuli/000375_2014-06-08_11-17-29_260595134347_rgbf000133-resize_2/000375_2014-06-08_11-17-29_260595134347_rgbf000133-resize-original.jpg,250,4.718,2,2690,287,feet,jsons/v1_VE250_randls_72.json,841863,974395,60,Man
30,394510,DepthScenes,duration_manipulation_targetAtFixation,jsons/v1_VE250_randls_72.json,http://54.235.29.9/FacialAge/BNav_EC2/DepthDuration/v2_depth_duration_MTurk/v2_DepthDuration_HTML.html#191,191,1364,625,1364,768,9-18-2022,12-52-18,31,depth_duration_stimuli/001164_2014-06-17_15-35-46_260595134347_rgbf000085-resize_3/001164_2014-06-17_15-35-46_260595134347_rgbf000085-resize_3-target.png,250,2.354,3,4755,279,feet,jsons/v1_VE250_randls_72.json,841863,974395,60,Man
31,394510,DepthScenes,duration_manipulation_targetAtFixation,jsons/v1_VE250_randls_72.json,http://54.235.29.9/FacialAge/BNav_EC2/DepthDuration/v2_depth_duration_MTurk/v2_DepthDuration_HTML.html#191,191,1364,625,1364,768,9-18-2022,12-52-18,32,depth_duration_stimuli/001136_2014-06-17_15-19-41_260595134347_rgbf000076-resize_3/001136_2014-06-17_15-19-41_260595134347_rgbf000076-resize_3-target.png,250,1.8655,3,3723,247,feet,jsons/v1_VE250_randls_72.json,841863,974395,60,Man
32,394510,DepthScenes,duration_manipulation_targetAtFixation,jsons/v1_VE250_randls_72.json,http://54.235.29.9/FacialAge/BNav_EC2/DepthDuration/v2_depth_duration_MTurk/v2_DepthDuration_HTML.html#191,191,1364,625,1364,768,9-18-2022,12-52-18,33,depth_duration_stimuli/001808_2014-06-26_20-50-58_260595134347_rgbf000029-resize_1/001808_2014-06-26_20-50-58_260595134347_rgbf000029-resize_1-target.png,250,4.249,3,5186,249,feet,jsons/v1_VE250_randls_72.json,841863,974395,60,Man
33,394510,DepthScenes,duration_manipulation_targetAtFixation,jsons/v1_VE250_randls_72.json,http://54.235.29.9/FacialAge/BNav_EC2/DepthDuration/v2_depth_duration_MTurk/v2_DepthDuration_HTML.html#191,191,1364,625,1364,768,9-18-2022,12-52-18,34,depth_duration_stimuli/001815_2014-06-26_20-52-55_260595134347_rgbf000020-resize_0/001815_2014-06-26_20-52-55_260595134347_rgbf000020-resize_0-target.png,250,3.3865,1,3608,251,feet,jsons/v1_VE250_randls_72.json,841863,974395,60,Man
34,394510,DepthScenes,duration_manipulation_targetAtFixation,jsons/v1_VE250_randls_72.json,http://54.235.29.9/FacialAge/BNav_EC2/DepthDuration/v2_depth_duration_MTurk/v2_DepthDuration_HTML.html#191,191,1364,625,1364,768,9-18-2022,12-52-18,35,depth_duration_stimuli/000486_2014-06-09_20-47-20_260595134347_rgbf000143-resize_2/000486_2014-06-09_20-47-20_260595134347_rgbf000143-resize_2-target.png,250,4.8325,2,4620,235,feet,jsons/v1_VE250_randls_72.json,841863,974395,60,Man
35,394510,DepthScenes,duration_manipulation_targetAtFixation,jsons/v1_VE250_randls_72.json,http://54.235.29.9/FacialAge/BNav_EC2/DepthDuration/v2_depth_duration_MTurk/v2_DepthDuration_HTML.html#191,191,1364,625,1364,768,9-18-2022,12-52-18,36,depth_duration_stimuli/003083_2014-06-15_15-21-03_094959634447_rgbf000063-resize_1/003083_2014-06-15_15-21-03_094959634447_rgbf000063-resize_1-target.png,250,4.1405,2,3360,335,feet,jsons/v1_VE250_randls_72.json,841863,974395,60,Man
36,394510,DepthScenes,duration_manipulation_targetAtFixation,jsons/v1_VE250_randls_72.json,http://54.235.29.9/FacialAge/BNav_EC2/DepthDuration/v2_depth_duration_MTurk/v2_DepthDuration_HTML.html#191,191,1364,625,1364,768,9-18-2022,12-52-18,37,depth_duration_stimuli/001092_2014-06-15_17-34-58_260595134347_rgbf000171-resize_3/001092_2014-06-15_17-34-58_260595134347_rgbf000171-resize_3-target.png,250,2.6935,2,4222,251,feet,jsons/v1_VE250_randls_72.json,841863,974395,60,Man
37,394510,DepthScenes,duration_manipulation_targetAtFixation,jsons/v1_VE250_randls_72.json,http://54.235.29.9/FacialAge/BNav_EC2/DepthDuration/v2_depth_duration_MTurk/v2_DepthDuration_HTML.html#191,191,1364,625,1364,768,9-18-2022,12-52-18,38,depth_duration_stimuli/002545_2014-06-24_13-38-53_094959634447_rgbf000080-resize_4/002545_2014-06-24_13-38-53_094959634447_rgbf000080-resize_4-target.png,250,1.9205,2,2660,250,feet,jsons/v1_VE250_randls_72.json,841863,974395,60,Man
38,394510,DepthScenes,duration_manipulation_targetAtFixation,jsons/v1_VE250_randls_72.json,http://54.235.29.9/FacialAge/BNav_EC2/DepthDuration/v2_depth_duration_MTurk/v2_DepthDuration_HTML.html#191,191,1364,625,1364,768,9-18-2022,12-52-18,39,depth_duration_stimuli/000739_2014-06-08_18-45-58_260595134347_rgbf000068-resize_1/000739_2014-06-08_18-45-58_260595134347_rgbf000068-resize_1-target.png,250,3.534,3,4671,240,feet,jsons/v1_VE250_randls_72.json,841863,974395,60,Man
39,394510,DepthScenes,duration_manipulation_targetAtFixation,jsons/v1_VE250_randls_72.json,http://54.235.29.9/FacialAge/BNav_EC2/DepthDuration/v2_depth_duration_MTurk/v2_DepthDuration_HTML.html#191,191,1364,625,1364,768,9-18-2022,12-52-18,40,depth_duration_stimuli/000734_2014-06-08_17-39-11_260595134347_rgbf000128-resize_2/000734_2014-06-08_17-39-11_260595134347_rgbf000128-resize_2-target.png,250,4.098,1,4035,250,feet,jsons/v1_VE250_randls_72.json,841863,974395,60,Man
40,394510,DepthScenes,duration_manipulation_targetAtFixation,jsons/v1_VE250_randls_72.json,http://54.235.29.9/FacialAge/BNav_EC2/DepthDuration/v2_depth_duration_MTurk/v2_DepthDuration_HTML.html#191,191,1364,625,1364,768,9-18-2022,12-52-18,41,depth_duration_stimuli/001167_2014-06-17_15-38-07_260595134347_rgbf000108-resize_0/001167_2014-06-17_15-38-07_260595134347_rgbf000108-resize_0-target.png,250,1.8505,2,4655,248,feet,jsons/v1_VE250_randls_72.json,841863,974395,60,Man
41,394510,DepthScenes,duration_manipulation_targetAtFixation,jsons/v1_VE250_randls_72.json,http://54.235.29.9/FacialAge/BNav_EC2/DepthDuration/v2_depth_duration_MTurk/v2_DepthDuration_HTML.html#191,191,1364,625,1364,768,9-18-2022,12-52-18,42,depth_duration_stimuli/003587_2014-05-23_16-48-02_094959634447_rgbf002384-resize_2/003587_2014-05-23_16-48-02_094959634447_rgbf002384-resize_2-target.png,250,1.357,1,3212,262,feet,jsons/v1_VE250_randls_72.json,841863,974395,60,Man
42,394510,DepthScenes,duration_manipulation_targetAtFixation,jsons/v1_VE250_randls_72.json,http://54.235.29.9/FacialAge/BNav_EC2/DepthDuration/v2_depth_duration_MTurk/v2_DepthDuration_HTML.html#191,191,1364,625,1364,768,9-18-2022,12-52-18,43,depth_duration_stimuli/002213_2014-06-28_18-37-58_260595134347_rgbf000055-resize_1/002213_2014-06-28_18-37-58_260595134347_rgbf000055-resize_1-target.png,250,3.62,3,4784,250,feet,jsons/v1_VE250_randls_72.json,841863,974395,60,Man
43,394510,DepthScenes,duration_manipulation_targetAtFixation,jsons/v1_VE250_randls_72.json,http://54.235.29.9/FacialAge/BNav_EC2/DepthDuration/v2_depth_duration_MTurk/v2_DepthDuration_HTML.html#191,191,1364,625,1364,768,9-18-2022,12-52-18,44,depth_duration_stimuli/000691_2014-06-08_13-08-50_260595134347_rgbf000132-resize_3/000691_2014-06-08_13-08-50_260595134347_rgbf000132-resize_3-target.png,250,4.1530000000000005,0,3976,267,feet,jsons/v1_VE250_randls_72.json,841863,974395,60,Man
44,394510,DepthScenes,duration_manipulation_targetAtFixation,jsons/v1_VE250_randls_72.json,http://54.235.29.9/FacialAge/BNav_EC2/DepthDuration/v2_depth_duration_MTurk/v2_DepthDuration_HTML.html#191,191,1364,625,1364,768,9-18-2022,12-52-18,45,depth_duration_stimuli/000787_2014-06-08_22-33-53_260595134347_rgbf000175-resize_1/000787_2014-06-08_22-33-53_260595134347_rgbf000175-resize-original.jpg,250,4.784,0,4067,250,feet,jsons/v1_VE250_randls_72.json,841863,974395,60,Man
45,394510,DepthScenes,duration_manipulation_targetAtFixation,jsons/v1_VE250_randls_72.json,http://54.235.29.9/FacialAge/BNav_EC2/DepthDuration/v2_depth_duration_MTurk/v2_DepthDuration_HTML.html#191,191,1364,625,1364,768,9-18-2022,12-52-18,46,depth_duration_stimuli/000788_2014-06-08_22-34-36_260595134347_rgbf000131-resize_1/000788_2014-06-08_22-34-36_260595134347_rgbf000131-resize_1-target.png,250,3.359,2,4461,255,feet,jsons/v1_VE250_randls_72.json,841863,974395,60,Man
46,394510,DepthScenes,duration_manipulation_targetAtFixation,jsons/v1_VE250_randls_72.json,http://54.235.29.9/FacialAge/BNav_EC2/DepthDuration/v2_depth_duration_MTurk/v2_DepthDuration_HTML.html#191,191,1364,625,1364,768,9-18-2022,12-52-18,47,depth_duration_stimuli/001235_2014-06-17_16-37-36_260595134347_rgbf000084-resize_4/001235_2014-06-17_16-37-36_260595134347_rgbf000084-resize_4-target.png,250,3.6605,2,2843,249,feet,jsons/v1_VE250_randls_72.json,841863,974395,60,Man
47,394510,DepthScenes,duration_manipulation_targetAtFixation,jsons/v1_VE250_randls_72.json,http://54.235.29.9/FacialAge/BNav_EC2/DepthDuration/v2_depth_duration_MTurk/v2_DepthDuration_HTML.html#191,191,1364,625,1364,768,9-18-2022,12-52-18,48,depth_duration_stimuli/001056_2014-06-08_18-46-44_260595134347_rgbf000068-resize_0/001056_2014-06-08_18-46-44_260595134347_rgbf000068-resize_0-target.png,250,2.6625,3,5028,251,feet,jsons/v1_VE250_randls_72.json,841863,974395,60,Man
48,394510,DepthScenes,duration_manipulation_targetAtFixation,jsons/v1_VE250_randls_72.json,http://54.235.29.9/FacialAge/BNav_EC2/DepthDuration/v2_depth_duration_MTurk/v2_DepthDuration_HTML.html#191,191,1364,625,1364,768,9-18-2022,12-52-18,49,depth_duration_stimuli/002199_2014-06-28_18-33-56_260595134347_rgbf000074-resize_0/002199_2014-06-28_18-33-56_260595134347_rgbf000074-resize_0-target.png,250,1.996,2,3351,233,feet,jsons/v1_VE250_randls_72.json,841863,974395,60,Man
49,394510,DepthScenes,duration_manipulation_targetAtFixation,jsons/v1_VE250_randls_72.json,http://54.235.29.9/FacialAge/BNav_EC2/DepthDuration/v2_depth_duration_MTurk/v2_DepthDuration_HTML.html#191,191,1364,625,1364,768,9-18-2022,12-52-18,50,depth_duration_stimuli/000878_2014-06-08_22-52-45_260595134347_rgbf000045-resize_2/000878_2014-06-08_22-52-45_260595134347_rgbf000045-resize_2-target.png,250,2.092,3,4829,249,feet,jsons/v1_VE250_randls_72.json,841863,974395,60,Man
50,394510,DepthScenes,duration_manipulation_targetAtFixation,jsons/v1_VE250_randls_72.json,http://54.235.29.9/FacialAge/BNav_EC2/DepthDuration/v2_depth_duration_MTurk/v2_DepthDuration_HTML.html#191,191,1364,625,1364,768,9-18-2022,12-52-18,51,depth_duration_stimuli/002953_2014-06-08_17-32-18_094959634447_rgbf000059-resize_5/002953_2014-06-08_17-32-18_094959634447_rgbf000059-resize_5-target.png,250,1.551,2,3560,251,feet,jsons/v1_VE250_randls_72.json,841863,974395,60,Man
51,394510,DepthScenes,duration_manipulation_targetAtFixation,jsons/v1_VE250_randls_72.json,http://54.235.29.9/FacialAge/BNav_EC2/DepthDuration/v2_depth_duration_MTurk/v2_DepthDuration_HTML.html#191,191,1364,625,1364,768,9-18-2022,12-52-18,52,depth_duration_stimuli/000493_2014-06-09_21-01-18_260595134347_rgbf000196-resize_3/000493_2014-06-09_21-01-18_260595134347_rgbf000196-resize_3-target.png,250,3.44,3,5949,248,feet,jsons/v1_VE250_randls_72.json,841863,974395,60,Man
52,394510,DepthScenes,duration_manipulation_targetAtFixation,jsons/v1_VE250_randls_72.json,http://54.235.29.9/FacialAge/BNav_EC2/DepthDuration/v2_depth_duration_MTurk/v2_DepthDuration_HTML.html#191,191,1364,625,1364,768,9-18-2022,12-52-18,53,depth_duration_stimuli/000191_2014-05-12_17-07-38_260595134347_rgbf000199-resize_0/000191_2014-05-12_17-07-38_260595134347_rgbf000199-resize_0-target.png,250,3.7995,1,3535,250,feet,jsons/v1_VE250_randls_72.json,841863,974395,60,Man
53,394510,DepthScenes,duration_manipulation_targetAtFixation,jsons/v1_VE250_randls_72.json,http://54.235.29.9/FacialAge/BNav_EC2/DepthDuration/v2_depth_duration_MTurk/v2_DepthDuration_HTML.html#191,191,1364,625,1364,768,9-18-2022,12-52-18,54,depth_duration_stimuli/002549_2014-06-24_13-41-39_094959634447_rgbf000022-resize_3/002549_2014-06-24_13-41-39_094959634447_rgbf000022-resize_3-target.png,250,1.476,2,4518,238,feet,jsons/v1_VE250_randls_72.json,841863,974395,60,Man
54,394510,DepthScenes,duration_manipulation_targetAtFixation,jsons/v1_VE250_randls_72.json,http://54.235.29.9/FacialAge/BNav_EC2/DepthDuration/v2_depth_duration_MTurk/v2_DepthDuration_HTML.html#191,191,1364,625,1364,768,9-18-2022,12-52-18,55,depth_duration_stimuli/002750_2014-06-22_19-08-03_094959634447_rgbf000094-resize_4/002750_2014-06-22_19-08-03_094959634447_rgbf000094-resize_4-target.png,250,2.354,1,4008,251,feet,jsons/v1_VE250_randls_72.json,841863,974395,60,Man
55,394510,DepthScenes,duration_manipulation_targetAtFixation,jsons/v1_VE250_randls_72.json,http://54.235.29.9/FacialAge/BNav_EC2/DepthDuration/v2_depth_duration_MTurk/v2_DepthDuration_HTML.html#191,191,1364,625,1364,768,9-18-2022,12-52-18,56,depth_duration_stimuli/002964_2014-06-08_17-46-11_094959634447_rgbf000091-resize_4/002964_2014-06-08_17-46-11_094959634447_rgbf000091-resize_4-target.png,250,1.6909999999999998,2,4987,260,feet,jsons/v1_VE250_randls_72.json,841863,974395,60,Man
56,394510,DepthScenes,duration_manipulation_targetAtFixation,jsons/v1_VE250_randls_72.json,http://54.235.29.9/FacialAge/BNav_EC2/DepthDuration/v2_depth_duration_MTurk/v2_DepthDuration_HTML.html#191,191,1364,625,1364,768,9-18-2022,12-52-18,57,depth_duration_stimuli/002136_2014-06-25_21-18-03_260595134347_rgbf000109-resize_3/002136_2014-06-25_21-18-03_260595134347_rgbf000109-resize_3-target.png,250,1.9569999999999999,2,3381,250,feet,jsons/v1_VE250_randls_72.json,841863,974395,60,Man
57,394510,DepthScenes,duration_manipulation_targetAtFixation,jsons/v1_VE250_randls_72.json,http://54.235.29.9/FacialAge/BNav_EC2/DepthDuration/v2_depth_duration_MTurk/v2_DepthDuration_HTML.html#191,191,1364,625,1364,768,9-18-2022,12-52-18,58,depth_duration_stimuli/000682_2014-06-08_23-14-58_260595134347_rgbf000041-resize_5/000682_2014-06-08_23-14-58_260595134347_rgbf000041-resize_5-target.png,250,2.7239999999999998,3,5433,238,feet,jsons/v1_VE250_randls_72.json,841863,974395,60,Man
58,394510,DepthScenes,duration_manipulation_targetAtFixation,jsons/v1_VE250_randls_72.json,http://54.235.29.9/FacialAge/BNav_EC2/DepthDuration/v2_depth_duration_MTurk/v2_DepthDuration_HTML.html#191,191,1364,625,1364,768,9-18-2022,12-52-18,59,depth_duration_stimuli/001650_2014-06-20_12-09-00_260595134347_rgbf000087-resize_3/001650_2014-06-20_12-09-00_260595134347_rgbf000087-resize_3-target.png,250,1.9505,2,3188,250,feet,jsons/v1_VE250_randls_72.json,841863,974395,60,Man
59,394510,DepthScenes,duration_manipulation_targetAtFixation,jsons/v1_VE250_randls_72.json,http://54.235.29.9/FacialAge/BNav_EC2/DepthDuration/v2_depth_duration_MTurk/v2_DepthDuration_HTML.html#191,191,1364,625,1364,768,9-18-2022,12-52-18,60,depth_duration_stimuli/001570_2014-06-20_17-21-09_260595134347_rgbf000135-resize_4/001570_2014-06-20_17-21-09_260595134347_rgbf000135-resize_4-target.png,250,4.467,3,4025,250,feet,jsons/v1_VE250_randls_72.json,841863,974395,60,Man
60,394510,DepthScenes,duration_manipulation_targetAtFixation,jsons/v1_VE250_randls_72.json,http://54.235.29.9/FacialAge/BNav_EC2/DepthDuration/v2_depth_duration_MTurk/v2_DepthDuration_HTML.html#191,191,1364,625,1364,768,9-18-2022,12-52-18,61,depth_duration_stimuli/001392_2014-06-19_16-07-59_260595134347_rgbf000046-resize_1/001392_2014-06-19_16-07-59_260595134347_rgbf000046-resize_1-target.png,250,4.135,3,3616,86,feet,jsons/v1_VE250_randls_72.json,841863,974395,60,Man
61,394510,DepthScenes,duration_manipulation_targetAtFixation,jsons/v1_VE250_randls_72.json,http://54.235.29.9/FacialAge/BNav_EC2/DepthDuration/v2_depth_duration_MTurk/v2_DepthDuration_HTML.html#191,191,1364,625,1364,768,9-18-2022,12-52-18,62,depth_duration_stimuli/002988_2014-06-15_12-24-20_094959634447_rgbf000150-resize_1/002988_2014-06-15_12-24-20_094959634447_rgbf000150-resize_1-target.png,250,4.7669999999999995,3,4557,250,feet,jsons/v1_VE250_randls_72.json,841863,974395,60,Man
62,394510,DepthScenes,duration_manipulation_targetAtFixation,jsons/v1_VE250_randls_72.json,http://54.235.29.9/FacialAge/BNav_EC2/DepthDuration/v2_depth_duration_MTurk/v2_DepthDuration_HTML.html#191,191,1364,625,1364,768,9-18-2022,12-52-18,63,depth_duration_stimuli/001052_2014-06-08_18-24-54_260595134347_rgbf000130-resize_1/001052_2014-06-08_18-24-54_260595134347_rgbf000130-resize_1-target.png,250,4.1045,2,3446,239,feet,jsons/v1_VE250_randls_72.json,841863,974395,60,Man
63,394510,DepthScenes,duration_manipulation_targetAtFixation,jsons/v1_VE250_randls_72.json,http://54.235.29.9/FacialAge/BNav_EC2/DepthDuration/v2_depth_duration_MTurk/v2_DepthDuration_HTML.html#191,191,1364,625,1364,768,9-18-2022,12-52-18,64,depth_duration_stimuli/002748_2014-06-22_19-07-22_094959634447_rgbf000078-resize_1/002748_2014-06-22_19-07-22_094959634447_rgbf000078-resize_1-target.png,250,4.6705,3,6116,240,feet,jsons/v1_VE250_randls_72.json,841863,974395,60,Man
64,394510,DepthScenes,duration_manipulation_targetAtFixation,jsons/v1_VE250_randls_72.json,http://54.235.29.9/FacialAge/BNav_EC2/DepthDuration/v2_depth_duration_MTurk/v2_DepthDuration_HTML.html#191,191,1364,625,1364,768,9-18-2022,12-52-18,65,depth_duration_stimuli/002995_2014-06-15_12-31-26_094959634447_rgbf000150-resize_1/002995_2014-06-15_12-31-26_094959634447_rgbf000150-resize_1-target.png,250,3.8360000000000003,3,3930,250,feet,jsons/v1_VE250_randls_72.json,841863,974395,60,Man
65,394510,DepthScenes,duration_manipulation_targetAtFixation,jsons/v1_VE250_randls_72.json,http://54.235.29.9/FacialAge/BNav_EC2/DepthDuration/v2_depth_duration_MTurk/v2_DepthDuration_HTML.html#191,191,1364,625,1364,768,9-18-2022,12-52-18,66,depth_duration_stimuli/001222_2014-06-17_16-24-06_260595134347_rgbf000073-resize_0/001222_2014-06-17_16-24-06_260595134347_rgbf000073-resize-original.jpg,250,1.4385,0,4497,248,feet,jsons/v1_VE250_randls_72.json,841863,974395,60,Man
66,394510,DepthScenes,duration_manipulation_targetAtFixation,jsons/v1_VE250_randls_72.json,http://54.235.29.9/FacialAge/BNav_EC2/DepthDuration/v2_depth_duration_MTurk/v2_DepthDuration_HTML.html#191,191,1364,625,1364,768,9-18-2022,12-52-18,67,depth_duration_stimuli/002725_2014-06-22_11-47-51_094959634447_rgbf000070-resize_1/002725_2014-06-22_11-47-51_094959634447_rgbf000070-resize_1-target.png,250,2.195,3,4655,244,feet,jsons/v1_VE250_randls_72.json,841863,974395,60,Man
67,394510,DepthScenes,duration_manipulation_targetAtFixation,jsons/v1_VE250_randls_72.json,http://54.235.29.9/FacialAge/BNav_EC2/DepthDuration/v2_depth_duration_MTurk/v2_DepthDuration_HTML.html#191,191,1364,625,1364,768,9-18-2022,12-52-18,68,depth_duration_stimuli/002344_2014-06-28_20-06-29_260595134347_rgbf000030-resize_1/002344_2014-06-28_20-06-29_260595134347_rgbf000030-resize_1-target.png,250,1.5795,2,4450,244,feet,jsons/v1_VE250_randls_72.json,841863,974395,60,Man
68,394510,DepthScenes,duration_manipulation_targetAtFixation,jsons/v1_VE250_randls_72.json,http://54.235.29.9/FacialAge/BNav_EC2/DepthDuration/v2_depth_duration_MTurk/v2_DepthDuration_HTML.html#191,191,1364,625,1364,768,9-18-2022,12-52-18,69,depth_duration_stimuli/003621_2014-05-23_18-06-08_094959634447_rgbf000101-resize_1/003621_2014-05-23_18-06-08_094959634447_rgbf000101-resize_1-target.png,250,3.9835,3,4975,249,feet,jsons/v1_VE250_randls_72.json,841863,974395,60,Man
69,394510,DepthScenes,duration_manipulation_targetAtFixation,jsons/v1_VE250_randls_72.json,http://54.235.29.9/FacialAge/BNav_EC2/DepthDuration/v2_depth_duration_MTurk/v2_DepthDuration_HTML.html#191,191,1364,625,1364,768,9-18-2022,12-52-18,70,depth_duration_stimuli/001584_2014-06-20_11-07-43_260595134347_rgbf000002-resize_1/001584_2014-06-20_11-07-43_260595134347_rgbf000002-resize_1-target.png,250,3.53,2,3127,251,feet,jsons/v1_VE250_randls_72.json,841863,974395,60,Man
70,394510,DepthScenes,duration_manipulation_targetAtFixation,jsons/v1_VE250_randls_72.json,http://54.235.29.9/FacialAge/BNav_EC2/DepthDuration/v2_depth_duration_MTurk/v2_DepthDuration_HTML.html#191,191,1364,625,1364,768,9-18-2022,12-52-18,71,depth_duration_stimuli/001059_2014-06-08_21-53-27_260595134347_rgbf000061-resize_4/001059_2014-06-08_21-53-27_260595134347_rgbf000061-resize_4-target.png,250,2.4185,3,4683,246,feet,jsons/v1_VE250_randls_72.json,841863,974395,60,Man
71,394510,DepthScenes,duration_manipulation_targetAtFixation,jsons/v1_VE250_randls_72.json,http://54.235.29.9/FacialAge/BNav_EC2/DepthDuration/v2_depth_duration_MTurk/v2_DepthDuration_HTML.html#191,191,1364,625,1364,768,9-18-2022,12-52-18,72,depth_duration_stimuli/001032_2014-06-08_13-23-17_260595134347_rgbf000021-resize_3/001032_2014-06-08_13-23-17_260595134347_rgbf000021-resize_3-target.png,250,3.2725,0,2899,253,feet,jsons/v1_VE250_randls_72.json,841863,974395,60,Man
72,394510,DepthScenes,duration_manipulation_targetAtFixation,jsons/v1_VE250_randls_72.json,http://54.235.29.9/FacialAge/BNav_EC2/DepthDuration/v2_depth_duration_MTurk/v2_DepthDuration_HTML.html#191,191,1364,625,1364,768,9-18-2022,12-52-18,73,depth_duration_stimuli/000009_2014-05-26_14-32-05_260595134347_rgbf000034-resize_3/000009_2014-05-26_14-32-05_260595134347_rgbf000034-resize_3-target.png,250,3.8715,3,4137,256,feet,jsons/v1_VE250_randls_72.json,841863,974395,60,Man
73,394510,DepthScenes,duration_manipulation_targetAtFixation,jsons/v1_VE250_randls_72.json,http://54.235.29.9/FacialAge/BNav_EC2/DepthDuration/v2_depth_duration_MTurk/v2_DepthDuration_HTML.html#191,191,1364,625,1364,768,9-18-2022,12-52-18,74,depth_duration_stimuli/001828_2014-06-26_21-40-03_260595134347_rgbf000024-resize_0/001828_2014-06-26_21-40-03_260595134347_rgbf000024-resize_0-target.png,250,4.8260000000000005,2,2869,249,feet,jsons/v1_VE250_randls_72.json,841863,974395,60,Man
74,394510,DepthScenes,duration_manipulation_targetAtFixation,jsons/v1_VE250_randls_72.json,http://54.235.29.9/FacialAge/BNav_EC2/DepthDuration/v2_depth_duration_MTurk/v2_DepthDuration_HTML.html#191,191,1364,625,1364,768,9-18-2022,12-52-18,75,depth_duration_stimuli/000642_2014-06-08_16-59-25_260595134347_rgbf000098-resize_2/000642_2014-06-08_16-59-25_260595134347_rgbf000098-resize_2-target.png,250,2.8815,3,5446,209,feet,jsons/v1_VE250_randls_72.json,841863,974395,60,Man
75,394510,DepthScenes,duration_manipulation_targetAtFixation,jsons/v1_VE250_randls_72.json,http://54.235.29.9/FacialAge/BNav_EC2/DepthDuration/v2_depth_duration_MTurk/v2_DepthDuration_HTML.html#191,191,1364,625,1364,768,9-18-2022,12-52-18,76,depth_duration_stimuli/002425_2014-06-28_20-27-29_260595134347_rgbf000031-resize_8/002425_2014-06-28_20-27-29_260595134347_rgbf000031-resize_8-target.png,250,3.8960000000000004,3,3128,245,feet,jsons/v1_VE250_randls_72.json,841863,974395,60,Man
76,394510,DepthScenes,duration_manipulation_targetAtFixation,jsons/v1_VE250_randls_72.json,http://54.235.29.9/FacialAge/BNav_EC2/DepthDuration/v2_depth_duration_MTurk/v2_DepthDuration_HTML.html#191,191,1364,625,1364,768,9-18-2022,12-52-18,77,depth_duration_stimuli/002630_2014-06-24_14-47-50_094959634447_rgbf000055-resize_1/002630_2014-06-24_14-47-50_094959634447_rgbf000055-resize_1-target.png,250,3.0095,3,4648,251,feet,jsons/v1_VE250_randls_72.json,841863,974395,60,Man
77,394510,DepthScenes,duration_manipulation_targetAtFixation,jsons/v1_VE250_randls_72.json,http://54.235.29.9/FacialAge/BNav_EC2/DepthDuration/v2_depth_duration_MTurk/v2_DepthDuration_HTML.html#191,191,1364,625,1364,768,9-18-2022,12-52-18,78,depth_duration_stimuli/002758_2014-06-22_19-11-20_094959634447_rgbf000128-resize_1/002758_2014-06-22_19-11-20_094959634447_rgbf000128-resize_1-target.png,250,2.555,1,4173,251,feet,jsons/v1_VE250_randls_72.json,841863,974395,60,Man
78,394510,DepthScenes,duration_manipulation_targetAtFixation,jsons/v1_VE250_randls_72.json,http://54.235.29.9/FacialAge/BNav_EC2/DepthDuration/v2_depth_duration_MTurk/v2_DepthDuration_HTML.html#191,191,1364,625,1364,768,9-18-2022,12-52-18,79,depth_duration_stimuli/002118_2014-06-25_20-32-08_260595134347_rgbf000078-resize_1/002118_2014-06-25_20-32-08_260595134347_rgbf000078-resize_1-target.png,250,2.6460000000000004,2,4659,246,feet,jsons/v1_VE250_randls_72.json,841863,974395,60,Man
79,394510,DepthScenes,duration_manipulation_targetAtFixation,jsons/v1_VE250_randls_72.json,http://54.235.29.9/FacialAge/BNav_EC2/DepthDuration/v2_depth_duration_MTurk/v2_DepthDuration_HTML.html#191,191,1364,625,1364,768,9-18-2022,12-52-18,80,depth_duration_stimuli/001516_2014-06-20_16-25-09_260595134347_rgbf000076-resize_2/001516_2014-06-20_16-25-09_260595134347_rgbf000076-resize_2-target.png,250,1.7445,2,2912,302,feet,jsons/v1_VE250_randls_72.json,841863,974395,60,Man
80,394510,DepthScenes,duration_manipulation_targetAtFixation,jsons/v1_VE250_randls_72.json,http://54.235.29.9/FacialAge/BNav_EC2/DepthDuration/v2_depth_duration_MTurk/v2_DepthDuration_HTML.html#191,191,1364,625,1364,768,9-18-2022,12-52-18,81,depth_duration_stimuli/001555_2014-06-20_17-12-10_260595134347_rgbf000065-resize_4/001555_2014-06-20_17-12-10_260595134347_rgbf000065-resize_4-target.png,250,1.633,2,4227,244,feet,jsons/v1_VE250_randls_72.json,841863,974395,60,Man
81,394510,DepthScenes,duration_manipulation_targetAtFixation,jsons/v1_VE250_randls_72.json,http://54.235.29.9/FacialAge/BNav_EC2/DepthDuration/v2_depth_duration_MTurk/v2_DepthDuration_HTML.html#191,191,1364,625,1364,768,9-18-2022,12-52-18,82,depth_duration_stimuli/000103_2014-05-14_22-01-17_260595134347_rgbf000152-resize_5/000103_2014-05-14_22-01-17_260595134347_rgbf000152-resize_5-target.png,250,1.993,2,3129,289,feet,jsons/v1_VE250_randls_72.json,841863,974395,60,Man
82,394510,DepthScenes,duration_manipulation_targetAtFixation,jsons/v1_VE250_randls_72.json,http://54.235.29.9/FacialAge/BNav_EC2/DepthDuration/v2_depth_duration_MTurk/v2_DepthDuration_HTML.html#191,191,1364,625,1364,768,9-18-2022,12-52-18,83,depth_duration_stimuli/001029_2014-06-08_13-17-57_260595134347_rgbf000065-resize_1/001029_2014-06-08_13-17-57_260595134347_rgbf000065-resize_1-target.png,250,3.0835,3,4609,250,feet,jsons/v1_VE250_randls_72.json,841863,974395,60,Man
83,394510,DepthScenes,duration_manipulation_targetAtFixation,jsons/v1_VE250_randls_72.json,http://54.235.29.9/FacialAge/BNav_EC2/DepthDuration/v2_depth_duration_MTurk/v2_DepthDuration_HTML.html#191,191,1364,625,1364,768,9-18-2022,12-52-18,84,depth_duration_stimuli/000677_2014-06-08_23-10-32_260595134347_rgbf000158-resize_6/000677_2014-06-08_23-10-32_260595134347_rgbf000158-resize_6-target.png,250,3.556,2,2908,243,feet,jsons/v1_VE250_randls_72.json,841863,974395,60,Man
84,394510,DepthScenes,duration_manipulation_targetAtFixation,jsons/v1_VE250_randls_72.json,http://54.235.29.9/FacialAge/BNav_EC2/DepthDuration/v2_depth_duration_MTurk/v2_DepthDuration_HTML.html#191,191,1364,625,1364,768,9-18-2022,12-52-18,85,depth_duration_stimuli/003070_2014-06-15_14-58-27_094959634447_rgbf000150-resize_3/003070_2014-06-15_14-58-27_094959634447_rgbf000150-resize_3-target.png,250,2.9415,3,4471,231,feet,jsons/v1_VE250_randls_72.json,841863,974395,60,Man
85,394510,DepthScenes,duration_manipulation_targetAtFixation,jsons/v1_VE250_randls_72.json,http://54.235.29.9/FacialAge/BNav_EC2/DepthDuration/v2_depth_duration_MTurk/v2_DepthDuration_HTML.html#191,191,1364,625,1364,768,9-18-2022,12-52-18,86,depth_duration_stimuli/000943_2014-06-09_19-31-07_260595134347_rgbf000128-resize_1/000943_2014-06-09_19-31-07_260595134347_rgbf000128-resize_1-target.png,250,1.9765,3,3760,247,feet,jsons/v1_VE250_randls_72.json,841863,974395,60,Man
86,394510,DepthScenes,duration_manipulation_targetAtFixation,jsons/v1_VE250_randls_72.json,http://54.235.29.9/FacialAge/BNav_EC2/DepthDuration/v2_depth_duration_MTurk/v2_DepthDuration_HTML.html#191,191,1364,625,1364,768,9-18-2022,12-52-18,87,depth_duration_stimuli/000506_2014-06-08_23-21-00_260595134347_rgbf000070-resize_7/000506_2014-06-08_23-21-00_260595134347_rgbf000070-resize_7-target.png,250,4.0585,3,4350,243,feet,jsons/v1_VE250_randls_72.json,841863,974395,60,Man
87,394510,DepthScenes,duration_manipulation_targetAtFixation,jsons/v1_VE250_randls_72.json,http://54.235.29.9/FacialAge/BNav_EC2/DepthDuration/v2_depth_duration_MTurk/v2_DepthDuration_HTML.html#191,191,1364,625,1364,768,9-18-2022,12-52-18,88,depth_duration_stimuli/003079_2014-06-15_15-18-20_094959634447_rgbf000152-resize_8/003079_2014-06-15_15-18-20_094959634447_rgbf000152-resize_8-target.png,250,2.8775,2,2669,228,feet,jsons/v1_VE250_randls_72.json,841863,974395,60,Man
88,394510,DepthScenes,duration_manipulation_targetAtFixation,jsons/v1_VE250_randls_72.json,http://54.235.29.9/FacialAge/BNav_EC2/DepthDuration/v2_depth_duration_MTurk/v2_DepthDuration_HTML.html#191,191,1364,625,1364,768,9-18-2022,12-52-18,89,depth_duration_stimuli/001158_2014-06-17_15-32-16_260595134347_rgbf000138-resize_2/001158_2014-06-17_15-32-16_260595134347_rgbf000138-resize_2-target.png,250,4.5315,3,4011,257,feet,jsons/v1_VE250_randls_72.json,841863,974395,60,Man
89,394510,DepthScenes,duration_manipulation_targetAtFixation,jsons/v1_VE250_randls_72.json,http://54.235.29.9/FacialAge/BNav_EC2/DepthDuration/v2_depth_duration_MTurk/v2_DepthDuration_HTML.html#191,191,1364,625,1364,768,9-18-2022,12-52-18,90,depth_duration_stimuli/000556_2014-06-09_22-42-56_260595134347_rgbf000214-resize_1/000556_2014-06-09_22-42-56_260595134347_rgbf000214-resize_1-target.png,250,4.8415,3,2609,267,feet,jsons/v1_VE250_randls_72.json,841863,974395,60,Man
90,394510,DepthScenes,duration_manipulation_targetAtFixation,jsons/v1_VE250_randls_72.json,http://54.235.29.9/FacialAge/BNav_EC2/DepthDuration/v2_depth_duration_MTurk/v2_DepthDuration_HTML.html#191,191,1364,625,1364,768,9-18-2022,12-52-18,91,depth_duration_stimuli/002153_2014-06-25_21-27-18_260595134347_rgbf000038-resize_5/002153_2014-06-25_21-27-18_260595134347_rgbf000038-resize_5-target.png,250,2.505,2,6034,228,feet,jsons/v1_VE250_randls_72.json,841863,974395,60,Man
91,394510,DepthScenes,duration_manipulation_targetAtFixation,jsons/v1_VE250_randls_72.json,http://54.235.29.9/FacialAge/BNav_EC2/DepthDuration/v2_depth_duration_MTurk/v2_DepthDuration_HTML.html#191,191,1364,625,1364,768,9-18-2022,12-52-18,92,depth_duration_stimuli/002660_2014-06-13_15-44-18_094959634447_rgbf001878-resize_2/002660_2014-06-13_15-44-18_094959634447_rgbf001878-resize_2-target.png,250,3.576,2,3549,240,feet,jsons/v1_VE250_randls_72.json,841863,974395,60,Man
92,394510,DepthScenes,duration_manipulation_targetAtFixation,jsons/v1_VE250_randls_72.json,http://54.235.29.9/FacialAge/BNav_EC2/DepthDuration/v2_depth_duration_MTurk/v2_DepthDuration_HTML.html#191,191,1364,625,1364,768,9-18-2022,12-52-18,93,depth_duration_stimuli/002905_2014-06-03_18-04-43_094959634447_rgbf000151-resize_2/002905_2014-06-03_18-04-43_094959634447_rgbf000151-resize_2-target.png,250,2.0295,2,23635,226,feet,jsons/v1_VE250_randls_72.json,841863,974395,60,Man
93,394510,DepthScenes,duration_manipulation_targetAtFixation,jsons/v1_VE250_randls_72.json,http://54.235.29.9/FacialAge/BNav_EC2/DepthDuration/v2_depth_duration_MTurk/v2_DepthDuration_HTML.html#191,191,1364,625,1364,768,9-18-2022,12-52-18,94,depth_duration_stimuli/003423_2014-05-21_10-23-26_094959634447_rgbf002665-resize_2/003423_2014-05-21_10-23-26_094959634447_rgbf002665-resize_2-target.png,250,3.2575,2,74151,309,feet,jsons/v1_VE250_randls_72.json,841863,974395,60,Man
94,394510,DepthScenes,duration_manipulation_targetAtFixation,jsons/v1_VE250_randls_72.json,http://54.235.29.9/FacialAge/BNav_EC2/DepthDuration/v2_depth_duration_MTurk/v2_DepthDuration_HTML.html#191,191,1364,625,1364,768,9-18-2022,12-52-18,95,depth_duration_stimuli/000736_2014-06-08_18-24-15_260595134347_rgbf000206-resize_3/000736_2014-06-08_18-24-15_260595134347_rgbf000206-resize_3-target.png,250,3.515,1,4067,243,feet,jsons/v1_VE250_randls_72.json,841863,974395,60,Man
95,394510,DepthScenes,duration_manipulation_targetAtFixation,jsons/v1_VE250_randls_72.json,http://54.235.29.9/FacialAge/BNav_EC2/DepthDuration/v2_depth_duration_MTurk/v2_DepthDuration_HTML.html#191,191,1364,625,1364,768,9-18-2022,12-52-18,96,depth_duration_stimuli/000137_2014-05-20_17-04-49_260595134347_rgbf000120-resize_1/000137_2014-05-20_17-04-49_260595134347_rgbf000120-resize_1-target.png,250,3.786,2,3142,230,feet,jsons/v1_VE250_randls_72.json,841863,974395,60,Man
96,394510,DepthScenes,duration_manipulation_targetAtFixation,jsons/v1_VE250_randls_72.json,http://54.235.29.9/FacialAge/BNav_EC2/DepthDuration/v2_depth_duration_MTurk/v2_DepthDuration_HTML.html#191,191,1364,625,1364,768,9-18-2022,12-52-18,97,depth_duration_stimuli/002043_2014-06-24_20-29-38_260595134347_rgbf000039-resize_4/002043_2014-06-24_20-29-38_260595134347_rgbf000039-resize_4-target.png,250,2.8435,3,5290,250,feet,jsons/v1_VE250_randls_72.json,841863,974395,60,Man
97,394510,DepthScenes,duration_manipulation_targetAtFixation,jsons/v1_VE250_randls_72.json,http://54.235.29.9/FacialAge/BNav_EC2/DepthDuration/v2_depth_duration_MTurk/v2_DepthDuration_HTML.html#191,191,1364,625,1364,768,9-18-2022,12-52-18,98,depth_duration_stimuli/003048_2014-06-15_13-49-43_094959634447_rgbf000150-resize_1/003048_2014-06-15_13-49-43_094959634447_rgbf000150-resize_1-target.png,250,4.0035,2,3020,251,feet,jsons/v1_VE250_randls_72.json,841863,974395,60,Man
98,394510,DepthScenes,duration_manipulation_targetAtFixation,jsons/v1_VE250_randls_72.json,http://54.235.29.9/FacialAge/BNav_EC2/DepthDuration/v2_depth_duration_MTurk/v2_DepthDuration_HTML.html#191,191,1364,625,1364,768,9-18-2022,12-52-18,99,depth_duration_stimuli/001540_2014-06-20_17-01-05_260595134347_rgbf000086-resize_2/001540_2014-06-20_17-01-05_260595134347_rgbf000086-resize-original.jpg,250,1.459,0,4604,250,feet,jsons/v1_VE250_randls_72.json,841863,974395,60,Man
99,394510,DepthScenes,duration_manipulation_targetAtFixation,jsons/v1_VE250_randls_72.json,http://54.235.29.9/FacialAge/BNav_EC2/DepthDuration/v2_depth_duration_MTurk/v2_DepthDuration_HTML.html#191,191,1364,625,1364,768,9-18-2022,12-52-18,100,depth_duration_stimuli/002600_2014-06-24_14-27-04_094959634447_rgbf000074-resize_2/002600_2014-06-24_14-27-04_094959634447_rgbf000074-resize_2-target.png,250,2.7575,2,4566,252,feet,jsons/v1_VE250_randls_72.json,841863,974395,60,Man
100,394510,DepthScenes,duration_manipulation_targetAtFixation,jsons/v1_VE250_randls_72.json,http://54.235.29.9/FacialAge/BNav_EC2/DepthDuration/v2_depth_duration_MTurk/v2_DepthDuration_HTML.html#191,191,1364,625,1364,768,9-18-2022,12-52-18,101,depth_duration_stimuli/003228_2014-05-14_13-42-35_094959634447_rgbf000101-resize_1/003228_2014-05-14_13-42-35_094959634447_rgbf000101-resize_1-target.png,250,1.9680000000000002,1,3046,256,feet,jsons/v1_VE250_randls_72.json,841863,974395,60,Man
101,394510,DepthScenes,duration_manipulation_targetAtFixation,jsons/v1_VE250_randls_72.json,http://54.235.29.9/FacialAge/BNav_EC2/DepthDuration/v2_depth_duration_MTurk/v2_DepthDuration_HTML.html#191,191,1364,625,1364,768,9-18-2022,12-52-18,102,depth_duration_stimuli/002445_2014-06-28_20-32-16_260595134347_rgbf000029-resize_4/002445_2014-06-28_20-32-16_260595134347_rgbf000029-resize_4-target.png,250,2.5315,2,4416,249,feet,jsons/v1_VE250_randls_72.json,841863,974395,60,Man
102,394510,DepthScenes,duration_manipulation_targetAtFixation,jsons/v1_VE250_randls_72.json,http://54.235.29.9/FacialAge/BNav_EC2/DepthDuration/v2_depth_duration_MTurk/v2_DepthDuration_HTML.html#191,191,1364,625,1364,768,9-18-2022,12-52-18,103,depth_duration_stimuli/000780_2014-06-08_22-28-29_260595134347_rgbf000126-resize_1/000780_2014-06-08_22-28-29_260595134347_rgbf000126-resize_1-target.png,250,3.3825,2,2588,215,feet,jsons/v1_VE250_randls_72.json,841863,974395,60,Man
103,394510,DepthScenes,duration_manipulation_targetAtFixation,jsons/v1_VE250_randls_72.json,http://54.235.29.9/FacialAge/BNav_EC2/DepthDuration/v2_depth_duration_MTurk/v2_DepthDuration_HTML.html#191,191,1364,625,1364,768,9-18-2022,12-52-18,104,depth_duration_stimuli/002039_2014-06-24_20-22-38_260595134347_rgbf000084-resize_1/002039_2014-06-24_20-22-38_260595134347_rgbf000084-resize_1-target.png,250,4.408,3,5267,272,feet,jsons/v1_VE250_randls_72.json,841863,974395,60,Man
104,394510,DepthScenes,duration_manipulation_targetAtFixation,jsons/v1_VE250_randls_72.json,http://54.235.29.9/FacialAge/BNav_EC2/DepthDuration/v2_depth_duration_MTurk/v2_DepthDuration_HTML.html#191,191,1364,625,1364,768,9-18-2022,12-52-18,105,depth_duration_stimuli/002103_2014-06-25_20-00-40_260595134347_rgbf000049-resize_0/002103_2014-06-25_20-00-40_260595134347_rgbf000049-resize_0-target.png,250,4.105,3,3591,244,feet,jsons/v1_VE250_randls_72.json,841863,974395,60,Man
105,394510,DepthScenes,duration_manipulation_targetAtFixation,jsons/v1_VE250_randls_72.json,http://54.235.29.9/FacialAge/BNav_EC2/DepthDuration/v2_depth_duration_MTurk/v2_DepthDuration_HTML.html#191,191,1364,625,1364,768,9-18-2022,12-52-18,106,depth_duration_stimuli/002788_2014-06-22_19-36-03_094959634447_rgbf000088-resize_2/002788_2014-06-22_19-36-03_094959634447_rgbf000088-resize_2-target.png,250,1.6465,2,3622,251,feet,jsons/v1_VE250_randls_72.json,841863,974395,60,Man
106,394510,DepthScenes,duration_manipulation_targetAtFixation,jsons/v1_VE250_randls_72.json,http://54.235.29.9/FacialAge/BNav_EC2/DepthDuration/v2_depth_duration_MTurk/v2_DepthDuration_HTML.html#191,191,1364,625,1364,768,9-18-2022,12-52-18,107,depth_duration_stimuli/000749_2014-06-08_21-55-06_260595134347_rgbf000070-resize_2/000749_2014-06-08_21-55-06_260595134347_rgbf000070-resize_2-target.png,250,2.331,1,2411,262,feet,jsons/v1_VE250_randls_72.json,841863,974395,60,Man
107,394510,DepthScenes,duration_manipulation_targetAtFixation,jsons/v1_VE250_randls_72.json,http://54.235.29.9/FacialAge/BNav_EC2/DepthDuration/v2_depth_duration_MTurk/v2_DepthDuration_HTML.html#191,191,1364,625,1364,768,9-18-2022,12-52-18,108,depth_duration_stimuli/000692_2014-06-08_13-09-42_260595134347_rgbf000199-resize_2/000692_2014-06-08_13-09-42_260595134347_rgbf000199-resize_2-target.png,250,3.661,3,4222,250,feet,jsons/v1_VE250_randls_72.json,841863,974395,60,Man
108,394510,DepthScenes,duration_manipulation_targetAtFixation,jsons/v1_VE250_randls_72.json,http://54.235.29.9/FacialAge/BNav_EC2/DepthDuration/v2_depth_duration_MTurk/v2_DepthDuration_HTML.html#191,191,1364,625,1364,768,9-18-2022,12-52-18,109,depth_duration_stimuli/001094_2014-06-15_17-36-00_260595134347_rgbf000205-resize_0/001094_2014-06-15_17-36-00_260595134347_rgbf000205-resize_0-target.png,250,4.2175,1,2998,248,feet,jsons/v1_VE250_randls_72.json,841863,974395,60,Man
109,394510,DepthScenes,duration_manipulation_targetAtFixation,jsons/v1_VE250_randls_72.json,http://54.235.29.9/FacialAge/BNav_EC2/DepthDuration/v2_depth_duration_MTurk/v2_DepthDuration_HTML.html#191,191,1364,625,1364,768,9-18-2022,12-52-18,110,depth_duration_stimuli/002509_2014-06-24_13-19-22_094959634447_rgbf000077-resize_0/002509_2014-06-24_13-19-22_094959634447_rgbf000077-resize_0-target.png,250,1.3065,1,3833,264,feet,jsons/v1_VE250_randls_72.json,841863,974395,60,Man
110,394510,DepthScenes,duration_manipulation_targetAtFixation,jsons/v1_VE250_randls_72.json,http://54.235.29.9/FacialAge/BNav_EC2/DepthDuration/v2_depth_duration_MTurk/v2_DepthDuration_HTML.html#191,191,1364,625,1364,768,9-18-2022,12-52-18,111,depth_duration_stimuli/003338_2014-05-20_11-01-23_094959634447_rgbf000051-resize_6/003338_2014-05-20_11-01-23_094959634447_rgbf000051-resize_6-target.png,250,1.693,2,2340,246,feet,jsons/v1_VE250_randls_72.json,841863,974395,60,Man
111,394510,DepthScenes,duration_manipulation_targetAtFixation,jsons/v1_VE250_randls_72.json,http://54.235.29.9/FacialAge/BNav_EC2/DepthDuration/v2_depth_duration_MTurk/v2_DepthDuration_HTML.html#191,191,1364,625,1364,768,9-18-2022,12-52-18,112,depth_duration_stimuli/000906_2014-06-08_13-35-43_260595134347_rgbf000155-resize_1/000906_2014-06-08_13-35-43_260595134347_rgbf000155-resize_1-target.png,250,2.8489999999999998,3,4105,275,feet,jsons/v1_VE250_randls_72.json,841863,974395,60,Man
112,394510,DepthScenes,duration_manipulation_targetAtFixation,jsons/v1_VE250_randls_72.json,http://54.235.29.9/FacialAge/BNav_EC2/DepthDuration/v2_depth_duration_MTurk/v2_DepthDuration_HTML.html#191,191,1364,625,1364,768,9-18-2022,12-52-18,113,depth_duration_stimuli/002805_2014-06-22_19-54-03_094959634447_rgbf000079-resize_1/002805_2014-06-22_19-54-03_094959634447_rgbf000079-resize_1-target.png,250,3.1439999999999997,2,2851,251,feet,jsons/v1_VE250_randls_72.json,841863,974395,60,Man
113,394510,DepthScenes,duration_manipulation_targetAtFixation,jsons/v1_VE250_randls_72.json,http://54.235.29.9/FacialAge/BNav_EC2/DepthDuration/v2_depth_duration_MTurk/v2_DepthDuration_HTML.html#191,191,1364,625,1364,768,9-18-2022,12-52-18,114,depth_duration_stimuli/001244_2014-06-17_16-47-45_260595134347_rgbf000030-resize_4/001244_2014-06-17_16-47-45_260595134347_rgbf000030-resize_4-target.png,250,2.0425,3,4804,258,feet,jsons/v1_VE250_randls_72.json,841863,974395,60,Man
114,394510,DepthScenes,duration_manipulation_targetAtFixation,jsons/v1_VE250_randls_72.json,http://54.235.29.9/FacialAge/BNav_EC2/DepthDuration/v2_depth_duration_MTurk/v2_DepthDuration_HTML.html#191,191,1364,625,1364,768,9-18-2022,12-52-18,115,depth_duration_stimuli/003495_2014-05-21_16-01-51_094959634447_rgbf000100-resize_3/003495_2014-05-21_16-01-51_094959634447_rgbf000100-resize_3-target.png,250,1.6255,1,2549,243,feet,jsons/v1_VE250_randls_72.json,841863,974395,60,Man
115,394510,DepthScenes,duration_manipulation_targetAtFixation,jsons/v1_VE250_randls_72.json,http://54.235.29.9/FacialAge/BNav_EC2/DepthDuration/v2_depth_duration_MTurk/v2_DepthDuration_HTML.html#191,191,1364,625,1364,768,9-18-2022,12-52-18,116,depth_duration_stimuli/001170_2014-06-17_15-43-44_260595134347_rgbf000096-resize_6/001170_2014-06-17_15-43-44_260595134347_rgbf000096-resize-original.jpg,250,1.1909999999999998,0,4478,410,feet,jsons/v1_VE250_randls_72.json,841863,974395,60,Man
116,394510,DepthScenes,duration_manipulation_targetAtFixation,jsons/v1_VE250_randls_72.json,http://54.235.29.9/FacialAge/BNav_EC2/DepthDuration/v2_depth_duration_MTurk/v2_DepthDuration_HTML.html#191,191,1364,625,1364,768,9-18-2022,12-52-18,117,depth_duration_stimuli/003534_2014-05-22_15-06-10_094959634447_rgbf000102-resize_4/003534_2014-05-22_15-06-10_094959634447_rgbf000102-resize_4-target.png,250,1.426,1,4812,246,feet,jsons/v1_VE250_randls_72.json,841863,974395,60,Man
117,394510,DepthScenes,duration_manipulation_targetAtFixation,jsons/v1_VE250_randls_72.json,http://54.235.29.9/FacialAge/BNav_EC2/DepthDuration/v2_depth_duration_MTurk/v2_DepthDuration_HTML.html#191,191,1364,625,1364,768,9-18-2022,12-52-18,118,depth_duration_stimuli/002637_2014-06-24_14-51-13_094959634447_rgbf000066-resize_4/002637_2014-06-24_14-51-13_094959634447_rgbf000066-resize_4-target.png,250,1.9955,2,2560,255,feet,jsons/v1_VE250_randls_72.json,841863,974395,60,Man
118,394510,DepthScenes,duration_manipulation_targetAtFixation,jsons/v1_VE250_randls_72.json,http://54.235.29.9/FacialAge/BNav_EC2/DepthDuration/v2_depth_duration_MTurk/v2_DepthDuration_HTML.html#191,191,1364,625,1364,768,9-18-2022,12-52-18,119,depth_duration_stimuli/002279_2014-06-28_18-55-32_260595134347_rgbf000040-resize_5/002279_2014-06-28_18-55-32_260595134347_rgbf000040-resize_5-target.png,250,1.5043333333333,2,4239,157,feet,jsons/v1_VE250_randls_72.json,841863,974395,60,Man
119,394510,DepthScenes,duration_manipulation_targetAtFixation,jsons/v1_VE250_randls_72.json,http://54.235.29.9/FacialAge/BNav_EC2/DepthDuration/v2_depth_duration_MTurk/v2_DepthDuration_HTML.html#191,191,1364,625,1364,768,9-18-2022,12-52-18,120,depth_duration_stimuli/000635_2014-06-08_16-38-42_260595134347_rgbf000106-resize_1/000635_2014-06-08_16-38-42_260595134347_rgbf000106-resize_1-target.png,250,2.074,2,2465,277,feet,jsons/v1_VE250_randls_72.json,841863,974395,60,Man
120,394510,DepthScenes,duration_manipulation_targetAtFixation,jsons/v1_VE250_randls_72.json,http://54.235.29.9/FacialAge/BNav_EC2/DepthDuration/v2_depth_duration_MTurk/v2_DepthDuration_HTML.html#191,191,1364,625,1364,768,9-18-2022,12-52-18,121,depth_duration_stimuli/002272_2014-06-28_18-53-56_260595134347_rgbf000067-resize_2/002272_2014-06-28_18-53-56_260595134347_rgbf000067-resize_2-target.png,250,1.138,2,4439,249,feet,jsons/v1_VE250_randls_72.json,841863,974395,60,Man
121,394510,DepthScenes,duration_manipulation_targetAtFixation,jsons/v1_VE250_randls_72.json,http://54.235.29.9/FacialAge/BNav_EC2/DepthDuration/v2_depth_duration_MTurk/v2_DepthDuration_HTML.html#191,191,1364,625,1364,768,9-18-2022,12-52-18,122,depth_duration_stimuli/001571_2014-06-20_17-21-32_260595134347_rgbf000089-resize_1/001571_2014-06-20_17-21-32_260595134347_rgbf000089-resize_1-target.png,250,1.86,1,2449,377,feet,jsons/v1_VE250_randls_72.json,841863,974395,60,Man
122,394510,DepthScenes,duration_manipulation_targetAtFixation,jsons/v1_VE250_randls_72.json,http://54.235.29.9/FacialAge/BNav_EC2/DepthDuration/v2_depth_duration_MTurk/v2_DepthDuration_HTML.html#191,191,1364,625,1364,768,9-18-2022,12-52-18,123,depth_duration_stimuli/001011_2014-06-08_23-18-54_260595134347_rgbf000044-resize_4/001011_2014-06-08_23-18-54_260595134347_rgbf000044-resize_4-target.png,250,2.4730000000000003,3,6211,240,feet,jsons/v1_VE250_randls_72.json,841863,974395,60,Man
123,394510,DepthScenes,duration_manipulation_targetAtFixation,jsons/v1_VE250_randls_72.json,http://54.235.29.9/FacialAge/BNav_EC2/DepthDuration/v2_depth_duration_MTurk/v2_DepthDuration_HTML.html#191,191,1364,625,1364,768,9-18-2022,12-52-18,124,depth_duration_stimuli/002875_2014-06-01_15-19-00_094959634447_rgbf000151-resize_1/002875_2014-06-01_15-19-00_094959634447_rgbf000151-resize_1-target.png,250,1.9675,3,3669,250,feet,jsons/v1_VE250_randls_72.json,841863,974395,60,Man
124,394510,DepthScenes,duration_manipulation_targetAtFixation,jsons/v1_VE250_randls_72.json,http://54.235.29.9/FacialAge/BNav_EC2/DepthDuration/v2_depth_duration_MTurk/v2_DepthDuration_HTML.html#191,191,1364,625,1364,768,9-18-2022,12-52-18,125,depth_duration_stimuli/000773_2014-06-08_22-24-54_260595134347_rgbf000093-resize_1/000773_2014-06-08_22-24-54_260595134347_rgbf000093-resize_1-target.png,250,4.973,3,4758,251,feet,jsons/v1_VE250_randls_72.json,841863,974395,60,Man
125,394510,DepthScenes,duration_manipulation_targetAtFixation,jsons/v1_VE250_randls_72.json,http://54.235.29.9/FacialAge/BNav_EC2/DepthDuration/v2_depth_duration_MTurk/v2_DepthDuration_HTML.html#191,191,1364,625,1364,768,9-18-2022,12-52-18,126,depth_duration_stimuli/002414_2014-06-28_20-24-58_260595134347_rgbf000067-resize_4/002414_2014-06-28_20-24-58_260595134347_rgbf000067-resize_4-target.png,250,4.363,3,3215,247,feet,jsons/v1_VE250_randls_72.json,841863,974395,60,Man
126,394510,DepthScenes,duration_manipulation_targetAtFixation,jsons/v1_VE250_randls_72.json,http://54.235.29.9/FacialAge/BNav_EC2/DepthDuration/v2_depth_duration_MTurk/v2_DepthDuration_HTML.html#191,191,1364,625,1364,768,9-18-2022,12-52-18,127,depth_duration_stimuli/001055_2014-06-08_18-45-35_260595134347_rgbf000111-resize_4/001055_2014-06-08_18-45-35_260595134347_rgbf000111-resize_4-target.png,250,2.4290000000000003,3,4485,248,feet,jsons/v1_VE250_randls_72.json,841863,974395,60,Man
127,394510,DepthScenes,duration_manipulation_targetAtFixation,jsons/v1_VE250_randls_72.json,http://54.235.29.9/FacialAge/BNav_EC2/DepthDuration/v2_depth_duration_MTurk/v2_DepthDuration_HTML.html#191,191,1364,625,1364,768,9-18-2022,12-52-18,128,depth_duration_stimuli/000549_2014-06-08_22-10-24_260595134347_rgbf000247-resize_3/000549_2014-06-08_22-10-24_260595134347_rgbf000247-resize_3-target.png,250,1.841,3,3675,250,feet,jsons/v1_VE250_randls_72.json,841863,974395,60,Man
128,394510,DepthScenes,duration_manipulation_targetAtFixation,jsons/v1_VE250_randls_72.json,http://54.235.29.9/FacialAge/BNav_EC2/DepthDuration/v2_depth_duration_MTurk/v2_DepthDuration_HTML.html#191,191,1364,625,1364,768,9-18-2022,12-52-18,129,depth_duration_stimuli/000917_2014-06-09_22-45-29_260595134347_rgbf000149-resize_3/000917_2014-06-09_22-45-29_260595134347_rgbf000149-resize_3-target.png,250,4.1865,3,4160,210,feet,jsons/v1_VE250_randls_72.json,841863,974395,60,Man
129,394510,DepthScenes,duration_manipulation_targetAtFixation,jsons/v1_VE250_randls_72.json,http://54.235.29.9/FacialAge/BNav_EC2/DepthDuration/v2_depth_duration_MTurk/v2_DepthDuration_HTML.html#191,191,1364,625,1364,768,9-18-2022,12-52-18,130,depth_duration_stimuli/002323_2014-06-28_20-01-54_260595134347_rgbf000051-resize_4/002323_2014-06-28_20-01-54_260595134347_rgbf000051-resize_4-target.png,250,3.7310000000000003,2,3424,249,feet,jsons/v1_VE250_randls_72.json,841863,974395,60,Man
130,394510,DepthScenes,duration_manipulation_targetAtFixation,jsons/v1_VE250_randls_72.json,http://54.235.29.9/FacialAge/BNav_EC2/DepthDuration/v2_depth_duration_MTurk/v2_DepthDuration_HTML.html#191,191,1364,625,1364,768,9-18-2022,12-52-18,131,depth_duration_stimuli/002057_2014-06-24_21-00-13_260595134347_rgbf000120-resize_1/002057_2014-06-24_21-00-13_260595134347_rgbf000120-resize_1-target.png,250,2.967,2,5730,249,feet,jsons/v1_VE250_randls_72.json,841863,974395,60,Man
131,394510,DepthScenes,duration_manipulation_targetAtFixation,jsons/v1_VE250_randls_72.json,http://54.235.29.9/FacialAge/BNav_EC2/DepthDuration/v2_depth_duration_MTurk/v2_DepthDuration_HTML.html#191,191,1364,625,1364,768,9-18-2022,12-52-18,132,depth_duration_stimuli/000709_2014-06-08_13-51-55_260595134347_rgbf000068-resize_3/000709_2014-06-08_13-51-55_260595134347_rgbf000068-resize_3-target.png,250,1.8030000000000002,3,3873,250,feet,jsons/v1_VE250_randls_72.json,841863,974395,60,Man
132,394510,DepthScenes,duration_manipulation_targetAtFixation,jsons/v1_VE250_randls_72.json,http://54.235.29.9/FacialAge/BNav_EC2/DepthDuration/v2_depth_duration_MTurk/v2_DepthDuration_HTML.html#191,191,1364,625,1364,768,9-18-2022,12-52-18,133,depth_duration_stimuli/002989_2014-06-15_12-25-03_094959634447_rgbf000150-resize_3/002989_2014-06-15_12-25-03_094959634447_rgbf000150-resize_3-target.png,250,4.1975,3,4427,249,feet,jsons/v1_VE250_randls_72.json,841863,974395,60,Man
133,394510,DepthScenes,duration_manipulation_targetAtFixation,jsons/v1_VE250_randls_72.json,http://54.235.29.9/FacialAge/BNav_EC2/DepthDuration/v2_depth_duration_MTurk/v2_DepthDuration_HTML.html#191,191,1364,625,1364,768,9-18-2022,12-52-18,134,depth_duration_stimuli/000866_2014-06-09_20-45-42_260595134347_rgbf000139-resize_1/000866_2014-06-09_20-45-42_260595134347_rgbf000139-resize_1-target.png,250,3.2155,3,2415,265,feet,jsons/v1_VE250_randls_72.json,841863,974395,60,Man
134,394510,DepthScenes,duration_manipulation_targetAtFixation,jsons/v1_VE250_randls_72.json,http://54.235.29.9/FacialAge/BNav_EC2/DepthDuration/v2_depth_duration_MTurk/v2_DepthDuration_HTML.html#191,191,1364,625,1364,768,9-18-2022,12-52-18,135,depth_duration_stimuli/002072_2014-06-24_21-48-06_260595134347_rgbf000115-resize_0/002072_2014-06-24_21-48-06_260595134347_rgbf000115-resize-original.jpg,250,4.702,0,4478,261,feet,jsons/v1_VE250_randls_72.json,841863,974395,60,Man
135,394510,DepthScenes,duration_manipulation_targetAtFixation,jsons/v1_VE250_randls_72.json,http://54.235.29.9/FacialAge/BNav_EC2/DepthDuration/v2_depth_duration_MTurk/v2_DepthDuration_HTML.html#191,191,1364,625,1364,768,9-18-2022,12-52-18,136,depth_duration_stimuli/001133_2014-06-17_14-49-16_260595134347_rgbf000100-resize_0/001133_2014-06-17_14-49-16_260595134347_rgbf000100-resize_0-target.png,250,4.2115,2,5151,250,feet,jsons/v1_VE250_randls_72.json,841863,974395,60,Man
136,394510,DepthScenes,duration_manipulation_targetAtFixation,jsons/v1_VE250_randls_72.json,http://54.235.29.9/FacialAge/BNav_EC2/DepthDuration/v2_depth_duration_MTurk/v2_DepthDuration_HTML.html#191,191,1364,625,1364,768,9-18-2022,12-52-18,137,depth_duration_stimuli/001132_2014-06-17_14-48-54_260595134347_rgbf000100-resize_2/001132_2014-06-17_14-48-54_260595134347_rgbf000100-resize_2-target.png,250,3.753,3,3220,246,feet,jsons/v1_VE250_randls_72.json,841863,974395,60,Man
137,394510,DepthScenes,duration_manipulation_targetAtFixation,jsons/v1_VE250_randls_72.json,http://54.235.29.9/FacialAge/BNav_EC2/DepthDuration/v2_depth_duration_MTurk/v2_DepthDuration_HTML.html#191,191,1364,625,1364,768,9-18-2022,12-52-18,138,depth_duration_stimuli/000469_2014-06-09_19-42-10_260595134347_rgbf000081-resize_1/000469_2014-06-09_19-42-10_260595134347_rgbf000081-resize_1-target.png,250,1.652,2,4242,254,feet,jsons/v1_VE250_randls_72.json,841863,974395,60,Man
138,394510,DepthScenes,duration_manipulation_targetAtFixation,jsons/v1_VE250_randls_72.json,http://54.235.29.9/FacialAge/BNav_EC2/DepthDuration/v2_depth_duration_MTurk/v2_DepthDuration_HTML.html#191,191,1364,625,1364,768,9-18-2022,12-52-18,139,depth_duration_stimuli/000483_2014-06-09_20-41-45_260595134347_rgbf000116-resize_4/000483_2014-06-09_20-41-45_260595134347_rgbf000116-resize_4-target.png,250,1.337,2,2917,260,feet,jsons/v1_VE250_randls_72.json,841863,974395,60,Man
139,394510,DepthScenes,duration_manipulation_targetAtFixation,jsons/v1_VE250_randls_72.json,http://54.235.29.9/FacialAge/BNav_EC2/DepthDuration/v2_depth_duration_MTurk/v2_DepthDuration_HTML.html#191,191,1364,625,1364,768,9-18-2022,12-52-18,140,depth_duration_stimuli/001417_2014-06-19_16-25-36_260595134347_rgbf000115-resize_5/001417_2014-06-19_16-25-36_260595134347_rgbf000115-resize_5-target.png,250,4.6255,3,4568,250,feet,jsons/v1_VE250_randls_72.json,841863,974395,60,Man
140,394510,DepthScenes,duration_manipulation_targetAtFixation,jsons/v1_VE250_randls_72.json,http://54.235.29.9/FacialAge/BNav_EC2/DepthDuration/v2_depth_duration_MTurk/v2_DepthDuration_HTML.html#191,191,1364,625,1364,768,9-18-2022,12-52-18,141,depth_duration_stimuli/003081_2014-06-15_15-19-16_094959634447_rgbf000150-resize_1/003081_2014-06-15_15-19-16_094959634447_rgbf000150-resize_1-target.png,250,3.9125,3,3426,241,feet,jsons/v1_VE250_randls_72.json,841863,974395,60,Man
141,394510,DepthScenes,duration_manipulation_targetAtFixation,jsons/v1_VE250_randls_72.json,http://54.235.29.9/FacialAge/BNav_EC2/DepthDuration/v2_depth_duration_MTurk/v2_DepthDuration_HTML.html#191,191,1364,625,1364,768,9-18-2022,12-52-18,142,depth_duration_stimuli/002375_2014-06-28_20-13-44_260595134347_rgbf000032-resize_1/002375_2014-06-28_20-13-44_260595134347_rgbf000032-resize_1-target.png,250,4.0175,3,4703,303,feet,jsons/v1_VE250_randls_72.json,841863,974395,60,Man
142,394510,DepthScenes,duration_manipulation_targetAtFixation,jsons/v1_VE250_randls_72.json,http://54.235.29.9/FacialAge/BNav_EC2/DepthDuration/v2_depth_duration_MTurk/v2_DepthDuration_HTML.html#191,191,1364,625,1364,768,9-18-2022,12-52-18,143,depth_duration_stimuli/002657_2014-06-13_15-29-54_094959634447_rgbf000150-resize_1/002657_2014-06-13_15-29-54_094959634447_rgbf000150-resize_1-target.png,250,4.919,1,3357,248,feet,jsons/v1_VE250_randls_72.json,841863,974395,60,Man
143,394510,DepthScenes,duration_manipulation_targetAtFixation,jsons/v1_VE250_randls_72.json,http://54.235.29.9/FacialAge/BNav_EC2/DepthDuration/v2_depth_duration_MTurk/v2_DepthDuration_HTML.html#191,191,1364,625,1364,768,9-18-2022,12-52-18,144,depth_duration_stimuli/000810_2014-06-08_17-20-01_260595134347_rgbf000105-resize_0/000810_2014-06-08_17-20-01_260595134347_rgbf000105-resize_0-target.png,250,1.4865,2,4918,263,feet,jsons/v1_VE250_randls_72.json,841863,974395,60,Man
144,394510,DepthScenes,duration_manipulation_targetAtFixation,jsons/v1_VE250_randls_72.json,http://54.235.29.9/FacialAge/BNav_EC2/DepthDuration/v2_depth_duration_MTurk/v2_DepthDuration_HTML.html#191,191,1364,625,1364,768,9-18-2022,12-52-18,145,depth_duration_stimuli/001214_2014-06-17_16-13-55_260595134347_rgbf000111-resize_0/001214_2014-06-17_16-13-55_260595134347_rgbf000111-resize_0-target.png,250,2.6505,2,2897,247,feet,jsons/v1_VE250_randls_72.json,841863,974395,60,Man
145,394510,DepthScenes,duration_manipulation_targetAtFixation,jsons/v1_VE250_randls_72.json,http://54.235.29.9/FacialAge/BNav_EC2/DepthDuration/v2_depth_duration_MTurk/v2_DepthDuration_HTML.html#191,191,1364,625,1364,768,9-18-2022,12-52-18,146,depth_duration_stimuli/001498_2014-06-19_17-45-14_260595134347_rgbf000129-resize_4/001498_2014-06-19_17-45-14_260595134347_rgbf000129-resize-original.jpg,250,1.4075,0,6334,250,feet,jsons/v1_VE250_randls_72.json,841863,974395,60,Man
146,394510,DepthScenes,duration_manipulation_targetAtFixation,jsons/v1_VE250_randls_72.json,http://54.235.29.9/FacialAge/BNav_EC2/DepthDuration/v2_depth_duration_MTurk/v2_DepthDuration_HTML.html#191,191,1364,625,1364,768,9-18-2022,12-52-18,147,depth_duration_stimuli/002570_2014-06-24_13-59-54_094959634447_rgbf000059-resize_0/002570_2014-06-24_13-59-54_094959634447_rgbf000059-resize_0-target.png,250,4.037,2,4727,203,feet,jsons/v1_VE250_randls_72.json,841863,974395,60,Man
147,394510,DepthScenes,duration_manipulation_targetAtFixation,jsons/v1_VE250_randls_72.json,http://54.235.29.9/FacialAge/BNav_EC2/DepthDuration/v2_depth_duration_MTurk/v2_DepthDuration_HTML.html#191,191,1364,625,1364,768,9-18-2022,12-52-18,148,depth_duration_stimuli/002467_2014-06-28_20-38-07_260595134347_rgbf000026-resize_2/002467_2014-06-28_20-38-07_260595134347_rgbf000026-resize_2-target.png,250,4.742,3,3680,261,feet,jsons/v1_VE250_randls_72.json,841863,974395,60,Man
148,394510,DepthScenes,duration_manipulation_targetAtFixation,jsons/v1_VE250_randls_72.json,http://54.235.29.9/FacialAge/BNav_EC2/DepthDuration/v2_depth_duration_MTurk/v2_DepthDuration_HTML.html#191,191,1364,625,1364,768,9-18-2022,12-52-18,149,depth_duration_stimuli/001066_2014-06-08_22-03-20_260595134347_rgbf000066-resize_4/001066_2014-06-08_22-03-20_260595134347_rgbf000066-resize_4-target.png,250,4.2330000000000005,3,6599,251,feet,jsons/v1_VE250_randls_72.json,841863,974395,60,Man
149,394510,DepthScenes,duration_manipulation_targetAtFixation,jsons/v1_VE250_randls_72.json,http://54.235.29.9/FacialAge/BNav_EC2/DepthDuration/v2_depth_duration_MTurk/v2_DepthDuration_HTML.html#191,191,1364,625,1364,768,9-18-2022,12-52-18,150,depth_duration_stimuli/000742_2014-06-08_18-48-09_260595134347_rgbf000164-resize_4/000742_2014-06-08_18-48-09_260595134347_rgbf000164-resize_4-target.png,250,4.632,3,3113,244,feet,jsons/v1_VE250_randls_72.json,841863,974395,60,Man
150,394510,DepthScenes,duration_manipulation_targetAtFixation,jsons/v1_VE250_randls_72.json,http://54.235.29.9/FacialAge/BNav_EC2/DepthDuration/v2_depth_duration_MTurk/v2_DepthDuration_HTML.html#191,191,1364,625,1364,768,9-18-2022,12-52-18,151,depth_duration_stimuli/000436_2014-06-09_22-25-11_260595134347_rgbf000137-resize_1/000436_2014-06-09_22-25-11_260595134347_rgbf000137-resize_1-target.png,250,4.0705,2,5165,249,feet,jsons/v1_VE250_randls_72.json,841863,974395,60,Man
151,394510,DepthScenes,duration_manipulation_targetAtFixation,jsons/v1_VE250_randls_72.json,http://54.235.29.9/FacialAge/BNav_EC2/DepthDuration/v2_depth_duration_MTurk/v2_DepthDuration_HTML.html#191,191,1364,625,1364,768,9-18-2022,12-52-18,152,depth_duration_stimuli/002444_2014-06-28_20-32-08_260595134347_rgbf000027-resize_0/002444_2014-06-28_20-32-08_260595134347_rgbf000027-resize_0-target.png,250,4.388999999999999,3,4836,252,feet,jsons/v1_VE250_randls_72.json,841863,974395,60,Man
152,394510,DepthScenes,duration_manipulation_targetAtFixation,jsons/v1_VE250_randls_72.json,http://54.235.29.9/FacialAge/BNav_EC2/DepthDuration/v2_depth_duration_MTurk/v2_DepthDuration_HTML.html#191,191,1364,625,1364,768,9-18-2022,12-52-18,153,depth_duration_stimuli/000447_2014-06-08_16-15-46_260595134347_rgbf000130-resize_1/000447_2014-06-08_16-15-46_260595134347_rgbf000130-resize_1-target.png,250,4.479,2,5471,252,feet,jsons/v1_VE250_randls_72.json,841863,974395,60,Man
153,394510,DepthScenes,duration_manipulation_targetAtFixation,jsons/v1_VE250_randls_72.json,http://54.235.29.9/FacialAge/BNav_EC2/DepthDuration/v2_depth_duration_MTurk/v2_DepthDuration_HTML.html#191,191,1364,625,1364,768,9-18-2022,12-52-18,154,depth_duration_stimuli/001447_2014-06-19_17-00-32_260595134347_rgbf000082-resize_5/001447_2014-06-19_17-00-32_260595134347_rgbf000082-resize_5-target.png,250,4.13775,2,5104,258,feet,jsons/v1_VE250_randls_72.json,841863,974395,60,Man
154,394510,DepthScenes,duration_manipulation_targetAtFixation,jsons/v1_VE250_randls_72.json,http://54.235.29.9/FacialAge/BNav_EC2/DepthDuration/v2_depth_duration_MTurk/v2_DepthDuration_HTML.html#191,191,1364,625,1364,768,9-18-2022,12-52-18,155,depth_duration_stimuli/002763_2014-06-22_19-13-10_094959634447_rgbf000075-resize_4/002763_2014-06-22_19-13-10_094959634447_rgbf000075-resize_4-target.png,250,1.68375,1,5102,220,feet,jsons/v1_VE250_randls_72.json,841863,974395,60,Man
155,394510,DepthScenes,duration_manipulation_targetAtFixation,jsons/v1_VE250_randls_72.json,http://54.235.29.9/FacialAge/BNav_EC2/DepthDuration/v2_depth_duration_MTurk/v2_DepthDuration_HTML.html#191,191,1364,625,1364,768,9-18-2022,12-52-18,156,depth_duration_stimuli/002209_2014-06-28_18-36-10_260595134347_rgbf000051-resize_1/002209_2014-06-28_18-36-10_260595134347_rgbf000051-resize_1-target.png,250,2.057,1,2831,332,feet,jsons/v1_VE250_randls_72.json,841863,974395,60,Man
156,394510,DepthScenes,duration_manipulation_targetAtFixation,jsons/v1_VE250_randls_72.json,http://54.235.29.9/FacialAge/BNav_EC2/DepthDuration/v2_depth_duration_MTurk/v2_DepthDuration_HTML.html#191,191,1364,625,1364,768,9-18-2022,12-52-18,157,depth_duration_stimuli/000368_2014-06-09_15-53-01_260595134347_rgbf000155-resize_2/000368_2014-06-09_15-53-01_260595134347_rgbf000155-resize_2-target.png,250,2.4859999999999998,1,4419,234,feet,jsons/v1_VE250_randls_72.json,841863,974395,60,Man
157,394510,DepthScenes,duration_manipulation_targetAtFixation,jsons/v1_VE250_randls_72.json,http://54.235.29.9/FacialAge/BNav_EC2/DepthDuration/v2_depth_duration_MTurk/v2_DepthDuration_HTML.html#191,191,1364,625,1364,768,9-18-2022,12-52-18,158,depth_duration_stimuli/002678_2014-06-13_16-15-32_094959634447_rgbf000151-resize_6/002678_2014-06-13_16-15-32_094959634447_rgbf000151-resize_6-target.png,250,2.1830000000000003,2,2927,270,feet,jsons/v1_VE250_randls_72.json,841863,974395,60,Man
158,394510,DepthScenes,duration_manipulation_targetAtFixation,jsons/v1_VE250_randls_72.json,http://54.235.29.9/FacialAge/BNav_EC2/DepthDuration/v2_depth_duration_MTurk/v2_DepthDuration_HTML.html#191,191,1364,625,1364,768,9-18-2022,12-52-18,159,depth_duration_stimuli/001810_2014-06-26_20-51-35_260595134347_rgbf000040-resize_3/001810_2014-06-26_20-51-35_260595134347_rgbf000040-resize_3-target.png,250,2.2525,1,4666,249,feet,jsons/v1_VE250_randls_72.json,841863,974395,60,Man
159,394510,DepthScenes,duration_manipulation_targetAtFixation,jsons/v1_VE250_randls_72.json,http://54.235.29.9/FacialAge/BNav_EC2/DepthDuration/v2_depth_duration_MTurk/v2_DepthDuration_HTML.html#191,191,1364,625,1364,768,9-18-2022,12-52-18,160,depth_duration_stimuli/003010_2014-06-15_12-54-35_094959634447_rgbf000112-resize_0/003010_2014-06-15_12-54-35_094959634447_rgbf000112-resize_0-target.png,250,3.1185,2,3675,236,feet,jsons/v1_VE250_randls_72.json,841863,974395,60,Man
160,394510,DepthScenes,duration_manipulation_targetAtFixation,jsons/v1_VE250_randls_72.json,http://54.235.29.9/FacialAge/BNav_EC2/DepthDuration/v2_depth_duration_MTurk/v2_DepthDuration_HTML.html#191,191,1364,625,1364,768,9-18-2022,12-52-18,161,depth_duration_stimuli/000758_2014-06-08_22-05-08_260595134347_rgbf000085-resize_0/000758_2014-06-08_22-05-08_260595134347_rgbf000085-resize_0-target.png,250,3.3810000000000002,3,4947,251,feet,jsons/v1_VE250_randls_72.json,841863,974395,60,Man
161,394510,DepthScenes,duration_manipulation_targetAtFixation,jsons/v1_VE250_randls_72.json,http://54.235.29.9/FacialAge/BNav_EC2/DepthDuration/v2_depth_duration_MTurk/v2_DepthDuration_HTML.html#191,191,1364,625,1364,768,9-18-2022,12-52-18,162,depth_duration_stimuli/000854_2014-06-09_19-43-13_260595134347_rgbf000066-resize_0/000854_2014-06-09_19-43-13_260595134347_rgbf000066-resize_0-target.png,250,3.068,3,3473,250,feet,jsons/v1_VE250_randls_72.json,841863,974395,60,Man
162,394510,DepthScenes,duration_manipulation_targetAtFixation,jsons/v1_VE250_randls_72.json,http://54.235.29.9/FacialAge/BNav_EC2/DepthDuration/v2_depth_duration_MTurk/v2_DepthDuration_HTML.html#191,191,1364,625,1364,768,9-18-2022,12-52-18,163,depth_duration_stimuli/003292_2014-05-14_21-53-49_094959634447_rgbf000100-resize_2/003292_2014-05-14_21-53-49_094959634447_rgbf000100-resize_2-target.png,250,3.4815,2,4249,250,feet,jsons/v1_VE250_randls_72.json,841863,974395,60,Man
163,394510,DepthScenes,duration_manipulation_targetAtFixation,jsons/v1_VE250_randls_72.json,http://54.235.29.9/FacialAge/BNav_EC2/DepthDuration/v2_depth_duration_MTurk/v2_DepthDuration_HTML.html#191,191,1364,625,1364,768,9-18-2022,12-52-18,164,depth_duration_stimuli/002639_2014-06-24_14-51-37_094959634447_rgbf000074-resize_4/002639_2014-06-24_14-51-37_094959634447_rgbf000074-resize_4-target.png,250,4.0375,2,2492,250,feet,jsons/v1_VE250_randls_72.json,841863,974395,60,Man
