,subjID,experimentName,versionName,sequenceName,url,selected_row,windowWidth,windowHeight,screenWidth,screenHeight,startDate,startTime,trial,stimulus,duration,actual_depth,depth_estimate,trial_RT,log_sceneDuration,unitSelection,seq_filepath,experimentTime,totalTime,age,gender
0,395277,DepthScenes,duration_manipulation_targetAtFixation,jsons/v1_VE1000_randls_75_rotated.json,http://54.235.29.9/FacialAge/BNav_EC2/DepthDuration/v2_depth_duration_MTurk/v2_DepthDuration_HTML.html#105,105,1366,768,1366,768,8-22-2022,7-13-29,1,depth_duration_stimuli/001516_2014-06-20_16-25-09_260595134347_rgbf000076-resize_2/001516_2014-06-20_16-25-09_260595134347_rgbf000076-resize_2-target.png,1000,1.7445,8,3127,1001,feet,jsons/v1_VE1000_randls_75_rotated.json,592495,1938913,25,Woman
1,395277,DepthScenes,duration_manipulation_targetAtFixation,jsons/v1_VE1000_randls_75_rotated.json,http://54.235.29.9/FacialAge/BNav_EC2/DepthDuration/v2_depth_duration_MTurk/v2_DepthDuration_HTML.html#105,105,1366,768,1366,768,8-22-2022,7-13-29,2,depth_duration_stimuli/002118_2014-06-25_20-32-08_260595134347_rgbf000078-resize_1/002118_2014-06-25_20-32-08_260595134347_rgbf000078-resize_1-target.png,1000,2.6460000000000004,5,3382,985,feet,jsons/v1_VE1000_randls_75_rotated.json,592495,1938913,25,Woman
2,395277,DepthScenes,duration_manipulation_targetAtFixation,jsons/v1_VE1000_randls_75_rotated.json,http://54.235.29.9/FacialAge/BNav_EC2/DepthDuration/v2_depth_duration_MTurk/v2_DepthDuration_HTML.html#105,105,1366,768,1366,768,8-22-2022,7-13-29,3,depth_duration_stimuli/002414_2014-06-28_20-24-58_260595134347_rgbf000067-resize_4/002414_2014-06-28_20-24-58_260595134347_rgbf000067-resize_4-target.png,1000,4.363,7,2867,1001,feet,jsons/v1_VE1000_randls_75_rotated.json,592495,1938913,25,Woman
3,395277,DepthScenes,duration_manipulation_targetAtFixation,jsons/v1_VE1000_randls_75_rotated.json,http://54.235.29.9/FacialAge/BNav_EC2/DepthDuration/v2_depth_duration_MTurk/v2_DepthDuration_HTML.html#105,105,1366,768,1366,768,8-22-2022,7-13-29,4,depth_duration_stimuli/000773_2014-06-08_22-24-54_260595134347_rgbf000093-resize_1/000773_2014-06-08_22-24-54_260595134347_rgbf000093-resize_1-target.png,1000,4.973,6,2923,989,feet,jsons/v1_VE1000_randls_75_rotated.json,592495,1938913,25,Woman
4,395277,DepthScenes,duration_manipulation_targetAtFixation,jsons/v1_VE1000_randls_75_rotated.json,http://54.235.29.9/FacialAge/BNav_EC2/DepthDuration/v2_depth_duration_MTurk/v2_DepthDuration_HTML.html#105,105,1366,768,1366,768,8-22-2022,7-13-29,5,depth_duration_stimuli/001617_2014-06-20_11-35-32_260595134347_rgbf000066-resize_1/001617_2014-06-20_11-35-32_260595134347_rgbf000066-resize_1-target.png,1000,3.7910000000000004,8,4216,971,feet,jsons/v1_VE1000_randls_75_rotated.json,592495,1938913,25,Woman
5,395277,DepthScenes,duration_manipulation_targetAtFixation,jsons/v1_VE1000_randls_75_rotated.json,http://54.235.29.9/FacialAge/BNav_EC2/DepthDuration/v2_depth_duration_MTurk/v2_DepthDuration_HTML.html#105,105,1366,768,1366,768,8-22-2022,7-13-29,6,depth_duration_stimuli/001806_2014-06-26_20-50-20_260595134347_rgbf000091-resize_1/001806_2014-06-26_20-50-20_260595134347_rgbf000091-resize_1-target.png,1000,2.7305,5,3185,998,feet,jsons/v1_VE1000_randls_75_rotated.json,592495,1938913,25,Woman
6,395277,DepthScenes,duration_manipulation_targetAtFixation,jsons/v1_VE1000_randls_75_rotated.json,http://54.235.29.9/FacialAge/BNav_EC2/DepthDuration/v2_depth_duration_MTurk/v2_DepthDuration_HTML.html#105,105,1366,768,1366,768,8-22-2022,7-13-29,7,depth_duration_stimuli/000854_2014-06-09_19-43-13_260595134347_rgbf000066-resize_0/000854_2014-06-09_19-43-13_260595134347_rgbf000066-resize_0-target.png,1000,3.068,7,3255,1004,feet,jsons/v1_VE1000_randls_75_rotated.json,592495,1938913,25,Woman
7,395277,DepthScenes,duration_manipulation_targetAtFixation,jsons/v1_VE1000_randls_75_rotated.json,http://54.235.29.9/FacialAge/BNav_EC2/DepthDuration/v2_depth_duration_MTurk/v2_DepthDuration_HTML.html#105,105,1366,768,1366,768,8-22-2022,7-13-29,8,depth_duration_stimuli/000758_2014-06-08_22-05-08_260595134347_rgbf000085-resize_0/000758_2014-06-08_22-05-08_260595134347_rgbf000085-resize_0-target.png,1000,3.3810000000000002,8,3052,999,feet,jsons/v1_VE1000_randls_75_rotated.json,592495,1938913,25,Woman
8,395277,DepthScenes,duration_manipulation_targetAtFixation,jsons/v1_VE1000_randls_75_rotated.json,http://54.235.29.9/FacialAge/BNav_EC2/DepthDuration/v2_depth_duration_MTurk/v2_DepthDuration_HTML.html#105,105,1366,768,1366,768,8-22-2022,7-13-29,9,depth_duration_stimuli/002953_2014-06-08_17-32-18_094959634447_rgbf000059-resize_5/002953_2014-06-08_17-32-18_094959634447_rgbf000059-resize_5-target.png,1000,1.551,5,2758,1003,feet,jsons/v1_VE1000_randls_75_rotated.json,592495,1938913,25,Woman
9,395277,DepthScenes,duration_manipulation_targetAtFixation,jsons/v1_VE1000_randls_75_rotated.json,http://54.235.29.9/FacialAge/BNav_EC2/DepthDuration/v2_depth_duration_MTurk/v2_DepthDuration_HTML.html#105,105,1366,768,1366,768,8-22-2022,7-13-29,10,depth_duration_stimuli/000878_2014-06-08_22-52-45_260595134347_rgbf000045-resize_2/000878_2014-06-08_22-52-45_260595134347_rgbf000045-resize_2-target.png,1000,2.092,8,2798,992,feet,jsons/v1_VE1000_randls_75_rotated.json,592495,1938913,25,Woman
10,395277,DepthScenes,duration_manipulation_targetAtFixation,jsons/v1_VE1000_randls_75_rotated.json,http://54.235.29.9/FacialAge/BNav_EC2/DepthDuration/v2_depth_duration_MTurk/v2_DepthDuration_HTML.html#105,105,1366,768,1366,768,8-22-2022,7-13-29,11,depth_duration_stimuli/000749_2014-06-08_21-55-06_260595134347_rgbf000070-resize_2/000749_2014-06-08_21-55-06_260595134347_rgbf000070-resize_2-target.png,1000,2.331,6,3061,1014,feet,jsons/v1_VE1000_randls_75_rotated.json,592495,1938913,25,Woman
11,395277,DepthScenes,duration_manipulation_targetAtFixation,jsons/v1_VE1000_randls_75_rotated.json,http://54.235.29.9/FacialAge/BNav_EC2/DepthDuration/v2_depth_duration_MTurk/v2_DepthDuration_HTML.html#105,105,1366,768,1366,768,8-22-2022,7-13-29,12,depth_duration_stimuli/002788_2014-06-22_19-36-03_094959634447_rgbf000088-resize_2/002788_2014-06-22_19-36-03_094959634447_rgbf000088-resize_2-target.png,1000,1.6465,7,3153,1009,feet,jsons/v1_VE1000_randls_75_rotated.json,592495,1938913,25,Woman
12,395277,DepthScenes,duration_manipulation_targetAtFixation,jsons/v1_VE1000_randls_75_rotated.json,http://54.235.29.9/FacialAge/BNav_EC2/DepthDuration/v2_depth_duration_MTurk/v2_DepthDuration_HTML.html#105,105,1366,768,1366,768,8-22-2022,7-13-29,13,depth_duration_stimuli/003129_2014-05-12_10-48-10_094959634447_rgbf000100-resize_0/003129_2014-05-12_10-48-10_094959634447_rgbf000100-resize_0-target.png,1000,4.9305,8,3259,969,feet,jsons/v1_VE1000_randls_75_rotated.json,592495,1938913,25,Woman
13,395277,DepthScenes,duration_manipulation_targetAtFixation,jsons/v1_VE1000_randls_75_rotated.json,http://54.235.29.9/FacialAge/BNav_EC2/DepthDuration/v2_depth_duration_MTurk/v2_DepthDuration_HTML.html#105,105,1366,768,1366,768,8-22-2022,7-13-29,14,depth_duration_stimuli/000414_2014-06-04_19-49-13_260595134347_rgbf000044-resize_0/000414_2014-06-04_19-49-13_260595134347_rgbf000044-resize_0-target.png,1000,4.329,9,3082,996,feet,jsons/v1_VE1000_randls_75_rotated.json,592495,1938913,25,Woman
14,395277,DepthScenes,duration_manipulation_targetAtFixation,jsons/v1_VE1000_randls_75_rotated.json,http://54.235.29.9/FacialAge/BNav_EC2/DepthDuration/v2_depth_duration_MTurk/v2_DepthDuration_HTML.html#105,105,1366,768,1366,768,8-22-2022,7-13-29,15,depth_duration_stimuli/000502_2014-06-08_23-02-32_260595134347_rgbf000063-resize_4/000502_2014-06-08_23-02-32_260595134347_rgbf000063-resize_4-target.png,1000,2.431,5,2947,1013,feet,jsons/v1_VE1000_randls_75_rotated.json,592495,1938913,25,Woman
15,395277,DepthScenes,duration_manipulation_targetAtFixation,jsons/v1_VE1000_randls_75_rotated.json,http://54.235.29.9/FacialAge/BNav_EC2/DepthDuration/v2_depth_duration_MTurk/v2_DepthDuration_HTML.html#105,105,1366,768,1366,768,8-22-2022,7-13-29,16,depth_duration_stimuli/001199_2014-06-17_16-03-48_260595134347_rgbf000077-resize_0/001199_2014-06-17_16-03-48_260595134347_rgbf000077-resize_0-target.png,1000,3.4375,8,3072,995,feet,jsons/v1_VE1000_randls_75_rotated.json,592495,1938913,25,Woman
16,395277,DepthScenes,duration_manipulation_targetAtFixation,jsons/v1_VE1000_randls_75_rotated.json,http://54.235.29.9/FacialAge/BNav_EC2/DepthDuration/v2_depth_duration_MTurk/v2_DepthDuration_HTML.html#105,105,1366,768,1366,768,8-22-2022,7-13-29,17,depth_duration_stimuli/002545_2014-06-24_13-38-53_094959634447_rgbf000080-resize_4/002545_2014-06-24_13-38-53_094959634447_rgbf000080-resize_4-target.png,1000,1.9205,7,4088,990,feet,jsons/v1_VE1000_randls_75_rotated.json,592495,1938913,25,Woman
17,395277,DepthScenes,duration_manipulation_targetAtFixation,jsons/v1_VE1000_randls_75_rotated.json,http://54.235.29.9/FacialAge/BNav_EC2/DepthDuration/v2_depth_duration_MTurk/v2_DepthDuration_HTML.html#105,105,1366,768,1366,768,8-22-2022,7-13-29,18,depth_duration_stimuli/001092_2014-06-15_17-34-58_260595134347_rgbf000171-resize_3/001092_2014-06-15_17-34-58_260595134347_rgbf000171-resize_3-target.png,1000,2.6935,6,3268,998,feet,jsons/v1_VE1000_randls_75_rotated.json,592495,1938913,25,Woman
18,395277,DepthScenes,duration_manipulation_targetAtFixation,jsons/v1_VE1000_randls_75_rotated.json,http://54.235.29.9/FacialAge/BNav_EC2/DepthDuration/v2_depth_duration_MTurk/v2_DepthDuration_HTML.html#105,105,1366,768,1366,768,8-22-2022,7-13-29,19,depth_duration_stimuli/001498_2014-06-19_17-45-14_260595134347_rgbf000129-resize_4/001498_2014-06-19_17-45-14_260595134347_rgbf000129-resize-original.jpg,1000,1.4075,0,3202,1001,feet,jsons/v1_VE1000_randls_75_rotated.json,592495,1938913,25,Woman
19,395277,DepthScenes,duration_manipulation_targetAtFixation,jsons/v1_VE1000_randls_75_rotated.json,http://54.235.29.9/FacialAge/BNav_EC2/DepthDuration/v2_depth_duration_MTurk/v2_DepthDuration_HTML.html#105,105,1366,768,1366,768,8-22-2022,7-13-29,20,depth_duration_stimuli/003490_2014-05-21_15-50-11_094959634447_rgbf000101-resize_3/003490_2014-05-21_15-50-11_094959634447_rgbf000101-resize_3-target.png,1000,3.6445,7,4191,988,feet,jsons/v1_VE1000_randls_75_rotated.json,592495,1938913,25,Woman
20,395277,DepthScenes,duration_manipulation_targetAtFixation,jsons/v1_VE1000_randls_75_rotated.json,http://54.235.29.9/FacialAge/BNav_EC2/DepthDuration/v2_depth_duration_MTurk/v2_DepthDuration_HTML.html#105,105,1366,768,1366,768,8-22-2022,7-13-29,21,depth_duration_stimuli/001175_2014-06-17_15-45-55_260595134347_rgbf000129-resize_4/001175_2014-06-17_15-45-55_260595134347_rgbf000129-resize_4-target.png,1000,4.255,8,3154,1008,feet,jsons/v1_VE1000_randls_75_rotated.json,592495,1938913,25,Woman
21,395277,DepthScenes,duration_manipulation_targetAtFixation,jsons/v1_VE1000_randls_75_rotated.json,http://54.235.29.9/FacialAge/BNav_EC2/DepthDuration/v2_depth_duration_MTurk/v2_DepthDuration_HTML.html#105,105,1366,768,1366,768,8-22-2022,7-13-29,22,depth_duration_stimuli/002805_2014-06-22_19-54-03_094959634447_rgbf000079-resize_1/002805_2014-06-22_19-54-03_094959634447_rgbf000079-resize_1-target.png,1000,3.1439999999999997,7,3617,1009,feet,jsons/v1_VE1000_randls_75_rotated.json,592495,1938913,25,Woman
22,395277,DepthScenes,duration_manipulation_targetAtFixation,jsons/v1_VE1000_randls_75_rotated.json,http://54.235.29.9/FacialAge/BNav_EC2/DepthDuration/v2_depth_duration_MTurk/v2_DepthDuration_HTML.html#105,105,1366,768,1366,768,8-22-2022,7-13-29,23,depth_duration_stimuli/000906_2014-06-08_13-35-43_260595134347_rgbf000155-resize_1/000906_2014-06-08_13-35-43_260595134347_rgbf000155-resize_1-target.png,1000,2.8489999999999998,8,2996,1012,feet,jsons/v1_VE1000_randls_75_rotated.json,592495,1938913,25,Woman
23,395277,DepthScenes,duration_manipulation_targetAtFixation,jsons/v1_VE1000_randls_75_rotated.json,http://54.235.29.9/FacialAge/BNav_EC2/DepthDuration/v2_depth_duration_MTurk/v2_DepthDuration_HTML.html#105,105,1366,768,1366,768,8-22-2022,7-13-29,24,depth_duration_stimuli/002340_2014-06-28_20-05-46_260595134347_rgbf000113-resize_0/002340_2014-06-28_20-05-46_260595134347_rgbf000113-resize_0-target.png,1000,2.4735,8,2890,989,feet,jsons/v1_VE1000_randls_75_rotated.json,592495,1938913,25,Woman
24,395277,DepthScenes,duration_manipulation_targetAtFixation,jsons/v1_VE1000_randls_75_rotated.json,http://54.235.29.9/FacialAge/BNav_EC2/DepthDuration/v2_depth_duration_MTurk/v2_DepthDuration_HTML.html#105,105,1366,768,1366,768,8-22-2022,7-13-29,25,depth_duration_stimuli/001016_2014-06-09_16-16-10_260595134347_rgbf000112-resize_5/001016_2014-06-09_16-16-10_260595134347_rgbf000112-resize_5-target.png,1000,1.6565,7,2752,998,feet,jsons/v1_VE1000_randls_75_rotated.json,592495,1938913,25,Woman
25,395277,DepthScenes,duration_manipulation_targetAtFixation,jsons/v1_VE1000_randls_75_rotated.json,http://54.235.29.9/FacialAge/BNav_EC2/DepthDuration/v2_depth_duration_MTurk/v2_DepthDuration_HTML.html#105,105,1366,768,1366,768,8-22-2022,7-13-29,26,depth_duration_stimuli/002323_2014-06-28_20-01-54_260595134347_rgbf000051-resize_4/002323_2014-06-28_20-01-54_260595134347_rgbf000051-resize_4-target.png,1000,3.7310000000000003,6,3074,1000,feet,jsons/v1_VE1000_randls_75_rotated.json,592495,1938913,25,Woman
26,395277,DepthScenes,duration_manipulation_targetAtFixation,jsons/v1_VE1000_randls_75_rotated.json,http://54.235.29.9/FacialAge/BNav_EC2/DepthDuration/v2_depth_duration_MTurk/v2_DepthDuration_HTML.html#105,105,1366,768,1366,768,8-22-2022,7-13-29,27,depth_duration_stimuli/000917_2014-06-09_22-45-29_260595134347_rgbf000149-resize_3/000917_2014-06-09_22-45-29_260595134347_rgbf000149-resize_3-target.png,1000,4.1865,8,2737,1002,feet,jsons/v1_VE1000_randls_75_rotated.json,592495,1938913,25,Woman
27,395277,DepthScenes,duration_manipulation_targetAtFixation,jsons/v1_VE1000_randls_75_rotated.json,http://54.235.29.9/FacialAge/BNav_EC2/DepthDuration/v2_depth_duration_MTurk/v2_DepthDuration_HTML.html#105,105,1366,768,1366,768,8-22-2022,7-13-29,28,depth_duration_stimuli/002425_2014-06-28_20-27-29_260595134347_rgbf000031-resize_8/002425_2014-06-28_20-27-29_260595134347_rgbf000031-resize_8-target.png,1000,3.8960000000000004,7,2885,998,feet,jsons/v1_VE1000_randls_75_rotated.json,592495,1938913,25,Woman
28,395277,DepthScenes,duration_manipulation_targetAtFixation,jsons/v1_VE1000_randls_75_rotated.json,http://54.235.29.9/FacialAge/BNav_EC2/DepthDuration/v2_depth_duration_MTurk/v2_DepthDuration_HTML.html#105,105,1366,768,1366,768,8-22-2022,7-13-29,29,depth_duration_stimuli/000642_2014-06-08_16-59-25_260595134347_rgbf000098-resize_2/000642_2014-06-08_16-59-25_260595134347_rgbf000098-resize_2-target.png,1000,2.8815,6,2834,999,feet,jsons/v1_VE1000_randls_75_rotated.json,592495,1938913,25,Woman
29,395277,DepthScenes,duration_manipulation_targetAtFixation,jsons/v1_VE1000_randls_75_rotated.json,http://54.235.29.9/FacialAge/BNav_EC2/DepthDuration/v2_depth_duration_MTurk/v2_DepthDuration_HTML.html#105,105,1366,768,1366,768,8-22-2022,7-13-29,30,depth_duration_stimuli/002072_2014-06-24_21-48-06_260595134347_rgbf000115-resize_0/002072_2014-06-24_21-48-06_260595134347_rgbf000115-resize-original.jpg,1000,4.702,0,3035,1000,feet,jsons/v1_VE1000_randls_75_rotated.json,592495,1938913,25,Woman
30,395277,DepthScenes,duration_manipulation_targetAtFixation,jsons/v1_VE1000_randls_75_rotated.json,http://54.235.29.9/FacialAge/BNav_EC2/DepthDuration/v2_depth_duration_MTurk/v2_DepthDuration_HTML.html#105,105,1366,768,1366,768,8-22-2022,7-13-29,31,depth_duration_stimuli/001447_2014-06-19_17-00-32_260595134347_rgbf000082-resize_5/001447_2014-06-19_17-00-32_260595134347_rgbf000082-resize_5-target.png,1000,4.13775,7,3080,996,feet,jsons/v1_VE1000_randls_75_rotated.json,592495,1938913,25,Woman
31,395277,DepthScenes,duration_manipulation_targetAtFixation,jsons/v1_VE1000_randls_75_rotated.json,http://54.235.29.9/FacialAge/BNav_EC2/DepthDuration/v2_depth_duration_MTurk/v2_DepthDuration_HTML.html#105,105,1366,768,1366,768,8-22-2022,7-13-29,32,depth_duration_stimuli/000447_2014-06-08_16-15-46_260595134347_rgbf000130-resize_1/000447_2014-06-08_16-15-46_260595134347_rgbf000130-resize_1-target.png,1000,4.479,6,3220,992,feet,jsons/v1_VE1000_randls_75_rotated.json,592495,1938913,25,Woman
32,395277,DepthScenes,duration_manipulation_targetAtFixation,jsons/v1_VE1000_randls_75_rotated.json,http://54.235.29.9/FacialAge/BNav_EC2/DepthDuration/v2_depth_duration_MTurk/v2_DepthDuration_HTML.html#105,105,1366,768,1366,768,8-22-2022,7-13-29,33,depth_duration_stimuli/002949_2014-06-26_15-57-42_094959634447_rgbf000079-resize_1/002949_2014-06-26_15-57-42_094959634447_rgbf000079-resize_1-target.png,1000,1.8915,7,3209,1006,feet,jsons/v1_VE1000_randls_75_rotated.json,592495,1938913,25,Woman
33,395277,DepthScenes,duration_manipulation_targetAtFixation,jsons/v1_VE1000_randls_75_rotated.json,http://54.235.29.9/FacialAge/BNav_EC2/DepthDuration/v2_depth_duration_MTurk/v2_DepthDuration_HTML.html#105,105,1366,768,1366,768,8-22-2022,7-13-29,34,depth_duration_stimuli/000522_2014-06-08_13-35-06_260595134347_rgbf000244-resize_1/000522_2014-06-08_13-35-06_260595134347_rgbf000244-resize_1-target.png,1000,2.3715,5,2770,982,feet,jsons/v1_VE1000_randls_75_rotated.json,592495,1938913,25,Woman
34,395277,DepthScenes,duration_manipulation_targetAtFixation,jsons/v1_VE1000_randls_75_rotated.json,http://54.235.29.9/FacialAge/BNav_EC2/DepthDuration/v2_depth_duration_MTurk/v2_DepthDuration_HTML.html#105,105,1366,768,1366,768,8-22-2022,7-13-29,35,depth_duration_stimuli/001828_2014-06-26_21-40-03_260595134347_rgbf000024-resize_0/001828_2014-06-26_21-40-03_260595134347_rgbf000024-resize_0-target.png,1000,4.8260000000000005,8,2911,1021,feet,jsons/v1_VE1000_randls_75_rotated.json,592495,1938913,25,Woman
35,395277,DepthScenes,duration_manipulation_targetAtFixation,jsons/v1_VE1000_randls_75_rotated.json,http://54.235.29.9/FacialAge/BNav_EC2/DepthDuration/v2_depth_duration_MTurk/v2_DepthDuration_HTML.html#105,105,1366,768,1366,768,8-22-2022,7-13-29,36,depth_duration_stimuli/000009_2014-05-26_14-32-05_260595134347_rgbf000034-resize_3/000009_2014-05-26_14-32-05_260595134347_rgbf000034-resize_3-target.png,1000,3.8715,8,2684,1011,feet,jsons/v1_VE1000_randls_75_rotated.json,592495,1938913,25,Woman
36,395277,DepthScenes,duration_manipulation_targetAtFixation,jsons/v1_VE1000_randls_75_rotated.json,http://54.235.29.9/FacialAge/BNav_EC2/DepthDuration/v2_depth_duration_MTurk/v2_DepthDuration_HTML.html#105,105,1366,768,1366,768,8-22-2022,7-13-29,37,depth_duration_stimuli/003338_2014-05-20_11-01-23_094959634447_rgbf000051-resize_6/003338_2014-05-20_11-01-23_094959634447_rgbf000051-resize_6-target.png,1000,1.693,5,2904,1008,feet,jsons/v1_VE1000_randls_75_rotated.json,592495,1938913,25,Woman
37,395277,DepthScenes,duration_manipulation_targetAtFixation,jsons/v1_VE1000_randls_75_rotated.json,http://54.235.29.9/FacialAge/BNav_EC2/DepthDuration/v2_depth_duration_MTurk/v2_DepthDuration_HTML.html#105,105,1366,768,1366,768,8-22-2022,7-13-29,38,depth_duration_stimuli/002509_2014-06-24_13-19-22_094959634447_rgbf000077-resize_0/002509_2014-06-24_13-19-22_094959634447_rgbf000077-resize_0-target.png,1000,1.3065,5,2729,1010,feet,jsons/v1_VE1000_randls_75_rotated.json,592495,1938913,25,Woman
38,395277,DepthScenes,duration_manipulation_targetAtFixation,jsons/v1_VE1000_randls_75_rotated.json,http://54.235.29.9/FacialAge/BNav_EC2/DepthDuration/v2_depth_duration_MTurk/v2_DepthDuration_HTML.html#105,105,1366,768,1366,768,8-22-2022,7-13-29,39,depth_duration_stimuli/001450_2014-06-19_17-02-03_260595134347_rgbf000203-resize_4/001450_2014-06-19_17-02-03_260595134347_rgbf000203-resize_4-target.png,1000,4.0106666666667,8,3076,993,feet,jsons/v1_VE1000_randls_75_rotated.json,592495,1938913,25,Woman
39,395277,DepthScenes,duration_manipulation_targetAtFixation,jsons/v1_VE1000_randls_75_rotated.json,http://54.235.29.9/FacialAge/BNav_EC2/DepthDuration/v2_depth_duration_MTurk/v2_DepthDuration_HTML.html#105,105,1366,768,1366,768,8-22-2022,7-13-29,40,depth_duration_stimuli/001449_2014-06-19_17-01-27_260595134347_rgbf000116-resize_2/001449_2014-06-19_17-01-27_260595134347_rgbf000116-resize_2-target.png,1000,3.452,7,3324,1021,feet,jsons/v1_VE1000_randls_75_rotated.json,592495,1938913,25,Woman
40,395277,DepthScenes,duration_manipulation_targetAtFixation,jsons/v1_VE1000_randls_75_rotated.json,http://54.235.29.9/FacialAge/BNav_EC2/DepthDuration/v2_depth_duration_MTurk/v2_DepthDuration_HTML.html#105,105,1366,768,1366,768,8-22-2022,7-13-29,41,depth_duration_stimuli/000549_2014-06-08_22-10-24_260595134347_rgbf000247-resize_3/000549_2014-06-08_22-10-24_260595134347_rgbf000247-resize_3-target.png,1000,1.841,5,2760,1000,feet,jsons/v1_VE1000_randls_75_rotated.json,592495,1938913,25,Woman
41,395277,DepthScenes,duration_manipulation_targetAtFixation,jsons/v1_VE1000_randls_75_rotated.json,http://54.235.29.9/FacialAge/BNav_EC2/DepthDuration/v2_depth_duration_MTurk/v2_DepthDuration_HTML.html#105,105,1366,768,1366,768,8-22-2022,7-13-29,42,depth_duration_stimuli/001055_2014-06-08_18-45-35_260595134347_rgbf000111-resize_4/001055_2014-06-08_18-45-35_260595134347_rgbf000111-resize_4-target.png,1000,2.4290000000000003,8,3020,1000,feet,jsons/v1_VE1000_randls_75_rotated.json,592495,1938913,25,Woman
42,395277,DepthScenes,duration_manipulation_targetAtFixation,jsons/v1_VE1000_randls_75_rotated.json,http://54.235.29.9/FacialAge/BNav_EC2/DepthDuration/v2_depth_duration_MTurk/v2_DepthDuration_HTML.html#105,105,1366,768,1366,768,8-22-2022,7-13-29,43,depth_duration_stimuli/000780_2014-06-08_22-28-29_260595134347_rgbf000126-resize_1/000780_2014-06-08_22-28-29_260595134347_rgbf000126-resize_1-target.png,1000,3.3825,7,3158,994,feet,jsons/v1_VE1000_randls_75_rotated.json,592495,1938913,25,Woman
43,395277,DepthScenes,duration_manipulation_targetAtFixation,jsons/v1_VE1000_randls_75_rotated.json,http://54.235.29.9/FacialAge/BNav_EC2/DepthDuration/v2_depth_duration_MTurk/v2_DepthDuration_HTML.html#105,105,1366,768,1366,768,8-22-2022,7-13-29,44,depth_duration_stimuli/002445_2014-06-28_20-32-16_260595134347_rgbf000029-resize_4/002445_2014-06-28_20-32-16_260595134347_rgbf000029-resize_4-target.png,1000,2.5315,5,2816,996,feet,jsons/v1_VE1000_randls_75_rotated.json,592495,1938913,25,Woman
44,395277,DepthScenes,duration_manipulation_targetAtFixation,jsons/v1_VE1000_randls_75_rotated.json,http://54.235.29.9/FacialAge/BNav_EC2/DepthDuration/v2_depth_duration_MTurk/v2_DepthDuration_HTML.html#105,105,1366,768,1366,768,8-22-2022,7-13-29,45,depth_duration_stimuli/003048_2014-06-15_13-49-43_094959634447_rgbf000150-resize_1/003048_2014-06-15_13-49-43_094959634447_rgbf000150-resize_1-target.png,1000,4.0035,8,2933,1000,feet,jsons/v1_VE1000_randls_75_rotated.json,592495,1938913,25,Woman
45,395277,DepthScenes,duration_manipulation_targetAtFixation,jsons/v1_VE1000_randls_75_rotated.json,http://54.235.29.9/FacialAge/BNav_EC2/DepthDuration/v2_depth_duration_MTurk/v2_DepthDuration_HTML.html#105,105,1366,768,1366,768,8-22-2022,7-13-29,46,depth_duration_stimuli/002043_2014-06-24_20-29-38_260595134347_rgbf000039-resize_4/002043_2014-06-24_20-29-38_260595134347_rgbf000039-resize_4-target.png,1000,2.8435,7,2984,987,feet,jsons/v1_VE1000_randls_75_rotated.json,592495,1938913,25,Woman
46,395277,DepthScenes,duration_manipulation_targetAtFixation,jsons/v1_VE1000_randls_75_rotated.json,http://54.235.29.9/FacialAge/BNav_EC2/DepthDuration/v2_depth_duration_MTurk/v2_DepthDuration_HTML.html#105,105,1366,768,1366,768,8-22-2022,7-13-29,47,depth_duration_stimuli/001235_2014-06-17_16-37-36_260595134347_rgbf000084-resize_4/001235_2014-06-17_16-37-36_260595134347_rgbf000084-resize_4-target.png,1000,3.6605,6,3058,1009,feet,jsons/v1_VE1000_randls_75_rotated.json,592495,1938913,25,Woman
47,395277,DepthScenes,duration_manipulation_targetAtFixation,jsons/v1_VE1000_randls_75_rotated.json,http://54.235.29.9/FacialAge/BNav_EC2/DepthDuration/v2_depth_duration_MTurk/v2_DepthDuration_HTML.html#105,105,1366,768,1366,768,8-22-2022,7-13-29,48,depth_duration_stimuli/000788_2014-06-08_22-34-36_260595134347_rgbf000131-resize_1/000788_2014-06-08_22-34-36_260595134347_rgbf000131-resize_1-target.png,1000,3.359,7,2792,1009,feet,jsons/v1_VE1000_randls_75_rotated.json,592495,1938913,25,Woman
48,395277,DepthScenes,duration_manipulation_targetAtFixation,jsons/v1_VE1000_randls_75_rotated.json,http://54.235.29.9/FacialAge/BNav_EC2/DepthDuration/v2_depth_duration_MTurk/v2_DepthDuration_HTML.html#105,105,1366,768,1366,768,8-22-2022,7-13-29,49,depth_duration_stimuli/001170_2014-06-17_15-43-44_260595134347_rgbf000096-resize_6/001170_2014-06-17_15-43-44_260595134347_rgbf000096-resize-original.jpg,1000,1.1909999999999998,0,3312,1013,feet,jsons/v1_VE1000_randls_75_rotated.json,592495,1938913,25,Woman
49,395277,DepthScenes,duration_manipulation_targetAtFixation,jsons/v1_VE1000_randls_75_rotated.json,http://54.235.29.9/FacialAge/BNav_EC2/DepthDuration/v2_depth_duration_MTurk/v2_DepthDuration_HTML.html#105,105,1366,768,1366,768,8-22-2022,7-13-29,50,depth_duration_stimuli/000943_2014-06-09_19-31-07_260595134347_rgbf000128-resize_1/000943_2014-06-09_19-31-07_260595134347_rgbf000128-resize_1-target.png,1000,1.9765,5,2895,1000,feet,jsons/v1_VE1000_randls_75_rotated.json,592495,1938913,25,Woman
50,395277,DepthScenes,duration_manipulation_targetAtFixation,jsons/v1_VE1000_randls_75_rotated.json,http://54.235.29.9/FacialAge/BNav_EC2/DepthDuration/v2_depth_duration_MTurk/v2_DepthDuration_HTML.html#105,105,1366,768,1366,768,8-22-2022,7-13-29,51,depth_duration_stimuli/003070_2014-06-15_14-58-27_094959634447_rgbf000150-resize_3/003070_2014-06-15_14-58-27_094959634447_rgbf000150-resize_3-target.png,1000,2.9415,7,2747,990,feet,jsons/v1_VE1000_randls_75_rotated.json,592495,1938913,25,Woman
51,395277,DepthScenes,duration_manipulation_targetAtFixation,jsons/v1_VE1000_randls_75_rotated.json,http://54.235.29.9/FacialAge/BNav_EC2/DepthDuration/v2_depth_duration_MTurk/v2_DepthDuration_HTML.html#105,105,1366,768,1366,768,8-22-2022,7-13-29,52,depth_duration_stimuli/001094_2014-06-15_17-36-00_260595134347_rgbf000205-resize_0/001094_2014-06-15_17-36-00_260595134347_rgbf000205-resize_0-target.png,1000,4.2175,8,2962,1002,feet,jsons/v1_VE1000_randls_75_rotated.json,592495,1938913,25,Woman
52,395277,DepthScenes,duration_manipulation_targetAtFixation,jsons/v1_VE1000_randls_75_rotated.json,http://54.235.29.9/FacialAge/BNav_EC2/DepthDuration/v2_depth_duration_MTurk/v2_DepthDuration_HTML.html#105,105,1366,768,1366,768,8-22-2022,7-13-29,53,depth_duration_stimuli/000692_2014-06-08_13-09-42_260595134347_rgbf000199-resize_2/000692_2014-06-08_13-09-42_260595134347_rgbf000199-resize_2-target.png,1000,3.661,7,2925,991,feet,jsons/v1_VE1000_randls_75_rotated.json,592495,1938913,25,Woman
53,395277,DepthScenes,duration_manipulation_targetAtFixation,jsons/v1_VE1000_randls_75_rotated.json,http://54.235.29.9/FacialAge/BNav_EC2/DepthDuration/v2_depth_duration_MTurk/v2_DepthDuration_HTML.html#105,105,1366,768,1366,768,8-22-2022,7-13-29,54,depth_duration_stimuli/001815_2014-06-26_20-52-55_260595134347_rgbf000020-resize_0/001815_2014-06-26_20-52-55_260595134347_rgbf000020-resize_0-target.png,1000,3.3865,8,4226,1002,feet,jsons/v1_VE1000_randls_75_rotated.json,592495,1938913,25,Woman
54,395277,DepthScenes,duration_manipulation_targetAtFixation,jsons/v1_VE1000_randls_75_rotated.json,http://54.235.29.9/FacialAge/BNav_EC2/DepthDuration/v2_depth_duration_MTurk/v2_DepthDuration_HTML.html#105,105,1366,768,1366,768,8-22-2022,7-13-29,55,depth_duration_stimuli/001808_2014-06-26_20-50-58_260595134347_rgbf000029-resize_1/001808_2014-06-26_20-50-58_260595134347_rgbf000029-resize_1-target.png,1000,4.249,8,3103,1001,feet,jsons/v1_VE1000_randls_75_rotated.json,592495,1938913,25,Woman
55,395277,DepthScenes,duration_manipulation_targetAtFixation,jsons/v1_VE1000_randls_75_rotated.json,http://54.235.29.9/FacialAge/BNav_EC2/DepthDuration/v2_depth_duration_MTurk/v2_DepthDuration_HTML.html#105,105,1366,768,1366,768,8-22-2022,7-13-29,56,depth_duration_stimuli/000191_2014-05-12_17-07-38_260595134347_rgbf000199-resize_0/000191_2014-05-12_17-07-38_260595134347_rgbf000199-resize_0-target.png,1000,3.7995,8,3356,998,feet,jsons/v1_VE1000_randls_75_rotated.json,592495,1938913,25,Woman
56,395277,DepthScenes,duration_manipulation_targetAtFixation,jsons/v1_VE1000_randls_75_rotated.json,http://54.235.29.9/FacialAge/BNav_EC2/DepthDuration/v2_depth_duration_MTurk/v2_DepthDuration_HTML.html#105,105,1366,768,1366,768,8-22-2022,7-13-29,57,depth_duration_stimuli/000493_2014-06-09_21-01-18_260595134347_rgbf000196-resize_3/000493_2014-06-09_21-01-18_260595134347_rgbf000196-resize_3-target.png,1000,3.44,7,2913,1004,feet,jsons/v1_VE1000_randls_75_rotated.json,592495,1938913,25,Woman
57,395277,DepthScenes,duration_manipulation_targetAtFixation,jsons/v1_VE1000_randls_75_rotated.json,http://54.235.29.9/FacialAge/BNav_EC2/DepthDuration/v2_depth_duration_MTurk/v2_DepthDuration_HTML.html#105,105,1366,768,1366,768,8-22-2022,7-13-29,58,depth_duration_stimuli/000742_2014-06-08_18-48-09_260595134347_rgbf000164-resize_4/000742_2014-06-08_18-48-09_260595134347_rgbf000164-resize_4-target.png,1000,4.632,6,3214,1014,feet,jsons/v1_VE1000_randls_75_rotated.json,592495,1938913,25,Woman
58,395277,DepthScenes,duration_manipulation_targetAtFixation,jsons/v1_VE1000_randls_75_rotated.json,http://54.235.29.9/FacialAge/BNav_EC2/DepthDuration/v2_depth_duration_MTurk/v2_DepthDuration_HTML.html#105,105,1366,768,1366,768,8-22-2022,7-13-29,59,depth_duration_stimuli/001066_2014-06-08_22-03-20_260595134347_rgbf000066-resize_4/001066_2014-06-08_22-03-20_260595134347_rgbf000066-resize_4-target.png,1000,4.2330000000000005,8,3508,999,feet,jsons/v1_VE1000_randls_75_rotated.json,592495,1938913,25,Woman
59,395277,DepthScenes,duration_manipulation_targetAtFixation,jsons/v1_VE1000_randls_75_rotated.json,http://54.235.29.9/FacialAge/BNav_EC2/DepthDuration/v2_depth_duration_MTurk/v2_DepthDuration_HTML.html#105,105,1366,768,1366,768,8-22-2022,7-13-29,60,depth_duration_stimuli/002209_2014-06-28_18-36-10_260595134347_rgbf000051-resize_1/002209_2014-06-28_18-36-10_260595134347_rgbf000051-resize_1-target.png,1000,2.057,5,3018,1001,feet,jsons/v1_VE1000_randls_75_rotated.json,592495,1938913,25,Woman
60,395277,DepthScenes,duration_manipulation_targetAtFixation,jsons/v1_VE1000_randls_75_rotated.json,http://54.235.29.9/FacialAge/BNav_EC2/DepthDuration/v2_depth_duration_MTurk/v2_DepthDuration_HTML.html#105,105,1366,768,1366,768,8-22-2022,7-13-29,61,depth_duration_stimuli/002763_2014-06-22_19-13-10_094959634447_rgbf000075-resize_4/002763_2014-06-22_19-13-10_094959634447_rgbf000075-resize_4-target.png,1000,1.68375,7,2950,999,feet,jsons/v1_VE1000_randls_75_rotated.json,592495,1938913,25,Woman
61,395277,DepthScenes,duration_manipulation_targetAtFixation,jsons/v1_VE1000_randls_75_rotated.json,http://54.235.29.9/FacialAge/BNav_EC2/DepthDuration/v2_depth_duration_MTurk/v2_DepthDuration_HTML.html#105,105,1366,768,1366,768,8-22-2022,7-13-29,62,depth_duration_stimuli/000709_2014-06-08_13-51-55_260595134347_rgbf000068-resize_3/000709_2014-06-08_13-51-55_260595134347_rgbf000068-resize_3-target.png,1000,1.8030000000000002,8,3473,995,feet,jsons/v1_VE1000_randls_75_rotated.json,592495,1938913,25,Woman
62,395277,DepthScenes,duration_manipulation_targetAtFixation,jsons/v1_VE1000_randls_75_rotated.json,http://54.235.29.9/FacialAge/BNav_EC2/DepthDuration/v2_depth_duration_MTurk/v2_DepthDuration_HTML.html#105,105,1366,768,1366,768,8-22-2022,7-13-29,63,depth_duration_stimuli/002057_2014-06-24_21-00-13_260595134347_rgbf000120-resize_1/002057_2014-06-24_21-00-13_260595134347_rgbf000120-resize_1-target.png,1000,2.967,8,3509,995,feet,jsons/v1_VE1000_randls_75_rotated.json,592495,1938913,25,Woman
63,395277,DepthScenes,duration_manipulation_targetAtFixation,jsons/v1_VE1000_randls_75_rotated.json,http://54.235.29.9/FacialAge/BNav_EC2/DepthDuration/v2_depth_duration_MTurk/v2_DepthDuration_HTML.html#105,105,1366,768,1366,768,8-22-2022,7-13-29,64,depth_duration_stimuli/001650_2014-06-20_12-09-00_260595134347_rgbf000087-resize_3/001650_2014-06-20_12-09-00_260595134347_rgbf000087-resize_3-target.png,1000,1.9505,3,2800,998,feet,jsons/v1_VE1000_randls_75_rotated.json,592495,1938913,25,Woman
64,395277,DepthScenes,duration_manipulation_targetAtFixation,jsons/v1_VE1000_randls_75_rotated.json,http://54.235.29.9/FacialAge/BNav_EC2/DepthDuration/v2_depth_duration_MTurk/v2_DepthDuration_HTML.html#105,105,1366,768,1366,768,8-22-2022,7-13-29,65,depth_duration_stimuli/000682_2014-06-08_23-14-58_260595134347_rgbf000041-resize_5/000682_2014-06-08_23-14-58_260595134347_rgbf000041-resize_5-target.png,1000,2.7239999999999998,5,2838,999,feet,jsons/v1_VE1000_randls_75_rotated.json,592495,1938913,25,Woman
65,395277,DepthScenes,duration_manipulation_targetAtFixation,jsons/v1_VE1000_randls_75_rotated.json,http://54.235.29.9/FacialAge/BNav_EC2/DepthDuration/v2_depth_duration_MTurk/v2_DepthDuration_HTML.html#105,105,1366,768,1366,768,8-22-2022,7-13-29,66,depth_duration_stimuli/001540_2014-06-20_17-01-05_260595134347_rgbf000086-resize_2/001540_2014-06-20_17-01-05_260595134347_rgbf000086-resize-original.jpg,1000,1.459,0,3054,998,feet,jsons/v1_VE1000_randls_75_rotated.json,592495,1938913,25,Woman
66,395277,DepthScenes,duration_manipulation_targetAtFixation,jsons/v1_VE1000_randls_75_rotated.json,http://54.235.29.9/FacialAge/BNav_EC2/DepthDuration/v2_depth_duration_MTurk/v2_DepthDuration_HTML.html#105,105,1366,768,1366,768,8-22-2022,7-13-29,67,depth_duration_stimuli/000103_2014-05-14_22-01-17_260595134347_rgbf000152-resize_5/000103_2014-05-14_22-01-17_260595134347_rgbf000152-resize_5-target.png,1000,1.993,7,3412,1000,feet,jsons/v1_VE1000_randls_75_rotated.json,592495,1938913,25,Woman
67,395277,DepthScenes,duration_manipulation_targetAtFixation,jsons/v1_VE1000_randls_75_rotated.json,http://54.235.29.9/FacialAge/BNav_EC2/DepthDuration/v2_depth_duration_MTurk/v2_DepthDuration_HTML.html#105,105,1366,768,1366,768,8-22-2022,7-13-29,68,depth_duration_stimuli/001555_2014-06-20_17-12-10_260595134347_rgbf000065-resize_4/001555_2014-06-20_17-12-10_260595134347_rgbf000065-resize_4-target.png,1000,1.633,3,3028,1021,feet,jsons/v1_VE1000_randls_75_rotated.json,592495,1938913,25,Woman
68,395277,DepthScenes,duration_manipulation_targetAtFixation,jsons/v1_VE1000_randls_75_rotated.json,http://54.235.29.9/FacialAge/BNav_EC2/DepthDuration/v2_depth_duration_MTurk/v2_DepthDuration_HTML.html#105,105,1366,768,1366,768,8-22-2022,7-13-29,69,depth_duration_stimuli/003587_2014-05-23_16-48-02_094959634447_rgbf002384-resize_2/003587_2014-05-23_16-48-02_094959634447_rgbf002384-resize_2-target.png,1000,1.357,3,2769,993,feet,jsons/v1_VE1000_randls_75_rotated.json,592495,1938913,25,Woman
69,395277,DepthScenes,duration_manipulation_targetAtFixation,jsons/v1_VE1000_randls_75_rotated.json,http://54.235.29.9/FacialAge/BNav_EC2/DepthDuration/v2_depth_duration_MTurk/v2_DepthDuration_HTML.html#105,105,1366,768,1366,768,8-22-2022,7-13-29,70,depth_duration_stimuli/001167_2014-06-17_15-38-07_260595134347_rgbf000108-resize_0/001167_2014-06-17_15-38-07_260595134347_rgbf000108-resize_0-target.png,1000,1.8505,5,2953,1002,feet,jsons/v1_VE1000_randls_75_rotated.json,592495,1938913,25,Woman
70,395277,DepthScenes,duration_manipulation_targetAtFixation,jsons/v1_VE1000_randls_75_rotated.json,http://54.235.29.9/FacialAge/BNav_EC2/DepthDuration/v2_depth_duration_MTurk/v2_DepthDuration_HTML.html#105,105,1366,768,1366,768,8-22-2022,7-13-29,71,depth_duration_stimuli/000457_2014-06-08_16-52-43_260595134347_rgbf000199-resize_1/000457_2014-06-08_16-52-43_260595134347_rgbf000199-resize_1-target.png,1000,3.6489999999999996,7,2716,1001,feet,jsons/v1_VE1000_randls_75_rotated.json,592495,1938913,25,Woman
71,395277,DepthScenes,duration_manipulation_targetAtFixation,jsons/v1_VE1000_randls_75_rotated.json,http://54.235.29.9/FacialAge/BNav_EC2/DepthDuration/v2_depth_duration_MTurk/v2_DepthDuration_HTML.html#105,105,1366,768,1366,768,8-22-2022,7-13-29,72,depth_duration_stimuli/000929_2014-06-09_16-33-19_260595134347_rgbf000139-resize_0/000929_2014-06-09_16-33-19_260595134347_rgbf000139-resize_0-target.png,1000,2.8680000000000003,5,2843,1001,feet,jsons/v1_VE1000_randls_75_rotated.json,592495,1938913,25,Woman
72,395277,DepthScenes,duration_manipulation_targetAtFixation,jsons/v1_VE1000_randls_75_rotated.json,http://54.235.29.9/FacialAge/BNav_EC2/DepthDuration/v2_depth_duration_MTurk/v2_DepthDuration_HTML.html#105,105,1366,768,1366,768,8-22-2022,7-13-29,73,depth_duration_stimuli/002444_2014-06-28_20-32-08_260595134347_rgbf000027-resize_0/002444_2014-06-28_20-32-08_260595134347_rgbf000027-resize_0-target.png,1000,4.388999999999999,8,2916,1000,feet,jsons/v1_VE1000_randls_75_rotated.json,592495,1938913,25,Woman
73,395277,DepthScenes,duration_manipulation_targetAtFixation,jsons/v1_VE1000_randls_75_rotated.json,http://54.235.29.9/FacialAge/BNav_EC2/DepthDuration/v2_depth_duration_MTurk/v2_DepthDuration_HTML.html#105,105,1366,768,1366,768,8-22-2022,7-13-29,74,depth_duration_stimuli/000436_2014-06-09_22-25-11_260595134347_rgbf000137-resize_1/000436_2014-06-09_22-25-11_260595134347_rgbf000137-resize_1-target.png,1000,4.0705,8,2798,999,feet,jsons/v1_VE1000_randls_75_rotated.json,592495,1938913,25,Woman
74,395277,DepthScenes,duration_manipulation_targetAtFixation,jsons/v1_VE1000_randls_75_rotated.json,http://54.235.29.9/FacialAge/BNav_EC2/DepthDuration/v2_depth_duration_MTurk/v2_DepthDuration_HTML.html#105,105,1366,768,1366,768,8-22-2022,7-13-29,75,depth_duration_stimuli/002639_2014-06-24_14-51-37_094959634447_rgbf000074-resize_4/002639_2014-06-24_14-51-37_094959634447_rgbf000074-resize_4-target.png,1000,4.0375,7,2729,997,feet,jsons/v1_VE1000_randls_75_rotated.json,592495,1938913,25,Woman
75,395277,DepthScenes,duration_manipulation_targetAtFixation,jsons/v1_VE1000_randls_75_rotated.json,http://54.235.29.9/FacialAge/BNav_EC2/DepthDuration/v2_depth_duration_MTurk/v2_DepthDuration_HTML.html#105,105,1366,768,1366,768,8-22-2022,7-13-29,76,depth_duration_stimuli/003292_2014-05-14_21-53-49_094959634447_rgbf000100-resize_2/003292_2014-05-14_21-53-49_094959634447_rgbf000100-resize_2-target.png,1000,3.4815,5,2975,995,feet,jsons/v1_VE1000_randls_75_rotated.json,592495,1938913,25,Woman
76,395277,DepthScenes,duration_manipulation_targetAtFixation,jsons/v1_VE1000_randls_75_rotated.json,http://54.235.29.9/FacialAge/BNav_EC2/DepthDuration/v2_depth_duration_MTurk/v2_DepthDuration_HTML.html#105,105,1366,768,1366,768,8-22-2022,7-13-29,77,depth_duration_stimuli/002103_2014-06-25_20-00-40_260595134347_rgbf000049-resize_0/002103_2014-06-25_20-00-40_260595134347_rgbf000049-resize_0-target.png,1000,4.105,8,2934,993,feet,jsons/v1_VE1000_randls_75_rotated.json,592495,1938913,25,Woman
77,395277,DepthScenes,duration_manipulation_targetAtFixation,jsons/v1_VE1000_randls_75_rotated.json,http://54.235.29.9/FacialAge/BNav_EC2/DepthDuration/v2_depth_duration_MTurk/v2_DepthDuration_HTML.html#105,105,1366,768,1366,768,8-22-2022,7-13-29,78,depth_duration_stimuli/002039_2014-06-24_20-22-38_260595134347_rgbf000084-resize_1/002039_2014-06-24_20-22-38_260595134347_rgbf000084-resize_1-target.png,1000,4.408,8,2872,999,feet,jsons/v1_VE1000_randls_75_rotated.json,592495,1938913,25,Woman
78,395277,DepthScenes,duration_manipulation_targetAtFixation,jsons/v1_VE1000_randls_75_rotated.json,http://54.235.29.9/FacialAge/BNav_EC2/DepthDuration/v2_depth_duration_MTurk/v2_DepthDuration_HTML.html#105,105,1366,768,1366,768,8-22-2022,7-13-29,79,depth_duration_stimuli/002660_2014-06-13_15-44-18_094959634447_rgbf001878-resize_2/002660_2014-06-13_15-44-18_094959634447_rgbf001878-resize_2-target.png,1000,3.576,6,2942,962,feet,jsons/v1_VE1000_randls_75_rotated.json,592495,1938913,25,Woman
79,395277,DepthScenes,duration_manipulation_targetAtFixation,jsons/v1_VE1000_randls_75_rotated.json,http://54.235.29.9/FacialAge/BNav_EC2/DepthDuration/v2_depth_duration_MTurk/v2_DepthDuration_HTML.html#105,105,1366,768,1366,768,8-22-2022,7-13-29,80,depth_duration_stimuli/002153_2014-06-25_21-27-18_260595134347_rgbf000038-resize_5/002153_2014-06-25_21-27-18_260595134347_rgbf000038-resize_5-target.png,1000,2.505,5,2856,999,feet,jsons/v1_VE1000_randls_75_rotated.json,592495,1938913,25,Woman
80,395277,DepthScenes,duration_manipulation_targetAtFixation,jsons/v1_VE1000_randls_75_rotated.json,http://54.235.29.9/FacialAge/BNav_EC2/DepthDuration/v2_depth_duration_MTurk/v2_DepthDuration_HTML.html#105,105,1366,768,1366,768,8-22-2022,7-13-29,81,depth_duration_stimuli/000691_2014-06-08_13-08-50_260595134347_rgbf000132-resize_3/000691_2014-06-08_13-08-50_260595134347_rgbf000132-resize_3-target.png,1000,4.1530000000000005,7,3072,1000,feet,jsons/v1_VE1000_randls_75_rotated.json,592495,1938913,25,Woman
81,395277,DepthScenes,duration_manipulation_targetAtFixation,jsons/v1_VE1000_randls_75_rotated.json,http://54.235.29.9/FacialAge/BNav_EC2/DepthDuration/v2_depth_duration_MTurk/v2_DepthDuration_HTML.html#105,105,1366,768,1366,768,8-22-2022,7-13-29,82,depth_duration_stimuli/002213_2014-06-28_18-37-58_260595134347_rgbf000055-resize_1/002213_2014-06-28_18-37-58_260595134347_rgbf000055-resize_1-target.png,1000,3.62,8,2976,995,feet,jsons/v1_VE1000_randls_75_rotated.json,592495,1938913,25,Woman
82,395277,DepthScenes,duration_manipulation_targetAtFixation,jsons/v1_VE1000_randls_75_rotated.json,http://54.235.29.9/FacialAge/BNav_EC2/DepthDuration/v2_depth_duration_MTurk/v2_DepthDuration_HTML.html#105,105,1366,768,1366,768,8-22-2022,7-13-29,83,depth_duration_stimuli/002467_2014-06-28_20-38-07_260595134347_rgbf000026-resize_2/002467_2014-06-28_20-38-07_260595134347_rgbf000026-resize_2-target.png,1000,4.742,6,2967,978,feet,jsons/v1_VE1000_randls_75_rotated.json,592495,1938913,25,Woman
83,395277,DepthScenes,duration_manipulation_targetAtFixation,jsons/v1_VE1000_randls_75_rotated.json,http://54.235.29.9/FacialAge/BNav_EC2/DepthDuration/v2_depth_duration_MTurk/v2_DepthDuration_HTML.html#105,105,1366,768,1366,768,8-22-2022,7-13-29,84,depth_duration_stimuli/002570_2014-06-24_13-59-54_094959634447_rgbf000059-resize_0/002570_2014-06-24_13-59-54_094959634447_rgbf000059-resize_0-target.png,1000,4.037,7,2739,1001,feet,jsons/v1_VE1000_randls_75_rotated.json,592495,1938913,25,Woman
84,395277,DepthScenes,duration_manipulation_targetAtFixation,jsons/v1_VE1000_randls_75_rotated.json,http://54.235.29.9/FacialAge/BNav_EC2/DepthDuration/v2_depth_duration_MTurk/v2_DepthDuration_HTML.html#105,105,1366,768,1366,768,8-22-2022,7-13-29,85,depth_duration_stimuli/000734_2014-06-08_17-39-11_260595134347_rgbf000128-resize_2/000734_2014-06-08_17-39-11_260595134347_rgbf000128-resize_2-target.png,1000,4.098,8,2725,998,feet,jsons/v1_VE1000_randls_75_rotated.json,592495,1938913,25,Woman
85,395277,DepthScenes,duration_manipulation_targetAtFixation,jsons/v1_VE1000_randls_75_rotated.json,http://54.235.29.9/FacialAge/BNav_EC2/DepthDuration/v2_depth_duration_MTurk/v2_DepthDuration_HTML.html#105,105,1366,768,1366,768,8-22-2022,7-13-29,86,depth_duration_stimuli/000739_2014-06-08_18-45-58_260595134347_rgbf000068-resize_1/000739_2014-06-08_18-45-58_260595134347_rgbf000068-resize_1-target.png,1000,3.534,7,2940,1013,feet,jsons/v1_VE1000_randls_75_rotated.json,592495,1938913,25,Woman
86,395277,DepthScenes,duration_manipulation_targetAtFixation,jsons/v1_VE1000_randls_75_rotated.json,http://54.235.29.9/FacialAge/BNav_EC2/DepthDuration/v2_depth_duration_MTurk/v2_DepthDuration_HTML.html#105,105,1366,768,1366,768,8-22-2022,7-13-29,87,depth_duration_stimuli/001032_2014-06-08_13-23-17_260595134347_rgbf000021-resize_3/001032_2014-06-08_13-23-17_260595134347_rgbf000021-resize_3-target.png,1000,3.2725,5,3456,999,feet,jsons/v1_VE1000_randls_75_rotated.json,592495,1938913,25,Woman
87,395277,DepthScenes,duration_manipulation_targetAtFixation,jsons/v1_VE1000_randls_75_rotated.json,http://54.235.29.9/FacialAge/BNav_EC2/DepthDuration/v2_depth_duration_MTurk/v2_DepthDuration_HTML.html#105,105,1366,768,1366,768,8-22-2022,7-13-29,88,depth_duration_stimuli/001059_2014-06-08_21-53-27_260595134347_rgbf000061-resize_4/001059_2014-06-08_21-53-27_260595134347_rgbf000061-resize_4-target.png,1000,2.4185,6,2984,1001,feet,jsons/v1_VE1000_randls_75_rotated.json,592495,1938913,25,Woman
88,395277,DepthScenes,duration_manipulation_targetAtFixation,jsons/v1_VE1000_randls_75_rotated.json,http://54.235.29.9/FacialAge/BNav_EC2/DepthDuration/v2_depth_duration_MTurk/v2_DepthDuration_HTML.html#105,105,1366,768,1366,768,8-22-2022,7-13-29,89,depth_duration_stimuli/003495_2014-05-21_16-01-51_094959634447_rgbf000100-resize_3/003495_2014-05-21_16-01-51_094959634447_rgbf000100-resize_3-target.png,1000,1.6255,3,2882,987,feet,jsons/v1_VE1000_randls_75_rotated.json,592495,1938913,25,Woman
89,395277,DepthScenes,duration_manipulation_targetAtFixation,jsons/v1_VE1000_randls_75_rotated.json,http://54.235.29.9/FacialAge/BNav_EC2/DepthDuration/v2_depth_duration_MTurk/v2_DepthDuration_HTML.html#105,105,1366,768,1366,768,8-22-2022,7-13-29,90,depth_duration_stimuli/001244_2014-06-17_16-47-45_260595134347_rgbf000030-resize_4/001244_2014-06-17_16-47-45_260595134347_rgbf000030-resize_4-target.png,1000,2.0425,7,3021,993,feet,jsons/v1_VE1000_randls_75_rotated.json,592495,1938913,25,Woman
90,395277,DepthScenes,duration_manipulation_targetAtFixation,jsons/v1_VE1000_randls_75_rotated.json,http://54.235.29.9/FacialAge/BNav_EC2/DepthDuration/v2_depth_duration_MTurk/v2_DepthDuration_HTML.html#105,105,1366,768,1366,768,8-22-2022,7-13-29,91,depth_duration_stimuli/003010_2014-06-15_12-54-35_094959634447_rgbf000112-resize_0/003010_2014-06-15_12-54-35_094959634447_rgbf000112-resize_0-target.png,1000,3.1185,8,2837,997,feet,jsons/v1_VE1000_randls_75_rotated.json,592495,1938913,25,Woman
91,395277,DepthScenes,duration_manipulation_targetAtFixation,jsons/v1_VE1000_randls_75_rotated.json,http://54.235.29.9/FacialAge/BNav_EC2/DepthDuration/v2_depth_duration_MTurk/v2_DepthDuration_HTML.html#105,105,1366,768,1366,768,8-22-2022,7-13-29,92,depth_duration_stimuli/001810_2014-06-26_20-51-35_260595134347_rgbf000040-resize_3/001810_2014-06-26_20-51-35_260595134347_rgbf000040-resize_3-target.png,1000,2.2525,5,2930,987,feet,jsons/v1_VE1000_randls_75_rotated.json,592495,1938913,25,Woman
92,395277,DepthScenes,duration_manipulation_targetAtFixation,jsons/v1_VE1000_randls_75_rotated.json,http://54.235.29.9/FacialAge/BNav_EC2/DepthDuration/v2_depth_duration_MTurk/v2_DepthDuration_HTML.html#105,105,1366,768,1366,768,8-22-2022,7-13-29,93,depth_duration_stimuli/001584_2014-06-20_11-07-43_260595134347_rgbf000002-resize_1/001584_2014-06-20_11-07-43_260595134347_rgbf000002-resize_1-target.png,1000,3.53,8,2887,997,feet,jsons/v1_VE1000_randls_75_rotated.json,592495,1938913,25,Woman
93,395277,DepthScenes,duration_manipulation_targetAtFixation,jsons/v1_VE1000_randls_75_rotated.json,http://54.235.29.9/FacialAge/BNav_EC2/DepthDuration/v2_depth_duration_MTurk/v2_DepthDuration_HTML.html#105,105,1366,768,1366,768,8-22-2022,7-13-29,94,depth_duration_stimuli/003621_2014-05-23_18-06-08_094959634447_rgbf000101-resize_1/003621_2014-05-23_18-06-08_094959634447_rgbf000101-resize_1-target.png,1000,3.9835,8,2933,1001,feet,jsons/v1_VE1000_randls_75_rotated.json,592495,1938913,25,Woman
94,395277,DepthScenes,duration_manipulation_targetAtFixation,jsons/v1_VE1000_randls_75_rotated.json,http://54.235.29.9/FacialAge/BNav_EC2/DepthDuration/v2_depth_duration_MTurk/v2_DepthDuration_HTML.html#105,105,1366,768,1366,768,8-22-2022,7-13-29,95,depth_duration_stimuli/002637_2014-06-24_14-51-13_094959634447_rgbf000066-resize_4/002637_2014-06-24_14-51-13_094959634447_rgbf000066-resize_4-target.png,1000,1.9955,7,2917,1005,feet,jsons/v1_VE1000_randls_75_rotated.json,592495,1938913,25,Woman
95,395277,DepthScenes,duration_manipulation_targetAtFixation,jsons/v1_VE1000_randls_75_rotated.json,http://54.235.29.9/FacialAge/BNav_EC2/DepthDuration/v2_depth_duration_MTurk/v2_DepthDuration_HTML.html#105,105,1366,768,1366,768,8-22-2022,7-13-29,96,depth_duration_stimuli/003534_2014-05-22_15-06-10_094959634447_rgbf000102-resize_4/003534_2014-05-22_15-06-10_094959634447_rgbf000102-resize_4-target.png,1000,1.426,3,2952,1010,feet,jsons/v1_VE1000_randls_75_rotated.json,592495,1938913,25,Woman
96,395277,DepthScenes,duration_manipulation_targetAtFixation,jsons/v1_VE1000_randls_75_rotated.json,http://54.235.29.9/FacialAge/BNav_EC2/DepthDuration/v2_depth_duration_MTurk/v2_DepthDuration_HTML.html#105,105,1366,768,1366,768,8-22-2022,7-13-29,97,depth_duration_stimuli/002199_2014-06-28_18-33-56_260595134347_rgbf000074-resize_0/002199_2014-06-28_18-33-56_260595134347_rgbf000074-resize_0-target.png,1000,1.996,5,2941,1003,feet,jsons/v1_VE1000_randls_75_rotated.json,592495,1938913,25,Woman
97,395277,DepthScenes,duration_manipulation_targetAtFixation,jsons/v1_VE1000_randls_75_rotated.json,http://54.235.29.9/FacialAge/BNav_EC2/DepthDuration/v2_depth_duration_MTurk/v2_DepthDuration_HTML.html#105,105,1366,768,1366,768,8-22-2022,7-13-29,98,depth_duration_stimuli/001056_2014-06-08_18-46-44_260595134347_rgbf000068-resize_0/001056_2014-06-08_18-46-44_260595134347_rgbf000068-resize_0-target.png,1000,2.6625,7,2867,974,feet,jsons/v1_VE1000_randls_75_rotated.json,592495,1938913,25,Woman
98,395277,DepthScenes,duration_manipulation_targetAtFixation,jsons/v1_VE1000_randls_75_rotated.json,http://54.235.29.9/FacialAge/BNav_EC2/DepthDuration/v2_depth_duration_MTurk/v2_DepthDuration_HTML.html#105,105,1366,768,1366,768,8-22-2022,7-13-29,99,depth_duration_stimuli/001222_2014-06-17_16-24-06_260595134347_rgbf000073-resize_0/001222_2014-06-17_16-24-06_260595134347_rgbf000073-resize-original.jpg,1000,1.4385,0,2950,989,feet,jsons/v1_VE1000_randls_75_rotated.json,592495,1938913,25,Woman
99,395277,DepthScenes,duration_manipulation_targetAtFixation,jsons/v1_VE1000_randls_75_rotated.json,http://54.235.29.9/FacialAge/BNav_EC2/DepthDuration/v2_depth_duration_MTurk/v2_DepthDuration_HTML.html#105,105,1366,768,1366,768,8-22-2022,7-13-29,100,depth_duration_stimuli/000665_2014-06-09_20-42-35_260595134347_rgbf000110-resize_1/000665_2014-06-09_20-42-35_260595134347_rgbf000110-resize_1-target.png,1000,3.057,5,4169,988,feet,jsons/v1_VE1000_randls_75_rotated.json,592495,1938913,25,Woman
100,395277,DepthScenes,duration_manipulation_targetAtFixation,jsons/v1_VE1000_randls_75_rotated.json,http://54.235.29.9/FacialAge/BNav_EC2/DepthDuration/v2_depth_duration_MTurk/v2_DepthDuration_HTML.html#105,105,1366,768,1366,768,8-22-2022,7-13-29,101,depth_duration_stimuli/001150_2014-06-17_15-27-34_260595134347_rgbf000108-resize_2/001150_2014-06-17_15-27-34_260595134347_rgbf000108-resize_2-target.png,1000,4.0325,7,3325,1005,feet,jsons/v1_VE1000_randls_75_rotated.json,592495,1938913,25,Woman
101,395277,DepthScenes,duration_manipulation_targetAtFixation,jsons/v1_VE1000_randls_75_rotated.json,http://54.235.29.9/FacialAge/BNav_EC2/DepthDuration/v2_depth_duration_MTurk/v2_DepthDuration_HTML.html#105,105,1366,768,1366,768,8-22-2022,7-13-29,102,depth_duration_stimuli/003228_2014-05-14_13-42-35_094959634447_rgbf000101-resize_1/003228_2014-05-14_13-42-35_094959634447_rgbf000101-resize_1-target.png,1000,1.9680000000000002,6,2885,1039,feet,jsons/v1_VE1000_randls_75_rotated.json,592495,1938913,25,Woman
102,395277,DepthScenes,duration_manipulation_targetAtFixation,jsons/v1_VE1000_randls_75_rotated.json,http://54.235.29.9/FacialAge/BNav_EC2/DepthDuration/v2_depth_duration_MTurk/v2_DepthDuration_HTML.html#105,105,1366,768,1366,768,8-22-2022,7-13-29,103,depth_duration_stimuli/002600_2014-06-24_14-27-04_094959634447_rgbf000074-resize_2/002600_2014-06-24_14-27-04_094959634447_rgbf000074-resize_2-target.png,1000,2.7575,7,2901,990,feet,jsons/v1_VE1000_randls_75_rotated.json,592495,1938913,25,Woman
103,395277,DepthScenes,duration_manipulation_targetAtFixation,jsons/v1_VE1000_randls_75_rotated.json,http://54.235.29.9/FacialAge/BNav_EC2/DepthDuration/v2_depth_duration_MTurk/v2_DepthDuration_HTML.html#105,105,1366,768,1366,768,8-22-2022,7-13-29,104,depth_duration_stimuli/001132_2014-06-17_14-48-54_260595134347_rgbf000100-resize_2/001132_2014-06-17_14-48-54_260595134347_rgbf000100-resize_2-target.png,1000,3.753,8,3147,1006,feet,jsons/v1_VE1000_randls_75_rotated.json,592495,1938913,25,Woman
104,395277,DepthScenes,duration_manipulation_targetAtFixation,jsons/v1_VE1000_randls_75_rotated.json,http://54.235.29.9/FacialAge/BNav_EC2/DepthDuration/v2_depth_duration_MTurk/v2_DepthDuration_HTML.html#105,105,1366,768,1366,768,8-22-2022,7-13-29,105,depth_duration_stimuli/001133_2014-06-17_14-49-16_260595134347_rgbf000100-resize_0/001133_2014-06-17_14-49-16_260595134347_rgbf000100-resize_0-target.png,1000,4.2115,7,2827,1005,feet,jsons/v1_VE1000_randls_75_rotated.json,592495,1938913,25,Woman
105,395277,DepthScenes,duration_manipulation_targetAtFixation,jsons/v1_VE1000_randls_75_rotated.json,http://54.235.29.9/FacialAge/BNav_EC2/DepthDuration/v2_depth_duration_MTurk/v2_DepthDuration_HTML.html#105,105,1366,768,1366,768,8-22-2022,7-13-29,106,depth_duration_stimuli/002344_2014-06-28_20-06-29_260595134347_rgbf000030-resize_1/002344_2014-06-28_20-06-29_260595134347_rgbf000030-resize_1-target.png,1000,1.5795,3,2756,995,feet,jsons/v1_VE1000_randls_75_rotated.json,592495,1938913,25,Woman
106,395277,DepthScenes,duration_manipulation_targetAtFixation,jsons/v1_VE1000_randls_75_rotated.json,http://54.235.29.9/FacialAge/BNav_EC2/DepthDuration/v2_depth_duration_MTurk/v2_DepthDuration_HTML.html#105,105,1366,768,1366,768,8-22-2022,7-13-29,107,depth_duration_stimuli/002725_2014-06-22_11-47-51_094959634447_rgbf000070-resize_1/002725_2014-06-22_11-47-51_094959634447_rgbf000070-resize_1-target.png,1000,2.195,7,3232,997,feet,jsons/v1_VE1000_randls_75_rotated.json,592495,1938913,25,Woman
107,395277,DepthScenes,duration_manipulation_targetAtFixation,jsons/v1_VE1000_randls_75_rotated.json,http://54.235.29.9/FacialAge/BNav_EC2/DepthDuration/v2_depth_duration_MTurk/v2_DepthDuration_HTML.html#105,105,1366,768,1366,768,8-22-2022,7-13-29,108,depth_duration_stimuli/002750_2014-06-22_19-08-03_094959634447_rgbf000094-resize_4/002750_2014-06-22_19-08-03_094959634447_rgbf000094-resize_4-target.png,1000,2.354,6,4051,971,feet,jsons/v1_VE1000_randls_75_rotated.json,592495,1938913,25,Woman
108,395277,DepthScenes,duration_manipulation_targetAtFixation,jsons/v1_VE1000_randls_75_rotated.json,http://54.235.29.9/FacialAge/BNav_EC2/DepthDuration/v2_depth_duration_MTurk/v2_DepthDuration_HTML.html#105,105,1366,768,1366,768,8-22-2022,7-13-29,109,depth_duration_stimuli/002549_2014-06-24_13-41-39_094959634447_rgbf000022-resize_3/002549_2014-06-24_13-41-39_094959634447_rgbf000022-resize_3-target.png,1000,1.476,5,2961,1004,feet,jsons/v1_VE1000_randls_75_rotated.json,592495,1938913,25,Woman
109,395277,DepthScenes,duration_manipulation_targetAtFixation,jsons/v1_VE1000_randls_75_rotated.json,http://54.235.29.9/FacialAge/BNav_EC2/DepthDuration/v2_depth_duration_MTurk/v2_DepthDuration_HTML.html#105,105,1366,768,1366,768,8-22-2022,7-13-29,110,depth_duration_stimuli/002875_2014-06-01_15-19-00_094959634447_rgbf000151-resize_1/002875_2014-06-01_15-19-00_094959634447_rgbf000151-resize_1-target.png,1000,1.9675,8,2849,994,feet,jsons/v1_VE1000_randls_75_rotated.json,592495,1938913,25,Woman
110,395277,DepthScenes,duration_manipulation_targetAtFixation,jsons/v1_VE1000_randls_75_rotated.json,http://54.235.29.9/FacialAge/BNav_EC2/DepthDuration/v2_depth_duration_MTurk/v2_DepthDuration_HTML.html#105,105,1366,768,1366,768,8-22-2022,7-13-29,111,depth_duration_stimuli/001011_2014-06-08_23-18-54_260595134347_rgbf000044-resize_4/001011_2014-06-08_23-18-54_260595134347_rgbf000044-resize_4-target.png,1000,2.4730000000000003,7,3734,997,feet,jsons/v1_VE1000_randls_75_rotated.json,592495,1938913,25,Woman
111,395277,DepthScenes,duration_manipulation_targetAtFixation,jsons/v1_VE1000_randls_75_rotated.json,http://54.235.29.9/FacialAge/BNav_EC2/DepthDuration/v2_depth_duration_MTurk/v2_DepthDuration_HTML.html#105,105,1366,768,1366,768,8-22-2022,7-13-29,112,depth_duration_stimuli/002657_2014-06-13_15-29-54_094959634447_rgbf000150-resize_1/002657_2014-06-13_15-29-54_094959634447_rgbf000150-resize_1-target.png,1000,4.919,6,3128,1008,feet,jsons/v1_VE1000_randls_75_rotated.json,592495,1938913,25,Woman
112,395277,DepthScenes,duration_manipulation_targetAtFixation,jsons/v1_VE1000_randls_75_rotated.json,http://54.235.29.9/FacialAge/BNav_EC2/DepthDuration/v2_depth_duration_MTurk/v2_DepthDuration_HTML.html#105,105,1366,768,1366,768,8-22-2022,7-13-29,113,depth_duration_stimuli/002375_2014-06-28_20-13-44_260595134347_rgbf000032-resize_1/002375_2014-06-28_20-13-44_260595134347_rgbf000032-resize_1-target.png,1000,4.0175,7,2779,992,feet,jsons/v1_VE1000_randls_75_rotated.json,592495,1938913,25,Woman
113,395277,DepthScenes,duration_manipulation_targetAtFixation,jsons/v1_VE1000_randls_75_rotated.json,http://54.235.29.9/FacialAge/BNav_EC2/DepthDuration/v2_depth_duration_MTurk/v2_DepthDuration_HTML.html#105,105,1366,768,1366,768,8-22-2022,7-13-29,114,depth_duration_stimuli/002995_2014-06-15_12-31-26_094959634447_rgbf000150-resize_1/002995_2014-06-15_12-31-26_094959634447_rgbf000150-resize_1-target.png,1000,3.8360000000000003,8,2819,994,feet,jsons/v1_VE1000_randls_75_rotated.json,592495,1938913,25,Woman
114,395277,DepthScenes,duration_manipulation_targetAtFixation,jsons/v1_VE1000_randls_75_rotated.json,http://54.235.29.9/FacialAge/BNav_EC2/DepthDuration/v2_depth_duration_MTurk/v2_DepthDuration_HTML.html#105,105,1366,768,1366,768,8-22-2022,7-13-29,115,depth_duration_stimuli/002748_2014-06-22_19-07-22_094959634447_rgbf000078-resize_1/002748_2014-06-22_19-07-22_094959634447_rgbf000078-resize_1-target.png,1000,4.6705,9,3026,1011,feet,jsons/v1_VE1000_randls_75_rotated.json,592495,1938913,25,Woman
115,395277,DepthScenes,duration_manipulation_targetAtFixation,jsons/v1_VE1000_randls_75_rotated.json,http://54.235.29.9/FacialAge/BNav_EC2/DepthDuration/v2_depth_duration_MTurk/v2_DepthDuration_HTML.html#105,105,1366,768,1366,768,8-22-2022,7-13-29,116,depth_duration_stimuli/003081_2014-06-15_15-19-16_094959634447_rgbf000150-resize_1/003081_2014-06-15_15-19-16_094959634447_rgbf000150-resize_1-target.png,1000,3.9125,7,4935,1005,feet,jsons/v1_VE1000_randls_75_rotated.json,592495,1938913,25,Woman
116,395277,DepthScenes,duration_manipulation_targetAtFixation,jsons/v1_VE1000_randls_75_rotated.json,http://54.235.29.9/FacialAge/BNav_EC2/DepthDuration/v2_depth_duration_MTurk/v2_DepthDuration_HTML.html#105,105,1366,768,1366,768,8-22-2022,7-13-29,117,depth_duration_stimuli/001417_2014-06-19_16-25-36_260595134347_rgbf000115-resize_5/001417_2014-06-19_16-25-36_260595134347_rgbf000115-resize_5-target.png,1000,4.6255,8,3198,998,feet,jsons/v1_VE1000_randls_75_rotated.json,592495,1938913,25,Woman
117,395277,DepthScenes,duration_manipulation_targetAtFixation,jsons/v1_VE1000_randls_75_rotated.json,http://54.235.29.9/FacialAge/BNav_EC2/DepthDuration/v2_depth_duration_MTurk/v2_DepthDuration_HTML.html#105,105,1366,768,1366,768,8-22-2022,7-13-29,118,depth_duration_stimuli/000556_2014-06-09_22-42-56_260595134347_rgbf000214-resize_1/000556_2014-06-09_22-42-56_260595134347_rgbf000214-resize_1-target.png,1000,4.8415,7,2843,1000,feet,jsons/v1_VE1000_randls_75_rotated.json,592495,1938913,25,Woman
118,395277,DepthScenes,duration_manipulation_targetAtFixation,jsons/v1_VE1000_randls_75_rotated.json,http://54.235.29.9/FacialAge/BNav_EC2/DepthDuration/v2_depth_duration_MTurk/v2_DepthDuration_HTML.html#105,105,1366,768,1366,768,8-22-2022,7-13-29,119,depth_duration_stimuli/001158_2014-06-17_15-32-16_260595134347_rgbf000138-resize_2/001158_2014-06-17_15-32-16_260595134347_rgbf000138-resize_2-target.png,1000,4.5315,8,2896,998,feet,jsons/v1_VE1000_randls_75_rotated.json,592495,1938913,25,Woman
119,395277,DepthScenes,duration_manipulation_targetAtFixation,jsons/v1_VE1000_randls_75_rotated.json,http://54.235.29.9/FacialAge/BNav_EC2/DepthDuration/v2_depth_duration_MTurk/v2_DepthDuration_HTML.html#105,105,1366,768,1366,768,8-22-2022,7-13-29,120,depth_duration_stimuli/000787_2014-06-08_22-33-53_260595134347_rgbf000175-resize_1/000787_2014-06-08_22-33-53_260595134347_rgbf000175-resize-original.jpg,1000,4.784,0,4255,1002,feet,jsons/v1_VE1000_randls_75_rotated.json,592495,1938913,25,Woman
120,395277,DepthScenes,duration_manipulation_targetAtFixation,jsons/v1_VE1000_randls_75_rotated.json,http://54.235.29.9/FacialAge/BNav_EC2/DepthDuration/v2_depth_duration_MTurk/v2_DepthDuration_HTML.html#105,105,1366,768,1366,768,8-22-2022,7-13-29,121,depth_duration_stimuli/001214_2014-06-17_16-13-55_260595134347_rgbf000111-resize_0/001214_2014-06-17_16-13-55_260595134347_rgbf000111-resize_0-target.png,1000,2.6505,5,2921,1012,feet,jsons/v1_VE1000_randls_75_rotated.json,592495,1938913,25,Woman
121,395277,DepthScenes,duration_manipulation_targetAtFixation,jsons/v1_VE1000_randls_75_rotated.json,http://54.235.29.9/FacialAge/BNav_EC2/DepthDuration/v2_depth_duration_MTurk/v2_DepthDuration_HTML.html#105,105,1366,768,1366,768,8-22-2022,7-13-29,122,depth_duration_stimuli/000810_2014-06-08_17-20-01_260595134347_rgbf000105-resize_0/000810_2014-06-08_17-20-01_260595134347_rgbf000105-resize_0-target.png,1000,1.4865,7,2845,996,feet,jsons/v1_VE1000_randls_75_rotated.json,592495,1938913,25,Woman
122,395277,DepthScenes,duration_manipulation_targetAtFixation,jsons/v1_VE1000_randls_75_rotated.json,http://54.235.29.9/FacialAge/BNav_EC2/DepthDuration/v2_depth_duration_MTurk/v2_DepthDuration_HTML.html#105,105,1366,768,1366,768,8-22-2022,7-13-29,123,depth_duration_stimuli/000635_2014-06-08_16-38-42_260595134347_rgbf000106-resize_1/000635_2014-06-08_16-38-42_260595134347_rgbf000106-resize_1-target.png,1000,2.074,8,4069,1059,feet,jsons/v1_VE1000_randls_75_rotated.json,592495,1938913,25,Woman
123,395277,DepthScenes,duration_manipulation_targetAtFixation,jsons/v1_VE1000_randls_75_rotated.json,http://54.235.29.9/FacialAge/BNav_EC2/DepthDuration/v2_depth_duration_MTurk/v2_DepthDuration_HTML.html#105,105,1366,768,1366,768,8-22-2022,7-13-29,124,depth_duration_stimuli/002279_2014-06-28_18-55-32_260595134347_rgbf000040-resize_5/002279_2014-06-28_18-55-32_260595134347_rgbf000040-resize_5-target.png,1000,1.5043333333333,5,3042,985,feet,jsons/v1_VE1000_randls_75_rotated.json,592495,1938913,25,Woman
124,395277,DepthScenes,duration_manipulation_targetAtFixation,jsons/v1_VE1000_randls_75_rotated.json,http://54.235.29.9/FacialAge/BNav_EC2/DepthDuration/v2_depth_duration_MTurk/v2_DepthDuration_HTML.html#105,105,1366,768,1366,768,8-22-2022,7-13-29,125,depth_duration_stimuli/000109_2014-05-14_23-41-52_260595134347_rgbf000035-resize_9/000109_2014-05-14_23-41-52_260595134347_rgbf000035-resize_9-target.png,1000,1.3545,5,2957,998,feet,jsons/v1_VE1000_randls_75_rotated.json,592495,1938913,25,Woman
125,395277,DepthScenes,duration_manipulation_targetAtFixation,jsons/v1_VE1000_randls_75_rotated.json,http://54.235.29.9/FacialAge/BNav_EC2/DepthDuration/v2_depth_duration_MTurk/v2_DepthDuration_HTML.html#105,105,1366,768,1366,768,8-22-2022,7-13-29,126,depth_duration_stimuli/000470_2014-06-09_19-42-40_260595134347_rgbf000094-resize_1/000470_2014-06-09_19-42-40_260595134347_rgbf000094-resize_1-target.png,1000,1.831,6,2853,997,feet,jsons/v1_VE1000_randls_75_rotated.json,592495,1938913,25,Woman
126,395277,DepthScenes,duration_manipulation_targetAtFixation,jsons/v1_VE1000_randls_75_rotated.json,http://54.235.29.9/FacialAge/BNav_EC2/DepthDuration/v2_depth_duration_MTurk/v2_DepthDuration_HTML.html#105,105,1366,768,1366,768,8-22-2022,7-13-29,127,depth_duration_stimuli/001136_2014-06-17_15-19-41_260595134347_rgbf000076-resize_3/001136_2014-06-17_15-19-41_260595134347_rgbf000076-resize_3-target.png,1000,1.8655,8,3810,1001,feet,jsons/v1_VE1000_randls_75_rotated.json,592495,1938913,25,Woman
127,395277,DepthScenes,duration_manipulation_targetAtFixation,jsons/v1_VE1000_randls_75_rotated.json,http://54.235.29.9/FacialAge/BNav_EC2/DepthDuration/v2_depth_duration_MTurk/v2_DepthDuration_HTML.html#105,105,1366,768,1366,768,8-22-2022,7-13-29,128,depth_duration_stimuli/001164_2014-06-17_15-35-46_260595134347_rgbf000085-resize_3/001164_2014-06-17_15-35-46_260595134347_rgbf000085-resize_3-target.png,1000,2.354,8,3003,974,feet,jsons/v1_VE1000_randls_75_rotated.json,592495,1938913,25,Woman
128,395277,DepthScenes,duration_manipulation_targetAtFixation,jsons/v1_VE1000_randls_75_rotated.json,http://54.235.29.9/FacialAge/BNav_EC2/DepthDuration/v2_depth_duration_MTurk/v2_DepthDuration_HTML.html#105,105,1366,768,1366,768,8-22-2022,7-13-29,129,depth_duration_stimuli/003423_2014-05-21_10-23-26_094959634447_rgbf002665-resize_2/003423_2014-05-21_10-23-26_094959634447_rgbf002665-resize_2-target.png,1000,3.2575,7,3755,994,feet,jsons/v1_VE1000_randls_75_rotated.json,592495,1938913,25,Woman
129,395277,DepthScenes,duration_manipulation_targetAtFixation,jsons/v1_VE1000_randls_75_rotated.json,http://54.235.29.9/FacialAge/BNav_EC2/DepthDuration/v2_depth_duration_MTurk/v2_DepthDuration_HTML.html#105,105,1366,768,1366,768,8-22-2022,7-13-29,130,depth_duration_stimuli/002905_2014-06-03_18-04-43_094959634447_rgbf000151-resize_2/002905_2014-06-03_18-04-43_094959634447_rgbf000151-resize_2-target.png,1000,2.0295,6,3066,988,feet,jsons/v1_VE1000_randls_75_rotated.json,592495,1938913,25,Woman
130,395277,DepthScenes,duration_manipulation_targetAtFixation,jsons/v1_VE1000_randls_75_rotated.json,http://54.235.29.9/FacialAge/BNav_EC2/DepthDuration/v2_depth_duration_MTurk/v2_DepthDuration_HTML.html#105,105,1366,768,1366,768,8-22-2022,7-13-29,131,depth_duration_stimuli/000137_2014-05-20_17-04-49_260595134347_rgbf000120-resize_1/000137_2014-05-20_17-04-49_260595134347_rgbf000120-resize_1-target.png,1000,3.786,8,3017,993,feet,jsons/v1_VE1000_randls_75_rotated.json,592495,1938913,25,Woman
131,395277,DepthScenes,duration_manipulation_targetAtFixation,jsons/v1_VE1000_randls_75_rotated.json,http://54.235.29.9/FacialAge/BNav_EC2/DepthDuration/v2_depth_duration_MTurk/v2_DepthDuration_HTML.html#105,105,1366,768,1366,768,8-22-2022,7-13-29,132,depth_duration_stimuli/000736_2014-06-08_18-24-15_260595134347_rgbf000206-resize_3/000736_2014-06-08_18-24-15_260595134347_rgbf000206-resize_3-target.png,1000,3.515,7,3354,990,feet,jsons/v1_VE1000_randls_75_rotated.json,592495,1938913,25,Woman
132,395277,DepthScenes,duration_manipulation_targetAtFixation,jsons/v1_VE1000_randls_75_rotated.json,http://54.235.29.9/FacialAge/BNav_EC2/DepthDuration/v2_depth_duration_MTurk/v2_DepthDuration_HTML.html#105,105,1366,768,1366,768,8-22-2022,7-13-29,133,depth_duration_stimuli/000866_2014-06-09_20-45-42_260595134347_rgbf000139-resize_1/000866_2014-06-09_20-45-42_260595134347_rgbf000139-resize_1-target.png,1000,3.2155,8,3983,1001,feet,jsons/v1_VE1000_randls_75_rotated.json,592495,1938913,25,Woman
133,395277,DepthScenes,duration_manipulation_targetAtFixation,jsons/v1_VE1000_randls_75_rotated.json,http://54.235.29.9/FacialAge/BNav_EC2/DepthDuration/v2_depth_duration_MTurk/v2_DepthDuration_HTML.html#105,105,1366,768,1366,768,8-22-2022,7-13-29,134,depth_duration_stimuli/002989_2014-06-15_12-25-03_094959634447_rgbf000150-resize_3/002989_2014-06-15_12-25-03_094959634447_rgbf000150-resize_3-target.png,1000,4.1975,8,2921,990,feet,jsons/v1_VE1000_randls_75_rotated.json,592495,1938913,25,Woman
134,395277,DepthScenes,duration_manipulation_targetAtFixation,jsons/v1_VE1000_randls_75_rotated.json,http://54.235.29.9/FacialAge/BNav_EC2/DepthDuration/v2_depth_duration_MTurk/v2_DepthDuration_HTML.html#105,105,1366,768,1366,768,8-22-2022,7-13-29,135,depth_duration_stimuli/000375_2014-06-08_11-17-29_260595134347_rgbf000133-resize_2/000375_2014-06-08_11-17-29_260595134347_rgbf000133-resize-original.jpg,1000,4.718,0,3982,999,feet,jsons/v1_VE1000_randls_75_rotated.json,592495,1938913,25,Woman
135,395277,DepthScenes,duration_manipulation_targetAtFixation,jsons/v1_VE1000_randls_75_rotated.json,http://54.235.29.9/FacialAge/BNav_EC2/DepthDuration/v2_depth_duration_MTurk/v2_DepthDuration_HTML.html#105,105,1366,768,1366,768,8-22-2022,7-13-29,136,depth_duration_stimuli/000483_2014-06-09_20-41-45_260595134347_rgbf000116-resize_4/000483_2014-06-09_20-41-45_260595134347_rgbf000116-resize_4-target.png,1000,1.337,5,3840,990,feet,jsons/v1_VE1000_randls_75_rotated.json,592495,1938913,25,Woman
136,395277,DepthScenes,duration_manipulation_targetAtFixation,jsons/v1_VE1000_randls_75_rotated.json,http://54.235.29.9/FacialAge/BNav_EC2/DepthDuration/v2_depth_duration_MTurk/v2_DepthDuration_HTML.html#105,105,1366,768,1366,768,8-22-2022,7-13-29,137,depth_duration_stimuli/000469_2014-06-09_19-42-10_260595134347_rgbf000081-resize_1/000469_2014-06-09_19-42-10_260595134347_rgbf000081-resize_1-target.png,1000,1.652,6,2908,992,feet,jsons/v1_VE1000_randls_75_rotated.json,592495,1938913,25,Woman
137,395277,DepthScenes,duration_manipulation_targetAtFixation,jsons/v1_VE1000_randls_75_rotated.json,http://54.235.29.9/FacialAge/BNav_EC2/DepthDuration/v2_depth_duration_MTurk/v2_DepthDuration_HTML.html#105,105,1366,768,1366,768,8-22-2022,7-13-29,138,depth_duration_stimuli/002758_2014-06-22_19-11-20_094959634447_rgbf000128-resize_1/002758_2014-06-22_19-11-20_094959634447_rgbf000128-resize_1-target.png,1000,2.555,5,3122,998,feet,jsons/v1_VE1000_randls_75_rotated.json,592495,1938913,25,Woman
138,395277,DepthScenes,duration_manipulation_targetAtFixation,jsons/v1_VE1000_randls_75_rotated.json,http://54.235.29.9/FacialAge/BNav_EC2/DepthDuration/v2_depth_duration_MTurk/v2_DepthDuration_HTML.html#105,105,1366,768,1366,768,8-22-2022,7-13-29,139,depth_duration_stimuli/002630_2014-06-24_14-47-50_094959634447_rgbf000055-resize_1/002630_2014-06-24_14-47-50_094959634447_rgbf000055-resize_1-target.png,1000,3.0095,8,2942,984,feet,jsons/v1_VE1000_randls_75_rotated.json,592495,1938913,25,Woman
139,395277,DepthScenes,duration_manipulation_targetAtFixation,jsons/v1_VE1000_randls_75_rotated.json,http://54.235.29.9/FacialAge/BNav_EC2/DepthDuration/v2_depth_duration_MTurk/v2_DepthDuration_HTML.html#105,105,1366,768,1366,768,8-22-2022,7-13-29,140,depth_duration_stimuli/001571_2014-06-20_17-21-32_260595134347_rgbf000089-resize_1/001571_2014-06-20_17-21-32_260595134347_rgbf000089-resize_1-target.png,1000,1.86,7,2785,1010,feet,jsons/v1_VE1000_randls_75_rotated.json,592495,1938913,25,Woman
140,395277,DepthScenes,duration_manipulation_targetAtFixation,jsons/v1_VE1000_randls_75_rotated.json,http://54.235.29.9/FacialAge/BNav_EC2/DepthDuration/v2_depth_duration_MTurk/v2_DepthDuration_HTML.html#105,105,1366,768,1366,768,8-22-2022,7-13-29,141,depth_duration_stimuli/002272_2014-06-28_18-53-56_260595134347_rgbf000067-resize_2/002272_2014-06-28_18-53-56_260595134347_rgbf000067-resize_2-target.png,1000,1.138,5,3124,1003,feet,jsons/v1_VE1000_randls_75_rotated.json,592495,1938913,25,Woman
141,395277,DepthScenes,duration_manipulation_targetAtFixation,jsons/v1_VE1000_randls_75_rotated.json,http://54.235.29.9/FacialAge/BNav_EC2/DepthDuration/v2_depth_duration_MTurk/v2_DepthDuration_HTML.html#105,105,1366,768,1366,768,8-22-2022,7-13-29,142,depth_duration_stimuli/000927_2014-06-09_16-32-30_260595134347_rgbf000123-resize_3/000927_2014-06-09_16-32-30_260595134347_rgbf000123-resize_3-target.png,1000,2.6785,7,2994,1012,feet,jsons/v1_VE1000_randls_75_rotated.json,592495,1938913,25,Woman
142,395277,DepthScenes,duration_manipulation_targetAtFixation,jsons/v1_VE1000_randls_75_rotated.json,http://54.235.29.9/FacialAge/BNav_EC2/DepthDuration/v2_depth_duration_MTurk/v2_DepthDuration_HTML.html#105,105,1366,768,1366,768,8-22-2022,7-13-29,143,depth_duration_stimuli/001110_2014-06-15_17-25-28_260595134347_rgbf000150-resize_1/001110_2014-06-15_17-25-28_260595134347_rgbf000150-resize_1-target.png,1000,1.7115,6,2883,1000,feet,jsons/v1_VE1000_randls_75_rotated.json,592495,1938913,25,Woman
143,395277,DepthScenes,duration_manipulation_targetAtFixation,jsons/v1_VE1000_randls_75_rotated.json,http://54.235.29.9/FacialAge/BNav_EC2/DepthDuration/v2_depth_duration_MTurk/v2_DepthDuration_HTML.html#105,105,1366,768,1366,768,8-22-2022,7-13-29,144,depth_duration_stimuli/001052_2014-06-08_18-24-54_260595134347_rgbf000130-resize_1/001052_2014-06-08_18-24-54_260595134347_rgbf000130-resize_1-target.png,1000,4.1045,8,3275,999,feet,jsons/v1_VE1000_randls_75_rotated.json,592495,1938913,25,Woman
144,395277,DepthScenes,duration_manipulation_targetAtFixation,jsons/v1_VE1000_randls_75_rotated.json,http://54.235.29.9/FacialAge/BNav_EC2/DepthDuration/v2_depth_duration_MTurk/v2_DepthDuration_HTML.html#105,105,1366,768,1366,768,8-22-2022,7-13-29,145,depth_duration_stimuli/002988_2014-06-15_12-24-20_094959634447_rgbf000150-resize_1/002988_2014-06-15_12-24-20_094959634447_rgbf000150-resize_1-target.png,1000,4.7669999999999995,9,2954,999,feet,jsons/v1_VE1000_randls_75_rotated.json,592495,1938913,25,Woman
145,395277,DepthScenes,duration_manipulation_targetAtFixation,jsons/v1_VE1000_randls_75_rotated.json,http://54.235.29.9/FacialAge/BNav_EC2/DepthDuration/v2_depth_duration_MTurk/v2_DepthDuration_HTML.html#105,105,1366,768,1366,768,8-22-2022,7-13-29,146,depth_duration_stimuli/000677_2014-06-08_23-10-32_260595134347_rgbf000158-resize_6/000677_2014-06-08_23-10-32_260595134347_rgbf000158-resize_6-target.png,1000,3.556,5,3233,999,feet,jsons/v1_VE1000_randls_75_rotated.json,592495,1938913,25,Woman
146,395277,DepthScenes,duration_manipulation_targetAtFixation,jsons/v1_VE1000_randls_75_rotated.json,http://54.235.29.9/FacialAge/BNav_EC2/DepthDuration/v2_depth_duration_MTurk/v2_DepthDuration_HTML.html#105,105,1366,768,1366,768,8-22-2022,7-13-29,147,depth_duration_stimuli/001029_2014-06-08_13-17-57_260595134347_rgbf000065-resize_1/001029_2014-06-08_13-17-57_260595134347_rgbf000065-resize_1-target.png,1000,3.0835,7,3124,1008,feet,jsons/v1_VE1000_randls_75_rotated.json,592495,1938913,25,Woman
147,395277,DepthScenes,duration_manipulation_targetAtFixation,jsons/v1_VE1000_randls_75_rotated.json,http://54.235.29.9/FacialAge/BNav_EC2/DepthDuration/v2_depth_duration_MTurk/v2_DepthDuration_HTML.html#105,105,1366,768,1366,768,8-22-2022,7-13-29,148,depth_duration_stimuli/002568_2014-06-24_13-59-21_094959634447_rgbf000062-resize_4/002568_2014-06-24_13-59-21_094959634447_rgbf000062-resize_4-target.png,1000,3.015,6,3634,1001,feet,jsons/v1_VE1000_randls_75_rotated.json,592495,1938913,25,Woman
148,395277,DepthScenes,duration_manipulation_targetAtFixation,jsons/v1_VE1000_randls_75_rotated.json,http://54.235.29.9/FacialAge/BNav_EC2/DepthDuration/v2_depth_duration_MTurk/v2_DepthDuration_HTML.html#105,105,1366,768,1366,768,8-22-2022,7-13-29,149,depth_duration_stimuli/003492_2014-05-21_15-50-55_094959634447_rgbf000828-resize_1/003492_2014-05-21_15-50-55_094959634447_rgbf000828-resize_1-target.png,1000,4.06875,8,2863,1001,feet,jsons/v1_VE1000_randls_75_rotated.json,592495,1938913,25,Woman
149,395277,DepthScenes,duration_manipulation_targetAtFixation,jsons/v1_VE1000_randls_75_rotated.json,http://54.235.29.9/FacialAge/BNav_EC2/DepthDuration/v2_depth_duration_MTurk/v2_DepthDuration_HTML.html#105,105,1366,768,1366,768,8-22-2022,7-13-29,150,depth_duration_stimuli/002136_2014-06-25_21-18-03_260595134347_rgbf000109-resize_3/002136_2014-06-25_21-18-03_260595134347_rgbf000109-resize_3-target.png,1000,1.9569999999999999,7,3063,997,feet,jsons/v1_VE1000_randls_75_rotated.json,592495,1938913,25,Woman
150,395277,DepthScenes,duration_manipulation_targetAtFixation,jsons/v1_VE1000_randls_75_rotated.json,http://54.235.29.9/FacialAge/BNav_EC2/DepthDuration/v2_depth_duration_MTurk/v2_DepthDuration_HTML.html#105,105,1366,768,1366,768,8-22-2022,7-13-29,151,depth_duration_stimuli/002964_2014-06-08_17-46-11_094959634447_rgbf000091-resize_4/002964_2014-06-08_17-46-11_094959634447_rgbf000091-resize_4-target.png,1000,1.6909999999999998,3,2857,1007,feet,jsons/v1_VE1000_randls_75_rotated.json,592495,1938913,25,Woman
151,395277,DepthScenes,duration_manipulation_targetAtFixation,jsons/v1_VE1000_randls_75_rotated.json,http://54.235.29.9/FacialAge/BNav_EC2/DepthDuration/v2_depth_duration_MTurk/v2_DepthDuration_HTML.html#105,105,1366,768,1366,768,8-22-2022,7-13-29,152,depth_duration_stimuli/000569_2014-06-09_22-51-47_260595134347_rgbf000141-resize_3/000569_2014-06-09_22-51-47_260595134347_rgbf000141-resize-original.jpg,1000,4.512,0,3050,990,feet,jsons/v1_VE1000_randls_75_rotated.json,592495,1938913,25,Woman
152,395277,DepthScenes,duration_manipulation_targetAtFixation,jsons/v1_VE1000_randls_75_rotated.json,http://54.235.29.9/FacialAge/BNav_EC2/DepthDuration/v2_depth_duration_MTurk/v2_DepthDuration_HTML.html#105,105,1366,768,1366,768,8-22-2022,7-13-29,153,depth_duration_stimuli/000409_2014-06-04_19-23-33_260595134347_rgbf000067-resize_0/000409_2014-06-04_19-23-33_260595134347_rgbf000067-resize_0-target.png,1000,3.7335,5,3154,999,feet,jsons/v1_VE1000_randls_75_rotated.json,592495,1938913,25,Woman
153,395277,DepthScenes,duration_manipulation_targetAtFixation,jsons/v1_VE1000_randls_75_rotated.json,http://54.235.29.9/FacialAge/BNav_EC2/DepthDuration/v2_depth_duration_MTurk/v2_DepthDuration_HTML.html#105,105,1366,768,1366,768,8-22-2022,7-13-29,154,depth_duration_stimuli/002663_2014-06-13_15-50-26_094959634447_rgbf000075-resize_1/002663_2014-06-13_15-50-26_094959634447_rgbf000075-resize_1-target.png,1000,4.7495,8,2826,988,feet,jsons/v1_VE1000_randls_75_rotated.json,592495,1938913,25,Woman
154,395277,DepthScenes,duration_manipulation_targetAtFixation,jsons/v1_VE1000_randls_75_rotated.json,http://54.235.29.9/FacialAge/BNav_EC2/DepthDuration/v2_depth_duration_MTurk/v2_DepthDuration_HTML.html#105,105,1366,768,1366,768,8-22-2022,7-13-29,155,depth_duration_stimuli/003083_2014-06-15_15-21-03_094959634447_rgbf000063-resize_1/003083_2014-06-15_15-21-03_094959634447_rgbf000063-resize_1-target.png,1000,4.1405,7,2971,997,feet,jsons/v1_VE1000_randls_75_rotated.json,592495,1938913,25,Woman
155,395277,DepthScenes,duration_manipulation_targetAtFixation,jsons/v1_VE1000_randls_75_rotated.json,http://54.235.29.9/FacialAge/BNav_EC2/DepthDuration/v2_depth_duration_MTurk/v2_DepthDuration_HTML.html#105,105,1366,768,1366,768,8-22-2022,7-13-29,156,depth_duration_stimuli/000486_2014-06-09_20-47-20_260595134347_rgbf000143-resize_2/000486_2014-06-09_20-47-20_260595134347_rgbf000143-resize_2-target.png,1000,4.8325,8,3117,1001,feet,jsons/v1_VE1000_randls_75_rotated.json,592495,1938913,25,Woman
156,395277,DepthScenes,duration_manipulation_targetAtFixation,jsons/v1_VE1000_randls_75_rotated.json,http://54.235.29.9/FacialAge/BNav_EC2/DepthDuration/v2_depth_duration_MTurk/v2_DepthDuration_HTML.html#105,105,1366,768,1366,768,8-22-2022,7-13-29,157,depth_duration_stimuli/002678_2014-06-13_16-15-32_094959634447_rgbf000151-resize_6/002678_2014-06-13_16-15-32_094959634447_rgbf000151-resize_6-target.png,1000,2.1830000000000003,7,2979,1013,feet,jsons/v1_VE1000_randls_75_rotated.json,592495,1938913,25,Woman
157,395277,DepthScenes,duration_manipulation_targetAtFixation,jsons/v1_VE1000_randls_75_rotated.json,http://54.235.29.9/FacialAge/BNav_EC2/DepthDuration/v2_depth_duration_MTurk/v2_DepthDuration_HTML.html#105,105,1366,768,1366,768,8-22-2022,7-13-29,158,depth_duration_stimuli/000368_2014-06-09_15-53-01_260595134347_rgbf000155-resize_2/000368_2014-06-09_15-53-01_260595134347_rgbf000155-resize_2-target.png,1000,2.4859999999999998,5,3063,995,feet,jsons/v1_VE1000_randls_75_rotated.json,592495,1938913,25,Woman
158,395277,DepthScenes,duration_manipulation_targetAtFixation,jsons/v1_VE1000_randls_75_rotated.json,http://54.235.29.9/FacialAge/BNav_EC2/DepthDuration/v2_depth_duration_MTurk/v2_DepthDuration_HTML.html#105,105,1366,768,1366,768,8-22-2022,7-13-29,159,depth_duration_stimuli/001100_2014-06-15_17-46-26_260595134347_rgbf000225-resize_2/001100_2014-06-15_17-46-26_260595134347_rgbf000225-resize_2-target.png,1000,2.24,5,4385,1012,feet,jsons/v1_VE1000_randls_75_rotated.json,592495,1938913,25,Woman
159,395277,DepthScenes,duration_manipulation_targetAtFixation,jsons/v1_VE1000_randls_75_rotated.json,http://54.235.29.9/FacialAge/BNav_EC2/DepthDuration/v2_depth_duration_MTurk/v2_DepthDuration_HTML.html#105,105,1366,768,1366,768,8-22-2022,7-13-29,160,depth_duration_stimuli/002784_2014-06-22_19-26-30_094959634447_rgbf000083-resize_3/002784_2014-06-22_19-26-30_094959634447_rgbf000083-resize_3-target.png,1000,1.8046666666667,3,2789,986,feet,jsons/v1_VE1000_randls_75_rotated.json,592495,1938913,25,Woman
160,395277,DepthScenes,duration_manipulation_targetAtFixation,jsons/v1_VE1000_randls_75_rotated.json,http://54.235.29.9/FacialAge/BNav_EC2/DepthDuration/v2_depth_duration_MTurk/v2_DepthDuration_HTML.html#105,105,1366,768,1366,768,8-22-2022,7-13-29,161,depth_duration_stimuli/001392_2014-06-19_16-07-59_260595134347_rgbf000046-resize_1/001392_2014-06-19_16-07-59_260595134347_rgbf000046-resize_1-target.png,1000,4.135,8,2842,991,feet,jsons/v1_VE1000_randls_75_rotated.json,592495,1938913,25,Woman
161,395277,DepthScenes,duration_manipulation_targetAtFixation,jsons/v1_VE1000_randls_75_rotated.json,http://54.235.29.9/FacialAge/BNav_EC2/DepthDuration/v2_depth_duration_MTurk/v2_DepthDuration_HTML.html#105,105,1366,768,1366,768,8-22-2022,7-13-29,162,depth_duration_stimuli/001570_2014-06-20_17-21-09_260595134347_rgbf000135-resize_4/001570_2014-06-20_17-21-09_260595134347_rgbf000135-resize_4-target.png,1000,4.467,8,2781,981,feet,jsons/v1_VE1000_randls_75_rotated.json,592495,1938913,25,Woman
162,395277,DepthScenes,duration_manipulation_targetAtFixation,jsons/v1_VE1000_randls_75_rotated.json,http://54.235.29.9/FacialAge/BNav_EC2/DepthDuration/v2_depth_duration_MTurk/v2_DepthDuration_HTML.html#105,105,1366,768,1366,768,8-22-2022,7-13-29,163,depth_duration_stimuli/003079_2014-06-15_15-18-20_094959634447_rgbf000152-resize_8/003079_2014-06-15_15-18-20_094959634447_rgbf000152-resize_8-target.png,1000,2.8775,7,2743,1005,feet,jsons/v1_VE1000_randls_75_rotated.json,592495,1938913,25,Woman
163,395277,DepthScenes,duration_manipulation_targetAtFixation,jsons/v1_VE1000_randls_75_rotated.json,http://54.235.29.9/FacialAge/BNav_EC2/DepthDuration/v2_depth_duration_MTurk/v2_DepthDuration_HTML.html#105,105,1366,768,1366,768,8-22-2022,7-13-29,164,depth_duration_stimuli/000506_2014-06-08_23-21-00_260595134347_rgbf000070-resize_7/000506_2014-06-08_23-21-00_260595134347_rgbf000070-resize_7-target.png,1000,4.0585,6,2871,998,feet,jsons/v1_VE1000_randls_75_rotated.json,592495,1938913,25,Woman
