,subjID,experimentName,versionName,sequenceName,url,selected_row,windowWidth,windowHeight,screenWidth,screenHeight,startDate,startTime,trial,stimulus,duration,actual_depth,depth_estimate,trial_RT,log_sceneDuration,unitSelection,seq_filepath,experimentTime,totalTime,age,gender
0,396020,DepthScenes,duration_manipulation_targetAtFixation,jsons/v1_VE250_randls_68_rotated.json,http://54.235.29.9/FacialAge/BNav_EC2/DepthDuration/v2_depth_duration_MTurk/v2_DepthDuration_HTML.html#65,65,1242,568,1366,768,8-20-2022,12-55-41,1,depth_duration_stimuli/001617_2014-06-20_11-35-32_260595134347_rgbf000066-resize_1/001617_2014-06-20_11-35-32_260595134347_rgbf000066-resize_1-target.png,250,3.7910000000000004,10,4387,249,feet,jsons/v1_VE250_randls_68_rotated.json,729967,1221982,34,Woman
1,396020,DepthScenes,duration_manipulation_targetAtFixation,jsons/v1_VE250_randls_68_rotated.json,http://54.235.29.9/FacialAge/BNav_EC2/DepthDuration/v2_depth_duration_MTurk/v2_DepthDuration_HTML.html#65,65,1242,568,1366,768,8-20-2022,12-55-41,2,depth_duration_stimuli/001806_2014-06-26_20-50-20_260595134347_rgbf000091-resize_1/001806_2014-06-26_20-50-20_260595134347_rgbf000091-resize_1-target.png,250,2.7305,4,4052,252,feet,jsons/v1_VE250_randls_68_rotated.json,729967,1221982,34,Woman
2,396020,DepthScenes,duration_manipulation_targetAtFixation,jsons/v1_VE250_randls_68_rotated.json,http://54.235.29.9/FacialAge/BNav_EC2/DepthDuration/v2_depth_duration_MTurk/v2_DepthDuration_HTML.html#65,65,1242,568,1366,768,8-20-2022,12-55-41,3,depth_duration_stimuli/000742_2014-06-08_18-48-09_260595134347_rgbf000164-resize_4/000742_2014-06-08_18-48-09_260595134347_rgbf000164-resize_4-target.png,250,4.632,12,4942,233,feet,jsons/v1_VE250_randls_68_rotated.json,729967,1221982,34,Woman
3,396020,DepthScenes,duration_manipulation_targetAtFixation,jsons/v1_VE250_randls_68_rotated.json,http://54.235.29.9/FacialAge/BNav_EC2/DepthDuration/v2_depth_duration_MTurk/v2_DepthDuration_HTML.html#65,65,1242,568,1366,768,8-20-2022,12-55-41,4,depth_duration_stimuli/001066_2014-06-08_22-03-20_260595134347_rgbf000066-resize_4/001066_2014-06-08_22-03-20_260595134347_rgbf000066-resize_4-target.png,250,4.2330000000000005,8,4537,240,feet,jsons/v1_VE250_randls_68_rotated.json,729967,1221982,34,Woman
4,396020,DepthScenes,duration_manipulation_targetAtFixation,jsons/v1_VE250_randls_68_rotated.json,http://54.235.29.9/FacialAge/BNav_EC2/DepthDuration/v2_depth_duration_MTurk/v2_DepthDuration_HTML.html#65,65,1242,568,1366,768,8-20-2022,12-55-41,5,depth_duration_stimuli/000927_2014-06-09_16-32-30_260595134347_rgbf000123-resize_3/000927_2014-06-09_16-32-30_260595134347_rgbf000123-resize_3-target.png,250,2.6785,6,4659,249,feet,jsons/v1_VE250_randls_68_rotated.json,729967,1221982,34,Woman
5,396020,DepthScenes,duration_manipulation_targetAtFixation,jsons/v1_VE250_randls_68_rotated.json,http://54.235.29.9/FacialAge/BNav_EC2/DepthDuration/v2_depth_duration_MTurk/v2_DepthDuration_HTML.html#65,65,1242,568,1366,768,8-20-2022,12-55-41,6,depth_duration_stimuli/001110_2014-06-15_17-25-28_260595134347_rgbf000150-resize_1/001110_2014-06-15_17-25-28_260595134347_rgbf000150-resize_1-target.png,250,1.7115,4,3560,247,feet,jsons/v1_VE250_randls_68_rotated.json,729967,1221982,34,Woman
6,396020,DepthScenes,duration_manipulation_targetAtFixation,jsons/v1_VE250_randls_68_rotated.json,http://54.235.29.9/FacialAge/BNav_EC2/DepthDuration/v2_depth_duration_MTurk/v2_DepthDuration_HTML.html#65,65,1242,568,1366,768,8-20-2022,12-55-41,7,depth_duration_stimuli/002340_2014-06-28_20-05-46_260595134347_rgbf000113-resize_0/002340_2014-06-28_20-05-46_260595134347_rgbf000113-resize_0-target.png,250,2.4735,8,3834,249,feet,jsons/v1_VE250_randls_68_rotated.json,729967,1221982,34,Woman
7,396020,DepthScenes,duration_manipulation_targetAtFixation,jsons/v1_VE250_randls_68_rotated.json,http://54.235.29.9/FacialAge/BNav_EC2/DepthDuration/v2_depth_duration_MTurk/v2_DepthDuration_HTML.html#65,65,1242,568,1366,768,8-20-2022,12-55-41,8,depth_duration_stimuli/001016_2014-06-09_16-16-10_260595134347_rgbf000112-resize_5/001016_2014-06-09_16-16-10_260595134347_rgbf000112-resize_5-target.png,250,1.6565,6,3172,259,feet,jsons/v1_VE250_randls_68_rotated.json,729967,1221982,34,Woman
8,396020,DepthScenes,duration_manipulation_targetAtFixation,jsons/v1_VE250_randls_68_rotated.json,http://54.235.29.9/FacialAge/BNav_EC2/DepthDuration/v2_depth_duration_MTurk/v2_DepthDuration_HTML.html#65,65,1242,568,1366,768,8-20-2022,12-55-41,9,depth_duration_stimuli/001571_2014-06-20_17-21-32_260595134347_rgbf000089-resize_1/001571_2014-06-20_17-21-32_260595134347_rgbf000089-resize_1-target.png,250,1.86,4,3600,249,feet,jsons/v1_VE250_randls_68_rotated.json,729967,1221982,34,Woman
9,396020,DepthScenes,duration_manipulation_targetAtFixation,jsons/v1_VE250_randls_68_rotated.json,http://54.235.29.9/FacialAge/BNav_EC2/DepthDuration/v2_depth_duration_MTurk/v2_DepthDuration_HTML.html#65,65,1242,568,1366,768,8-20-2022,12-55-41,10,depth_duration_stimuli/002272_2014-06-28_18-53-56_260595134347_rgbf000067-resize_2/002272_2014-06-28_18-53-56_260595134347_rgbf000067-resize_2-target.png,250,1.138,3,3075,249,feet,jsons/v1_VE250_randls_68_rotated.json,729967,1221982,34,Woman
10,396020,DepthScenes,duration_manipulation_targetAtFixation,jsons/v1_VE250_randls_68_rotated.json,http://54.235.29.9/FacialAge/BNav_EC2/DepthDuration/v2_depth_duration_MTurk/v2_DepthDuration_HTML.html#65,65,1242,568,1366,768,8-20-2022,12-55-41,11,depth_duration_stimuli/002875_2014-06-01_15-19-00_094959634447_rgbf000151-resize_1/002875_2014-06-01_15-19-00_094959634447_rgbf000151-resize_1-target.png,250,1.9675,6,4346,250,feet,jsons/v1_VE250_randls_68_rotated.json,729967,1221982,34,Woman
11,396020,DepthScenes,duration_manipulation_targetAtFixation,jsons/v1_VE250_randls_68_rotated.json,http://54.235.29.9/FacialAge/BNav_EC2/DepthDuration/v2_depth_duration_MTurk/v2_DepthDuration_HTML.html#65,65,1242,568,1366,768,8-20-2022,12-55-41,12,depth_duration_stimuli/001011_2014-06-08_23-18-54_260595134347_rgbf000044-resize_4/001011_2014-06-08_23-18-54_260595134347_rgbf000044-resize_4-target.png,250,2.4730000000000003,8,3645,248,feet,jsons/v1_VE250_randls_68_rotated.json,729967,1221982,34,Woman
12,396020,DepthScenes,duration_manipulation_targetAtFixation,jsons/v1_VE250_randls_68_rotated.json,http://54.235.29.9/FacialAge/BNav_EC2/DepthDuration/v2_depth_duration_MTurk/v2_DepthDuration_HTML.html#65,65,1242,568,1366,768,8-20-2022,12-55-41,13,depth_duration_stimuli/002639_2014-06-24_14-51-37_094959634447_rgbf000074-resize_4/002639_2014-06-24_14-51-37_094959634447_rgbf000074-resize_4-target.png,250,4.0375,6,4592,239,feet,jsons/v1_VE250_randls_68_rotated.json,729967,1221982,34,Woman
13,396020,DepthScenes,duration_manipulation_targetAtFixation,jsons/v1_VE250_randls_68_rotated.json,http://54.235.29.9/FacialAge/BNav_EC2/DepthDuration/v2_depth_duration_MTurk/v2_DepthDuration_HTML.html#65,65,1242,568,1366,768,8-20-2022,12-55-41,14,depth_duration_stimuli/003292_2014-05-14_21-53-49_094959634447_rgbf000100-resize_2/003292_2014-05-14_21-53-49_094959634447_rgbf000100-resize_2-target.png,250,3.4815,4,3214,248,feet,jsons/v1_VE250_randls_68_rotated.json,729967,1221982,34,Woman
14,396020,DepthScenes,duration_manipulation_targetAtFixation,jsons/v1_VE250_randls_68_rotated.json,http://54.235.29.9/FacialAge/BNav_EC2/DepthDuration/v2_depth_duration_MTurk/v2_DepthDuration_HTML.html#65,65,1242,568,1366,768,8-20-2022,12-55-41,15,depth_duration_stimuli/002678_2014-06-13_16-15-32_094959634447_rgbf000151-resize_6/002678_2014-06-13_16-15-32_094959634447_rgbf000151-resize_6-target.png,250,2.1830000000000003,7,5749,248,feet,jsons/v1_VE250_randls_68_rotated.json,729967,1221982,34,Woman
15,396020,DepthScenes,duration_manipulation_targetAtFixation,jsons/v1_VE250_randls_68_rotated.json,http://54.235.29.9/FacialAge/BNav_EC2/DepthDuration/v2_depth_duration_MTurk/v2_DepthDuration_HTML.html#65,65,1242,568,1366,768,8-20-2022,12-55-41,16,depth_duration_stimuli/000368_2014-06-09_15-53-01_260595134347_rgbf000155-resize_2/000368_2014-06-09_15-53-01_260595134347_rgbf000155-resize_2-target.png,250,2.4859999999999998,3,5432,232,feet,jsons/v1_VE250_randls_68_rotated.json,729967,1221982,34,Woman
16,396020,DepthScenes,duration_manipulation_targetAtFixation,jsons/v1_VE250_randls_68_rotated.json,http://54.235.29.9/FacialAge/BNav_EC2/DepthDuration/v2_depth_duration_MTurk/v2_DepthDuration_HTML.html#65,65,1242,568,1366,768,8-20-2022,12-55-41,17,depth_duration_stimuli/001447_2014-06-19_17-00-32_260595134347_rgbf000082-resize_5/001447_2014-06-19_17-00-32_260595134347_rgbf000082-resize_5-target.png,250,4.13775,6,6150,244,feet,jsons/v1_VE250_randls_68_rotated.json,729967,1221982,34,Woman
17,396020,DepthScenes,duration_manipulation_targetAtFixation,jsons/v1_VE250_randls_68_rotated.json,http://54.235.29.9/FacialAge/BNav_EC2/DepthDuration/v2_depth_duration_MTurk/v2_DepthDuration_HTML.html#65,65,1242,568,1366,768,8-20-2022,12-55-41,18,depth_duration_stimuli/000447_2014-06-08_16-15-46_260595134347_rgbf000130-resize_1/000447_2014-06-08_16-15-46_260595134347_rgbf000130-resize_1-target.png,250,4.479,9,3996,247,feet,jsons/v1_VE250_randls_68_rotated.json,729967,1221982,34,Woman
18,396020,DepthScenes,duration_manipulation_targetAtFixation,jsons/v1_VE250_randls_68_rotated.json,http://54.235.29.9/FacialAge/BNav_EC2/DepthDuration/v2_depth_duration_MTurk/v2_DepthDuration_HTML.html#65,65,1242,568,1366,768,8-20-2022,12-55-41,19,depth_duration_stimuli/001498_2014-06-19_17-45-14_260595134347_rgbf000129-resize_4/001498_2014-06-19_17-45-14_260595134347_rgbf000129-resize-original.jpg,250,1.4075,7,4782,264,feet,jsons/v1_VE250_randls_68_rotated.json,729967,1221982,34,Woman
19,396020,DepthScenes,duration_manipulation_targetAtFixation,jsons/v1_VE250_randls_68_rotated.json,http://54.235.29.9/FacialAge/BNav_EC2/DepthDuration/v2_depth_duration_MTurk/v2_DepthDuration_HTML.html#65,65,1242,568,1366,768,8-20-2022,12-55-41,20,depth_duration_stimuli/002995_2014-06-15_12-31-26_094959634447_rgbf000150-resize_1/002995_2014-06-15_12-31-26_094959634447_rgbf000150-resize_1-target.png,250,3.8360000000000003,9,4493,249,feet,jsons/v1_VE250_randls_68_rotated.json,729967,1221982,34,Woman
20,396020,DepthScenes,duration_manipulation_targetAtFixation,jsons/v1_VE250_randls_68_rotated.json,http://54.235.29.9/FacialAge/BNav_EC2/DepthDuration/v2_depth_duration_MTurk/v2_DepthDuration_HTML.html#65,65,1242,568,1366,768,8-20-2022,12-55-41,21,depth_duration_stimuli/002748_2014-06-22_19-07-22_094959634447_rgbf000078-resize_1/002748_2014-06-22_19-07-22_094959634447_rgbf000078-resize_1-target.png,250,4.6705,10,3733,255,feet,jsons/v1_VE250_randls_68_rotated.json,729967,1221982,34,Woman
21,396020,DepthScenes,duration_manipulation_targetAtFixation,jsons/v1_VE250_randls_68_rotated.json,http://54.235.29.9/FacialAge/BNav_EC2/DepthDuration/v2_depth_duration_MTurk/v2_DepthDuration_HTML.html#65,65,1242,568,1366,768,8-20-2022,12-55-41,22,depth_duration_stimuli/002136_2014-06-25_21-18-03_260595134347_rgbf000109-resize_3/002136_2014-06-25_21-18-03_260595134347_rgbf000109-resize_3-target.png,250,1.9569999999999999,4,4123,249,feet,jsons/v1_VE250_randls_68_rotated.json,729967,1221982,34,Woman
22,396020,DepthScenes,duration_manipulation_targetAtFixation,jsons/v1_VE250_randls_68_rotated.json,http://54.235.29.9/FacialAge/BNav_EC2/DepthDuration/v2_depth_duration_MTurk/v2_DepthDuration_HTML.html#65,65,1242,568,1366,768,8-20-2022,12-55-41,23,depth_duration_stimuli/002964_2014-06-08_17-46-11_094959634447_rgbf000091-resize_4/002964_2014-06-08_17-46-11_094959634447_rgbf000091-resize_4-target.png,250,1.6909999999999998,2,3973,250,feet,jsons/v1_VE250_randls_68_rotated.json,729967,1221982,34,Woman
23,396020,DepthScenes,duration_manipulation_targetAtFixation,jsons/v1_VE250_randls_68_rotated.json,http://54.235.29.9/FacialAge/BNav_EC2/DepthDuration/v2_depth_duration_MTurk/v2_DepthDuration_HTML.html#65,65,1242,568,1366,768,8-20-2022,12-55-41,24,depth_duration_stimuli/000103_2014-05-14_22-01-17_260595134347_rgbf000152-resize_5/000103_2014-05-14_22-01-17_260595134347_rgbf000152-resize_5-target.png,250,1.993,5,4230,258,feet,jsons/v1_VE250_randls_68_rotated.json,729967,1221982,34,Woman
24,396020,DepthScenes,duration_manipulation_targetAtFixation,jsons/v1_VE250_randls_68_rotated.json,http://54.235.29.9/FacialAge/BNav_EC2/DepthDuration/v2_depth_duration_MTurk/v2_DepthDuration_HTML.html#65,65,1242,568,1366,768,8-20-2022,12-55-41,25,depth_duration_stimuli/001555_2014-06-20_17-12-10_260595134347_rgbf000065-resize_4/001555_2014-06-20_17-12-10_260595134347_rgbf000065-resize_4-target.png,250,1.633,2,4306,261,feet,jsons/v1_VE250_randls_68_rotated.json,729967,1221982,34,Woman
25,396020,DepthScenes,duration_manipulation_targetAtFixation,jsons/v1_VE250_randls_68_rotated.json,http://54.235.29.9/FacialAge/BNav_EC2/DepthDuration/v2_depth_duration_MTurk/v2_DepthDuration_HTML.html#65,65,1242,568,1366,768,8-20-2022,12-55-41,26,depth_duration_stimuli/003083_2014-06-15_15-21-03_094959634447_rgbf000063-resize_1/003083_2014-06-15_15-21-03_094959634447_rgbf000063-resize_1-target.png,250,4.1405,8,4442,247,feet,jsons/v1_VE250_randls_68_rotated.json,729967,1221982,34,Woman
26,396020,DepthScenes,duration_manipulation_targetAtFixation,jsons/v1_VE250_randls_68_rotated.json,http://54.235.29.9/FacialAge/BNav_EC2/DepthDuration/v2_depth_duration_MTurk/v2_DepthDuration_HTML.html#65,65,1242,568,1366,768,8-20-2022,12-55-41,27,depth_duration_stimuli/000486_2014-06-09_20-47-20_260595134347_rgbf000143-resize_2/000486_2014-06-09_20-47-20_260595134347_rgbf000143-resize_2-target.png,250,4.8325,4,3450,247,feet,jsons/v1_VE250_randls_68_rotated.json,729967,1221982,34,Woman
27,396020,DepthScenes,duration_manipulation_targetAtFixation,jsons/v1_VE250_randls_68_rotated.json,http://54.235.29.9/FacialAge/BNav_EC2/DepthDuration/v2_depth_duration_MTurk/v2_DepthDuration_HTML.html#65,65,1242,568,1366,768,8-20-2022,12-55-41,28,depth_duration_stimuli/000457_2014-06-08_16-52-43_260595134347_rgbf000199-resize_1/000457_2014-06-08_16-52-43_260595134347_rgbf000199-resize_1-target.png,250,3.6489999999999996,6,3962,250,feet,jsons/v1_VE250_randls_68_rotated.json,729967,1221982,34,Woman
28,396020,DepthScenes,duration_manipulation_targetAtFixation,jsons/v1_VE250_randls_68_rotated.json,http://54.235.29.9/FacialAge/BNav_EC2/DepthDuration/v2_depth_duration_MTurk/v2_DepthDuration_HTML.html#65,65,1242,568,1366,768,8-20-2022,12-55-41,29,depth_duration_stimuli/000929_2014-06-09_16-33-19_260595134347_rgbf000139-resize_0/000929_2014-06-09_16-33-19_260595134347_rgbf000139-resize_0-target.png,250,2.8680000000000003,4,3477,256,feet,jsons/v1_VE250_randls_68_rotated.json,729967,1221982,34,Woman
29,396020,DepthScenes,duration_manipulation_targetAtFixation,jsons/v1_VE250_randls_68_rotated.json,http://54.235.29.9/FacialAge/BNav_EC2/DepthDuration/v2_depth_duration_MTurk/v2_DepthDuration_HTML.html#65,65,1242,568,1366,768,8-20-2022,12-55-41,30,depth_duration_stimuli/002072_2014-06-24_21-48-06_260595134347_rgbf000115-resize_0/002072_2014-06-24_21-48-06_260595134347_rgbf000115-resize-original.jpg,250,4.702,8,4233,262,feet,jsons/v1_VE250_randls_68_rotated.json,729967,1221982,34,Woman
30,396020,DepthScenes,duration_manipulation_targetAtFixation,jsons/v1_VE250_randls_68_rotated.json,http://54.235.29.9/FacialAge/BNav_EC2/DepthDuration/v2_depth_duration_MTurk/v2_DepthDuration_HTML.html#65,65,1242,568,1366,768,8-20-2022,12-55-41,31,depth_duration_stimuli/000734_2014-06-08_17-39-11_260595134347_rgbf000128-resize_2/000734_2014-06-08_17-39-11_260595134347_rgbf000128-resize_2-target.png,250,4.098,11,4117,233,feet,jsons/v1_VE250_randls_68_rotated.json,729967,1221982,34,Woman
31,396020,DepthScenes,duration_manipulation_targetAtFixation,jsons/v1_VE250_randls_68_rotated.json,http://54.235.29.9/FacialAge/BNav_EC2/DepthDuration/v2_depth_duration_MTurk/v2_DepthDuration_HTML.html#65,65,1242,568,1366,768,8-20-2022,12-55-41,32,depth_duration_stimuli/000739_2014-06-08_18-45-58_260595134347_rgbf000068-resize_1/000739_2014-06-08_18-45-58_260595134347_rgbf000068-resize_1-target.png,250,3.534,13,4021,247,feet,jsons/v1_VE250_randls_68_rotated.json,729967,1221982,34,Woman
32,396020,DepthScenes,duration_manipulation_targetAtFixation,jsons/v1_VE250_randls_68_rotated.json,http://54.235.29.9/FacialAge/BNav_EC2/DepthDuration/v2_depth_duration_MTurk/v2_DepthDuration_HTML.html#65,65,1242,568,1366,768,8-20-2022,12-55-41,33,depth_duration_stimuli/003129_2014-05-12_10-48-10_094959634447_rgbf000100-resize_0/003129_2014-05-12_10-48-10_094959634447_rgbf000100-resize_0-target.png,250,4.9305,14,3850,249,feet,jsons/v1_VE250_randls_68_rotated.json,729967,1221982,34,Woman
33,396020,DepthScenes,duration_manipulation_targetAtFixation,jsons/v1_VE250_randls_68_rotated.json,http://54.235.29.9/FacialAge/BNav_EC2/DepthDuration/v2_depth_duration_MTurk/v2_DepthDuration_HTML.html#65,65,1242,568,1366,768,8-20-2022,12-55-41,34,depth_duration_stimuli/000414_2014-06-04_19-49-13_260595134347_rgbf000044-resize_0/000414_2014-06-04_19-49-13_260595134347_rgbf000044-resize_0-target.png,250,4.329,15,4010,249,feet,jsons/v1_VE250_randls_68_rotated.json,729967,1221982,34,Woman
34,396020,DepthScenes,duration_manipulation_targetAtFixation,jsons/v1_VE250_randls_68_rotated.json,http://54.235.29.9/FacialAge/BNav_EC2/DepthDuration/v2_depth_duration_MTurk/v2_DepthDuration_HTML.html#65,65,1242,568,1366,768,8-20-2022,12-55-41,35,depth_duration_stimuli/002657_2014-06-13_15-29-54_094959634447_rgbf000150-resize_1/002657_2014-06-13_15-29-54_094959634447_rgbf000150-resize_1-target.png,250,4.919,8,3598,249,feet,jsons/v1_VE250_randls_68_rotated.json,729967,1221982,34,Woman
35,396020,DepthScenes,duration_manipulation_targetAtFixation,jsons/v1_VE250_randls_68_rotated.json,http://54.235.29.9/FacialAge/BNav_EC2/DepthDuration/v2_depth_duration_MTurk/v2_DepthDuration_HTML.html#65,65,1242,568,1366,768,8-20-2022,12-55-41,36,depth_duration_stimuli/002375_2014-06-28_20-13-44_260595134347_rgbf000032-resize_1/002375_2014-06-28_20-13-44_260595134347_rgbf000032-resize_1-target.png,250,4.0175,6,3327,262,feet,jsons/v1_VE250_randls_68_rotated.json,729967,1221982,34,Woman
36,396020,DepthScenes,duration_manipulation_targetAtFixation,jsons/v1_VE250_randls_68_rotated.json,http://54.235.29.9/FacialAge/BNav_EC2/DepthDuration/v2_depth_duration_MTurk/v2_DepthDuration_HTML.html#65,65,1242,568,1366,768,8-20-2022,12-55-41,37,depth_duration_stimuli/001132_2014-06-17_14-48-54_260595134347_rgbf000100-resize_2/001132_2014-06-17_14-48-54_260595134347_rgbf000100-resize_2-target.png,250,3.753,8,4051,262,feet,jsons/v1_VE250_randls_68_rotated.json,729967,1221982,34,Woman
37,396020,DepthScenes,duration_manipulation_targetAtFixation,jsons/v1_VE250_randls_68_rotated.json,http://54.235.29.9/FacialAge/BNav_EC2/DepthDuration/v2_depth_duration_MTurk/v2_DepthDuration_HTML.html#65,65,1242,568,1366,768,8-20-2022,12-55-41,38,depth_duration_stimuli/001133_2014-06-17_14-49-16_260595134347_rgbf000100-resize_0/001133_2014-06-17_14-49-16_260595134347_rgbf000100-resize_0-target.png,250,4.2115,7,3838,234,feet,jsons/v1_VE250_randls_68_rotated.json,729967,1221982,34,Woman
38,396020,DepthScenes,duration_manipulation_targetAtFixation,jsons/v1_VE250_randls_68_rotated.json,http://54.235.29.9/FacialAge/BNav_EC2/DepthDuration/v2_depth_duration_MTurk/v2_DepthDuration_HTML.html#65,65,1242,568,1366,768,8-20-2022,12-55-41,39,depth_duration_stimuli/000556_2014-06-09_22-42-56_260595134347_rgbf000214-resize_1/000556_2014-06-09_22-42-56_260595134347_rgbf000214-resize_1-target.png,250,4.8415,4,3533,248,feet,jsons/v1_VE250_randls_68_rotated.json,729967,1221982,34,Woman
39,396020,DepthScenes,duration_manipulation_targetAtFixation,jsons/v1_VE250_randls_68_rotated.json,http://54.235.29.9/FacialAge/BNav_EC2/DepthDuration/v2_depth_duration_MTurk/v2_DepthDuration_HTML.html#65,65,1242,568,1366,768,8-20-2022,12-55-41,40,depth_duration_stimuli/001158_2014-06-17_15-32-16_260595134347_rgbf000138-resize_2/001158_2014-06-17_15-32-16_260595134347_rgbf000138-resize_2-target.png,250,4.5315,12,3531,261,feet,jsons/v1_VE250_randls_68_rotated.json,729967,1221982,34,Woman
40,396020,DepthScenes,duration_manipulation_targetAtFixation,jsons/v1_VE250_randls_68_rotated.json,http://54.235.29.9/FacialAge/BNav_EC2/DepthDuration/v2_depth_duration_MTurk/v2_DepthDuration_HTML.html#65,65,1242,568,1366,768,8-20-2022,12-55-41,41,depth_duration_stimuli/002568_2014-06-24_13-59-21_094959634447_rgbf000062-resize_4/002568_2014-06-24_13-59-21_094959634447_rgbf000062-resize_4-target.png,250,3.015,10,3762,261,feet,jsons/v1_VE250_randls_68_rotated.json,729967,1221982,34,Woman
41,396020,DepthScenes,duration_manipulation_targetAtFixation,jsons/v1_VE250_randls_68_rotated.json,http://54.235.29.9/FacialAge/BNav_EC2/DepthDuration/v2_depth_duration_MTurk/v2_DepthDuration_HTML.html#65,65,1242,568,1366,768,8-20-2022,12-55-41,42,depth_duration_stimuli/003492_2014-05-21_15-50-55_094959634447_rgbf000828-resize_1/003492_2014-05-21_15-50-55_094959634447_rgbf000828-resize_1-target.png,250,4.06875,14,3502,248,feet,jsons/v1_VE250_randls_68_rotated.json,729967,1221982,34,Woman
42,396020,DepthScenes,duration_manipulation_targetAtFixation,jsons/v1_VE250_randls_68_rotated.json,http://54.235.29.9/FacialAge/BNav_EC2/DepthDuration/v2_depth_duration_MTurk/v2_DepthDuration_HTML.html#65,65,1242,568,1366,768,8-20-2022,12-55-41,43,depth_duration_stimuli/003490_2014-05-21_15-50-11_094959634447_rgbf000101-resize_3/003490_2014-05-21_15-50-11_094959634447_rgbf000101-resize_3-target.png,250,3.6445,15,4408,245,feet,jsons/v1_VE250_randls_68_rotated.json,729967,1221982,34,Woman
43,396020,DepthScenes,duration_manipulation_targetAtFixation,jsons/v1_VE250_randls_68_rotated.json,http://54.235.29.9/FacialAge/BNav_EC2/DepthDuration/v2_depth_duration_MTurk/v2_DepthDuration_HTML.html#65,65,1242,568,1366,768,8-20-2022,12-55-41,44,depth_duration_stimuli/001175_2014-06-17_15-45-55_260595134347_rgbf000129-resize_4/001175_2014-06-17_15-45-55_260595134347_rgbf000129-resize_4-target.png,250,4.255,16,4257,247,feet,jsons/v1_VE250_randls_68_rotated.json,729967,1221982,34,Woman
44,396020,DepthScenes,duration_manipulation_targetAtFixation,jsons/v1_VE250_randls_68_rotated.json,http://54.235.29.9/FacialAge/BNav_EC2/DepthDuration/v2_depth_duration_MTurk/v2_DepthDuration_HTML.html#65,65,1242,568,1366,768,8-20-2022,12-55-41,45,depth_duration_stimuli/002467_2014-06-28_20-38-07_260595134347_rgbf000026-resize_2/002467_2014-06-28_20-38-07_260595134347_rgbf000026-resize_2-target.png,250,4.742,12,4080,249,feet,jsons/v1_VE250_randls_68_rotated.json,729967,1221982,34,Woman
45,396020,DepthScenes,duration_manipulation_targetAtFixation,jsons/v1_VE250_randls_68_rotated.json,http://54.235.29.9/FacialAge/BNav_EC2/DepthDuration/v2_depth_duration_MTurk/v2_DepthDuration_HTML.html#65,65,1242,568,1366,768,8-20-2022,12-55-41,46,depth_duration_stimuli/002570_2014-06-24_13-59-54_094959634447_rgbf000059-resize_0/002570_2014-06-24_13-59-54_094959634447_rgbf000059-resize_0-target.png,250,4.037,13,3488,248,feet,jsons/v1_VE250_randls_68_rotated.json,729967,1221982,34,Woman
46,396020,DepthScenes,duration_manipulation_targetAtFixation,jsons/v1_VE250_randls_68_rotated.json,http://54.235.29.9/FacialAge/BNav_EC2/DepthDuration/v2_depth_duration_MTurk/v2_DepthDuration_HTML.html#65,65,1242,568,1366,768,8-20-2022,12-55-41,47,depth_duration_stimuli/003228_2014-05-14_13-42-35_094959634447_rgbf000101-resize_1/003228_2014-05-14_13-42-35_094959634447_rgbf000101-resize_1-target.png,250,1.9680000000000002,4,4139,258,feet,jsons/v1_VE250_randls_68_rotated.json,729967,1221982,34,Woman
47,396020,DepthScenes,duration_manipulation_targetAtFixation,jsons/v1_VE250_randls_68_rotated.json,http://54.235.29.9/FacialAge/BNav_EC2/DepthDuration/v2_depth_duration_MTurk/v2_DepthDuration_HTML.html#65,65,1242,568,1366,768,8-20-2022,12-55-41,48,depth_duration_stimuli/002600_2014-06-24_14-27-04_094959634447_rgbf000074-resize_2/002600_2014-06-24_14-27-04_094959634447_rgbf000074-resize_2-target.png,250,2.7575,8,3489,249,feet,jsons/v1_VE250_randls_68_rotated.json,729967,1221982,34,Woman
48,396020,DepthScenes,duration_manipulation_targetAtFixation,jsons/v1_VE250_randls_68_rotated.json,http://54.235.29.9/FacialAge/BNav_EC2/DepthDuration/v2_depth_duration_MTurk/v2_DepthDuration_HTML.html#65,65,1242,568,1366,768,8-20-2022,12-55-41,49,depth_duration_stimuli/001170_2014-06-17_15-43-44_260595134347_rgbf000096-resize_6/001170_2014-06-17_15-43-44_260595134347_rgbf000096-resize-original.jpg,250,1.1909999999999998,5,4930,248,feet,jsons/v1_VE250_randls_68_rotated.json,729967,1221982,34,Woman
49,396020,DepthScenes,duration_manipulation_targetAtFixation,jsons/v1_VE250_randls_68_rotated.json,http://54.235.29.9/FacialAge/BNav_EC2/DepthDuration/v2_depth_duration_MTurk/v2_DepthDuration_HTML.html#65,65,1242,568,1366,768,8-20-2022,12-55-41,50,depth_duration_stimuli/001584_2014-06-20_11-07-43_260595134347_rgbf000002-resize_1/001584_2014-06-20_11-07-43_260595134347_rgbf000002-resize_1-target.png,250,3.53,8,7042,249,feet,jsons/v1_VE250_randls_68_rotated.json,729967,1221982,34,Woman
50,396020,DepthScenes,duration_manipulation_targetAtFixation,jsons/v1_VE250_randls_68_rotated.json,http://54.235.29.9/FacialAge/BNav_EC2/DepthDuration/v2_depth_duration_MTurk/v2_DepthDuration_HTML.html#65,65,1242,568,1366,768,8-20-2022,12-55-41,51,depth_duration_stimuli/003621_2014-05-23_18-06-08_094959634447_rgbf000101-resize_1/003621_2014-05-23_18-06-08_094959634447_rgbf000101-resize_1-target.png,250,3.9835,8,3113,233,feet,jsons/v1_VE250_randls_68_rotated.json,729967,1221982,34,Woman
51,396020,DepthScenes,duration_manipulation_targetAtFixation,jsons/v1_VE250_randls_68_rotated.json,http://54.235.29.9/FacialAge/BNav_EC2/DepthDuration/v2_depth_duration_MTurk/v2_DepthDuration_HTML.html#65,65,1242,568,1366,768,8-20-2022,12-55-41,52,depth_duration_stimuli/002323_2014-06-28_20-01-54_260595134347_rgbf000051-resize_4/002323_2014-06-28_20-01-54_260595134347_rgbf000051-resize_4-target.png,250,3.7310000000000003,7,3853,260,feet,jsons/v1_VE250_randls_68_rotated.json,729967,1221982,34,Woman
52,396020,DepthScenes,duration_manipulation_targetAtFixation,jsons/v1_VE250_randls_68_rotated.json,http://54.235.29.9/FacialAge/BNav_EC2/DepthDuration/v2_depth_duration_MTurk/v2_DepthDuration_HTML.html#65,65,1242,568,1366,768,8-20-2022,12-55-41,53,depth_duration_stimuli/000917_2014-06-09_22-45-29_260595134347_rgbf000149-resize_3/000917_2014-06-09_22-45-29_260595134347_rgbf000149-resize_3-target.png,250,4.1865,8,3186,263,feet,jsons/v1_VE250_randls_68_rotated.json,729967,1221982,34,Woman
53,396020,DepthScenes,duration_manipulation_targetAtFixation,jsons/v1_VE250_randls_68_rotated.json,http://54.235.29.9/FacialAge/BNav_EC2/DepthDuration/v2_depth_duration_MTurk/v2_DepthDuration_HTML.html#65,65,1242,568,1366,768,8-20-2022,12-55-41,54,depth_duration_stimuli/000677_2014-06-08_23-10-32_260595134347_rgbf000158-resize_6/000677_2014-06-08_23-10-32_260595134347_rgbf000158-resize_6-target.png,250,3.556,6,4282,251,feet,jsons/v1_VE250_randls_68_rotated.json,729967,1221982,34,Woman
54,396020,DepthScenes,duration_manipulation_targetAtFixation,jsons/v1_VE250_randls_68_rotated.json,http://54.235.29.9/FacialAge/BNav_EC2/DepthDuration/v2_depth_duration_MTurk/v2_DepthDuration_HTML.html#65,65,1242,568,1366,768,8-20-2022,12-55-41,55,depth_duration_stimuli/001029_2014-06-08_13-17-57_260595134347_rgbf000065-resize_1/001029_2014-06-08_13-17-57_260595134347_rgbf000065-resize_1-target.png,250,3.0835,8,3259,234,feet,jsons/v1_VE250_randls_68_rotated.json,729967,1221982,34,Woman
55,396020,DepthScenes,duration_manipulation_targetAtFixation,jsons/v1_VE250_randls_68_rotated.json,http://54.235.29.9/FacialAge/BNav_EC2/DepthDuration/v2_depth_duration_MTurk/v2_DepthDuration_HTML.html#65,65,1242,568,1366,768,8-20-2022,12-55-41,56,depth_duration_stimuli/002637_2014-06-24_14-51-13_094959634447_rgbf000066-resize_4/002637_2014-06-24_14-51-13_094959634447_rgbf000066-resize_4-target.png,250,1.9955,7,3643,250,feet,jsons/v1_VE250_randls_68_rotated.json,729967,1221982,34,Woman
56,396020,DepthScenes,duration_manipulation_targetAtFixation,jsons/v1_VE250_randls_68_rotated.json,http://54.235.29.9/FacialAge/BNav_EC2/DepthDuration/v2_depth_duration_MTurk/v2_DepthDuration_HTML.html#65,65,1242,568,1366,768,8-20-2022,12-55-41,57,depth_duration_stimuli/003534_2014-05-22_15-06-10_094959634447_rgbf000102-resize_4/003534_2014-05-22_15-06-10_094959634447_rgbf000102-resize_4-target.png,250,1.426,2,3860,264,feet,jsons/v1_VE250_randls_68_rotated.json,729967,1221982,34,Woman
57,396020,DepthScenes,duration_manipulation_targetAtFixation,jsons/v1_VE250_randls_68_rotated.json,http://54.235.29.9/FacialAge/BNav_EC2/DepthDuration/v2_depth_duration_MTurk/v2_DepthDuration_HTML.html#65,65,1242,568,1366,768,8-20-2022,12-55-41,58,depth_duration_stimuli/001100_2014-06-15_17-46-26_260595134347_rgbf000225-resize_2/001100_2014-06-15_17-46-26_260595134347_rgbf000225-resize_2-target.png,250,2.24,2,3431,258,feet,jsons/v1_VE250_randls_68_rotated.json,729967,1221982,34,Woman
58,396020,DepthScenes,duration_manipulation_targetAtFixation,jsons/v1_VE250_randls_68_rotated.json,http://54.235.29.9/FacialAge/BNav_EC2/DepthDuration/v2_depth_duration_MTurk/v2_DepthDuration_HTML.html#65,65,1242,568,1366,768,8-20-2022,12-55-41,59,depth_duration_stimuli/002784_2014-06-22_19-26-30_094959634447_rgbf000083-resize_3/002784_2014-06-22_19-26-30_094959634447_rgbf000083-resize_3-target.png,250,1.8046666666667,3,3051,250,feet,jsons/v1_VE250_randls_68_rotated.json,729967,1221982,34,Woman
59,396020,DepthScenes,duration_manipulation_targetAtFixation,jsons/v1_VE250_randls_68_rotated.json,http://54.235.29.9/FacialAge/BNav_EC2/DepthDuration/v2_depth_duration_MTurk/v2_DepthDuration_HTML.html#65,65,1242,568,1366,768,8-20-2022,12-55-41,60,depth_duration_stimuli/000409_2014-06-04_19-23-33_260595134347_rgbf000067-resize_0/000409_2014-06-04_19-23-33_260595134347_rgbf000067-resize_0-target.png,250,3.7335,6,5570,258,feet,jsons/v1_VE250_randls_68_rotated.json,729967,1221982,34,Woman
60,396020,DepthScenes,duration_manipulation_targetAtFixation,jsons/v1_VE250_randls_68_rotated.json,http://54.235.29.9/FacialAge/BNav_EC2/DepthDuration/v2_depth_duration_MTurk/v2_DepthDuration_HTML.html#65,65,1242,568,1366,768,8-20-2022,12-55-41,61,depth_duration_stimuli/002663_2014-06-13_15-50-26_094959634447_rgbf000075-resize_1/002663_2014-06-13_15-50-26_094959634447_rgbf000075-resize_1-target.png,250,4.7495,8,3456,263,feet,jsons/v1_VE250_randls_68_rotated.json,729967,1221982,34,Woman
61,396020,DepthScenes,duration_manipulation_targetAtFixation,jsons/v1_VE250_randls_68_rotated.json,http://54.235.29.9/FacialAge/BNav_EC2/DepthDuration/v2_depth_duration_MTurk/v2_DepthDuration_HTML.html#65,65,1242,568,1366,768,8-20-2022,12-55-41,62,depth_duration_stimuli/002199_2014-06-28_18-33-56_260595134347_rgbf000074-resize_0/002199_2014-06-28_18-33-56_260595134347_rgbf000074-resize_0-target.png,250,1.996,7,4105,248,feet,jsons/v1_VE250_randls_68_rotated.json,729967,1221982,34,Woman
62,396020,DepthScenes,duration_manipulation_targetAtFixation,jsons/v1_VE250_randls_68_rotated.json,http://54.235.29.9/FacialAge/BNav_EC2/DepthDuration/v2_depth_duration_MTurk/v2_DepthDuration_HTML.html#65,65,1242,568,1366,768,8-20-2022,12-55-41,63,depth_duration_stimuli/001056_2014-06-08_18-46-44_260595134347_rgbf000068-resize_0/001056_2014-06-08_18-46-44_260595134347_rgbf000068-resize_0-target.png,250,2.6625,3,4562,252,feet,jsons/v1_VE250_randls_68_rotated.json,729967,1221982,34,Woman
63,396020,DepthScenes,duration_manipulation_targetAtFixation,jsons/v1_VE250_randls_68_rotated.json,http://54.235.29.9/FacialAge/BNav_EC2/DepthDuration/v2_depth_duration_MTurk/v2_DepthDuration_HTML.html#65,65,1242,568,1366,768,8-20-2022,12-55-41,64,depth_duration_stimuli/001052_2014-06-08_18-24-54_260595134347_rgbf000130-resize_1/001052_2014-06-08_18-24-54_260595134347_rgbf000130-resize_1-target.png,250,4.1045,11,3915,250,feet,jsons/v1_VE250_randls_68_rotated.json,729967,1221982,34,Woman
64,396020,DepthScenes,duration_manipulation_targetAtFixation,jsons/v1_VE250_randls_68_rotated.json,http://54.235.29.9/FacialAge/BNav_EC2/DepthDuration/v2_depth_duration_MTurk/v2_DepthDuration_HTML.html#65,65,1242,568,1366,768,8-20-2022,12-55-41,65,depth_duration_stimuli/002988_2014-06-15_12-24-20_094959634447_rgbf000150-resize_1/002988_2014-06-15_12-24-20_094959634447_rgbf000150-resize_1-target.png,250,4.7669999999999995,8,4025,256,feet,jsons/v1_VE250_randls_68_rotated.json,729967,1221982,34,Woman
65,396020,DepthScenes,duration_manipulation_targetAtFixation,jsons/v1_VE250_randls_68_rotated.json,http://54.235.29.9/FacialAge/BNav_EC2/DepthDuration/v2_depth_duration_MTurk/v2_DepthDuration_HTML.html#65,65,1242,568,1366,768,8-20-2022,12-55-41,66,depth_duration_stimuli/001540_2014-06-20_17-01-05_260595134347_rgbf000086-resize_2/001540_2014-06-20_17-01-05_260595134347_rgbf000086-resize-original.jpg,250,1.459,16,4112,260,feet,jsons/v1_VE250_randls_68_rotated.json,729967,1221982,34,Woman
66,396020,DepthScenes,duration_manipulation_targetAtFixation,jsons/v1_VE250_randls_68_rotated.json,http://54.235.29.9/FacialAge/BNav_EC2/DepthDuration/v2_depth_duration_MTurk/v2_DepthDuration_HTML.html#65,65,1242,568,1366,768,8-20-2022,12-55-41,67,depth_duration_stimuli/001650_2014-06-20_12-09-00_260595134347_rgbf000087-resize_3/001650_2014-06-20_12-09-00_260595134347_rgbf000087-resize_3-target.png,250,1.9505,2,3750,249,feet,jsons/v1_VE250_randls_68_rotated.json,729967,1221982,34,Woman
67,396020,DepthScenes,duration_manipulation_targetAtFixation,jsons/v1_VE250_randls_68_rotated.json,http://54.235.29.9/FacialAge/BNav_EC2/DepthDuration/v2_depth_duration_MTurk/v2_DepthDuration_HTML.html#65,65,1242,568,1366,768,8-20-2022,12-55-41,68,depth_duration_stimuli/000682_2014-06-08_23-14-58_260595134347_rgbf000041-resize_5/000682_2014-06-08_23-14-58_260595134347_rgbf000041-resize_5-target.png,250,2.7239999999999998,4,2885,233,feet,jsons/v1_VE250_randls_68_rotated.json,729967,1221982,34,Woman
68,396020,DepthScenes,duration_manipulation_targetAtFixation,jsons/v1_VE250_randls_68_rotated.json,http://54.235.29.9/FacialAge/BNav_EC2/DepthDuration/v2_depth_duration_MTurk/v2_DepthDuration_HTML.html#65,65,1242,568,1366,768,8-20-2022,12-55-41,69,depth_duration_stimuli/001516_2014-06-20_16-25-09_260595134347_rgbf000076-resize_2/001516_2014-06-20_16-25-09_260595134347_rgbf000076-resize_2-target.png,250,1.7445,5,3615,248,feet,jsons/v1_VE250_randls_68_rotated.json,729967,1221982,34,Woman
69,396020,DepthScenes,duration_manipulation_targetAtFixation,jsons/v1_VE250_randls_68_rotated.json,http://54.235.29.9/FacialAge/BNav_EC2/DepthDuration/v2_depth_duration_MTurk/v2_DepthDuration_HTML.html#65,65,1242,568,1366,768,8-20-2022,12-55-41,70,depth_duration_stimuli/002118_2014-06-25_20-32-08_260595134347_rgbf000078-resize_1/002118_2014-06-25_20-32-08_260595134347_rgbf000078-resize_1-target.png,250,2.6460000000000004,6,3857,249,feet,jsons/v1_VE250_randls_68_rotated.json,729967,1221982,34,Woman
70,396020,DepthScenes,duration_manipulation_targetAtFixation,jsons/v1_VE250_randls_68_rotated.json,http://54.235.29.9/FacialAge/BNav_EC2/DepthDuration/v2_depth_duration_MTurk/v2_DepthDuration_HTML.html#65,65,1242,568,1366,768,8-20-2022,12-55-41,71,depth_duration_stimuli/003079_2014-06-15_15-18-20_094959634447_rgbf000152-resize_8/003079_2014-06-15_15-18-20_094959634447_rgbf000152-resize_8-target.png,250,2.8775,9,4329,239,feet,jsons/v1_VE250_randls_68_rotated.json,729967,1221982,34,Woman
71,396020,DepthScenes,duration_manipulation_targetAtFixation,jsons/v1_VE250_randls_68_rotated.json,http://54.235.29.9/FacialAge/BNav_EC2/DepthDuration/v2_depth_duration_MTurk/v2_DepthDuration_HTML.html#65,65,1242,568,1366,768,8-20-2022,12-55-41,72,depth_duration_stimuli/000506_2014-06-08_23-21-00_260595134347_rgbf000070-resize_7/000506_2014-06-08_23-21-00_260595134347_rgbf000070-resize_7-target.png,250,4.0585,5,3777,249,feet,jsons/v1_VE250_randls_68_rotated.json,729967,1221982,34,Woman
72,396020,DepthScenes,duration_manipulation_targetAtFixation,jsons/v1_VE250_randls_68_rotated.json,http://54.235.29.9/FacialAge/BNav_EC2/DepthDuration/v2_depth_duration_MTurk/v2_DepthDuration_HTML.html#65,65,1242,568,1366,768,8-20-2022,12-55-41,73,depth_duration_stimuli/002758_2014-06-22_19-11-20_094959634447_rgbf000128-resize_1/002758_2014-06-22_19-11-20_094959634447_rgbf000128-resize_1-target.png,250,2.555,4,3525,254,feet,jsons/v1_VE250_randls_68_rotated.json,729967,1221982,34,Woman
73,396020,DepthScenes,duration_manipulation_targetAtFixation,jsons/v1_VE250_randls_68_rotated.json,http://54.235.29.9/FacialAge/BNav_EC2/DepthDuration/v2_depth_duration_MTurk/v2_DepthDuration_HTML.html#65,65,1242,568,1366,768,8-20-2022,12-55-41,74,depth_duration_stimuli/002630_2014-06-24_14-47-50_094959634447_rgbf000055-resize_1/002630_2014-06-24_14-47-50_094959634447_rgbf000055-resize_1-target.png,250,3.0095,7,3180,276,feet,jsons/v1_VE250_randls_68_rotated.json,729967,1221982,34,Woman
74,396020,DepthScenes,duration_manipulation_targetAtFixation,jsons/v1_VE250_randls_68_rotated.json,http://54.235.29.9/FacialAge/BNav_EC2/DepthDuration/v2_depth_duration_MTurk/v2_DepthDuration_HTML.html#65,65,1242,568,1366,768,8-20-2022,12-55-41,75,depth_duration_stimuli/000137_2014-05-20_17-04-49_260595134347_rgbf000120-resize_1/000137_2014-05-20_17-04-49_260595134347_rgbf000120-resize_1-target.png,250,3.786,8,4304,248,feet,jsons/v1_VE250_randls_68_rotated.json,729967,1221982,34,Woman
75,396020,DepthScenes,duration_manipulation_targetAtFixation,jsons/v1_VE250_randls_68_rotated.json,http://54.235.29.9/FacialAge/BNav_EC2/DepthDuration/v2_depth_duration_MTurk/v2_DepthDuration_HTML.html#65,65,1242,568,1366,768,8-20-2022,12-55-41,76,depth_duration_stimuli/000736_2014-06-08_18-24-15_260595134347_rgbf000206-resize_3/000736_2014-06-08_18-24-15_260595134347_rgbf000206-resize_3-target.png,250,3.515,6,3255,241,feet,jsons/v1_VE250_randls_68_rotated.json,729967,1221982,34,Woman
76,396020,DepthScenes,duration_manipulation_targetAtFixation,jsons/v1_VE250_randls_68_rotated.json,http://54.235.29.9/FacialAge/BNav_EC2/DepthDuration/v2_depth_duration_MTurk/v2_DepthDuration_HTML.html#65,65,1242,568,1366,768,8-20-2022,12-55-41,77,depth_duration_stimuli/000691_2014-06-08_13-08-50_260595134347_rgbf000132-resize_3/000691_2014-06-08_13-08-50_260595134347_rgbf000132-resize_3-target.png,250,4.1530000000000005,5,3613,248,feet,jsons/v1_VE250_randls_68_rotated.json,729967,1221982,34,Woman
77,396020,DepthScenes,duration_manipulation_targetAtFixation,jsons/v1_VE250_randls_68_rotated.json,http://54.235.29.9/FacialAge/BNav_EC2/DepthDuration/v2_depth_duration_MTurk/v2_DepthDuration_HTML.html#65,65,1242,568,1366,768,8-20-2022,12-55-41,78,depth_duration_stimuli/002213_2014-06-28_18-37-58_260595134347_rgbf000055-resize_1/002213_2014-06-28_18-37-58_260595134347_rgbf000055-resize_1-target.png,250,3.62,7,3683,235,feet,jsons/v1_VE250_randls_68_rotated.json,729967,1221982,34,Woman
78,396020,DepthScenes,duration_manipulation_targetAtFixation,jsons/v1_VE250_randls_68_rotated.json,http://54.235.29.9/FacialAge/BNav_EC2/DepthDuration/v2_depth_duration_MTurk/v2_DepthDuration_HTML.html#65,65,1242,568,1366,768,8-20-2022,12-55-41,79,depth_duration_stimuli/000109_2014-05-14_23-41-52_260595134347_rgbf000035-resize_9/000109_2014-05-14_23-41-52_260595134347_rgbf000035-resize_9-target.png,250,1.3545,2,4466,256,feet,jsons/v1_VE250_randls_68_rotated.json,729967,1221982,34,Woman
79,396020,DepthScenes,duration_manipulation_targetAtFixation,jsons/v1_VE250_randls_68_rotated.json,http://54.235.29.9/FacialAge/BNav_EC2/DepthDuration/v2_depth_duration_MTurk/v2_DepthDuration_HTML.html#65,65,1242,568,1366,768,8-20-2022,12-55-41,80,depth_duration_stimuli/000470_2014-06-09_19-42-40_260595134347_rgbf000094-resize_1/000470_2014-06-09_19-42-40_260595134347_rgbf000094-resize_1-target.png,250,1.831,8,3763,257,feet,jsons/v1_VE250_randls_68_rotated.json,729967,1221982,34,Woman
80,396020,DepthScenes,duration_manipulation_targetAtFixation,jsons/v1_VE250_randls_68_rotated.json,http://54.235.29.9/FacialAge/BNav_EC2/DepthDuration/v2_depth_duration_MTurk/v2_DepthDuration_HTML.html#65,65,1242,568,1366,768,8-20-2022,12-55-41,81,depth_duration_stimuli/002103_2014-06-25_20-00-40_260595134347_rgbf000049-resize_0/002103_2014-06-25_20-00-40_260595134347_rgbf000049-resize_0-target.png,250,4.105,7,3924,248,feet,jsons/v1_VE250_randls_68_rotated.json,729967,1221982,34,Woman
81,396020,DepthScenes,duration_manipulation_targetAtFixation,jsons/v1_VE250_randls_68_rotated.json,http://54.235.29.9/FacialAge/BNav_EC2/DepthDuration/v2_depth_duration_MTurk/v2_DepthDuration_HTML.html#65,65,1242,568,1366,768,8-20-2022,12-55-41,82,depth_duration_stimuli/002039_2014-06-24_20-22-38_260595134347_rgbf000084-resize_1/002039_2014-06-24_20-22-38_260595134347_rgbf000084-resize_1-target.png,250,4.408,9,3130,232,feet,jsons/v1_VE250_randls_68_rotated.json,729967,1221982,34,Woman
82,396020,DepthScenes,duration_manipulation_targetAtFixation,jsons/v1_VE250_randls_68_rotated.json,http://54.235.29.9/FacialAge/BNav_EC2/DepthDuration/v2_depth_duration_MTurk/v2_DepthDuration_HTML.html#65,65,1242,568,1366,768,8-20-2022,12-55-41,83,depth_duration_stimuli/002660_2014-06-13_15-44-18_094959634447_rgbf001878-resize_2/002660_2014-06-13_15-44-18_094959634447_rgbf001878-resize_2-target.png,250,3.576,11,4013,258,feet,jsons/v1_VE250_randls_68_rotated.json,729967,1221982,34,Woman
83,396020,DepthScenes,duration_manipulation_targetAtFixation,jsons/v1_VE250_randls_68_rotated.json,http://54.235.29.9/FacialAge/BNav_EC2/DepthDuration/v2_depth_duration_MTurk/v2_DepthDuration_HTML.html#65,65,1242,568,1366,768,8-20-2022,12-55-41,84,depth_duration_stimuli/002153_2014-06-25_21-27-18_260595134347_rgbf000038-resize_5/002153_2014-06-25_21-27-18_260595134347_rgbf000038-resize_5-target.png,250,2.505,2,4817,258,feet,jsons/v1_VE250_randls_68_rotated.json,729967,1221982,34,Woman
84,396020,DepthScenes,duration_manipulation_targetAtFixation,jsons/v1_VE250_randls_68_rotated.json,http://54.235.29.9/FacialAge/BNav_EC2/DepthDuration/v2_depth_duration_MTurk/v2_DepthDuration_HTML.html#65,65,1242,568,1366,768,8-20-2022,12-55-41,85,depth_duration_stimuli/003338_2014-05-20_11-01-23_094959634447_rgbf000051-resize_6/003338_2014-05-20_11-01-23_094959634447_rgbf000051-resize_6-target.png,250,1.693,3,3768,251,feet,jsons/v1_VE250_randls_68_rotated.json,729967,1221982,34,Woman
85,396020,DepthScenes,duration_manipulation_targetAtFixation,jsons/v1_VE250_randls_68_rotated.json,http://54.235.29.9/FacialAge/BNav_EC2/DepthDuration/v2_depth_duration_MTurk/v2_DepthDuration_HTML.html#65,65,1242,568,1366,768,8-20-2022,12-55-41,86,depth_duration_stimuli/002509_2014-06-24_13-19-22_094959634447_rgbf000077-resize_0/002509_2014-06-24_13-19-22_094959634447_rgbf000077-resize_0-target.png,250,1.3065,4,3927,248,feet,jsons/v1_VE250_randls_68_rotated.json,729967,1221982,34,Woman
86,396020,DepthScenes,duration_manipulation_targetAtFixation,jsons/v1_VE250_randls_68_rotated.json,http://54.235.29.9/FacialAge/BNav_EC2/DepthDuration/v2_depth_duration_MTurk/v2_DepthDuration_HTML.html#65,65,1242,568,1366,768,8-20-2022,12-55-41,87,depth_duration_stimuli/000635_2014-06-08_16-38-42_260595134347_rgbf000106-resize_1/000635_2014-06-08_16-38-42_260595134347_rgbf000106-resize_1-target.png,250,2.074,7,4601,249,feet,jsons/v1_VE250_randls_68_rotated.json,729967,1221982,34,Woman
87,396020,DepthScenes,duration_manipulation_targetAtFixation,jsons/v1_VE250_randls_68_rotated.json,http://54.235.29.9/FacialAge/BNav_EC2/DepthDuration/v2_depth_duration_MTurk/v2_DepthDuration_HTML.html#65,65,1242,568,1366,768,8-20-2022,12-55-41,88,depth_duration_stimuli/002279_2014-06-28_18-55-32_260595134347_rgbf000040-resize_5/002279_2014-06-28_18-55-32_260595134347_rgbf000040-resize_5-target.png,250,1.5043333333333,3,3180,248,feet,jsons/v1_VE250_randls_68_rotated.json,729967,1221982,34,Woman
88,396020,DepthScenes,duration_manipulation_targetAtFixation,jsons/v1_VE250_randls_68_rotated.json,http://54.235.29.9/FacialAge/BNav_EC2/DepthDuration/v2_depth_duration_MTurk/v2_DepthDuration_HTML.html#65,65,1242,568,1366,768,8-20-2022,12-55-41,89,depth_duration_stimuli/002953_2014-06-08_17-32-18_094959634447_rgbf000059-resize_5/002953_2014-06-08_17-32-18_094959634447_rgbf000059-resize_5-target.png,250,1.551,2,4197,249,feet,jsons/v1_VE250_randls_68_rotated.json,729967,1221982,34,Woman
89,396020,DepthScenes,duration_manipulation_targetAtFixation,jsons/v1_VE250_randls_68_rotated.json,http://54.235.29.9/FacialAge/BNav_EC2/DepthDuration/v2_depth_duration_MTurk/v2_DepthDuration_HTML.html#65,65,1242,568,1366,768,8-20-2022,12-55-41,90,depth_duration_stimuli/000878_2014-06-08_22-52-45_260595134347_rgbf000045-resize_2/000878_2014-06-08_22-52-45_260595134347_rgbf000045-resize_2-target.png,250,2.092,5,3117,245,feet,jsons/v1_VE250_randls_68_rotated.json,729967,1221982,34,Woman
90,396020,DepthScenes,duration_manipulation_targetAtFixation,jsons/v1_VE250_randls_68_rotated.json,http://54.235.29.9/FacialAge/BNav_EC2/DepthDuration/v2_depth_duration_MTurk/v2_DepthDuration_HTML.html#65,65,1242,568,1366,768,8-20-2022,12-55-41,91,depth_duration_stimuli/002344_2014-06-28_20-06-29_260595134347_rgbf000030-resize_1/002344_2014-06-28_20-06-29_260595134347_rgbf000030-resize_1-target.png,250,1.5795,2,3338,249,feet,jsons/v1_VE250_randls_68_rotated.json,729967,1221982,34,Woman
91,396020,DepthScenes,duration_manipulation_targetAtFixation,jsons/v1_VE250_randls_68_rotated.json,http://54.235.29.9/FacialAge/BNav_EC2/DepthDuration/v2_depth_duration_MTurk/v2_DepthDuration_HTML.html#65,65,1242,568,1366,768,8-20-2022,12-55-41,92,depth_duration_stimuli/002725_2014-06-22_11-47-51_094959634447_rgbf000070-resize_1/002725_2014-06-22_11-47-51_094959634447_rgbf000070-resize_1-target.png,250,2.195,8,3510,253,feet,jsons/v1_VE250_randls_68_rotated.json,729967,1221982,34,Woman
92,396020,DepthScenes,duration_manipulation_targetAtFixation,jsons/v1_VE250_randls_68_rotated.json,http://54.235.29.9/FacialAge/BNav_EC2/DepthDuration/v2_depth_duration_MTurk/v2_DepthDuration_HTML.html#65,65,1242,568,1366,768,8-20-2022,12-55-41,93,depth_duration_stimuli/002444_2014-06-28_20-32-08_260595134347_rgbf000027-resize_0/002444_2014-06-28_20-32-08_260595134347_rgbf000027-resize_0-target.png,250,4.388999999999999,9,4271,250,feet,jsons/v1_VE250_randls_68_rotated.json,729967,1221982,34,Woman
93,396020,DepthScenes,duration_manipulation_targetAtFixation,jsons/v1_VE250_randls_68_rotated.json,http://54.235.29.9/FacialAge/BNav_EC2/DepthDuration/v2_depth_duration_MTurk/v2_DepthDuration_HTML.html#65,65,1242,568,1366,768,8-20-2022,12-55-41,94,depth_duration_stimuli/000436_2014-06-09_22-25-11_260595134347_rgbf000137-resize_1/000436_2014-06-09_22-25-11_260595134347_rgbf000137-resize_1-target.png,250,4.0705,11,3449,263,feet,jsons/v1_VE250_randls_68_rotated.json,729967,1221982,34,Woman
94,396020,DepthScenes,duration_manipulation_targetAtFixation,jsons/v1_VE250_randls_68_rotated.json,http://54.235.29.9/FacialAge/BNav_EC2/DepthDuration/v2_depth_duration_MTurk/v2_DepthDuration_HTML.html#65,65,1242,568,1366,768,8-20-2022,12-55-41,95,depth_duration_stimuli/001094_2014-06-15_17-36-00_260595134347_rgbf000205-resize_0/001094_2014-06-15_17-36-00_260595134347_rgbf000205-resize_0-target.png,250,4.2175,10,3804,250,feet,jsons/v1_VE250_randls_68_rotated.json,729967,1221982,34,Woman
95,396020,DepthScenes,duration_manipulation_targetAtFixation,jsons/v1_VE250_randls_68_rotated.json,http://54.235.29.9/FacialAge/BNav_EC2/DepthDuration/v2_depth_duration_MTurk/v2_DepthDuration_HTML.html#65,65,1242,568,1366,768,8-20-2022,12-55-41,96,depth_duration_stimuli/000692_2014-06-08_13-09-42_260595134347_rgbf000199-resize_2/000692_2014-06-08_13-09-42_260595134347_rgbf000199-resize_2-target.png,250,3.661,11,3748,249,feet,jsons/v1_VE250_randls_68_rotated.json,729967,1221982,34,Woman
96,396020,DepthScenes,duration_manipulation_targetAtFixation,jsons/v1_VE250_randls_68_rotated.json,http://54.235.29.9/FacialAge/BNav_EC2/DepthDuration/v2_depth_duration_MTurk/v2_DepthDuration_HTML.html#65,65,1242,568,1366,768,8-20-2022,12-55-41,97,depth_duration_stimuli/000665_2014-06-09_20-42-35_260595134347_rgbf000110-resize_1/000665_2014-06-09_20-42-35_260595134347_rgbf000110-resize_1-target.png,250,3.057,9,3367,231,feet,jsons/v1_VE250_randls_68_rotated.json,729967,1221982,34,Woman
97,396020,DepthScenes,duration_manipulation_targetAtFixation,jsons/v1_VE250_randls_68_rotated.json,http://54.235.29.9/FacialAge/BNav_EC2/DepthDuration/v2_depth_duration_MTurk/v2_DepthDuration_HTML.html#65,65,1242,568,1366,768,8-20-2022,12-55-41,98,depth_duration_stimuli/001150_2014-06-17_15-27-34_260595134347_rgbf000108-resize_2/001150_2014-06-17_15-27-34_260595134347_rgbf000108-resize_2-target.png,250,4.0325,11,3797,249,feet,jsons/v1_VE250_randls_68_rotated.json,729967,1221982,34,Woman
98,396020,DepthScenes,duration_manipulation_targetAtFixation,jsons/v1_VE250_randls_68_rotated.json,http://54.235.29.9/FacialAge/BNav_EC2/DepthDuration/v2_depth_duration_MTurk/v2_DepthDuration_HTML.html#65,65,1242,568,1366,768,8-20-2022,12-55-41,99,depth_duration_stimuli/001222_2014-06-17_16-24-06_260595134347_rgbf000073-resize_0/001222_2014-06-17_16-24-06_260595134347_rgbf000073-resize-original.jpg,250,1.4385,8,3922,249,feet,jsons/v1_VE250_randls_68_rotated.json,729967,1221982,34,Woman
99,396020,DepthScenes,duration_manipulation_targetAtFixation,jsons/v1_VE250_randls_68_rotated.json,http://54.235.29.9/FacialAge/BNav_EC2/DepthDuration/v2_depth_duration_MTurk/v2_DepthDuration_HTML.html#65,65,1242,568,1366,768,8-20-2022,12-55-41,100,depth_duration_stimuli/002414_2014-06-28_20-24-58_260595134347_rgbf000067-resize_4/002414_2014-06-28_20-24-58_260595134347_rgbf000067-resize_4-target.png,250,4.363,7,3883,263,feet,jsons/v1_VE250_randls_68_rotated.json,729967,1221982,34,Woman
100,396020,DepthScenes,duration_manipulation_targetAtFixation,jsons/v1_VE250_randls_68_rotated.json,http://54.235.29.9/FacialAge/BNav_EC2/DepthDuration/v2_depth_duration_MTurk/v2_DepthDuration_HTML.html#65,65,1242,568,1366,768,8-20-2022,12-55-41,101,depth_duration_stimuli/000773_2014-06-08_22-24-54_260595134347_rgbf000093-resize_1/000773_2014-06-08_22-24-54_260595134347_rgbf000093-resize_1-target.png,250,4.973,9,3715,250,feet,jsons/v1_VE250_randls_68_rotated.json,729967,1221982,34,Woman
101,396020,DepthScenes,duration_manipulation_targetAtFixation,jsons/v1_VE250_randls_68_rotated.json,http://54.235.29.9/FacialAge/BNav_EC2/DepthDuration/v2_depth_duration_MTurk/v2_DepthDuration_HTML.html#65,65,1242,568,1366,768,8-20-2022,12-55-41,102,depth_duration_stimuli/003048_2014-06-15_13-49-43_094959634447_rgbf000150-resize_1/003048_2014-06-15_13-49-43_094959634447_rgbf000150-resize_1-target.png,250,4.0035,11,4377,254,feet,jsons/v1_VE250_randls_68_rotated.json,729967,1221982,34,Woman
102,396020,DepthScenes,duration_manipulation_targetAtFixation,jsons/v1_VE250_randls_68_rotated.json,http://54.235.29.9/FacialAge/BNav_EC2/DepthDuration/v2_depth_duration_MTurk/v2_DepthDuration_HTML.html#65,65,1242,568,1366,768,8-20-2022,12-55-41,103,depth_duration_stimuli/002043_2014-06-24_20-29-38_260595134347_rgbf000039-resize_4/002043_2014-06-24_20-29-38_260595134347_rgbf000039-resize_4-target.png,250,2.8435,8,4739,249,feet,jsons/v1_VE250_randls_68_rotated.json,729967,1221982,34,Woman
103,396020,DepthScenes,duration_manipulation_targetAtFixation,jsons/v1_VE250_randls_68_rotated.json,http://54.235.29.9/FacialAge/BNav_EC2/DepthDuration/v2_depth_duration_MTurk/v2_DepthDuration_HTML.html#65,65,1242,568,1366,768,8-20-2022,12-55-41,104,depth_duration_stimuli/003495_2014-05-21_16-01-51_094959634447_rgbf000100-resize_3/003495_2014-05-21_16-01-51_094959634447_rgbf000100-resize_3-target.png,250,1.6255,2,3760,249,feet,jsons/v1_VE250_randls_68_rotated.json,729967,1221982,34,Woman
104,396020,DepthScenes,duration_manipulation_targetAtFixation,jsons/v1_VE250_randls_68_rotated.json,http://54.235.29.9/FacialAge/BNav_EC2/DepthDuration/v2_depth_duration_MTurk/v2_DepthDuration_HTML.html#65,65,1242,568,1366,768,8-20-2022,12-55-41,105,depth_duration_stimuli/001244_2014-06-17_16-47-45_260595134347_rgbf000030-resize_4/001244_2014-06-17_16-47-45_260595134347_rgbf000030-resize_4-target.png,250,2.0425,9,3639,248,feet,jsons/v1_VE250_randls_68_rotated.json,729967,1221982,34,Woman
105,396020,DepthScenes,duration_manipulation_targetAtFixation,jsons/v1_VE250_randls_68_rotated.json,http://54.235.29.9/FacialAge/BNav_EC2/DepthDuration/v2_depth_duration_MTurk/v2_DepthDuration_HTML.html#65,65,1242,568,1366,768,8-20-2022,12-55-41,106,depth_duration_stimuli/000866_2014-06-09_20-45-42_260595134347_rgbf000139-resize_1/000866_2014-06-09_20-45-42_260595134347_rgbf000139-resize_1-target.png,250,3.2155,7,3903,250,feet,jsons/v1_VE250_randls_68_rotated.json,729967,1221982,34,Woman
106,396020,DepthScenes,duration_manipulation_targetAtFixation,jsons/v1_VE250_randls_68_rotated.json,http://54.235.29.9/FacialAge/BNav_EC2/DepthDuration/v2_depth_duration_MTurk/v2_DepthDuration_HTML.html#65,65,1242,568,1366,768,8-20-2022,12-55-41,107,depth_duration_stimuli/002989_2014-06-15_12-25-03_094959634447_rgbf000150-resize_3/002989_2014-06-15_12-25-03_094959634447_rgbf000150-resize_3-target.png,250,4.1975,9,3229,251,feet,jsons/v1_VE250_randls_68_rotated.json,729967,1221982,34,Woman
107,396020,DepthScenes,duration_manipulation_targetAtFixation,jsons/v1_VE250_randls_68_rotated.json,http://54.235.29.9/FacialAge/BNav_EC2/DepthDuration/v2_depth_duration_MTurk/v2_DepthDuration_HTML.html#65,65,1242,568,1366,768,8-20-2022,12-55-41,108,depth_duration_stimuli/002545_2014-06-24_13-38-53_094959634447_rgbf000080-resize_4/002545_2014-06-24_13-38-53_094959634447_rgbf000080-resize_4-target.png,250,1.9205,4,3566,248,feet,jsons/v1_VE250_randls_68_rotated.json,729967,1221982,34,Woman
108,396020,DepthScenes,duration_manipulation_targetAtFixation,jsons/v1_VE250_randls_68_rotated.json,http://54.235.29.9/FacialAge/BNav_EC2/DepthDuration/v2_depth_duration_MTurk/v2_DepthDuration_HTML.html#65,65,1242,568,1366,768,8-20-2022,12-55-41,109,depth_duration_stimuli/001092_2014-06-15_17-34-58_260595134347_rgbf000171-resize_3/001092_2014-06-15_17-34-58_260595134347_rgbf000171-resize_3-target.png,250,2.6935,3,3961,248,feet,jsons/v1_VE250_randls_68_rotated.json,729967,1221982,34,Woman
109,396020,DepthScenes,duration_manipulation_targetAtFixation,jsons/v1_VE250_randls_68_rotated.json,http://54.235.29.9/FacialAge/BNav_EC2/DepthDuration/v2_depth_duration_MTurk/v2_DepthDuration_HTML.html#65,65,1242,568,1366,768,8-20-2022,12-55-41,110,depth_duration_stimuli/001214_2014-06-17_16-13-55_260595134347_rgbf000111-resize_0/001214_2014-06-17_16-13-55_260595134347_rgbf000111-resize_0-target.png,250,2.6505,4,3365,249,feet,jsons/v1_VE250_randls_68_rotated.json,729967,1221982,34,Woman
110,396020,DepthScenes,duration_manipulation_targetAtFixation,jsons/v1_VE250_randls_68_rotated.json,http://54.235.29.9/FacialAge/BNav_EC2/DepthDuration/v2_depth_duration_MTurk/v2_DepthDuration_HTML.html#65,65,1242,568,1366,768,8-20-2022,12-55-41,111,depth_duration_stimuli/000810_2014-06-08_17-20-01_260595134347_rgbf000105-resize_0/000810_2014-06-08_17-20-01_260595134347_rgbf000105-resize_0-target.png,250,1.4865,6,3382,250,feet,jsons/v1_VE250_randls_68_rotated.json,729967,1221982,34,Woman
111,396020,DepthScenes,duration_manipulation_targetAtFixation,jsons/v1_VE250_randls_68_rotated.json,http://54.235.29.9/FacialAge/BNav_EC2/DepthDuration/v2_depth_duration_MTurk/v2_DepthDuration_HTML.html#65,65,1242,568,1366,768,8-20-2022,12-55-41,112,depth_duration_stimuli/000549_2014-06-08_22-10-24_260595134347_rgbf000247-resize_3/000549_2014-06-08_22-10-24_260595134347_rgbf000247-resize_3-target.png,250,1.841,3,8108,264,feet,jsons/v1_VE250_randls_68_rotated.json,729967,1221982,34,Woman
112,396020,DepthScenes,duration_manipulation_targetAtFixation,jsons/v1_VE250_randls_68_rotated.json,http://54.235.29.9/FacialAge/BNav_EC2/DepthDuration/v2_depth_duration_MTurk/v2_DepthDuration_HTML.html#65,65,1242,568,1366,768,8-20-2022,12-55-41,113,depth_duration_stimuli/001055_2014-06-08_18-45-35_260595134347_rgbf000111-resize_4/001055_2014-06-08_18-45-35_260595134347_rgbf000111-resize_4-target.png,250,2.4290000000000003,15,3763,249,feet,jsons/v1_VE250_randls_68_rotated.json,729967,1221982,34,Woman
113,396020,DepthScenes,duration_manipulation_targetAtFixation,jsons/v1_VE250_randls_68_rotated.json,http://54.235.29.9/FacialAge/BNav_EC2/DepthDuration/v2_depth_duration_MTurk/v2_DepthDuration_HTML.html#65,65,1242,568,1366,768,8-20-2022,12-55-41,114,depth_duration_stimuli/000483_2014-06-09_20-41-45_260595134347_rgbf000116-resize_4/000483_2014-06-09_20-41-45_260595134347_rgbf000116-resize_4-target.png,250,1.337,3,3706,249,feet,jsons/v1_VE250_randls_68_rotated.json,729967,1221982,34,Woman
114,396020,DepthScenes,duration_manipulation_targetAtFixation,jsons/v1_VE250_randls_68_rotated.json,http://54.235.29.9/FacialAge/BNav_EC2/DepthDuration/v2_depth_duration_MTurk/v2_DepthDuration_HTML.html#65,65,1242,568,1366,768,8-20-2022,12-55-41,115,depth_duration_stimuli/000469_2014-06-09_19-42-10_260595134347_rgbf000081-resize_1/000469_2014-06-09_19-42-10_260595134347_rgbf000081-resize_1-target.png,250,1.652,4,3161,259,feet,jsons/v1_VE250_randls_68_rotated.json,729967,1221982,34,Woman
115,396020,DepthScenes,duration_manipulation_targetAtFixation,jsons/v1_VE250_randls_68_rotated.json,http://54.235.29.9/FacialAge/BNav_EC2/DepthDuration/v2_depth_duration_MTurk/v2_DepthDuration_HTML.html#65,65,1242,568,1366,768,8-20-2022,12-55-41,116,depth_duration_stimuli/000749_2014-06-08_21-55-06_260595134347_rgbf000070-resize_2/000749_2014-06-08_21-55-06_260595134347_rgbf000070-resize_2-target.png,250,2.331,6,3843,253,feet,jsons/v1_VE250_randls_68_rotated.json,729967,1221982,34,Woman
116,396020,DepthScenes,duration_manipulation_targetAtFixation,jsons/v1_VE250_randls_68_rotated.json,http://54.235.29.9/FacialAge/BNav_EC2/DepthDuration/v2_depth_duration_MTurk/v2_DepthDuration_HTML.html#65,65,1242,568,1366,768,8-20-2022,12-55-41,117,depth_duration_stimuli/002788_2014-06-22_19-36-03_094959634447_rgbf000088-resize_2/002788_2014-06-22_19-36-03_094959634447_rgbf000088-resize_2-target.png,250,1.6465,6,3905,248,feet,jsons/v1_VE250_randls_68_rotated.json,729967,1221982,34,Woman
117,396020,DepthScenes,duration_manipulation_targetAtFixation,jsons/v1_VE250_randls_68_rotated.json,http://54.235.29.9/FacialAge/BNav_EC2/DepthDuration/v2_depth_duration_MTurk/v2_DepthDuration_HTML.html#65,65,1242,568,1366,768,8-20-2022,12-55-41,118,depth_duration_stimuli/001032_2014-06-08_13-23-17_260595134347_rgbf000021-resize_3/001032_2014-06-08_13-23-17_260595134347_rgbf000021-resize_3-target.png,250,3.2725,4,3672,263,feet,jsons/v1_VE250_randls_68_rotated.json,729967,1221982,34,Woman
118,396020,DepthScenes,duration_manipulation_targetAtFixation,jsons/v1_VE250_randls_68_rotated.json,http://54.235.29.9/FacialAge/BNav_EC2/DepthDuration/v2_depth_duration_MTurk/v2_DepthDuration_HTML.html#65,65,1242,568,1366,768,8-20-2022,12-55-41,119,depth_duration_stimuli/001059_2014-06-08_21-53-27_260595134347_rgbf000061-resize_4/001059_2014-06-08_21-53-27_260595134347_rgbf000061-resize_4-target.png,250,2.4185,7,3541,242,feet,jsons/v1_VE250_randls_68_rotated.json,729967,1221982,34,Woman
119,396020,DepthScenes,duration_manipulation_targetAtFixation,jsons/v1_VE250_randls_68_rotated.json,http://54.235.29.9/FacialAge/BNav_EC2/DepthDuration/v2_depth_duration_MTurk/v2_DepthDuration_HTML.html#65,65,1242,568,1366,768,8-20-2022,12-55-41,120,depth_duration_stimuli/000787_2014-06-08_22-33-53_260595134347_rgbf000175-resize_1/000787_2014-06-08_22-33-53_260595134347_rgbf000175-resize-original.jpg,250,4.784,14,4779,250,feet,jsons/v1_VE250_randls_68_rotated.json,729967,1221982,34,Woman
120,396020,DepthScenes,duration_manipulation_targetAtFixation,jsons/v1_VE250_randls_68_rotated.json,http://54.235.29.9/FacialAge/BNav_EC2/DepthDuration/v2_depth_duration_MTurk/v2_DepthDuration_HTML.html#65,65,1242,568,1366,768,8-20-2022,12-55-41,121,depth_duration_stimuli/002209_2014-06-28_18-36-10_260595134347_rgbf000051-resize_1/002209_2014-06-28_18-36-10_260595134347_rgbf000051-resize_1-target.png,250,2.057,5,3798,253,feet,jsons/v1_VE250_randls_68_rotated.json,729967,1221982,34,Woman
121,396020,DepthScenes,duration_manipulation_targetAtFixation,jsons/v1_VE250_randls_68_rotated.json,http://54.235.29.9/FacialAge/BNav_EC2/DepthDuration/v2_depth_duration_MTurk/v2_DepthDuration_HTML.html#65,65,1242,568,1366,768,8-20-2022,12-55-41,122,depth_duration_stimuli/002763_2014-06-22_19-13-10_094959634447_rgbf000075-resize_4/002763_2014-06-22_19-13-10_094959634447_rgbf000075-resize_4-target.png,250,1.68375,9,3349,251,feet,jsons/v1_VE250_randls_68_rotated.json,729967,1221982,34,Woman
122,396020,DepthScenes,duration_manipulation_targetAtFixation,jsons/v1_VE250_randls_68_rotated.json,http://54.235.29.9/FacialAge/BNav_EC2/DepthDuration/v2_depth_duration_MTurk/v2_DepthDuration_HTML.html#65,65,1242,568,1366,768,8-20-2022,12-55-41,123,depth_duration_stimuli/001235_2014-06-17_16-37-36_260595134347_rgbf000084-resize_4/001235_2014-06-17_16-37-36_260595134347_rgbf000084-resize_4-target.png,250,3.6605,7,3250,258,feet,jsons/v1_VE250_randls_68_rotated.json,729967,1221982,34,Woman
123,396020,DepthScenes,duration_manipulation_targetAtFixation,jsons/v1_VE250_randls_68_rotated.json,http://54.235.29.9/FacialAge/BNav_EC2/DepthDuration/v2_depth_duration_MTurk/v2_DepthDuration_HTML.html#65,65,1242,568,1366,768,8-20-2022,12-55-41,124,depth_duration_stimuli/000788_2014-06-08_22-34-36_260595134347_rgbf000131-resize_1/000788_2014-06-08_22-34-36_260595134347_rgbf000131-resize_1-target.png,250,3.359,6,3809,254,feet,jsons/v1_VE250_randls_68_rotated.json,729967,1221982,34,Woman
124,396020,DepthScenes,duration_manipulation_targetAtFixation,jsons/v1_VE250_randls_68_rotated.json,http://54.235.29.9/FacialAge/BNav_EC2/DepthDuration/v2_depth_duration_MTurk/v2_DepthDuration_HTML.html#65,65,1242,568,1366,768,8-20-2022,12-55-41,125,depth_duration_stimuli/002425_2014-06-28_20-27-29_260595134347_rgbf000031-resize_8/002425_2014-06-28_20-27-29_260595134347_rgbf000031-resize_8-target.png,250,3.8960000000000004,7,4193,248,feet,jsons/v1_VE250_randls_68_rotated.json,729967,1221982,34,Woman
125,396020,DepthScenes,duration_manipulation_targetAtFixation,jsons/v1_VE250_randls_68_rotated.json,http://54.235.29.9/FacialAge/BNav_EC2/DepthDuration/v2_depth_duration_MTurk/v2_DepthDuration_HTML.html#65,65,1242,568,1366,768,8-20-2022,12-55-41,126,depth_duration_stimuli/000642_2014-06-08_16-59-25_260595134347_rgbf000098-resize_2/000642_2014-06-08_16-59-25_260595134347_rgbf000098-resize_2-target.png,250,2.8815,5,2923,249,feet,jsons/v1_VE250_randls_68_rotated.json,729967,1221982,34,Woman
126,396020,DepthScenes,duration_manipulation_targetAtFixation,jsons/v1_VE250_randls_68_rotated.json,http://54.235.29.9/FacialAge/BNav_EC2/DepthDuration/v2_depth_duration_MTurk/v2_DepthDuration_HTML.html#65,65,1242,568,1366,768,8-20-2022,12-55-41,127,depth_duration_stimuli/001828_2014-06-26_21-40-03_260595134347_rgbf000024-resize_0/001828_2014-06-26_21-40-03_260595134347_rgbf000024-resize_0-target.png,250,4.8260000000000005,6,4498,248,feet,jsons/v1_VE250_randls_68_rotated.json,729967,1221982,34,Woman
127,396020,DepthScenes,duration_manipulation_targetAtFixation,jsons/v1_VE250_randls_68_rotated.json,http://54.235.29.9/FacialAge/BNav_EC2/DepthDuration/v2_depth_duration_MTurk/v2_DepthDuration_HTML.html#65,65,1242,568,1366,768,8-20-2022,12-55-41,128,depth_duration_stimuli/000009_2014-05-26_14-32-05_260595134347_rgbf000034-resize_3/000009_2014-05-26_14-32-05_260595134347_rgbf000034-resize_3-target.png,250,3.8715,8,3639,248,feet,jsons/v1_VE250_randls_68_rotated.json,729967,1221982,34,Woman
128,396020,DepthScenes,duration_manipulation_targetAtFixation,jsons/v1_VE250_randls_68_rotated.json,http://54.235.29.9/FacialAge/BNav_EC2/DepthDuration/v2_depth_duration_MTurk/v2_DepthDuration_HTML.html#65,65,1242,568,1366,768,8-20-2022,12-55-41,129,depth_duration_stimuli/000780_2014-06-08_22-28-29_260595134347_rgbf000126-resize_1/000780_2014-06-08_22-28-29_260595134347_rgbf000126-resize_1-target.png,250,3.3825,7,3760,248,feet,jsons/v1_VE250_randls_68_rotated.json,729967,1221982,34,Woman
129,396020,DepthScenes,duration_manipulation_targetAtFixation,jsons/v1_VE250_randls_68_rotated.json,http://54.235.29.9/FacialAge/BNav_EC2/DepthDuration/v2_depth_duration_MTurk/v2_DepthDuration_HTML.html#65,65,1242,568,1366,768,8-20-2022,12-55-41,130,depth_duration_stimuli/002445_2014-06-28_20-32-16_260595134347_rgbf000029-resize_4/002445_2014-06-28_20-32-16_260595134347_rgbf000029-resize_4-target.png,250,2.5315,3,2977,248,feet,jsons/v1_VE250_randls_68_rotated.json,729967,1221982,34,Woman
130,396020,DepthScenes,duration_manipulation_targetAtFixation,jsons/v1_VE250_randls_68_rotated.json,http://54.235.29.9/FacialAge/BNav_EC2/DepthDuration/v2_depth_duration_MTurk/v2_DepthDuration_HTML.html#65,65,1242,568,1366,768,8-20-2022,12-55-41,131,depth_duration_stimuli/003423_2014-05-21_10-23-26_094959634447_rgbf002665-resize_2/003423_2014-05-21_10-23-26_094959634447_rgbf002665-resize_2-target.png,250,3.2575,4,3388,233,feet,jsons/v1_VE250_randls_68_rotated.json,729967,1221982,34,Woman
131,396020,DepthScenes,duration_manipulation_targetAtFixation,jsons/v1_VE250_randls_68_rotated.json,http://54.235.29.9/FacialAge/BNav_EC2/DepthDuration/v2_depth_duration_MTurk/v2_DepthDuration_HTML.html#65,65,1242,568,1366,768,8-20-2022,12-55-41,132,depth_duration_stimuli/002905_2014-06-03_18-04-43_094959634447_rgbf000151-resize_2/002905_2014-06-03_18-04-43_094959634447_rgbf000151-resize_2-target.png,250,2.0295,9,3189,252,feet,jsons/v1_VE250_randls_68_rotated.json,729967,1221982,34,Woman
132,396020,DepthScenes,duration_manipulation_targetAtFixation,jsons/v1_VE250_randls_68_rotated.json,http://54.235.29.9/FacialAge/BNav_EC2/DepthDuration/v2_depth_duration_MTurk/v2_DepthDuration_HTML.html#65,65,1242,568,1366,768,8-20-2022,12-55-41,133,depth_duration_stimuli/001450_2014-06-19_17-02-03_260595134347_rgbf000203-resize_4/001450_2014-06-19_17-02-03_260595134347_rgbf000203-resize_4-target.png,250,4.0106666666667,9,3674,264,feet,jsons/v1_VE250_randls_68_rotated.json,729967,1221982,34,Woman
133,396020,DepthScenes,duration_manipulation_targetAtFixation,jsons/v1_VE250_randls_68_rotated.json,http://54.235.29.9/FacialAge/BNav_EC2/DepthDuration/v2_depth_duration_MTurk/v2_DepthDuration_HTML.html#65,65,1242,568,1366,768,8-20-2022,12-55-41,134,depth_duration_stimuli/001449_2014-06-19_17-01-27_260595134347_rgbf000116-resize_2/001449_2014-06-19_17-01-27_260595134347_rgbf000116-resize_2-target.png,250,3.452,12,3902,237,feet,jsons/v1_VE250_randls_68_rotated.json,729967,1221982,34,Woman
134,396020,DepthScenes,duration_manipulation_targetAtFixation,jsons/v1_VE250_randls_68_rotated.json,http://54.235.29.9/FacialAge/BNav_EC2/DepthDuration/v2_depth_duration_MTurk/v2_DepthDuration_HTML.html#65,65,1242,568,1366,768,8-20-2022,12-55-41,135,depth_duration_stimuli/000375_2014-06-08_11-17-29_260595134347_rgbf000133-resize_2/000375_2014-06-08_11-17-29_260595134347_rgbf000133-resize-original.jpg,250,4.718,11,4195,265,feet,jsons/v1_VE250_randls_68_rotated.json,729967,1221982,34,Woman
135,396020,DepthScenes,duration_manipulation_targetAtFixation,jsons/v1_VE250_randls_68_rotated.json,http://54.235.29.9/FacialAge/BNav_EC2/DepthDuration/v2_depth_duration_MTurk/v2_DepthDuration_HTML.html#65,65,1242,568,1366,768,8-20-2022,12-55-41,136,depth_duration_stimuli/001392_2014-06-19_16-07-59_260595134347_rgbf000046-resize_1/001392_2014-06-19_16-07-59_260595134347_rgbf000046-resize_1-target.png,250,4.135,13,3968,248,feet,jsons/v1_VE250_randls_68_rotated.json,729967,1221982,34,Woman
136,396020,DepthScenes,duration_manipulation_targetAtFixation,jsons/v1_VE250_randls_68_rotated.json,http://54.235.29.9/FacialAge/BNav_EC2/DepthDuration/v2_depth_duration_MTurk/v2_DepthDuration_HTML.html#65,65,1242,568,1366,768,8-20-2022,12-55-41,137,depth_duration_stimuli/001570_2014-06-20_17-21-09_260595134347_rgbf000135-resize_4/001570_2014-06-20_17-21-09_260595134347_rgbf000135-resize_4-target.png,250,4.467,14,3972,249,feet,jsons/v1_VE250_randls_68_rotated.json,729967,1221982,34,Woman
137,396020,DepthScenes,duration_manipulation_targetAtFixation,jsons/v1_VE250_randls_68_rotated.json,http://54.235.29.9/FacialAge/BNav_EC2/DepthDuration/v2_depth_duration_MTurk/v2_DepthDuration_HTML.html#65,65,1242,568,1366,768,8-20-2022,12-55-41,138,depth_duration_stimuli/002750_2014-06-22_19-08-03_094959634447_rgbf000094-resize_4/002750_2014-06-22_19-08-03_094959634447_rgbf000094-resize_4-target.png,250,2.354,16,5000,248,feet,jsons/v1_VE250_randls_68_rotated.json,729967,1221982,34,Woman
138,396020,DepthScenes,duration_manipulation_targetAtFixation,jsons/v1_VE250_randls_68_rotated.json,http://54.235.29.9/FacialAge/BNav_EC2/DepthDuration/v2_depth_duration_MTurk/v2_DepthDuration_HTML.html#65,65,1242,568,1366,768,8-20-2022,12-55-41,139,depth_duration_stimuli/002549_2014-06-24_13-41-39_094959634447_rgbf000022-resize_3/002549_2014-06-24_13-41-39_094959634447_rgbf000022-resize_3-target.png,250,1.476,8,3524,248,feet,jsons/v1_VE250_randls_68_rotated.json,729967,1221982,34,Woman
139,396020,DepthScenes,duration_manipulation_targetAtFixation,jsons/v1_VE250_randls_68_rotated.json,http://54.235.29.9/FacialAge/BNav_EC2/DepthDuration/v2_depth_duration_MTurk/v2_DepthDuration_HTML.html#65,65,1242,568,1366,768,8-20-2022,12-55-41,140,depth_duration_stimuli/002805_2014-06-22_19-54-03_094959634447_rgbf000079-resize_1/002805_2014-06-22_19-54-03_094959634447_rgbf000079-resize_1-target.png,250,3.1439999999999997,11,4244,255,feet,jsons/v1_VE250_randls_68_rotated.json,729967,1221982,34,Woman
140,396020,DepthScenes,duration_manipulation_targetAtFixation,jsons/v1_VE250_randls_68_rotated.json,http://54.235.29.9/FacialAge/BNav_EC2/DepthDuration/v2_depth_duration_MTurk/v2_DepthDuration_HTML.html#65,65,1242,568,1366,768,8-20-2022,12-55-41,141,depth_duration_stimuli/000906_2014-06-08_13-35-43_260595134347_rgbf000155-resize_1/000906_2014-06-08_13-35-43_260595134347_rgbf000155-resize_1-target.png,250,2.8489999999999998,13,3881,259,feet,jsons/v1_VE250_randls_68_rotated.json,729967,1221982,34,Woman
141,396020,DepthScenes,duration_manipulation_targetAtFixation,jsons/v1_VE250_randls_68_rotated.json,http://54.235.29.9/FacialAge/BNav_EC2/DepthDuration/v2_depth_duration_MTurk/v2_DepthDuration_HTML.html#65,65,1242,568,1366,768,8-20-2022,12-55-41,142,depth_duration_stimuli/001815_2014-06-26_20-52-55_260595134347_rgbf000020-resize_0/001815_2014-06-26_20-52-55_260595134347_rgbf000020-resize_0-target.png,250,3.3865,14,4467,257,feet,jsons/v1_VE250_randls_68_rotated.json,729967,1221982,34,Woman
142,396020,DepthScenes,duration_manipulation_targetAtFixation,jsons/v1_VE250_randls_68_rotated.json,http://54.235.29.9/FacialAge/BNav_EC2/DepthDuration/v2_depth_duration_MTurk/v2_DepthDuration_HTML.html#65,65,1242,568,1366,768,8-20-2022,12-55-41,143,depth_duration_stimuli/001808_2014-06-26_20-50-58_260595134347_rgbf000029-resize_1/001808_2014-06-26_20-50-58_260595134347_rgbf000029-resize_1-target.png,250,4.249,18,3915,250,feet,jsons/v1_VE250_randls_68_rotated.json,729967,1221982,34,Woman
143,396020,DepthScenes,duration_manipulation_targetAtFixation,jsons/v1_VE250_randls_68_rotated.json,http://54.235.29.9/FacialAge/BNav_EC2/DepthDuration/v2_depth_duration_MTurk/v2_DepthDuration_HTML.html#65,65,1242,568,1366,768,8-20-2022,12-55-41,144,depth_duration_stimuli/000191_2014-05-12_17-07-38_260595134347_rgbf000199-resize_0/000191_2014-05-12_17-07-38_260595134347_rgbf000199-resize_0-target.png,250,3.7995,19,4210,248,feet,jsons/v1_VE250_randls_68_rotated.json,729967,1221982,34,Woman
144,396020,DepthScenes,duration_manipulation_targetAtFixation,jsons/v1_VE250_randls_68_rotated.json,http://54.235.29.9/FacialAge/BNav_EC2/DepthDuration/v2_depth_duration_MTurk/v2_DepthDuration_HTML.html#65,65,1242,568,1366,768,8-20-2022,12-55-41,145,depth_duration_stimuli/000493_2014-06-09_21-01-18_260595134347_rgbf000196-resize_3/000493_2014-06-09_21-01-18_260595134347_rgbf000196-resize_3-target.png,250,3.44,17,3236,233,feet,jsons/v1_VE250_randls_68_rotated.json,729967,1221982,34,Woman
145,396020,DepthScenes,duration_manipulation_targetAtFixation,jsons/v1_VE250_randls_68_rotated.json,http://54.235.29.9/FacialAge/BNav_EC2/DepthDuration/v2_depth_duration_MTurk/v2_DepthDuration_HTML.html#65,65,1242,568,1366,768,8-20-2022,12-55-41,146,depth_duration_stimuli/000502_2014-06-08_23-02-32_260595134347_rgbf000063-resize_4/000502_2014-06-08_23-02-32_260595134347_rgbf000063-resize_4-target.png,250,2.431,13,4457,240,feet,jsons/v1_VE250_randls_68_rotated.json,729967,1221982,34,Woman
146,396020,DepthScenes,duration_manipulation_targetAtFixation,jsons/v1_VE250_randls_68_rotated.json,http://54.235.29.9/FacialAge/BNav_EC2/DepthDuration/v2_depth_duration_MTurk/v2_DepthDuration_HTML.html#65,65,1242,568,1366,768,8-20-2022,12-55-41,147,depth_duration_stimuli/001199_2014-06-17_16-03-48_260595134347_rgbf000077-resize_0/001199_2014-06-17_16-03-48_260595134347_rgbf000077-resize_0-target.png,250,3.4375,12,4142,248,feet,jsons/v1_VE250_randls_68_rotated.json,729967,1221982,34,Woman
147,396020,DepthScenes,duration_manipulation_targetAtFixation,jsons/v1_VE250_randls_68_rotated.json,http://54.235.29.9/FacialAge/BNav_EC2/DepthDuration/v2_depth_duration_MTurk/v2_DepthDuration_HTML.html#65,65,1242,568,1366,768,8-20-2022,12-55-41,148,depth_duration_stimuli/000709_2014-06-08_13-51-55_260595134347_rgbf000068-resize_3/000709_2014-06-08_13-51-55_260595134347_rgbf000068-resize_3-target.png,250,1.8030000000000002,14,3908,263,feet,jsons/v1_VE250_randls_68_rotated.json,729967,1221982,34,Woman
148,396020,DepthScenes,duration_manipulation_targetAtFixation,jsons/v1_VE250_randls_68_rotated.json,http://54.235.29.9/FacialAge/BNav_EC2/DepthDuration/v2_depth_duration_MTurk/v2_DepthDuration_HTML.html#65,65,1242,568,1366,768,8-20-2022,12-55-41,149,depth_duration_stimuli/002057_2014-06-24_21-00-13_260595134347_rgbf000120-resize_1/002057_2014-06-24_21-00-13_260595134347_rgbf000120-resize_1-target.png,250,2.967,16,4225,250,feet,jsons/v1_VE250_randls_68_rotated.json,729967,1221982,34,Woman
149,396020,DepthScenes,duration_manipulation_targetAtFixation,jsons/v1_VE250_randls_68_rotated.json,http://54.235.29.9/FacialAge/BNav_EC2/DepthDuration/v2_depth_duration_MTurk/v2_DepthDuration_HTML.html#65,65,1242,568,1366,768,8-20-2022,12-55-41,150,depth_duration_stimuli/001136_2014-06-17_15-19-41_260595134347_rgbf000076-resize_3/001136_2014-06-17_15-19-41_260595134347_rgbf000076-resize_3-target.png,250,1.8655,17,4115,246,feet,jsons/v1_VE250_randls_68_rotated.json,729967,1221982,34,Woman
150,396020,DepthScenes,duration_manipulation_targetAtFixation,jsons/v1_VE250_randls_68_rotated.json,http://54.235.29.9/FacialAge/BNav_EC2/DepthDuration/v2_depth_duration_MTurk/v2_DepthDuration_HTML.html#65,65,1242,568,1366,768,8-20-2022,12-55-41,151,depth_duration_stimuli/001164_2014-06-17_15-35-46_260595134347_rgbf000085-resize_3/001164_2014-06-17_15-35-46_260595134347_rgbf000085-resize_3-target.png,250,2.354,14,3986,246,feet,jsons/v1_VE250_randls_68_rotated.json,729967,1221982,34,Woman
151,396020,DepthScenes,duration_manipulation_targetAtFixation,jsons/v1_VE250_randls_68_rotated.json,http://54.235.29.9/FacialAge/BNav_EC2/DepthDuration/v2_depth_duration_MTurk/v2_DepthDuration_HTML.html#65,65,1242,568,1366,768,8-20-2022,12-55-41,152,depth_duration_stimuli/000569_2014-06-09_22-51-47_260595134347_rgbf000141-resize_3/000569_2014-06-09_22-51-47_260595134347_rgbf000141-resize-original.jpg,250,4.512,12,4771,248,feet,jsons/v1_VE250_randls_68_rotated.json,729967,1221982,34,Woman
152,396020,DepthScenes,duration_manipulation_targetAtFixation,jsons/v1_VE250_randls_68_rotated.json,http://54.235.29.9/FacialAge/BNav_EC2/DepthDuration/v2_depth_duration_MTurk/v2_DepthDuration_HTML.html#65,65,1242,568,1366,768,8-20-2022,12-55-41,153,depth_duration_stimuli/003081_2014-06-15_15-19-16_094959634447_rgbf000150-resize_1/003081_2014-06-15_15-19-16_094959634447_rgbf000150-resize_1-target.png,250,3.9125,8,5849,248,feet,jsons/v1_VE250_randls_68_rotated.json,729967,1221982,34,Woman
153,396020,DepthScenes,duration_manipulation_targetAtFixation,jsons/v1_VE250_randls_68_rotated.json,http://54.235.29.9/FacialAge/BNav_EC2/DepthDuration/v2_depth_duration_MTurk/v2_DepthDuration_HTML.html#65,65,1242,568,1366,768,8-20-2022,12-55-41,154,depth_duration_stimuli/001417_2014-06-19_16-25-36_260595134347_rgbf000115-resize_5/001417_2014-06-19_16-25-36_260595134347_rgbf000115-resize_5-target.png,250,4.6255,9,3734,249,feet,jsons/v1_VE250_randls_68_rotated.json,729967,1221982,34,Woman
154,396020,DepthScenes,duration_manipulation_targetAtFixation,jsons/v1_VE250_randls_68_rotated.json,http://54.235.29.9/FacialAge/BNav_EC2/DepthDuration/v2_depth_duration_MTurk/v2_DepthDuration_HTML.html#65,65,1242,568,1366,768,8-20-2022,12-55-41,155,depth_duration_stimuli/000854_2014-06-09_19-43-13_260595134347_rgbf000066-resize_0/000854_2014-06-09_19-43-13_260595134347_rgbf000066-resize_0-target.png,250,3.068,6,3993,249,feet,jsons/v1_VE250_randls_68_rotated.json,729967,1221982,34,Woman
155,396020,DepthScenes,duration_manipulation_targetAtFixation,jsons/v1_VE250_randls_68_rotated.json,http://54.235.29.9/FacialAge/BNav_EC2/DepthDuration/v2_depth_duration_MTurk/v2_DepthDuration_HTML.html#65,65,1242,568,1366,768,8-20-2022,12-55-41,156,depth_duration_stimuli/000758_2014-06-08_22-05-08_260595134347_rgbf000085-resize_0/000758_2014-06-08_22-05-08_260595134347_rgbf000085-resize_0-target.png,250,3.3810000000000002,8,3141,248,feet,jsons/v1_VE250_randls_68_rotated.json,729967,1221982,34,Woman
156,396020,DepthScenes,duration_manipulation_targetAtFixation,jsons/v1_VE250_randls_68_rotated.json,http://54.235.29.9/FacialAge/BNav_EC2/DepthDuration/v2_depth_duration_MTurk/v2_DepthDuration_HTML.html#65,65,1242,568,1366,768,8-20-2022,12-55-41,157,depth_duration_stimuli/003010_2014-06-15_12-54-35_094959634447_rgbf000112-resize_0/003010_2014-06-15_12-54-35_094959634447_rgbf000112-resize_0-target.png,250,3.1185,9,3660,263,feet,jsons/v1_VE250_randls_68_rotated.json,729967,1221982,34,Woman
157,396020,DepthScenes,duration_manipulation_targetAtFixation,jsons/v1_VE250_randls_68_rotated.json,http://54.235.29.9/FacialAge/BNav_EC2/DepthDuration/v2_depth_duration_MTurk/v2_DepthDuration_HTML.html#65,65,1242,568,1366,768,8-20-2022,12-55-41,158,depth_duration_stimuli/001810_2014-06-26_20-51-35_260595134347_rgbf000040-resize_3/001810_2014-06-26_20-51-35_260595134347_rgbf000040-resize_3-target.png,250,2.2525,4,3000,248,feet,jsons/v1_VE250_randls_68_rotated.json,729967,1221982,34,Woman
158,396020,DepthScenes,duration_manipulation_targetAtFixation,jsons/v1_VE250_randls_68_rotated.json,http://54.235.29.9/FacialAge/BNav_EC2/DepthDuration/v2_depth_duration_MTurk/v2_DepthDuration_HTML.html#65,65,1242,568,1366,768,8-20-2022,12-55-41,159,depth_duration_stimuli/000943_2014-06-09_19-31-07_260595134347_rgbf000128-resize_1/000943_2014-06-09_19-31-07_260595134347_rgbf000128-resize_1-target.png,250,1.9765,6,3917,233,feet,jsons/v1_VE250_randls_68_rotated.json,729967,1221982,34,Woman
159,396020,DepthScenes,duration_manipulation_targetAtFixation,jsons/v1_VE250_randls_68_rotated.json,http://54.235.29.9/FacialAge/BNav_EC2/DepthDuration/v2_depth_duration_MTurk/v2_DepthDuration_HTML.html#65,65,1242,568,1366,768,8-20-2022,12-55-41,160,depth_duration_stimuli/003070_2014-06-15_14-58-27_094959634447_rgbf000150-resize_3/003070_2014-06-15_14-58-27_094959634447_rgbf000150-resize_3-target.png,250,2.9415,9,5248,248,feet,jsons/v1_VE250_randls_68_rotated.json,729967,1221982,34,Woman
160,396020,DepthScenes,duration_manipulation_targetAtFixation,jsons/v1_VE250_randls_68_rotated.json,http://54.235.29.9/FacialAge/BNav_EC2/DepthDuration/v2_depth_duration_MTurk/v2_DepthDuration_HTML.html#65,65,1242,568,1366,768,8-20-2022,12-55-41,161,depth_duration_stimuli/003587_2014-05-23_16-48-02_094959634447_rgbf002384-resize_2/003587_2014-05-23_16-48-02_094959634447_rgbf002384-resize_2-target.png,250,1.357,2,3581,250,feet,jsons/v1_VE250_randls_68_rotated.json,729967,1221982,34,Woman
161,396020,DepthScenes,duration_manipulation_targetAtFixation,jsons/v1_VE250_randls_68_rotated.json,http://54.235.29.9/FacialAge/BNav_EC2/DepthDuration/v2_depth_duration_MTurk/v2_DepthDuration_HTML.html#65,65,1242,568,1366,768,8-20-2022,12-55-41,162,depth_duration_stimuli/001167_2014-06-17_15-38-07_260595134347_rgbf000108-resize_0/001167_2014-06-17_15-38-07_260595134347_rgbf000108-resize_0-target.png,250,1.8505,4,3040,249,feet,jsons/v1_VE250_randls_68_rotated.json,729967,1221982,34,Woman
162,396020,DepthScenes,duration_manipulation_targetAtFixation,jsons/v1_VE250_randls_68_rotated.json,http://54.235.29.9/FacialAge/BNav_EC2/DepthDuration/v2_depth_duration_MTurk/v2_DepthDuration_HTML.html#65,65,1242,568,1366,768,8-20-2022,12-55-41,163,depth_duration_stimuli/002949_2014-06-26_15-57-42_094959634447_rgbf000079-resize_1/002949_2014-06-26_15-57-42_094959634447_rgbf000079-resize_1-target.png,250,1.8915,6,3584,251,feet,jsons/v1_VE250_randls_68_rotated.json,729967,1221982,34,Woman
163,396020,DepthScenes,duration_manipulation_targetAtFixation,jsons/v1_VE250_randls_68_rotated.json,http://54.235.29.9/FacialAge/BNav_EC2/DepthDuration/v2_depth_duration_MTurk/v2_DepthDuration_HTML.html#65,65,1242,568,1366,768,8-20-2022,12-55-41,164,depth_duration_stimuli/000522_2014-06-08_13-35-06_260595134347_rgbf000244-resize_1/000522_2014-06-08_13-35-06_260595134347_rgbf000244-resize_1-target.png,250,2.3715,3,3044,258,feet,jsons/v1_VE250_randls_68_rotated.json,729967,1221982,34,Woman
