,subjID,experimentName,versionName,sequenceName,url,selected_row,windowWidth,windowHeight,screenWidth,screenHeight,startDate,startTime,trial,stimulus,duration,actual_depth,depth_estimate,trial_RT,log_sceneDuration,unitSelection,seq_filepath,experimentTime,totalTime,age,gender
0,396436,DepthScenes,duration_manipulation_targetAtFixation,jsons/v1_VE1000_randls_76_rotated.json,http://54.235.29.9/FacialAge/BNav_EC2/DepthDuration/v2_depth_duration_MTurk/v2_DepthDuration_HTML.html#217,217,1366,768,1366,768,8-29-2022,15-25-37,1,depth_duration_stimuli/001100_2014-06-15_17-46-26_260595134347_rgbf000225-resize_2/001100_2014-06-15_17-46-26_260595134347_rgbf000225-resize_2-target.png,1000,2.24,2,6931,1000,meters,jsons/v1_VE1000_randls_76_rotated.json,719792,924466,25,Man
1,396436,DepthScenes,duration_manipulation_targetAtFixation,jsons/v1_VE1000_randls_76_rotated.json,http://54.235.29.9/FacialAge/BNav_EC2/DepthDuration/v2_depth_duration_MTurk/v2_DepthDuration_HTML.html#217,217,1366,768,1366,768,8-29-2022,15-25-37,2,depth_duration_stimuli/002784_2014-06-22_19-26-30_094959634447_rgbf000083-resize_3/002784_2014-06-22_19-26-30_094959634447_rgbf000083-resize_3-target.png,1000,1.8046666666667,1,3682,1000,meters,jsons/v1_VE1000_randls_76_rotated.json,719792,924466,25,Man
2,396436,DepthScenes,duration_manipulation_targetAtFixation,jsons/v1_VE1000_randls_76_rotated.json,http://54.235.29.9/FacialAge/BNav_EC2/DepthDuration/v2_depth_duration_MTurk/v2_DepthDuration_HTML.html#217,217,1366,768,1366,768,8-29-2022,15-25-37,3,depth_duration_stimuli/002467_2014-06-28_20-38-07_260595134347_rgbf000026-resize_2/002467_2014-06-28_20-38-07_260595134347_rgbf000026-resize_2-target.png,1000,4.742,2,3914,1000,meters,jsons/v1_VE1000_randls_76_rotated.json,719792,924466,25,Man
3,396436,DepthScenes,duration_manipulation_targetAtFixation,jsons/v1_VE1000_randls_76_rotated.json,http://54.235.29.9/FacialAge/BNav_EC2/DepthDuration/v2_depth_duration_MTurk/v2_DepthDuration_HTML.html#217,217,1366,768,1366,768,8-29-2022,15-25-37,4,depth_duration_stimuli/002570_2014-06-24_13-59-54_094959634447_rgbf000059-resize_0/002570_2014-06-24_13-59-54_094959634447_rgbf000059-resize_0-target.png,1000,4.037,2,3763,1000,meters,jsons/v1_VE1000_randls_76_rotated.json,719792,924466,25,Man
4,396436,DepthScenes,duration_manipulation_targetAtFixation,jsons/v1_VE1000_randls_76_rotated.json,http://54.235.29.9/FacialAge/BNav_EC2/DepthDuration/v2_depth_duration_MTurk/v2_DepthDuration_HTML.html#217,217,1366,768,1366,768,8-29-2022,15-25-37,5,depth_duration_stimuli/003079_2014-06-15_15-18-20_094959634447_rgbf000152-resize_8/003079_2014-06-15_15-18-20_094959634447_rgbf000152-resize_8-target.png,1000,2.8775,1,3713,999,meters,jsons/v1_VE1000_randls_76_rotated.json,719792,924466,25,Man
5,396436,DepthScenes,duration_manipulation_targetAtFixation,jsons/v1_VE1000_randls_76_rotated.json,http://54.235.29.9/FacialAge/BNav_EC2/DepthDuration/v2_depth_duration_MTurk/v2_DepthDuration_HTML.html#217,217,1366,768,1366,768,8-29-2022,15-25-37,6,depth_duration_stimuli/000506_2014-06-08_23-21-00_260595134347_rgbf000070-resize_7/000506_2014-06-08_23-21-00_260595134347_rgbf000070-resize_7-target.png,1000,4.0585,2,3570,1001,meters,jsons/v1_VE1000_randls_76_rotated.json,719792,924466,25,Man
6,396436,DepthScenes,duration_manipulation_targetAtFixation,jsons/v1_VE1000_randls_76_rotated.json,http://54.235.29.9/FacialAge/BNav_EC2/DepthDuration/v2_depth_duration_MTurk/v2_DepthDuration_HTML.html#217,217,1366,768,1366,768,8-29-2022,15-25-37,7,depth_duration_stimuli/000749_2014-06-08_21-55-06_260595134347_rgbf000070-resize_2/000749_2014-06-08_21-55-06_260595134347_rgbf000070-resize_2-target.png,1000,2.331,1,3683,1000,meters,jsons/v1_VE1000_randls_76_rotated.json,719792,924466,25,Man
7,396436,DepthScenes,duration_manipulation_targetAtFixation,jsons/v1_VE1000_randls_76_rotated.json,http://54.235.29.9/FacialAge/BNav_EC2/DepthDuration/v2_depth_duration_MTurk/v2_DepthDuration_HTML.html#217,217,1366,768,1366,768,8-29-2022,15-25-37,8,depth_duration_stimuli/002788_2014-06-22_19-36-03_094959634447_rgbf000088-resize_2/002788_2014-06-22_19-36-03_094959634447_rgbf000088-resize_2-target.png,1000,1.6465,2,3658,1001,meters,jsons/v1_VE1000_randls_76_rotated.json,719792,924466,25,Man
8,396436,DepthScenes,duration_manipulation_targetAtFixation,jsons/v1_VE1000_randls_76_rotated.json,http://54.235.29.9/FacialAge/BNav_EC2/DepthDuration/v2_depth_duration_MTurk/v2_DepthDuration_HTML.html#217,217,1366,768,1366,768,8-29-2022,15-25-37,9,depth_duration_stimuli/002995_2014-06-15_12-31-26_094959634447_rgbf000150-resize_1/002995_2014-06-15_12-31-26_094959634447_rgbf000150-resize_1-target.png,1000,3.8360000000000003,2,3508,1000,meters,jsons/v1_VE1000_randls_76_rotated.json,719792,924466,25,Man
9,396436,DepthScenes,duration_manipulation_targetAtFixation,jsons/v1_VE1000_randls_76_rotated.json,http://54.235.29.9/FacialAge/BNav_EC2/DepthDuration/v2_depth_duration_MTurk/v2_DepthDuration_HTML.html#217,217,1366,768,1366,768,8-29-2022,15-25-37,10,depth_duration_stimuli/002748_2014-06-22_19-07-22_094959634447_rgbf000078-resize_1/002748_2014-06-22_19-07-22_094959634447_rgbf000078-resize_1-target.png,1000,4.6705,1,3888,999,meters,jsons/v1_VE1000_randls_76_rotated.json,719792,924466,25,Man
10,396436,DepthScenes,duration_manipulation_targetAtFixation,jsons/v1_VE1000_randls_76_rotated.json,http://54.235.29.9/FacialAge/BNav_EC2/DepthDuration/v2_depth_duration_MTurk/v2_DepthDuration_HTML.html#217,217,1366,768,1366,768,8-29-2022,15-25-37,11,depth_duration_stimuli/002568_2014-06-24_13-59-21_094959634447_rgbf000062-resize_4/002568_2014-06-24_13-59-21_094959634447_rgbf000062-resize_4-target.png,1000,3.015,1,3829,1000,meters,jsons/v1_VE1000_randls_76_rotated.json,719792,924466,25,Man
11,396436,DepthScenes,duration_manipulation_targetAtFixation,jsons/v1_VE1000_randls_76_rotated.json,http://54.235.29.9/FacialAge/BNav_EC2/DepthDuration/v2_depth_duration_MTurk/v2_DepthDuration_HTML.html#217,217,1366,768,1366,768,8-29-2022,15-25-37,12,depth_duration_stimuli/003492_2014-05-21_15-50-55_094959634447_rgbf000828-resize_1/003492_2014-05-21_15-50-55_094959634447_rgbf000828-resize_1-target.png,1000,4.06875,1,4411,1000,meters,jsons/v1_VE1000_randls_76_rotated.json,719792,924466,25,Man
12,396436,DepthScenes,duration_manipulation_targetAtFixation,jsons/v1_VE1000_randls_76_rotated.json,http://54.235.29.9/FacialAge/BNav_EC2/DepthDuration/v2_depth_duration_MTurk/v2_DepthDuration_HTML.html#217,217,1366,768,1366,768,8-29-2022,15-25-37,13,depth_duration_stimuli/001235_2014-06-17_16-37-36_260595134347_rgbf000084-resize_4/001235_2014-06-17_16-37-36_260595134347_rgbf000084-resize_4-target.png,1000,3.6605,2,3956,1000,meters,jsons/v1_VE1000_randls_76_rotated.json,719792,924466,25,Man
13,396436,DepthScenes,duration_manipulation_targetAtFixation,jsons/v1_VE1000_randls_76_rotated.json,http://54.235.29.9/FacialAge/BNav_EC2/DepthDuration/v2_depth_duration_MTurk/v2_DepthDuration_HTML.html#217,217,1366,768,1366,768,8-29-2022,15-25-37,14,depth_duration_stimuli/000788_2014-06-08_22-34-36_260595134347_rgbf000131-resize_1/000788_2014-06-08_22-34-36_260595134347_rgbf000131-resize_1-target.png,1000,3.359,2,7050,1000,meters,jsons/v1_VE1000_randls_76_rotated.json,719792,924466,25,Man
14,396436,DepthScenes,duration_manipulation_targetAtFixation,jsons/v1_VE1000_randls_76_rotated.json,http://54.235.29.9/FacialAge/BNav_EC2/DepthDuration/v2_depth_duration_MTurk/v2_DepthDuration_HTML.html#217,217,1366,768,1366,768,8-29-2022,15-25-37,15,depth_duration_stimuli/003129_2014-05-12_10-48-10_094959634447_rgbf000100-resize_0/003129_2014-05-12_10-48-10_094959634447_rgbf000100-resize_0-target.png,1000,4.9305,1,3843,1000,meters,jsons/v1_VE1000_randls_76_rotated.json,719792,924466,25,Man
15,396436,DepthScenes,duration_manipulation_targetAtFixation,jsons/v1_VE1000_randls_76_rotated.json,http://54.235.29.9/FacialAge/BNav_EC2/DepthDuration/v2_depth_duration_MTurk/v2_DepthDuration_HTML.html#217,217,1366,768,1366,768,8-29-2022,15-25-37,16,depth_duration_stimuli/000414_2014-06-04_19-49-13_260595134347_rgbf000044-resize_0/000414_2014-06-04_19-49-13_260595134347_rgbf000044-resize_0-target.png,1000,4.329,2,3570,1000,meters,jsons/v1_VE1000_randls_76_rotated.json,719792,924466,25,Man
16,396436,DepthScenes,duration_manipulation_targetAtFixation,jsons/v1_VE1000_randls_76_rotated.json,http://54.235.29.9/FacialAge/BNav_EC2/DepthDuration/v2_depth_duration_MTurk/v2_DepthDuration_HTML.html#217,217,1366,768,1366,768,8-29-2022,15-25-37,17,depth_duration_stimuli/001132_2014-06-17_14-48-54_260595134347_rgbf000100-resize_2/001132_2014-06-17_14-48-54_260595134347_rgbf000100-resize_2-target.png,1000,3.753,1,3803,1001,meters,jsons/v1_VE1000_randls_76_rotated.json,719792,924466,25,Man
17,396436,DepthScenes,duration_manipulation_targetAtFixation,jsons/v1_VE1000_randls_76_rotated.json,http://54.235.29.9/FacialAge/BNav_EC2/DepthDuration/v2_depth_duration_MTurk/v2_DepthDuration_HTML.html#217,217,1366,768,1366,768,8-29-2022,15-25-37,18,depth_duration_stimuli/001133_2014-06-17_14-49-16_260595134347_rgbf000100-resize_0/001133_2014-06-17_14-49-16_260595134347_rgbf000100-resize_0-target.png,1000,4.2115,2,3810,999,meters,jsons/v1_VE1000_randls_76_rotated.json,719792,924466,25,Man
18,396436,DepthScenes,duration_manipulation_targetAtFixation,jsons/v1_VE1000_randls_76_rotated.json,http://54.235.29.9/FacialAge/BNav_EC2/DepthDuration/v2_depth_duration_MTurk/v2_DepthDuration_HTML.html#217,217,1366,768,1366,768,8-29-2022,15-25-37,19,depth_duration_stimuli/001498_2014-06-19_17-45-14_260595134347_rgbf000129-resize_4/001498_2014-06-19_17-45-14_260595134347_rgbf000129-resize-original.jpg,1000,1.4075,0,4027,1002,meters,jsons/v1_VE1000_randls_76_rotated.json,719792,924466,25,Man
19,396436,DepthScenes,duration_manipulation_targetAtFixation,jsons/v1_VE1000_randls_76_rotated.json,http://54.235.29.9/FacialAge/BNav_EC2/DepthDuration/v2_depth_duration_MTurk/v2_DepthDuration_HTML.html#217,217,1366,768,1366,768,8-29-2022,15-25-37,20,depth_duration_stimuli/000665_2014-06-09_20-42-35_260595134347_rgbf000110-resize_1/000665_2014-06-09_20-42-35_260595134347_rgbf000110-resize_1-target.png,1000,3.057,0,3492,1000,meters,jsons/v1_VE1000_randls_76_rotated.json,719792,924466,25,Man
20,396436,DepthScenes,duration_manipulation_targetAtFixation,jsons/v1_VE1000_randls_76_rotated.json,http://54.235.29.9/FacialAge/BNav_EC2/DepthDuration/v2_depth_duration_MTurk/v2_DepthDuration_HTML.html#217,217,1366,768,1366,768,8-29-2022,15-25-37,21,depth_duration_stimuli/001150_2014-06-17_15-27-34_260595134347_rgbf000108-resize_2/001150_2014-06-17_15-27-34_260595134347_rgbf000108-resize_2-target.png,1000,4.0325,1,4395,1000,meters,jsons/v1_VE1000_randls_76_rotated.json,719792,924466,25,Man
21,396436,DepthScenes,duration_manipulation_targetAtFixation,jsons/v1_VE1000_randls_76_rotated.json,http://54.235.29.9/FacialAge/BNav_EC2/DepthDuration/v2_depth_duration_MTurk/v2_DepthDuration_HTML.html#217,217,1366,768,1366,768,8-29-2022,15-25-37,22,depth_duration_stimuli/003495_2014-05-21_16-01-51_094959634447_rgbf000100-resize_3/003495_2014-05-21_16-01-51_094959634447_rgbf000100-resize_3-target.png,1000,1.6255,1,3883,1000,meters,jsons/v1_VE1000_randls_76_rotated.json,719792,924466,25,Man
22,396436,DepthScenes,duration_manipulation_targetAtFixation,jsons/v1_VE1000_randls_76_rotated.json,http://54.235.29.9/FacialAge/BNav_EC2/DepthDuration/v2_depth_duration_MTurk/v2_DepthDuration_HTML.html#217,217,1366,768,1366,768,8-29-2022,15-25-37,23,depth_duration_stimuli/001244_2014-06-17_16-47-45_260595134347_rgbf000030-resize_4/001244_2014-06-17_16-47-45_260595134347_rgbf000030-resize_4-target.png,1000,2.0425,1,3700,1001,meters,jsons/v1_VE1000_randls_76_rotated.json,719792,924466,25,Man
23,396436,DepthScenes,duration_manipulation_targetAtFixation,jsons/v1_VE1000_randls_76_rotated.json,http://54.235.29.9/FacialAge/BNav_EC2/DepthDuration/v2_depth_duration_MTurk/v2_DepthDuration_HTML.html#217,217,1366,768,1366,768,8-29-2022,15-25-37,24,depth_duration_stimuli/000734_2014-06-08_17-39-11_260595134347_rgbf000128-resize_2/000734_2014-06-08_17-39-11_260595134347_rgbf000128-resize_2-target.png,1000,4.098,1,3923,1002,meters,jsons/v1_VE1000_randls_76_rotated.json,719792,924466,25,Man
24,396436,DepthScenes,duration_manipulation_targetAtFixation,jsons/v1_VE1000_randls_76_rotated.json,http://54.235.29.9/FacialAge/BNav_EC2/DepthDuration/v2_depth_duration_MTurk/v2_DepthDuration_HTML.html#217,217,1366,768,1366,768,8-29-2022,15-25-37,25,depth_duration_stimuli/000739_2014-06-08_18-45-58_260595134347_rgbf000068-resize_1/000739_2014-06-08_18-45-58_260595134347_rgbf000068-resize_1-target.png,1000,3.534,1,3388,1000,meters,jsons/v1_VE1000_randls_76_rotated.json,719792,924466,25,Man
25,396436,DepthScenes,duration_manipulation_targetAtFixation,jsons/v1_VE1000_randls_76_rotated.json,http://54.235.29.9/FacialAge/BNav_EC2/DepthDuration/v2_depth_duration_MTurk/v2_DepthDuration_HTML.html#217,217,1366,768,1366,768,8-29-2022,15-25-37,26,depth_duration_stimuli/000137_2014-05-20_17-04-49_260595134347_rgbf000120-resize_1/000137_2014-05-20_17-04-49_260595134347_rgbf000120-resize_1-target.png,1000,3.786,1,3640,1001,meters,jsons/v1_VE1000_randls_76_rotated.json,719792,924466,25,Man
26,396436,DepthScenes,duration_manipulation_targetAtFixation,jsons/v1_VE1000_randls_76_rotated.json,http://54.235.29.9/FacialAge/BNav_EC2/DepthDuration/v2_depth_duration_MTurk/v2_DepthDuration_HTML.html#217,217,1366,768,1366,768,8-29-2022,15-25-37,27,depth_duration_stimuli/000736_2014-06-08_18-24-15_260595134347_rgbf000206-resize_3/000736_2014-06-08_18-24-15_260595134347_rgbf000206-resize_3-target.png,1000,3.515,1,3404,999,meters,jsons/v1_VE1000_randls_76_rotated.json,719792,924466,25,Man
27,396436,DepthScenes,duration_manipulation_targetAtFixation,jsons/v1_VE1000_randls_76_rotated.json,http://54.235.29.9/FacialAge/BNav_EC2/DepthDuration/v2_depth_duration_MTurk/v2_DepthDuration_HTML.html#217,217,1366,768,1366,768,8-29-2022,15-25-37,28,depth_duration_stimuli/001450_2014-06-19_17-02-03_260595134347_rgbf000203-resize_4/001450_2014-06-19_17-02-03_260595134347_rgbf000203-resize_4-target.png,1000,4.0106666666667,1,4051,1000,meters,jsons/v1_VE1000_randls_76_rotated.json,719792,924466,25,Man
28,396436,DepthScenes,duration_manipulation_targetAtFixation,jsons/v1_VE1000_randls_76_rotated.json,http://54.235.29.9/FacialAge/BNav_EC2/DepthDuration/v2_depth_duration_MTurk/v2_DepthDuration_HTML.html#217,217,1366,768,1366,768,8-29-2022,15-25-37,29,depth_duration_stimuli/001449_2014-06-19_17-01-27_260595134347_rgbf000116-resize_2/001449_2014-06-19_17-01-27_260595134347_rgbf000116-resize_2-target.png,1000,3.452,1,4195,1001,meters,jsons/v1_VE1000_randls_76_rotated.json,719792,924466,25,Man
29,396436,DepthScenes,duration_manipulation_targetAtFixation,jsons/v1_VE1000_randls_76_rotated.json,http://54.235.29.9/FacialAge/BNav_EC2/DepthDuration/v2_depth_duration_MTurk/v2_DepthDuration_HTML.html#217,217,1366,768,1366,768,8-29-2022,15-25-37,30,depth_duration_stimuli/002072_2014-06-24_21-48-06_260595134347_rgbf000115-resize_0/002072_2014-06-24_21-48-06_260595134347_rgbf000115-resize-original.jpg,1000,4.702,0,3354,1000,meters,jsons/v1_VE1000_randls_76_rotated.json,719792,924466,25,Man
30,396436,DepthScenes,duration_manipulation_targetAtFixation,jsons/v1_VE1000_randls_76_rotated.json,http://54.235.29.9/FacialAge/BNav_EC2/DepthDuration/v2_depth_duration_MTurk/v2_DepthDuration_HTML.html#217,217,1366,768,1366,768,8-29-2022,15-25-37,31,depth_duration_stimuli/000483_2014-06-09_20-41-45_260595134347_rgbf000116-resize_4/000483_2014-06-09_20-41-45_260595134347_rgbf000116-resize_4-target.png,1000,1.337,1,3539,1000,meters,jsons/v1_VE1000_randls_76_rotated.json,719792,924466,25,Man
31,396436,DepthScenes,duration_manipulation_targetAtFixation,jsons/v1_VE1000_randls_76_rotated.json,http://54.235.29.9/FacialAge/BNav_EC2/DepthDuration/v2_depth_duration_MTurk/v2_DepthDuration_HTML.html#217,217,1366,768,1366,768,8-29-2022,15-25-37,32,depth_duration_stimuli/000469_2014-06-09_19-42-10_260595134347_rgbf000081-resize_1/000469_2014-06-09_19-42-10_260595134347_rgbf000081-resize_1-target.png,1000,1.652,1,3422,1001,meters,jsons/v1_VE1000_randls_76_rotated.json,719792,924466,25,Man
32,396436,DepthScenes,duration_manipulation_targetAtFixation,jsons/v1_VE1000_randls_76_rotated.json,http://54.235.29.9/FacialAge/BNav_EC2/DepthDuration/v2_depth_duration_MTurk/v2_DepthDuration_HTML.html#217,217,1366,768,1366,768,8-29-2022,15-25-37,33,depth_duration_stimuli/002545_2014-06-24_13-38-53_094959634447_rgbf000080-resize_4/002545_2014-06-24_13-38-53_094959634447_rgbf000080-resize_4-target.png,1000,1.9205,1,3816,1001,meters,jsons/v1_VE1000_randls_76_rotated.json,719792,924466,25,Man
33,396436,DepthScenes,duration_manipulation_targetAtFixation,jsons/v1_VE1000_randls_76_rotated.json,http://54.235.29.9/FacialAge/BNav_EC2/DepthDuration/v2_depth_duration_MTurk/v2_DepthDuration_HTML.html#217,217,1366,768,1366,768,8-29-2022,15-25-37,34,depth_duration_stimuli/001092_2014-06-15_17-34-58_260595134347_rgbf000171-resize_3/001092_2014-06-15_17-34-58_260595134347_rgbf000171-resize_3-target.png,1000,2.6935,2,4476,1000,meters,jsons/v1_VE1000_randls_76_rotated.json,719792,924466,25,Man
34,396436,DepthScenes,duration_manipulation_targetAtFixation,jsons/v1_VE1000_randls_76_rotated.json,http://54.235.29.9/FacialAge/BNav_EC2/DepthDuration/v2_depth_duration_MTurk/v2_DepthDuration_HTML.html#217,217,1366,768,1366,768,8-29-2022,15-25-37,35,depth_duration_stimuli/000635_2014-06-08_16-38-42_260595134347_rgbf000106-resize_1/000635_2014-06-08_16-38-42_260595134347_rgbf000106-resize_1-target.png,1000,2.074,1,3881,999,meters,jsons/v1_VE1000_randls_76_rotated.json,719792,924466,25,Man
35,396436,DepthScenes,duration_manipulation_targetAtFixation,jsons/v1_VE1000_randls_76_rotated.json,http://54.235.29.9/FacialAge/BNav_EC2/DepthDuration/v2_depth_duration_MTurk/v2_DepthDuration_HTML.html#217,217,1366,768,1366,768,8-29-2022,15-25-37,36,depth_duration_stimuli/002279_2014-06-28_18-55-32_260595134347_rgbf000040-resize_5/002279_2014-06-28_18-55-32_260595134347_rgbf000040-resize_5-target.png,1000,1.5043333333333,1,3402,999,meters,jsons/v1_VE1000_randls_76_rotated.json,719792,924466,25,Man
36,396436,DepthScenes,duration_manipulation_targetAtFixation,jsons/v1_VE1000_randls_76_rotated.json,http://54.235.29.9/FacialAge/BNav_EC2/DepthDuration/v2_depth_duration_MTurk/v2_DepthDuration_HTML.html#217,217,1366,768,1366,768,8-29-2022,15-25-37,37,depth_duration_stimuli/000191_2014-05-12_17-07-38_260595134347_rgbf000199-resize_0/000191_2014-05-12_17-07-38_260595134347_rgbf000199-resize_0-target.png,1000,3.7995,1,3435,1000,meters,jsons/v1_VE1000_randls_76_rotated.json,719792,924466,25,Man
37,396436,DepthScenes,duration_manipulation_targetAtFixation,jsons/v1_VE1000_randls_76_rotated.json,http://54.235.29.9/FacialAge/BNav_EC2/DepthDuration/v2_depth_duration_MTurk/v2_DepthDuration_HTML.html#217,217,1366,768,1366,768,8-29-2022,15-25-37,38,depth_duration_stimuli/000493_2014-06-09_21-01-18_260595134347_rgbf000196-resize_3/000493_2014-06-09_21-01-18_260595134347_rgbf000196-resize_3-target.png,1000,3.44,2,3859,1002,meters,jsons/v1_VE1000_randls_76_rotated.json,719792,924466,25,Man
38,396436,DepthScenes,duration_manipulation_targetAtFixation,jsons/v1_VE1000_randls_76_rotated.json,http://54.235.29.9/FacialAge/BNav_EC2/DepthDuration/v2_depth_duration_MTurk/v2_DepthDuration_HTML.html#217,217,1366,768,1366,768,8-29-2022,15-25-37,39,depth_duration_stimuli/003490_2014-05-21_15-50-11_094959634447_rgbf000101-resize_3/003490_2014-05-21_15-50-11_094959634447_rgbf000101-resize_3-target.png,1000,3.6445,1,3314,999,meters,jsons/v1_VE1000_randls_76_rotated.json,719792,924466,25,Man
39,396436,DepthScenes,duration_manipulation_targetAtFixation,jsons/v1_VE1000_randls_76_rotated.json,http://54.235.29.9/FacialAge/BNav_EC2/DepthDuration/v2_depth_duration_MTurk/v2_DepthDuration_HTML.html#217,217,1366,768,1366,768,8-29-2022,15-25-37,40,depth_duration_stimuli/001175_2014-06-17_15-45-55_260595134347_rgbf000129-resize_4/001175_2014-06-17_15-45-55_260595134347_rgbf000129-resize_4-target.png,1000,4.255,2,4306,1000,meters,jsons/v1_VE1000_randls_76_rotated.json,719792,924466,25,Man
40,396436,DepthScenes,duration_manipulation_targetAtFixation,jsons/v1_VE1000_randls_76_rotated.json,http://54.235.29.9/FacialAge/BNav_EC2/DepthDuration/v2_depth_duration_MTurk/v2_DepthDuration_HTML.html#217,217,1366,768,1366,768,8-29-2022,15-25-37,41,depth_duration_stimuli/003010_2014-06-15_12-54-35_094959634447_rgbf000112-resize_0/003010_2014-06-15_12-54-35_094959634447_rgbf000112-resize_0-target.png,1000,3.1185,1,3875,1000,meters,jsons/v1_VE1000_randls_76_rotated.json,719792,924466,25,Man
41,396436,DepthScenes,duration_manipulation_targetAtFixation,jsons/v1_VE1000_randls_76_rotated.json,http://54.235.29.9/FacialAge/BNav_EC2/DepthDuration/v2_depth_duration_MTurk/v2_DepthDuration_HTML.html#217,217,1366,768,1366,768,8-29-2022,15-25-37,42,depth_duration_stimuli/001810_2014-06-26_20-51-35_260595134347_rgbf000040-resize_3/001810_2014-06-26_20-51-35_260595134347_rgbf000040-resize_3-target.png,1000,2.2525,2,3498,1002,meters,jsons/v1_VE1000_randls_76_rotated.json,719792,924466,25,Man
42,396436,DepthScenes,duration_manipulation_targetAtFixation,jsons/v1_VE1000_randls_76_rotated.json,http://54.235.29.9/FacialAge/BNav_EC2/DepthDuration/v2_depth_duration_MTurk/v2_DepthDuration_HTML.html#217,217,1366,768,1366,768,8-29-2022,15-25-37,43,depth_duration_stimuli/001815_2014-06-26_20-52-55_260595134347_rgbf000020-resize_0/001815_2014-06-26_20-52-55_260595134347_rgbf000020-resize_0-target.png,1000,3.3865,2,4532,1000,meters,jsons/v1_VE1000_randls_76_rotated.json,719792,924466,25,Man
43,396436,DepthScenes,duration_manipulation_targetAtFixation,jsons/v1_VE1000_randls_76_rotated.json,http://54.235.29.9/FacialAge/BNav_EC2/DepthDuration/v2_depth_duration_MTurk/v2_DepthDuration_HTML.html#217,217,1366,768,1366,768,8-29-2022,15-25-37,44,depth_duration_stimuli/001808_2014-06-26_20-50-58_260595134347_rgbf000029-resize_1/001808_2014-06-26_20-50-58_260595134347_rgbf000029-resize_1-target.png,1000,4.249,2,4073,1000,meters,jsons/v1_VE1000_randls_76_rotated.json,719792,924466,25,Man
44,396436,DepthScenes,duration_manipulation_targetAtFixation,jsons/v1_VE1000_randls_76_rotated.json,http://54.235.29.9/FacialAge/BNav_EC2/DepthDuration/v2_depth_duration_MTurk/v2_DepthDuration_HTML.html#217,217,1366,768,1366,768,8-29-2022,15-25-37,45,depth_duration_stimuli/000780_2014-06-08_22-28-29_260595134347_rgbf000126-resize_1/000780_2014-06-08_22-28-29_260595134347_rgbf000126-resize_1-target.png,1000,3.3825,2,3338,999,meters,jsons/v1_VE1000_randls_76_rotated.json,719792,924466,25,Man
45,396436,DepthScenes,duration_manipulation_targetAtFixation,jsons/v1_VE1000_randls_76_rotated.json,http://54.235.29.9/FacialAge/BNav_EC2/DepthDuration/v2_depth_duration_MTurk/v2_DepthDuration_HTML.html#217,217,1366,768,1366,768,8-29-2022,15-25-37,46,depth_duration_stimuli/002445_2014-06-28_20-32-16_260595134347_rgbf000029-resize_4/002445_2014-06-28_20-32-16_260595134347_rgbf000029-resize_4-target.png,1000,2.5315,1,3562,999,meters,jsons/v1_VE1000_randls_76_rotated.json,719792,924466,25,Man
46,396436,DepthScenes,duration_manipulation_targetAtFixation,jsons/v1_VE1000_randls_76_rotated.json,http://54.235.29.9/FacialAge/BNav_EC2/DepthDuration/v2_depth_duration_MTurk/v2_DepthDuration_HTML.html#217,217,1366,768,1366,768,8-29-2022,15-25-37,47,depth_duration_stimuli/001617_2014-06-20_11-35-32_260595134347_rgbf000066-resize_1/001617_2014-06-20_11-35-32_260595134347_rgbf000066-resize_1-target.png,1000,3.7910000000000004,2,3748,1002,meters,jsons/v1_VE1000_randls_76_rotated.json,719792,924466,25,Man
47,396436,DepthScenes,duration_manipulation_targetAtFixation,jsons/v1_VE1000_randls_76_rotated.json,http://54.235.29.9/FacialAge/BNav_EC2/DepthDuration/v2_depth_duration_MTurk/v2_DepthDuration_HTML.html#217,217,1366,768,1366,768,8-29-2022,15-25-37,48,depth_duration_stimuli/001806_2014-06-26_20-50-20_260595134347_rgbf000091-resize_1/001806_2014-06-26_20-50-20_260595134347_rgbf000091-resize_1-target.png,1000,2.7305,1,3265,998,meters,jsons/v1_VE1000_randls_76_rotated.json,719792,924466,25,Man
48,396436,DepthScenes,duration_manipulation_targetAtFixation,jsons/v1_VE1000_randls_76_rotated.json,http://54.235.29.9/FacialAge/BNav_EC2/DepthDuration/v2_depth_duration_MTurk/v2_DepthDuration_HTML.html#217,217,1366,768,1366,768,8-29-2022,15-25-37,49,depth_duration_stimuli/001170_2014-06-17_15-43-44_260595134347_rgbf000096-resize_6/001170_2014-06-17_15-43-44_260595134347_rgbf000096-resize-original.jpg,1000,1.1909999999999998,0,3546,1000,meters,jsons/v1_VE1000_randls_76_rotated.json,719792,924466,25,Man
49,396436,DepthScenes,duration_manipulation_targetAtFixation,jsons/v1_VE1000_randls_76_rotated.json,http://54.235.29.9/FacialAge/BNav_EC2/DepthDuration/v2_depth_duration_MTurk/v2_DepthDuration_HTML.html#217,217,1366,768,1366,768,8-29-2022,15-25-37,50,depth_duration_stimuli/000927_2014-06-09_16-32-30_260595134347_rgbf000123-resize_3/000927_2014-06-09_16-32-30_260595134347_rgbf000123-resize_3-target.png,1000,2.6785,1,3379,1000,meters,jsons/v1_VE1000_randls_76_rotated.json,719792,924466,25,Man
50,396436,DepthScenes,duration_manipulation_targetAtFixation,jsons/v1_VE1000_randls_76_rotated.json,http://54.235.29.9/FacialAge/BNav_EC2/DepthDuration/v2_depth_duration_MTurk/v2_DepthDuration_HTML.html#217,217,1366,768,1366,768,8-29-2022,15-25-37,51,depth_duration_stimuli/001110_2014-06-15_17-25-28_260595134347_rgbf000150-resize_1/001110_2014-06-15_17-25-28_260595134347_rgbf000150-resize_1-target.png,1000,1.7115,1,3155,1000,meters,jsons/v1_VE1000_randls_76_rotated.json,719792,924466,25,Man
51,396436,DepthScenes,duration_manipulation_targetAtFixation,jsons/v1_VE1000_randls_76_rotated.json,http://54.235.29.9/FacialAge/BNav_EC2/DepthDuration/v2_depth_duration_MTurk/v2_DepthDuration_HTML.html#217,217,1366,768,1366,768,8-29-2022,15-25-37,52,depth_duration_stimuli/002758_2014-06-22_19-11-20_094959634447_rgbf000128-resize_1/002758_2014-06-22_19-11-20_094959634447_rgbf000128-resize_1-target.png,1000,2.555,1,3331,999,meters,jsons/v1_VE1000_randls_76_rotated.json,719792,924466,25,Man
52,396436,DepthScenes,duration_manipulation_targetAtFixation,jsons/v1_VE1000_randls_76_rotated.json,http://54.235.29.9/FacialAge/BNav_EC2/DepthDuration/v2_depth_duration_MTurk/v2_DepthDuration_HTML.html#217,217,1366,768,1366,768,8-29-2022,15-25-37,53,depth_duration_stimuli/002630_2014-06-24_14-47-50_094959634447_rgbf000055-resize_1/002630_2014-06-24_14-47-50_094959634447_rgbf000055-resize_1-target.png,1000,3.0095,1,3836,1000,meters,jsons/v1_VE1000_randls_76_rotated.json,719792,924466,25,Man
53,396436,DepthScenes,duration_manipulation_targetAtFixation,jsons/v1_VE1000_randls_76_rotated.json,http://54.235.29.9/FacialAge/BNav_EC2/DepthDuration/v2_depth_duration_MTurk/v2_DepthDuration_HTML.html#217,217,1366,768,1366,768,8-29-2022,15-25-37,54,depth_duration_stimuli/002875_2014-06-01_15-19-00_094959634447_rgbf000151-resize_1/002875_2014-06-01_15-19-00_094959634447_rgbf000151-resize_1-target.png,1000,1.9675,1,3307,1001,meters,jsons/v1_VE1000_randls_76_rotated.json,719792,924466,25,Man
54,396436,DepthScenes,duration_manipulation_targetAtFixation,jsons/v1_VE1000_randls_76_rotated.json,http://54.235.29.9/FacialAge/BNav_EC2/DepthDuration/v2_depth_duration_MTurk/v2_DepthDuration_HTML.html#217,217,1366,768,1366,768,8-29-2022,15-25-37,55,depth_duration_stimuli/001011_2014-06-08_23-18-54_260595134347_rgbf000044-resize_4/001011_2014-06-08_23-18-54_260595134347_rgbf000044-resize_4-target.png,1000,2.4730000000000003,1,3467,1001,meters,jsons/v1_VE1000_randls_76_rotated.json,719792,924466,25,Man
55,396436,DepthScenes,duration_manipulation_targetAtFixation,jsons/v1_VE1000_randls_76_rotated.json,http://54.235.29.9/FacialAge/BNav_EC2/DepthDuration/v2_depth_duration_MTurk/v2_DepthDuration_HTML.html#217,217,1366,768,1366,768,8-29-2022,15-25-37,56,depth_duration_stimuli/000691_2014-06-08_13-08-50_260595134347_rgbf000132-resize_3/000691_2014-06-08_13-08-50_260595134347_rgbf000132-resize_3-target.png,1000,4.1530000000000005,1,3470,999,meters,jsons/v1_VE1000_randls_76_rotated.json,719792,924466,25,Man
56,396436,DepthScenes,duration_manipulation_targetAtFixation,jsons/v1_VE1000_randls_76_rotated.json,http://54.235.29.9/FacialAge/BNav_EC2/DepthDuration/v2_depth_duration_MTurk/v2_DepthDuration_HTML.html#217,217,1366,768,1366,768,8-29-2022,15-25-37,57,depth_duration_stimuli/002213_2014-06-28_18-37-58_260595134347_rgbf000055-resize_1/002213_2014-06-28_18-37-58_260595134347_rgbf000055-resize_1-target.png,1000,3.62,1,3712,999,meters,jsons/v1_VE1000_randls_76_rotated.json,719792,924466,25,Man
57,396436,DepthScenes,duration_manipulation_targetAtFixation,jsons/v1_VE1000_randls_76_rotated.json,http://54.235.29.9/FacialAge/BNav_EC2/DepthDuration/v2_depth_duration_MTurk/v2_DepthDuration_HTML.html#217,217,1366,768,1366,768,8-29-2022,15-25-37,58,depth_duration_stimuli/002805_2014-06-22_19-54-03_094959634447_rgbf000079-resize_1/002805_2014-06-22_19-54-03_094959634447_rgbf000079-resize_1-target.png,1000,3.1439999999999997,1,3594,1001,meters,jsons/v1_VE1000_randls_76_rotated.json,719792,924466,25,Man
58,396436,DepthScenes,duration_manipulation_targetAtFixation,jsons/v1_VE1000_randls_76_rotated.json,http://54.235.29.9/FacialAge/BNav_EC2/DepthDuration/v2_depth_duration_MTurk/v2_DepthDuration_HTML.html#217,217,1366,768,1366,768,8-29-2022,15-25-37,59,depth_duration_stimuli/000906_2014-06-08_13-35-43_260595134347_rgbf000155-resize_1/000906_2014-06-08_13-35-43_260595134347_rgbf000155-resize_1-target.png,1000,2.8489999999999998,2,4348,1000,meters,jsons/v1_VE1000_randls_76_rotated.json,719792,924466,25,Man
59,396436,DepthScenes,duration_manipulation_targetAtFixation,jsons/v1_VE1000_randls_76_rotated.json,http://54.235.29.9/FacialAge/BNav_EC2/DepthDuration/v2_depth_duration_MTurk/v2_DepthDuration_HTML.html#217,217,1366,768,1366,768,8-29-2022,15-25-37,60,depth_duration_stimuli/001032_2014-06-08_13-23-17_260595134347_rgbf000021-resize_3/001032_2014-06-08_13-23-17_260595134347_rgbf000021-resize_3-target.png,1000,3.2725,1,3737,999,meters,jsons/v1_VE1000_randls_76_rotated.json,719792,924466,25,Man
60,396436,DepthScenes,duration_manipulation_targetAtFixation,jsons/v1_VE1000_randls_76_rotated.json,http://54.235.29.9/FacialAge/BNav_EC2/DepthDuration/v2_depth_duration_MTurk/v2_DepthDuration_HTML.html#217,217,1366,768,1366,768,8-29-2022,15-25-37,61,depth_duration_stimuli/001059_2014-06-08_21-53-27_260595134347_rgbf000061-resize_4/001059_2014-06-08_21-53-27_260595134347_rgbf000061-resize_4-target.png,1000,2.4185,1,3426,1000,meters,jsons/v1_VE1000_randls_76_rotated.json,719792,924466,25,Man
61,396436,DepthScenes,duration_manipulation_targetAtFixation,jsons/v1_VE1000_randls_76_rotated.json,http://54.235.29.9/FacialAge/BNav_EC2/DepthDuration/v2_depth_duration_MTurk/v2_DepthDuration_HTML.html#217,217,1366,768,1366,768,8-29-2022,15-25-37,62,depth_duration_stimuli/002639_2014-06-24_14-51-37_094959634447_rgbf000074-resize_4/002639_2014-06-24_14-51-37_094959634447_rgbf000074-resize_4-target.png,1000,4.0375,1,3370,1000,meters,jsons/v1_VE1000_randls_76_rotated.json,719792,924466,25,Man
62,396436,DepthScenes,duration_manipulation_targetAtFixation,jsons/v1_VE1000_randls_76_rotated.json,http://54.235.29.9/FacialAge/BNav_EC2/DepthDuration/v2_depth_duration_MTurk/v2_DepthDuration_HTML.html#217,217,1366,768,1366,768,8-29-2022,15-25-37,63,depth_duration_stimuli/003292_2014-05-14_21-53-49_094959634447_rgbf000100-resize_2/003292_2014-05-14_21-53-49_094959634447_rgbf000100-resize_2-target.png,1000,3.4815,1,3701,1000,meters,jsons/v1_VE1000_randls_76_rotated.json,719792,924466,25,Man
63,396436,DepthScenes,duration_manipulation_targetAtFixation,jsons/v1_VE1000_randls_76_rotated.json,http://54.235.29.9/FacialAge/BNav_EC2/DepthDuration/v2_depth_duration_MTurk/v2_DepthDuration_HTML.html#217,217,1366,768,1366,768,8-29-2022,15-25-37,64,depth_duration_stimuli/000103_2014-05-14_22-01-17_260595134347_rgbf000152-resize_5/000103_2014-05-14_22-01-17_260595134347_rgbf000152-resize_5-target.png,1000,1.993,1,7545,1000,meters,jsons/v1_VE1000_randls_76_rotated.json,719792,924466,25,Man
64,396436,DepthScenes,duration_manipulation_targetAtFixation,jsons/v1_VE1000_randls_76_rotated.json,http://54.235.29.9/FacialAge/BNav_EC2/DepthDuration/v2_depth_duration_MTurk/v2_DepthDuration_HTML.html#217,217,1366,768,1366,768,8-29-2022,15-25-37,65,depth_duration_stimuli/001555_2014-06-20_17-12-10_260595134347_rgbf000065-resize_4/001555_2014-06-20_17-12-10_260595134347_rgbf000065-resize_4-target.png,1000,1.633,1,6515,1001,meters,jsons/v1_VE1000_randls_76_rotated.json,719792,924466,25,Man
65,396436,DepthScenes,duration_manipulation_targetAtFixation,jsons/v1_VE1000_randls_76_rotated.json,http://54.235.29.9/FacialAge/BNav_EC2/DepthDuration/v2_depth_duration_MTurk/v2_DepthDuration_HTML.html#217,217,1366,768,1366,768,8-29-2022,15-25-37,66,depth_duration_stimuli/001540_2014-06-20_17-01-05_260595134347_rgbf000086-resize_2/001540_2014-06-20_17-01-05_260595134347_rgbf000086-resize-original.jpg,1000,1.459,0,4196,1000,meters,jsons/v1_VE1000_randls_76_rotated.json,719792,924466,25,Man
66,396436,DepthScenes,duration_manipulation_targetAtFixation,jsons/v1_VE1000_randls_76_rotated.json,http://54.235.29.9/FacialAge/BNav_EC2/DepthDuration/v2_depth_duration_MTurk/v2_DepthDuration_HTML.html#217,217,1366,768,1366,768,8-29-2022,15-25-37,67,depth_duration_stimuli/000709_2014-06-08_13-51-55_260595134347_rgbf000068-resize_3/000709_2014-06-08_13-51-55_260595134347_rgbf000068-resize_3-target.png,1000,1.8030000000000002,0,3762,999,meters,jsons/v1_VE1000_randls_76_rotated.json,719792,924466,25,Man
67,396436,DepthScenes,duration_manipulation_targetAtFixation,jsons/v1_VE1000_randls_76_rotated.json,http://54.235.29.9/FacialAge/BNav_EC2/DepthDuration/v2_depth_duration_MTurk/v2_DepthDuration_HTML.html#217,217,1366,768,1366,768,8-29-2022,15-25-37,68,depth_duration_stimuli/002057_2014-06-24_21-00-13_260595134347_rgbf000120-resize_1/002057_2014-06-24_21-00-13_260595134347_rgbf000120-resize_1-target.png,1000,2.967,2,3433,999,meters,jsons/v1_VE1000_randls_76_rotated.json,719792,924466,25,Man
68,396436,DepthScenes,duration_manipulation_targetAtFixation,jsons/v1_VE1000_randls_76_rotated.json,http://54.235.29.9/FacialAge/BNav_EC2/DepthDuration/v2_depth_duration_MTurk/v2_DepthDuration_HTML.html#217,217,1366,768,1366,768,8-29-2022,15-25-37,69,depth_duration_stimuli/001136_2014-06-17_15-19-41_260595134347_rgbf000076-resize_3/001136_2014-06-17_15-19-41_260595134347_rgbf000076-resize_3-target.png,1000,1.8655,1,3602,999,meters,jsons/v1_VE1000_randls_76_rotated.json,719792,924466,25,Man
69,396436,DepthScenes,duration_manipulation_targetAtFixation,jsons/v1_VE1000_randls_76_rotated.json,http://54.235.29.9/FacialAge/BNav_EC2/DepthDuration/v2_depth_duration_MTurk/v2_DepthDuration_HTML.html#217,217,1366,768,1366,768,8-29-2022,15-25-37,70,depth_duration_stimuli/001164_2014-06-17_15-35-46_260595134347_rgbf000085-resize_3/001164_2014-06-17_15-35-46_260595134347_rgbf000085-resize_3-target.png,1000,2.354,1,5514,1000,meters,jsons/v1_VE1000_randls_76_rotated.json,719792,924466,25,Man
70,396436,DepthScenes,duration_manipulation_targetAtFixation,jsons/v1_VE1000_randls_76_rotated.json,http://54.235.29.9/FacialAge/BNav_EC2/DepthDuration/v2_depth_duration_MTurk/v2_DepthDuration_HTML.html#217,217,1366,768,1366,768,8-29-2022,15-25-37,71,depth_duration_stimuli/002637_2014-06-24_14-51-13_094959634447_rgbf000066-resize_4/002637_2014-06-24_14-51-13_094959634447_rgbf000066-resize_4-target.png,1000,1.9955,1,3594,999,meters,jsons/v1_VE1000_randls_76_rotated.json,719792,924466,25,Man
71,396436,DepthScenes,duration_manipulation_targetAtFixation,jsons/v1_VE1000_randls_76_rotated.json,http://54.235.29.9/FacialAge/BNav_EC2/DepthDuration/v2_depth_duration_MTurk/v2_DepthDuration_HTML.html#217,217,1366,768,1366,768,8-29-2022,15-25-37,72,depth_duration_stimuli/003534_2014-05-22_15-06-10_094959634447_rgbf000102-resize_4/003534_2014-05-22_15-06-10_094959634447_rgbf000102-resize_4-target.png,1000,1.426,1,3331,1000,meters,jsons/v1_VE1000_randls_76_rotated.json,719792,924466,25,Man
72,396436,DepthScenes,duration_manipulation_targetAtFixation,jsons/v1_VE1000_randls_76_rotated.json,http://54.235.29.9/FacialAge/BNav_EC2/DepthDuration/v2_depth_duration_MTurk/v2_DepthDuration_HTML.html#217,217,1366,768,1366,768,8-29-2022,15-25-37,73,depth_duration_stimuli/002136_2014-06-25_21-18-03_260595134347_rgbf000109-resize_3/002136_2014-06-25_21-18-03_260595134347_rgbf000109-resize_3-target.png,1000,1.9569999999999999,2,3433,999,meters,jsons/v1_VE1000_randls_76_rotated.json,719792,924466,25,Man
73,396436,DepthScenes,duration_manipulation_targetAtFixation,jsons/v1_VE1000_randls_76_rotated.json,http://54.235.29.9/FacialAge/BNav_EC2/DepthDuration/v2_depth_duration_MTurk/v2_DepthDuration_HTML.html#217,217,1366,768,1366,768,8-29-2022,15-25-37,74,depth_duration_stimuli/002964_2014-06-08_17-46-11_094959634447_rgbf000091-resize_4/002964_2014-06-08_17-46-11_094959634447_rgbf000091-resize_4-target.png,1000,1.6909999999999998,1,3365,998,meters,jsons/v1_VE1000_randls_76_rotated.json,719792,924466,25,Man
74,396436,DepthScenes,duration_manipulation_targetAtFixation,jsons/v1_VE1000_randls_76_rotated.json,http://54.235.29.9/FacialAge/BNav_EC2/DepthDuration/v2_depth_duration_MTurk/v2_DepthDuration_HTML.html#217,217,1366,768,1366,768,8-29-2022,15-25-37,75,depth_duration_stimuli/000854_2014-06-09_19-43-13_260595134347_rgbf000066-resize_0/000854_2014-06-09_19-43-13_260595134347_rgbf000066-resize_0-target.png,1000,3.068,1,3384,999,meters,jsons/v1_VE1000_randls_76_rotated.json,719792,924466,25,Man
75,396436,DepthScenes,duration_manipulation_targetAtFixation,jsons/v1_VE1000_randls_76_rotated.json,http://54.235.29.9/FacialAge/BNav_EC2/DepthDuration/v2_depth_duration_MTurk/v2_DepthDuration_HTML.html#217,217,1366,768,1366,768,8-29-2022,15-25-37,76,depth_duration_stimuli/000758_2014-06-08_22-05-08_260595134347_rgbf000085-resize_0/000758_2014-06-08_22-05-08_260595134347_rgbf000085-resize_0-target.png,1000,3.3810000000000002,2,4010,1000,meters,jsons/v1_VE1000_randls_76_rotated.json,719792,924466,25,Man
76,396436,DepthScenes,duration_manipulation_targetAtFixation,jsons/v1_VE1000_randls_76_rotated.json,http://54.235.29.9/FacialAge/BNav_EC2/DepthDuration/v2_depth_duration_MTurk/v2_DepthDuration_HTML.html#217,217,1366,768,1366,768,8-29-2022,15-25-37,77,depth_duration_stimuli/003081_2014-06-15_15-19-16_094959634447_rgbf000150-resize_1/003081_2014-06-15_15-19-16_094959634447_rgbf000150-resize_1-target.png,1000,3.9125,1,3457,998,meters,jsons/v1_VE1000_randls_76_rotated.json,719792,924466,25,Man
77,396436,DepthScenes,duration_manipulation_targetAtFixation,jsons/v1_VE1000_randls_76_rotated.json,http://54.235.29.9/FacialAge/BNav_EC2/DepthDuration/v2_depth_duration_MTurk/v2_DepthDuration_HTML.html#217,217,1366,768,1366,768,8-29-2022,15-25-37,78,depth_duration_stimuli/001417_2014-06-19_16-25-36_260595134347_rgbf000115-resize_5/001417_2014-06-19_16-25-36_260595134347_rgbf000115-resize_5-target.png,1000,4.6255,2,3516,999,meters,jsons/v1_VE1000_randls_76_rotated.json,719792,924466,25,Man
78,396436,DepthScenes,duration_manipulation_targetAtFixation,jsons/v1_VE1000_randls_76_rotated.json,http://54.235.29.9/FacialAge/BNav_EC2/DepthDuration/v2_depth_duration_MTurk/v2_DepthDuration_HTML.html#217,217,1366,768,1366,768,8-29-2022,15-25-37,79,depth_duration_stimuli/001094_2014-06-15_17-36-00_260595134347_rgbf000205-resize_0/001094_2014-06-15_17-36-00_260595134347_rgbf000205-resize_0-target.png,1000,4.2175,2,4202,1000,meters,jsons/v1_VE1000_randls_76_rotated.json,719792,924466,25,Man
79,396436,DepthScenes,duration_manipulation_targetAtFixation,jsons/v1_VE1000_randls_76_rotated.json,http://54.235.29.9/FacialAge/BNav_EC2/DepthDuration/v2_depth_duration_MTurk/v2_DepthDuration_HTML.html#217,217,1366,768,1366,768,8-29-2022,15-25-37,80,depth_duration_stimuli/000692_2014-06-08_13-09-42_260595134347_rgbf000199-resize_2/000692_2014-06-08_13-09-42_260595134347_rgbf000199-resize_2-target.png,1000,3.661,1,3254,999,meters,jsons/v1_VE1000_randls_76_rotated.json,719792,924466,25,Man
80,396436,DepthScenes,duration_manipulation_targetAtFixation,jsons/v1_VE1000_randls_76_rotated.json,http://54.235.29.9/FacialAge/BNav_EC2/DepthDuration/v2_depth_duration_MTurk/v2_DepthDuration_HTML.html#217,217,1366,768,1366,768,8-29-2022,15-25-37,81,depth_duration_stimuli/001516_2014-06-20_16-25-09_260595134347_rgbf000076-resize_2/001516_2014-06-20_16-25-09_260595134347_rgbf000076-resize_2-target.png,1000,1.7445,1,3900,999,meters,jsons/v1_VE1000_randls_76_rotated.json,719792,924466,25,Man
81,396436,DepthScenes,duration_manipulation_targetAtFixation,jsons/v1_VE1000_randls_76_rotated.json,http://54.235.29.9/FacialAge/BNav_EC2/DepthDuration/v2_depth_duration_MTurk/v2_DepthDuration_HTML.html#217,217,1366,768,1366,768,8-29-2022,15-25-37,82,depth_duration_stimuli/002118_2014-06-25_20-32-08_260595134347_rgbf000078-resize_1/002118_2014-06-25_20-32-08_260595134347_rgbf000078-resize_1-target.png,1000,2.6460000000000004,1,3954,999,meters,jsons/v1_VE1000_randls_76_rotated.json,719792,924466,25,Man
82,396436,DepthScenes,duration_manipulation_targetAtFixation,jsons/v1_VE1000_randls_76_rotated.json,http://54.235.29.9/FacialAge/BNav_EC2/DepthDuration/v2_depth_duration_MTurk/v2_DepthDuration_HTML.html#217,217,1366,768,1366,768,8-29-2022,15-25-37,83,depth_duration_stimuli/001392_2014-06-19_16-07-59_260595134347_rgbf000046-resize_1/001392_2014-06-19_16-07-59_260595134347_rgbf000046-resize_1-target.png,1000,4.135,1,5498,999,meters,jsons/v1_VE1000_randls_76_rotated.json,719792,924466,25,Man
83,396436,DepthScenes,duration_manipulation_targetAtFixation,jsons/v1_VE1000_randls_76_rotated.json,http://54.235.29.9/FacialAge/BNav_EC2/DepthDuration/v2_depth_duration_MTurk/v2_DepthDuration_HTML.html#217,217,1366,768,1366,768,8-29-2022,15-25-37,84,depth_duration_stimuli/001570_2014-06-20_17-21-09_260595134347_rgbf000135-resize_4/001570_2014-06-20_17-21-09_260595134347_rgbf000135-resize_4-target.png,1000,4.467,2,3633,1000,meters,jsons/v1_VE1000_randls_76_rotated.json,719792,924466,25,Man
84,396436,DepthScenes,duration_manipulation_targetAtFixation,jsons/v1_VE1000_randls_76_rotated.json,http://54.235.29.9/FacialAge/BNav_EC2/DepthDuration/v2_depth_duration_MTurk/v2_DepthDuration_HTML.html#217,217,1366,768,1366,768,8-29-2022,15-25-37,85,depth_duration_stimuli/001828_2014-06-26_21-40-03_260595134347_rgbf000024-resize_0/001828_2014-06-26_21-40-03_260595134347_rgbf000024-resize_0-target.png,1000,4.8260000000000005,1,3867,1000,meters,jsons/v1_VE1000_randls_76_rotated.json,719792,924466,25,Man
85,396436,DepthScenes,duration_manipulation_targetAtFixation,jsons/v1_VE1000_randls_76_rotated.json,http://54.235.29.9/FacialAge/BNav_EC2/DepthDuration/v2_depth_duration_MTurk/v2_DepthDuration_HTML.html#217,217,1366,768,1366,768,8-29-2022,15-25-37,86,depth_duration_stimuli/000009_2014-05-26_14-32-05_260595134347_rgbf000034-resize_3/000009_2014-05-26_14-32-05_260595134347_rgbf000034-resize_3-target.png,1000,3.8715,1,4052,999,meters,jsons/v1_VE1000_randls_76_rotated.json,719792,924466,25,Man
86,396436,DepthScenes,duration_manipulation_targetAtFixation,jsons/v1_VE1000_randls_76_rotated.json,http://54.235.29.9/FacialAge/BNav_EC2/DepthDuration/v2_depth_duration_MTurk/v2_DepthDuration_HTML.html#217,217,1366,768,1366,768,8-29-2022,15-25-37,87,depth_duration_stimuli/002340_2014-06-28_20-05-46_260595134347_rgbf000113-resize_0/002340_2014-06-28_20-05-46_260595134347_rgbf000113-resize_0-target.png,1000,2.4735,2,3694,999,meters,jsons/v1_VE1000_randls_76_rotated.json,719792,924466,25,Man
87,396436,DepthScenes,duration_manipulation_targetAtFixation,jsons/v1_VE1000_randls_76_rotated.json,http://54.235.29.9/FacialAge/BNav_EC2/DepthDuration/v2_depth_duration_MTurk/v2_DepthDuration_HTML.html#217,217,1366,768,1366,768,8-29-2022,15-25-37,88,depth_duration_stimuli/001016_2014-06-09_16-16-10_260595134347_rgbf000112-resize_5/001016_2014-06-09_16-16-10_260595134347_rgbf000112-resize_5-target.png,1000,1.6565,1,3767,1000,meters,jsons/v1_VE1000_randls_76_rotated.json,719792,924466,25,Man
88,396436,DepthScenes,duration_manipulation_targetAtFixation,jsons/v1_VE1000_randls_76_rotated.json,http://54.235.29.9/FacialAge/BNav_EC2/DepthDuration/v2_depth_duration_MTurk/v2_DepthDuration_HTML.html#217,217,1366,768,1366,768,8-29-2022,15-25-37,89,depth_duration_stimuli/002660_2014-06-13_15-44-18_094959634447_rgbf001878-resize_2/002660_2014-06-13_15-44-18_094959634447_rgbf001878-resize_2-target.png,1000,3.576,1,3273,1000,meters,jsons/v1_VE1000_randls_76_rotated.json,719792,924466,25,Man
89,396436,DepthScenes,duration_manipulation_targetAtFixation,jsons/v1_VE1000_randls_76_rotated.json,http://54.235.29.9/FacialAge/BNav_EC2/DepthDuration/v2_depth_duration_MTurk/v2_DepthDuration_HTML.html#217,217,1366,768,1366,768,8-29-2022,15-25-37,90,depth_duration_stimuli/002153_2014-06-25_21-27-18_260595134347_rgbf000038-resize_5/002153_2014-06-25_21-27-18_260595134347_rgbf000038-resize_5-target.png,1000,2.505,1,3426,1001,meters,jsons/v1_VE1000_randls_76_rotated.json,719792,924466,25,Man
90,396436,DepthScenes,duration_manipulation_targetAtFixation,jsons/v1_VE1000_randls_76_rotated.json,http://54.235.29.9/FacialAge/BNav_EC2/DepthDuration/v2_depth_duration_MTurk/v2_DepthDuration_HTML.html#217,217,1366,768,1366,768,8-29-2022,15-25-37,91,depth_duration_stimuli/000409_2014-06-04_19-23-33_260595134347_rgbf000067-resize_0/000409_2014-06-04_19-23-33_260595134347_rgbf000067-resize_0-target.png,1000,3.7335,1,3770,999,meters,jsons/v1_VE1000_randls_76_rotated.json,719792,924466,25,Man
91,396436,DepthScenes,duration_manipulation_targetAtFixation,jsons/v1_VE1000_randls_76_rotated.json,http://54.235.29.9/FacialAge/BNav_EC2/DepthDuration/v2_depth_duration_MTurk/v2_DepthDuration_HTML.html#217,217,1366,768,1366,768,8-29-2022,15-25-37,92,depth_duration_stimuli/002663_2014-06-13_15-50-26_094959634447_rgbf000075-resize_1/002663_2014-06-13_15-50-26_094959634447_rgbf000075-resize_1-target.png,1000,4.7495,2,3434,999,meters,jsons/v1_VE1000_randls_76_rotated.json,719792,924466,25,Man
92,396436,DepthScenes,duration_manipulation_targetAtFixation,jsons/v1_VE1000_randls_76_rotated.json,http://54.235.29.9/FacialAge/BNav_EC2/DepthDuration/v2_depth_duration_MTurk/v2_DepthDuration_HTML.html#217,217,1366,768,1366,768,8-29-2022,15-25-37,93,depth_duration_stimuli/002657_2014-06-13_15-29-54_094959634447_rgbf000150-resize_1/002657_2014-06-13_15-29-54_094959634447_rgbf000150-resize_1-target.png,1000,4.919,1,3835,1001,meters,jsons/v1_VE1000_randls_76_rotated.json,719792,924466,25,Man
93,396436,DepthScenes,duration_manipulation_targetAtFixation,jsons/v1_VE1000_randls_76_rotated.json,http://54.235.29.9/FacialAge/BNav_EC2/DepthDuration/v2_depth_duration_MTurk/v2_DepthDuration_HTML.html#217,217,1366,768,1366,768,8-29-2022,15-25-37,94,depth_duration_stimuli/002375_2014-06-28_20-13-44_260595134347_rgbf000032-resize_1/002375_2014-06-28_20-13-44_260595134347_rgbf000032-resize_1-target.png,1000,4.0175,1,4094,1000,meters,jsons/v1_VE1000_randls_76_rotated.json,719792,924466,25,Man
94,396436,DepthScenes,duration_manipulation_targetAtFixation,jsons/v1_VE1000_randls_76_rotated.json,http://54.235.29.9/FacialAge/BNav_EC2/DepthDuration/v2_depth_duration_MTurk/v2_DepthDuration_HTML.html#217,217,1366,768,1366,768,8-29-2022,15-25-37,95,depth_duration_stimuli/002103_2014-06-25_20-00-40_260595134347_rgbf000049-resize_0/002103_2014-06-25_20-00-40_260595134347_rgbf000049-resize_0-target.png,1000,4.105,2,4234,1000,meters,jsons/v1_VE1000_randls_76_rotated.json,719792,924466,25,Man
95,396436,DepthScenes,duration_manipulation_targetAtFixation,jsons/v1_VE1000_randls_76_rotated.json,http://54.235.29.9/FacialAge/BNav_EC2/DepthDuration/v2_depth_duration_MTurk/v2_DepthDuration_HTML.html#217,217,1366,768,1366,768,8-29-2022,15-25-37,96,depth_duration_stimuli/002039_2014-06-24_20-22-38_260595134347_rgbf000084-resize_1/002039_2014-06-24_20-22-38_260595134347_rgbf000084-resize_1-target.png,1000,4.408,1,4041,1000,meters,jsons/v1_VE1000_randls_76_rotated.json,719792,924466,25,Man
96,396436,DepthScenes,duration_manipulation_targetAtFixation,jsons/v1_VE1000_randls_76_rotated.json,http://54.235.29.9/FacialAge/BNav_EC2/DepthDuration/v2_depth_duration_MTurk/v2_DepthDuration_HTML.html#217,217,1366,768,1366,768,8-29-2022,15-25-37,97,depth_duration_stimuli/001214_2014-06-17_16-13-55_260595134347_rgbf000111-resize_0/001214_2014-06-17_16-13-55_260595134347_rgbf000111-resize_0-target.png,1000,2.6505,1,3754,999,meters,jsons/v1_VE1000_randls_76_rotated.json,719792,924466,25,Man
97,396436,DepthScenes,duration_manipulation_targetAtFixation,jsons/v1_VE1000_randls_76_rotated.json,http://54.235.29.9/FacialAge/BNav_EC2/DepthDuration/v2_depth_duration_MTurk/v2_DepthDuration_HTML.html#217,217,1366,768,1366,768,8-29-2022,15-25-37,98,depth_duration_stimuli/000810_2014-06-08_17-20-01_260595134347_rgbf000105-resize_0/000810_2014-06-08_17-20-01_260595134347_rgbf000105-resize_0-target.png,1000,1.4865,1,3707,998,meters,jsons/v1_VE1000_randls_76_rotated.json,719792,924466,25,Man
98,396436,DepthScenes,duration_manipulation_targetAtFixation,jsons/v1_VE1000_randls_76_rotated.json,http://54.235.29.9/FacialAge/BNav_EC2/DepthDuration/v2_depth_duration_MTurk/v2_DepthDuration_HTML.html#217,217,1366,768,1366,768,8-29-2022,15-25-37,99,depth_duration_stimuli/001222_2014-06-17_16-24-06_260595134347_rgbf000073-resize_0/001222_2014-06-17_16-24-06_260595134347_rgbf000073-resize-original.jpg,1000,1.4385,0,4516,1000,meters,jsons/v1_VE1000_randls_76_rotated.json,719792,924466,25,Man
99,396436,DepthScenes,duration_manipulation_targetAtFixation,jsons/v1_VE1000_randls_76_rotated.json,http://54.235.29.9/FacialAge/BNav_EC2/DepthDuration/v2_depth_duration_MTurk/v2_DepthDuration_HTML.html#217,217,1366,768,1366,768,8-29-2022,15-25-37,100,depth_duration_stimuli/000549_2014-06-08_22-10-24_260595134347_rgbf000247-resize_3/000549_2014-06-08_22-10-24_260595134347_rgbf000247-resize_3-target.png,1000,1.841,1,3568,999,meters,jsons/v1_VE1000_randls_76_rotated.json,719792,924466,25,Man
100,396436,DepthScenes,duration_manipulation_targetAtFixation,jsons/v1_VE1000_randls_76_rotated.json,http://54.235.29.9/FacialAge/BNav_EC2/DepthDuration/v2_depth_duration_MTurk/v2_DepthDuration_HTML.html#217,217,1366,768,1366,768,8-29-2022,15-25-37,101,depth_duration_stimuli/001055_2014-06-08_18-45-35_260595134347_rgbf000111-resize_4/001055_2014-06-08_18-45-35_260595134347_rgbf000111-resize_4-target.png,1000,2.4290000000000003,1,3833,1000,meters,jsons/v1_VE1000_randls_76_rotated.json,719792,924466,25,Man
101,396436,DepthScenes,duration_manipulation_targetAtFixation,jsons/v1_VE1000_randls_76_rotated.json,http://54.235.29.9/FacialAge/BNav_EC2/DepthDuration/v2_depth_duration_MTurk/v2_DepthDuration_HTML.html#217,217,1366,768,1366,768,8-29-2022,15-25-37,102,depth_duration_stimuli/001584_2014-06-20_11-07-43_260595134347_rgbf000002-resize_1/001584_2014-06-20_11-07-43_260595134347_rgbf000002-resize_1-target.png,1000,3.53,2,3538,999,meters,jsons/v1_VE1000_randls_76_rotated.json,719792,924466,25,Man
102,396436,DepthScenes,duration_manipulation_targetAtFixation,jsons/v1_VE1000_randls_76_rotated.json,http://54.235.29.9/FacialAge/BNav_EC2/DepthDuration/v2_depth_duration_MTurk/v2_DepthDuration_HTML.html#217,217,1366,768,1366,768,8-29-2022,15-25-37,103,depth_duration_stimuli/003621_2014-05-23_18-06-08_094959634447_rgbf000101-resize_1/003621_2014-05-23_18-06-08_094959634447_rgbf000101-resize_1-target.png,1000,3.9835,2,3554,999,meters,jsons/v1_VE1000_randls_76_rotated.json,719792,924466,25,Man
103,396436,DepthScenes,duration_manipulation_targetAtFixation,jsons/v1_VE1000_randls_76_rotated.json,http://54.235.29.9/FacialAge/BNav_EC2/DepthDuration/v2_depth_duration_MTurk/v2_DepthDuration_HTML.html#217,217,1366,768,1366,768,8-29-2022,15-25-37,104,depth_duration_stimuli/002444_2014-06-28_20-32-08_260595134347_rgbf000027-resize_0/002444_2014-06-28_20-32-08_260595134347_rgbf000027-resize_0-target.png,1000,4.388999999999999,2,4877,1000,meters,jsons/v1_VE1000_randls_76_rotated.json,719792,924466,25,Man
104,396436,DepthScenes,duration_manipulation_targetAtFixation,jsons/v1_VE1000_randls_76_rotated.json,http://54.235.29.9/FacialAge/BNav_EC2/DepthDuration/v2_depth_duration_MTurk/v2_DepthDuration_HTML.html#217,217,1366,768,1366,768,8-29-2022,15-25-37,105,depth_duration_stimuli/000436_2014-06-09_22-25-11_260595134347_rgbf000137-resize_1/000436_2014-06-09_22-25-11_260595134347_rgbf000137-resize_1-target.png,1000,4.0705,1,3615,999,meters,jsons/v1_VE1000_randls_76_rotated.json,719792,924466,25,Man
105,396436,DepthScenes,duration_manipulation_targetAtFixation,jsons/v1_VE1000_randls_76_rotated.json,http://54.235.29.9/FacialAge/BNav_EC2/DepthDuration/v2_depth_duration_MTurk/v2_DepthDuration_HTML.html#217,217,1366,768,1366,768,8-29-2022,15-25-37,106,depth_duration_stimuli/003338_2014-05-20_11-01-23_094959634447_rgbf000051-resize_6/003338_2014-05-20_11-01-23_094959634447_rgbf000051-resize_6-target.png,1000,1.693,1,3353,1000,meters,jsons/v1_VE1000_randls_76_rotated.json,719792,924466,25,Man
106,396436,DepthScenes,duration_manipulation_targetAtFixation,jsons/v1_VE1000_randls_76_rotated.json,http://54.235.29.9/FacialAge/BNav_EC2/DepthDuration/v2_depth_duration_MTurk/v2_DepthDuration_HTML.html#217,217,1366,768,1366,768,8-29-2022,15-25-37,107,depth_duration_stimuli/002509_2014-06-24_13-19-22_094959634447_rgbf000077-resize_0/002509_2014-06-24_13-19-22_094959634447_rgbf000077-resize_0-target.png,1000,1.3065,1,3198,999,meters,jsons/v1_VE1000_randls_76_rotated.json,719792,924466,25,Man
107,396436,DepthScenes,duration_manipulation_targetAtFixation,jsons/v1_VE1000_randls_76_rotated.json,http://54.235.29.9/FacialAge/BNav_EC2/DepthDuration/v2_depth_duration_MTurk/v2_DepthDuration_HTML.html#217,217,1366,768,1366,768,8-29-2022,15-25-37,108,depth_duration_stimuli/002949_2014-06-26_15-57-42_094959634447_rgbf000079-resize_1/002949_2014-06-26_15-57-42_094959634447_rgbf000079-resize_1-target.png,1000,1.8915,1,3385,1000,meters,jsons/v1_VE1000_randls_76_rotated.json,719792,924466,25,Man
108,396436,DepthScenes,duration_manipulation_targetAtFixation,jsons/v1_VE1000_randls_76_rotated.json,http://54.235.29.9/FacialAge/BNav_EC2/DepthDuration/v2_depth_duration_MTurk/v2_DepthDuration_HTML.html#217,217,1366,768,1366,768,8-29-2022,15-25-37,109,depth_duration_stimuli/000522_2014-06-08_13-35-06_260595134347_rgbf000244-resize_1/000522_2014-06-08_13-35-06_260595134347_rgbf000244-resize_1-target.png,1000,2.3715,1,4134,999,meters,jsons/v1_VE1000_randls_76_rotated.json,719792,924466,25,Man
109,396436,DepthScenes,duration_manipulation_targetAtFixation,jsons/v1_VE1000_randls_76_rotated.json,http://54.235.29.9/FacialAge/BNav_EC2/DepthDuration/v2_depth_duration_MTurk/v2_DepthDuration_HTML.html#217,217,1366,768,1366,768,8-29-2022,15-25-37,110,depth_duration_stimuli/001052_2014-06-08_18-24-54_260595134347_rgbf000130-resize_1/001052_2014-06-08_18-24-54_260595134347_rgbf000130-resize_1-target.png,1000,4.1045,1,3278,1000,meters,jsons/v1_VE1000_randls_76_rotated.json,719792,924466,25,Man
110,396436,DepthScenes,duration_manipulation_targetAtFixation,jsons/v1_VE1000_randls_76_rotated.json,http://54.235.29.9/FacialAge/BNav_EC2/DepthDuration/v2_depth_duration_MTurk/v2_DepthDuration_HTML.html#217,217,1366,768,1366,768,8-29-2022,15-25-37,111,depth_duration_stimuli/002988_2014-06-15_12-24-20_094959634447_rgbf000150-resize_1/002988_2014-06-15_12-24-20_094959634447_rgbf000150-resize_1-target.png,1000,4.7669999999999995,2,3737,999,meters,jsons/v1_VE1000_randls_76_rotated.json,719792,924466,25,Man
111,396436,DepthScenes,duration_manipulation_targetAtFixation,jsons/v1_VE1000_randls_76_rotated.json,http://54.235.29.9/FacialAge/BNav_EC2/DepthDuration/v2_depth_duration_MTurk/v2_DepthDuration_HTML.html#217,217,1366,768,1366,768,8-29-2022,15-25-37,112,depth_duration_stimuli/000109_2014-05-14_23-41-52_260595134347_rgbf000035-resize_9/000109_2014-05-14_23-41-52_260595134347_rgbf000035-resize_9-target.png,1000,1.3545,1,3707,1000,meters,jsons/v1_VE1000_randls_76_rotated.json,719792,924466,25,Man
112,396436,DepthScenes,duration_manipulation_targetAtFixation,jsons/v1_VE1000_randls_76_rotated.json,http://54.235.29.9/FacialAge/BNav_EC2/DepthDuration/v2_depth_duration_MTurk/v2_DepthDuration_HTML.html#217,217,1366,768,1366,768,8-29-2022,15-25-37,113,depth_duration_stimuli/000470_2014-06-09_19-42-40_260595134347_rgbf000094-resize_1/000470_2014-06-09_19-42-40_260595134347_rgbf000094-resize_1-target.png,1000,1.831,1,3721,999,meters,jsons/v1_VE1000_randls_76_rotated.json,719792,924466,25,Man
113,396436,DepthScenes,duration_manipulation_targetAtFixation,jsons/v1_VE1000_randls_76_rotated.json,http://54.235.29.9/FacialAge/BNav_EC2/DepthDuration/v2_depth_duration_MTurk/v2_DepthDuration_HTML.html#217,217,1366,768,1366,768,8-29-2022,15-25-37,114,depth_duration_stimuli/002209_2014-06-28_18-36-10_260595134347_rgbf000051-resize_1/002209_2014-06-28_18-36-10_260595134347_rgbf000051-resize_1-target.png,1000,2.057,1,6018,999,meters,jsons/v1_VE1000_randls_76_rotated.json,719792,924466,25,Man
114,396436,DepthScenes,duration_manipulation_targetAtFixation,jsons/v1_VE1000_randls_76_rotated.json,http://54.235.29.9/FacialAge/BNav_EC2/DepthDuration/v2_depth_duration_MTurk/v2_DepthDuration_HTML.html#217,217,1366,768,1366,768,8-29-2022,15-25-37,115,depth_duration_stimuli/002763_2014-06-22_19-13-10_094959634447_rgbf000075-resize_4/002763_2014-06-22_19-13-10_094959634447_rgbf000075-resize_4-target.png,1000,1.68375,1,4850,999,meters,jsons/v1_VE1000_randls_76_rotated.json,719792,924466,25,Man
115,396436,DepthScenes,duration_manipulation_targetAtFixation,jsons/v1_VE1000_randls_76_rotated.json,http://54.235.29.9/FacialAge/BNav_EC2/DepthDuration/v2_depth_duration_MTurk/v2_DepthDuration_HTML.html#217,217,1366,768,1366,768,8-29-2022,15-25-37,116,depth_duration_stimuli/001650_2014-06-20_12-09-00_260595134347_rgbf000087-resize_3/001650_2014-06-20_12-09-00_260595134347_rgbf000087-resize_3-target.png,1000,1.9505,1,3713,999,meters,jsons/v1_VE1000_randls_76_rotated.json,719792,924466,25,Man
116,396436,DepthScenes,duration_manipulation_targetAtFixation,jsons/v1_VE1000_randls_76_rotated.json,http://54.235.29.9/FacialAge/BNav_EC2/DepthDuration/v2_depth_duration_MTurk/v2_DepthDuration_HTML.html#217,217,1366,768,1366,768,8-29-2022,15-25-37,117,depth_duration_stimuli/000682_2014-06-08_23-14-58_260595134347_rgbf000041-resize_5/000682_2014-06-08_23-14-58_260595134347_rgbf000041-resize_5-target.png,1000,2.7239999999999998,1,4378,999,meters,jsons/v1_VE1000_randls_76_rotated.json,719792,924466,25,Man
117,396436,DepthScenes,duration_manipulation_targetAtFixation,jsons/v1_VE1000_randls_76_rotated.json,http://54.235.29.9/FacialAge/BNav_EC2/DepthDuration/v2_depth_duration_MTurk/v2_DepthDuration_HTML.html#217,217,1366,768,1366,768,8-29-2022,15-25-37,118,depth_duration_stimuli/002425_2014-06-28_20-27-29_260595134347_rgbf000031-resize_8/002425_2014-06-28_20-27-29_260595134347_rgbf000031-resize_8-target.png,1000,3.8960000000000004,1,3546,1000,meters,jsons/v1_VE1000_randls_76_rotated.json,719792,924466,25,Man
118,396436,DepthScenes,duration_manipulation_targetAtFixation,jsons/v1_VE1000_randls_76_rotated.json,http://54.235.29.9/FacialAge/BNav_EC2/DepthDuration/v2_depth_duration_MTurk/v2_DepthDuration_HTML.html#217,217,1366,768,1366,768,8-29-2022,15-25-37,119,depth_duration_stimuli/000642_2014-06-08_16-59-25_260595134347_rgbf000098-resize_2/000642_2014-06-08_16-59-25_260595134347_rgbf000098-resize_2-target.png,1000,2.8815,1,5507,1000,meters,jsons/v1_VE1000_randls_76_rotated.json,719792,924466,25,Man
119,396436,DepthScenes,duration_manipulation_targetAtFixation,jsons/v1_VE1000_randls_76_rotated.json,http://54.235.29.9/FacialAge/BNav_EC2/DepthDuration/v2_depth_duration_MTurk/v2_DepthDuration_HTML.html#217,217,1366,768,1366,768,8-29-2022,15-25-37,120,depth_duration_stimuli/000787_2014-06-08_22-33-53_260595134347_rgbf000175-resize_1/000787_2014-06-08_22-33-53_260595134347_rgbf000175-resize-original.jpg,1000,4.784,0,4242,999,meters,jsons/v1_VE1000_randls_76_rotated.json,719792,924466,25,Man
120,396436,DepthScenes,duration_manipulation_targetAtFixation,jsons/v1_VE1000_randls_76_rotated.json,http://54.235.29.9/FacialAge/BNav_EC2/DepthDuration/v2_depth_duration_MTurk/v2_DepthDuration_HTML.html#217,217,1366,768,1366,768,8-29-2022,15-25-37,121,depth_duration_stimuli/002199_2014-06-28_18-33-56_260595134347_rgbf000074-resize_0/002199_2014-06-28_18-33-56_260595134347_rgbf000074-resize_0-target.png,1000,1.996,1,4336,1000,meters,jsons/v1_VE1000_randls_76_rotated.json,719792,924466,25,Man
121,396436,DepthScenes,duration_manipulation_targetAtFixation,jsons/v1_VE1000_randls_76_rotated.json,http://54.235.29.9/FacialAge/BNav_EC2/DepthDuration/v2_depth_duration_MTurk/v2_DepthDuration_HTML.html#217,217,1366,768,1366,768,8-29-2022,15-25-37,122,depth_duration_stimuli/001056_2014-06-08_18-46-44_260595134347_rgbf000068-resize_0/001056_2014-06-08_18-46-44_260595134347_rgbf000068-resize_0-target.png,1000,2.6625,1,3972,999,meters,jsons/v1_VE1000_randls_76_rotated.json,719792,924466,25,Man
122,396436,DepthScenes,duration_manipulation_targetAtFixation,jsons/v1_VE1000_randls_76_rotated.json,http://54.235.29.9/FacialAge/BNav_EC2/DepthDuration/v2_depth_duration_MTurk/v2_DepthDuration_HTML.html#217,217,1366,768,1366,768,8-29-2022,15-25-37,123,depth_duration_stimuli/001571_2014-06-20_17-21-32_260595134347_rgbf000089-resize_1/001571_2014-06-20_17-21-32_260595134347_rgbf000089-resize_1-target.png,1000,1.86,2,3766,999,meters,jsons/v1_VE1000_randls_76_rotated.json,719792,924466,25,Man
123,396436,DepthScenes,duration_manipulation_targetAtFixation,jsons/v1_VE1000_randls_76_rotated.json,http://54.235.29.9/FacialAge/BNav_EC2/DepthDuration/v2_depth_duration_MTurk/v2_DepthDuration_HTML.html#217,217,1366,768,1366,768,8-29-2022,15-25-37,124,depth_duration_stimuli/002272_2014-06-28_18-53-56_260595134347_rgbf000067-resize_2/002272_2014-06-28_18-53-56_260595134347_rgbf000067-resize_2-target.png,1000,1.138,1,3655,1000,meters,jsons/v1_VE1000_randls_76_rotated.json,719792,924466,25,Man
124,396436,DepthScenes,duration_manipulation_targetAtFixation,jsons/v1_VE1000_randls_76_rotated.json,http://54.235.29.9/FacialAge/BNav_EC2/DepthDuration/v2_depth_duration_MTurk/v2_DepthDuration_HTML.html#217,217,1366,768,1366,768,8-29-2022,15-25-37,125,depth_duration_stimuli/001447_2014-06-19_17-00-32_260595134347_rgbf000082-resize_5/001447_2014-06-19_17-00-32_260595134347_rgbf000082-resize_5-target.png,1000,4.13775,1,3673,999,meters,jsons/v1_VE1000_randls_76_rotated.json,719792,924466,25,Man
125,396436,DepthScenes,duration_manipulation_targetAtFixation,jsons/v1_VE1000_randls_76_rotated.json,http://54.235.29.9/FacialAge/BNav_EC2/DepthDuration/v2_depth_duration_MTurk/v2_DepthDuration_HTML.html#217,217,1366,768,1366,768,8-29-2022,15-25-37,126,depth_duration_stimuli/000447_2014-06-08_16-15-46_260595134347_rgbf000130-resize_1/000447_2014-06-08_16-15-46_260595134347_rgbf000130-resize_1-target.png,1000,4.479,2,4002,999,meters,jsons/v1_VE1000_randls_76_rotated.json,719792,924466,25,Man
126,396436,DepthScenes,duration_manipulation_targetAtFixation,jsons/v1_VE1000_randls_76_rotated.json,http://54.235.29.9/FacialAge/BNav_EC2/DepthDuration/v2_depth_duration_MTurk/v2_DepthDuration_HTML.html#217,217,1366,768,1366,768,8-29-2022,15-25-37,127,depth_duration_stimuli/002414_2014-06-28_20-24-58_260595134347_rgbf000067-resize_4/002414_2014-06-28_20-24-58_260595134347_rgbf000067-resize_4-target.png,1000,4.363,1,3618,999,meters,jsons/v1_VE1000_randls_76_rotated.json,719792,924466,25,Man
127,396436,DepthScenes,duration_manipulation_targetAtFixation,jsons/v1_VE1000_randls_76_rotated.json,http://54.235.29.9/FacialAge/BNav_EC2/DepthDuration/v2_depth_duration_MTurk/v2_DepthDuration_HTML.html#217,217,1366,768,1366,768,8-29-2022,15-25-37,128,depth_duration_stimuli/000773_2014-06-08_22-24-54_260595134347_rgbf000093-resize_1/000773_2014-06-08_22-24-54_260595134347_rgbf000093-resize_1-target.png,1000,4.973,2,3483,999,meters,jsons/v1_VE1000_randls_76_rotated.json,719792,924466,25,Man
128,396436,DepthScenes,duration_manipulation_targetAtFixation,jsons/v1_VE1000_randls_76_rotated.json,http://54.235.29.9/FacialAge/BNav_EC2/DepthDuration/v2_depth_duration_MTurk/v2_DepthDuration_HTML.html#217,217,1366,768,1366,768,8-29-2022,15-25-37,129,depth_duration_stimuli/003587_2014-05-23_16-48-02_094959634447_rgbf002384-resize_2/003587_2014-05-23_16-48-02_094959634447_rgbf002384-resize_2-target.png,1000,1.357,1,3505,999,meters,jsons/v1_VE1000_randls_76_rotated.json,719792,924466,25,Man
129,396436,DepthScenes,duration_manipulation_targetAtFixation,jsons/v1_VE1000_randls_76_rotated.json,http://54.235.29.9/FacialAge/BNav_EC2/DepthDuration/v2_depth_duration_MTurk/v2_DepthDuration_HTML.html#217,217,1366,768,1366,768,8-29-2022,15-25-37,130,depth_duration_stimuli/001167_2014-06-17_15-38-07_260595134347_rgbf000108-resize_0/001167_2014-06-17_15-38-07_260595134347_rgbf000108-resize_0-target.png,1000,1.8505,1,3234,1000,meters,jsons/v1_VE1000_randls_76_rotated.json,719792,924466,25,Man
130,396436,DepthScenes,duration_manipulation_targetAtFixation,jsons/v1_VE1000_randls_76_rotated.json,http://54.235.29.9/FacialAge/BNav_EC2/DepthDuration/v2_depth_duration_MTurk/v2_DepthDuration_HTML.html#217,217,1366,768,1366,768,8-29-2022,15-25-37,131,depth_duration_stimuli/003083_2014-06-15_15-21-03_094959634447_rgbf000063-resize_1/003083_2014-06-15_15-21-03_094959634447_rgbf000063-resize_1-target.png,1000,4.1405,2,3634,999,meters,jsons/v1_VE1000_randls_76_rotated.json,719792,924466,25,Man
131,396436,DepthScenes,duration_manipulation_targetAtFixation,jsons/v1_VE1000_randls_76_rotated.json,http://54.235.29.9/FacialAge/BNav_EC2/DepthDuration/v2_depth_duration_MTurk/v2_DepthDuration_HTML.html#217,217,1366,768,1366,768,8-29-2022,15-25-37,132,depth_duration_stimuli/000486_2014-06-09_20-47-20_260595134347_rgbf000143-resize_2/000486_2014-06-09_20-47-20_260595134347_rgbf000143-resize_2-target.png,1000,4.8325,2,3290,999,meters,jsons/v1_VE1000_randls_76_rotated.json,719792,924466,25,Man
132,396436,DepthScenes,duration_manipulation_targetAtFixation,jsons/v1_VE1000_randls_76_rotated.json,http://54.235.29.9/FacialAge/BNav_EC2/DepthDuration/v2_depth_duration_MTurk/v2_DepthDuration_HTML.html#217,217,1366,768,1366,768,8-29-2022,15-25-37,133,depth_duration_stimuli/000502_2014-06-08_23-02-32_260595134347_rgbf000063-resize_4/000502_2014-06-08_23-02-32_260595134347_rgbf000063-resize_4-target.png,1000,2.431,1,3584,999,meters,jsons/v1_VE1000_randls_76_rotated.json,719792,924466,25,Man
133,396436,DepthScenes,duration_manipulation_targetAtFixation,jsons/v1_VE1000_randls_76_rotated.json,http://54.235.29.9/FacialAge/BNav_EC2/DepthDuration/v2_depth_duration_MTurk/v2_DepthDuration_HTML.html#217,217,1366,768,1366,768,8-29-2022,15-25-37,134,depth_duration_stimuli/001199_2014-06-17_16-03-48_260595134347_rgbf000077-resize_0/001199_2014-06-17_16-03-48_260595134347_rgbf000077-resize_0-target.png,1000,3.4375,2,3205,1000,meters,jsons/v1_VE1000_randls_76_rotated.json,719792,924466,25,Man
134,396436,DepthScenes,duration_manipulation_targetAtFixation,jsons/v1_VE1000_randls_76_rotated.json,http://54.235.29.9/FacialAge/BNav_EC2/DepthDuration/v2_depth_duration_MTurk/v2_DepthDuration_HTML.html#217,217,1366,768,1366,768,8-29-2022,15-25-37,135,depth_duration_stimuli/000375_2014-06-08_11-17-29_260595134347_rgbf000133-resize_2/000375_2014-06-08_11-17-29_260595134347_rgbf000133-resize-original.jpg,1000,4.718,0,3621,999,meters,jsons/v1_VE1000_randls_76_rotated.json,719792,924466,25,Man
135,396436,DepthScenes,duration_manipulation_targetAtFixation,jsons/v1_VE1000_randls_76_rotated.json,http://54.235.29.9/FacialAge/BNav_EC2/DepthDuration/v2_depth_duration_MTurk/v2_DepthDuration_HTML.html#217,217,1366,768,1366,768,8-29-2022,15-25-37,136,depth_duration_stimuli/003228_2014-05-14_13-42-35_094959634447_rgbf000101-resize_1/003228_2014-05-14_13-42-35_094959634447_rgbf000101-resize_1-target.png,1000,1.9680000000000002,1,4427,999,meters,jsons/v1_VE1000_randls_76_rotated.json,719792,924466,25,Man
136,396436,DepthScenes,duration_manipulation_targetAtFixation,jsons/v1_VE1000_randls_76_rotated.json,http://54.235.29.9/FacialAge/BNav_EC2/DepthDuration/v2_depth_duration_MTurk/v2_DepthDuration_HTML.html#217,217,1366,768,1366,768,8-29-2022,15-25-37,137,depth_duration_stimuli/002600_2014-06-24_14-27-04_094959634447_rgbf000074-resize_2/002600_2014-06-24_14-27-04_094959634447_rgbf000074-resize_2-target.png,1000,2.7575,1,3718,1000,meters,jsons/v1_VE1000_randls_76_rotated.json,719792,924466,25,Man
137,396436,DepthScenes,duration_manipulation_targetAtFixation,jsons/v1_VE1000_randls_76_rotated.json,http://54.235.29.9/FacialAge/BNav_EC2/DepthDuration/v2_depth_duration_MTurk/v2_DepthDuration_HTML.html#217,217,1366,768,1366,768,8-29-2022,15-25-37,138,depth_duration_stimuli/000457_2014-06-08_16-52-43_260595134347_rgbf000199-resize_1/000457_2014-06-08_16-52-43_260595134347_rgbf000199-resize_1-target.png,1000,3.6489999999999996,2,3330,1000,meters,jsons/v1_VE1000_randls_76_rotated.json,719792,924466,25,Man
138,396436,DepthScenes,duration_manipulation_targetAtFixation,jsons/v1_VE1000_randls_76_rotated.json,http://54.235.29.9/FacialAge/BNav_EC2/DepthDuration/v2_depth_duration_MTurk/v2_DepthDuration_HTML.html#217,217,1366,768,1366,768,8-29-2022,15-25-37,139,depth_duration_stimuli/000929_2014-06-09_16-33-19_260595134347_rgbf000139-resize_0/000929_2014-06-09_16-33-19_260595134347_rgbf000139-resize_0-target.png,1000,2.8680000000000003,1,6145,999,meters,jsons/v1_VE1000_randls_76_rotated.json,719792,924466,25,Man
139,396436,DepthScenes,duration_manipulation_targetAtFixation,jsons/v1_VE1000_randls_76_rotated.json,http://54.235.29.9/FacialAge/BNav_EC2/DepthDuration/v2_depth_duration_MTurk/v2_DepthDuration_HTML.html#217,217,1366,768,1366,768,8-29-2022,15-25-37,140,depth_duration_stimuli/000943_2014-06-09_19-31-07_260595134347_rgbf000128-resize_1/000943_2014-06-09_19-31-07_260595134347_rgbf000128-resize_1-target.png,1000,1.9765,1,3762,998,meters,jsons/v1_VE1000_randls_76_rotated.json,719792,924466,25,Man
140,396436,DepthScenes,duration_manipulation_targetAtFixation,jsons/v1_VE1000_randls_76_rotated.json,http://54.235.29.9/FacialAge/BNav_EC2/DepthDuration/v2_depth_duration_MTurk/v2_DepthDuration_HTML.html#217,217,1366,768,1366,768,8-29-2022,15-25-37,141,depth_duration_stimuli/003070_2014-06-15_14-58-27_094959634447_rgbf000150-resize_3/003070_2014-06-15_14-58-27_094959634447_rgbf000150-resize_3-target.png,1000,2.9415,1,3607,1001,meters,jsons/v1_VE1000_randls_76_rotated.json,719792,924466,25,Man
141,396436,DepthScenes,duration_manipulation_targetAtFixation,jsons/v1_VE1000_randls_76_rotated.json,http://54.235.29.9/FacialAge/BNav_EC2/DepthDuration/v2_depth_duration_MTurk/v2_DepthDuration_HTML.html#217,217,1366,768,1366,768,8-29-2022,15-25-37,142,depth_duration_stimuli/002750_2014-06-22_19-08-03_094959634447_rgbf000094-resize_4/002750_2014-06-22_19-08-03_094959634447_rgbf000094-resize_4-target.png,1000,2.354,1,4502,1000,meters,jsons/v1_VE1000_randls_76_rotated.json,719792,924466,25,Man
142,396436,DepthScenes,duration_manipulation_targetAtFixation,jsons/v1_VE1000_randls_76_rotated.json,http://54.235.29.9/FacialAge/BNav_EC2/DepthDuration/v2_depth_duration_MTurk/v2_DepthDuration_HTML.html#217,217,1366,768,1366,768,8-29-2022,15-25-37,143,depth_duration_stimuli/002549_2014-06-24_13-41-39_094959634447_rgbf000022-resize_3/002549_2014-06-24_13-41-39_094959634447_rgbf000022-resize_3-target.png,1000,1.476,1,3762,999,meters,jsons/v1_VE1000_randls_76_rotated.json,719792,924466,25,Man
143,396436,DepthScenes,duration_manipulation_targetAtFixation,jsons/v1_VE1000_randls_76_rotated.json,http://54.235.29.9/FacialAge/BNav_EC2/DepthDuration/v2_depth_duration_MTurk/v2_DepthDuration_HTML.html#217,217,1366,768,1366,768,8-29-2022,15-25-37,144,depth_duration_stimuli/002678_2014-06-13_16-15-32_094959634447_rgbf000151-resize_6/002678_2014-06-13_16-15-32_094959634447_rgbf000151-resize_6-target.png,1000,2.1830000000000003,1,6232,1000,meters,jsons/v1_VE1000_randls_76_rotated.json,719792,924466,25,Man
144,396436,DepthScenes,duration_manipulation_targetAtFixation,jsons/v1_VE1000_randls_76_rotated.json,http://54.235.29.9/FacialAge/BNav_EC2/DepthDuration/v2_depth_duration_MTurk/v2_DepthDuration_HTML.html#217,217,1366,768,1366,768,8-29-2022,15-25-37,145,depth_duration_stimuli/000368_2014-06-09_15-53-01_260595134347_rgbf000155-resize_2/000368_2014-06-09_15-53-01_260595134347_rgbf000155-resize_2-target.png,1000,2.4859999999999998,1,4628,999,meters,jsons/v1_VE1000_randls_76_rotated.json,719792,924466,25,Man
145,396436,DepthScenes,duration_manipulation_targetAtFixation,jsons/v1_VE1000_randls_76_rotated.json,http://54.235.29.9/FacialAge/BNav_EC2/DepthDuration/v2_depth_duration_MTurk/v2_DepthDuration_HTML.html#217,217,1366,768,1366,768,8-29-2022,15-25-37,146,depth_duration_stimuli/000742_2014-06-08_18-48-09_260595134347_rgbf000164-resize_4/000742_2014-06-08_18-48-09_260595134347_rgbf000164-resize_4-target.png,1000,4.632,1,3169,999,meters,jsons/v1_VE1000_randls_76_rotated.json,719792,924466,25,Man
146,396436,DepthScenes,duration_manipulation_targetAtFixation,jsons/v1_VE1000_randls_76_rotated.json,http://54.235.29.9/FacialAge/BNav_EC2/DepthDuration/v2_depth_duration_MTurk/v2_DepthDuration_HTML.html#217,217,1366,768,1366,768,8-29-2022,15-25-37,147,depth_duration_stimuli/001066_2014-06-08_22-03-20_260595134347_rgbf000066-resize_4/001066_2014-06-08_22-03-20_260595134347_rgbf000066-resize_4-target.png,1000,4.2330000000000005,2,3530,1000,meters,jsons/v1_VE1000_randls_76_rotated.json,719792,924466,25,Man
147,396436,DepthScenes,duration_manipulation_targetAtFixation,jsons/v1_VE1000_randls_76_rotated.json,http://54.235.29.9/FacialAge/BNav_EC2/DepthDuration/v2_depth_duration_MTurk/v2_DepthDuration_HTML.html#217,217,1366,768,1366,768,8-29-2022,15-25-37,148,depth_duration_stimuli/003048_2014-06-15_13-49-43_094959634447_rgbf000150-resize_1/003048_2014-06-15_13-49-43_094959634447_rgbf000150-resize_1-target.png,1000,4.0035,1,3802,998,meters,jsons/v1_VE1000_randls_76_rotated.json,719792,924466,25,Man
148,396436,DepthScenes,duration_manipulation_targetAtFixation,jsons/v1_VE1000_randls_76_rotated.json,http://54.235.29.9/FacialAge/BNav_EC2/DepthDuration/v2_depth_duration_MTurk/v2_DepthDuration_HTML.html#217,217,1366,768,1366,768,8-29-2022,15-25-37,149,depth_duration_stimuli/002043_2014-06-24_20-29-38_260595134347_rgbf000039-resize_4/002043_2014-06-24_20-29-38_260595134347_rgbf000039-resize_4-target.png,1000,2.8435,1,3858,1001,meters,jsons/v1_VE1000_randls_76_rotated.json,719792,924466,25,Man
149,396436,DepthScenes,duration_manipulation_targetAtFixation,jsons/v1_VE1000_randls_76_rotated.json,http://54.235.29.9/FacialAge/BNav_EC2/DepthDuration/v2_depth_duration_MTurk/v2_DepthDuration_HTML.html#217,217,1366,768,1366,768,8-29-2022,15-25-37,150,depth_duration_stimuli/000677_2014-06-08_23-10-32_260595134347_rgbf000158-resize_6/000677_2014-06-08_23-10-32_260595134347_rgbf000158-resize_6-target.png,1000,3.556,1,3377,998,meters,jsons/v1_VE1000_randls_76_rotated.json,719792,924466,25,Man
150,396436,DepthScenes,duration_manipulation_targetAtFixation,jsons/v1_VE1000_randls_76_rotated.json,http://54.235.29.9/FacialAge/BNav_EC2/DepthDuration/v2_depth_duration_MTurk/v2_DepthDuration_HTML.html#217,217,1366,768,1366,768,8-29-2022,15-25-37,151,depth_duration_stimuli/001029_2014-06-08_13-17-57_260595134347_rgbf000065-resize_1/001029_2014-06-08_13-17-57_260595134347_rgbf000065-resize_1-target.png,1000,3.0835,1,3370,999,meters,jsons/v1_VE1000_randls_76_rotated.json,719792,924466,25,Man
151,396436,DepthScenes,duration_manipulation_targetAtFixation,jsons/v1_VE1000_randls_76_rotated.json,http://54.235.29.9/FacialAge/BNav_EC2/DepthDuration/v2_depth_duration_MTurk/v2_DepthDuration_HTML.html#217,217,1366,768,1366,768,8-29-2022,15-25-37,152,depth_duration_stimuli/000569_2014-06-09_22-51-47_260595134347_rgbf000141-resize_3/000569_2014-06-09_22-51-47_260595134347_rgbf000141-resize-original.jpg,1000,4.512,0,4410,1000,meters,jsons/v1_VE1000_randls_76_rotated.json,719792,924466,25,Man
152,396436,DepthScenes,duration_manipulation_targetAtFixation,jsons/v1_VE1000_randls_76_rotated.json,http://54.235.29.9/FacialAge/BNav_EC2/DepthDuration/v2_depth_duration_MTurk/v2_DepthDuration_HTML.html#217,217,1366,768,1366,768,8-29-2022,15-25-37,153,depth_duration_stimuli/002953_2014-06-08_17-32-18_094959634447_rgbf000059-resize_5/002953_2014-06-08_17-32-18_094959634447_rgbf000059-resize_5-target.png,1000,1.551,1,4122,999,meters,jsons/v1_VE1000_randls_76_rotated.json,719792,924466,25,Man
153,396436,DepthScenes,duration_manipulation_targetAtFixation,jsons/v1_VE1000_randls_76_rotated.json,http://54.235.29.9/FacialAge/BNav_EC2/DepthDuration/v2_depth_duration_MTurk/v2_DepthDuration_HTML.html#217,217,1366,768,1366,768,8-29-2022,15-25-37,154,depth_duration_stimuli/000878_2014-06-08_22-52-45_260595134347_rgbf000045-resize_2/000878_2014-06-08_22-52-45_260595134347_rgbf000045-resize_2-target.png,1000,2.092,2,4466,999,meters,jsons/v1_VE1000_randls_76_rotated.json,719792,924466,25,Man
154,396436,DepthScenes,duration_manipulation_targetAtFixation,jsons/v1_VE1000_randls_76_rotated.json,http://54.235.29.9/FacialAge/BNav_EC2/DepthDuration/v2_depth_duration_MTurk/v2_DepthDuration_HTML.html#217,217,1366,768,1366,768,8-29-2022,15-25-37,155,depth_duration_stimuli/002323_2014-06-28_20-01-54_260595134347_rgbf000051-resize_4/002323_2014-06-28_20-01-54_260595134347_rgbf000051-resize_4-target.png,1000,3.7310000000000003,1,4123,999,meters,jsons/v1_VE1000_randls_76_rotated.json,719792,924466,25,Man
155,396436,DepthScenes,duration_manipulation_targetAtFixation,jsons/v1_VE1000_randls_76_rotated.json,http://54.235.29.9/FacialAge/BNav_EC2/DepthDuration/v2_depth_duration_MTurk/v2_DepthDuration_HTML.html#217,217,1366,768,1366,768,8-29-2022,15-25-37,156,depth_duration_stimuli/000917_2014-06-09_22-45-29_260595134347_rgbf000149-resize_3/000917_2014-06-09_22-45-29_260595134347_rgbf000149-resize_3-target.png,1000,4.1865,1,3530,1000,meters,jsons/v1_VE1000_randls_76_rotated.json,719792,924466,25,Man
156,396436,DepthScenes,duration_manipulation_targetAtFixation,jsons/v1_VE1000_randls_76_rotated.json,http://54.235.29.9/FacialAge/BNav_EC2/DepthDuration/v2_depth_duration_MTurk/v2_DepthDuration_HTML.html#217,217,1366,768,1366,768,8-29-2022,15-25-37,157,depth_duration_stimuli/000556_2014-06-09_22-42-56_260595134347_rgbf000214-resize_1/000556_2014-06-09_22-42-56_260595134347_rgbf000214-resize_1-target.png,1000,4.8415,1,3994,998,meters,jsons/v1_VE1000_randls_76_rotated.json,719792,924466,25,Man
157,396436,DepthScenes,duration_manipulation_targetAtFixation,jsons/v1_VE1000_randls_76_rotated.json,http://54.235.29.9/FacialAge/BNav_EC2/DepthDuration/v2_depth_duration_MTurk/v2_DepthDuration_HTML.html#217,217,1366,768,1366,768,8-29-2022,15-25-37,158,depth_duration_stimuli/001158_2014-06-17_15-32-16_260595134347_rgbf000138-resize_2/001158_2014-06-17_15-32-16_260595134347_rgbf000138-resize_2-target.png,1000,4.5315,1,3050,999,meters,jsons/v1_VE1000_randls_76_rotated.json,719792,924466,25,Man
158,396436,DepthScenes,duration_manipulation_targetAtFixation,jsons/v1_VE1000_randls_76_rotated.json,http://54.235.29.9/FacialAge/BNav_EC2/DepthDuration/v2_depth_duration_MTurk/v2_DepthDuration_HTML.html#217,217,1366,768,1366,768,8-29-2022,15-25-37,159,depth_duration_stimuli/002344_2014-06-28_20-06-29_260595134347_rgbf000030-resize_1/002344_2014-06-28_20-06-29_260595134347_rgbf000030-resize_1-target.png,1000,1.5795,1,3267,1000,meters,jsons/v1_VE1000_randls_76_rotated.json,719792,924466,25,Man
159,396436,DepthScenes,duration_manipulation_targetAtFixation,jsons/v1_VE1000_randls_76_rotated.json,http://54.235.29.9/FacialAge/BNav_EC2/DepthDuration/v2_depth_duration_MTurk/v2_DepthDuration_HTML.html#217,217,1366,768,1366,768,8-29-2022,15-25-37,160,depth_duration_stimuli/002725_2014-06-22_11-47-51_094959634447_rgbf000070-resize_1/002725_2014-06-22_11-47-51_094959634447_rgbf000070-resize_1-target.png,1000,2.195,1,3450,1000,meters,jsons/v1_VE1000_randls_76_rotated.json,719792,924466,25,Man
160,396436,DepthScenes,duration_manipulation_targetAtFixation,jsons/v1_VE1000_randls_76_rotated.json,http://54.235.29.9/FacialAge/BNav_EC2/DepthDuration/v2_depth_duration_MTurk/v2_DepthDuration_HTML.html#217,217,1366,768,1366,768,8-29-2022,15-25-37,161,depth_duration_stimuli/000866_2014-06-09_20-45-42_260595134347_rgbf000139-resize_1/000866_2014-06-09_20-45-42_260595134347_rgbf000139-resize_1-target.png,1000,3.2155,2,3723,998,meters,jsons/v1_VE1000_randls_76_rotated.json,719792,924466,25,Man
161,396436,DepthScenes,duration_manipulation_targetAtFixation,jsons/v1_VE1000_randls_76_rotated.json,http://54.235.29.9/FacialAge/BNav_EC2/DepthDuration/v2_depth_duration_MTurk/v2_DepthDuration_HTML.html#217,217,1366,768,1366,768,8-29-2022,15-25-37,162,depth_duration_stimuli/002989_2014-06-15_12-25-03_094959634447_rgbf000150-resize_3/002989_2014-06-15_12-25-03_094959634447_rgbf000150-resize_3-target.png,1000,4.1975,2,3626,999,meters,jsons/v1_VE1000_randls_76_rotated.json,719792,924466,25,Man
162,396436,DepthScenes,duration_manipulation_targetAtFixation,jsons/v1_VE1000_randls_76_rotated.json,http://54.235.29.9/FacialAge/BNav_EC2/DepthDuration/v2_depth_duration_MTurk/v2_DepthDuration_HTML.html#217,217,1366,768,1366,768,8-29-2022,15-25-37,163,depth_duration_stimuli/003423_2014-05-21_10-23-26_094959634447_rgbf002665-resize_2/003423_2014-05-21_10-23-26_094959634447_rgbf002665-resize_2-target.png,1000,3.2575,2,3547,999,meters,jsons/v1_VE1000_randls_76_rotated.json,719792,924466,25,Man
163,396436,DepthScenes,duration_manipulation_targetAtFixation,jsons/v1_VE1000_randls_76_rotated.json,http://54.235.29.9/FacialAge/BNav_EC2/DepthDuration/v2_depth_duration_MTurk/v2_DepthDuration_HTML.html#217,217,1366,768,1366,768,8-29-2022,15-25-37,164,depth_duration_stimuli/002905_2014-06-03_18-04-43_094959634447_rgbf000151-resize_2/002905_2014-06-03_18-04-43_094959634447_rgbf000151-resize_2-target.png,1000,2.0295,2,3337,999,meters,jsons/v1_VE1000_randls_76_rotated.json,719792,924466,25,Man
