,subjID,experimentName,versionName,sequenceName,url,selected_row,windowWidth,windowHeight,screenWidth,screenHeight,startDate,startTime,trial,stimulus,duration,actual_depth,depth_estimate,trial_RT,log_sceneDuration,unitSelection,seq_filepath,experimentTime,totalTime,age,gender
0,399093,DepthScenes,duration_manipulation_targetAtFixation,jsons/VE125_randls_43_rotated.json,http://54.235.29.9/FacialAge/BNav_EC2/DepthDuration/v2_depth_duration_MTurk/v2_DepthDuration_HTML.html#365,365,1280,720,1280,720,9-18-2022,10-21-8,1,depth_duration_stimuli/002467_2014-06-28_20-38-07_260595134347_rgbf000026-resize_2/002467_2014-06-28_20-38-07_260595134347_rgbf000026-resize_2-target.png,125,4.742,6.0,3801,123,feet,jsons/VE125_randls_43_rotated.json,776621,1446285,26,Man
1,399093,DepthScenes,duration_manipulation_targetAtFixation,jsons/VE125_randls_43_rotated.json,http://54.235.29.9/FacialAge/BNav_EC2/DepthDuration/v2_depth_duration_MTurk/v2_DepthDuration_HTML.html#365,365,1280,720,1280,720,9-18-2022,10-21-8,2,depth_duration_stimuli/002570_2014-06-24_13-59-54_094959634447_rgbf000059-resize_0/002570_2014-06-24_13-59-54_094959634447_rgbf000059-resize_0-target.png,125,4.037,2.0,3164,139,feet,jsons/VE125_randls_43_rotated.json,776621,1446285,26,Man
2,399093,DepthScenes,duration_manipulation_targetAtFixation,jsons/VE125_randls_43_rotated.json,http://54.235.29.9/FacialAge/BNav_EC2/DepthDuration/v2_depth_duration_MTurk/v2_DepthDuration_HTML.html#365,365,1280,720,1280,720,9-18-2022,10-21-8,3,depth_duration_stimuli/000137_2014-05-20_17-04-49_260595134347_rgbf000120-resize_1/000137_2014-05-20_17-04-49_260595134347_rgbf000120-resize_1-target.png,125,3.786,4.0,3239,122,feet,jsons/VE125_randls_43_rotated.json,776621,1446285,26,Man
3,399093,DepthScenes,duration_manipulation_targetAtFixation,jsons/VE125_randls_43_rotated.json,http://54.235.29.9/FacialAge/BNav_EC2/DepthDuration/v2_depth_duration_MTurk/v2_DepthDuration_HTML.html#365,365,1280,720,1280,720,9-18-2022,10-21-8,4,depth_duration_stimuli/000736_2014-06-08_18-24-15_260595134347_rgbf000206-resize_3/000736_2014-06-08_18-24-15_260595134347_rgbf000206-resize_3-target.png,125,3.515,3.0,3312,122,feet,jsons/VE125_randls_43_rotated.json,776621,1446285,26,Man
4,399093,DepthScenes,duration_manipulation_targetAtFixation,jsons/VE125_randls_43_rotated.json,http://54.235.29.9/FacialAge/BNav_EC2/DepthDuration/v2_depth_duration_MTurk/v2_DepthDuration_HTML.html#365,365,1280,720,1280,720,9-18-2022,10-21-8,5,depth_duration_stimuli/002103_2014-06-25_20-00-40_260595134347_rgbf000049-resize_0/002103_2014-06-25_20-00-40_260595134347_rgbf000049-resize_0-target.png,125,4.105,5.0,3437,121,feet,jsons/VE125_randls_43_rotated.json,776621,1446285,26,Man
5,399093,DepthScenes,duration_manipulation_targetAtFixation,jsons/VE125_randls_43_rotated.json,http://54.235.29.9/FacialAge/BNav_EC2/DepthDuration/v2_depth_duration_MTurk/v2_DepthDuration_HTML.html#365,365,1280,720,1280,720,9-18-2022,10-21-8,6,depth_duration_stimuli/002039_2014-06-24_20-22-38_260595134347_rgbf000084-resize_1/002039_2014-06-24_20-22-38_260595134347_rgbf000084-resize_1-target.png,125,4.408,3.5,4533,124,feet,jsons/VE125_randls_43_rotated.json,776621,1446285,26,Man
6,399093,DepthScenes,duration_manipulation_targetAtFixation,jsons/VE125_randls_43_rotated.json,http://54.235.29.9/FacialAge/BNav_EC2/DepthDuration/v2_depth_duration_MTurk/v2_DepthDuration_HTML.html#365,365,1280,720,1280,720,9-18-2022,10-21-8,7,depth_duration_stimuli/002758_2014-06-22_19-11-20_094959634447_rgbf000128-resize_1/002758_2014-06-22_19-11-20_094959634447_rgbf000128-resize_1-target.png,125,2.555,2.0,3387,122,feet,jsons/VE125_randls_43_rotated.json,776621,1446285,26,Man
7,399093,DepthScenes,duration_manipulation_targetAtFixation,jsons/VE125_randls_43_rotated.json,http://54.235.29.9/FacialAge/BNav_EC2/DepthDuration/v2_depth_duration_MTurk/v2_DepthDuration_HTML.html#365,365,1280,720,1280,720,9-18-2022,10-21-8,8,depth_duration_stimuli/002630_2014-06-24_14-47-50_094959634447_rgbf000055-resize_1/002630_2014-06-24_14-47-50_094959634447_rgbf000055-resize_1-target.png,125,3.0095,6.0,3851,123,feet,jsons/VE125_randls_43_rotated.json,776621,1446285,26,Man
8,399093,DepthScenes,duration_manipulation_targetAtFixation,jsons/VE125_randls_43_rotated.json,http://54.235.29.9/FacialAge/BNav_EC2/DepthDuration/v2_depth_duration_MTurk/v2_DepthDuration_HTML.html#365,365,1280,720,1280,720,9-18-2022,10-21-8,9,depth_duration_stimuli/002136_2014-06-25_21-18-03_260595134347_rgbf000109-resize_3/002136_2014-06-25_21-18-03_260595134347_rgbf000109-resize_3-target.png,125,1.9569999999999999,2.5,4524,121,feet,jsons/VE125_randls_43_rotated.json,776621,1446285,26,Man
9,399093,DepthScenes,duration_manipulation_targetAtFixation,jsons/VE125_randls_43_rotated.json,http://54.235.29.9/FacialAge/BNav_EC2/DepthDuration/v2_depth_duration_MTurk/v2_DepthDuration_HTML.html#365,365,1280,720,1280,720,9-18-2022,10-21-8,10,depth_duration_stimuli/002964_2014-06-08_17-46-11_094959634447_rgbf000091-resize_4/002964_2014-06-08_17-46-11_094959634447_rgbf000091-resize_4-target.png,125,1.6909999999999998,1.5,3962,125,feet,jsons/VE125_randls_43_rotated.json,776621,1446285,26,Man
10,399093,DepthScenes,duration_manipulation_targetAtFixation,jsons/VE125_randls_43_rotated.json,http://54.235.29.9/FacialAge/BNav_EC2/DepthDuration/v2_depth_duration_MTurk/v2_DepthDuration_HTML.html#365,365,1280,720,1280,720,9-18-2022,10-21-8,11,depth_duration_stimuli/000103_2014-05-14_22-01-17_260595134347_rgbf000152-resize_5/000103_2014-05-14_22-01-17_260595134347_rgbf000152-resize_5-target.png,125,1.993,3.5,4402,123,feet,jsons/VE125_randls_43_rotated.json,776621,1446285,26,Man
11,399093,DepthScenes,duration_manipulation_targetAtFixation,jsons/VE125_randls_43_rotated.json,http://54.235.29.9/FacialAge/BNav_EC2/DepthDuration/v2_depth_duration_MTurk/v2_DepthDuration_HTML.html#365,365,1280,720,1280,720,9-18-2022,10-21-8,12,depth_duration_stimuli/001555_2014-06-20_17-12-10_260595134347_rgbf000065-resize_4/001555_2014-06-20_17-12-10_260595134347_rgbf000065-resize_4-target.png,125,1.633,2.0,3124,123,feet,jsons/VE125_randls_43_rotated.json,776621,1446285,26,Man
12,399093,DepthScenes,duration_manipulation_targetAtFixation,jsons/VE125_randls_43_rotated.json,http://54.235.29.9/FacialAge/BNav_EC2/DepthDuration/v2_depth_duration_MTurk/v2_DepthDuration_HTML.html#365,365,1280,720,1280,720,9-18-2022,10-21-8,13,depth_duration_stimuli/001032_2014-06-08_13-23-17_260595134347_rgbf000021-resize_3/001032_2014-06-08_13-23-17_260595134347_rgbf000021-resize_3-target.png,125,3.2725,3.0,4105,123,feet,jsons/VE125_randls_43_rotated.json,776621,1446285,26,Man
13,399093,DepthScenes,duration_manipulation_targetAtFixation,jsons/VE125_randls_43_rotated.json,http://54.235.29.9/FacialAge/BNav_EC2/DepthDuration/v2_depth_duration_MTurk/v2_DepthDuration_HTML.html#365,365,1280,720,1280,720,9-18-2022,10-21-8,14,depth_duration_stimuli/001059_2014-06-08_21-53-27_260595134347_rgbf000061-resize_4/001059_2014-06-08_21-53-27_260595134347_rgbf000061-resize_4-target.png,125,2.4185,5.0,4884,122,feet,jsons/VE125_randls_43_rotated.json,776621,1446285,26,Man
14,399093,DepthScenes,duration_manipulation_targetAtFixation,jsons/VE125_randls_43_rotated.json,http://54.235.29.9/FacialAge/BNav_EC2/DepthDuration/v2_depth_duration_MTurk/v2_DepthDuration_HTML.html#365,365,1280,720,1280,720,9-18-2022,10-21-8,15,depth_duration_stimuli/001617_2014-06-20_11-35-32_260595134347_rgbf000066-resize_1/001617_2014-06-20_11-35-32_260595134347_rgbf000066-resize_1-target.png,125,3.7910000000000004,2.0,3626,123,feet,jsons/VE125_randls_43_rotated.json,776621,1446285,26,Man
15,399093,DepthScenes,duration_manipulation_targetAtFixation,jsons/VE125_randls_43_rotated.json,http://54.235.29.9/FacialAge/BNav_EC2/DepthDuration/v2_depth_duration_MTurk/v2_DepthDuration_HTML.html#365,365,1280,720,1280,720,9-18-2022,10-21-8,16,depth_duration_stimuli/001806_2014-06-26_20-50-20_260595134347_rgbf000091-resize_1/001806_2014-06-26_20-50-20_260595134347_rgbf000091-resize_1-target.png,125,2.7305,3.0,4498,124,feet,jsons/VE125_randls_43_rotated.json,776621,1446285,26,Man
16,399093,DepthScenes,duration_manipulation_targetAtFixation,jsons/VE125_randls_43_rotated.json,http://54.235.29.9/FacialAge/BNav_EC2/DepthDuration/v2_depth_duration_MTurk/v2_DepthDuration_HTML.html#365,365,1280,720,1280,720,9-18-2022,10-21-8,17,depth_duration_stimuli/002637_2014-06-24_14-51-13_094959634447_rgbf000066-resize_4/002637_2014-06-24_14-51-13_094959634447_rgbf000066-resize_4-target.png,125,1.9955,3.5,5818,123,feet,jsons/VE125_randls_43_rotated.json,776621,1446285,26,Man
17,399093,DepthScenes,duration_manipulation_targetAtFixation,jsons/VE125_randls_43_rotated.json,http://54.235.29.9/FacialAge/BNav_EC2/DepthDuration/v2_depth_duration_MTurk/v2_DepthDuration_HTML.html#365,365,1280,720,1280,720,9-18-2022,10-21-8,18,depth_duration_stimuli/003534_2014-05-22_15-06-10_094959634447_rgbf000102-resize_4/003534_2014-05-22_15-06-10_094959634447_rgbf000102-resize_4-target.png,125,1.426,2.5,4639,123,feet,jsons/VE125_randls_43_rotated.json,776621,1446285,26,Man
18,399093,DepthScenes,duration_manipulation_targetAtFixation,jsons/VE125_randls_43_rotated.json,http://54.235.29.9/FacialAge/BNav_EC2/DepthDuration/v2_depth_duration_MTurk/v2_DepthDuration_HTML.html#365,365,1280,720,1280,720,9-18-2022,10-21-8,19,depth_duration_stimuli/001498_2014-06-19_17-45-14_260595134347_rgbf000129-resize_4/001498_2014-06-19_17-45-14_260595134347_rgbf000129-resize-original.jpg,125,1.4075,0.0,2623,123,feet,jsons/VE125_randls_43_rotated.json,776621,1446285,26,Man
19,399093,DepthScenes,duration_manipulation_targetAtFixation,jsons/VE125_randls_43_rotated.json,http://54.235.29.9/FacialAge/BNav_EC2/DepthDuration/v2_depth_duration_MTurk/v2_DepthDuration_HTML.html#365,365,1280,720,1280,720,9-18-2022,10-21-8,20,depth_duration_stimuli/001094_2014-06-15_17-36-00_260595134347_rgbf000205-resize_0/001094_2014-06-15_17-36-00_260595134347_rgbf000205-resize_0-target.png,125,4.2175,7.0,3943,124,feet,jsons/VE125_randls_43_rotated.json,776621,1446285,26,Man
20,399093,DepthScenes,duration_manipulation_targetAtFixation,jsons/VE125_randls_43_rotated.json,http://54.235.29.9/FacialAge/BNav_EC2/DepthDuration/v2_depth_duration_MTurk/v2_DepthDuration_HTML.html#365,365,1280,720,1280,720,9-18-2022,10-21-8,21,depth_duration_stimuli/000692_2014-06-08_13-09-42_260595134347_rgbf000199-resize_2/000692_2014-06-08_13-09-42_260595134347_rgbf000199-resize_2-target.png,125,3.661,10.0,4266,123,feet,jsons/VE125_randls_43_rotated.json,776621,1446285,26,Man
21,399093,DepthScenes,duration_manipulation_targetAtFixation,jsons/VE125_randls_43_rotated.json,http://54.235.29.9/FacialAge/BNav_EC2/DepthDuration/v2_depth_duration_MTurk/v2_DepthDuration_HTML.html#365,365,1280,720,1280,720,9-18-2022,10-21-8,22,depth_duration_stimuli/000502_2014-06-08_23-02-32_260595134347_rgbf000063-resize_4/000502_2014-06-08_23-02-32_260595134347_rgbf000063-resize_4-target.png,125,2.431,5.0,5361,125,feet,jsons/VE125_randls_43_rotated.json,776621,1446285,26,Man
22,399093,DepthScenes,duration_manipulation_targetAtFixation,jsons/VE125_randls_43_rotated.json,http://54.235.29.9/FacialAge/BNav_EC2/DepthDuration/v2_depth_duration_MTurk/v2_DepthDuration_HTML.html#365,365,1280,720,1280,720,9-18-2022,10-21-8,23,depth_duration_stimuli/001199_2014-06-17_16-03-48_260595134347_rgbf000077-resize_0/001199_2014-06-17_16-03-48_260595134347_rgbf000077-resize_0-target.png,125,3.4375,6.0,5207,122,feet,jsons/VE125_randls_43_rotated.json,776621,1446285,26,Man
23,399093,DepthScenes,duration_manipulation_targetAtFixation,jsons/VE125_randls_43_rotated.json,http://54.235.29.9/FacialAge/BNav_EC2/DepthDuration/v2_depth_duration_MTurk/v2_DepthDuration_HTML.html#365,365,1280,720,1280,720,9-18-2022,10-21-8,24,depth_duration_stimuli/002657_2014-06-13_15-29-54_094959634447_rgbf000150-resize_1/002657_2014-06-13_15-29-54_094959634447_rgbf000150-resize_1-target.png,125,4.919,5.0,4616,119,feet,jsons/VE125_randls_43_rotated.json,776621,1446285,26,Man
24,399093,DepthScenes,duration_manipulation_targetAtFixation,jsons/VE125_randls_43_rotated.json,http://54.235.29.9/FacialAge/BNav_EC2/DepthDuration/v2_depth_duration_MTurk/v2_DepthDuration_HTML.html#365,365,1280,720,1280,720,9-18-2022,10-21-8,25,depth_duration_stimuli/002375_2014-06-28_20-13-44_260595134347_rgbf000032-resize_1/002375_2014-06-28_20-13-44_260595134347_rgbf000032-resize_1-target.png,125,4.0175,6.0,3865,139,feet,jsons/VE125_randls_43_rotated.json,776621,1446285,26,Man
25,399093,DepthScenes,duration_manipulation_targetAtFixation,jsons/VE125_randls_43_rotated.json,http://54.235.29.9/FacialAge/BNav_EC2/DepthDuration/v2_depth_duration_MTurk/v2_DepthDuration_HTML.html#365,365,1280,720,1280,720,9-18-2022,10-21-8,26,depth_duration_stimuli/002340_2014-06-28_20-05-46_260595134347_rgbf000113-resize_0/002340_2014-06-28_20-05-46_260595134347_rgbf000113-resize_0-target.png,125,2.4735,0.0,2858,123,feet,jsons/VE125_randls_43_rotated.json,776621,1446285,26,Man
26,399093,DepthScenes,duration_manipulation_targetAtFixation,jsons/VE125_randls_43_rotated.json,http://54.235.29.9/FacialAge/BNav_EC2/DepthDuration/v2_depth_duration_MTurk/v2_DepthDuration_HTML.html#365,365,1280,720,1280,720,9-18-2022,10-21-8,27,depth_duration_stimuli/001016_2014-06-09_16-16-10_260595134347_rgbf000112-resize_5/001016_2014-06-09_16-16-10_260595134347_rgbf000112-resize_5-target.png,125,1.6565,3.0,5055,124,feet,jsons/VE125_randls_43_rotated.json,776621,1446285,26,Man
27,399093,DepthScenes,duration_manipulation_targetAtFixation,jsons/VE125_randls_43_rotated.json,http://54.235.29.9/FacialAge/BNav_EC2/DepthDuration/v2_depth_duration_MTurk/v2_DepthDuration_HTML.html#365,365,1280,720,1280,720,9-18-2022,10-21-8,28,depth_duration_stimuli/002344_2014-06-28_20-06-29_260595134347_rgbf000030-resize_1/002344_2014-06-28_20-06-29_260595134347_rgbf000030-resize_1-target.png,125,1.5795,2.0,4355,122,feet,jsons/VE125_randls_43_rotated.json,776621,1446285,26,Man
28,399093,DepthScenes,duration_manipulation_targetAtFixation,jsons/VE125_randls_43_rotated.json,http://54.235.29.9/FacialAge/BNav_EC2/DepthDuration/v2_depth_duration_MTurk/v2_DepthDuration_HTML.html#365,365,1280,720,1280,720,9-18-2022,10-21-8,29,depth_duration_stimuli/002725_2014-06-22_11-47-51_094959634447_rgbf000070-resize_1/002725_2014-06-22_11-47-51_094959634447_rgbf000070-resize_1-target.png,125,2.195,3.0,3988,126,feet,jsons/VE125_randls_43_rotated.json,776621,1446285,26,Man
29,399093,DepthScenes,duration_manipulation_targetAtFixation,jsons/VE125_randls_43_rotated.json,http://54.235.29.9/FacialAge/BNav_EC2/DepthDuration/v2_depth_duration_MTurk/v2_DepthDuration_HTML.html#365,365,1280,720,1280,720,9-18-2022,10-21-8,30,depth_duration_stimuli/002072_2014-06-24_21-48-06_260595134347_rgbf000115-resize_0/002072_2014-06-24_21-48-06_260595134347_rgbf000115-resize-original.jpg,125,4.702,0.0,2408,123,feet,jsons/VE125_randls_43_rotated.json,776621,1446285,26,Man
30,399093,DepthScenes,duration_manipulation_targetAtFixation,jsons/VE125_randls_43_rotated.json,http://54.235.29.9/FacialAge/BNav_EC2/DepthDuration/v2_depth_duration_MTurk/v2_DepthDuration_HTML.html#365,365,1280,720,1280,720,9-18-2022,10-21-8,31,depth_duration_stimuli/000854_2014-06-09_19-43-13_260595134347_rgbf000066-resize_0/000854_2014-06-09_19-43-13_260595134347_rgbf000066-resize_0-target.png,125,3.068,2.0,3164,123,feet,jsons/VE125_randls_43_rotated.json,776621,1446285,26,Man
31,399093,DepthScenes,duration_manipulation_targetAtFixation,jsons/VE125_randls_43_rotated.json,http://54.235.29.9/FacialAge/BNav_EC2/DepthDuration/v2_depth_duration_MTurk/v2_DepthDuration_HTML.html#365,365,1280,720,1280,720,9-18-2022,10-21-8,32,depth_duration_stimuli/000758_2014-06-08_22-05-08_260595134347_rgbf000085-resize_0/000758_2014-06-08_22-05-08_260595134347_rgbf000085-resize_0-target.png,125,3.3810000000000002,7.0,4411,123,feet,jsons/VE125_randls_43_rotated.json,776621,1446285,26,Man
32,399093,DepthScenes,duration_manipulation_targetAtFixation,jsons/VE125_randls_43_rotated.json,http://54.235.29.9/FacialAge/BNav_EC2/DepthDuration/v2_depth_duration_MTurk/v2_DepthDuration_HTML.html#365,365,1280,720,1280,720,9-18-2022,10-21-8,33,depth_duration_stimuli/000749_2014-06-08_21-55-06_260595134347_rgbf000070-resize_2/000749_2014-06-08_21-55-06_260595134347_rgbf000070-resize_2-target.png,125,2.331,5.0,4755,122,feet,jsons/VE125_randls_43_rotated.json,776621,1446285,26,Man
33,399093,DepthScenes,duration_manipulation_targetAtFixation,jsons/VE125_randls_43_rotated.json,http://54.235.29.9/FacialAge/BNav_EC2/DepthDuration/v2_depth_duration_MTurk/v2_DepthDuration_HTML.html#365,365,1280,720,1280,720,9-18-2022,10-21-8,34,depth_duration_stimuli/002788_2014-06-22_19-36-03_094959634447_rgbf000088-resize_2/002788_2014-06-22_19-36-03_094959634447_rgbf000088-resize_2-target.png,125,1.6465,7.0,4358,124,feet,jsons/VE125_randls_43_rotated.json,776621,1446285,26,Man
34,399093,DepthScenes,duration_manipulation_targetAtFixation,jsons/VE125_randls_43_rotated.json,http://54.235.29.9/FacialAge/BNav_EC2/DepthDuration/v2_depth_duration_MTurk/v2_DepthDuration_HTML.html#365,365,1280,720,1280,720,9-18-2022,10-21-8,35,depth_duration_stimuli/001132_2014-06-17_14-48-54_260595134347_rgbf000100-resize_2/001132_2014-06-17_14-48-54_260595134347_rgbf000100-resize_2-target.png,125,3.753,11.0,6436,124,feet,jsons/VE125_randls_43_rotated.json,776621,1446285,26,Man
35,399093,DepthScenes,duration_manipulation_targetAtFixation,jsons/VE125_randls_43_rotated.json,http://54.235.29.9/FacialAge/BNav_EC2/DepthDuration/v2_depth_duration_MTurk/v2_DepthDuration_HTML.html#365,365,1280,720,1280,720,9-18-2022,10-21-8,36,depth_duration_stimuli/001133_2014-06-17_14-49-16_260595134347_rgbf000100-resize_0/001133_2014-06-17_14-49-16_260595134347_rgbf000100-resize_0-target.png,125,4.2115,6.0,4879,122,feet,jsons/VE125_randls_43_rotated.json,776621,1446285,26,Man
36,399093,DepthScenes,duration_manipulation_targetAtFixation,jsons/VE125_randls_43_rotated.json,http://54.235.29.9/FacialAge/BNav_EC2/DepthDuration/v2_depth_duration_MTurk/v2_DepthDuration_HTML.html#365,365,1280,720,1280,720,9-18-2022,10-21-8,37,depth_duration_stimuli/003048_2014-06-15_13-49-43_094959634447_rgbf000150-resize_1/003048_2014-06-15_13-49-43_094959634447_rgbf000150-resize_1-target.png,125,4.0035,9.0,5857,139,feet,jsons/VE125_randls_43_rotated.json,776621,1446285,26,Man
37,399093,DepthScenes,duration_manipulation_targetAtFixation,jsons/VE125_randls_43_rotated.json,http://54.235.29.9/FacialAge/BNav_EC2/DepthDuration/v2_depth_duration_MTurk/v2_DepthDuration_HTML.html#365,365,1280,720,1280,720,9-18-2022,10-21-8,38,depth_duration_stimuli/002043_2014-06-24_20-29-38_260595134347_rgbf000039-resize_4/002043_2014-06-24_20-29-38_260595134347_rgbf000039-resize_4-target.png,125,2.8435,7.0,4115,123,feet,jsons/VE125_randls_43_rotated.json,776621,1446285,26,Man
38,399093,DepthScenes,duration_manipulation_targetAtFixation,jsons/VE125_randls_43_rotated.json,http://54.235.29.9/FacialAge/BNav_EC2/DepthDuration/v2_depth_duration_MTurk/v2_DepthDuration_HTML.html#365,365,1280,720,1280,720,9-18-2022,10-21-8,39,depth_duration_stimuli/002949_2014-06-26_15-57-42_094959634447_rgbf000079-resize_1/002949_2014-06-26_15-57-42_094959634447_rgbf000079-resize_1-target.png,125,1.8915,2.5,4910,123,feet,jsons/VE125_randls_43_rotated.json,776621,1446285,26,Man
39,399093,DepthScenes,duration_manipulation_targetAtFixation,jsons/VE125_randls_43_rotated.json,http://54.235.29.9/FacialAge/BNav_EC2/DepthDuration/v2_depth_duration_MTurk/v2_DepthDuration_HTML.html#365,365,1280,720,1280,720,9-18-2022,10-21-8,40,depth_duration_stimuli/000522_2014-06-08_13-35-06_260595134347_rgbf000244-resize_1/000522_2014-06-08_13-35-06_260595134347_rgbf000244-resize_1-target.png,125,2.3715,2.0,3098,123,feet,jsons/VE125_randls_43_rotated.json,776621,1446285,26,Man
40,399093,DepthScenes,duration_manipulation_targetAtFixation,jsons/VE125_randls_43_rotated.json,http://54.235.29.9/FacialAge/BNav_EC2/DepthDuration/v2_depth_duration_MTurk/v2_DepthDuration_HTML.html#365,365,1280,720,1280,720,9-18-2022,10-21-8,41,depth_duration_stimuli/001828_2014-06-26_21-40-03_260595134347_rgbf000024-resize_0/001828_2014-06-26_21-40-03_260595134347_rgbf000024-resize_0-target.png,125,4.8260000000000005,12.0,4078,124,feet,jsons/VE125_randls_43_rotated.json,776621,1446285,26,Man
41,399093,DepthScenes,duration_manipulation_targetAtFixation,jsons/VE125_randls_43_rotated.json,http://54.235.29.9/FacialAge/BNav_EC2/DepthDuration/v2_depth_duration_MTurk/v2_DepthDuration_HTML.html#365,365,1280,720,1280,720,9-18-2022,10-21-8,42,depth_duration_stimuli/000009_2014-05-26_14-32-05_260595134347_rgbf000034-resize_3/000009_2014-05-26_14-32-05_260595134347_rgbf000034-resize_3-target.png,125,3.8715,12.0,4376,123,feet,jsons/VE125_randls_43_rotated.json,776621,1446285,26,Man
42,399093,DepthScenes,duration_manipulation_targetAtFixation,jsons/VE125_randls_43_rotated.json,http://54.235.29.9/FacialAge/BNav_EC2/DepthDuration/v2_depth_duration_MTurk/v2_DepthDuration_HTML.html#365,365,1280,720,1280,720,9-18-2022,10-21-8,43,depth_duration_stimuli/003495_2014-05-21_16-01-51_094959634447_rgbf000100-resize_3/003495_2014-05-21_16-01-51_094959634447_rgbf000100-resize_3-target.png,125,1.6255,2.5,6048,139,feet,jsons/VE125_randls_43_rotated.json,776621,1446285,26,Man
43,399093,DepthScenes,duration_manipulation_targetAtFixation,jsons/VE125_randls_43_rotated.json,http://54.235.29.9/FacialAge/BNav_EC2/DepthDuration/v2_depth_duration_MTurk/v2_DepthDuration_HTML.html#365,365,1280,720,1280,720,9-18-2022,10-21-8,44,depth_duration_stimuli/001244_2014-06-17_16-47-45_260595134347_rgbf000030-resize_4/001244_2014-06-17_16-47-45_260595134347_rgbf000030-resize_4-target.png,125,2.0425,4.0,4824,123,feet,jsons/VE125_randls_43_rotated.json,776621,1446285,26,Man
44,399093,DepthScenes,duration_manipulation_targetAtFixation,jsons/VE125_randls_43_rotated.json,http://54.235.29.9/FacialAge/BNav_EC2/DepthDuration/v2_depth_duration_MTurk/v2_DepthDuration_HTML.html#365,365,1280,720,1280,720,9-18-2022,10-21-8,45,depth_duration_stimuli/001450_2014-06-19_17-02-03_260595134347_rgbf000203-resize_4/001450_2014-06-19_17-02-03_260595134347_rgbf000203-resize_4-target.png,125,4.0106666666667,7.5,8628,124,feet,jsons/VE125_randls_43_rotated.json,776621,1446285,26,Man
45,399093,DepthScenes,duration_manipulation_targetAtFixation,jsons/VE125_randls_43_rotated.json,http://54.235.29.9/FacialAge/BNav_EC2/DepthDuration/v2_depth_duration_MTurk/v2_DepthDuration_HTML.html#365,365,1280,720,1280,720,9-18-2022,10-21-8,46,depth_duration_stimuli/001449_2014-06-19_17-01-27_260595134347_rgbf000116-resize_2/001449_2014-06-19_17-01-27_260595134347_rgbf000116-resize_2-target.png,125,3.452,4.0,4912,122,feet,jsons/VE125_randls_43_rotated.json,776621,1446285,26,Man
46,399093,DepthScenes,duration_manipulation_targetAtFixation,jsons/VE125_randls_43_rotated.json,http://54.235.29.9/FacialAge/BNav_EC2/DepthDuration/v2_depth_duration_MTurk/v2_DepthDuration_HTML.html#365,365,1280,720,1280,720,9-18-2022,10-21-8,47,depth_duration_stimuli/000483_2014-06-09_20-41-45_260595134347_rgbf000116-resize_4/000483_2014-06-09_20-41-45_260595134347_rgbf000116-resize_4-target.png,125,1.337,2.0,3199,124,feet,jsons/VE125_randls_43_rotated.json,776621,1446285,26,Man
47,399093,DepthScenes,duration_manipulation_targetAtFixation,jsons/VE125_randls_43_rotated.json,http://54.235.29.9/FacialAge/BNav_EC2/DepthDuration/v2_depth_duration_MTurk/v2_DepthDuration_HTML.html#365,365,1280,720,1280,720,9-18-2022,10-21-8,48,depth_duration_stimuli/000469_2014-06-09_19-42-10_260595134347_rgbf000081-resize_1/000469_2014-06-09_19-42-10_260595134347_rgbf000081-resize_1-target.png,125,1.652,2.0,2530,123,feet,jsons/VE125_randls_43_rotated.json,776621,1446285,26,Man
48,399093,DepthScenes,duration_manipulation_targetAtFixation,jsons/VE125_randls_43_rotated.json,http://54.235.29.9/FacialAge/BNav_EC2/DepthDuration/v2_depth_duration_MTurk/v2_DepthDuration_HTML.html#365,365,1280,720,1280,720,9-18-2022,10-21-8,49,depth_duration_stimuli/001170_2014-06-17_15-43-44_260595134347_rgbf000096-resize_6/001170_2014-06-17_15-43-44_260595134347_rgbf000096-resize-original.jpg,125,1.1909999999999998,0.0,3378,123,feet,jsons/VE125_randls_43_rotated.json,776621,1446285,26,Man
49,399093,DepthScenes,duration_manipulation_targetAtFixation,jsons/VE125_randls_43_rotated.json,http://54.235.29.9/FacialAge/BNav_EC2/DepthDuration/v2_depth_duration_MTurk/v2_DepthDuration_HTML.html#365,365,1280,720,1280,720,9-18-2022,10-21-8,50,depth_duration_stimuli/003083_2014-06-15_15-21-03_094959634447_rgbf000063-resize_1/003083_2014-06-15_15-21-03_094959634447_rgbf000063-resize_1-target.png,125,4.1405,8.0,3687,138,feet,jsons/VE125_randls_43_rotated.json,776621,1446285,26,Man
50,399093,DepthScenes,duration_manipulation_targetAtFixation,jsons/VE125_randls_43_rotated.json,http://54.235.29.9/FacialAge/BNav_EC2/DepthDuration/v2_depth_duration_MTurk/v2_DepthDuration_HTML.html#365,365,1280,720,1280,720,9-18-2022,10-21-8,51,depth_duration_stimuli/000486_2014-06-09_20-47-20_260595134347_rgbf000143-resize_2/000486_2014-06-09_20-47-20_260595134347_rgbf000143-resize_2-target.png,125,4.8325,6.0,3672,124,feet,jsons/VE125_randls_43_rotated.json,776621,1446285,26,Man
51,399093,DepthScenes,duration_manipulation_targetAtFixation,jsons/VE125_randls_43_rotated.json,http://54.235.29.9/FacialAge/BNav_EC2/DepthDuration/v2_depth_duration_MTurk/v2_DepthDuration_HTML.html#365,365,1280,720,1280,720,9-18-2022,10-21-8,52,depth_duration_stimuli/000191_2014-05-12_17-07-38_260595134347_rgbf000199-resize_0/000191_2014-05-12_17-07-38_260595134347_rgbf000199-resize_0-target.png,125,3.7995,14.0,5335,122,feet,jsons/VE125_randls_43_rotated.json,776621,1446285,26,Man
52,399093,DepthScenes,duration_manipulation_targetAtFixation,jsons/VE125_randls_43_rotated.json,http://54.235.29.9/FacialAge/BNav_EC2/DepthDuration/v2_depth_duration_MTurk/v2_DepthDuration_HTML.html#365,365,1280,720,1280,720,9-18-2022,10-21-8,53,depth_duration_stimuli/000493_2014-06-09_21-01-18_260595134347_rgbf000196-resize_3/000493_2014-06-09_21-01-18_260595134347_rgbf000196-resize_3-target.png,125,3.44,0.0,2642,125,feet,jsons/VE125_randls_43_rotated.json,776621,1446285,26,Man
53,399093,DepthScenes,duration_manipulation_targetAtFixation,jsons/VE125_randls_43_rotated.json,http://54.235.29.9/FacialAge/BNav_EC2/DepthDuration/v2_depth_duration_MTurk/v2_DepthDuration_HTML.html#365,365,1280,720,1280,720,9-18-2022,10-21-8,54,depth_duration_stimuli/003079_2014-06-15_15-18-20_094959634447_rgbf000152-resize_8/003079_2014-06-15_15-18-20_094959634447_rgbf000152-resize_8-target.png,125,2.8775,10.0,4497,122,feet,jsons/VE125_randls_43_rotated.json,776621,1446285,26,Man
54,399093,DepthScenes,duration_manipulation_targetAtFixation,jsons/VE125_randls_43_rotated.json,http://54.235.29.9/FacialAge/BNav_EC2/DepthDuration/v2_depth_duration_MTurk/v2_DepthDuration_HTML.html#365,365,1280,720,1280,720,9-18-2022,10-21-8,55,depth_duration_stimuli/000506_2014-06-08_23-21-00_260595134347_rgbf000070-resize_7/000506_2014-06-08_23-21-00_260595134347_rgbf000070-resize_7-target.png,125,4.0585,7.0,4837,125,feet,jsons/VE125_randls_43_rotated.json,776621,1446285,26,Man
55,399093,DepthScenes,duration_manipulation_targetAtFixation,jsons/VE125_randls_43_rotated.json,http://54.235.29.9/FacialAge/BNav_EC2/DepthDuration/v2_depth_duration_MTurk/v2_DepthDuration_HTML.html#365,365,1280,720,1280,720,9-18-2022,10-21-8,56,depth_duration_stimuli/001136_2014-06-17_15-19-41_260595134347_rgbf000076-resize_3/001136_2014-06-17_15-19-41_260595134347_rgbf000076-resize_3-target.png,125,1.8655,4.5,5735,121,feet,jsons/VE125_randls_43_rotated.json,776621,1446285,26,Man
56,399093,DepthScenes,duration_manipulation_targetAtFixation,jsons/VE125_randls_43_rotated.json,http://54.235.29.9/FacialAge/BNav_EC2/DepthDuration/v2_depth_duration_MTurk/v2_DepthDuration_HTML.html#365,365,1280,720,1280,720,9-18-2022,10-21-8,57,depth_duration_stimuli/001164_2014-06-17_15-35-46_260595134347_rgbf000085-resize_3/001164_2014-06-17_15-35-46_260595134347_rgbf000085-resize_3-target.png,125,2.354,6.0,4037,123,feet,jsons/VE125_randls_43_rotated.json,776621,1446285,26,Man
57,399093,DepthScenes,duration_manipulation_targetAtFixation,jsons/VE125_randls_43_rotated.json,http://54.235.29.9/FacialAge/BNav_EC2/DepthDuration/v2_depth_duration_MTurk/v2_DepthDuration_HTML.html#365,365,1280,720,1280,720,9-18-2022,10-21-8,58,depth_duration_stimuli/002568_2014-06-24_13-59-21_094959634447_rgbf000062-resize_4/002568_2014-06-24_13-59-21_094959634447_rgbf000062-resize_4-target.png,125,3.015,6.5,6729,122,feet,jsons/VE125_randls_43_rotated.json,776621,1446285,26,Man
58,399093,DepthScenes,duration_manipulation_targetAtFixation,jsons/VE125_randls_43_rotated.json,http://54.235.29.9/FacialAge/BNav_EC2/DepthDuration/v2_depth_duration_MTurk/v2_DepthDuration_HTML.html#365,365,1280,720,1280,720,9-18-2022,10-21-8,59,depth_duration_stimuli/003492_2014-05-21_15-50-55_094959634447_rgbf000828-resize_1/003492_2014-05-21_15-50-55_094959634447_rgbf000828-resize_1-target.png,125,4.06875,9.0,4217,124,feet,jsons/VE125_randls_43_rotated.json,776621,1446285,26,Man
59,399093,DepthScenes,duration_manipulation_targetAtFixation,jsons/VE125_randls_43_rotated.json,http://54.235.29.9/FacialAge/BNav_EC2/DepthDuration/v2_depth_duration_MTurk/v2_DepthDuration_HTML.html#365,365,1280,720,1280,720,9-18-2022,10-21-8,60,depth_duration_stimuli/002875_2014-06-01_15-19-00_094959634447_rgbf000151-resize_1/002875_2014-06-01_15-19-00_094959634447_rgbf000151-resize_1-target.png,125,1.9675,3.0,3323,123,feet,jsons/VE125_randls_43_rotated.json,776621,1446285,26,Man
60,399093,DepthScenes,duration_manipulation_targetAtFixation,jsons/VE125_randls_43_rotated.json,http://54.235.29.9/FacialAge/BNav_EC2/DepthDuration/v2_depth_duration_MTurk/v2_DepthDuration_HTML.html#365,365,1280,720,1280,720,9-18-2022,10-21-8,61,depth_duration_stimuli/001011_2014-06-08_23-18-54_260595134347_rgbf000044-resize_4/001011_2014-06-08_23-18-54_260595134347_rgbf000044-resize_4-target.png,125,2.4730000000000003,6.5,4664,123,feet,jsons/VE125_randls_43_rotated.json,776621,1446285,26,Man
61,399093,DepthScenes,duration_manipulation_targetAtFixation,jsons/VE125_randls_43_rotated.json,http://54.235.29.9/FacialAge/BNav_EC2/DepthDuration/v2_depth_duration_MTurk/v2_DepthDuration_HTML.html#365,365,1280,720,1280,720,9-18-2022,10-21-8,62,depth_duration_stimuli/002444_2014-06-28_20-32-08_260595134347_rgbf000027-resize_0/002444_2014-06-28_20-32-08_260595134347_rgbf000027-resize_0-target.png,125,4.388999999999999,8.0,7372,138,feet,jsons/VE125_randls_43_rotated.json,776621,1446285,26,Man
62,399093,DepthScenes,duration_manipulation_targetAtFixation,jsons/VE125_randls_43_rotated.json,http://54.235.29.9/FacialAge/BNav_EC2/DepthDuration/v2_depth_duration_MTurk/v2_DepthDuration_HTML.html#365,365,1280,720,1280,720,9-18-2022,10-21-8,63,depth_duration_stimuli/000436_2014-06-09_22-25-11_260595134347_rgbf000137-resize_1/000436_2014-06-09_22-25-11_260595134347_rgbf000137-resize_1-target.png,125,4.0705,13.0,4722,123,feet,jsons/VE125_randls_43_rotated.json,776621,1446285,26,Man
63,399093,DepthScenes,duration_manipulation_targetAtFixation,jsons/VE125_randls_43_rotated.json,http://54.235.29.9/FacialAge/BNav_EC2/DepthDuration/v2_depth_duration_MTurk/v2_DepthDuration_HTML.html#365,365,1280,720,1280,720,9-18-2022,10-21-8,64,depth_duration_stimuli/000556_2014-06-09_22-42-56_260595134347_rgbf000214-resize_1/000556_2014-06-09_22-42-56_260595134347_rgbf000214-resize_1-target.png,125,4.8415,7.0,5363,124,feet,jsons/VE125_randls_43_rotated.json,776621,1446285,26,Man
64,399093,DepthScenes,duration_manipulation_targetAtFixation,jsons/VE125_randls_43_rotated.json,http://54.235.29.9/FacialAge/BNav_EC2/DepthDuration/v2_depth_duration_MTurk/v2_DepthDuration_HTML.html#365,365,1280,720,1280,720,9-18-2022,10-21-8,65,depth_duration_stimuli/001158_2014-06-17_15-32-16_260595134347_rgbf000138-resize_2/001158_2014-06-17_15-32-16_260595134347_rgbf000138-resize_2-target.png,125,4.5315,14.0,3792,124,feet,jsons/VE125_randls_43_rotated.json,776621,1446285,26,Man
65,399093,DepthScenes,duration_manipulation_targetAtFixation,jsons/VE125_randls_43_rotated.json,http://54.235.29.9/FacialAge/BNav_EC2/DepthDuration/v2_depth_duration_MTurk/v2_DepthDuration_HTML.html#365,365,1280,720,1280,720,9-18-2022,10-21-8,66,depth_duration_stimuli/001540_2014-06-20_17-01-05_260595134347_rgbf000086-resize_2/001540_2014-06-20_17-01-05_260595134347_rgbf000086-resize-original.jpg,125,1.459,0.0,2802,124,feet,jsons/VE125_randls_43_rotated.json,776621,1446285,26,Man
66,399093,DepthScenes,duration_manipulation_targetAtFixation,jsons/VE125_randls_43_rotated.json,http://54.235.29.9/FacialAge/BNav_EC2/DepthDuration/v2_depth_duration_MTurk/v2_DepthDuration_HTML.html#365,365,1280,720,1280,720,9-18-2022,10-21-8,67,depth_duration_stimuli/002323_2014-06-28_20-01-54_260595134347_rgbf000051-resize_4/002323_2014-06-28_20-01-54_260595134347_rgbf000051-resize_4-target.png,125,3.7310000000000003,7.0,5841,122,feet,jsons/VE125_randls_43_rotated.json,776621,1446285,26,Man
67,399093,DepthScenes,duration_manipulation_targetAtFixation,jsons/VE125_randls_43_rotated.json,http://54.235.29.9/FacialAge/BNav_EC2/DepthDuration/v2_depth_duration_MTurk/v2_DepthDuration_HTML.html#365,365,1280,720,1280,720,9-18-2022,10-21-8,68,depth_duration_stimuli/000917_2014-06-09_22-45-29_260595134347_rgbf000149-resize_3/000917_2014-06-09_22-45-29_260595134347_rgbf000149-resize_3-target.png,125,4.1865,12.0,4452,122,feet,jsons/VE125_randls_43_rotated.json,776621,1446285,26,Man
68,399093,DepthScenes,duration_manipulation_targetAtFixation,jsons/VE125_randls_43_rotated.json,http://54.235.29.9/FacialAge/BNav_EC2/DepthDuration/v2_depth_duration_MTurk/v2_DepthDuration_HTML.html#365,365,1280,720,1280,720,9-18-2022,10-21-8,69,depth_duration_stimuli/003228_2014-05-14_13-42-35_094959634447_rgbf000101-resize_1/003228_2014-05-14_13-42-35_094959634447_rgbf000101-resize_1-target.png,125,1.9680000000000002,3.5,4735,125,feet,jsons/VE125_randls_43_rotated.json,776621,1446285,26,Man
69,399093,DepthScenes,duration_manipulation_targetAtFixation,jsons/VE125_randls_43_rotated.json,http://54.235.29.9/FacialAge/BNav_EC2/DepthDuration/v2_depth_duration_MTurk/v2_DepthDuration_HTML.html#365,365,1280,720,1280,720,9-18-2022,10-21-8,70,depth_duration_stimuli/002600_2014-06-24_14-27-04_094959634447_rgbf000074-resize_2/002600_2014-06-24_14-27-04_094959634447_rgbf000074-resize_2-target.png,125,2.7575,5.0,3252,125,feet,jsons/VE125_randls_43_rotated.json,776621,1446285,26,Man
70,399093,DepthScenes,duration_manipulation_targetAtFixation,jsons/VE125_randls_43_rotated.json,http://54.235.29.9/FacialAge/BNav_EC2/DepthDuration/v2_depth_duration_MTurk/v2_DepthDuration_HTML.html#365,365,1280,720,1280,720,9-18-2022,10-21-8,71,depth_duration_stimuli/000927_2014-06-09_16-32-30_260595134347_rgbf000123-resize_3/000927_2014-06-09_16-32-30_260595134347_rgbf000123-resize_3-target.png,125,2.6785,10.0,3705,127,feet,jsons/VE125_randls_43_rotated.json,776621,1446285,26,Man
71,399093,DepthScenes,duration_manipulation_targetAtFixation,jsons/VE125_randls_43_rotated.json,http://54.235.29.9/FacialAge/BNav_EC2/DepthDuration/v2_depth_duration_MTurk/v2_DepthDuration_HTML.html#365,365,1280,720,1280,720,9-18-2022,10-21-8,72,depth_duration_stimuli/001110_2014-06-15_17-25-28_260595134347_rgbf000150-resize_1/001110_2014-06-15_17-25-28_260595134347_rgbf000150-resize_1-target.png,125,1.7115,3.0,3155,124,feet,jsons/VE125_randls_43_rotated.json,776621,1446285,26,Man
72,399093,DepthScenes,duration_manipulation_targetAtFixation,jsons/VE125_randls_43_rotated.json,http://54.235.29.9/FacialAge/BNav_EC2/DepthDuration/v2_depth_duration_MTurk/v2_DepthDuration_HTML.html#365,365,1280,720,1280,720,9-18-2022,10-21-8,73,depth_duration_stimuli/000635_2014-06-08_16-38-42_260595134347_rgbf000106-resize_1/000635_2014-06-08_16-38-42_260595134347_rgbf000106-resize_1-target.png,125,2.074,6.0,3442,122,feet,jsons/VE125_randls_43_rotated.json,776621,1446285,26,Man
73,399093,DepthScenes,duration_manipulation_targetAtFixation,jsons/VE125_randls_43_rotated.json,http://54.235.29.9/FacialAge/BNav_EC2/DepthDuration/v2_depth_duration_MTurk/v2_DepthDuration_HTML.html#365,365,1280,720,1280,720,9-18-2022,10-21-8,74,depth_duration_stimuli/002279_2014-06-28_18-55-32_260595134347_rgbf000040-resize_5/002279_2014-06-28_18-55-32_260595134347_rgbf000040-resize_5-target.png,125,1.5043333333333,4.0,2925,124,feet,jsons/VE125_randls_43_rotated.json,776621,1446285,26,Man
74,399093,DepthScenes,duration_manipulation_targetAtFixation,jsons/VE125_randls_43_rotated.json,http://54.235.29.9/FacialAge/BNav_EC2/DepthDuration/v2_depth_duration_MTurk/v2_DepthDuration_HTML.html#365,365,1280,720,1280,720,9-18-2022,10-21-8,75,depth_duration_stimuli/001214_2014-06-17_16-13-55_260595134347_rgbf000111-resize_0/001214_2014-06-17_16-13-55_260595134347_rgbf000111-resize_0-target.png,125,2.6505,3.5,7563,122,feet,jsons/VE125_randls_43_rotated.json,776621,1446285,26,Man
75,399093,DepthScenes,duration_manipulation_targetAtFixation,jsons/VE125_randls_43_rotated.json,http://54.235.29.9/FacialAge/BNav_EC2/DepthDuration/v2_depth_duration_MTurk/v2_DepthDuration_HTML.html#365,365,1280,720,1280,720,9-18-2022,10-21-8,76,depth_duration_stimuli/000810_2014-06-08_17-20-01_260595134347_rgbf000105-resize_0/000810_2014-06-08_17-20-01_260595134347_rgbf000105-resize_0-target.png,125,1.4865,4.5,5208,123,feet,jsons/VE125_randls_43_rotated.json,776621,1446285,26,Man
76,399093,DepthScenes,duration_manipulation_targetAtFixation,jsons/VE125_randls_43_rotated.json,http://54.235.29.9/FacialAge/BNav_EC2/DepthDuration/v2_depth_duration_MTurk/v2_DepthDuration_HTML.html#365,365,1280,720,1280,720,9-18-2022,10-21-8,77,depth_duration_stimuli/001235_2014-06-17_16-37-36_260595134347_rgbf000084-resize_4/001235_2014-06-17_16-37-36_260595134347_rgbf000084-resize_4-target.png,125,3.6605,6.0,4343,126,feet,jsons/VE125_randls_43_rotated.json,776621,1446285,26,Man
77,399093,DepthScenes,duration_manipulation_targetAtFixation,jsons/VE125_randls_43_rotated.json,http://54.235.29.9/FacialAge/BNav_EC2/DepthDuration/v2_depth_duration_MTurk/v2_DepthDuration_HTML.html#365,365,1280,720,1280,720,9-18-2022,10-21-8,78,depth_duration_stimuli/000788_2014-06-08_22-34-36_260595134347_rgbf000131-resize_1/000788_2014-06-08_22-34-36_260595134347_rgbf000131-resize_1-target.png,125,3.359,7.0,5461,122,feet,jsons/VE125_randls_43_rotated.json,776621,1446285,26,Man
78,399093,DepthScenes,duration_manipulation_targetAtFixation,jsons/VE125_randls_43_rotated.json,http://54.235.29.9/FacialAge/BNav_EC2/DepthDuration/v2_depth_duration_MTurk/v2_DepthDuration_HTML.html#365,365,1280,720,1280,720,9-18-2022,10-21-8,79,depth_duration_stimuli/003490_2014-05-21_15-50-11_094959634447_rgbf000101-resize_3/003490_2014-05-21_15-50-11_094959634447_rgbf000101-resize_3-target.png,125,3.6445,8.0,4852,124,feet,jsons/VE125_randls_43_rotated.json,776621,1446285,26,Man
79,399093,DepthScenes,duration_manipulation_targetAtFixation,jsons/VE125_randls_43_rotated.json,http://54.235.29.9/FacialAge/BNav_EC2/DepthDuration/v2_depth_duration_MTurk/v2_DepthDuration_HTML.html#365,365,1280,720,1280,720,9-18-2022,10-21-8,80,depth_duration_stimuli/001175_2014-06-17_15-45-55_260595134347_rgbf000129-resize_4/001175_2014-06-17_15-45-55_260595134347_rgbf000129-resize_4-target.png,125,4.255,10.0,3217,122,feet,jsons/VE125_randls_43_rotated.json,776621,1446285,26,Man
80,399093,DepthScenes,duration_manipulation_targetAtFixation,jsons/VE125_randls_43_rotated.json,http://54.235.29.9/FacialAge/BNav_EC2/DepthDuration/v2_depth_duration_MTurk/v2_DepthDuration_HTML.html#365,365,1280,720,1280,720,9-18-2022,10-21-8,81,depth_duration_stimuli/003081_2014-06-15_15-19-16_094959634447_rgbf000150-resize_1/003081_2014-06-15_15-19-16_094959634447_rgbf000150-resize_1-target.png,125,3.9125,8.0,4358,122,feet,jsons/VE125_randls_43_rotated.json,776621,1446285,26,Man
81,399093,DepthScenes,duration_manipulation_targetAtFixation,jsons/VE125_randls_43_rotated.json,http://54.235.29.9/FacialAge/BNav_EC2/DepthDuration/v2_depth_duration_MTurk/v2_DepthDuration_HTML.html#365,365,1280,720,1280,720,9-18-2022,10-21-8,82,depth_duration_stimuli/001417_2014-06-19_16-25-36_260595134347_rgbf000115-resize_5/001417_2014-06-19_16-25-36_260595134347_rgbf000115-resize_5-target.png,125,4.6255,7.0,3545,125,feet,jsons/VE125_randls_43_rotated.json,776621,1446285,26,Man
82,399093,DepthScenes,duration_manipulation_targetAtFixation,jsons/VE125_randls_43_rotated.json,http://54.235.29.9/FacialAge/BNav_EC2/DepthDuration/v2_depth_duration_MTurk/v2_DepthDuration_HTML.html#365,365,1280,720,1280,720,9-18-2022,10-21-8,83,depth_duration_stimuli/000866_2014-06-09_20-45-42_260595134347_rgbf000139-resize_1/000866_2014-06-09_20-45-42_260595134347_rgbf000139-resize_1-target.png,125,3.2155,6.5,4688,122,feet,jsons/VE125_randls_43_rotated.json,776621,1446285,26,Man
83,399093,DepthScenes,duration_manipulation_targetAtFixation,jsons/VE125_randls_43_rotated.json,http://54.235.29.9/FacialAge/BNav_EC2/DepthDuration/v2_depth_duration_MTurk/v2_DepthDuration_HTML.html#365,365,1280,720,1280,720,9-18-2022,10-21-8,84,depth_duration_stimuli/002989_2014-06-15_12-25-03_094959634447_rgbf000150-resize_3/002989_2014-06-15_12-25-03_094959634447_rgbf000150-resize_3-target.png,125,4.1975,0.0,2563,123,feet,jsons/VE125_randls_43_rotated.json,776621,1446285,26,Man
84,399093,DepthScenes,duration_manipulation_targetAtFixation,jsons/VE125_randls_43_rotated.json,http://54.235.29.9/FacialAge/BNav_EC2/DepthDuration/v2_depth_duration_MTurk/v2_DepthDuration_HTML.html#365,365,1280,720,1280,720,9-18-2022,10-21-8,85,depth_duration_stimuli/000742_2014-06-08_18-48-09_260595134347_rgbf000164-resize_4/000742_2014-06-08_18-48-09_260595134347_rgbf000164-resize_4-target.png,125,4.632,10.0,4173,138,feet,jsons/VE125_randls_43_rotated.json,776621,1446285,26,Man
85,399093,DepthScenes,duration_manipulation_targetAtFixation,jsons/VE125_randls_43_rotated.json,http://54.235.29.9/FacialAge/BNav_EC2/DepthDuration/v2_depth_duration_MTurk/v2_DepthDuration_HTML.html#365,365,1280,720,1280,720,9-18-2022,10-21-8,86,depth_duration_stimuli/001066_2014-06-08_22-03-20_260595134347_rgbf000066-resize_4/001066_2014-06-08_22-03-20_260595134347_rgbf000066-resize_4-target.png,125,4.2330000000000005,16.0,4598,121,feet,jsons/VE125_randls_43_rotated.json,776621,1446285,26,Man
86,399093,DepthScenes,duration_manipulation_targetAtFixation,jsons/VE125_randls_43_rotated.json,http://54.235.29.9/FacialAge/BNav_EC2/DepthDuration/v2_depth_duration_MTurk/v2_DepthDuration_HTML.html#365,365,1280,720,1280,720,9-18-2022,10-21-8,87,depth_duration_stimuli/001650_2014-06-20_12-09-00_260595134347_rgbf000087-resize_3/001650_2014-06-20_12-09-00_260595134347_rgbf000087-resize_3-target.png,125,1.9505,4.0,3463,124,feet,jsons/VE125_randls_43_rotated.json,776621,1446285,26,Man
87,399093,DepthScenes,duration_manipulation_targetAtFixation,jsons/VE125_randls_43_rotated.json,http://54.235.29.9/FacialAge/BNav_EC2/DepthDuration/v2_depth_duration_MTurk/v2_DepthDuration_HTML.html#365,365,1280,720,1280,720,9-18-2022,10-21-8,88,depth_duration_stimuli/000682_2014-06-08_23-14-58_260595134347_rgbf000041-resize_5/000682_2014-06-08_23-14-58_260595134347_rgbf000041-resize_5-target.png,125,2.7239999999999998,6.0,3506,139,feet,jsons/VE125_randls_43_rotated.json,776621,1446285,26,Man
88,399093,DepthScenes,duration_manipulation_targetAtFixation,jsons/VE125_randls_43_rotated.json,http://54.235.29.9/FacialAge/BNav_EC2/DepthDuration/v2_depth_duration_MTurk/v2_DepthDuration_HTML.html#365,365,1280,720,1280,720,9-18-2022,10-21-8,89,depth_duration_stimuli/003338_2014-05-20_11-01-23_094959634447_rgbf000051-resize_6/003338_2014-05-20_11-01-23_094959634447_rgbf000051-resize_6-target.png,125,1.693,3.5,6127,123,feet,jsons/VE125_randls_43_rotated.json,776621,1446285,26,Man
89,399093,DepthScenes,duration_manipulation_targetAtFixation,jsons/VE125_randls_43_rotated.json,http://54.235.29.9/FacialAge/BNav_EC2/DepthDuration/v2_depth_duration_MTurk/v2_DepthDuration_HTML.html#365,365,1280,720,1280,720,9-18-2022,10-21-8,90,depth_duration_stimuli/002509_2014-06-24_13-19-22_094959634447_rgbf000077-resize_0/002509_2014-06-24_13-19-22_094959634447_rgbf000077-resize_0-target.png,125,1.3065,4.0,3242,123,feet,jsons/VE125_randls_43_rotated.json,776621,1446285,26,Man
90,399093,DepthScenes,duration_manipulation_targetAtFixation,jsons/VE125_randls_43_rotated.json,http://54.235.29.9/FacialAge/BNav_EC2/DepthDuration/v2_depth_duration_MTurk/v2_DepthDuration_HTML.html#365,365,1280,720,1280,720,9-18-2022,10-21-8,91,depth_duration_stimuli/001392_2014-06-19_16-07-59_260595134347_rgbf000046-resize_1/001392_2014-06-19_16-07-59_260595134347_rgbf000046-resize_1-target.png,125,4.135,8.0,6259,124,feet,jsons/VE125_randls_43_rotated.json,776621,1446285,26,Man
91,399093,DepthScenes,duration_manipulation_targetAtFixation,jsons/VE125_randls_43_rotated.json,http://54.235.29.9/FacialAge/BNav_EC2/DepthDuration/v2_depth_duration_MTurk/v2_DepthDuration_HTML.html#365,365,1280,720,1280,720,9-18-2022,10-21-8,92,depth_duration_stimuli/001570_2014-06-20_17-21-09_260595134347_rgbf000135-resize_4/001570_2014-06-20_17-21-09_260595134347_rgbf000135-resize_4-target.png,125,4.467,0.0,2794,124,feet,jsons/VE125_randls_43_rotated.json,776621,1446285,26,Man
92,399093,DepthScenes,duration_manipulation_targetAtFixation,jsons/VE125_randls_43_rotated.json,http://54.235.29.9/FacialAge/BNav_EC2/DepthDuration/v2_depth_duration_MTurk/v2_DepthDuration_HTML.html#365,365,1280,720,1280,720,9-18-2022,10-21-8,93,depth_duration_stimuli/002209_2014-06-28_18-36-10_260595134347_rgbf000051-resize_1/002209_2014-06-28_18-36-10_260595134347_rgbf000051-resize_1-target.png,125,2.057,5.0,4307,137,feet,jsons/VE125_randls_43_rotated.json,776621,1446285,26,Man
93,399093,DepthScenes,duration_manipulation_targetAtFixation,jsons/VE125_randls_43_rotated.json,http://54.235.29.9/FacialAge/BNav_EC2/DepthDuration/v2_depth_duration_MTurk/v2_DepthDuration_HTML.html#365,365,1280,720,1280,720,9-18-2022,10-21-8,94,depth_duration_stimuli/002763_2014-06-22_19-13-10_094959634447_rgbf000075-resize_4/002763_2014-06-22_19-13-10_094959634447_rgbf000075-resize_4-target.png,125,1.68375,5.0,3879,107,feet,jsons/VE125_randls_43_rotated.json,776621,1446285,26,Man
94,399093,DepthScenes,duration_manipulation_targetAtFixation,jsons/VE125_randls_43_rotated.json,http://54.235.29.9/FacialAge/BNav_EC2/DepthDuration/v2_depth_duration_MTurk/v2_DepthDuration_HTML.html#365,365,1280,720,1280,720,9-18-2022,10-21-8,95,depth_duration_stimuli/001516_2014-06-20_16-25-09_260595134347_rgbf000076-resize_2/001516_2014-06-20_16-25-09_260595134347_rgbf000076-resize_2-target.png,125,1.7445,7.0,4548,123,feet,jsons/VE125_randls_43_rotated.json,776621,1446285,26,Man
95,399093,DepthScenes,duration_manipulation_targetAtFixation,jsons/VE125_randls_43_rotated.json,http://54.235.29.9/FacialAge/BNav_EC2/DepthDuration/v2_depth_duration_MTurk/v2_DepthDuration_HTML.html#365,365,1280,720,1280,720,9-18-2022,10-21-8,96,depth_duration_stimuli/002118_2014-06-25_20-32-08_260595134347_rgbf000078-resize_1/002118_2014-06-25_20-32-08_260595134347_rgbf000078-resize_1-target.png,125,2.6460000000000004,5.0,4656,124,feet,jsons/VE125_randls_43_rotated.json,776621,1446285,26,Man
96,399093,DepthScenes,duration_manipulation_targetAtFixation,jsons/VE125_randls_43_rotated.json,http://54.235.29.9/FacialAge/BNav_EC2/DepthDuration/v2_depth_duration_MTurk/v2_DepthDuration_HTML.html#365,365,1280,720,1280,720,9-18-2022,10-21-8,97,depth_duration_stimuli/001571_2014-06-20_17-21-32_260595134347_rgbf000089-resize_1/001571_2014-06-20_17-21-32_260595134347_rgbf000089-resize_1-target.png,125,1.86,4.0,3314,124,feet,jsons/VE125_randls_43_rotated.json,776621,1446285,26,Man
97,399093,DepthScenes,duration_manipulation_targetAtFixation,jsons/VE125_randls_43_rotated.json,http://54.235.29.9/FacialAge/BNav_EC2/DepthDuration/v2_depth_duration_MTurk/v2_DepthDuration_HTML.html#365,365,1280,720,1280,720,9-18-2022,10-21-8,98,depth_duration_stimuli/002272_2014-06-28_18-53-56_260595134347_rgbf000067-resize_2/002272_2014-06-28_18-53-56_260595134347_rgbf000067-resize_2-target.png,125,1.138,3.0,2837,121,feet,jsons/VE125_randls_43_rotated.json,776621,1446285,26,Man
98,399093,DepthScenes,duration_manipulation_targetAtFixation,jsons/VE125_randls_43_rotated.json,http://54.235.29.9/FacialAge/BNav_EC2/DepthDuration/v2_depth_duration_MTurk/v2_DepthDuration_HTML.html#365,365,1280,720,1280,720,9-18-2022,10-21-8,99,depth_duration_stimuli/001222_2014-06-17_16-24-06_260595134347_rgbf000073-resize_0/001222_2014-06-17_16-24-06_260595134347_rgbf000073-resize-original.jpg,125,1.4385,0.0,2844,123,feet,jsons/VE125_randls_43_rotated.json,776621,1446285,26,Man
99,399093,DepthScenes,duration_manipulation_targetAtFixation,jsons/VE125_randls_43_rotated.json,http://54.235.29.9/FacialAge/BNav_EC2/DepthDuration/v2_depth_duration_MTurk/v2_DepthDuration_HTML.html#365,365,1280,720,1280,720,9-18-2022,10-21-8,100,depth_duration_stimuli/003423_2014-05-21_10-23-26_094959634447_rgbf002665-resize_2/003423_2014-05-21_10-23-26_094959634447_rgbf002665-resize_2-target.png,125,3.2575,7.5,5088,122,feet,jsons/VE125_randls_43_rotated.json,776621,1446285,26,Man
100,399093,DepthScenes,duration_manipulation_targetAtFixation,jsons/VE125_randls_43_rotated.json,http://54.235.29.9/FacialAge/BNav_EC2/DepthDuration/v2_depth_duration_MTurk/v2_DepthDuration_HTML.html#365,365,1280,720,1280,720,9-18-2022,10-21-8,101,depth_duration_stimuli/002905_2014-06-03_18-04-43_094959634447_rgbf000151-resize_2/002905_2014-06-03_18-04-43_094959634447_rgbf000151-resize_2-target.png,125,2.0295,5.0,6074,124,feet,jsons/VE125_randls_43_rotated.json,776621,1446285,26,Man
101,399093,DepthScenes,duration_manipulation_targetAtFixation,jsons/VE125_randls_43_rotated.json,http://54.235.29.9/FacialAge/BNav_EC2/DepthDuration/v2_depth_duration_MTurk/v2_DepthDuration_HTML.html#365,365,1280,720,1280,720,9-18-2022,10-21-8,102,depth_duration_stimuli/003129_2014-05-12_10-48-10_094959634447_rgbf000100-resize_0/003129_2014-05-12_10-48-10_094959634447_rgbf000100-resize_0-target.png,125,4.9305,8.0,3181,122,feet,jsons/VE125_randls_43_rotated.json,776621,1446285,26,Man
102,399093,DepthScenes,duration_manipulation_targetAtFixation,jsons/VE125_randls_43_rotated.json,http://54.235.29.9/FacialAge/BNav_EC2/DepthDuration/v2_depth_duration_MTurk/v2_DepthDuration_HTML.html#365,365,1280,720,1280,720,9-18-2022,10-21-8,103,depth_duration_stimuli/000414_2014-06-04_19-49-13_260595134347_rgbf000044-resize_0/000414_2014-06-04_19-49-13_260595134347_rgbf000044-resize_0-target.png,125,4.329,12.0,4035,123,feet,jsons/VE125_randls_43_rotated.json,776621,1446285,26,Man
103,399093,DepthScenes,duration_manipulation_targetAtFixation,jsons/VE125_randls_43_rotated.json,http://54.235.29.9/FacialAge/BNav_EC2/DepthDuration/v2_depth_duration_MTurk/v2_DepthDuration_HTML.html#365,365,1280,720,1280,720,9-18-2022,10-21-8,104,depth_duration_stimuli/000691_2014-06-08_13-08-50_260595134347_rgbf000132-resize_3/000691_2014-06-08_13-08-50_260595134347_rgbf000132-resize_3-target.png,125,4.1530000000000005,8.0,3328,124,feet,jsons/VE125_randls_43_rotated.json,776621,1446285,26,Man
104,399093,DepthScenes,duration_manipulation_targetAtFixation,jsons/VE125_randls_43_rotated.json,http://54.235.29.9/FacialAge/BNav_EC2/DepthDuration/v2_depth_duration_MTurk/v2_DepthDuration_HTML.html#365,365,1280,720,1280,720,9-18-2022,10-21-8,105,depth_duration_stimuli/002213_2014-06-28_18-37-58_260595134347_rgbf000055-resize_1/002213_2014-06-28_18-37-58_260595134347_rgbf000055-resize_1-target.png,125,3.62,15.0,5993,123,feet,jsons/VE125_randls_43_rotated.json,776621,1446285,26,Man
105,399093,DepthScenes,duration_manipulation_targetAtFixation,jsons/VE125_randls_43_rotated.json,http://54.235.29.9/FacialAge/BNav_EC2/DepthDuration/v2_depth_duration_MTurk/v2_DepthDuration_HTML.html#365,365,1280,720,1280,720,9-18-2022,10-21-8,106,depth_duration_stimuli/001100_2014-06-15_17-46-26_260595134347_rgbf000225-resize_2/001100_2014-06-15_17-46-26_260595134347_rgbf000225-resize_2-target.png,125,2.24,3.0,3462,122,feet,jsons/VE125_randls_43_rotated.json,776621,1446285,26,Man
106,399093,DepthScenes,duration_manipulation_targetAtFixation,jsons/VE125_randls_43_rotated.json,http://54.235.29.9/FacialAge/BNav_EC2/DepthDuration/v2_depth_duration_MTurk/v2_DepthDuration_HTML.html#365,365,1280,720,1280,720,9-18-2022,10-21-8,107,depth_duration_stimuli/002784_2014-06-22_19-26-30_094959634447_rgbf000083-resize_3/002784_2014-06-22_19-26-30_094959634447_rgbf000083-resize_3-target.png,125,1.8046666666667,4.0,2820,124,feet,jsons/VE125_randls_43_rotated.json,776621,1446285,26,Man
107,399093,DepthScenes,duration_manipulation_targetAtFixation,jsons/VE125_randls_43_rotated.json,http://54.235.29.9/FacialAge/BNav_EC2/DepthDuration/v2_depth_duration_MTurk/v2_DepthDuration_HTML.html#365,365,1280,720,1280,720,9-18-2022,10-21-8,108,depth_duration_stimuli/002199_2014-06-28_18-33-56_260595134347_rgbf000074-resize_0/002199_2014-06-28_18-33-56_260595134347_rgbf000074-resize_0-target.png,125,1.996,3.5,4560,124,feet,jsons/VE125_randls_43_rotated.json,776621,1446285,26,Man
108,399093,DepthScenes,duration_manipulation_targetAtFixation,jsons/VE125_randls_43_rotated.json,http://54.235.29.9/FacialAge/BNav_EC2/DepthDuration/v2_depth_duration_MTurk/v2_DepthDuration_HTML.html#365,365,1280,720,1280,720,9-18-2022,10-21-8,109,depth_duration_stimuli/001056_2014-06-08_18-46-44_260595134347_rgbf000068-resize_0/001056_2014-06-08_18-46-44_260595134347_rgbf000068-resize_0-target.png,125,2.6625,7.5,3973,125,feet,jsons/VE125_randls_43_rotated.json,776621,1446285,26,Man
109,399093,DepthScenes,duration_manipulation_targetAtFixation,jsons/VE125_randls_43_rotated.json,http://54.235.29.9/FacialAge/BNav_EC2/DepthDuration/v2_depth_duration_MTurk/v2_DepthDuration_HTML.html#365,365,1280,720,1280,720,9-18-2022,10-21-8,110,depth_duration_stimuli/000665_2014-06-09_20-42-35_260595134347_rgbf000110-resize_1/000665_2014-06-09_20-42-35_260595134347_rgbf000110-resize_1-target.png,125,3.057,7.0,4196,122,feet,jsons/VE125_randls_43_rotated.json,776621,1446285,26,Man
110,399093,DepthScenes,duration_manipulation_targetAtFixation,jsons/VE125_randls_43_rotated.json,http://54.235.29.9/FacialAge/BNav_EC2/DepthDuration/v2_depth_duration_MTurk/v2_DepthDuration_HTML.html#365,365,1280,720,1280,720,9-18-2022,10-21-8,111,depth_duration_stimuli/001150_2014-06-17_15-27-34_260595134347_rgbf000108-resize_2/001150_2014-06-17_15-27-34_260595134347_rgbf000108-resize_2-target.png,125,4.0325,8.0,3004,134,feet,jsons/VE125_randls_43_rotated.json,776621,1446285,26,Man
111,399093,DepthScenes,duration_manipulation_targetAtFixation,jsons/VE125_randls_43_rotated.json,http://54.235.29.9/FacialAge/BNav_EC2/DepthDuration/v2_depth_duration_MTurk/v2_DepthDuration_HTML.html#365,365,1280,720,1280,720,9-18-2022,10-21-8,112,depth_duration_stimuli/002660_2014-06-13_15-44-18_094959634447_rgbf001878-resize_2/002660_2014-06-13_15-44-18_094959634447_rgbf001878-resize_2-target.png,125,3.576,9.0,3844,124,feet,jsons/VE125_randls_43_rotated.json,776621,1446285,26,Man
112,399093,DepthScenes,duration_manipulation_targetAtFixation,jsons/VE125_randls_43_rotated.json,http://54.235.29.9/FacialAge/BNav_EC2/DepthDuration/v2_depth_duration_MTurk/v2_DepthDuration_HTML.html#365,365,1280,720,1280,720,9-18-2022,10-21-8,113,depth_duration_stimuli/002153_2014-06-25_21-27-18_260595134347_rgbf000038-resize_5/002153_2014-06-25_21-27-18_260595134347_rgbf000038-resize_5-target.png,125,2.505,6.5,5243,123,feet,jsons/VE125_randls_43_rotated.json,776621,1446285,26,Man
113,399093,DepthScenes,duration_manipulation_targetAtFixation,jsons/VE125_randls_43_rotated.json,http://54.235.29.9/FacialAge/BNav_EC2/DepthDuration/v2_depth_duration_MTurk/v2_DepthDuration_HTML.html#365,365,1280,720,1280,720,9-18-2022,10-21-8,114,depth_duration_stimuli/001052_2014-06-08_18-24-54_260595134347_rgbf000130-resize_1/001052_2014-06-08_18-24-54_260595134347_rgbf000130-resize_1-target.png,125,4.1045,11.0,4460,123,feet,jsons/VE125_randls_43_rotated.json,776621,1446285,26,Man
114,399093,DepthScenes,duration_manipulation_targetAtFixation,jsons/VE125_randls_43_rotated.json,http://54.235.29.9/FacialAge/BNav_EC2/DepthDuration/v2_depth_duration_MTurk/v2_DepthDuration_HTML.html#365,365,1280,720,1280,720,9-18-2022,10-21-8,115,depth_duration_stimuli/002988_2014-06-15_12-24-20_094959634447_rgbf000150-resize_1/002988_2014-06-15_12-24-20_094959634447_rgbf000150-resize_1-target.png,125,4.7669999999999995,14.0,4669,123,feet,jsons/VE125_randls_43_rotated.json,776621,1446285,26,Man
115,399093,DepthScenes,duration_manipulation_targetAtFixation,jsons/VE125_randls_43_rotated.json,http://54.235.29.9/FacialAge/BNav_EC2/DepthDuration/v2_depth_duration_MTurk/v2_DepthDuration_HTML.html#365,365,1280,720,1280,720,9-18-2022,10-21-8,116,depth_duration_stimuli/001447_2014-06-19_17-00-32_260595134347_rgbf000082-resize_5/001447_2014-06-19_17-00-32_260595134347_rgbf000082-resize_5-target.png,125,4.13775,6.0,4593,138,feet,jsons/VE125_randls_43_rotated.json,776621,1446285,26,Man
116,399093,DepthScenes,duration_manipulation_targetAtFixation,jsons/VE125_randls_43_rotated.json,http://54.235.29.9/FacialAge/BNav_EC2/DepthDuration/v2_depth_duration_MTurk/v2_DepthDuration_HTML.html#365,365,1280,720,1280,720,9-18-2022,10-21-8,117,depth_duration_stimuli/000447_2014-06-08_16-15-46_260595134347_rgbf000130-resize_1/000447_2014-06-08_16-15-46_260595134347_rgbf000130-resize_1-target.png,125,4.479,14.0,3280,125,feet,jsons/VE125_randls_43_rotated.json,776621,1446285,26,Man
117,399093,DepthScenes,duration_manipulation_targetAtFixation,jsons/VE125_randls_43_rotated.json,http://54.235.29.9/FacialAge/BNav_EC2/DepthDuration/v2_depth_duration_MTurk/v2_DepthDuration_HTML.html#365,365,1280,720,1280,720,9-18-2022,10-21-8,118,depth_duration_stimuli/000709_2014-06-08_13-51-55_260595134347_rgbf000068-resize_3/000709_2014-06-08_13-51-55_260595134347_rgbf000068-resize_3-target.png,125,1.8030000000000002,8.0,3878,125,feet,jsons/VE125_randls_43_rotated.json,776621,1446285,26,Man
118,399093,DepthScenes,duration_manipulation_targetAtFixation,jsons/VE125_randls_43_rotated.json,http://54.235.29.9/FacialAge/BNav_EC2/DepthDuration/v2_depth_duration_MTurk/v2_DepthDuration_HTML.html#365,365,1280,720,1280,720,9-18-2022,10-21-8,119,depth_duration_stimuli/002057_2014-06-24_21-00-13_260595134347_rgbf000120-resize_1/002057_2014-06-24_21-00-13_260595134347_rgbf000120-resize_1-target.png,125,2.967,12.0,3948,123,feet,jsons/VE125_randls_43_rotated.json,776621,1446285,26,Man
119,399093,DepthScenes,duration_manipulation_targetAtFixation,jsons/VE125_randls_43_rotated.json,http://54.235.29.9/FacialAge/BNav_EC2/DepthDuration/v2_depth_duration_MTurk/v2_DepthDuration_HTML.html#365,365,1280,720,1280,720,9-18-2022,10-21-8,120,depth_duration_stimuli/000787_2014-06-08_22-33-53_260595134347_rgbf000175-resize_1/000787_2014-06-08_22-33-53_260595134347_rgbf000175-resize-original.jpg,125,4.784,0.0,2427,123,feet,jsons/VE125_randls_43_rotated.json,776621,1446285,26,Man
120,399093,DepthScenes,duration_manipulation_targetAtFixation,jsons/VE125_randls_43_rotated.json,http://54.235.29.9/FacialAge/BNav_EC2/DepthDuration/v2_depth_duration_MTurk/v2_DepthDuration_HTML.html#365,365,1280,720,1280,720,9-18-2022,10-21-8,121,depth_duration_stimuli/000780_2014-06-08_22-28-29_260595134347_rgbf000126-resize_1/000780_2014-06-08_22-28-29_260595134347_rgbf000126-resize_1-target.png,125,3.3825,16.0,3783,124,feet,jsons/VE125_randls_43_rotated.json,776621,1446285,26,Man
121,399093,DepthScenes,duration_manipulation_targetAtFixation,jsons/VE125_randls_43_rotated.json,http://54.235.29.9/FacialAge/BNav_EC2/DepthDuration/v2_depth_duration_MTurk/v2_DepthDuration_HTML.html#365,365,1280,720,1280,720,9-18-2022,10-21-8,122,depth_duration_stimuli/002445_2014-06-28_20-32-16_260595134347_rgbf000029-resize_4/002445_2014-06-28_20-32-16_260595134347_rgbf000029-resize_4-target.png,125,2.5315,6.0,2814,123,feet,jsons/VE125_randls_43_rotated.json,776621,1446285,26,Man
122,399093,DepthScenes,duration_manipulation_targetAtFixation,jsons/VE125_randls_43_rotated.json,http://54.235.29.9/FacialAge/BNav_EC2/DepthDuration/v2_depth_duration_MTurk/v2_DepthDuration_HTML.html#365,365,1280,720,1280,720,9-18-2022,10-21-8,123,depth_duration_stimuli/002425_2014-06-28_20-27-29_260595134347_rgbf000031-resize_8/002425_2014-06-28_20-27-29_260595134347_rgbf000031-resize_8-target.png,125,3.8960000000000004,16.0,4241,139,feet,jsons/VE125_randls_43_rotated.json,776621,1446285,26,Man
123,399093,DepthScenes,duration_manipulation_targetAtFixation,jsons/VE125_randls_43_rotated.json,http://54.235.29.9/FacialAge/BNav_EC2/DepthDuration/v2_depth_duration_MTurk/v2_DepthDuration_HTML.html#365,365,1280,720,1280,720,9-18-2022,10-21-8,124,depth_duration_stimuli/000642_2014-06-08_16-59-25_260595134347_rgbf000098-resize_2/000642_2014-06-08_16-59-25_260595134347_rgbf000098-resize_2-target.png,125,2.8815,9.0,3469,123,feet,jsons/VE125_randls_43_rotated.json,776621,1446285,26,Man
124,399093,DepthScenes,duration_manipulation_targetAtFixation,jsons/VE125_randls_43_rotated.json,http://54.235.29.9/FacialAge/BNav_EC2/DepthDuration/v2_depth_duration_MTurk/v2_DepthDuration_HTML.html#365,365,1280,720,1280,720,9-18-2022,10-21-8,125,depth_duration_stimuli/002805_2014-06-22_19-54-03_094959634447_rgbf000079-resize_1/002805_2014-06-22_19-54-03_094959634447_rgbf000079-resize_1-target.png,125,3.1439999999999997,8.5,6108,123,feet,jsons/VE125_randls_43_rotated.json,776621,1446285,26,Man
125,399093,DepthScenes,duration_manipulation_targetAtFixation,jsons/VE125_randls_43_rotated.json,http://54.235.29.9/FacialAge/BNav_EC2/DepthDuration/v2_depth_duration_MTurk/v2_DepthDuration_HTML.html#365,365,1280,720,1280,720,9-18-2022,10-21-8,126,depth_duration_stimuli/000906_2014-06-08_13-35-43_260595134347_rgbf000155-resize_1/000906_2014-06-08_13-35-43_260595134347_rgbf000155-resize_1-target.png,125,2.8489999999999998,12.0,3293,122,feet,jsons/VE125_randls_43_rotated.json,776621,1446285,26,Man
126,399093,DepthScenes,duration_manipulation_targetAtFixation,jsons/VE125_randls_43_rotated.json,http://54.235.29.9/FacialAge/BNav_EC2/DepthDuration/v2_depth_duration_MTurk/v2_DepthDuration_HTML.html#365,365,1280,720,1280,720,9-18-2022,10-21-8,127,depth_duration_stimuli/002750_2014-06-22_19-08-03_094959634447_rgbf000094-resize_4/002750_2014-06-22_19-08-03_094959634447_rgbf000094-resize_4-target.png,125,2.354,7.0,3075,125,feet,jsons/VE125_randls_43_rotated.json,776621,1446285,26,Man
127,399093,DepthScenes,duration_manipulation_targetAtFixation,jsons/VE125_randls_43_rotated.json,http://54.235.29.9/FacialAge/BNav_EC2/DepthDuration/v2_depth_duration_MTurk/v2_DepthDuration_HTML.html#365,365,1280,720,1280,720,9-18-2022,10-21-8,128,depth_duration_stimuli/002549_2014-06-24_13-41-39_094959634447_rgbf000022-resize_3/002549_2014-06-24_13-41-39_094959634447_rgbf000022-resize_3-target.png,125,1.476,4.0,2607,125,feet,jsons/VE125_randls_43_rotated.json,776621,1446285,26,Man
128,399093,DepthScenes,duration_manipulation_targetAtFixation,jsons/VE125_randls_43_rotated.json,http://54.235.29.9/FacialAge/BNav_EC2/DepthDuration/v2_depth_duration_MTurk/v2_DepthDuration_HTML.html#365,365,1280,720,1280,720,9-18-2022,10-21-8,129,depth_duration_stimuli/000457_2014-06-08_16-52-43_260595134347_rgbf000199-resize_1/000457_2014-06-08_16-52-43_260595134347_rgbf000199-resize_1-target.png,125,3.6489999999999996,8.0,3519,121,feet,jsons/VE125_randls_43_rotated.json,776621,1446285,26,Man
129,399093,DepthScenes,duration_manipulation_targetAtFixation,jsons/VE125_randls_43_rotated.json,http://54.235.29.9/FacialAge/BNav_EC2/DepthDuration/v2_depth_duration_MTurk/v2_DepthDuration_HTML.html#365,365,1280,720,1280,720,9-18-2022,10-21-8,130,depth_duration_stimuli/000929_2014-06-09_16-33-19_260595134347_rgbf000139-resize_0/000929_2014-06-09_16-33-19_260595134347_rgbf000139-resize_0-target.png,125,2.8680000000000003,5.0,4230,125,feet,jsons/VE125_randls_43_rotated.json,776621,1446285,26,Man
130,399093,DepthScenes,duration_manipulation_targetAtFixation,jsons/VE125_randls_43_rotated.json,http://54.235.29.9/FacialAge/BNav_EC2/DepthDuration/v2_depth_duration_MTurk/v2_DepthDuration_HTML.html#365,365,1280,720,1280,720,9-18-2022,10-21-8,131,depth_duration_stimuli/000409_2014-06-04_19-23-33_260595134347_rgbf000067-resize_0/000409_2014-06-04_19-23-33_260595134347_rgbf000067-resize_0-target.png,125,3.7335,6.0,3352,138,feet,jsons/VE125_randls_43_rotated.json,776621,1446285,26,Man
131,399093,DepthScenes,duration_manipulation_targetAtFixation,jsons/VE125_randls_43_rotated.json,http://54.235.29.9/FacialAge/BNav_EC2/DepthDuration/v2_depth_duration_MTurk/v2_DepthDuration_HTML.html#365,365,1280,720,1280,720,9-18-2022,10-21-8,132,depth_duration_stimuli/002663_2014-06-13_15-50-26_094959634447_rgbf000075-resize_1/002663_2014-06-13_15-50-26_094959634447_rgbf000075-resize_1-target.png,125,4.7495,10.0,5837,123,feet,jsons/VE125_randls_43_rotated.json,776621,1446285,26,Man
132,399093,DepthScenes,duration_manipulation_targetAtFixation,jsons/VE125_randls_43_rotated.json,http://54.235.29.9/FacialAge/BNav_EC2/DepthDuration/v2_depth_duration_MTurk/v2_DepthDuration_HTML.html#365,365,1280,720,1280,720,9-18-2022,10-21-8,133,depth_duration_stimuli/002953_2014-06-08_17-32-18_094959634447_rgbf000059-resize_5/002953_2014-06-08_17-32-18_094959634447_rgbf000059-resize_5-target.png,125,1.551,2.5,4978,125,feet,jsons/VE125_randls_43_rotated.json,776621,1446285,26,Man
133,399093,DepthScenes,duration_manipulation_targetAtFixation,jsons/VE125_randls_43_rotated.json,http://54.235.29.9/FacialAge/BNav_EC2/DepthDuration/v2_depth_duration_MTurk/v2_DepthDuration_HTML.html#365,365,1280,720,1280,720,9-18-2022,10-21-8,134,depth_duration_stimuli/000878_2014-06-08_22-52-45_260595134347_rgbf000045-resize_2/000878_2014-06-08_22-52-45_260595134347_rgbf000045-resize_2-target.png,125,2.092,3.0,2345,125,feet,jsons/VE125_randls_43_rotated.json,776621,1446285,26,Man
134,399093,DepthScenes,duration_manipulation_targetAtFixation,jsons/VE125_randls_43_rotated.json,http://54.235.29.9/FacialAge/BNav_EC2/DepthDuration/v2_depth_duration_MTurk/v2_DepthDuration_HTML.html#365,365,1280,720,1280,720,9-18-2022,10-21-8,135,depth_duration_stimuli/000375_2014-06-08_11-17-29_260595134347_rgbf000133-resize_2/000375_2014-06-08_11-17-29_260595134347_rgbf000133-resize-original.jpg,125,4.718,0.0,2350,124,feet,jsons/VE125_randls_43_rotated.json,776621,1446285,26,Man
135,399093,DepthScenes,duration_manipulation_targetAtFixation,jsons/VE125_randls_43_rotated.json,http://54.235.29.9/FacialAge/BNav_EC2/DepthDuration/v2_depth_duration_MTurk/v2_DepthDuration_HTML.html#365,365,1280,720,1280,720,9-18-2022,10-21-8,136,depth_duration_stimuli/000677_2014-06-08_23-10-32_260595134347_rgbf000158-resize_6/000677_2014-06-08_23-10-32_260595134347_rgbf000158-resize_6-target.png,125,3.556,6.0,2939,122,feet,jsons/VE125_randls_43_rotated.json,776621,1446285,26,Man
136,399093,DepthScenes,duration_manipulation_targetAtFixation,jsons/VE125_randls_43_rotated.json,http://54.235.29.9/FacialAge/BNav_EC2/DepthDuration/v2_depth_duration_MTurk/v2_DepthDuration_HTML.html#365,365,1280,720,1280,720,9-18-2022,10-21-8,137,depth_duration_stimuli/001029_2014-06-08_13-17-57_260595134347_rgbf000065-resize_1/001029_2014-06-08_13-17-57_260595134347_rgbf000065-resize_1-target.png,125,3.0835,8.0,2557,122,feet,jsons/VE125_randls_43_rotated.json,776621,1446285,26,Man
137,399093,DepthScenes,duration_manipulation_targetAtFixation,jsons/VE125_randls_43_rotated.json,http://54.235.29.9/FacialAge/BNav_EC2/DepthDuration/v2_depth_duration_MTurk/v2_DepthDuration_HTML.html#365,365,1280,720,1280,720,9-18-2022,10-21-8,138,depth_duration_stimuli/000943_2014-06-09_19-31-07_260595134347_rgbf000128-resize_1/000943_2014-06-09_19-31-07_260595134347_rgbf000128-resize_1-target.png,125,1.9765,6.0,3695,124,feet,jsons/VE125_randls_43_rotated.json,776621,1446285,26,Man
138,399093,DepthScenes,duration_manipulation_targetAtFixation,jsons/VE125_randls_43_rotated.json,http://54.235.29.9/FacialAge/BNav_EC2/DepthDuration/v2_depth_duration_MTurk/v2_DepthDuration_HTML.html#365,365,1280,720,1280,720,9-18-2022,10-21-8,139,depth_duration_stimuli/003070_2014-06-15_14-58-27_094959634447_rgbf000150-resize_3/003070_2014-06-15_14-58-27_094959634447_rgbf000150-resize_3-target.png,125,2.9415,9.0,8052,124,feet,jsons/VE125_randls_43_rotated.json,776621,1446285,26,Man
139,399093,DepthScenes,duration_manipulation_targetAtFixation,jsons/VE125_randls_43_rotated.json,http://54.235.29.9/FacialAge/BNav_EC2/DepthDuration/v2_depth_duration_MTurk/v2_DepthDuration_HTML.html#365,365,1280,720,1280,720,9-18-2022,10-21-8,140,depth_duration_stimuli/001584_2014-06-20_11-07-43_260595134347_rgbf000002-resize_1/001584_2014-06-20_11-07-43_260595134347_rgbf000002-resize_1-target.png,125,3.53,7.5,4483,125,feet,jsons/VE125_randls_43_rotated.json,776621,1446285,26,Man
140,399093,DepthScenes,duration_manipulation_targetAtFixation,jsons/VE125_randls_43_rotated.json,http://54.235.29.9/FacialAge/BNav_EC2/DepthDuration/v2_depth_duration_MTurk/v2_DepthDuration_HTML.html#365,365,1280,720,1280,720,9-18-2022,10-21-8,141,depth_duration_stimuli/003621_2014-05-23_18-06-08_094959634447_rgbf000101-resize_1/003621_2014-05-23_18-06-08_094959634447_rgbf000101-resize_1-target.png,125,3.9835,10.0,3607,125,feet,jsons/VE125_randls_43_rotated.json,776621,1446285,26,Man
141,399093,DepthScenes,duration_manipulation_targetAtFixation,jsons/VE125_randls_43_rotated.json,http://54.235.29.9/FacialAge/BNav_EC2/DepthDuration/v2_depth_duration_MTurk/v2_DepthDuration_HTML.html#365,365,1280,720,1280,720,9-18-2022,10-21-8,142,depth_duration_stimuli/000734_2014-06-08_17-39-11_260595134347_rgbf000128-resize_2/000734_2014-06-08_17-39-11_260595134347_rgbf000128-resize_2-target.png,125,4.098,12.0,4012,136,feet,jsons/VE125_randls_43_rotated.json,776621,1446285,26,Man
142,399093,DepthScenes,duration_manipulation_targetAtFixation,jsons/VE125_randls_43_rotated.json,http://54.235.29.9/FacialAge/BNav_EC2/DepthDuration/v2_depth_duration_MTurk/v2_DepthDuration_HTML.html#365,365,1280,720,1280,720,9-18-2022,10-21-8,143,depth_duration_stimuli/000739_2014-06-08_18-45-58_260595134347_rgbf000068-resize_1/000739_2014-06-08_18-45-58_260595134347_rgbf000068-resize_1-target.png,125,3.534,9.0,3559,124,feet,jsons/VE125_randls_43_rotated.json,776621,1446285,26,Man
143,399093,DepthScenes,duration_manipulation_targetAtFixation,jsons/VE125_randls_43_rotated.json,http://54.235.29.9/FacialAge/BNav_EC2/DepthDuration/v2_depth_duration_MTurk/v2_DepthDuration_HTML.html#365,365,1280,720,1280,720,9-18-2022,10-21-8,144,depth_duration_stimuli/001815_2014-06-26_20-52-55_260595134347_rgbf000020-resize_0/001815_2014-06-26_20-52-55_260595134347_rgbf000020-resize_0-target.png,125,3.3865,14.0,4042,121,feet,jsons/VE125_randls_43_rotated.json,776621,1446285,26,Man
144,399093,DepthScenes,duration_manipulation_targetAtFixation,jsons/VE125_randls_43_rotated.json,http://54.235.29.9/FacialAge/BNav_EC2/DepthDuration/v2_depth_duration_MTurk/v2_DepthDuration_HTML.html#365,365,1280,720,1280,720,9-18-2022,10-21-8,145,depth_duration_stimuli/001808_2014-06-26_20-50-58_260595134347_rgbf000029-resize_1/001808_2014-06-26_20-50-58_260595134347_rgbf000029-resize_1-target.png,125,4.249,15.0,3654,122,feet,jsons/VE125_randls_43_rotated.json,776621,1446285,26,Man
145,399093,DepthScenes,duration_manipulation_targetAtFixation,jsons/VE125_randls_43_rotated.json,http://54.235.29.9/FacialAge/BNav_EC2/DepthDuration/v2_depth_duration_MTurk/v2_DepthDuration_HTML.html#365,365,1280,720,1280,720,9-18-2022,10-21-8,146,depth_duration_stimuli/003010_2014-06-15_12-54-35_094959634447_rgbf000112-resize_0/003010_2014-06-15_12-54-35_094959634447_rgbf000112-resize_0-target.png,125,3.1185,18.0,4367,122,feet,jsons/VE125_randls_43_rotated.json,776621,1446285,26,Man
146,399093,DepthScenes,duration_manipulation_targetAtFixation,jsons/VE125_randls_43_rotated.json,http://54.235.29.9/FacialAge/BNav_EC2/DepthDuration/v2_depth_duration_MTurk/v2_DepthDuration_HTML.html#365,365,1280,720,1280,720,9-18-2022,10-21-8,147,depth_duration_stimuli/001810_2014-06-26_20-51-35_260595134347_rgbf000040-resize_3/001810_2014-06-26_20-51-35_260595134347_rgbf000040-resize_3-target.png,125,2.2525,7.0,3867,124,feet,jsons/VE125_randls_43_rotated.json,776621,1446285,26,Man
147,399093,DepthScenes,duration_manipulation_targetAtFixation,jsons/VE125_randls_43_rotated.json,http://54.235.29.9/FacialAge/BNav_EC2/DepthDuration/v2_depth_duration_MTurk/v2_DepthDuration_HTML.html#365,365,1280,720,1280,720,9-18-2022,10-21-8,148,depth_duration_stimuli/000109_2014-05-14_23-41-52_260595134347_rgbf000035-resize_9/000109_2014-05-14_23-41-52_260595134347_rgbf000035-resize_9-target.png,125,1.3545,4.5,4588,121,feet,jsons/VE125_randls_43_rotated.json,776621,1446285,26,Man
148,399093,DepthScenes,duration_manipulation_targetAtFixation,jsons/VE125_randls_43_rotated.json,http://54.235.29.9/FacialAge/BNav_EC2/DepthDuration/v2_depth_duration_MTurk/v2_DepthDuration_HTML.html#365,365,1280,720,1280,720,9-18-2022,10-21-8,149,depth_duration_stimuli/000470_2014-06-09_19-42-40_260595134347_rgbf000094-resize_1/000470_2014-06-09_19-42-40_260595134347_rgbf000094-resize_1-target.png,125,1.831,3.0,3279,122,feet,jsons/VE125_randls_43_rotated.json,776621,1446285,26,Man
149,399093,DepthScenes,duration_manipulation_targetAtFixation,jsons/VE125_randls_43_rotated.json,http://54.235.29.9/FacialAge/BNav_EC2/DepthDuration/v2_depth_duration_MTurk/v2_DepthDuration_HTML.html#365,365,1280,720,1280,720,9-18-2022,10-21-8,150,depth_duration_stimuli/002995_2014-06-15_12-31-26_094959634447_rgbf000150-resize_1/002995_2014-06-15_12-31-26_094959634447_rgbf000150-resize_1-target.png,125,3.8360000000000003,5.0,3946,123,feet,jsons/VE125_randls_43_rotated.json,776621,1446285,26,Man
150,399093,DepthScenes,duration_manipulation_targetAtFixation,jsons/VE125_randls_43_rotated.json,http://54.235.29.9/FacialAge/BNav_EC2/DepthDuration/v2_depth_duration_MTurk/v2_DepthDuration_HTML.html#365,365,1280,720,1280,720,9-18-2022,10-21-8,151,depth_duration_stimuli/002748_2014-06-22_19-07-22_094959634447_rgbf000078-resize_1/002748_2014-06-22_19-07-22_094959634447_rgbf000078-resize_1-target.png,125,4.6705,12.0,5069,123,feet,jsons/VE125_randls_43_rotated.json,776621,1446285,26,Man
151,399093,DepthScenes,duration_manipulation_targetAtFixation,jsons/VE125_randls_43_rotated.json,http://54.235.29.9/FacialAge/BNav_EC2/DepthDuration/v2_depth_duration_MTurk/v2_DepthDuration_HTML.html#365,365,1280,720,1280,720,9-18-2022,10-21-8,152,depth_duration_stimuli/000569_2014-06-09_22-51-47_260595134347_rgbf000141-resize_3/000569_2014-06-09_22-51-47_260595134347_rgbf000141-resize-original.jpg,125,4.512,0.0,3206,123,feet,jsons/VE125_randls_43_rotated.json,776621,1446285,26,Man
152,399093,DepthScenes,duration_manipulation_targetAtFixation,jsons/VE125_randls_43_rotated.json,http://54.235.29.9/FacialAge/BNav_EC2/DepthDuration/v2_depth_duration_MTurk/v2_DepthDuration_HTML.html#365,365,1280,720,1280,720,9-18-2022,10-21-8,153,depth_duration_stimuli/003587_2014-05-23_16-48-02_094959634447_rgbf002384-resize_2/003587_2014-05-23_16-48-02_094959634447_rgbf002384-resize_2-target.png,125,1.357,2.5,4466,123,feet,jsons/VE125_randls_43_rotated.json,776621,1446285,26,Man
153,399093,DepthScenes,duration_manipulation_targetAtFixation,jsons/VE125_randls_43_rotated.json,http://54.235.29.9/FacialAge/BNav_EC2/DepthDuration/v2_depth_duration_MTurk/v2_DepthDuration_HTML.html#365,365,1280,720,1280,720,9-18-2022,10-21-8,154,depth_duration_stimuli/001167_2014-06-17_15-38-07_260595134347_rgbf000108-resize_0/001167_2014-06-17_15-38-07_260595134347_rgbf000108-resize_0-target.png,125,1.8505,3.0,3260,122,feet,jsons/VE125_randls_43_rotated.json,776621,1446285,26,Man
154,399093,DepthScenes,duration_manipulation_targetAtFixation,jsons/VE125_randls_43_rotated.json,http://54.235.29.9/FacialAge/BNav_EC2/DepthDuration/v2_depth_duration_MTurk/v2_DepthDuration_HTML.html#365,365,1280,720,1280,720,9-18-2022,10-21-8,155,depth_duration_stimuli/002639_2014-06-24_14-51-37_094959634447_rgbf000074-resize_4/002639_2014-06-24_14-51-37_094959634447_rgbf000074-resize_4-target.png,125,4.0375,15.0,7216,125,feet,jsons/VE125_randls_43_rotated.json,776621,1446285,26,Man
155,399093,DepthScenes,duration_manipulation_targetAtFixation,jsons/VE125_randls_43_rotated.json,http://54.235.29.9/FacialAge/BNav_EC2/DepthDuration/v2_depth_duration_MTurk/v2_DepthDuration_HTML.html#365,365,1280,720,1280,720,9-18-2022,10-21-8,156,depth_duration_stimuli/003292_2014-05-14_21-53-49_094959634447_rgbf000100-resize_2/003292_2014-05-14_21-53-49_094959634447_rgbf000100-resize_2-target.png,125,3.4815,10.0,6473,123,feet,jsons/VE125_randls_43_rotated.json,776621,1446285,26,Man
156,399093,DepthScenes,duration_manipulation_targetAtFixation,jsons/VE125_randls_43_rotated.json,http://54.235.29.9/FacialAge/BNav_EC2/DepthDuration/v2_depth_duration_MTurk/v2_DepthDuration_HTML.html#365,365,1280,720,1280,720,9-18-2022,10-21-8,157,depth_duration_stimuli/002414_2014-06-28_20-24-58_260595134347_rgbf000067-resize_4/002414_2014-06-28_20-24-58_260595134347_rgbf000067-resize_4-target.png,125,4.363,8.0,4973,124,feet,jsons/VE125_randls_43_rotated.json,776621,1446285,26,Man
157,399093,DepthScenes,duration_manipulation_targetAtFixation,jsons/VE125_randls_43_rotated.json,http://54.235.29.9/FacialAge/BNav_EC2/DepthDuration/v2_depth_duration_MTurk/v2_DepthDuration_HTML.html#365,365,1280,720,1280,720,9-18-2022,10-21-8,158,depth_duration_stimuli/000773_2014-06-08_22-24-54_260595134347_rgbf000093-resize_1/000773_2014-06-08_22-24-54_260595134347_rgbf000093-resize_1-target.png,125,4.973,12.0,3248,139,feet,jsons/VE125_randls_43_rotated.json,776621,1446285,26,Man
158,399093,DepthScenes,duration_manipulation_targetAtFixation,jsons/VE125_randls_43_rotated.json,http://54.235.29.9/FacialAge/BNav_EC2/DepthDuration/v2_depth_duration_MTurk/v2_DepthDuration_HTML.html#365,365,1280,720,1280,720,9-18-2022,10-21-8,159,depth_duration_stimuli/000549_2014-06-08_22-10-24_260595134347_rgbf000247-resize_3/000549_2014-06-08_22-10-24_260595134347_rgbf000247-resize_3-target.png,125,1.841,6.0,3328,122,feet,jsons/VE125_randls_43_rotated.json,776621,1446285,26,Man
159,399093,DepthScenes,duration_manipulation_targetAtFixation,jsons/VE125_randls_43_rotated.json,http://54.235.29.9/FacialAge/BNav_EC2/DepthDuration/v2_depth_duration_MTurk/v2_DepthDuration_HTML.html#365,365,1280,720,1280,720,9-18-2022,10-21-8,160,depth_duration_stimuli/001055_2014-06-08_18-45-35_260595134347_rgbf000111-resize_4/001055_2014-06-08_18-45-35_260595134347_rgbf000111-resize_4-target.png,125,2.4290000000000003,13.0,9120,122,feet,jsons/VE125_randls_43_rotated.json,776621,1446285,26,Man
160,399093,DepthScenes,duration_manipulation_targetAtFixation,jsons/VE125_randls_43_rotated.json,http://54.235.29.9/FacialAge/BNav_EC2/DepthDuration/v2_depth_duration_MTurk/v2_DepthDuration_HTML.html#365,365,1280,720,1280,720,9-18-2022,10-21-8,161,depth_duration_stimuli/002678_2014-06-13_16-15-32_094959634447_rgbf000151-resize_6/002678_2014-06-13_16-15-32_094959634447_rgbf000151-resize_6-target.png,125,2.1830000000000003,16.0,3390,122,feet,jsons/VE125_randls_43_rotated.json,776621,1446285,26,Man
161,399093,DepthScenes,duration_manipulation_targetAtFixation,jsons/VE125_randls_43_rotated.json,http://54.235.29.9/FacialAge/BNav_EC2/DepthDuration/v2_depth_duration_MTurk/v2_DepthDuration_HTML.html#365,365,1280,720,1280,720,9-18-2022,10-21-8,162,depth_duration_stimuli/000368_2014-06-09_15-53-01_260595134347_rgbf000155-resize_2/000368_2014-06-09_15-53-01_260595134347_rgbf000155-resize_2-target.png,125,2.4859999999999998,9.0,3066,124,feet,jsons/VE125_randls_43_rotated.json,776621,1446285,26,Man
162,399093,DepthScenes,duration_manipulation_targetAtFixation,jsons/VE125_randls_43_rotated.json,http://54.235.29.9/FacialAge/BNav_EC2/DepthDuration/v2_depth_duration_MTurk/v2_DepthDuration_HTML.html#365,365,1280,720,1280,720,9-18-2022,10-21-8,163,depth_duration_stimuli/002545_2014-06-24_13-38-53_094959634447_rgbf000080-resize_4/002545_2014-06-24_13-38-53_094959634447_rgbf000080-resize_4-target.png,125,1.9205,7.0,5561,123,feet,jsons/VE125_randls_43_rotated.json,776621,1446285,26,Man
163,399093,DepthScenes,duration_manipulation_targetAtFixation,jsons/VE125_randls_43_rotated.json,http://54.235.29.9/FacialAge/BNav_EC2/DepthDuration/v2_depth_duration_MTurk/v2_DepthDuration_HTML.html#365,365,1280,720,1280,720,9-18-2022,10-21-8,164,depth_duration_stimuli/001092_2014-06-15_17-34-58_260595134347_rgbf000171-resize_3/001092_2014-06-15_17-34-58_260595134347_rgbf000171-resize_3-target.png,125,2.6935,6.0,4146,123,feet,jsons/VE125_randls_43_rotated.json,776621,1446285,26,Man
