,subjID,experimentName,versionName,sequenceName,url,selected_row,windowWidth,windowHeight,screenWidth,screenHeight,startDate,startTime,trial,stimulus,duration,actual_depth,depth_estimate,trial_RT,log_sceneDuration,unitSelection,seq_filepath,experimentTime,totalTime,age,gender
0,399488,DepthScenes,duration_manipulation_targetAtFixation,jsons/v1_VE1000_randls_37.json,http://54.235.29.9/FacialAge/BNav_EC2/DepthDuration/v2_depth_duration_MTurk/v2_DepthDuration_HTML.html#44,44,1366,657,1366,768,9-18-2022,9-22-21,1,depth_duration_stimuli/002279_2014-06-28_18-55-32_260595134347_rgbf000040-resize_5/002279_2014-06-28_18-55-32_260595134347_rgbf000040-resize_5-target.png,1000,1.5043333333333,0,3970,1001,meters,jsons/v1_VE1000_randls_37.json,1614716,2512648,54,Man
1,399488,DepthScenes,duration_manipulation_targetAtFixation,jsons/v1_VE1000_randls_37.json,http://54.235.29.9/FacialAge/BNav_EC2/DepthDuration/v2_depth_duration_MTurk/v2_DepthDuration_HTML.html#44,44,1366,657,1366,768,9-18-2022,9-22-21,2,depth_duration_stimuli/000635_2014-06-08_16-38-42_260595134347_rgbf000106-resize_1/000635_2014-06-08_16-38-42_260595134347_rgbf000106-resize_1-target.png,1000,2.074,0,3047,991,meters,jsons/v1_VE1000_randls_37.json,1614716,2512648,54,Man
2,399488,DepthScenes,duration_manipulation_targetAtFixation,jsons/v1_VE1000_randls_37.json,http://54.235.29.9/FacialAge/BNav_EC2/DepthDuration/v2_depth_duration_MTurk/v2_DepthDuration_HTML.html#44,44,1366,657,1366,768,9-18-2022,9-22-21,3,depth_duration_stimuli/002988_2014-06-15_12-24-20_094959634447_rgbf000150-resize_1/002988_2014-06-15_12-24-20_094959634447_rgbf000150-resize_1-target.png,1000,4.7669999999999995,0,3042,997,meters,jsons/v1_VE1000_randls_37.json,1614716,2512648,54,Man
3,399488,DepthScenes,duration_manipulation_targetAtFixation,jsons/v1_VE1000_randls_37.json,http://54.235.29.9/FacialAge/BNav_EC2/DepthDuration/v2_depth_duration_MTurk/v2_DepthDuration_HTML.html#44,44,1366,657,1366,768,9-18-2022,9-22-21,4,depth_duration_stimuli/001052_2014-06-08_18-24-54_260595134347_rgbf000130-resize_1/001052_2014-06-08_18-24-54_260595134347_rgbf000130-resize_1-target.png,1000,4.1045,0,2885,1003,meters,jsons/v1_VE1000_randls_37.json,1614716,2512648,54,Man
4,399488,DepthScenes,duration_manipulation_targetAtFixation,jsons/v1_VE1000_randls_37.json,http://54.235.29.9/FacialAge/BNav_EC2/DepthDuration/v2_depth_duration_MTurk/v2_DepthDuration_HTML.html#44,44,1366,657,1366,768,9-18-2022,9-22-21,5,depth_duration_stimuli/001092_2014-06-15_17-34-58_260595134347_rgbf000171-resize_3/001092_2014-06-15_17-34-58_260595134347_rgbf000171-resize_3-target.png,1000,2.6935,0,2989,999,meters,jsons/v1_VE1000_randls_37.json,1614716,2512648,54,Man
5,399488,DepthScenes,duration_manipulation_targetAtFixation,jsons/v1_VE1000_randls_37.json,http://54.235.29.9/FacialAge/BNav_EC2/DepthDuration/v2_depth_duration_MTurk/v2_DepthDuration_HTML.html#44,44,1366,657,1366,768,9-18-2022,9-22-21,6,depth_duration_stimuli/002545_2014-06-24_13-38-53_094959634447_rgbf000080-resize_4/002545_2014-06-24_13-38-53_094959634447_rgbf000080-resize_4-target.png,1000,1.9205,0,2997,998,meters,jsons/v1_VE1000_randls_37.json,1614716,2512648,54,Man
6,399488,DepthScenes,duration_manipulation_targetAtFixation,jsons/v1_VE1000_randls_37.json,http://54.235.29.9/FacialAge/BNav_EC2/DepthDuration/v2_depth_duration_MTurk/v2_DepthDuration_HTML.html#44,44,1366,657,1366,768,9-18-2022,9-22-21,7,depth_duration_stimuli/000906_2014-06-08_13-35-43_260595134347_rgbf000155-resize_1/000906_2014-06-08_13-35-43_260595134347_rgbf000155-resize_1-target.png,1000,2.8489999999999998,0,3296,1002,meters,jsons/v1_VE1000_randls_37.json,1614716,2512648,54,Man
7,399488,DepthScenes,duration_manipulation_targetAtFixation,jsons/v1_VE1000_randls_37.json,http://54.235.29.9/FacialAge/BNav_EC2/DepthDuration/v2_depth_duration_MTurk/v2_DepthDuration_HTML.html#44,44,1366,657,1366,768,9-18-2022,9-22-21,8,depth_duration_stimuli/002805_2014-06-22_19-54-03_094959634447_rgbf000079-resize_1/002805_2014-06-22_19-54-03_094959634447_rgbf000079-resize_1-target.png,1000,3.1439999999999997,0,2803,998,meters,jsons/v1_VE1000_randls_37.json,1614716,2512648,54,Man
8,399488,DepthScenes,duration_manipulation_targetAtFixation,jsons/v1_VE1000_randls_37.json,http://54.235.29.9/FacialAge/BNav_EC2/DepthDuration/v2_depth_duration_MTurk/v2_DepthDuration_HTML.html#44,44,1366,657,1366,768,9-18-2022,9-22-21,9,depth_duration_stimuli/002600_2014-06-24_14-27-04_094959634447_rgbf000074-resize_2/002600_2014-06-24_14-27-04_094959634447_rgbf000074-resize_2-target.png,1000,2.7575,0,3845,985,meters,jsons/v1_VE1000_randls_37.json,1614716,2512648,54,Man
9,399488,DepthScenes,duration_manipulation_targetAtFixation,jsons/v1_VE1000_randls_37.json,http://54.235.29.9/FacialAge/BNav_EC2/DepthDuration/v2_depth_duration_MTurk/v2_DepthDuration_HTML.html#44,44,1366,657,1366,768,9-18-2022,9-22-21,10,depth_duration_stimuli/003228_2014-05-14_13-42-35_094959634447_rgbf000101-resize_1/003228_2014-05-14_13-42-35_094959634447_rgbf000101-resize_1-target.png,1000,1.9680000000000002,0,2978,989,meters,jsons/v1_VE1000_randls_37.json,1614716,2512648,54,Man
10,399488,DepthScenes,duration_manipulation_targetAtFixation,jsons/v1_VE1000_randls_37.json,http://54.235.29.9/FacialAge/BNav_EC2/DepthDuration/v2_depth_duration_MTurk/v2_DepthDuration_HTML.html#44,44,1366,657,1366,768,9-18-2022,9-22-21,11,depth_duration_stimuli/002057_2014-06-24_21-00-13_260595134347_rgbf000120-resize_1/002057_2014-06-24_21-00-13_260595134347_rgbf000120-resize_1-target.png,1000,2.967,0,3186,999,meters,jsons/v1_VE1000_randls_37.json,1614716,2512648,54,Man
11,399488,DepthScenes,duration_manipulation_targetAtFixation,jsons/v1_VE1000_randls_37.json,http://54.235.29.9/FacialAge/BNav_EC2/DepthDuration/v2_depth_duration_MTurk/v2_DepthDuration_HTML.html#44,44,1366,657,1366,768,9-18-2022,9-22-21,12,depth_duration_stimuli/000709_2014-06-08_13-51-55_260595134347_rgbf000068-resize_3/000709_2014-06-08_13-51-55_260595134347_rgbf000068-resize_3-target.png,1000,1.8030000000000002,0,3865,983,meters,jsons/v1_VE1000_randls_37.json,1614716,2512648,54,Man
12,399488,DepthScenes,duration_manipulation_targetAtFixation,jsons/v1_VE1000_randls_37.json,http://54.235.29.9/FacialAge/BNav_EC2/DepthDuration/v2_depth_duration_MTurk/v2_DepthDuration_HTML.html#44,44,1366,657,1366,768,9-18-2022,9-22-21,13,depth_duration_stimuli/000569_2014-06-09_22-51-47_260595134347_rgbf000141-resize_3/000569_2014-06-09_22-51-47_260595134347_rgbf000141-resize-original.jpg,1000,4.512,0,3146,995,meters,jsons/v1_VE1000_randls_37.json,1614716,2512648,54,Man
13,399488,DepthScenes,duration_manipulation_targetAtFixation,jsons/v1_VE1000_randls_37.json,http://54.235.29.9/FacialAge/BNav_EC2/DepthDuration/v2_depth_duration_MTurk/v2_DepthDuration_HTML.html#44,44,1366,657,1366,768,9-18-2022,9-22-21,14,depth_duration_stimuli/001066_2014-06-08_22-03-20_260595134347_rgbf000066-resize_4/001066_2014-06-08_22-03-20_260595134347_rgbf000066-resize_4-target.png,1000,4.2330000000000005,0,3361,998,meters,jsons/v1_VE1000_randls_37.json,1614716,2512648,54,Man
14,399488,DepthScenes,duration_manipulation_targetAtFixation,jsons/v1_VE1000_randls_37.json,http://54.235.29.9/FacialAge/BNav_EC2/DepthDuration/v2_depth_duration_MTurk/v2_DepthDuration_HTML.html#44,44,1366,657,1366,768,9-18-2022,9-22-21,15,depth_duration_stimuli/000742_2014-06-08_18-48-09_260595134347_rgbf000164-resize_4/000742_2014-06-08_18-48-09_260595134347_rgbf000164-resize_4-target.png,1000,4.632,0,2693,999,meters,jsons/v1_VE1000_randls_37.json,1614716,2512648,54,Man
15,399488,DepthScenes,duration_manipulation_targetAtFixation,jsons/v1_VE1000_randls_37.json,http://54.235.29.9/FacialAge/BNav_EC2/DepthDuration/v2_depth_duration_MTurk/v2_DepthDuration_HTML.html#44,44,1366,657,1366,768,9-18-2022,9-22-21,16,depth_duration_stimuli/001059_2014-06-08_21-53-27_260595134347_rgbf000061-resize_4/001059_2014-06-08_21-53-27_260595134347_rgbf000061-resize_4-target.png,1000,2.4185,0,2998,999,meters,jsons/v1_VE1000_randls_37.json,1614716,2512648,54,Man
16,399488,DepthScenes,duration_manipulation_targetAtFixation,jsons/v1_VE1000_randls_37.json,http://54.235.29.9/FacialAge/BNav_EC2/DepthDuration/v2_depth_duration_MTurk/v2_DepthDuration_HTML.html#44,44,1366,657,1366,768,9-18-2022,9-22-21,17,depth_duration_stimuli/001032_2014-06-08_13-23-17_260595134347_rgbf000021-resize_3/001032_2014-06-08_13-23-17_260595134347_rgbf000021-resize_3-target.png,1000,3.2725,0,2818,981,meters,jsons/v1_VE1000_randls_37.json,1614716,2512648,54,Man
17,399488,DepthScenes,duration_manipulation_targetAtFixation,jsons/v1_VE1000_randls_37.json,http://54.235.29.9/FacialAge/BNav_EC2/DepthDuration/v2_depth_duration_MTurk/v2_DepthDuration_HTML.html#44,44,1366,657,1366,768,9-18-2022,9-22-21,18,depth_duration_stimuli/000009_2014-05-26_14-32-05_260595134347_rgbf000034-resize_3/000009_2014-05-26_14-32-05_260595134347_rgbf000034-resize_3-target.png,1000,3.8715,0,2946,995,meters,jsons/v1_VE1000_randls_37.json,1614716,2512648,54,Man
18,399488,DepthScenes,duration_manipulation_targetAtFixation,jsons/v1_VE1000_randls_37.json,http://54.235.29.9/FacialAge/BNav_EC2/DepthDuration/v2_depth_duration_MTurk/v2_DepthDuration_HTML.html#44,44,1366,657,1366,768,9-18-2022,9-22-21,19,depth_duration_stimuli/001828_2014-06-26_21-40-03_260595134347_rgbf000024-resize_0/001828_2014-06-26_21-40-03_260595134347_rgbf000024-resize_0-target.png,1000,4.8260000000000005,0,2825,990,meters,jsons/v1_VE1000_randls_37.json,1614716,2512648,54,Man
19,399488,DepthScenes,duration_manipulation_targetAtFixation,jsons/v1_VE1000_randls_37.json,http://54.235.29.9/FacialAge/BNav_EC2/DepthDuration/v2_depth_duration_MTurk/v2_DepthDuration_HTML.html#44,44,1366,657,1366,768,9-18-2022,9-22-21,20,depth_duration_stimuli/000522_2014-06-08_13-35-06_260595134347_rgbf000244-resize_1/000522_2014-06-08_13-35-06_260595134347_rgbf000244-resize_1-target.png,1000,2.3715,0,2983,985,meters,jsons/v1_VE1000_randls_37.json,1614716,2512648,54,Man
20,399488,DepthScenes,duration_manipulation_targetAtFixation,jsons/v1_VE1000_randls_37.json,http://54.235.29.9/FacialAge/BNav_EC2/DepthDuration/v2_depth_duration_MTurk/v2_DepthDuration_HTML.html#44,44,1366,657,1366,768,9-18-2022,9-22-21,21,depth_duration_stimuli/002949_2014-06-26_15-57-42_094959634447_rgbf000079-resize_1/002949_2014-06-26_15-57-42_094959634447_rgbf000079-resize_1-target.png,1000,1.8915,0,3221,1005,meters,jsons/v1_VE1000_randls_37.json,1614716,2512648,54,Man
21,399488,DepthScenes,duration_manipulation_targetAtFixation,jsons/v1_VE1000_randls_37.json,http://54.235.29.9/FacialAge/BNav_EC2/DepthDuration/v2_depth_duration_MTurk/v2_DepthDuration_HTML.html#44,44,1366,657,1366,768,9-18-2022,9-22-21,22,depth_duration_stimuli/002153_2014-06-25_21-27-18_260595134347_rgbf000038-resize_5/002153_2014-06-25_21-27-18_260595134347_rgbf000038-resize_5-target.png,1000,2.505,0,3043,996,meters,jsons/v1_VE1000_randls_37.json,1614716,2512648,54,Man
22,399488,DepthScenes,duration_manipulation_targetAtFixation,jsons/v1_VE1000_randls_37.json,http://54.235.29.9/FacialAge/BNav_EC2/DepthDuration/v2_depth_duration_MTurk/v2_DepthDuration_HTML.html#44,44,1366,657,1366,768,9-18-2022,9-22-21,23,depth_duration_stimuli/002660_2014-06-13_15-44-18_094959634447_rgbf001878-resize_2/002660_2014-06-13_15-44-18_094959634447_rgbf001878-resize_2-target.png,1000,3.576,0,2928,1000,meters,jsons/v1_VE1000_randls_37.json,1614716,2512648,54,Man
23,399488,DepthScenes,duration_manipulation_targetAtFixation,jsons/v1_VE1000_randls_37.json,http://54.235.29.9/FacialAge/BNav_EC2/DepthDuration/v2_depth_duration_MTurk/v2_DepthDuration_HTML.html#44,44,1366,657,1366,768,9-18-2022,9-22-21,24,depth_duration_stimuli/000773_2014-06-08_22-24-54_260595134347_rgbf000093-resize_1/000773_2014-06-08_22-24-54_260595134347_rgbf000093-resize_1-target.png,1000,4.973,0,2818,996,meters,jsons/v1_VE1000_randls_37.json,1614716,2512648,54,Man
24,399488,DepthScenes,duration_manipulation_targetAtFixation,jsons/v1_VE1000_randls_37.json,http://54.235.29.9/FacialAge/BNav_EC2/DepthDuration/v2_depth_duration_MTurk/v2_DepthDuration_HTML.html#44,44,1366,657,1366,768,9-18-2022,9-22-21,25,depth_duration_stimuli/002414_2014-06-28_20-24-58_260595134347_rgbf000067-resize_4/002414_2014-06-28_20-24-58_260595134347_rgbf000067-resize_4-target.png,1000,4.363,0,2840,985,meters,jsons/v1_VE1000_randls_37.json,1614716,2512648,54,Man
25,399488,DepthScenes,duration_manipulation_targetAtFixation,jsons/v1_VE1000_randls_37.json,http://54.235.29.9/FacialAge/BNav_EC2/DepthDuration/v2_depth_duration_MTurk/v2_DepthDuration_HTML.html#44,44,1366,657,1366,768,9-18-2022,9-22-21,26,depth_duration_stimuli/000447_2014-06-08_16-15-46_260595134347_rgbf000130-resize_1/000447_2014-06-08_16-15-46_260595134347_rgbf000130-resize_1-target.png,1000,4.479,0,2822,1000,meters,jsons/v1_VE1000_randls_37.json,1614716,2512648,54,Man
26,399488,DepthScenes,duration_manipulation_targetAtFixation,jsons/v1_VE1000_randls_37.json,http://54.235.29.9/FacialAge/BNav_EC2/DepthDuration/v2_depth_duration_MTurk/v2_DepthDuration_HTML.html#44,44,1366,657,1366,768,9-18-2022,9-22-21,27,depth_duration_stimuli/001447_2014-06-19_17-00-32_260595134347_rgbf000082-resize_5/001447_2014-06-19_17-00-32_260595134347_rgbf000082-resize_5-target.png,1000,4.13775,0,3461,1008,meters,jsons/v1_VE1000_randls_37.json,1614716,2512648,54,Man
27,399488,DepthScenes,duration_manipulation_targetAtFixation,jsons/v1_VE1000_randls_37.json,http://54.235.29.9/FacialAge/BNav_EC2/DepthDuration/v2_depth_duration_MTurk/v2_DepthDuration_HTML.html#44,44,1366,657,1366,768,9-18-2022,9-22-21,28,depth_duration_stimuli/000758_2014-06-08_22-05-08_260595134347_rgbf000085-resize_0/000758_2014-06-08_22-05-08_260595134347_rgbf000085-resize_0-target.png,1000,3.3810000000000002,0,3072,1001,meters,jsons/v1_VE1000_randls_37.json,1614716,2512648,54,Man
28,399488,DepthScenes,duration_manipulation_targetAtFixation,jsons/v1_VE1000_randls_37.json,http://54.235.29.9/FacialAge/BNav_EC2/DepthDuration/v2_depth_duration_MTurk/v2_DepthDuration_HTML.html#44,44,1366,657,1366,768,9-18-2022,9-22-21,29,depth_duration_stimuli/000854_2014-06-09_19-43-13_260595134347_rgbf000066-resize_0/000854_2014-06-09_19-43-13_260595134347_rgbf000066-resize_0-target.png,1000,3.068,0,5508,1006,meters,jsons/v1_VE1000_randls_37.json,1614716,2512648,54,Man
29,399488,DepthScenes,duration_manipulation_targetAtFixation,jsons/v1_VE1000_randls_37.json,http://54.235.29.9/FacialAge/BNav_EC2/DepthDuration/v2_depth_duration_MTurk/v2_DepthDuration_HTML.html#44,44,1366,657,1366,768,9-18-2022,9-22-21,30,depth_duration_stimuli/000375_2014-06-08_11-17-29_260595134347_rgbf000133-resize_2/000375_2014-06-08_11-17-29_260595134347_rgbf000133-resize-original.jpg,1000,4.718,0,2766,999,meters,jsons/v1_VE1000_randls_37.json,1614716,2512648,54,Man
30,399488,DepthScenes,duration_manipulation_targetAtFixation,jsons/v1_VE1000_randls_37.json,http://54.235.29.9/FacialAge/BNav_EC2/DepthDuration/v2_depth_duration_MTurk/v2_DepthDuration_HTML.html#44,44,1366,657,1366,768,9-18-2022,9-22-21,31,depth_duration_stimuli/000506_2014-06-08_23-21-00_260595134347_rgbf000070-resize_7/000506_2014-06-08_23-21-00_260595134347_rgbf000070-resize_7-target.png,1000,4.0585,0,2681,997,meters,jsons/v1_VE1000_randls_37.json,1614716,2512648,54,Man
31,399488,DepthScenes,duration_manipulation_targetAtFixation,jsons/v1_VE1000_randls_37.json,http://54.235.29.9/FacialAge/BNav_EC2/DepthDuration/v2_depth_duration_MTurk/v2_DepthDuration_HTML.html#44,44,1366,657,1366,768,9-18-2022,9-22-21,32,depth_duration_stimuli/003079_2014-06-15_15-18-20_094959634447_rgbf000152-resize_8/003079_2014-06-15_15-18-20_094959634447_rgbf000152-resize_8-target.png,1000,2.8775,0,2748,997,meters,jsons/v1_VE1000_randls_37.json,1614716,2512648,54,Man
32,399488,DepthScenes,duration_manipulation_targetAtFixation,jsons/v1_VE1000_randls_37.json,http://54.235.29.9/FacialAge/BNav_EC2/DepthDuration/v2_depth_duration_MTurk/v2_DepthDuration_HTML.html#44,44,1366,657,1366,768,9-18-2022,9-22-21,33,depth_duration_stimuli/003292_2014-05-14_21-53-49_094959634447_rgbf000100-resize_2/003292_2014-05-14_21-53-49_094959634447_rgbf000100-resize_2-target.png,1000,3.4815,0,2717,1000,meters,jsons/v1_VE1000_randls_37.json,1614716,2512648,54,Man
33,399488,DepthScenes,duration_manipulation_targetAtFixation,jsons/v1_VE1000_randls_37.json,http://54.235.29.9/FacialAge/BNav_EC2/DepthDuration/v2_depth_duration_MTurk/v2_DepthDuration_HTML.html#44,44,1366,657,1366,768,9-18-2022,9-22-21,34,depth_duration_stimuli/002639_2014-06-24_14-51-37_094959634447_rgbf000074-resize_4/002639_2014-06-24_14-51-37_094959634447_rgbf000074-resize_4-target.png,1000,4.0375,0,2877,1011,meters,jsons/v1_VE1000_randls_37.json,1614716,2512648,54,Man
34,399488,DepthScenes,duration_manipulation_targetAtFixation,jsons/v1_VE1000_randls_37.json,http://54.235.29.9/FacialAge/BNav_EC2/DepthDuration/v2_depth_duration_MTurk/v2_DepthDuration_HTML.html#44,44,1366,657,1366,768,9-18-2022,9-22-21,35,depth_duration_stimuli/002213_2014-06-28_18-37-58_260595134347_rgbf000055-resize_1/002213_2014-06-28_18-37-58_260595134347_rgbf000055-resize_1-target.png,1000,3.62,0,3191,992,meters,jsons/v1_VE1000_randls_37.json,1614716,2512648,54,Man
35,399488,DepthScenes,duration_manipulation_targetAtFixation,jsons/v1_VE1000_randls_37.json,http://54.235.29.9/FacialAge/BNav_EC2/DepthDuration/v2_depth_duration_MTurk/v2_DepthDuration_HTML.html#44,44,1366,657,1366,768,9-18-2022,9-22-21,36,depth_duration_stimuli/000691_2014-06-08_13-08-50_260595134347_rgbf000132-resize_3/000691_2014-06-08_13-08-50_260595134347_rgbf000132-resize_3-target.png,1000,4.1530000000000005,0,3169,1014,meters,jsons/v1_VE1000_randls_37.json,1614716,2512648,54,Man
36,399488,DepthScenes,duration_manipulation_targetAtFixation,jsons/v1_VE1000_randls_37.json,http://54.235.29.9/FacialAge/BNav_EC2/DepthDuration/v2_depth_duration_MTurk/v2_DepthDuration_HTML.html#44,44,1366,657,1366,768,9-18-2022,9-22-21,37,depth_duration_stimuli/002748_2014-06-22_19-07-22_094959634447_rgbf000078-resize_1/002748_2014-06-22_19-07-22_094959634447_rgbf000078-resize_1-target.png,1000,4.6705,0,2746,992,meters,jsons/v1_VE1000_randls_37.json,1614716,2512648,54,Man
37,399488,DepthScenes,duration_manipulation_targetAtFixation,jsons/v1_VE1000_randls_37.json,http://54.235.29.9/FacialAge/BNav_EC2/DepthDuration/v2_depth_duration_MTurk/v2_DepthDuration_HTML.html#44,44,1366,657,1366,768,9-18-2022,9-22-21,38,depth_duration_stimuli/002995_2014-06-15_12-31-26_094959634447_rgbf000150-resize_1/002995_2014-06-15_12-31-26_094959634447_rgbf000150-resize_1-target.png,1000,3.8360000000000003,0,3881,992,meters,jsons/v1_VE1000_randls_37.json,1614716,2512648,54,Man
38,399488,DepthScenes,duration_manipulation_targetAtFixation,jsons/v1_VE1000_randls_37.json,http://54.235.29.9/FacialAge/BNav_EC2/DepthDuration/v2_depth_duration_MTurk/v2_DepthDuration_HTML.html#44,44,1366,657,1366,768,9-18-2022,9-22-21,39,depth_duration_stimuli/000810_2014-06-08_17-20-01_260595134347_rgbf000105-resize_0/000810_2014-06-08_17-20-01_260595134347_rgbf000105-resize_0-target.png,1000,1.4865,0,6176,1001,meters,jsons/v1_VE1000_randls_37.json,1614716,2512648,54,Man
39,399488,DepthScenes,duration_manipulation_targetAtFixation,jsons/v1_VE1000_randls_37.json,http://54.235.29.9/FacialAge/BNav_EC2/DepthDuration/v2_depth_duration_MTurk/v2_DepthDuration_HTML.html#44,44,1366,657,1366,768,9-18-2022,9-22-21,40,depth_duration_stimuli/001214_2014-06-17_16-13-55_260595134347_rgbf000111-resize_0/001214_2014-06-17_16-13-55_260595134347_rgbf000111-resize_0-target.png,1000,2.6505,0,2690,999,meters,jsons/v1_VE1000_randls_37.json,1614716,2512648,54,Man
40,399488,DepthScenes,duration_manipulation_targetAtFixation,jsons/v1_VE1000_randls_37.json,http://54.235.29.9/FacialAge/BNav_EC2/DepthDuration/v2_depth_duration_MTurk/v2_DepthDuration_HTML.html#44,44,1366,657,1366,768,9-18-2022,9-22-21,41,depth_duration_stimuli/002039_2014-06-24_20-22-38_260595134347_rgbf000084-resize_1/002039_2014-06-24_20-22-38_260595134347_rgbf000084-resize_1-target.png,1000,4.408,0,3236,995,meters,jsons/v1_VE1000_randls_37.json,1614716,2512648,54,Man
41,399488,DepthScenes,duration_manipulation_targetAtFixation,jsons/v1_VE1000_randls_37.json,http://54.235.29.9/FacialAge/BNav_EC2/DepthDuration/v2_depth_duration_MTurk/v2_DepthDuration_HTML.html#44,44,1366,657,1366,768,9-18-2022,9-22-21,42,depth_duration_stimuli/002103_2014-06-25_20-00-40_260595134347_rgbf000049-resize_0/002103_2014-06-25_20-00-40_260595134347_rgbf000049-resize_0-target.png,1000,4.105,0,2837,1000,meters,jsons/v1_VE1000_randls_37.json,1614716,2512648,54,Man
42,399488,DepthScenes,duration_manipulation_targetAtFixation,jsons/v1_VE1000_randls_37.json,http://54.235.29.9/FacialAge/BNav_EC2/DepthDuration/v2_depth_duration_MTurk/v2_DepthDuration_HTML.html#44,44,1366,657,1366,768,9-18-2022,9-22-21,43,depth_duration_stimuli/001011_2014-06-08_23-18-54_260595134347_rgbf000044-resize_4/001011_2014-06-08_23-18-54_260595134347_rgbf000044-resize_4-target.png,1000,2.4730000000000003,0,3332,1008,meters,jsons/v1_VE1000_randls_37.json,1614716,2512648,54,Man
43,399488,DepthScenes,duration_manipulation_targetAtFixation,jsons/v1_VE1000_randls_37.json,http://54.235.29.9/FacialAge/BNav_EC2/DepthDuration/v2_depth_duration_MTurk/v2_DepthDuration_HTML.html#44,44,1366,657,1366,768,9-18-2022,9-22-21,44,depth_duration_stimuli/002875_2014-06-01_15-19-00_094959634447_rgbf000151-resize_1/002875_2014-06-01_15-19-00_094959634447_rgbf000151-resize_1-target.png,1000,1.9675,0,2809,991,meters,jsons/v1_VE1000_randls_37.json,1614716,2512648,54,Man
44,399488,DepthScenes,duration_manipulation_targetAtFixation,jsons/v1_VE1000_randls_37.json,http://54.235.29.9/FacialAge/BNav_EC2/DepthDuration/v2_depth_duration_MTurk/v2_DepthDuration_HTML.html#44,44,1366,657,1366,768,9-18-2022,9-22-21,45,depth_duration_stimuli/000787_2014-06-08_22-33-53_260595134347_rgbf000175-resize_1/000787_2014-06-08_22-33-53_260595134347_rgbf000175-resize-original.jpg,1000,4.784,0,2802,999,meters,jsons/v1_VE1000_randls_37.json,1614716,2512648,54,Man
45,399488,DepthScenes,duration_manipulation_targetAtFixation,jsons/v1_VE1000_randls_37.json,http://54.235.29.9/FacialAge/BNav_EC2/DepthDuration/v2_depth_duration_MTurk/v2_DepthDuration_HTML.html#44,44,1366,657,1366,768,9-18-2022,9-22-21,46,depth_duration_stimuli/002272_2014-06-28_18-53-56_260595134347_rgbf000067-resize_2/002272_2014-06-28_18-53-56_260595134347_rgbf000067-resize_2-target.png,1000,1.138,0,26848,1008,meters,jsons/v1_VE1000_randls_37.json,1614716,2512648,54,Man
46,399488,DepthScenes,duration_manipulation_targetAtFixation,jsons/v1_VE1000_randls_37.json,http://54.235.29.9/FacialAge/BNav_EC2/DepthDuration/v2_depth_duration_MTurk/v2_DepthDuration_HTML.html#44,44,1366,657,1366,768,9-18-2022,9-22-21,47,depth_duration_stimuli/001571_2014-06-20_17-21-32_260595134347_rgbf000089-resize_1/001571_2014-06-20_17-21-32_260595134347_rgbf000089-resize_1-target.png,1000,1.86,0,3543,999,meters,jsons/v1_VE1000_randls_37.json,1614716,2512648,54,Man
47,399488,DepthScenes,duration_manipulation_targetAtFixation,jsons/v1_VE1000_randls_37.json,http://54.235.29.9/FacialAge/BNav_EC2/DepthDuration/v2_depth_duration_MTurk/v2_DepthDuration_HTML.html#44,44,1366,657,1366,768,9-18-2022,9-22-21,48,depth_duration_stimuli/002989_2014-06-15_12-25-03_094959634447_rgbf000150-resize_3/002989_2014-06-15_12-25-03_094959634447_rgbf000150-resize_3-target.png,1000,4.1975,0,7571,895,meters,jsons/v1_VE1000_randls_37.json,1614716,2512648,54,Man
48,399488,DepthScenes,duration_manipulation_targetAtFixation,jsons/v1_VE1000_randls_37.json,http://54.235.29.9/FacialAge/BNav_EC2/DepthDuration/v2_depth_duration_MTurk/v2_DepthDuration_HTML.html#44,44,1366,657,1366,768,9-18-2022,9-22-21,49,depth_duration_stimuli/000866_2014-06-09_20-45-42_260595134347_rgbf000139-resize_1/000866_2014-06-09_20-45-42_260595134347_rgbf000139-resize_1-target.png,1000,3.2155,0,13444,1000,meters,jsons/v1_VE1000_randls_37.json,1614716,2512648,54,Man
49,399488,DepthScenes,duration_manipulation_targetAtFixation,jsons/v1_VE1000_randls_37.json,http://54.235.29.9/FacialAge/BNav_EC2/DepthDuration/v2_depth_duration_MTurk/v2_DepthDuration_HTML.html#44,44,1366,657,1366,768,9-18-2022,9-22-21,50,depth_duration_stimuli/002549_2014-06-24_13-41-39_094959634447_rgbf000022-resize_3/002549_2014-06-24_13-41-39_094959634447_rgbf000022-resize_3-target.png,1000,1.476,0,5685,1000,meters,jsons/v1_VE1000_randls_37.json,1614716,2512648,54,Man
50,399488,DepthScenes,duration_manipulation_targetAtFixation,jsons/v1_VE1000_randls_37.json,http://54.235.29.9/FacialAge/BNav_EC2/DepthDuration/v2_depth_duration_MTurk/v2_DepthDuration_HTML.html#44,44,1366,657,1366,768,9-18-2022,9-22-21,51,depth_duration_stimuli/002750_2014-06-22_19-08-03_094959634447_rgbf000094-resize_4/002750_2014-06-22_19-08-03_094959634447_rgbf000094-resize_4-target.png,1000,2.354,0,3077,999,meters,jsons/v1_VE1000_randls_37.json,1614716,2512648,54,Man
51,399488,DepthScenes,duration_manipulation_targetAtFixation,jsons/v1_VE1000_randls_37.json,http://54.235.29.9/FacialAge/BNav_EC2/DepthDuration/v2_depth_duration_MTurk/v2_DepthDuration_HTML.html#44,44,1366,657,1366,768,9-18-2022,9-22-21,52,depth_duration_stimuli/001016_2014-06-09_16-16-10_260595134347_rgbf000112-resize_5/001016_2014-06-09_16-16-10_260595134347_rgbf000112-resize_5-target.png,1000,1.6565,0,2860,998,meters,jsons/v1_VE1000_randls_37.json,1614716,2512648,54,Man
52,399488,DepthScenes,duration_manipulation_targetAtFixation,jsons/v1_VE1000_randls_37.json,http://54.235.29.9/FacialAge/BNav_EC2/DepthDuration/v2_depth_duration_MTurk/v2_DepthDuration_HTML.html#44,44,1366,657,1366,768,9-18-2022,9-22-21,53,depth_duration_stimuli/002340_2014-06-28_20-05-46_260595134347_rgbf000113-resize_0/002340_2014-06-28_20-05-46_260595134347_rgbf000113-resize_0-target.png,1000,2.4735,0,3063,1010,meters,jsons/v1_VE1000_randls_37.json,1614716,2512648,54,Man
53,399488,DepthScenes,duration_manipulation_targetAtFixation,jsons/v1_VE1000_randls_37.json,http://54.235.29.9/FacialAge/BNav_EC2/DepthDuration/v2_depth_duration_MTurk/v2_DepthDuration_HTML.html#44,44,1366,657,1366,768,9-18-2022,9-22-21,54,depth_duration_stimuli/000469_2014-06-09_19-42-10_260595134347_rgbf000081-resize_1/000469_2014-06-09_19-42-10_260595134347_rgbf000081-resize_1-target.png,1000,1.652,0,3527,998,meters,jsons/v1_VE1000_randls_37.json,1614716,2512648,54,Man
54,399488,DepthScenes,duration_manipulation_targetAtFixation,jsons/v1_VE1000_randls_37.json,http://54.235.29.9/FacialAge/BNav_EC2/DepthDuration/v2_depth_duration_MTurk/v2_DepthDuration_HTML.html#44,44,1366,657,1366,768,9-18-2022,9-22-21,55,depth_duration_stimuli/000483_2014-06-09_20-41-45_260595134347_rgbf000116-resize_4/000483_2014-06-09_20-41-45_260595134347_rgbf000116-resize_4-target.png,1000,1.337,0,4263,1000,meters,jsons/v1_VE1000_randls_37.json,1614716,2512648,54,Man
55,399488,DepthScenes,duration_manipulation_targetAtFixation,jsons/v1_VE1000_randls_37.json,http://54.235.29.9/FacialAge/BNav_EC2/DepthDuration/v2_depth_duration_MTurk/v2_DepthDuration_HTML.html#44,44,1366,657,1366,768,9-18-2022,9-22-21,56,depth_duration_stimuli/002118_2014-06-25_20-32-08_260595134347_rgbf000078-resize_1/002118_2014-06-25_20-32-08_260595134347_rgbf000078-resize_1-target.png,1000,2.6460000000000004,0,3368,1000,meters,jsons/v1_VE1000_randls_37.json,1614716,2512648,54,Man
56,399488,DepthScenes,duration_manipulation_targetAtFixation,jsons/v1_VE1000_randls_37.json,http://54.235.29.9/FacialAge/BNav_EC2/DepthDuration/v2_depth_duration_MTurk/v2_DepthDuration_HTML.html#44,44,1366,657,1366,768,9-18-2022,9-22-21,57,depth_duration_stimuli/001516_2014-06-20_16-25-09_260595134347_rgbf000076-resize_2/001516_2014-06-20_16-25-09_260595134347_rgbf000076-resize_2-target.png,1000,1.7445,0,3011,998,meters,jsons/v1_VE1000_randls_37.json,1614716,2512648,54,Man
57,399488,DepthScenes,duration_manipulation_targetAtFixation,jsons/v1_VE1000_randls_37.json,http://54.235.29.9/FacialAge/BNav_EC2/DepthDuration/v2_depth_duration_MTurk/v2_DepthDuration_HTML.html#44,44,1366,657,1366,768,9-18-2022,9-22-21,58,depth_duration_stimuli/002663_2014-06-13_15-50-26_094959634447_rgbf000075-resize_1/002663_2014-06-13_15-50-26_094959634447_rgbf000075-resize_1-target.png,1000,4.7495,0,3790,999,meters,jsons/v1_VE1000_randls_37.json,1614716,2512648,54,Man
58,399488,DepthScenes,duration_manipulation_targetAtFixation,jsons/v1_VE1000_randls_37.json,http://54.235.29.9/FacialAge/BNav_EC2/DepthDuration/v2_depth_duration_MTurk/v2_DepthDuration_HTML.html#44,44,1366,657,1366,768,9-18-2022,9-22-21,59,depth_duration_stimuli/000409_2014-06-04_19-23-33_260595134347_rgbf000067-resize_0/000409_2014-06-04_19-23-33_260595134347_rgbf000067-resize_0-target.png,1000,3.7335,0,2951,995,meters,jsons/v1_VE1000_randls_37.json,1614716,2512648,54,Man
59,399488,DepthScenes,duration_manipulation_targetAtFixation,jsons/v1_VE1000_randls_37.json,http://54.235.29.9/FacialAge/BNav_EC2/DepthDuration/v2_depth_duration_MTurk/v2_DepthDuration_HTML.html#44,44,1366,657,1366,768,9-18-2022,9-22-21,60,depth_duration_stimuli/002509_2014-06-24_13-19-22_094959634447_rgbf000077-resize_0/002509_2014-06-24_13-19-22_094959634447_rgbf000077-resize_0-target.png,1000,1.3065,0,5457,997,meters,jsons/v1_VE1000_randls_37.json,1614716,2512648,54,Man
60,399488,DepthScenes,duration_manipulation_targetAtFixation,jsons/v1_VE1000_randls_37.json,http://54.235.29.9/FacialAge/BNav_EC2/DepthDuration/v2_depth_duration_MTurk/v2_DepthDuration_HTML.html#44,44,1366,657,1366,768,9-18-2022,9-22-21,61,depth_duration_stimuli/003338_2014-05-20_11-01-23_094959634447_rgbf000051-resize_6/003338_2014-05-20_11-01-23_094959634447_rgbf000051-resize_6-target.png,1000,1.693,0,3188,983,meters,jsons/v1_VE1000_randls_37.json,1614716,2512648,54,Man
61,399488,DepthScenes,duration_manipulation_targetAtFixation,jsons/v1_VE1000_randls_37.json,http://54.235.29.9/FacialAge/BNav_EC2/DepthDuration/v2_depth_duration_MTurk/v2_DepthDuration_HTML.html#44,44,1366,657,1366,768,9-18-2022,9-22-21,62,depth_duration_stimuli/001570_2014-06-20_17-21-09_260595134347_rgbf000135-resize_4/001570_2014-06-20_17-21-09_260595134347_rgbf000135-resize_4-target.png,1000,4.467,0,3938,982,meters,jsons/v1_VE1000_randls_37.json,1614716,2512648,54,Man
62,399488,DepthScenes,duration_manipulation_targetAtFixation,jsons/v1_VE1000_randls_37.json,http://54.235.29.9/FacialAge/BNav_EC2/DepthDuration/v2_depth_duration_MTurk/v2_DepthDuration_HTML.html#44,44,1366,657,1366,768,9-18-2022,9-22-21,63,depth_duration_stimuli/001392_2014-06-19_16-07-59_260595134347_rgbf000046-resize_1/001392_2014-06-19_16-07-59_260595134347_rgbf000046-resize_1-target.png,1000,4.135,0,2959,998,meters,jsons/v1_VE1000_randls_37.json,1614716,2512648,54,Man
63,399488,DepthScenes,duration_manipulation_targetAtFixation,jsons/v1_VE1000_randls_37.json,http://54.235.29.9/FacialAge/BNav_EC2/DepthDuration/v2_depth_duration_MTurk/v2_DepthDuration_HTML.html#44,44,1366,657,1366,768,9-18-2022,9-22-21,64,depth_duration_stimuli/000682_2014-06-08_23-14-58_260595134347_rgbf000041-resize_5/000682_2014-06-08_23-14-58_260595134347_rgbf000041-resize_5-target.png,1000,2.7239999999999998,0,3788,1657,meters,jsons/v1_VE1000_randls_37.json,1614716,2512648,54,Man
64,399488,DepthScenes,duration_manipulation_targetAtFixation,jsons/v1_VE1000_randls_37.json,http://54.235.29.9/FacialAge/BNav_EC2/DepthDuration/v2_depth_duration_MTurk/v2_DepthDuration_HTML.html#44,44,1366,657,1366,768,9-18-2022,9-22-21,65,depth_duration_stimuli/001650_2014-06-20_12-09-00_260595134347_rgbf000087-resize_3/001650_2014-06-20_12-09-00_260595134347_rgbf000087-resize_3-target.png,1000,1.9505,0,2919,1038,meters,jsons/v1_VE1000_randls_37.json,1614716,2512648,54,Man
65,399488,DepthScenes,duration_manipulation_targetAtFixation,jsons/v1_VE1000_randls_37.json,http://54.235.29.9/FacialAge/BNav_EC2/DepthDuration/v2_depth_duration_MTurk/v2_DepthDuration_HTML.html#44,44,1366,657,1366,768,9-18-2022,9-22-21,66,depth_duration_stimuli/001222_2014-06-17_16-24-06_260595134347_rgbf000073-resize_0/001222_2014-06-17_16-24-06_260595134347_rgbf000073-resize-original.jpg,1000,1.4385,0,695808,1046,meters,jsons/v1_VE1000_randls_37.json,1614716,2512648,54,Man
66,399488,DepthScenes,duration_manipulation_targetAtFixation,jsons/v1_VE1000_randls_37.json,http://54.235.29.9/FacialAge/BNav_EC2/DepthDuration/v2_depth_duration_MTurk/v2_DepthDuration_HTML.html#44,44,1366,657,1366,768,9-18-2022,9-22-21,67,depth_duration_stimuli/000917_2014-06-09_22-45-29_260595134347_rgbf000149-resize_3/000917_2014-06-09_22-45-29_260595134347_rgbf000149-resize_3-target.png,1000,4.1865,0,3956,998,meters,jsons/v1_VE1000_randls_37.json,1614716,2512648,54,Man
67,399488,DepthScenes,duration_manipulation_targetAtFixation,jsons/v1_VE1000_randls_37.json,http://54.235.29.9/FacialAge/BNav_EC2/DepthDuration/v2_depth_duration_MTurk/v2_DepthDuration_HTML.html#44,44,1366,657,1366,768,9-18-2022,9-22-21,68,depth_duration_stimuli/002323_2014-06-28_20-01-54_260595134347_rgbf000051-resize_4/002323_2014-06-28_20-01-54_260595134347_rgbf000051-resize_4-target.png,1000,3.7310000000000003,0,7810,999,meters,jsons/v1_VE1000_randls_37.json,1614716,2512648,54,Man
68,399488,DepthScenes,duration_manipulation_targetAtFixation,jsons/v1_VE1000_randls_37.json,http://54.235.29.9/FacialAge/BNav_EC2/DepthDuration/v2_depth_duration_MTurk/v2_DepthDuration_HTML.html#44,44,1366,657,1366,768,9-18-2022,9-22-21,69,depth_duration_stimuli/001029_2014-06-08_13-17-57_260595134347_rgbf000065-resize_1/001029_2014-06-08_13-17-57_260595134347_rgbf000065-resize_1-target.png,1000,3.0835,0,2826,994,meters,jsons/v1_VE1000_randls_37.json,1614716,2512648,54,Man
69,399488,DepthScenes,duration_manipulation_targetAtFixation,jsons/v1_VE1000_randls_37.json,http://54.235.29.9/FacialAge/BNav_EC2/DepthDuration/v2_depth_duration_MTurk/v2_DepthDuration_HTML.html#44,44,1366,657,1366,768,9-18-2022,9-22-21,70,depth_duration_stimuli/000677_2014-06-08_23-10-32_260595134347_rgbf000158-resize_6/000677_2014-06-08_23-10-32_260595134347_rgbf000158-resize_6-target.png,1000,3.556,0,3970,1503,meters,jsons/v1_VE1000_randls_37.json,1614716,2512648,54,Man
70,399488,DepthScenes,duration_manipulation_targetAtFixation,jsons/v1_VE1000_randls_37.json,http://54.235.29.9/FacialAge/BNav_EC2/DepthDuration/v2_depth_duration_MTurk/v2_DepthDuration_HTML.html#44,44,1366,657,1366,768,9-18-2022,9-22-21,71,depth_duration_stimuli/000739_2014-06-08_18-45-58_260595134347_rgbf000068-resize_1/000739_2014-06-08_18-45-58_260595134347_rgbf000068-resize_1-target.png,1000,3.534,0,19718,1052,meters,jsons/v1_VE1000_randls_37.json,1614716,2512648,54,Man
71,399488,DepthScenes,duration_manipulation_targetAtFixation,jsons/v1_VE1000_randls_37.json,http://54.235.29.9/FacialAge/BNav_EC2/DepthDuration/v2_depth_duration_MTurk/v2_DepthDuration_HTML.html#44,44,1366,657,1366,768,9-18-2022,9-22-21,72,depth_duration_stimuli/000734_2014-06-08_17-39-11_260595134347_rgbf000128-resize_2/000734_2014-06-08_17-39-11_260595134347_rgbf000128-resize_2-target.png,1000,4.098,0,3954,994,meters,jsons/v1_VE1000_randls_37.json,1614716,2512648,54,Man
72,399488,DepthScenes,duration_manipulation_targetAtFixation,jsons/v1_VE1000_randls_37.json,http://54.235.29.9/FacialAge/BNav_EC2/DepthDuration/v2_depth_duration_MTurk/v2_DepthDuration_HTML.html#44,44,1366,657,1366,768,9-18-2022,9-22-21,73,depth_duration_stimuli/001808_2014-06-26_20-50-58_260595134347_rgbf000029-resize_1/001808_2014-06-26_20-50-58_260595134347_rgbf000029-resize_1-target.png,1000,4.249,0,3188,999,meters,jsons/v1_VE1000_randls_37.json,1614716,2512648,54,Man
73,399488,DepthScenes,duration_manipulation_targetAtFixation,jsons/v1_VE1000_randls_37.json,http://54.235.29.9/FacialAge/BNav_EC2/DepthDuration/v2_depth_duration_MTurk/v2_DepthDuration_HTML.html#44,44,1366,657,1366,768,9-18-2022,9-22-21,74,depth_duration_stimuli/001815_2014-06-26_20-52-55_260595134347_rgbf000020-resize_0/001815_2014-06-26_20-52-55_260595134347_rgbf000020-resize_0-target.png,1000,3.3865,0,2805,996,meters,jsons/v1_VE1000_randls_37.json,1614716,2512648,54,Man
74,399488,DepthScenes,duration_manipulation_targetAtFixation,jsons/v1_VE1000_randls_37.json,http://54.235.29.9/FacialAge/BNav_EC2/DepthDuration/v2_depth_duration_MTurk/v2_DepthDuration_HTML.html#44,44,1366,657,1366,768,9-18-2022,9-22-21,75,depth_duration_stimuli/001199_2014-06-17_16-03-48_260595134347_rgbf000077-resize_0/001199_2014-06-17_16-03-48_260595134347_rgbf000077-resize_0-target.png,1000,3.4375,0,11258,998,meters,jsons/v1_VE1000_randls_37.json,1614716,2512648,54,Man
75,399488,DepthScenes,duration_manipulation_targetAtFixation,jsons/v1_VE1000_randls_37.json,http://54.235.29.9/FacialAge/BNav_EC2/DepthDuration/v2_depth_duration_MTurk/v2_DepthDuration_HTML.html#44,44,1366,657,1366,768,9-18-2022,9-22-21,76,depth_duration_stimuli/000502_2014-06-08_23-02-32_260595134347_rgbf000063-resize_4/000502_2014-06-08_23-02-32_260595134347_rgbf000063-resize_4-target.png,1000,2.431,0,3702,1004,meters,jsons/v1_VE1000_randls_37.json,1614716,2512648,54,Man
76,399488,DepthScenes,duration_manipulation_targetAtFixation,jsons/v1_VE1000_randls_37.json,http://54.235.29.9/FacialAge/BNav_EC2/DepthDuration/v2_depth_duration_MTurk/v2_DepthDuration_HTML.html#44,44,1366,657,1366,768,9-18-2022,9-22-21,77,depth_duration_stimuli/001167_2014-06-17_15-38-07_260595134347_rgbf000108-resize_0/001167_2014-06-17_15-38-07_260595134347_rgbf000108-resize_0-target.png,1000,1.8505,0,3247,984,meters,jsons/v1_VE1000_randls_37.json,1614716,2512648,54,Man
77,399488,DepthScenes,duration_manipulation_targetAtFixation,jsons/v1_VE1000_randls_37.json,http://54.235.29.9/FacialAge/BNav_EC2/DepthDuration/v2_depth_duration_MTurk/v2_DepthDuration_HTML.html#44,44,1366,657,1366,768,9-18-2022,9-22-21,78,depth_duration_stimuli/003587_2014-05-23_16-48-02_094959634447_rgbf002384-resize_2/003587_2014-05-23_16-48-02_094959634447_rgbf002384-resize_2-target.png,1000,1.357,0,9838,1000,meters,jsons/v1_VE1000_randls_37.json,1614716,2512648,54,Man
78,399488,DepthScenes,duration_manipulation_targetAtFixation,jsons/v1_VE1000_randls_37.json,http://54.235.29.9/FacialAge/BNav_EC2/DepthDuration/v2_depth_duration_MTurk/v2_DepthDuration_HTML.html#44,44,1366,657,1366,768,9-18-2022,9-22-21,79,depth_duration_stimuli/002784_2014-06-22_19-26-30_094959634447_rgbf000083-resize_3/002784_2014-06-22_19-26-30_094959634447_rgbf000083-resize_3-target.png,1000,1.8046666666667,0,22528,998,meters,jsons/v1_VE1000_randls_37.json,1614716,2512648,54,Man
79,399488,DepthScenes,duration_manipulation_targetAtFixation,jsons/v1_VE1000_randls_37.json,http://54.235.29.9/FacialAge/BNav_EC2/DepthDuration/v2_depth_duration_MTurk/v2_DepthDuration_HTML.html#44,44,1366,657,1366,768,9-18-2022,9-22-21,80,depth_duration_stimuli/001100_2014-06-15_17-46-26_260595134347_rgbf000225-resize_2/001100_2014-06-15_17-46-26_260595134347_rgbf000225-resize_2-target.png,1000,2.24,0,2977,991,meters,jsons/v1_VE1000_randls_37.json,1614716,2512648,54,Man
80,399488,DepthScenes,duration_manipulation_targetAtFixation,jsons/v1_VE1000_randls_37.json,http://54.235.29.9/FacialAge/BNav_EC2/DepthDuration/v2_depth_duration_MTurk/v2_DepthDuration_HTML.html#44,44,1366,657,1366,768,9-18-2022,9-22-21,81,depth_duration_stimuli/001806_2014-06-26_20-50-20_260595134347_rgbf000091-resize_1/001806_2014-06-26_20-50-20_260595134347_rgbf000091-resize_1-target.png,1000,2.7305,0,3114,986,meters,jsons/v1_VE1000_randls_37.json,1614716,2512648,54,Man
81,399488,DepthScenes,duration_manipulation_targetAtFixation,jsons/v1_VE1000_randls_37.json,http://54.235.29.9/FacialAge/BNav_EC2/DepthDuration/v2_depth_duration_MTurk/v2_DepthDuration_HTML.html#44,44,1366,657,1366,768,9-18-2022,9-22-21,82,depth_duration_stimuli/001617_2014-06-20_11-35-32_260595134347_rgbf000066-resize_1/001617_2014-06-20_11-35-32_260595134347_rgbf000066-resize_1-target.png,1000,3.7910000000000004,0,3294,999,meters,jsons/v1_VE1000_randls_37.json,1614716,2512648,54,Man
82,399488,DepthScenes,duration_manipulation_targetAtFixation,jsons/v1_VE1000_randls_37.json,http://54.235.29.9/FacialAge/BNav_EC2/DepthDuration/v2_depth_duration_MTurk/v2_DepthDuration_HTML.html#44,44,1366,657,1366,768,9-18-2022,9-22-21,83,depth_duration_stimuli/001150_2014-06-17_15-27-34_260595134347_rgbf000108-resize_2/001150_2014-06-17_15-27-34_260595134347_rgbf000108-resize_2-target.png,1000,4.0325,0,2915,991,meters,jsons/v1_VE1000_randls_37.json,1614716,2512648,54,Man
83,399488,DepthScenes,duration_manipulation_targetAtFixation,jsons/v1_VE1000_randls_37.json,http://54.235.29.9/FacialAge/BNav_EC2/DepthDuration/v2_depth_duration_MTurk/v2_DepthDuration_HTML.html#44,44,1366,657,1366,768,9-18-2022,9-22-21,84,depth_duration_stimuli/000665_2014-06-09_20-42-35_260595134347_rgbf000110-resize_1/000665_2014-06-09_20-42-35_260595134347_rgbf000110-resize_1-target.png,1000,3.057,0,8031,1013,meters,jsons/v1_VE1000_randls_37.json,1614716,2512648,54,Man
84,399488,DepthScenes,duration_manipulation_targetAtFixation,jsons/v1_VE1000_randls_37.json,http://54.235.29.9/FacialAge/BNav_EC2/DepthDuration/v2_depth_duration_MTurk/v2_DepthDuration_HTML.html#44,44,1366,657,1366,768,9-18-2022,9-22-21,85,depth_duration_stimuli/001158_2014-06-17_15-32-16_260595134347_rgbf000138-resize_2/001158_2014-06-17_15-32-16_260595134347_rgbf000138-resize_2-target.png,1000,4.5315,0,4764,1023,meters,jsons/v1_VE1000_randls_37.json,1614716,2512648,54,Man
85,399488,DepthScenes,duration_manipulation_targetAtFixation,jsons/v1_VE1000_randls_37.json,http://54.235.29.9/FacialAge/BNav_EC2/DepthDuration/v2_depth_duration_MTurk/v2_DepthDuration_HTML.html#44,44,1366,657,1366,768,9-18-2022,9-22-21,86,depth_duration_stimuli/000556_2014-06-09_22-42-56_260595134347_rgbf000214-resize_1/000556_2014-06-09_22-42-56_260595134347_rgbf000214-resize_1-target.png,1000,4.8415,0,2736,1006,meters,jsons/v1_VE1000_randls_37.json,1614716,2512648,54,Man
86,399488,DepthScenes,duration_manipulation_targetAtFixation,jsons/v1_VE1000_randls_37.json,http://54.235.29.9/FacialAge/BNav_EC2/DepthDuration/v2_depth_duration_MTurk/v2_DepthDuration_HTML.html#44,44,1366,657,1366,768,9-18-2022,9-22-21,87,depth_duration_stimuli/000368_2014-06-09_15-53-01_260595134347_rgbf000155-resize_2/000368_2014-06-09_15-53-01_260595134347_rgbf000155-resize_2-target.png,1000,2.4859999999999998,0,3086,989,meters,jsons/v1_VE1000_randls_37.json,1614716,2512648,54,Man
87,399488,DepthScenes,duration_manipulation_targetAtFixation,jsons/v1_VE1000_randls_37.json,http://54.235.29.9/FacialAge/BNav_EC2/DepthDuration/v2_depth_duration_MTurk/v2_DepthDuration_HTML.html#44,44,1366,657,1366,768,9-18-2022,9-22-21,88,depth_duration_stimuli/002678_2014-06-13_16-15-32_094959634447_rgbf000151-resize_6/002678_2014-06-13_16-15-32_094959634447_rgbf000151-resize_6-target.png,1000,2.1830000000000003,0,9059,998,meters,jsons/v1_VE1000_randls_37.json,1614716,2512648,54,Man
88,399488,DepthScenes,duration_manipulation_targetAtFixation,jsons/v1_VE1000_randls_37.json,http://54.235.29.9/FacialAge/BNav_EC2/DepthDuration/v2_depth_duration_MTurk/v2_DepthDuration_HTML.html#44,44,1366,657,1366,768,9-18-2022,9-22-21,89,depth_duration_stimuli/002964_2014-06-08_17-46-11_094959634447_rgbf000091-resize_4/002964_2014-06-08_17-46-11_094959634447_rgbf000091-resize_4-target.png,1000,1.6909999999999998,0,3076,998,meters,jsons/v1_VE1000_randls_37.json,1614716,2512648,54,Man
89,399488,DepthScenes,duration_manipulation_targetAtFixation,jsons/v1_VE1000_randls_37.json,http://54.235.29.9/FacialAge/BNav_EC2/DepthDuration/v2_depth_duration_MTurk/v2_DepthDuration_HTML.html#44,44,1366,657,1366,768,9-18-2022,9-22-21,90,depth_duration_stimuli/002136_2014-06-25_21-18-03_260595134347_rgbf000109-resize_3/002136_2014-06-25_21-18-03_260595134347_rgbf000109-resize_3-target.png,1000,1.9569999999999999,0,3242,1005,meters,jsons/v1_VE1000_randls_37.json,1614716,2512648,54,Man
90,399488,DepthScenes,duration_manipulation_targetAtFixation,jsons/v1_VE1000_randls_37.json,http://54.235.29.9/FacialAge/BNav_EC2/DepthDuration/v2_depth_duration_MTurk/v2_DepthDuration_HTML.html#44,44,1366,657,1366,768,9-18-2022,9-22-21,91,depth_duration_stimuli/001244_2014-06-17_16-47-45_260595134347_rgbf000030-resize_4/001244_2014-06-17_16-47-45_260595134347_rgbf000030-resize_4-target.png,1000,2.0425,0,3092,999,meters,jsons/v1_VE1000_randls_37.json,1614716,2512648,54,Man
91,399488,DepthScenes,duration_manipulation_targetAtFixation,jsons/v1_VE1000_randls_37.json,http://54.235.29.9/FacialAge/BNav_EC2/DepthDuration/v2_depth_duration_MTurk/v2_DepthDuration_HTML.html#44,44,1366,657,1366,768,9-18-2022,9-22-21,92,depth_duration_stimuli/003495_2014-05-21_16-01-51_094959634447_rgbf000100-resize_3/003495_2014-05-21_16-01-51_094959634447_rgbf000100-resize_3-target.png,1000,1.6255,0,2951,1001,meters,jsons/v1_VE1000_randls_37.json,1614716,2512648,54,Man
92,399488,DepthScenes,duration_manipulation_targetAtFixation,jsons/v1_VE1000_randls_37.json,http://54.235.29.9/FacialAge/BNav_EC2/DepthDuration/v2_depth_duration_MTurk/v2_DepthDuration_HTML.html#44,44,1366,657,1366,768,9-18-2022,9-22-21,93,depth_duration_stimuli/002375_2014-06-28_20-13-44_260595134347_rgbf000032-resize_1/002375_2014-06-28_20-13-44_260595134347_rgbf000032-resize_1-target.png,1000,4.0175,0,2783,1002,meters,jsons/v1_VE1000_randls_37.json,1614716,2512648,54,Man
93,399488,DepthScenes,duration_manipulation_targetAtFixation,jsons/v1_VE1000_randls_37.json,http://54.235.29.9/FacialAge/BNav_EC2/DepthDuration/v2_depth_duration_MTurk/v2_DepthDuration_HTML.html#44,44,1366,657,1366,768,9-18-2022,9-22-21,94,depth_duration_stimuli/002657_2014-06-13_15-29-54_094959634447_rgbf000150-resize_1/002657_2014-06-13_15-29-54_094959634447_rgbf000150-resize_1-target.png,1000,4.919,0,2837,999,meters,jsons/v1_VE1000_randls_37.json,1614716,2512648,54,Man
94,399488,DepthScenes,duration_manipulation_targetAtFixation,jsons/v1_VE1000_randls_37.json,http://54.235.29.9/FacialAge/BNav_EC2/DepthDuration/v2_depth_duration_MTurk/v2_DepthDuration_HTML.html#44,44,1366,657,1366,768,9-18-2022,9-22-21,95,depth_duration_stimuli/003534_2014-05-22_15-06-10_094959634447_rgbf000102-resize_4/003534_2014-05-22_15-06-10_094959634447_rgbf000102-resize_4-target.png,1000,1.426,0,4139,1005,meters,jsons/v1_VE1000_randls_37.json,1614716,2512648,54,Man
95,399488,DepthScenes,duration_manipulation_targetAtFixation,jsons/v1_VE1000_randls_37.json,http://54.235.29.9/FacialAge/BNav_EC2/DepthDuration/v2_depth_duration_MTurk/v2_DepthDuration_HTML.html#44,44,1366,657,1366,768,9-18-2022,9-22-21,96,depth_duration_stimuli/002637_2014-06-24_14-51-13_094959634447_rgbf000066-resize_4/002637_2014-06-24_14-51-13_094959634447_rgbf000066-resize_4-target.png,1000,1.9955,0,63438,1047,meters,jsons/v1_VE1000_randls_37.json,1614716,2512648,54,Man
96,399488,DepthScenes,duration_manipulation_targetAtFixation,jsons/v1_VE1000_randls_37.json,http://54.235.29.9/FacialAge/BNav_EC2/DepthDuration/v2_depth_duration_MTurk/v2_DepthDuration_HTML.html#44,44,1366,657,1366,768,9-18-2022,9-22-21,97,depth_duration_stimuli/001449_2014-06-19_17-01-27_260595134347_rgbf000116-resize_2/001449_2014-06-19_17-01-27_260595134347_rgbf000116-resize_2-target.png,1000,3.452,0,18752,1006,meters,jsons/v1_VE1000_randls_37.json,1614716,2512648,54,Man
97,399488,DepthScenes,duration_manipulation_targetAtFixation,jsons/v1_VE1000_randls_37.json,http://54.235.29.9/FacialAge/BNav_EC2/DepthDuration/v2_depth_duration_MTurk/v2_DepthDuration_HTML.html#44,44,1366,657,1366,768,9-18-2022,9-22-21,98,depth_duration_stimuli/001450_2014-06-19_17-02-03_260595134347_rgbf000203-resize_4/001450_2014-06-19_17-02-03_260595134347_rgbf000203-resize_4-target.png,1000,4.0106666666667,0,5158,990,meters,jsons/v1_VE1000_randls_37.json,1614716,2512648,54,Man
98,399488,DepthScenes,duration_manipulation_targetAtFixation,jsons/v1_VE1000_randls_37.json,http://54.235.29.9/FacialAge/BNav_EC2/DepthDuration/v2_depth_duration_MTurk/v2_DepthDuration_HTML.html#44,44,1366,657,1366,768,9-18-2022,9-22-21,99,depth_duration_stimuli/001540_2014-06-20_17-01-05_260595134347_rgbf000086-resize_2/001540_2014-06-20_17-01-05_260595134347_rgbf000086-resize-original.jpg,1000,1.459,0,18223,985,meters,jsons/v1_VE1000_randls_37.json,1614716,2512648,54,Man
99,399488,DepthScenes,duration_manipulation_targetAtFixation,jsons/v1_VE1000_randls_37.json,http://54.235.29.9/FacialAge/BNav_EC2/DepthDuration/v2_depth_duration_MTurk/v2_DepthDuration_HTML.html#44,44,1366,657,1366,768,9-18-2022,9-22-21,100,depth_duration_stimuli/000788_2014-06-08_22-34-36_260595134347_rgbf000131-resize_1/000788_2014-06-08_22-34-36_260595134347_rgbf000131-resize_1-target.png,1000,3.359,0,3512,993,meters,jsons/v1_VE1000_randls_37.json,1614716,2512648,54,Man
100,399488,DepthScenes,duration_manipulation_targetAtFixation,jsons/v1_VE1000_randls_37.json,http://54.235.29.9/FacialAge/BNav_EC2/DepthDuration/v2_depth_duration_MTurk/v2_DepthDuration_HTML.html#44,44,1366,657,1366,768,9-18-2022,9-22-21,101,depth_duration_stimuli/001235_2014-06-17_16-37-36_260595134347_rgbf000084-resize_4/001235_2014-06-17_16-37-36_260595134347_rgbf000084-resize_4-target.png,1000,3.6605,0,7810,1008,meters,jsons/v1_VE1000_randls_37.json,1614716,2512648,54,Man
101,399488,DepthScenes,duration_manipulation_targetAtFixation,jsons/v1_VE1000_randls_37.json,http://54.235.29.9/FacialAge/BNav_EC2/DepthDuration/v2_depth_duration_MTurk/v2_DepthDuration_HTML.html#44,44,1366,657,1366,768,9-18-2022,9-22-21,102,depth_duration_stimuli/001417_2014-06-19_16-25-36_260595134347_rgbf000115-resize_5/001417_2014-06-19_16-25-36_260595134347_rgbf000115-resize_5-target.png,1000,4.6255,0,4138,995,meters,jsons/v1_VE1000_randls_37.json,1614716,2512648,54,Man
102,399488,DepthScenes,duration_manipulation_targetAtFixation,jsons/v1_VE1000_randls_37.json,http://54.235.29.9/FacialAge/BNav_EC2/DepthDuration/v2_depth_duration_MTurk/v2_DepthDuration_HTML.html#44,44,1366,657,1366,768,9-18-2022,9-22-21,103,depth_duration_stimuli/003081_2014-06-15_15-19-16_094959634447_rgbf000150-resize_1/003081_2014-06-15_15-19-16_094959634447_rgbf000150-resize_1-target.png,1000,3.9125,0,3406,993,meters,jsons/v1_VE1000_randls_37.json,1614716,2512648,54,Man
103,399488,DepthScenes,duration_manipulation_targetAtFixation,jsons/v1_VE1000_randls_37.json,http://54.235.29.9/FacialAge/BNav_EC2/DepthDuration/v2_depth_duration_MTurk/v2_DepthDuration_HTML.html#44,44,1366,657,1366,768,9-18-2022,9-22-21,104,depth_duration_stimuli/000878_2014-06-08_22-52-45_260595134347_rgbf000045-resize_2/000878_2014-06-08_22-52-45_260595134347_rgbf000045-resize_2-target.png,1000,2.092,0,3376,997,meters,jsons/v1_VE1000_randls_37.json,1614716,2512648,54,Man
104,399488,DepthScenes,duration_manipulation_targetAtFixation,jsons/v1_VE1000_randls_37.json,http://54.235.29.9/FacialAge/BNav_EC2/DepthDuration/v2_depth_duration_MTurk/v2_DepthDuration_HTML.html#44,44,1366,657,1366,768,9-18-2022,9-22-21,105,depth_duration_stimuli/002953_2014-06-08_17-32-18_094959634447_rgbf000059-resize_5/002953_2014-06-08_17-32-18_094959634447_rgbf000059-resize_5-target.png,1000,1.551,0,3900,999,meters,jsons/v1_VE1000_randls_37.json,1614716,2512648,54,Man
105,399488,DepthScenes,duration_manipulation_targetAtFixation,jsons/v1_VE1000_randls_37.json,http://54.235.29.9/FacialAge/BNav_EC2/DepthDuration/v2_depth_duration_MTurk/v2_DepthDuration_HTML.html#44,44,1366,657,1366,768,9-18-2022,9-22-21,106,depth_duration_stimuli/000736_2014-06-08_18-24-15_260595134347_rgbf000206-resize_3/000736_2014-06-08_18-24-15_260595134347_rgbf000206-resize_3-target.png,1000,3.515,0,6249,999,meters,jsons/v1_VE1000_randls_37.json,1614716,2512648,54,Man
106,399488,DepthScenes,duration_manipulation_targetAtFixation,jsons/v1_VE1000_randls_37.json,http://54.235.29.9/FacialAge/BNav_EC2/DepthDuration/v2_depth_duration_MTurk/v2_DepthDuration_HTML.html#44,44,1366,657,1366,768,9-18-2022,9-22-21,107,depth_duration_stimuli/000137_2014-05-20_17-04-49_260595134347_rgbf000120-resize_1/000137_2014-05-20_17-04-49_260595134347_rgbf000120-resize_1-target.png,1000,3.786,0,12752,998,meters,jsons/v1_VE1000_randls_37.json,1614716,2512648,54,Man
107,399488,DepthScenes,duration_manipulation_targetAtFixation,jsons/v1_VE1000_randls_37.json,http://54.235.29.9/FacialAge/BNav_EC2/DepthDuration/v2_depth_duration_MTurk/v2_DepthDuration_HTML.html#44,44,1366,657,1366,768,9-18-2022,9-22-21,108,depth_duration_stimuli/001055_2014-06-08_18-45-35_260595134347_rgbf000111-resize_4/001055_2014-06-08_18-45-35_260595134347_rgbf000111-resize_4-target.png,1000,2.4290000000000003,0,5652,992,meters,jsons/v1_VE1000_randls_37.json,1614716,2512648,54,Man
108,399488,DepthScenes,duration_manipulation_targetAtFixation,jsons/v1_VE1000_randls_37.json,http://54.235.29.9/FacialAge/BNav_EC2/DepthDuration/v2_depth_duration_MTurk/v2_DepthDuration_HTML.html#44,44,1366,657,1366,768,9-18-2022,9-22-21,109,depth_duration_stimuli/000549_2014-06-08_22-10-24_260595134347_rgbf000247-resize_3/000549_2014-06-08_22-10-24_260595134347_rgbf000247-resize_3-target.png,1000,1.841,0,3172,1003,meters,jsons/v1_VE1000_randls_37.json,1614716,2512648,54,Man
109,399488,DepthScenes,duration_manipulation_targetAtFixation,jsons/v1_VE1000_randls_37.json,http://54.235.29.9/FacialAge/BNav_EC2/DepthDuration/v2_depth_duration_MTurk/v2_DepthDuration_HTML.html#44,44,1366,657,1366,768,9-18-2022,9-22-21,110,depth_duration_stimuli/000486_2014-06-09_20-47-20_260595134347_rgbf000143-resize_2/000486_2014-06-09_20-47-20_260595134347_rgbf000143-resize_2-target.png,1000,4.8325,0,9606,993,meters,jsons/v1_VE1000_randls_37.json,1614716,2512648,54,Man
110,399488,DepthScenes,duration_manipulation_targetAtFixation,jsons/v1_VE1000_randls_37.json,http://54.235.29.9/FacialAge/BNav_EC2/DepthDuration/v2_depth_duration_MTurk/v2_DepthDuration_HTML.html#44,44,1366,657,1366,768,9-18-2022,9-22-21,111,depth_duration_stimuli/003083_2014-06-15_15-21-03_094959634447_rgbf000063-resize_1/003083_2014-06-15_15-21-03_094959634447_rgbf000063-resize_1-target.png,1000,4.1405,0,2892,994,meters,jsons/v1_VE1000_randls_37.json,1614716,2512648,54,Man
111,399488,DepthScenes,duration_manipulation_targetAtFixation,jsons/v1_VE1000_randls_37.json,http://54.235.29.9/FacialAge/BNav_EC2/DepthDuration/v2_depth_duration_MTurk/v2_DepthDuration_HTML.html#44,44,1366,657,1366,768,9-18-2022,9-22-21,112,depth_duration_stimuli/002788_2014-06-22_19-36-03_094959634447_rgbf000088-resize_2/002788_2014-06-22_19-36-03_094959634447_rgbf000088-resize_2-target.png,1000,1.6465,0,3532,993,meters,jsons/v1_VE1000_randls_37.json,1614716,2512648,54,Man
112,399488,DepthScenes,duration_manipulation_targetAtFixation,jsons/v1_VE1000_randls_37.json,http://54.235.29.9/FacialAge/BNav_EC2/DepthDuration/v2_depth_duration_MTurk/v2_DepthDuration_HTML.html#44,44,1366,657,1366,768,9-18-2022,9-22-21,113,depth_duration_stimuli/000749_2014-06-08_21-55-06_260595134347_rgbf000070-resize_2/000749_2014-06-08_21-55-06_260595134347_rgbf000070-resize_2-target.png,1000,2.331,0,8314,1000,meters,jsons/v1_VE1000_randls_37.json,1614716,2512648,54,Man
113,399488,DepthScenes,duration_manipulation_targetAtFixation,jsons/v1_VE1000_randls_37.json,http://54.235.29.9/FacialAge/BNav_EC2/DepthDuration/v2_depth_duration_MTurk/v2_DepthDuration_HTML.html#44,44,1366,657,1366,768,9-18-2022,9-22-21,114,depth_duration_stimuli/000414_2014-06-04_19-49-13_260595134347_rgbf000044-resize_0/000414_2014-06-04_19-49-13_260595134347_rgbf000044-resize_0-target.png,1000,4.329,0,3039,999,meters,jsons/v1_VE1000_randls_37.json,1614716,2512648,54,Man
114,399488,DepthScenes,duration_manipulation_targetAtFixation,jsons/v1_VE1000_randls_37.json,http://54.235.29.9/FacialAge/BNav_EC2/DepthDuration/v2_depth_duration_MTurk/v2_DepthDuration_HTML.html#44,44,1366,657,1366,768,9-18-2022,9-22-21,115,depth_duration_stimuli/003129_2014-05-12_10-48-10_094959634447_rgbf000100-resize_0/003129_2014-05-12_10-48-10_094959634447_rgbf000100-resize_0-target.png,1000,4.9305,0,2745,994,meters,jsons/v1_VE1000_randls_37.json,1614716,2512648,54,Man
115,399488,DepthScenes,duration_manipulation_targetAtFixation,jsons/v1_VE1000_randls_37.json,http://54.235.29.9/FacialAge/BNav_EC2/DepthDuration/v2_depth_duration_MTurk/v2_DepthDuration_HTML.html#44,44,1366,657,1366,768,9-18-2022,9-22-21,116,depth_duration_stimuli/001170_2014-06-17_15-43-44_260595134347_rgbf000096-resize_6/001170_2014-06-17_15-43-44_260595134347_rgbf000096-resize-original.jpg,1000,1.1909999999999998,0,2964,1001,meters,jsons/v1_VE1000_randls_37.json,1614716,2512648,54,Man
116,399488,DepthScenes,duration_manipulation_targetAtFixation,jsons/v1_VE1000_randls_37.json,http://54.235.29.9/FacialAge/BNav_EC2/DepthDuration/v2_depth_duration_MTurk/v2_DepthDuration_HTML.html#44,44,1366,657,1366,768,9-18-2022,9-22-21,117,depth_duration_stimuli/002763_2014-06-22_19-13-10_094959634447_rgbf000075-resize_4/002763_2014-06-22_19-13-10_094959634447_rgbf000075-resize_4-target.png,1000,1.68375,0,3155,992,meters,jsons/v1_VE1000_randls_37.json,1614716,2512648,54,Man
117,399488,DepthScenes,duration_manipulation_targetAtFixation,jsons/v1_VE1000_randls_37.json,http://54.235.29.9/FacialAge/BNav_EC2/DepthDuration/v2_depth_duration_MTurk/v2_DepthDuration_HTML.html#44,44,1366,657,1366,768,9-18-2022,9-22-21,118,depth_duration_stimuli/002209_2014-06-28_18-36-10_260595134347_rgbf000051-resize_1/002209_2014-06-28_18-36-10_260595134347_rgbf000051-resize_1-target.png,1000,2.057,0,8408,1118,meters,jsons/v1_VE1000_randls_37.json,1614716,2512648,54,Man
118,399488,DepthScenes,duration_manipulation_targetAtFixation,jsons/v1_VE1000_randls_37.json,http://54.235.29.9/FacialAge/BNav_EC2/DepthDuration/v2_depth_duration_MTurk/v2_DepthDuration_HTML.html#44,44,1366,657,1366,768,9-18-2022,9-22-21,119,depth_duration_stimuli/000436_2014-06-09_22-25-11_260595134347_rgbf000137-resize_1/000436_2014-06-09_22-25-11_260595134347_rgbf000137-resize_1-target.png,1000,4.0705,0,3314,997,meters,jsons/v1_VE1000_randls_37.json,1614716,2512648,54,Man
119,399488,DepthScenes,duration_manipulation_targetAtFixation,jsons/v1_VE1000_randls_37.json,http://54.235.29.9/FacialAge/BNav_EC2/DepthDuration/v2_depth_duration_MTurk/v2_DepthDuration_HTML.html#44,44,1366,657,1366,768,9-18-2022,9-22-21,120,depth_duration_stimuli/002444_2014-06-28_20-32-08_260595134347_rgbf000027-resize_0/002444_2014-06-28_20-32-08_260595134347_rgbf000027-resize_0-target.png,1000,4.388999999999999,0,4021,992,meters,jsons/v1_VE1000_randls_37.json,1614716,2512648,54,Man
120,399488,DepthScenes,duration_manipulation_targetAtFixation,jsons/v1_VE1000_randls_37.json,http://54.235.29.9/FacialAge/BNav_EC2/DepthDuration/v2_depth_duration_MTurk/v2_DepthDuration_HTML.html#44,44,1366,657,1366,768,9-18-2022,9-22-21,121,depth_duration_stimuli/002570_2014-06-24_13-59-54_094959634447_rgbf000059-resize_0/002570_2014-06-24_13-59-54_094959634447_rgbf000059-resize_0-target.png,1000,4.037,0,2966,995,meters,jsons/v1_VE1000_randls_37.json,1614716,2512648,54,Man
121,399488,DepthScenes,duration_manipulation_targetAtFixation,jsons/v1_VE1000_randls_37.json,http://54.235.29.9/FacialAge/BNav_EC2/DepthDuration/v2_depth_duration_MTurk/v2_DepthDuration_HTML.html#44,44,1366,657,1366,768,9-18-2022,9-22-21,122,depth_duration_stimuli/002467_2014-06-28_20-38-07_260595134347_rgbf000026-resize_2/002467_2014-06-28_20-38-07_260595134347_rgbf000026-resize_2-target.png,1000,4.742,0,10444,1014,meters,jsons/v1_VE1000_randls_37.json,1614716,2512648,54,Man
122,399488,DepthScenes,duration_manipulation_targetAtFixation,jsons/v1_VE1000_randls_37.json,http://54.235.29.9/FacialAge/BNav_EC2/DepthDuration/v2_depth_duration_MTurk/v2_DepthDuration_HTML.html#44,44,1366,657,1366,768,9-18-2022,9-22-21,123,depth_duration_stimuli/003621_2014-05-23_18-06-08_094959634447_rgbf000101-resize_1/003621_2014-05-23_18-06-08_094959634447_rgbf000101-resize_1-target.png,1000,3.9835,0,3199,1002,meters,jsons/v1_VE1000_randls_37.json,1614716,2512648,54,Man
123,399488,DepthScenes,duration_manipulation_targetAtFixation,jsons/v1_VE1000_randls_37.json,http://54.235.29.9/FacialAge/BNav_EC2/DepthDuration/v2_depth_duration_MTurk/v2_DepthDuration_HTML.html#44,44,1366,657,1366,768,9-18-2022,9-22-21,124,depth_duration_stimuli/001584_2014-06-20_11-07-43_260595134347_rgbf000002-resize_1/001584_2014-06-20_11-07-43_260595134347_rgbf000002-resize_1-target.png,1000,3.53,0,12423,990,meters,jsons/v1_VE1000_randls_37.json,1614716,2512648,54,Man
124,399488,DepthScenes,duration_manipulation_targetAtFixation,jsons/v1_VE1000_randls_37.json,http://54.235.29.9/FacialAge/BNav_EC2/DepthDuration/v2_depth_duration_MTurk/v2_DepthDuration_HTML.html#44,44,1366,657,1366,768,9-18-2022,9-22-21,125,depth_duration_stimuli/001555_2014-06-20_17-12-10_260595134347_rgbf000065-resize_4/001555_2014-06-20_17-12-10_260595134347_rgbf000065-resize_4-target.png,1000,1.633,0,3396,989,meters,jsons/v1_VE1000_randls_37.json,1614716,2512648,54,Man
125,399488,DepthScenes,duration_manipulation_targetAtFixation,jsons/v1_VE1000_randls_37.json,http://54.235.29.9/FacialAge/BNav_EC2/DepthDuration/v2_depth_duration_MTurk/v2_DepthDuration_HTML.html#44,44,1366,657,1366,768,9-18-2022,9-22-21,126,depth_duration_stimuli/000103_2014-05-14_22-01-17_260595134347_rgbf000152-resize_5/000103_2014-05-14_22-01-17_260595134347_rgbf000152-resize_5-target.png,1000,1.993,0,14497,1000,meters,jsons/v1_VE1000_randls_37.json,1614716,2512648,54,Man
126,399488,DepthScenes,duration_manipulation_targetAtFixation,jsons/v1_VE1000_randls_37.json,http://54.235.29.9/FacialAge/BNav_EC2/DepthDuration/v2_depth_duration_MTurk/v2_DepthDuration_HTML.html#44,44,1366,657,1366,768,9-18-2022,9-22-21,127,depth_duration_stimuli/002630_2014-06-24_14-47-50_094959634447_rgbf000055-resize_1/002630_2014-06-24_14-47-50_094959634447_rgbf000055-resize_1-target.png,1000,3.0095,0,3246,997,meters,jsons/v1_VE1000_randls_37.json,1614716,2512648,54,Man
127,399488,DepthScenes,duration_manipulation_targetAtFixation,jsons/v1_VE1000_randls_37.json,http://54.235.29.9/FacialAge/BNav_EC2/DepthDuration/v2_depth_duration_MTurk/v2_DepthDuration_HTML.html#44,44,1366,657,1366,768,9-18-2022,9-22-21,128,depth_duration_stimuli/002758_2014-06-22_19-11-20_094959634447_rgbf000128-resize_1/002758_2014-06-22_19-11-20_094959634447_rgbf000128-resize_1-target.png,1000,2.555,7,3818,1009,meters,jsons/v1_VE1000_randls_37.json,1614716,2512648,54,Man
128,399488,DepthScenes,duration_manipulation_targetAtFixation,jsons/v1_VE1000_randls_37.json,http://54.235.29.9/FacialAge/BNav_EC2/DepthDuration/v2_depth_duration_MTurk/v2_DepthDuration_HTML.html#44,44,1366,657,1366,768,9-18-2022,9-22-21,129,depth_duration_stimuli/001110_2014-06-15_17-25-28_260595134347_rgbf000150-resize_1/001110_2014-06-15_17-25-28_260595134347_rgbf000150-resize_1-target.png,1000,1.7115,0,3796,986,meters,jsons/v1_VE1000_randls_37.json,1614716,2512648,54,Man
129,399488,DepthScenes,duration_manipulation_targetAtFixation,jsons/v1_VE1000_randls_37.json,http://54.235.29.9/FacialAge/BNav_EC2/DepthDuration/v2_depth_duration_MTurk/v2_DepthDuration_HTML.html#44,44,1366,657,1366,768,9-18-2022,9-22-21,130,depth_duration_stimuli/000927_2014-06-09_16-32-30_260595134347_rgbf000123-resize_3/000927_2014-06-09_16-32-30_260595134347_rgbf000123-resize_3-target.png,1000,2.6785,0,3637,994,meters,jsons/v1_VE1000_randls_37.json,1614716,2512648,54,Man
130,399488,DepthScenes,duration_manipulation_targetAtFixation,jsons/v1_VE1000_randls_37.json,http://54.235.29.9/FacialAge/BNav_EC2/DepthDuration/v2_depth_duration_MTurk/v2_DepthDuration_HTML.html#44,44,1366,657,1366,768,9-18-2022,9-22-21,131,depth_duration_stimuli/000470_2014-06-09_19-42-40_260595134347_rgbf000094-resize_1/000470_2014-06-09_19-42-40_260595134347_rgbf000094-resize_1-target.png,1000,1.831,0,2682,998,meters,jsons/v1_VE1000_randls_37.json,1614716,2512648,54,Man
131,399488,DepthScenes,duration_manipulation_targetAtFixation,jsons/v1_VE1000_randls_37.json,http://54.235.29.9/FacialAge/BNav_EC2/DepthDuration/v2_depth_duration_MTurk/v2_DepthDuration_HTML.html#44,44,1366,657,1366,768,9-18-2022,9-22-21,132,depth_duration_stimuli/000109_2014-05-14_23-41-52_260595134347_rgbf000035-resize_9/000109_2014-05-14_23-41-52_260595134347_rgbf000035-resize_9-target.png,1000,1.3545,0,2810,985,meters,jsons/v1_VE1000_randls_37.json,1614716,2512648,54,Man
132,399488,DepthScenes,duration_manipulation_targetAtFixation,jsons/v1_VE1000_randls_37.json,http://54.235.29.9/FacialAge/BNav_EC2/DepthDuration/v2_depth_duration_MTurk/v2_DepthDuration_HTML.html#44,44,1366,657,1366,768,9-18-2022,9-22-21,133,depth_duration_stimuli/003492_2014-05-21_15-50-55_094959634447_rgbf000828-resize_1/003492_2014-05-21_15-50-55_094959634447_rgbf000828-resize_1-target.png,1000,4.06875,0,3823,995,meters,jsons/v1_VE1000_randls_37.json,1614716,2512648,54,Man
133,399488,DepthScenes,duration_manipulation_targetAtFixation,jsons/v1_VE1000_randls_37.json,http://54.235.29.9/FacialAge/BNav_EC2/DepthDuration/v2_depth_duration_MTurk/v2_DepthDuration_HTML.html#44,44,1366,657,1366,768,9-18-2022,9-22-21,134,depth_duration_stimuli/002568_2014-06-24_13-59-21_094959634447_rgbf000062-resize_4/002568_2014-06-24_13-59-21_094959634447_rgbf000062-resize_4-target.png,1000,3.015,0,3958,999,meters,jsons/v1_VE1000_randls_37.json,1614716,2512648,54,Man
134,399488,DepthScenes,duration_manipulation_targetAtFixation,jsons/v1_VE1000_randls_37.json,http://54.235.29.9/FacialAge/BNav_EC2/DepthDuration/v2_depth_duration_MTurk/v2_DepthDuration_HTML.html#44,44,1366,657,1366,768,9-18-2022,9-22-21,135,depth_duration_stimuli/002072_2014-06-24_21-48-06_260595134347_rgbf000115-resize_0/002072_2014-06-24_21-48-06_260595134347_rgbf000115-resize-original.jpg,1000,4.702,0,3845,997,meters,jsons/v1_VE1000_randls_37.json,1614716,2512648,54,Man
135,399488,DepthScenes,duration_manipulation_targetAtFixation,jsons/v1_VE1000_randls_37.json,http://54.235.29.9/FacialAge/BNav_EC2/DepthDuration/v2_depth_duration_MTurk/v2_DepthDuration_HTML.html#44,44,1366,657,1366,768,9-18-2022,9-22-21,136,depth_duration_stimuli/000692_2014-06-08_13-09-42_260595134347_rgbf000199-resize_2/000692_2014-06-08_13-09-42_260595134347_rgbf000199-resize_2-target.png,1000,3.661,0,4156,995,meters,jsons/v1_VE1000_randls_37.json,1614716,2512648,54,Man
136,399488,DepthScenes,duration_manipulation_targetAtFixation,jsons/v1_VE1000_randls_37.json,http://54.235.29.9/FacialAge/BNav_EC2/DepthDuration/v2_depth_duration_MTurk/v2_DepthDuration_HTML.html#44,44,1366,657,1366,768,9-18-2022,9-22-21,137,depth_duration_stimuli/001094_2014-06-15_17-36-00_260595134347_rgbf000205-resize_0/001094_2014-06-15_17-36-00_260595134347_rgbf000205-resize_0-target.png,1000,4.2175,0,12693,998,meters,jsons/v1_VE1000_randls_37.json,1614716,2512648,54,Man
137,399488,DepthScenes,duration_manipulation_targetAtFixation,jsons/v1_VE1000_randls_37.json,http://54.235.29.9/FacialAge/BNav_EC2/DepthDuration/v2_depth_duration_MTurk/v2_DepthDuration_HTML.html#44,44,1366,657,1366,768,9-18-2022,9-22-21,138,depth_duration_stimuli/001164_2014-06-17_15-35-46_260595134347_rgbf000085-resize_3/001164_2014-06-17_15-35-46_260595134347_rgbf000085-resize_3-target.png,1000,2.354,0,2906,999,meters,jsons/v1_VE1000_randls_37.json,1614716,2512648,54,Man
138,399488,DepthScenes,duration_manipulation_targetAtFixation,jsons/v1_VE1000_randls_37.json,http://54.235.29.9/FacialAge/BNav_EC2/DepthDuration/v2_depth_duration_MTurk/v2_DepthDuration_HTML.html#44,44,1366,657,1366,768,9-18-2022,9-22-21,139,depth_duration_stimuli/001136_2014-06-17_15-19-41_260595134347_rgbf000076-resize_3/001136_2014-06-17_15-19-41_260595134347_rgbf000076-resize_3-target.png,1000,1.8655,0,2847,1001,meters,jsons/v1_VE1000_randls_37.json,1614716,2512648,54,Man
139,399488,DepthScenes,duration_manipulation_targetAtFixation,jsons/v1_VE1000_randls_37.json,http://54.235.29.9/FacialAge/BNav_EC2/DepthDuration/v2_depth_duration_MTurk/v2_DepthDuration_HTML.html#44,44,1366,657,1366,768,9-18-2022,9-22-21,140,depth_duration_stimuli/002725_2014-06-22_11-47-51_094959634447_rgbf000070-resize_1/002725_2014-06-22_11-47-51_094959634447_rgbf000070-resize_1-target.png,1000,2.195,0,2701,1002,meters,jsons/v1_VE1000_randls_37.json,1614716,2512648,54,Man
140,399488,DepthScenes,duration_manipulation_targetAtFixation,jsons/v1_VE1000_randls_37.json,http://54.235.29.9/FacialAge/BNav_EC2/DepthDuration/v2_depth_duration_MTurk/v2_DepthDuration_HTML.html#44,44,1366,657,1366,768,9-18-2022,9-22-21,141,depth_duration_stimuli/002344_2014-06-28_20-06-29_260595134347_rgbf000030-resize_1/002344_2014-06-28_20-06-29_260595134347_rgbf000030-resize_1-target.png,1000,1.5795,0,2901,998,meters,jsons/v1_VE1000_randls_37.json,1614716,2512648,54,Man
141,399488,DepthScenes,duration_manipulation_targetAtFixation,jsons/v1_VE1000_randls_37.json,http://54.235.29.9/FacialAge/BNav_EC2/DepthDuration/v2_depth_duration_MTurk/v2_DepthDuration_HTML.html#44,44,1366,657,1366,768,9-18-2022,9-22-21,142,depth_duration_stimuli/000929_2014-06-09_16-33-19_260595134347_rgbf000139-resize_0/000929_2014-06-09_16-33-19_260595134347_rgbf000139-resize_0-target.png,1000,2.8680000000000003,0,5965,1002,meters,jsons/v1_VE1000_randls_37.json,1614716,2512648,54,Man
142,399488,DepthScenes,duration_manipulation_targetAtFixation,jsons/v1_VE1000_randls_37.json,http://54.235.29.9/FacialAge/BNav_EC2/DepthDuration/v2_depth_duration_MTurk/v2_DepthDuration_HTML.html#44,44,1366,657,1366,768,9-18-2022,9-22-21,143,depth_duration_stimuli/000457_2014-06-08_16-52-43_260595134347_rgbf000199-resize_1/000457_2014-06-08_16-52-43_260595134347_rgbf000199-resize_1-target.png,1000,3.6489999999999996,0,2801,991,meters,jsons/v1_VE1000_randls_37.json,1614716,2512648,54,Man
143,399488,DepthScenes,duration_manipulation_targetAtFixation,jsons/v1_VE1000_randls_37.json,http://54.235.29.9/FacialAge/BNav_EC2/DepthDuration/v2_depth_duration_MTurk/v2_DepthDuration_HTML.html#44,44,1366,657,1366,768,9-18-2022,9-22-21,144,depth_duration_stimuli/002445_2014-06-28_20-32-16_260595134347_rgbf000029-resize_4/002445_2014-06-28_20-32-16_260595134347_rgbf000029-resize_4-target.png,1000,2.5315,0,2769,1009,meters,jsons/v1_VE1000_randls_37.json,1614716,2512648,54,Man
144,399488,DepthScenes,duration_manipulation_targetAtFixation,jsons/v1_VE1000_randls_37.json,http://54.235.29.9/FacialAge/BNav_EC2/DepthDuration/v2_depth_duration_MTurk/v2_DepthDuration_HTML.html#44,44,1366,657,1366,768,9-18-2022,9-22-21,145,depth_duration_stimuli/000780_2014-06-08_22-28-29_260595134347_rgbf000126-resize_1/000780_2014-06-08_22-28-29_260595134347_rgbf000126-resize_1-target.png,1000,3.3825,0,2796,1009,meters,jsons/v1_VE1000_randls_37.json,1614716,2512648,54,Man
145,399488,DepthScenes,duration_manipulation_targetAtFixation,jsons/v1_VE1000_randls_37.json,http://54.235.29.9/FacialAge/BNav_EC2/DepthDuration/v2_depth_duration_MTurk/v2_DepthDuration_HTML.html#44,44,1366,657,1366,768,9-18-2022,9-22-21,146,depth_duration_stimuli/001498_2014-06-19_17-45-14_260595134347_rgbf000129-resize_4/001498_2014-06-19_17-45-14_260595134347_rgbf000129-resize-original.jpg,1000,1.4075,0,3045,988,meters,jsons/v1_VE1000_randls_37.json,1614716,2512648,54,Man
146,399488,DepthScenes,duration_manipulation_targetAtFixation,jsons/v1_VE1000_randls_37.json,http://54.235.29.9/FacialAge/BNav_EC2/DepthDuration/v2_depth_duration_MTurk/v2_DepthDuration_HTML.html#44,44,1366,657,1366,768,9-18-2022,9-22-21,147,depth_duration_stimuli/001175_2014-06-17_15-45-55_260595134347_rgbf000129-resize_4/001175_2014-06-17_15-45-55_260595134347_rgbf000129-resize_4-target.png,1000,4.255,0,3412,998,meters,jsons/v1_VE1000_randls_37.json,1614716,2512648,54,Man
147,399488,DepthScenes,duration_manipulation_targetAtFixation,jsons/v1_VE1000_randls_37.json,http://54.235.29.9/FacialAge/BNav_EC2/DepthDuration/v2_depth_duration_MTurk/v2_DepthDuration_HTML.html#44,44,1366,657,1366,768,9-18-2022,9-22-21,148,depth_duration_stimuli/003490_2014-05-21_15-50-11_094959634447_rgbf000101-resize_3/003490_2014-05-21_15-50-11_094959634447_rgbf000101-resize_3-target.png,1000,3.6445,0,2743,1003,meters,jsons/v1_VE1000_randls_37.json,1614716,2512648,54,Man
148,399488,DepthScenes,duration_manipulation_targetAtFixation,jsons/v1_VE1000_randls_37.json,http://54.235.29.9/FacialAge/BNav_EC2/DepthDuration/v2_depth_duration_MTurk/v2_DepthDuration_HTML.html#44,44,1366,657,1366,768,9-18-2022,9-22-21,149,depth_duration_stimuli/003070_2014-06-15_14-58-27_094959634447_rgbf000150-resize_3/003070_2014-06-15_14-58-27_094959634447_rgbf000150-resize_3-target.png,1000,2.9415,0,11557,1005,meters,jsons/v1_VE1000_randls_37.json,1614716,2512648,54,Man
149,399488,DepthScenes,duration_manipulation_targetAtFixation,jsons/v1_VE1000_randls_37.json,http://54.235.29.9/FacialAge/BNav_EC2/DepthDuration/v2_depth_duration_MTurk/v2_DepthDuration_HTML.html#44,44,1366,657,1366,768,9-18-2022,9-22-21,150,depth_duration_stimuli/000943_2014-06-09_19-31-07_260595134347_rgbf000128-resize_1/000943_2014-06-09_19-31-07_260595134347_rgbf000128-resize_1-target.png,1000,1.9765,0,2680,994,meters,jsons/v1_VE1000_randls_37.json,1614716,2512648,54,Man
150,399488,DepthScenes,duration_manipulation_targetAtFixation,jsons/v1_VE1000_randls_37.json,http://54.235.29.9/FacialAge/BNav_EC2/DepthDuration/v2_depth_duration_MTurk/v2_DepthDuration_HTML.html#44,44,1366,657,1366,768,9-18-2022,9-22-21,151,depth_duration_stimuli/001133_2014-06-17_14-49-16_260595134347_rgbf000100-resize_0/001133_2014-06-17_14-49-16_260595134347_rgbf000100-resize_0-target.png,1000,4.2115,0,2724,988,meters,jsons/v1_VE1000_randls_37.json,1614716,2512648,54,Man
151,399488,DepthScenes,duration_manipulation_targetAtFixation,jsons/v1_VE1000_randls_37.json,http://54.235.29.9/FacialAge/BNav_EC2/DepthDuration/v2_depth_duration_MTurk/v2_DepthDuration_HTML.html#44,44,1366,657,1366,768,9-18-2022,9-22-21,152,depth_duration_stimuli/001132_2014-06-17_14-48-54_260595134347_rgbf000100-resize_2/001132_2014-06-17_14-48-54_260595134347_rgbf000100-resize_2-target.png,1000,3.753,0,16681,997,meters,jsons/v1_VE1000_randls_37.json,1614716,2512648,54,Man
152,399488,DepthScenes,duration_manipulation_targetAtFixation,jsons/v1_VE1000_randls_37.json,http://54.235.29.9/FacialAge/BNav_EC2/DepthDuration/v2_depth_duration_MTurk/v2_DepthDuration_HTML.html#44,44,1366,657,1366,768,9-18-2022,9-22-21,153,depth_duration_stimuli/001810_2014-06-26_20-51-35_260595134347_rgbf000040-resize_3/001810_2014-06-26_20-51-35_260595134347_rgbf000040-resize_3-target.png,1000,2.2525,0,3096,1092,meters,jsons/v1_VE1000_randls_37.json,1614716,2512648,54,Man
153,399488,DepthScenes,duration_manipulation_targetAtFixation,jsons/v1_VE1000_randls_37.json,http://54.235.29.9/FacialAge/BNav_EC2/DepthDuration/v2_depth_duration_MTurk/v2_DepthDuration_HTML.html#44,44,1366,657,1366,768,9-18-2022,9-22-21,154,depth_duration_stimuli/003010_2014-06-15_12-54-35_094959634447_rgbf000112-resize_0/003010_2014-06-15_12-54-35_094959634447_rgbf000112-resize_0-target.png,1000,3.1185,0,7198,12,meters,jsons/v1_VE1000_randls_37.json,1614716,2512648,54,Man
154,399488,DepthScenes,duration_manipulation_targetAtFixation,jsons/v1_VE1000_randls_37.json,http://54.235.29.9/FacialAge/BNav_EC2/DepthDuration/v2_depth_duration_MTurk/v2_DepthDuration_HTML.html#44,44,1366,657,1366,768,9-18-2022,9-22-21,155,depth_duration_stimuli/000642_2014-06-08_16-59-25_260595134347_rgbf000098-resize_2/000642_2014-06-08_16-59-25_260595134347_rgbf000098-resize_2-target.png,1000,2.8815,0,2686,999,meters,jsons/v1_VE1000_randls_37.json,1614716,2512648,54,Man
155,399488,DepthScenes,duration_manipulation_targetAtFixation,jsons/v1_VE1000_randls_37.json,http://54.235.29.9/FacialAge/BNav_EC2/DepthDuration/v2_depth_duration_MTurk/v2_DepthDuration_HTML.html#44,44,1366,657,1366,768,9-18-2022,9-22-21,156,depth_duration_stimuli/002425_2014-06-28_20-27-29_260595134347_rgbf000031-resize_8/002425_2014-06-28_20-27-29_260595134347_rgbf000031-resize_8-target.png,1000,3.8960000000000004,0,2867,970,meters,jsons/v1_VE1000_randls_37.json,1614716,2512648,54,Man
156,399488,DepthScenes,duration_manipulation_targetAtFixation,jsons/v1_VE1000_randls_37.json,http://54.235.29.9/FacialAge/BNav_EC2/DepthDuration/v2_depth_duration_MTurk/v2_DepthDuration_HTML.html#44,44,1366,657,1366,768,9-18-2022,9-22-21,157,depth_duration_stimuli/002905_2014-06-03_18-04-43_094959634447_rgbf000151-resize_2/002905_2014-06-03_18-04-43_094959634447_rgbf000151-resize_2-target.png,1000,2.0295,0,3175,998,meters,jsons/v1_VE1000_randls_37.json,1614716,2512648,54,Man
157,399488,DepthScenes,duration_manipulation_targetAtFixation,jsons/v1_VE1000_randls_37.json,http://54.235.29.9/FacialAge/BNav_EC2/DepthDuration/v2_depth_duration_MTurk/v2_DepthDuration_HTML.html#44,44,1366,657,1366,768,9-18-2022,9-22-21,158,depth_duration_stimuli/003423_2014-05-21_10-23-26_094959634447_rgbf002665-resize_2/003423_2014-05-21_10-23-26_094959634447_rgbf002665-resize_2-target.png,1000,3.2575,0,6273,1090,meters,jsons/v1_VE1000_randls_37.json,1614716,2512648,54,Man
158,399488,DepthScenes,duration_manipulation_targetAtFixation,jsons/v1_VE1000_randls_37.json,http://54.235.29.9/FacialAge/BNav_EC2/DepthDuration/v2_depth_duration_MTurk/v2_DepthDuration_HTML.html#44,44,1366,657,1366,768,9-18-2022,9-22-21,159,depth_duration_stimuli/001056_2014-06-08_18-46-44_260595134347_rgbf000068-resize_0/001056_2014-06-08_18-46-44_260595134347_rgbf000068-resize_0-target.png,1000,2.6625,0,5441,1005,meters,jsons/v1_VE1000_randls_37.json,1614716,2512648,54,Man
159,399488,DepthScenes,duration_manipulation_targetAtFixation,jsons/v1_VE1000_randls_37.json,http://54.235.29.9/FacialAge/BNav_EC2/DepthDuration/v2_depth_duration_MTurk/v2_DepthDuration_HTML.html#44,44,1366,657,1366,768,9-18-2022,9-22-21,160,depth_duration_stimuli/002199_2014-06-28_18-33-56_260595134347_rgbf000074-resize_0/002199_2014-06-28_18-33-56_260595134347_rgbf000074-resize_0-target.png,1000,1.996,0,3465,993,meters,jsons/v1_VE1000_randls_37.json,1614716,2512648,54,Man
160,399488,DepthScenes,duration_manipulation_targetAtFixation,jsons/v1_VE1000_randls_37.json,http://54.235.29.9/FacialAge/BNav_EC2/DepthDuration/v2_depth_duration_MTurk/v2_DepthDuration_HTML.html#44,44,1366,657,1366,768,9-18-2022,9-22-21,161,depth_duration_stimuli/002043_2014-06-24_20-29-38_260595134347_rgbf000039-resize_4/002043_2014-06-24_20-29-38_260595134347_rgbf000039-resize_4-target.png,1000,2.8435,0,2809,998,meters,jsons/v1_VE1000_randls_37.json,1614716,2512648,54,Man
161,399488,DepthScenes,duration_manipulation_targetAtFixation,jsons/v1_VE1000_randls_37.json,http://54.235.29.9/FacialAge/BNav_EC2/DepthDuration/v2_depth_duration_MTurk/v2_DepthDuration_HTML.html#44,44,1366,657,1366,768,9-18-2022,9-22-21,162,depth_duration_stimuli/003048_2014-06-15_13-49-43_094959634447_rgbf000150-resize_1/003048_2014-06-15_13-49-43_094959634447_rgbf000150-resize_1-target.png,1000,4.0035,0,2659,990,meters,jsons/v1_VE1000_randls_37.json,1614716,2512648,54,Man
162,399488,DepthScenes,duration_manipulation_targetAtFixation,jsons/v1_VE1000_randls_37.json,http://54.235.29.9/FacialAge/BNav_EC2/DepthDuration/v2_depth_duration_MTurk/v2_DepthDuration_HTML.html#44,44,1366,657,1366,768,9-18-2022,9-22-21,163,depth_duration_stimuli/000493_2014-06-09_21-01-18_260595134347_rgbf000196-resize_3/000493_2014-06-09_21-01-18_260595134347_rgbf000196-resize_3-target.png,1000,3.44,0,2980,999,meters,jsons/v1_VE1000_randls_37.json,1614716,2512648,54,Man
163,399488,DepthScenes,duration_manipulation_targetAtFixation,jsons/v1_VE1000_randls_37.json,http://54.235.29.9/FacialAge/BNav_EC2/DepthDuration/v2_depth_duration_MTurk/v2_DepthDuration_HTML.html#44,44,1366,657,1366,768,9-18-2022,9-22-21,164,depth_duration_stimuli/000191_2014-05-12_17-07-38_260595134347_rgbf000199-resize_0/000191_2014-05-12_17-07-38_260595134347_rgbf000199-resize_0-target.png,1000,3.7995,0,2594,998,meters,jsons/v1_VE1000_randls_37.json,1614716,2512648,54,Man
