,subjID,experimentName,versionName,sequenceName,url,selected_row,windowWidth,windowHeight,screenWidth,screenHeight,startDate,startTime,trial,stimulus,duration,actual_depth,depth_estimate,trial_RT,log_sceneDuration,unitSelection,seq_filepath,experimentTime,totalTime,age,gender
0,399605,DepthScenes,duration_manipulation_targetAtFixation,jsons/v1_VE1000_randls_70.json,http://54.235.29.9/FacialAge/BNav_EC2/DepthDuration/v2_depth_duration_MTurk/v2_DepthDuration_HTML.html#28,28,1440,789,1440,900,8-22-2022,8-58-30,1,depth_duration_stimuli/002725_2014-06-22_11-47-51_094959634447_rgbf000070-resize_1/002725_2014-06-22_11-47-51_094959634447_rgbf000070-resize_1-target.png,1000,2.195,45,3472,1000,meters,jsons/v1_VE1000_randls_70.json,1231771,1321501,35,Woman
1,399605,DepthScenes,duration_manipulation_targetAtFixation,jsons/v1_VE1000_randls_70.json,http://54.235.29.9/FacialAge/BNav_EC2/DepthDuration/v2_depth_duration_MTurk/v2_DepthDuration_HTML.html#28,28,1440,789,1440,900,8-22-2022,8-58-30,2,depth_duration_stimuli/002344_2014-06-28_20-06-29_260595134347_rgbf000030-resize_1/002344_2014-06-28_20-06-29_260595134347_rgbf000030-resize_1-target.png,1000,1.5795,20,3378,1000,meters,jsons/v1_VE1000_randls_70.json,1231771,1321501,35,Woman
2,399605,DepthScenes,duration_manipulation_targetAtFixation,jsons/v1_VE1000_randls_70.json,http://54.235.29.9/FacialAge/BNav_EC2/DepthDuration/v2_depth_duration_MTurk/v2_DepthDuration_HTML.html#28,28,1440,789,1440,900,8-22-2022,8-58-30,3,depth_duration_stimuli/001808_2014-06-26_20-50-58_260595134347_rgbf000029-resize_1/001808_2014-06-26_20-50-58_260595134347_rgbf000029-resize_1-target.png,1000,4.249,55,3482,999,meters,jsons/v1_VE1000_randls_70.json,1231771,1321501,35,Woman
3,399605,DepthScenes,duration_manipulation_targetAtFixation,jsons/v1_VE1000_randls_70.json,http://54.235.29.9/FacialAge/BNav_EC2/DepthDuration/v2_depth_duration_MTurk/v2_DepthDuration_HTML.html#28,28,1440,789,1440,900,8-22-2022,8-58-30,4,depth_duration_stimuli/001815_2014-06-26_20-52-55_260595134347_rgbf000020-resize_0/001815_2014-06-26_20-52-55_260595134347_rgbf000020-resize_0-target.png,1000,3.3865,60,3488,998,meters,jsons/v1_VE1000_randls_70.json,1231771,1321501,35,Woman
4,399605,DepthScenes,duration_manipulation_targetAtFixation,jsons/v1_VE1000_randls_70.json,http://54.235.29.9/FacialAge/BNav_EC2/DepthDuration/v2_depth_duration_MTurk/v2_DepthDuration_HTML.html#28,28,1440,789,1440,900,8-22-2022,8-58-30,5,depth_duration_stimuli/000486_2014-06-09_20-47-20_260595134347_rgbf000143-resize_2/000486_2014-06-09_20-47-20_260595134347_rgbf000143-resize_2-target.png,1000,4.8325,54,3315,1000,meters,jsons/v1_VE1000_randls_70.json,1231771,1321501,35,Woman
5,399605,DepthScenes,duration_manipulation_targetAtFixation,jsons/v1_VE1000_randls_70.json,http://54.235.29.9/FacialAge/BNav_EC2/DepthDuration/v2_depth_duration_MTurk/v2_DepthDuration_HTML.html#28,28,1440,789,1440,900,8-22-2022,8-58-30,6,depth_duration_stimuli/003083_2014-06-15_15-21-03_094959634447_rgbf000063-resize_1/003083_2014-06-15_15-21-03_094959634447_rgbf000063-resize_1-target.png,1000,4.1405,45,3748,1000,meters,jsons/v1_VE1000_randls_70.json,1231771,1321501,35,Woman
6,399605,DepthScenes,duration_manipulation_targetAtFixation,jsons/v1_VE1000_randls_70.json,http://54.235.29.9/FacialAge/BNav_EC2/DepthDuration/v2_depth_duration_MTurk/v2_DepthDuration_HTML.html#28,28,1440,789,1440,900,8-22-2022,8-58-30,7,depth_duration_stimuli/000414_2014-06-04_19-49-13_260595134347_rgbf000044-resize_0/000414_2014-06-04_19-49-13_260595134347_rgbf000044-resize_0-target.png,1000,4.329,58,4003,1011,meters,jsons/v1_VE1000_randls_70.json,1231771,1321501,35,Woman
7,399605,DepthScenes,duration_manipulation_targetAtFixation,jsons/v1_VE1000_randls_70.json,http://54.235.29.9/FacialAge/BNav_EC2/DepthDuration/v2_depth_duration_MTurk/v2_DepthDuration_HTML.html#28,28,1440,789,1440,900,8-22-2022,8-58-30,8,depth_duration_stimuli/003129_2014-05-12_10-48-10_094959634447_rgbf000100-resize_0/003129_2014-05-12_10-48-10_094959634447_rgbf000100-resize_0-target.png,1000,4.9305,54,3403,1000,meters,jsons/v1_VE1000_randls_70.json,1231771,1321501,35,Woman
8,399605,DepthScenes,duration_manipulation_targetAtFixation,jsons/v1_VE1000_randls_70.json,http://54.235.29.9/FacialAge/BNav_EC2/DepthDuration/v2_depth_duration_MTurk/v2_DepthDuration_HTML.html#28,28,1440,789,1440,900,8-22-2022,8-58-30,9,depth_duration_stimuli/003621_2014-05-23_18-06-08_094959634447_rgbf000101-resize_1/003621_2014-05-23_18-06-08_094959634447_rgbf000101-resize_1-target.png,1000,3.9835,56,4251,1001,meters,jsons/v1_VE1000_randls_70.json,1231771,1321501,35,Woman
9,399605,DepthScenes,duration_manipulation_targetAtFixation,jsons/v1_VE1000_randls_70.json,http://54.235.29.9/FacialAge/BNav_EC2/DepthDuration/v2_depth_duration_MTurk/v2_DepthDuration_HTML.html#28,28,1440,789,1440,900,8-22-2022,8-58-30,10,depth_duration_stimuli/001584_2014-06-20_11-07-43_260595134347_rgbf000002-resize_1/001584_2014-06-20_11-07-43_260595134347_rgbf000002-resize_1-target.png,1000,3.53,60,3900,1001,meters,jsons/v1_VE1000_randls_70.json,1231771,1321501,35,Woman
10,399605,DepthScenes,duration_manipulation_targetAtFixation,jsons/v1_VE1000_randls_70.json,http://54.235.29.9/FacialAge/BNav_EC2/DepthDuration/v2_depth_duration_MTurk/v2_DepthDuration_HTML.html#28,28,1440,789,1440,900,8-22-2022,8-58-30,11,depth_duration_stimuli/002748_2014-06-22_19-07-22_094959634447_rgbf000078-resize_1/002748_2014-06-22_19-07-22_094959634447_rgbf000078-resize_1-target.png,1000,4.6705,65,3337,999,meters,jsons/v1_VE1000_randls_70.json,1231771,1321501,35,Woman
11,399605,DepthScenes,duration_manipulation_targetAtFixation,jsons/v1_VE1000_randls_70.json,http://54.235.29.9/FacialAge/BNav_EC2/DepthDuration/v2_depth_duration_MTurk/v2_DepthDuration_HTML.html#28,28,1440,789,1440,900,8-22-2022,8-58-30,12,depth_duration_stimuli/002995_2014-06-15_12-31-26_094959634447_rgbf000150-resize_1/002995_2014-06-15_12-31-26_094959634447_rgbf000150-resize_1-target.png,1000,3.8360000000000003,58,3499,1000,meters,jsons/v1_VE1000_randls_70.json,1231771,1321501,35,Woman
12,399605,DepthScenes,duration_manipulation_targetAtFixation,jsons/v1_VE1000_randls_70.json,http://54.235.29.9/FacialAge/BNav_EC2/DepthDuration/v2_depth_duration_MTurk/v2_DepthDuration_HTML.html#28,28,1440,789,1440,900,8-22-2022,8-58-30,13,depth_duration_stimuli/000569_2014-06-09_22-51-47_260595134347_rgbf000141-resize_3/000569_2014-06-09_22-51-47_260595134347_rgbf000141-resize-original.jpg,1000,4.512,0,3298,999,meters,jsons/v1_VE1000_randls_70.json,1231771,1321501,35,Woman
13,399605,DepthScenes,duration_manipulation_targetAtFixation,jsons/v1_VE1000_randls_70.json,http://54.235.29.9/FacialAge/BNav_EC2/DepthDuration/v2_depth_duration_MTurk/v2_DepthDuration_HTML.html#28,28,1440,789,1440,900,8-22-2022,8-58-30,14,depth_duration_stimuli/001011_2014-06-08_23-18-54_260595134347_rgbf000044-resize_4/001011_2014-06-08_23-18-54_260595134347_rgbf000044-resize_4-target.png,1000,2.4730000000000003,42,3707,1001,meters,jsons/v1_VE1000_randls_70.json,1231771,1321501,35,Woman
14,399605,DepthScenes,duration_manipulation_targetAtFixation,jsons/v1_VE1000_randls_70.json,http://54.235.29.9/FacialAge/BNav_EC2/DepthDuration/v2_depth_duration_MTurk/v2_DepthDuration_HTML.html#28,28,1440,789,1440,900,8-22-2022,8-58-30,15,depth_duration_stimuli/002875_2014-06-01_15-19-00_094959634447_rgbf000151-resize_1/002875_2014-06-01_15-19-00_094959634447_rgbf000151-resize_1-target.png,1000,1.9675,42,3493,1000,meters,jsons/v1_VE1000_randls_70.json,1231771,1321501,35,Woman
15,399605,DepthScenes,duration_manipulation_targetAtFixation,jsons/v1_VE1000_randls_70.json,http://54.235.29.9/FacialAge/BNav_EC2/DepthDuration/v2_depth_duration_MTurk/v2_DepthDuration_HTML.html#28,28,1440,789,1440,900,8-22-2022,8-58-30,16,depth_duration_stimuli/002763_2014-06-22_19-13-10_094959634447_rgbf000075-resize_4/002763_2014-06-22_19-13-10_094959634447_rgbf000075-resize_4-target.png,1000,1.68375,35,3259,1001,meters,jsons/v1_VE1000_randls_70.json,1231771,1321501,35,Woman
16,399605,DepthScenes,duration_manipulation_targetAtFixation,jsons/v1_VE1000_randls_70.json,http://54.235.29.9/FacialAge/BNav_EC2/DepthDuration/v2_depth_duration_MTurk/v2_DepthDuration_HTML.html#28,28,1440,789,1440,900,8-22-2022,8-58-30,17,depth_duration_stimuli/002209_2014-06-28_18-36-10_260595134347_rgbf000051-resize_1/002209_2014-06-28_18-36-10_260595134347_rgbf000051-resize_1-target.png,1000,2.057,33,3321,1000,meters,jsons/v1_VE1000_randls_70.json,1231771,1321501,35,Woman
17,399605,DepthScenes,duration_manipulation_targetAtFixation,jsons/v1_VE1000_randls_70.json,http://54.235.29.9/FacialAge/BNav_EC2/DepthDuration/v2_depth_duration_MTurk/v2_DepthDuration_HTML.html#28,28,1440,789,1440,900,8-22-2022,8-58-30,18,depth_duration_stimuli/002905_2014-06-03_18-04-43_094959634447_rgbf000151-resize_2/002905_2014-06-03_18-04-43_094959634447_rgbf000151-resize_2-target.png,1000,2.0295,31,3651,1001,meters,jsons/v1_VE1000_randls_70.json,1231771,1321501,35,Woman
18,399605,DepthScenes,duration_manipulation_targetAtFixation,jsons/v1_VE1000_randls_70.json,http://54.235.29.9/FacialAge/BNav_EC2/DepthDuration/v2_depth_duration_MTurk/v2_DepthDuration_HTML.html#28,28,1440,789,1440,900,8-22-2022,8-58-30,19,depth_duration_stimuli/003423_2014-05-21_10-23-26_094959634447_rgbf002665-resize_2/003423_2014-05-21_10-23-26_094959634447_rgbf002665-resize_2-target.png,1000,3.2575,36,5101,1001,meters,jsons/v1_VE1000_randls_70.json,1231771,1321501,35,Woman
19,399605,DepthScenes,duration_manipulation_targetAtFixation,jsons/v1_VE1000_randls_70.json,http://54.235.29.9/FacialAge/BNav_EC2/DepthDuration/v2_depth_duration_MTurk/v2_DepthDuration_HTML.html#28,28,1440,789,1440,900,8-22-2022,8-58-30,20,depth_duration_stimuli/000929_2014-06-09_16-33-19_260595134347_rgbf000139-resize_0/000929_2014-06-09_16-33-19_260595134347_rgbf000139-resize_0-target.png,1000,2.8680000000000003,35,3665,998,meters,jsons/v1_VE1000_randls_70.json,1231771,1321501,35,Woman
20,399605,DepthScenes,duration_manipulation_targetAtFixation,jsons/v1_VE1000_randls_70.json,http://54.235.29.9/FacialAge/BNav_EC2/DepthDuration/v2_depth_duration_MTurk/v2_DepthDuration_HTML.html#28,28,1440,789,1440,900,8-22-2022,8-58-30,21,depth_duration_stimuli/000457_2014-06-08_16-52-43_260595134347_rgbf000199-resize_1/000457_2014-06-08_16-52-43_260595134347_rgbf000199-resize_1-target.png,1000,3.6489999999999996,45,3570,1000,meters,jsons/v1_VE1000_randls_70.json,1231771,1321501,35,Woman
21,399605,DepthScenes,duration_manipulation_targetAtFixation,jsons/v1_VE1000_randls_70.json,http://54.235.29.9/FacialAge/BNav_EC2/DepthDuration/v2_depth_duration_MTurk/v2_DepthDuration_HTML.html#28,28,1440,789,1440,900,8-22-2022,8-58-30,22,depth_duration_stimuli/001244_2014-06-17_16-47-45_260595134347_rgbf000030-resize_4/001244_2014-06-17_16-47-45_260595134347_rgbf000030-resize_4-target.png,1000,2.0425,45,3674,1000,meters,jsons/v1_VE1000_randls_70.json,1231771,1321501,35,Woman
22,399605,DepthScenes,duration_manipulation_targetAtFixation,jsons/v1_VE1000_randls_70.json,http://54.235.29.9/FacialAge/BNav_EC2/DepthDuration/v2_depth_duration_MTurk/v2_DepthDuration_HTML.html#28,28,1440,789,1440,900,8-22-2022,8-58-30,23,depth_duration_stimuli/003495_2014-05-21_16-01-51_094959634447_rgbf000100-resize_3/003495_2014-05-21_16-01-51_094959634447_rgbf000100-resize_3-target.png,1000,1.6255,32,3681,999,meters,jsons/v1_VE1000_randls_70.json,1231771,1321501,35,Woman
23,399605,DepthScenes,duration_manipulation_targetAtFixation,jsons/v1_VE1000_randls_70.json,http://54.235.29.9/FacialAge/BNav_EC2/DepthDuration/v2_depth_duration_MTurk/v2_DepthDuration_HTML.html#28,28,1440,789,1440,900,8-22-2022,8-58-30,24,depth_duration_stimuli/000682_2014-06-08_23-14-58_260595134347_rgbf000041-resize_5/000682_2014-06-08_23-14-58_260595134347_rgbf000041-resize_5-target.png,1000,2.7239999999999998,32,3433,1000,meters,jsons/v1_VE1000_randls_70.json,1231771,1321501,35,Woman
24,399605,DepthScenes,duration_manipulation_targetAtFixation,jsons/v1_VE1000_randls_70.json,http://54.235.29.9/FacialAge/BNav_EC2/DepthDuration/v2_depth_duration_MTurk/v2_DepthDuration_HTML.html#28,28,1440,789,1440,900,8-22-2022,8-58-30,25,depth_duration_stimuli/001650_2014-06-20_12-09-00_260595134347_rgbf000087-resize_3/001650_2014-06-20_12-09-00_260595134347_rgbf000087-resize_3-target.png,1000,1.9505,30,3469,1002,meters,jsons/v1_VE1000_randls_70.json,1231771,1321501,35,Woman
25,399605,DepthScenes,duration_manipulation_targetAtFixation,jsons/v1_VE1000_randls_70.json,http://54.235.29.9/FacialAge/BNav_EC2/DepthDuration/v2_depth_duration_MTurk/v2_DepthDuration_HTML.html#28,28,1440,789,1440,900,8-22-2022,8-58-30,26,depth_duration_stimuli/000739_2014-06-08_18-45-58_260595134347_rgbf000068-resize_1/000739_2014-06-08_18-45-58_260595134347_rgbf000068-resize_1-target.png,1000,3.534,45,3434,999,meters,jsons/v1_VE1000_randls_70.json,1231771,1321501,35,Woman
26,399605,DepthScenes,duration_manipulation_targetAtFixation,jsons/v1_VE1000_randls_70.json,http://54.235.29.9/FacialAge/BNav_EC2/DepthDuration/v2_depth_duration_MTurk/v2_DepthDuration_HTML.html#28,28,1440,789,1440,900,8-22-2022,8-58-30,27,depth_duration_stimuli/000734_2014-06-08_17-39-11_260595134347_rgbf000128-resize_2/000734_2014-06-08_17-39-11_260595134347_rgbf000128-resize_2-target.png,1000,4.098,48,3811,999,meters,jsons/v1_VE1000_randls_70.json,1231771,1321501,35,Woman
27,399605,DepthScenes,duration_manipulation_targetAtFixation,jsons/v1_VE1000_randls_70.json,http://54.235.29.9/FacialAge/BNav_EC2/DepthDuration/v2_depth_duration_MTurk/v2_DepthDuration_HTML.html#28,28,1440,789,1440,900,8-22-2022,8-58-30,28,depth_duration_stimuli/000368_2014-06-09_15-53-01_260595134347_rgbf000155-resize_2/000368_2014-06-09_15-53-01_260595134347_rgbf000155-resize_2-target.png,1000,2.4859999999999998,34,3498,1000,meters,jsons/v1_VE1000_randls_70.json,1231771,1321501,35,Woman
28,399605,DepthScenes,duration_manipulation_targetAtFixation,jsons/v1_VE1000_randls_70.json,http://54.235.29.9/FacialAge/BNav_EC2/DepthDuration/v2_depth_duration_MTurk/v2_DepthDuration_HTML.html#28,28,1440,789,1440,900,8-22-2022,8-58-30,29,depth_duration_stimuli/002678_2014-06-13_16-15-32_094959634447_rgbf000151-resize_6/002678_2014-06-13_16-15-32_094959634447_rgbf000151-resize_6-target.png,1000,2.1830000000000003,54,3340,1000,meters,jsons/v1_VE1000_randls_70.json,1231771,1321501,35,Woman
29,399605,DepthScenes,duration_manipulation_targetAtFixation,jsons/v1_VE1000_randls_70.json,http://54.235.29.9/FacialAge/BNav_EC2/DepthDuration/v2_depth_duration_MTurk/v2_DepthDuration_HTML.html#28,28,1440,789,1440,900,8-22-2022,8-58-30,30,depth_duration_stimuli/000375_2014-06-08_11-17-29_260595134347_rgbf000133-resize_2/000375_2014-06-08_11-17-29_260595134347_rgbf000133-resize-original.jpg,1000,4.718,0,3267,1000,meters,jsons/v1_VE1000_randls_70.json,1231771,1321501,35,Woman
30,399605,DepthScenes,duration_manipulation_targetAtFixation,jsons/v1_VE1000_randls_70.json,http://54.235.29.9/FacialAge/BNav_EC2/DepthDuration/v2_depth_duration_MTurk/v2_DepthDuration_HTML.html#28,28,1440,789,1440,900,8-22-2022,8-58-30,31,depth_duration_stimuli/002788_2014-06-22_19-36-03_094959634447_rgbf000088-resize_2/002788_2014-06-22_19-36-03_094959634447_rgbf000088-resize_2-target.png,1000,1.6465,48,3859,1001,meters,jsons/v1_VE1000_randls_70.json,1231771,1321501,35,Woman
31,399605,DepthScenes,duration_manipulation_targetAtFixation,jsons/v1_VE1000_randls_70.json,http://54.235.29.9/FacialAge/BNav_EC2/DepthDuration/v2_depth_duration_MTurk/v2_DepthDuration_HTML.html#28,28,1440,789,1440,900,8-22-2022,8-58-30,32,depth_duration_stimuli/000749_2014-06-08_21-55-06_260595134347_rgbf000070-resize_2/000749_2014-06-08_21-55-06_260595134347_rgbf000070-resize_2-target.png,1000,2.331,46,4216,1000,meters,jsons/v1_VE1000_randls_70.json,1231771,1321501,35,Woman
32,399605,DepthScenes,duration_manipulation_targetAtFixation,jsons/v1_VE1000_randls_70.json,http://54.235.29.9/FacialAge/BNav_EC2/DepthDuration/v2_depth_duration_MTurk/v2_DepthDuration_HTML.html#28,28,1440,789,1440,900,8-22-2022,8-58-30,33,depth_duration_stimuli/001199_2014-06-17_16-03-48_260595134347_rgbf000077-resize_0/001199_2014-06-17_16-03-48_260595134347_rgbf000077-resize_0-target.png,1000,3.4375,55,3587,1001,meters,jsons/v1_VE1000_randls_70.json,1231771,1321501,35,Woman
33,399605,DepthScenes,duration_manipulation_targetAtFixation,jsons/v1_VE1000_randls_70.json,http://54.235.29.9/FacialAge/BNav_EC2/DepthDuration/v2_depth_duration_MTurk/v2_DepthDuration_HTML.html#28,28,1440,789,1440,900,8-22-2022,8-58-30,34,depth_duration_stimuli/000502_2014-06-08_23-02-32_260595134347_rgbf000063-resize_4/000502_2014-06-08_23-02-32_260595134347_rgbf000063-resize_4-target.png,1000,2.431,46,4024,1000,meters,jsons/v1_VE1000_randls_70.json,1231771,1321501,35,Woman
34,399605,DepthScenes,duration_manipulation_targetAtFixation,jsons/v1_VE1000_randls_70.json,http://54.235.29.9/FacialAge/BNav_EC2/DepthDuration/v2_depth_duration_MTurk/v2_DepthDuration_HTML.html#28,28,1440,789,1440,900,8-22-2022,8-58-30,35,depth_duration_stimuli/001158_2014-06-17_15-32-16_260595134347_rgbf000138-resize_2/001158_2014-06-17_15-32-16_260595134347_rgbf000138-resize_2-target.png,1000,4.5315,2,276087,1000,meters,jsons/v1_VE1000_randls_70.json,1231771,1321501,35,Woman
35,399605,DepthScenes,duration_manipulation_targetAtFixation,jsons/v1_VE1000_randls_70.json,http://54.235.29.9/FacialAge/BNav_EC2/DepthDuration/v2_depth_duration_MTurk/v2_DepthDuration_HTML.html#28,28,1440,789,1440,900,8-22-2022,8-58-30,36,depth_duration_stimuli/000556_2014-06-09_22-42-56_260595134347_rgbf000214-resize_1/000556_2014-06-09_22-42-56_260595134347_rgbf000214-resize_1-target.png,1000,4.8415,2,11025,1001,meters,jsons/v1_VE1000_randls_70.json,1231771,1321501,35,Woman
36,399605,DepthScenes,duration_manipulation_targetAtFixation,jsons/v1_VE1000_randls_70.json,http://54.235.29.9/FacialAge/BNav_EC2/DepthDuration/v2_depth_duration_MTurk/v2_DepthDuration_HTML.html#28,28,1440,789,1440,900,8-22-2022,8-58-30,37,depth_duration_stimuli/002988_2014-06-15_12-24-20_094959634447_rgbf000150-resize_1/002988_2014-06-15_12-24-20_094959634447_rgbf000150-resize_1-target.png,1000,4.7669999999999995,35,8817,999,meters,jsons/v1_VE1000_randls_70.json,1231771,1321501,35,Woman
37,399605,DepthScenes,duration_manipulation_targetAtFixation,jsons/v1_VE1000_randls_70.json,http://54.235.29.9/FacialAge/BNav_EC2/DepthDuration/v2_depth_duration_MTurk/v2_DepthDuration_HTML.html#28,28,1440,789,1440,900,8-22-2022,8-58-30,38,depth_duration_stimuli/001052_2014-06-08_18-24-54_260595134347_rgbf000130-resize_1/001052_2014-06-08_18-24-54_260595134347_rgbf000130-resize_1-target.png,1000,4.1045,40,4028,999,meters,jsons/v1_VE1000_randls_70.json,1231771,1321501,35,Woman
38,399605,DepthScenes,duration_manipulation_targetAtFixation,jsons/v1_VE1000_randls_70.json,http://54.235.29.9/FacialAge/BNav_EC2/DepthDuration/v2_depth_duration_MTurk/v2_DepthDuration_HTML.html#28,28,1440,789,1440,900,8-22-2022,8-58-30,39,depth_duration_stimuli/000773_2014-06-08_22-24-54_260595134347_rgbf000093-resize_1/000773_2014-06-08_22-24-54_260595134347_rgbf000093-resize_1-target.png,1000,4.973,25,3881,999,meters,jsons/v1_VE1000_randls_70.json,1231771,1321501,35,Woman
39,399605,DepthScenes,duration_manipulation_targetAtFixation,jsons/v1_VE1000_randls_70.json,http://54.235.29.9/FacialAge/BNav_EC2/DepthDuration/v2_depth_duration_MTurk/v2_DepthDuration_HTML.html#28,28,1440,789,1440,900,8-22-2022,8-58-30,40,depth_duration_stimuli/002414_2014-06-28_20-24-58_260595134347_rgbf000067-resize_4/002414_2014-06-28_20-24-58_260595134347_rgbf000067-resize_4-target.png,1000,4.363,373,4179,1000,meters,jsons/v1_VE1000_randls_70.json,1231771,1321501,35,Woman
40,399605,DepthScenes,duration_manipulation_targetAtFixation,jsons/v1_VE1000_randls_70.json,http://54.235.29.9/FacialAge/BNav_EC2/DepthDuration/v2_depth_duration_MTurk/v2_DepthDuration_HTML.html#28,28,1440,789,1440,900,8-22-2022,8-58-30,41,depth_duration_stimuli/001570_2014-06-20_17-21-09_260595134347_rgbf000135-resize_4/001570_2014-06-20_17-21-09_260595134347_rgbf000135-resize_4-target.png,1000,4.467,35,15123,1001,meters,jsons/v1_VE1000_randls_70.json,1231771,1321501,35,Woman
41,399605,DepthScenes,duration_manipulation_targetAtFixation,jsons/v1_VE1000_randls_70.json,http://54.235.29.9/FacialAge/BNav_EC2/DepthDuration/v2_depth_duration_MTurk/v2_DepthDuration_HTML.html#28,28,1440,789,1440,900,8-22-2022,8-58-30,42,depth_duration_stimuli/001392_2014-06-19_16-07-59_260595134347_rgbf000046-resize_1/001392_2014-06-19_16-07-59_260595134347_rgbf000046-resize_1-target.png,1000,4.135,40,5569,997,meters,jsons/v1_VE1000_randls_70.json,1231771,1321501,35,Woman
42,399605,DepthScenes,duration_manipulation_targetAtFixation,jsons/v1_VE1000_randls_70.json,http://54.235.29.9/FacialAge/BNav_EC2/DepthDuration/v2_depth_duration_MTurk/v2_DepthDuration_HTML.html#28,28,1440,789,1440,900,8-22-2022,8-58-30,43,depth_duration_stimuli/002549_2014-06-24_13-41-39_094959634447_rgbf000022-resize_3/002549_2014-06-24_13-41-39_094959634447_rgbf000022-resize_3-target.png,1000,1.476,45,20233,998,meters,jsons/v1_VE1000_randls_70.json,1231771,1321501,35,Woman
43,399605,DepthScenes,duration_manipulation_targetAtFixation,jsons/v1_VE1000_randls_70.json,http://54.235.29.9/FacialAge/BNav_EC2/DepthDuration/v2_depth_duration_MTurk/v2_DepthDuration_HTML.html#28,28,1440,789,1440,900,8-22-2022,8-58-30,44,depth_duration_stimuli/002750_2014-06-22_19-08-03_094959634447_rgbf000094-resize_4/002750_2014-06-22_19-08-03_094959634447_rgbf000094-resize_4-target.png,1000,2.354,42,10891,999,meters,jsons/v1_VE1000_randls_70.json,1231771,1321501,35,Woman
44,399605,DepthScenes,duration_manipulation_targetAtFixation,jsons/v1_VE1000_randls_70.json,http://54.235.29.9/FacialAge/BNav_EC2/DepthDuration/v2_depth_duration_MTurk/v2_DepthDuration_HTML.html#28,28,1440,789,1440,900,8-22-2022,8-58-30,45,depth_duration_stimuli/000787_2014-06-08_22-33-53_260595134347_rgbf000175-resize_1/000787_2014-06-08_22-33-53_260595134347_rgbf000175-resize-original.jpg,1000,4.784,0,3450,1000,meters,jsons/v1_VE1000_randls_70.json,1231771,1321501,35,Woman
45,399605,DepthScenes,duration_manipulation_targetAtFixation,jsons/v1_VE1000_randls_70.json,http://54.235.29.9/FacialAge/BNav_EC2/DepthDuration/v2_depth_duration_MTurk/v2_DepthDuration_HTML.html#28,28,1440,789,1440,900,8-22-2022,8-58-30,46,depth_duration_stimuli/001175_2014-06-17_15-45-55_260595134347_rgbf000129-resize_4/001175_2014-06-17_15-45-55_260595134347_rgbf000129-resize_4-target.png,1000,4.255,35,3889,1000,meters,jsons/v1_VE1000_randls_70.json,1231771,1321501,35,Woman
46,399605,DepthScenes,duration_manipulation_targetAtFixation,jsons/v1_VE1000_randls_70.json,http://54.235.29.9/FacialAge/BNav_EC2/DepthDuration/v2_depth_duration_MTurk/v2_DepthDuration_HTML.html#28,28,1440,789,1440,900,8-22-2022,8-58-30,47,depth_duration_stimuli/003490_2014-05-21_15-50-11_094959634447_rgbf000101-resize_3/003490_2014-05-21_15-50-11_094959634447_rgbf000101-resize_3-target.png,1000,3.6445,28,4020,1000,meters,jsons/v1_VE1000_randls_70.json,1231771,1321501,35,Woman
47,399605,DepthScenes,duration_manipulation_targetAtFixation,jsons/v1_VE1000_randls_70.json,http://54.235.29.9/FacialAge/BNav_EC2/DepthDuration/v2_depth_duration_MTurk/v2_DepthDuration_HTML.html#28,28,1440,789,1440,900,8-22-2022,8-58-30,48,depth_duration_stimuli/000917_2014-06-09_22-45-29_260595134347_rgbf000149-resize_3/000917_2014-06-09_22-45-29_260595134347_rgbf000149-resize_3-target.png,1000,4.1865,32,3780,1001,meters,jsons/v1_VE1000_randls_70.json,1231771,1321501,35,Woman
48,399605,DepthScenes,duration_manipulation_targetAtFixation,jsons/v1_VE1000_randls_70.json,http://54.235.29.9/FacialAge/BNav_EC2/DepthDuration/v2_depth_duration_MTurk/v2_DepthDuration_HTML.html#28,28,1440,789,1440,900,8-22-2022,8-58-30,49,depth_duration_stimuli/002323_2014-06-28_20-01-54_260595134347_rgbf000051-resize_4/002323_2014-06-28_20-01-54_260595134347_rgbf000051-resize_4-target.png,1000,3.7310000000000003,45,3299,1000,meters,jsons/v1_VE1000_randls_70.json,1231771,1321501,35,Woman
49,399605,DepthScenes,duration_manipulation_targetAtFixation,jsons/v1_VE1000_randls_70.json,http://54.235.29.9/FacialAge/BNav_EC2/DepthDuration/v2_depth_duration_MTurk/v2_DepthDuration_HTML.html#28,28,1440,789,1440,900,8-22-2022,8-58-30,50,depth_duration_stimuli/003534_2014-05-22_15-06-10_094959634447_rgbf000102-resize_4/003534_2014-05-22_15-06-10_094959634447_rgbf000102-resize_4-target.png,1000,1.426,42,9616,999,meters,jsons/v1_VE1000_randls_70.json,1231771,1321501,35,Woman
50,399605,DepthScenes,duration_manipulation_targetAtFixation,jsons/v1_VE1000_randls_70.json,http://54.235.29.9/FacialAge/BNav_EC2/DepthDuration/v2_depth_duration_MTurk/v2_DepthDuration_HTML.html#28,28,1440,789,1440,900,8-22-2022,8-58-30,51,depth_duration_stimuli/002637_2014-06-24_14-51-13_094959634447_rgbf000066-resize_4/002637_2014-06-24_14-51-13_094959634447_rgbf000066-resize_4-target.png,1000,1.9955,35,5635,999,meters,jsons/v1_VE1000_randls_70.json,1231771,1321501,35,Woman
51,399605,DepthScenes,duration_manipulation_targetAtFixation,jsons/v1_VE1000_randls_70.json,http://54.235.29.9/FacialAge/BNav_EC2/DepthDuration/v2_depth_duration_MTurk/v2_DepthDuration_HTML.html#28,28,1440,789,1440,900,8-22-2022,8-58-30,52,depth_duration_stimuli/000522_2014-06-08_13-35-06_260595134347_rgbf000244-resize_1/000522_2014-06-08_13-35-06_260595134347_rgbf000244-resize_1-target.png,1000,2.3715,26,6132,1000,meters,jsons/v1_VE1000_randls_70.json,1231771,1321501,35,Woman
52,399605,DepthScenes,duration_manipulation_targetAtFixation,jsons/v1_VE1000_randls_70.json,http://54.235.29.9/FacialAge/BNav_EC2/DepthDuration/v2_depth_duration_MTurk/v2_DepthDuration_HTML.html#28,28,1440,789,1440,900,8-22-2022,8-58-30,53,depth_duration_stimuli/002949_2014-06-26_15-57-42_094959634447_rgbf000079-resize_1/002949_2014-06-26_15-57-42_094959634447_rgbf000079-resize_1-target.png,1000,1.8915,42,9674,1000,meters,jsons/v1_VE1000_randls_70.json,1231771,1321501,35,Woman
53,399605,DepthScenes,duration_manipulation_targetAtFixation,jsons/v1_VE1000_randls_70.json,http://54.235.29.9/FacialAge/BNav_EC2/DepthDuration/v2_depth_duration_MTurk/v2_DepthDuration_HTML.html#28,28,1440,789,1440,900,8-22-2022,8-58-30,54,depth_duration_stimuli/002630_2014-06-24_14-47-50_094959634447_rgbf000055-resize_1/002630_2014-06-24_14-47-50_094959634447_rgbf000055-resize_1-target.png,1000,3.0095,32,16774,999,meters,jsons/v1_VE1000_randls_70.json,1231771,1321501,35,Woman
54,399605,DepthScenes,duration_manipulation_targetAtFixation,jsons/v1_VE1000_randls_70.json,http://54.235.29.9/FacialAge/BNav_EC2/DepthDuration/v2_depth_duration_MTurk/v2_DepthDuration_HTML.html#28,28,1440,789,1440,900,8-22-2022,8-58-30,55,depth_duration_stimuli/002758_2014-06-22_19-11-20_094959634447_rgbf000128-resize_1/002758_2014-06-22_19-11-20_094959634447_rgbf000128-resize_1-target.png,1000,2.555,34,30826,999,meters,jsons/v1_VE1000_randls_70.json,1231771,1321501,35,Woman
55,399605,DepthScenes,duration_manipulation_targetAtFixation,jsons/v1_VE1000_randls_70.json,http://54.235.29.9/FacialAge/BNav_EC2/DepthDuration/v2_depth_duration_MTurk/v2_DepthDuration_HTML.html#28,28,1440,789,1440,900,8-22-2022,8-58-30,56,depth_duration_stimuli/000506_2014-06-08_23-21-00_260595134347_rgbf000070-resize_7/000506_2014-06-08_23-21-00_260595134347_rgbf000070-resize_7-target.png,1000,4.0585,35,5235,999,meters,jsons/v1_VE1000_randls_70.json,1231771,1321501,35,Woman
56,399605,DepthScenes,duration_manipulation_targetAtFixation,jsons/v1_VE1000_randls_70.json,http://54.235.29.9/FacialAge/BNav_EC2/DepthDuration/v2_depth_duration_MTurk/v2_DepthDuration_HTML.html#28,28,1440,789,1440,900,8-22-2022,8-58-30,57,depth_duration_stimuli/003079_2014-06-15_15-18-20_094959634447_rgbf000152-resize_8/003079_2014-06-15_15-18-20_094959634447_rgbf000152-resize_8-target.png,1000,2.8775,40,6323,1000,meters,jsons/v1_VE1000_randls_70.json,1231771,1321501,35,Woman
57,399605,DepthScenes,duration_manipulation_targetAtFixation,jsons/v1_VE1000_randls_70.json,http://54.235.29.9/FacialAge/BNav_EC2/DepthDuration/v2_depth_duration_MTurk/v2_DepthDuration_HTML.html#28,28,1440,789,1440,900,8-22-2022,8-58-30,58,depth_duration_stimuli/001806_2014-06-26_20-50-20_260595134347_rgbf000091-resize_1/001806_2014-06-26_20-50-20_260595134347_rgbf000091-resize_1-target.png,1000,2.7305,40,6370,999,meters,jsons/v1_VE1000_randls_70.json,1231771,1321501,35,Woman
58,399605,DepthScenes,duration_manipulation_targetAtFixation,jsons/v1_VE1000_randls_70.json,http://54.235.29.9/FacialAge/BNav_EC2/DepthDuration/v2_depth_duration_MTurk/v2_DepthDuration_HTML.html#28,28,1440,789,1440,900,8-22-2022,8-58-30,59,depth_duration_stimuli/001617_2014-06-20_11-35-32_260595134347_rgbf000066-resize_1/001617_2014-06-20_11-35-32_260595134347_rgbf000066-resize_1-target.png,1000,3.7910000000000004,42,9283,1001,meters,jsons/v1_VE1000_randls_70.json,1231771,1321501,35,Woman
59,399605,DepthScenes,duration_manipulation_targetAtFixation,jsons/v1_VE1000_randls_70.json,http://54.235.29.9/FacialAge/BNav_EC2/DepthDuration/v2_depth_duration_MTurk/v2_DepthDuration_HTML.html#28,28,1440,789,1440,900,8-22-2022,8-58-30,60,depth_duration_stimuli/002279_2014-06-28_18-55-32_260595134347_rgbf000040-resize_5/002279_2014-06-28_18-55-32_260595134347_rgbf000040-resize_5-target.png,1000,1.5043333333333,25,3770,1000,meters,jsons/v1_VE1000_randls_70.json,1231771,1321501,35,Woman
60,399605,DepthScenes,duration_manipulation_targetAtFixation,jsons/v1_VE1000_randls_70.json,http://54.235.29.9/FacialAge/BNav_EC2/DepthDuration/v2_depth_duration_MTurk/v2_DepthDuration_HTML.html#28,28,1440,789,1440,900,8-22-2022,8-58-30,61,depth_duration_stimuli/000635_2014-06-08_16-38-42_260595134347_rgbf000106-resize_1/000635_2014-06-08_16-38-42_260595134347_rgbf000106-resize_1-target.png,1000,2.074,42,9165,1003,meters,jsons/v1_VE1000_randls_70.json,1231771,1321501,35,Woman
61,399605,DepthScenes,duration_manipulation_targetAtFixation,jsons/v1_VE1000_randls_70.json,http://54.235.29.9/FacialAge/BNav_EC2/DepthDuration/v2_depth_duration_MTurk/v2_DepthDuration_HTML.html#28,28,1440,789,1440,900,8-22-2022,8-58-30,62,depth_duration_stimuli/001029_2014-06-08_13-17-57_260595134347_rgbf000065-resize_1/001029_2014-06-08_13-17-57_260595134347_rgbf000065-resize_1-target.png,1000,3.0835,42,5633,999,meters,jsons/v1_VE1000_randls_70.json,1231771,1321501,35,Woman
62,399605,DepthScenes,duration_manipulation_targetAtFixation,jsons/v1_VE1000_randls_70.json,http://54.235.29.9/FacialAge/BNav_EC2/DepthDuration/v2_depth_duration_MTurk/v2_DepthDuration_HTML.html#28,28,1440,789,1440,900,8-22-2022,8-58-30,63,depth_duration_stimuli/000677_2014-06-08_23-10-32_260595134347_rgbf000158-resize_6/000677_2014-06-08_23-10-32_260595134347_rgbf000158-resize_6-target.png,1000,3.556,35,3435,1000,meters,jsons/v1_VE1000_randls_70.json,1231771,1321501,35,Woman
63,399605,DepthScenes,duration_manipulation_targetAtFixation,jsons/v1_VE1000_randls_70.json,http://54.235.29.9/FacialAge/BNav_EC2/DepthDuration/v2_depth_duration_MTurk/v2_DepthDuration_HTML.html#28,28,1440,789,1440,900,8-22-2022,8-58-30,64,depth_duration_stimuli/002663_2014-06-13_15-50-26_094959634447_rgbf000075-resize_1/002663_2014-06-13_15-50-26_094959634447_rgbf000075-resize_1-target.png,1000,4.7495,35,3465,999,meters,jsons/v1_VE1000_randls_70.json,1231771,1321501,35,Woman
64,399605,DepthScenes,duration_manipulation_targetAtFixation,jsons/v1_VE1000_randls_70.json,http://54.235.29.9/FacialAge/BNav_EC2/DepthDuration/v2_depth_duration_MTurk/v2_DepthDuration_HTML.html#28,28,1440,789,1440,900,8-22-2022,8-58-30,65,depth_duration_stimuli/000409_2014-06-04_19-23-33_260595134347_rgbf000067-resize_0/000409_2014-06-04_19-23-33_260595134347_rgbf000067-resize_0-target.png,1000,3.7335,35,4417,999,meters,jsons/v1_VE1000_randls_70.json,1231771,1321501,35,Woman
65,399605,DepthScenes,duration_manipulation_targetAtFixation,jsons/v1_VE1000_randls_70.json,http://54.235.29.9/FacialAge/BNav_EC2/DepthDuration/v2_depth_duration_MTurk/v2_DepthDuration_HTML.html#28,28,1440,789,1440,900,8-22-2022,8-58-30,66,depth_duration_stimuli/001222_2014-06-17_16-24-06_260595134347_rgbf000073-resize_0/001222_2014-06-17_16-24-06_260595134347_rgbf000073-resize-original.jpg,1000,1.4385,35,19761,999,meters,jsons/v1_VE1000_randls_70.json,1231771,1321501,35,Woman
66,399605,DepthScenes,duration_manipulation_targetAtFixation,jsons/v1_VE1000_randls_70.json,http://54.235.29.9/FacialAge/BNav_EC2/DepthDuration/v2_depth_duration_MTurk/v2_DepthDuration_HTML.html#28,28,1440,789,1440,900,8-22-2022,8-58-30,67,depth_duration_stimuli/000788_2014-06-08_22-34-36_260595134347_rgbf000131-resize_1/000788_2014-06-08_22-34-36_260595134347_rgbf000131-resize_1-target.png,1000,3.359,35,3970,1000,meters,jsons/v1_VE1000_randls_70.json,1231771,1321501,35,Woman
67,399605,DepthScenes,duration_manipulation_targetAtFixation,jsons/v1_VE1000_randls_70.json,http://54.235.29.9/FacialAge/BNav_EC2/DepthDuration/v2_depth_duration_MTurk/v2_DepthDuration_HTML.html#28,28,1440,789,1440,900,8-22-2022,8-58-30,68,depth_duration_stimuli/001235_2014-06-17_16-37-36_260595134347_rgbf000084-resize_4/001235_2014-06-17_16-37-36_260595134347_rgbf000084-resize_4-target.png,1000,3.6605,34,5353,998,meters,jsons/v1_VE1000_randls_70.json,1231771,1321501,35,Woman
68,399605,DepthScenes,duration_manipulation_targetAtFixation,jsons/v1_VE1000_randls_70.json,http://54.235.29.9/FacialAge/BNav_EC2/DepthDuration/v2_depth_duration_MTurk/v2_DepthDuration_HTML.html#28,28,1440,789,1440,900,8-22-2022,8-58-30,69,depth_duration_stimuli/001092_2014-06-15_17-34-58_260595134347_rgbf000171-resize_3/001092_2014-06-15_17-34-58_260595134347_rgbf000171-resize_3-target.png,1000,2.6935,28,3715,1000,meters,jsons/v1_VE1000_randls_70.json,1231771,1321501,35,Woman
69,399605,DepthScenes,duration_manipulation_targetAtFixation,jsons/v1_VE1000_randls_70.json,http://54.235.29.9/FacialAge/BNav_EC2/DepthDuration/v2_depth_duration_MTurk/v2_DepthDuration_HTML.html#28,28,1440,789,1440,900,8-22-2022,8-58-30,70,depth_duration_stimuli/002545_2014-06-24_13-38-53_094959634447_rgbf000080-resize_4/002545_2014-06-24_13-38-53_094959634447_rgbf000080-resize_4-target.png,1000,1.9205,35,3835,1000,meters,jsons/v1_VE1000_randls_70.json,1231771,1321501,35,Woman
70,399605,DepthScenes,duration_manipulation_targetAtFixation,jsons/v1_VE1000_randls_70.json,http://54.235.29.9/FacialAge/BNav_EC2/DepthDuration/v2_depth_duration_MTurk/v2_DepthDuration_HTML.html#28,28,1440,789,1440,900,8-22-2022,8-58-30,71,depth_duration_stimuli/001066_2014-06-08_22-03-20_260595134347_rgbf000066-resize_4/001066_2014-06-08_22-03-20_260595134347_rgbf000066-resize_4-target.png,1000,4.2330000000000005,34,4730,999,meters,jsons/v1_VE1000_randls_70.json,1231771,1321501,35,Woman
71,399605,DepthScenes,duration_manipulation_targetAtFixation,jsons/v1_VE1000_randls_70.json,http://54.235.29.9/FacialAge/BNav_EC2/DepthDuration/v2_depth_duration_MTurk/v2_DepthDuration_HTML.html#28,28,1440,789,1440,900,8-22-2022,8-58-30,72,depth_duration_stimuli/000742_2014-06-08_18-48-09_260595134347_rgbf000164-resize_4/000742_2014-06-08_18-48-09_260595134347_rgbf000164-resize_4-target.png,1000,4.632,35,4865,999,meters,jsons/v1_VE1000_randls_70.json,1231771,1321501,35,Woman
72,399605,DepthScenes,duration_manipulation_targetAtFixation,jsons/v1_VE1000_randls_70.json,http://54.235.29.9/FacialAge/BNav_EC2/DepthDuration/v2_depth_duration_MTurk/v2_DepthDuration_HTML.html#28,28,1440,789,1440,900,8-22-2022,8-58-30,73,depth_duration_stimuli/001150_2014-06-17_15-27-34_260595134347_rgbf000108-resize_2/001150_2014-06-17_15-27-34_260595134347_rgbf000108-resize_2-target.png,1000,4.0325,35,4635,998,meters,jsons/v1_VE1000_randls_70.json,1231771,1321501,35,Woman
73,399605,DepthScenes,duration_manipulation_targetAtFixation,jsons/v1_VE1000_randls_70.json,http://54.235.29.9/FacialAge/BNav_EC2/DepthDuration/v2_depth_duration_MTurk/v2_DepthDuration_HTML.html#28,28,1440,789,1440,900,8-22-2022,8-58-30,74,depth_duration_stimuli/000665_2014-06-09_20-42-35_260595134347_rgbf000110-resize_1/000665_2014-06-09_20-42-35_260595134347_rgbf000110-resize_1-target.png,1000,3.057,35,7427,1000,meters,jsons/v1_VE1000_randls_70.json,1231771,1321501,35,Woman
74,399605,DepthScenes,duration_manipulation_targetAtFixation,jsons/v1_VE1000_randls_70.json,http://54.235.29.9/FacialAge/BNav_EC2/DepthDuration/v2_depth_duration_MTurk/v2_DepthDuration_HTML.html#28,28,1440,789,1440,900,8-22-2022,8-58-30,75,depth_duration_stimuli/001110_2014-06-15_17-25-28_260595134347_rgbf000150-resize_1/001110_2014-06-15_17-25-28_260595134347_rgbf000150-resize_1-target.png,1000,1.7115,35,14172,994,meters,jsons/v1_VE1000_randls_70.json,1231771,1321501,35,Woman
75,399605,DepthScenes,duration_manipulation_targetAtFixation,jsons/v1_VE1000_randls_70.json,http://54.235.29.9/FacialAge/BNav_EC2/DepthDuration/v2_depth_duration_MTurk/v2_DepthDuration_HTML.html#28,28,1440,789,1440,900,8-22-2022,8-58-30,76,depth_duration_stimuli/000927_2014-06-09_16-32-30_260595134347_rgbf000123-resize_3/000927_2014-06-09_16-32-30_260595134347_rgbf000123-resize_3-target.png,1000,2.6785,25,6729,999,meters,jsons/v1_VE1000_randls_70.json,1231771,1321501,35,Woman
76,399605,DepthScenes,duration_manipulation_targetAtFixation,jsons/v1_VE1000_randls_70.json,http://54.235.29.9/FacialAge/BNav_EC2/DepthDuration/v2_depth_duration_MTurk/v2_DepthDuration_HTML.html#28,28,1440,789,1440,900,8-22-2022,8-58-30,77,depth_duration_stimuli/002213_2014-06-28_18-37-58_260595134347_rgbf000055-resize_1/002213_2014-06-28_18-37-58_260595134347_rgbf000055-resize_1-target.png,1000,3.62,45,4401,1000,meters,jsons/v1_VE1000_randls_70.json,1231771,1321501,35,Woman
77,399605,DepthScenes,duration_manipulation_targetAtFixation,jsons/v1_VE1000_randls_70.json,http://54.235.29.9/FacialAge/BNav_EC2/DepthDuration/v2_depth_duration_MTurk/v2_DepthDuration_HTML.html#28,28,1440,789,1440,900,8-22-2022,8-58-30,78,depth_duration_stimuli/000691_2014-06-08_13-08-50_260595134347_rgbf000132-resize_3/000691_2014-06-08_13-08-50_260595134347_rgbf000132-resize_3-target.png,1000,4.1530000000000005,41,3598,1000,meters,jsons/v1_VE1000_randls_70.json,1231771,1321501,35,Woman
78,399605,DepthScenes,duration_manipulation_targetAtFixation,jsons/v1_VE1000_randls_70.json,http://54.235.29.9/FacialAge/BNav_EC2/DepthDuration/v2_depth_duration_MTurk/v2_DepthDuration_HTML.html#28,28,1440,789,1440,900,8-22-2022,8-58-30,79,depth_duration_stimuli/002989_2014-06-15_12-25-03_094959634447_rgbf000150-resize_3/002989_2014-06-15_12-25-03_094959634447_rgbf000150-resize_3-target.png,1000,4.1975,53,3626,999,meters,jsons/v1_VE1000_randls_70.json,1231771,1321501,35,Woman
79,399605,DepthScenes,duration_manipulation_targetAtFixation,jsons/v1_VE1000_randls_70.json,http://54.235.29.9/FacialAge/BNav_EC2/DepthDuration/v2_depth_duration_MTurk/v2_DepthDuration_HTML.html#28,28,1440,789,1440,900,8-22-2022,8-58-30,80,depth_duration_stimuli/000866_2014-06-09_20-45-42_260595134347_rgbf000139-resize_1/000866_2014-06-09_20-45-42_260595134347_rgbf000139-resize_1-target.png,1000,3.2155,50,3571,1001,meters,jsons/v1_VE1000_randls_70.json,1231771,1321501,35,Woman
80,399605,DepthScenes,duration_manipulation_targetAtFixation,jsons/v1_VE1000_randls_70.json,http://54.235.29.9/FacialAge/BNav_EC2/DepthDuration/v2_depth_duration_MTurk/v2_DepthDuration_HTML.html#28,28,1440,789,1440,900,8-22-2022,8-58-30,81,depth_duration_stimuli/000493_2014-06-09_21-01-18_260595134347_rgbf000196-resize_3/000493_2014-06-09_21-01-18_260595134347_rgbf000196-resize_3-target.png,1000,3.44,49,3681,998,meters,jsons/v1_VE1000_randls_70.json,1231771,1321501,35,Woman
81,399605,DepthScenes,duration_manipulation_targetAtFixation,jsons/v1_VE1000_randls_70.json,http://54.235.29.9/FacialAge/BNav_EC2/DepthDuration/v2_depth_duration_MTurk/v2_DepthDuration_HTML.html#28,28,1440,789,1440,900,8-22-2022,8-58-30,82,depth_duration_stimuli/000191_2014-05-12_17-07-38_260595134347_rgbf000199-resize_0/000191_2014-05-12_17-07-38_260595134347_rgbf000199-resize_0-target.png,1000,3.7995,65,5019,1000,meters,jsons/v1_VE1000_randls_70.json,1231771,1321501,35,Woman
82,399605,DepthScenes,duration_manipulation_targetAtFixation,jsons/v1_VE1000_randls_70.json,http://54.235.29.9/FacialAge/BNav_EC2/DepthDuration/v2_depth_duration_MTurk/v2_DepthDuration_HTML.html#28,28,1440,789,1440,900,8-22-2022,8-58-30,83,depth_duration_stimuli/001133_2014-06-17_14-49-16_260595134347_rgbf000100-resize_0/001133_2014-06-17_14-49-16_260595134347_rgbf000100-resize_0-target.png,1000,4.2115,49,3991,1001,meters,jsons/v1_VE1000_randls_70.json,1231771,1321501,35,Woman
83,399605,DepthScenes,duration_manipulation_targetAtFixation,jsons/v1_VE1000_randls_70.json,http://54.235.29.9/FacialAge/BNav_EC2/DepthDuration/v2_depth_duration_MTurk/v2_DepthDuration_HTML.html#28,28,1440,789,1440,900,8-22-2022,8-58-30,84,depth_duration_stimuli/001132_2014-06-17_14-48-54_260595134347_rgbf000100-resize_2/001132_2014-06-17_14-48-54_260595134347_rgbf000100-resize_2-target.png,1000,3.753,60,5734,999,meters,jsons/v1_VE1000_randls_70.json,1231771,1321501,35,Woman
84,399605,DepthScenes,duration_manipulation_targetAtFixation,jsons/v1_VE1000_randls_70.json,http://54.235.29.9/FacialAge/BNav_EC2/DepthDuration/v2_depth_duration_MTurk/v2_DepthDuration_HTML.html#28,28,1440,789,1440,900,8-22-2022,8-58-30,85,depth_duration_stimuli/002600_2014-06-24_14-27-04_094959634447_rgbf000074-resize_2/002600_2014-06-24_14-27-04_094959634447_rgbf000074-resize_2-target.png,1000,2.7575,52,31594,999,meters,jsons/v1_VE1000_randls_70.json,1231771,1321501,35,Woman
85,399605,DepthScenes,duration_manipulation_targetAtFixation,jsons/v1_VE1000_randls_70.json,http://54.235.29.9/FacialAge/BNav_EC2/DepthDuration/v2_depth_duration_MTurk/v2_DepthDuration_HTML.html#28,28,1440,789,1440,900,8-22-2022,8-58-30,86,depth_duration_stimuli/003228_2014-05-14_13-42-35_094959634447_rgbf000101-resize_1/003228_2014-05-14_13-42-35_094959634447_rgbf000101-resize_1-target.png,1000,1.9680000000000002,35,3682,1000,meters,jsons/v1_VE1000_randls_70.json,1231771,1321501,35,Woman
86,399605,DepthScenes,duration_manipulation_targetAtFixation,jsons/v1_VE1000_randls_70.json,http://54.235.29.9/FacialAge/BNav_EC2/DepthDuration/v2_depth_duration_MTurk/v2_DepthDuration_HTML.html#28,28,1440,789,1440,900,8-22-2022,8-58-30,87,depth_duration_stimuli/001164_2014-06-17_15-35-46_260595134347_rgbf000085-resize_3/001164_2014-06-17_15-35-46_260595134347_rgbf000085-resize_3-target.png,1000,2.354,54,3437,999,meters,jsons/v1_VE1000_randls_70.json,1231771,1321501,35,Woman
87,399605,DepthScenes,duration_manipulation_targetAtFixation,jsons/v1_VE1000_randls_70.json,http://54.235.29.9/FacialAge/BNav_EC2/DepthDuration/v2_depth_duration_MTurk/v2_DepthDuration_HTML.html#28,28,1440,789,1440,900,8-22-2022,8-58-30,88,depth_duration_stimuli/001136_2014-06-17_15-19-41_260595134347_rgbf000076-resize_3/001136_2014-06-17_15-19-41_260595134347_rgbf000076-resize_3-target.png,1000,1.8655,52,3356,1019,meters,jsons/v1_VE1000_randls_70.json,1231771,1321501,35,Woman
88,399605,DepthScenes,duration_manipulation_targetAtFixation,jsons/v1_VE1000_randls_70.json,http://54.235.29.9/FacialAge/BNav_EC2/DepthDuration/v2_depth_duration_MTurk/v2_DepthDuration_HTML.html#28,28,1440,789,1440,900,8-22-2022,8-58-30,89,depth_duration_stimuli/003492_2014-05-21_15-50-55_094959634447_rgbf000828-resize_1/003492_2014-05-21_15-50-55_094959634447_rgbf000828-resize_1-target.png,1000,4.06875,60,3275,999,meters,jsons/v1_VE1000_randls_70.json,1231771,1321501,35,Woman
89,399605,DepthScenes,duration_manipulation_targetAtFixation,jsons/v1_VE1000_randls_70.json,http://54.235.29.9/FacialAge/BNav_EC2/DepthDuration/v2_depth_duration_MTurk/v2_DepthDuration_HTML.html#28,28,1440,789,1440,900,8-22-2022,8-58-30,90,depth_duration_stimuli/002568_2014-06-24_13-59-21_094959634447_rgbf000062-resize_4/002568_2014-06-24_13-59-21_094959634447_rgbf000062-resize_4-target.png,1000,3.015,53,3522,1002,meters,jsons/v1_VE1000_randls_70.json,1231771,1321501,35,Woman
90,399605,DepthScenes,duration_manipulation_targetAtFixation,jsons/v1_VE1000_randls_70.json,http://54.235.29.9/FacialAge/BNav_EC2/DepthDuration/v2_depth_duration_MTurk/v2_DepthDuration_HTML.html#28,28,1440,789,1440,900,8-22-2022,8-58-30,91,depth_duration_stimuli/001417_2014-06-19_16-25-36_260595134347_rgbf000115-resize_5/001417_2014-06-19_16-25-36_260595134347_rgbf000115-resize_5-target.png,1000,4.6255,62,3348,1000,meters,jsons/v1_VE1000_randls_70.json,1231771,1321501,35,Woman
91,399605,DepthScenes,duration_manipulation_targetAtFixation,jsons/v1_VE1000_randls_70.json,http://54.235.29.9/FacialAge/BNav_EC2/DepthDuration/v2_depth_duration_MTurk/v2_DepthDuration_HTML.html#28,28,1440,789,1440,900,8-22-2022,8-58-30,92,depth_duration_stimuli/003081_2014-06-15_15-19-16_094959634447_rgbf000150-resize_1/003081_2014-06-15_15-19-16_094959634447_rgbf000150-resize_1-target.png,1000,3.9125,58,4106,999,meters,jsons/v1_VE1000_randls_70.json,1231771,1321501,35,Woman
92,399605,DepthScenes,duration_manipulation_targetAtFixation,jsons/v1_VE1000_randls_70.json,http://54.235.29.9/FacialAge/BNav_EC2/DepthDuration/v2_depth_duration_MTurk/v2_DepthDuration_HTML.html#28,28,1440,789,1440,900,8-22-2022,8-58-30,93,depth_duration_stimuli/000447_2014-06-08_16-15-46_260595134347_rgbf000130-resize_1/000447_2014-06-08_16-15-46_260595134347_rgbf000130-resize_1-target.png,1000,4.479,49,3698,1000,meters,jsons/v1_VE1000_randls_70.json,1231771,1321501,35,Woman
93,399605,DepthScenes,duration_manipulation_targetAtFixation,jsons/v1_VE1000_randls_70.json,http://54.235.29.9/FacialAge/BNav_EC2/DepthDuration/v2_depth_duration_MTurk/v2_DepthDuration_HTML.html#28,28,1440,789,1440,900,8-22-2022,8-58-30,94,depth_duration_stimuli/001447_2014-06-19_17-00-32_260595134347_rgbf000082-resize_5/001447_2014-06-19_17-00-32_260595134347_rgbf000082-resize_5-target.png,1000,4.13775,42,3283,1000,meters,jsons/v1_VE1000_randls_70.json,1231771,1321501,35,Woman
94,399605,DepthScenes,duration_manipulation_targetAtFixation,jsons/v1_VE1000_randls_70.json,http://54.235.29.9/FacialAge/BNav_EC2/DepthDuration/v2_depth_duration_MTurk/v2_DepthDuration_HTML.html#28,28,1440,789,1440,900,8-22-2022,8-58-30,95,depth_duration_stimuli/001449_2014-06-19_17-01-27_260595134347_rgbf000116-resize_2/001449_2014-06-19_17-01-27_260595134347_rgbf000116-resize_2-target.png,1000,3.452,46,3787,1000,meters,jsons/v1_VE1000_randls_70.json,1231771,1321501,35,Woman
95,399605,DepthScenes,duration_manipulation_targetAtFixation,jsons/v1_VE1000_randls_70.json,http://54.235.29.9/FacialAge/BNav_EC2/DepthDuration/v2_depth_duration_MTurk/v2_DepthDuration_HTML.html#28,28,1440,789,1440,900,8-22-2022,8-58-30,96,depth_duration_stimuli/001450_2014-06-19_17-02-03_260595134347_rgbf000203-resize_4/001450_2014-06-19_17-02-03_260595134347_rgbf000203-resize_4-target.png,1000,4.0106666666667,48,3346,1000,meters,jsons/v1_VE1000_randls_70.json,1231771,1321501,35,Woman
96,399605,DepthScenes,duration_manipulation_targetAtFixation,jsons/v1_VE1000_randls_70.json,http://54.235.29.9/FacialAge/BNav_EC2/DepthDuration/v2_depth_duration_MTurk/v2_DepthDuration_HTML.html#28,28,1440,789,1440,900,8-22-2022,8-58-30,97,depth_duration_stimuli/000469_2014-06-09_19-42-10_260595134347_rgbf000081-resize_1/000469_2014-06-09_19-42-10_260595134347_rgbf000081-resize_1-target.png,1000,1.652,51,7444,999,meters,jsons/v1_VE1000_randls_70.json,1231771,1321501,35,Woman
97,399605,DepthScenes,duration_manipulation_targetAtFixation,jsons/v1_VE1000_randls_70.json,http://54.235.29.9/FacialAge/BNav_EC2/DepthDuration/v2_depth_duration_MTurk/v2_DepthDuration_HTML.html#28,28,1440,789,1440,900,8-22-2022,8-58-30,98,depth_duration_stimuli/000483_2014-06-09_20-41-45_260595134347_rgbf000116-resize_4/000483_2014-06-09_20-41-45_260595134347_rgbf000116-resize_4-target.png,1000,1.337,35,4016,999,meters,jsons/v1_VE1000_randls_70.json,1231771,1321501,35,Woman
98,399605,DepthScenes,duration_manipulation_targetAtFixation,jsons/v1_VE1000_randls_70.json,http://54.235.29.9/FacialAge/BNav_EC2/DepthDuration/v2_depth_duration_MTurk/v2_DepthDuration_HTML.html#28,28,1440,789,1440,900,8-22-2022,8-58-30,99,depth_duration_stimuli/001540_2014-06-20_17-01-05_260595134347_rgbf000086-resize_2/001540_2014-06-20_17-01-05_260595134347_rgbf000086-resize-original.jpg,1000,1.459,0,3573,1001,meters,jsons/v1_VE1000_randls_70.json,1231771,1321501,35,Woman
99,399605,DepthScenes,duration_manipulation_targetAtFixation,jsons/v1_VE1000_randls_70.json,http://54.235.29.9/FacialAge/BNav_EC2/DepthDuration/v2_depth_duration_MTurk/v2_DepthDuration_HTML.html#28,28,1440,789,1440,900,8-22-2022,8-58-30,100,depth_duration_stimuli/002509_2014-06-24_13-19-22_094959634447_rgbf000077-resize_0/002509_2014-06-24_13-19-22_094959634447_rgbf000077-resize_0-target.png,1000,1.3065,35,3914,1001,meters,jsons/v1_VE1000_randls_70.json,1231771,1321501,35,Woman
100,399605,DepthScenes,duration_manipulation_targetAtFixation,jsons/v1_VE1000_randls_70.json,http://54.235.29.9/FacialAge/BNav_EC2/DepthDuration/v2_depth_duration_MTurk/v2_DepthDuration_HTML.html#28,28,1440,789,1440,900,8-22-2022,8-58-30,101,depth_duration_stimuli/003338_2014-05-20_11-01-23_094959634447_rgbf000051-resize_6/003338_2014-05-20_11-01-23_094959634447_rgbf000051-resize_6-target.png,1000,1.693,35,3867,999,meters,jsons/v1_VE1000_randls_70.json,1231771,1321501,35,Woman
101,399605,DepthScenes,duration_manipulation_targetAtFixation,jsons/v1_VE1000_randls_70.json,http://54.235.29.9/FacialAge/BNav_EC2/DepthDuration/v2_depth_duration_MTurk/v2_DepthDuration_HTML.html#28,28,1440,789,1440,900,8-22-2022,8-58-30,102,depth_duration_stimuli/002375_2014-06-28_20-13-44_260595134347_rgbf000032-resize_1/002375_2014-06-28_20-13-44_260595134347_rgbf000032-resize_1-target.png,1000,4.0175,45,10025,999,meters,jsons/v1_VE1000_randls_70.json,1231771,1321501,35,Woman
102,399605,DepthScenes,duration_manipulation_targetAtFixation,jsons/v1_VE1000_randls_70.json,http://54.235.29.9/FacialAge/BNav_EC2/DepthDuration/v2_depth_duration_MTurk/v2_DepthDuration_HTML.html#28,28,1440,789,1440,900,8-22-2022,8-58-30,103,depth_duration_stimuli/002657_2014-06-13_15-29-54_094959634447_rgbf000150-resize_1/002657_2014-06-13_15-29-54_094959634447_rgbf000150-resize_1-target.png,1000,4.919,48,3594,1000,meters,jsons/v1_VE1000_randls_70.json,1231771,1321501,35,Woman
103,399605,DepthScenes,duration_manipulation_targetAtFixation,jsons/v1_VE1000_randls_70.json,http://54.235.29.9/FacialAge/BNav_EC2/DepthDuration/v2_depth_duration_MTurk/v2_DepthDuration_HTML.html#28,28,1440,789,1440,900,8-22-2022,8-58-30,104,depth_duration_stimuli/002272_2014-06-28_18-53-56_260595134347_rgbf000067-resize_2/002272_2014-06-28_18-53-56_260595134347_rgbf000067-resize_2-target.png,1000,1.138,30,7003,1001,meters,jsons/v1_VE1000_randls_70.json,1231771,1321501,35,Woman
104,399605,DepthScenes,duration_manipulation_targetAtFixation,jsons/v1_VE1000_randls_70.json,http://54.235.29.9/FacialAge/BNav_EC2/DepthDuration/v2_depth_duration_MTurk/v2_DepthDuration_HTML.html#28,28,1440,789,1440,900,8-22-2022,8-58-30,105,depth_duration_stimuli/001571_2014-06-20_17-21-32_260595134347_rgbf000089-resize_1/001571_2014-06-20_17-21-32_260595134347_rgbf000089-resize_1-target.png,1000,1.86,35,3298,1001,meters,jsons/v1_VE1000_randls_70.json,1231771,1321501,35,Woman
105,399605,DepthScenes,duration_manipulation_targetAtFixation,jsons/v1_VE1000_randls_70.json,http://54.235.29.9/FacialAge/BNav_EC2/DepthDuration/v2_depth_duration_MTurk/v2_DepthDuration_HTML.html#28,28,1440,789,1440,900,8-22-2022,8-58-30,106,depth_duration_stimuli/002043_2014-06-24_20-29-38_260595134347_rgbf000039-resize_4/002043_2014-06-24_20-29-38_260595134347_rgbf000039-resize_4-target.png,1000,2.8435,45,3300,1002,meters,jsons/v1_VE1000_randls_70.json,1231771,1321501,35,Woman
106,399605,DepthScenes,duration_manipulation_targetAtFixation,jsons/v1_VE1000_randls_70.json,http://54.235.29.9/FacialAge/BNav_EC2/DepthDuration/v2_depth_duration_MTurk/v2_DepthDuration_HTML.html#28,28,1440,789,1440,900,8-22-2022,8-58-30,107,depth_duration_stimuli/003048_2014-06-15_13-49-43_094959634447_rgbf000150-resize_1/003048_2014-06-15_13-49-43_094959634447_rgbf000150-resize_1-target.png,1000,4.0035,52,4347,1000,meters,jsons/v1_VE1000_randls_70.json,1231771,1321501,35,Woman
107,399605,DepthScenes,duration_manipulation_targetAtFixation,jsons/v1_VE1000_randls_70.json,http://54.235.29.9/FacialAge/BNav_EC2/DepthDuration/v2_depth_duration_MTurk/v2_DepthDuration_HTML.html#28,28,1440,789,1440,900,8-22-2022,8-58-30,108,depth_duration_stimuli/000009_2014-05-26_14-32-05_260595134347_rgbf000034-resize_3/000009_2014-05-26_14-32-05_260595134347_rgbf000034-resize_3-target.png,1000,3.8715,65,3322,999,meters,jsons/v1_VE1000_randls_70.json,1231771,1321501,35,Woman
108,399605,DepthScenes,duration_manipulation_targetAtFixation,jsons/v1_VE1000_randls_70.json,http://54.235.29.9/FacialAge/BNav_EC2/DepthDuration/v2_depth_duration_MTurk/v2_DepthDuration_HTML.html#28,28,1440,789,1440,900,8-22-2022,8-58-30,109,depth_duration_stimuli/001828_2014-06-26_21-40-03_260595134347_rgbf000024-resize_0/001828_2014-06-26_21-40-03_260595134347_rgbf000024-resize_0-target.png,1000,4.8260000000000005,54,21913,999,meters,jsons/v1_VE1000_randls_70.json,1231771,1321501,35,Woman
109,399605,DepthScenes,duration_manipulation_targetAtFixation,jsons/v1_VE1000_randls_70.json,http://54.235.29.9/FacialAge/BNav_EC2/DepthDuration/v2_depth_duration_MTurk/v2_DepthDuration_HTML.html#28,28,1440,789,1440,900,8-22-2022,8-58-30,110,depth_duration_stimuli/000906_2014-06-08_13-35-43_260595134347_rgbf000155-resize_1/000906_2014-06-08_13-35-43_260595134347_rgbf000155-resize_1-target.png,1000,2.8489999999999998,54,3835,1001,meters,jsons/v1_VE1000_randls_70.json,1231771,1321501,35,Woman
110,399605,DepthScenes,duration_manipulation_targetAtFixation,jsons/v1_VE1000_randls_70.json,http://54.235.29.9/FacialAge/BNav_EC2/DepthDuration/v2_depth_duration_MTurk/v2_DepthDuration_HTML.html#28,28,1440,789,1440,900,8-22-2022,8-58-30,111,depth_duration_stimuli/002805_2014-06-22_19-54-03_094959634447_rgbf000079-resize_1/002805_2014-06-22_19-54-03_094959634447_rgbf000079-resize_1-target.png,1000,3.1439999999999997,52,53018,1000,meters,jsons/v1_VE1000_randls_70.json,1231771,1321501,35,Woman
111,399605,DepthScenes,duration_manipulation_targetAtFixation,jsons/v1_VE1000_randls_70.json,http://54.235.29.9/FacialAge/BNav_EC2/DepthDuration/v2_depth_duration_MTurk/v2_DepthDuration_HTML.html#28,28,1440,789,1440,900,8-22-2022,8-58-30,112,depth_duration_stimuli/001810_2014-06-26_20-51-35_260595134347_rgbf000040-resize_3/001810_2014-06-26_20-51-35_260595134347_rgbf000040-resize_3-target.png,1000,2.2525,37,3771,1001,meters,jsons/v1_VE1000_randls_70.json,1231771,1321501,35,Woman
112,399605,DepthScenes,duration_manipulation_targetAtFixation,jsons/v1_VE1000_randls_70.json,http://54.235.29.9/FacialAge/BNav_EC2/DepthDuration/v2_depth_duration_MTurk/v2_DepthDuration_HTML.html#28,28,1440,789,1440,900,8-22-2022,8-58-30,113,depth_duration_stimuli/003010_2014-06-15_12-54-35_094959634447_rgbf000112-resize_0/003010_2014-06-15_12-54-35_094959634447_rgbf000112-resize_0-target.png,1000,3.1185,54,3194,999,meters,jsons/v1_VE1000_randls_70.json,1231771,1321501,35,Woman
113,399605,DepthScenes,duration_manipulation_targetAtFixation,jsons/v1_VE1000_randls_70.json,http://54.235.29.9/FacialAge/BNav_EC2/DepthDuration/v2_depth_duration_MTurk/v2_DepthDuration_HTML.html#28,28,1440,789,1440,900,8-22-2022,8-58-30,114,depth_duration_stimuli/001016_2014-06-09_16-16-10_260595134347_rgbf000112-resize_5/001016_2014-06-09_16-16-10_260595134347_rgbf000112-resize_5-target.png,1000,1.6565,52,3354,999,meters,jsons/v1_VE1000_randls_70.json,1231771,1321501,35,Woman
114,399605,DepthScenes,duration_manipulation_targetAtFixation,jsons/v1_VE1000_randls_70.json,http://54.235.29.9/FacialAge/BNav_EC2/DepthDuration/v2_depth_duration_MTurk/v2_DepthDuration_HTML.html#28,28,1440,789,1440,900,8-22-2022,8-58-30,115,depth_duration_stimuli/002340_2014-06-28_20-05-46_260595134347_rgbf000113-resize_0/002340_2014-06-28_20-05-46_260595134347_rgbf000113-resize_0-target.png,1000,2.4735,48,3379,1000,meters,jsons/v1_VE1000_randls_70.json,1231771,1321501,35,Woman
115,399605,DepthScenes,duration_manipulation_targetAtFixation,jsons/v1_VE1000_randls_70.json,http://54.235.29.9/FacialAge/BNav_EC2/DepthDuration/v2_depth_duration_MTurk/v2_DepthDuration_HTML.html#28,28,1440,789,1440,900,8-22-2022,8-58-30,116,depth_duration_stimuli/001170_2014-06-17_15-43-44_260595134347_rgbf000096-resize_6/001170_2014-06-17_15-43-44_260595134347_rgbf000096-resize-original.jpg,1000,1.1909999999999998,0,3091,999,meters,jsons/v1_VE1000_randls_70.json,1231771,1321501,35,Woman
116,399605,DepthScenes,duration_manipulation_targetAtFixation,jsons/v1_VE1000_randls_70.json,http://54.235.29.9/FacialAge/BNav_EC2/DepthDuration/v2_depth_duration_MTurk/v2_DepthDuration_HTML.html#28,28,1440,789,1440,900,8-22-2022,8-58-30,117,depth_duration_stimuli/001056_2014-06-08_18-46-44_260595134347_rgbf000068-resize_0/001056_2014-06-08_18-46-44_260595134347_rgbf000068-resize_0-target.png,1000,2.6625,52,4540,1000,meters,jsons/v1_VE1000_randls_70.json,1231771,1321501,35,Woman
117,399605,DepthScenes,duration_manipulation_targetAtFixation,jsons/v1_VE1000_randls_70.json,http://54.235.29.9/FacialAge/BNav_EC2/DepthDuration/v2_depth_duration_MTurk/v2_DepthDuration_HTML.html#28,28,1440,789,1440,900,8-22-2022,8-58-30,118,depth_duration_stimuli/002199_2014-06-28_18-33-56_260595134347_rgbf000074-resize_0/002199_2014-06-28_18-33-56_260595134347_rgbf000074-resize_0-target.png,1000,1.996,37,3557,999,meters,jsons/v1_VE1000_randls_70.json,1231771,1321501,35,Woman
118,399605,DepthScenes,duration_manipulation_targetAtFixation,jsons/v1_VE1000_randls_70.json,http://54.235.29.9/FacialAge/BNav_EC2/DepthDuration/v2_depth_duration_MTurk/v2_DepthDuration_HTML.html#28,28,1440,789,1440,900,8-22-2022,8-58-30,119,depth_duration_stimuli/002118_2014-06-25_20-32-08_260595134347_rgbf000078-resize_1/002118_2014-06-25_20-32-08_260595134347_rgbf000078-resize_1-target.png,1000,2.6460000000000004,35,3291,1000,meters,jsons/v1_VE1000_randls_70.json,1231771,1321501,35,Woman
119,399605,DepthScenes,duration_manipulation_targetAtFixation,jsons/v1_VE1000_randls_70.json,http://54.235.29.9/FacialAge/BNav_EC2/DepthDuration/v2_depth_duration_MTurk/v2_DepthDuration_HTML.html#28,28,1440,789,1440,900,8-22-2022,8-58-30,120,depth_duration_stimuli/001516_2014-06-20_16-25-09_260595134347_rgbf000076-resize_2/001516_2014-06-20_16-25-09_260595134347_rgbf000076-resize_2-target.png,1000,1.7445,46,4194,1000,meters,jsons/v1_VE1000_randls_70.json,1231771,1321501,35,Woman
120,399605,DepthScenes,duration_manipulation_targetAtFixation,jsons/v1_VE1000_randls_70.json,http://54.235.29.9/FacialAge/BNav_EC2/DepthDuration/v2_depth_duration_MTurk/v2_DepthDuration_HTML.html#28,28,1440,789,1440,900,8-22-2022,8-58-30,121,depth_duration_stimuli/002057_2014-06-24_21-00-13_260595134347_rgbf000120-resize_1/002057_2014-06-24_21-00-13_260595134347_rgbf000120-resize_1-target.png,1000,2.967,56,3785,999,meters,jsons/v1_VE1000_randls_70.json,1231771,1321501,35,Woman
121,399605,DepthScenes,duration_manipulation_targetAtFixation,jsons/v1_VE1000_randls_70.json,http://54.235.29.9/FacialAge/BNav_EC2/DepthDuration/v2_depth_duration_MTurk/v2_DepthDuration_HTML.html#28,28,1440,789,1440,900,8-22-2022,8-58-30,122,depth_duration_stimuli/000709_2014-06-08_13-51-55_260595134347_rgbf000068-resize_3/000709_2014-06-08_13-51-55_260595134347_rgbf000068-resize_3-target.png,1000,1.8030000000000002,67,4595,1007,meters,jsons/v1_VE1000_randls_70.json,1231771,1321501,35,Woman
122,399605,DepthScenes,duration_manipulation_targetAtFixation,jsons/v1_VE1000_randls_70.json,http://54.235.29.9/FacialAge/BNav_EC2/DepthDuration/v2_depth_duration_MTurk/v2_DepthDuration_HTML.html#28,28,1440,789,1440,900,8-22-2022,8-58-30,123,depth_duration_stimuli/002039_2014-06-24_20-22-38_260595134347_rgbf000084-resize_1/002039_2014-06-24_20-22-38_260595134347_rgbf000084-resize_1-target.png,1000,4.408,62,3394,999,meters,jsons/v1_VE1000_randls_70.json,1231771,1321501,35,Woman
123,399605,DepthScenes,duration_manipulation_targetAtFixation,jsons/v1_VE1000_randls_70.json,http://54.235.29.9/FacialAge/BNav_EC2/DepthDuration/v2_depth_duration_MTurk/v2_DepthDuration_HTML.html#28,28,1440,789,1440,900,8-22-2022,8-58-30,124,depth_duration_stimuli/002103_2014-06-25_20-00-40_260595134347_rgbf000049-resize_0/002103_2014-06-25_20-00-40_260595134347_rgbf000049-resize_0-target.png,1000,4.105,60,3662,1000,meters,jsons/v1_VE1000_randls_70.json,1231771,1321501,35,Woman
124,399605,DepthScenes,duration_manipulation_targetAtFixation,jsons/v1_VE1000_randls_70.json,http://54.235.29.9/FacialAge/BNav_EC2/DepthDuration/v2_depth_duration_MTurk/v2_DepthDuration_HTML.html#28,28,1440,789,1440,900,8-22-2022,8-58-30,125,depth_duration_stimuli/002964_2014-06-08_17-46-11_094959634447_rgbf000091-resize_4/002964_2014-06-08_17-46-11_094959634447_rgbf000091-resize_4-target.png,1000,1.6909999999999998,45,3576,1000,meters,jsons/v1_VE1000_randls_70.json,1231771,1321501,35,Woman
125,399605,DepthScenes,duration_manipulation_targetAtFixation,jsons/v1_VE1000_randls_70.json,http://54.235.29.9/FacialAge/BNav_EC2/DepthDuration/v2_depth_duration_MTurk/v2_DepthDuration_HTML.html#28,28,1440,789,1440,900,8-22-2022,8-58-30,126,depth_duration_stimuli/002136_2014-06-25_21-18-03_260595134347_rgbf000109-resize_3/002136_2014-06-25_21-18-03_260595134347_rgbf000109-resize_3-target.png,1000,1.9569999999999999,49,3434,1000,meters,jsons/v1_VE1000_randls_70.json,1231771,1321501,35,Woman
126,399605,DepthScenes,duration_manipulation_targetAtFixation,jsons/v1_VE1000_randls_70.json,http://54.235.29.9/FacialAge/BNav_EC2/DepthDuration/v2_depth_duration_MTurk/v2_DepthDuration_HTML.html#28,28,1440,789,1440,900,8-22-2022,8-58-30,127,depth_duration_stimuli/000642_2014-06-08_16-59-25_260595134347_rgbf000098-resize_2/000642_2014-06-08_16-59-25_260595134347_rgbf000098-resize_2-target.png,1000,2.8815,42,3473,999,meters,jsons/v1_VE1000_randls_70.json,1231771,1321501,35,Woman
127,399605,DepthScenes,duration_manipulation_targetAtFixation,jsons/v1_VE1000_randls_70.json,http://54.235.29.9/FacialAge/BNav_EC2/DepthDuration/v2_depth_duration_MTurk/v2_DepthDuration_HTML.html#28,28,1440,789,1440,900,8-22-2022,8-58-30,128,depth_duration_stimuli/002425_2014-06-28_20-27-29_260595134347_rgbf000031-resize_8/002425_2014-06-28_20-27-29_260595134347_rgbf000031-resize_8-target.png,1000,3.8960000000000004,46,5781,1001,meters,jsons/v1_VE1000_randls_70.json,1231771,1321501,35,Woman
128,399605,DepthScenes,duration_manipulation_targetAtFixation,jsons/v1_VE1000_randls_70.json,http://54.235.29.9/FacialAge/BNav_EC2/DepthDuration/v2_depth_duration_MTurk/v2_DepthDuration_HTML.html#28,28,1440,789,1440,900,8-22-2022,8-58-30,129,depth_duration_stimuli/000470_2014-06-09_19-42-40_260595134347_rgbf000094-resize_1/000470_2014-06-09_19-42-40_260595134347_rgbf000094-resize_1-target.png,1000,1.831,39,3355,1001,meters,jsons/v1_VE1000_randls_70.json,1231771,1321501,35,Woman
129,399605,DepthScenes,duration_manipulation_targetAtFixation,jsons/v1_VE1000_randls_70.json,http://54.235.29.9/FacialAge/BNav_EC2/DepthDuration/v2_depth_duration_MTurk/v2_DepthDuration_HTML.html#28,28,1440,789,1440,900,8-22-2022,8-58-30,130,depth_duration_stimuli/000109_2014-05-14_23-41-52_260595134347_rgbf000035-resize_9/000109_2014-05-14_23-41-52_260595134347_rgbf000035-resize_9-target.png,1000,1.3545,29,3747,1001,meters,jsons/v1_VE1000_randls_70.json,1231771,1321501,35,Woman
130,399605,DepthScenes,duration_manipulation_targetAtFixation,jsons/v1_VE1000_randls_70.json,http://54.235.29.9/FacialAge/BNav_EC2/DepthDuration/v2_depth_duration_MTurk/v2_DepthDuration_HTML.html#28,28,1440,789,1440,900,8-22-2022,8-58-30,131,depth_duration_stimuli/001059_2014-06-08_21-53-27_260595134347_rgbf000061-resize_4/001059_2014-06-08_21-53-27_260595134347_rgbf000061-resize_4-target.png,1000,2.4185,45,3603,1001,meters,jsons/v1_VE1000_randls_70.json,1231771,1321501,35,Woman
131,399605,DepthScenes,duration_manipulation_targetAtFixation,jsons/v1_VE1000_randls_70.json,http://54.235.29.9/FacialAge/BNav_EC2/DepthDuration/v2_depth_duration_MTurk/v2_DepthDuration_HTML.html#28,28,1440,789,1440,900,8-22-2022,8-58-30,132,depth_duration_stimuli/001032_2014-06-08_13-23-17_260595134347_rgbf000021-resize_3/001032_2014-06-08_13-23-17_260595134347_rgbf000021-resize_3-target.png,1000,3.2725,41,4940,1007,meters,jsons/v1_VE1000_randls_70.json,1231771,1321501,35,Woman
132,399605,DepthScenes,duration_manipulation_targetAtFixation,jsons/v1_VE1000_randls_70.json,http://54.235.29.9/FacialAge/BNav_EC2/DepthDuration/v2_depth_duration_MTurk/v2_DepthDuration_HTML.html#28,28,1440,789,1440,900,8-22-2022,8-58-30,133,depth_duration_stimuli/003292_2014-05-14_21-53-49_094959634447_rgbf000100-resize_2/003292_2014-05-14_21-53-49_094959634447_rgbf000100-resize_2-target.png,1000,3.4815,40,3456,997,meters,jsons/v1_VE1000_randls_70.json,1231771,1321501,35,Woman
133,399605,DepthScenes,duration_manipulation_targetAtFixation,jsons/v1_VE1000_randls_70.json,http://54.235.29.9/FacialAge/BNav_EC2/DepthDuration/v2_depth_duration_MTurk/v2_DepthDuration_HTML.html#28,28,1440,789,1440,900,8-22-2022,8-58-30,134,depth_duration_stimuli/002639_2014-06-24_14-51-37_094959634447_rgbf000074-resize_4/002639_2014-06-24_14-51-37_094959634447_rgbf000074-resize_4-target.png,1000,4.0375,46,3587,1000,meters,jsons/v1_VE1000_randls_70.json,1231771,1321501,35,Woman
134,399605,DepthScenes,duration_manipulation_targetAtFixation,jsons/v1_VE1000_randls_70.json,http://54.235.29.9/FacialAge/BNav_EC2/DepthDuration/v2_depth_duration_MTurk/v2_DepthDuration_HTML.html#28,28,1440,789,1440,900,8-22-2022,8-58-30,135,depth_duration_stimuli/002072_2014-06-24_21-48-06_260595134347_rgbf000115-resize_0/002072_2014-06-24_21-48-06_260595134347_rgbf000115-resize-original.jpg,1000,4.702,0,3117,999,meters,jsons/v1_VE1000_randls_70.json,1231771,1321501,35,Woman
135,399605,DepthScenes,duration_manipulation_targetAtFixation,jsons/v1_VE1000_randls_70.json,http://54.235.29.9/FacialAge/BNav_EC2/DepthDuration/v2_depth_duration_MTurk/v2_DepthDuration_HTML.html#28,28,1440,789,1440,900,8-22-2022,8-58-30,136,depth_duration_stimuli/002445_2014-06-28_20-32-16_260595134347_rgbf000029-resize_4/002445_2014-06-28_20-32-16_260595134347_rgbf000029-resize_4-target.png,1000,2.5315,32,3222,999,meters,jsons/v1_VE1000_randls_70.json,1231771,1321501,35,Woman
136,399605,DepthScenes,duration_manipulation_targetAtFixation,jsons/v1_VE1000_randls_70.json,http://54.235.29.9/FacialAge/BNav_EC2/DepthDuration/v2_depth_duration_MTurk/v2_DepthDuration_HTML.html#28,28,1440,789,1440,900,8-22-2022,8-58-30,137,depth_duration_stimuli/000780_2014-06-08_22-28-29_260595134347_rgbf000126-resize_1/000780_2014-06-08_22-28-29_260595134347_rgbf000126-resize_1-target.png,1000,3.3825,45,3492,1001,meters,jsons/v1_VE1000_randls_70.json,1231771,1321501,35,Woman
137,399605,DepthScenes,duration_manipulation_targetAtFixation,jsons/v1_VE1000_randls_70.json,http://54.235.29.9/FacialAge/BNav_EC2/DepthDuration/v2_depth_duration_MTurk/v2_DepthDuration_HTML.html#28,28,1440,789,1440,900,8-22-2022,8-58-30,138,depth_duration_stimuli/002570_2014-06-24_13-59-54_094959634447_rgbf000059-resize_0/002570_2014-06-24_13-59-54_094959634447_rgbf000059-resize_0-target.png,1000,4.037,48,3314,999,meters,jsons/v1_VE1000_randls_70.json,1231771,1321501,35,Woman
138,399605,DepthScenes,duration_manipulation_targetAtFixation,jsons/v1_VE1000_randls_70.json,http://54.235.29.9/FacialAge/BNav_EC2/DepthDuration/v2_depth_duration_MTurk/v2_DepthDuration_HTML.html#28,28,1440,789,1440,900,8-22-2022,8-58-30,139,depth_duration_stimuli/002467_2014-06-28_20-38-07_260595134347_rgbf000026-resize_2/002467_2014-06-28_20-38-07_260595134347_rgbf000026-resize_2-target.png,1000,4.742,55,5017,999,meters,jsons/v1_VE1000_randls_70.json,1231771,1321501,35,Woman
139,399605,DepthScenes,duration_manipulation_targetAtFixation,jsons/v1_VE1000_randls_70.json,http://54.235.29.9/FacialAge/BNav_EC2/DepthDuration/v2_depth_duration_MTurk/v2_DepthDuration_HTML.html#28,28,1440,789,1440,900,8-22-2022,8-58-30,140,depth_duration_stimuli/002153_2014-06-25_21-27-18_260595134347_rgbf000038-resize_5/002153_2014-06-25_21-27-18_260595134347_rgbf000038-resize_5-target.png,1000,2.505,35,3409,999,meters,jsons/v1_VE1000_randls_70.json,1231771,1321501,35,Woman
140,399605,DepthScenes,duration_manipulation_targetAtFixation,jsons/v1_VE1000_randls_70.json,http://54.235.29.9/FacialAge/BNav_EC2/DepthDuration/v2_depth_duration_MTurk/v2_DepthDuration_HTML.html#28,28,1440,789,1440,900,8-22-2022,8-58-30,141,depth_duration_stimuli/002660_2014-06-13_15-44-18_094959634447_rgbf001878-resize_2/002660_2014-06-13_15-44-18_094959634447_rgbf001878-resize_2-target.png,1000,3.576,41,3525,1000,meters,jsons/v1_VE1000_randls_70.json,1231771,1321501,35,Woman
141,399605,DepthScenes,duration_manipulation_targetAtFixation,jsons/v1_VE1000_randls_70.json,http://54.235.29.9/FacialAge/BNav_EC2/DepthDuration/v2_depth_duration_MTurk/v2_DepthDuration_HTML.html#28,28,1440,789,1440,900,8-22-2022,8-58-30,142,depth_duration_stimuli/001055_2014-06-08_18-45-35_260595134347_rgbf000111-resize_4/001055_2014-06-08_18-45-35_260595134347_rgbf000111-resize_4-target.png,1000,2.4290000000000003,56,3817,999,meters,jsons/v1_VE1000_randls_70.json,1231771,1321501,35,Woman
142,399605,DepthScenes,duration_manipulation_targetAtFixation,jsons/v1_VE1000_randls_70.json,http://54.235.29.9/FacialAge/BNav_EC2/DepthDuration/v2_depth_duration_MTurk/v2_DepthDuration_HTML.html#28,28,1440,789,1440,900,8-22-2022,8-58-30,143,depth_duration_stimuli/000549_2014-06-08_22-10-24_260595134347_rgbf000247-resize_3/000549_2014-06-08_22-10-24_260595134347_rgbf000247-resize_3-target.png,1000,1.841,32,3305,999,meters,jsons/v1_VE1000_randls_70.json,1231771,1321501,35,Woman
143,399605,DepthScenes,duration_manipulation_targetAtFixation,jsons/v1_VE1000_randls_70.json,http://54.235.29.9/FacialAge/BNav_EC2/DepthDuration/v2_depth_duration_MTurk/v2_DepthDuration_HTML.html#28,28,1440,789,1440,900,8-22-2022,8-58-30,144,depth_duration_stimuli/001167_2014-06-17_15-38-07_260595134347_rgbf000108-resize_0/001167_2014-06-17_15-38-07_260595134347_rgbf000108-resize_0-target.png,1000,1.8505,33,3240,1000,meters,jsons/v1_VE1000_randls_70.json,1231771,1321501,35,Woman
144,399605,DepthScenes,duration_manipulation_targetAtFixation,jsons/v1_VE1000_randls_70.json,http://54.235.29.9/FacialAge/BNav_EC2/DepthDuration/v2_depth_duration_MTurk/v2_DepthDuration_HTML.html#28,28,1440,789,1440,900,8-22-2022,8-58-30,145,depth_duration_stimuli/003587_2014-05-23_16-48-02_094959634447_rgbf002384-resize_2/003587_2014-05-23_16-48-02_094959634447_rgbf002384-resize_2-target.png,1000,1.357,25,3674,999,meters,jsons/v1_VE1000_randls_70.json,1231771,1321501,35,Woman
145,399605,DepthScenes,duration_manipulation_targetAtFixation,jsons/v1_VE1000_randls_70.json,http://54.235.29.9/FacialAge/BNav_EC2/DepthDuration/v2_depth_duration_MTurk/v2_DepthDuration_HTML.html#28,28,1440,789,1440,900,8-22-2022,8-58-30,146,depth_duration_stimuli/001498_2014-06-19_17-45-14_260595134347_rgbf000129-resize_4/001498_2014-06-19_17-45-14_260595134347_rgbf000129-resize-original.jpg,1000,1.4075,0,3131,1001,meters,jsons/v1_VE1000_randls_70.json,1231771,1321501,35,Woman
146,399605,DepthScenes,duration_manipulation_targetAtFixation,jsons/v1_VE1000_randls_70.json,http://54.235.29.9/FacialAge/BNav_EC2/DepthDuration/v2_depth_duration_MTurk/v2_DepthDuration_HTML.html#28,28,1440,789,1440,900,8-22-2022,8-58-30,147,depth_duration_stimuli/000758_2014-06-08_22-05-08_260595134347_rgbf000085-resize_0/000758_2014-06-08_22-05-08_260595134347_rgbf000085-resize_0-target.png,1000,3.3810000000000002,35,3250,998,meters,jsons/v1_VE1000_randls_70.json,1231771,1321501,35,Woman
147,399605,DepthScenes,duration_manipulation_targetAtFixation,jsons/v1_VE1000_randls_70.json,http://54.235.29.9/FacialAge/BNav_EC2/DepthDuration/v2_depth_duration_MTurk/v2_DepthDuration_HTML.html#28,28,1440,789,1440,900,8-22-2022,8-58-30,148,depth_duration_stimuli/000854_2014-06-09_19-43-13_260595134347_rgbf000066-resize_0/000854_2014-06-09_19-43-13_260595134347_rgbf000066-resize_0-target.png,1000,3.068,36,3363,1002,meters,jsons/v1_VE1000_randls_70.json,1231771,1321501,35,Woman
148,399605,DepthScenes,duration_manipulation_targetAtFixation,jsons/v1_VE1000_randls_70.json,http://54.235.29.9/FacialAge/BNav_EC2/DepthDuration/v2_depth_duration_MTurk/v2_DepthDuration_HTML.html#28,28,1440,789,1440,900,8-22-2022,8-58-30,149,depth_duration_stimuli/000810_2014-06-08_17-20-01_260595134347_rgbf000105-resize_0/000810_2014-06-08_17-20-01_260595134347_rgbf000105-resize_0-target.png,1000,1.4865,34,3347,999,meters,jsons/v1_VE1000_randls_70.json,1231771,1321501,35,Woman
149,399605,DepthScenes,duration_manipulation_targetAtFixation,jsons/v1_VE1000_randls_70.json,http://54.235.29.9/FacialAge/BNav_EC2/DepthDuration/v2_depth_duration_MTurk/v2_DepthDuration_HTML.html#28,28,1440,789,1440,900,8-22-2022,8-58-30,150,depth_duration_stimuli/001214_2014-06-17_16-13-55_260595134347_rgbf000111-resize_0/001214_2014-06-17_16-13-55_260595134347_rgbf000111-resize_0-target.png,1000,2.6505,30,3345,999,meters,jsons/v1_VE1000_randls_70.json,1231771,1321501,35,Woman
150,399605,DepthScenes,duration_manipulation_targetAtFixation,jsons/v1_VE1000_randls_70.json,http://54.235.29.9/FacialAge/BNav_EC2/DepthDuration/v2_depth_duration_MTurk/v2_DepthDuration_HTML.html#28,28,1440,789,1440,900,8-22-2022,8-58-30,151,depth_duration_stimuli/000736_2014-06-08_18-24-15_260595134347_rgbf000206-resize_3/000736_2014-06-08_18-24-15_260595134347_rgbf000206-resize_3-target.png,1000,3.515,32,3898,1000,meters,jsons/v1_VE1000_randls_70.json,1231771,1321501,35,Woman
151,399605,DepthScenes,duration_manipulation_targetAtFixation,jsons/v1_VE1000_randls_70.json,http://54.235.29.9/FacialAge/BNav_EC2/DepthDuration/v2_depth_duration_MTurk/v2_DepthDuration_HTML.html#28,28,1440,789,1440,900,8-22-2022,8-58-30,152,depth_duration_stimuli/000137_2014-05-20_17-04-49_260595134347_rgbf000120-resize_1/000137_2014-05-20_17-04-49_260595134347_rgbf000120-resize_1-target.png,1000,3.786,48,4545,999,meters,jsons/v1_VE1000_randls_70.json,1231771,1321501,35,Woman
152,399605,DepthScenes,duration_manipulation_targetAtFixation,jsons/v1_VE1000_randls_70.json,http://54.235.29.9/FacialAge/BNav_EC2/DepthDuration/v2_depth_duration_MTurk/v2_DepthDuration_HTML.html#28,28,1440,789,1440,900,8-22-2022,8-58-30,153,depth_duration_stimuli/003070_2014-06-15_14-58-27_094959634447_rgbf000150-resize_3/003070_2014-06-15_14-58-27_094959634447_rgbf000150-resize_3-target.png,1000,2.9415,40,3237,1002,meters,jsons/v1_VE1000_randls_70.json,1231771,1321501,35,Woman
153,399605,DepthScenes,duration_manipulation_targetAtFixation,jsons/v1_VE1000_randls_70.json,http://54.235.29.9/FacialAge/BNav_EC2/DepthDuration/v2_depth_duration_MTurk/v2_DepthDuration_HTML.html#28,28,1440,789,1440,900,8-22-2022,8-58-30,154,depth_duration_stimuli/000943_2014-06-09_19-31-07_260595134347_rgbf000128-resize_1/000943_2014-06-09_19-31-07_260595134347_rgbf000128-resize_1-target.png,1000,1.9765,35,3363,999,meters,jsons/v1_VE1000_randls_70.json,1231771,1321501,35,Woman
154,399605,DepthScenes,duration_manipulation_targetAtFixation,jsons/v1_VE1000_randls_70.json,http://54.235.29.9/FacialAge/BNav_EC2/DepthDuration/v2_depth_duration_MTurk/v2_DepthDuration_HTML.html#28,28,1440,789,1440,900,8-22-2022,8-58-30,155,depth_duration_stimuli/001555_2014-06-20_17-12-10_260595134347_rgbf000065-resize_4/001555_2014-06-20_17-12-10_260595134347_rgbf000065-resize_4-target.png,1000,1.633,25,3386,1001,meters,jsons/v1_VE1000_randls_70.json,1231771,1321501,35,Woman
155,399605,DepthScenes,duration_manipulation_targetAtFixation,jsons/v1_VE1000_randls_70.json,http://54.235.29.9/FacialAge/BNav_EC2/DepthDuration/v2_depth_duration_MTurk/v2_DepthDuration_HTML.html#28,28,1440,789,1440,900,8-22-2022,8-58-30,156,depth_duration_stimuli/000103_2014-05-14_22-01-17_260595134347_rgbf000152-resize_5/000103_2014-05-14_22-01-17_260595134347_rgbf000152-resize_5-target.png,1000,1.993,35,3363,1001,meters,jsons/v1_VE1000_randls_70.json,1231771,1321501,35,Woman
156,399605,DepthScenes,duration_manipulation_targetAtFixation,jsons/v1_VE1000_randls_70.json,http://54.235.29.9/FacialAge/BNav_EC2/DepthDuration/v2_depth_duration_MTurk/v2_DepthDuration_HTML.html#28,28,1440,789,1440,900,8-22-2022,8-58-30,157,depth_duration_stimuli/000692_2014-06-08_13-09-42_260595134347_rgbf000199-resize_2/000692_2014-06-08_13-09-42_260595134347_rgbf000199-resize_2-target.png,1000,3.661,48,3394,999,meters,jsons/v1_VE1000_randls_70.json,1231771,1321501,35,Woman
157,399605,DepthScenes,duration_manipulation_targetAtFixation,jsons/v1_VE1000_randls_70.json,http://54.235.29.9/FacialAge/BNav_EC2/DepthDuration/v2_depth_duration_MTurk/v2_DepthDuration_HTML.html#28,28,1440,789,1440,900,8-22-2022,8-58-30,158,depth_duration_stimuli/001094_2014-06-15_17-36-00_260595134347_rgbf000205-resize_0/001094_2014-06-15_17-36-00_260595134347_rgbf000205-resize_0-target.png,1000,4.2175,49,3786,1001,meters,jsons/v1_VE1000_randls_70.json,1231771,1321501,35,Woman
158,399605,DepthScenes,duration_manipulation_targetAtFixation,jsons/v1_VE1000_randls_70.json,http://54.235.29.9/FacialAge/BNav_EC2/DepthDuration/v2_depth_duration_MTurk/v2_DepthDuration_HTML.html#28,28,1440,789,1440,900,8-22-2022,8-58-30,159,depth_duration_stimuli/000436_2014-06-09_22-25-11_260595134347_rgbf000137-resize_1/000436_2014-06-09_22-25-11_260595134347_rgbf000137-resize_1-target.png,1000,4.0705,48,3401,999,meters,jsons/v1_VE1000_randls_70.json,1231771,1321501,35,Woman
159,399605,DepthScenes,duration_manipulation_targetAtFixation,jsons/v1_VE1000_randls_70.json,http://54.235.29.9/FacialAge/BNav_EC2/DepthDuration/v2_depth_duration_MTurk/v2_DepthDuration_HTML.html#28,28,1440,789,1440,900,8-22-2022,8-58-30,160,depth_duration_stimuli/002444_2014-06-28_20-32-08_260595134347_rgbf000027-resize_0/002444_2014-06-28_20-32-08_260595134347_rgbf000027-resize_0-target.png,1000,4.388999999999999,52,3188,1001,meters,jsons/v1_VE1000_randls_70.json,1231771,1321501,35,Woman
160,399605,DepthScenes,duration_manipulation_targetAtFixation,jsons/v1_VE1000_randls_70.json,http://54.235.29.9/FacialAge/BNav_EC2/DepthDuration/v2_depth_duration_MTurk/v2_DepthDuration_HTML.html#28,28,1440,789,1440,900,8-22-2022,8-58-30,161,depth_duration_stimuli/002784_2014-06-22_19-26-30_094959634447_rgbf000083-resize_3/002784_2014-06-22_19-26-30_094959634447_rgbf000083-resize_3-target.png,1000,1.8046666666667,33,3833,999,meters,jsons/v1_VE1000_randls_70.json,1231771,1321501,35,Woman
161,399605,DepthScenes,duration_manipulation_targetAtFixation,jsons/v1_VE1000_randls_70.json,http://54.235.29.9/FacialAge/BNav_EC2/DepthDuration/v2_depth_duration_MTurk/v2_DepthDuration_HTML.html#28,28,1440,789,1440,900,8-22-2022,8-58-30,162,depth_duration_stimuli/001100_2014-06-15_17-46-26_260595134347_rgbf000225-resize_2/001100_2014-06-15_17-46-26_260595134347_rgbf000225-resize_2-target.png,1000,2.24,31,3511,997,meters,jsons/v1_VE1000_randls_70.json,1231771,1321501,35,Woman
162,399605,DepthScenes,duration_manipulation_targetAtFixation,jsons/v1_VE1000_randls_70.json,http://54.235.29.9/FacialAge/BNav_EC2/DepthDuration/v2_depth_duration_MTurk/v2_DepthDuration_HTML.html#28,28,1440,789,1440,900,8-22-2022,8-58-30,163,depth_duration_stimuli/000878_2014-06-08_22-52-45_260595134347_rgbf000045-resize_2/000878_2014-06-08_22-52-45_260595134347_rgbf000045-resize_2-target.png,1000,2.092,45,3403,1000,meters,jsons/v1_VE1000_randls_70.json,1231771,1321501,35,Woman
163,399605,DepthScenes,duration_manipulation_targetAtFixation,jsons/v1_VE1000_randls_70.json,http://54.235.29.9/FacialAge/BNav_EC2/DepthDuration/v2_depth_duration_MTurk/v2_DepthDuration_HTML.html#28,28,1440,789,1440,900,8-22-2022,8-58-30,164,depth_duration_stimuli/002953_2014-06-08_17-32-18_094959634447_rgbf000059-resize_5/002953_2014-06-08_17-32-18_094959634447_rgbf000059-resize_5-target.png,1000,1.551,26,3474,1001,meters,jsons/v1_VE1000_randls_70.json,1231771,1321501,35,Woman
