,subjID,experimentName,versionName,sequenceName,url,selected_row,windowWidth,windowHeight,screenWidth,screenHeight,startDate,startTime,trial,stimulus,duration,actual_depth,depth_estimate,trial_RT,log_sceneDuration,unitSelection,seq_filepath,experimentTime,totalTime,age,gender
0,401046,DepthScenes,duration_manipulation_targetAtFixation,jsons/VE125_randls_8_rotated.json,http://54.235.29.9/FacialAge/BNav_EC2/DepthDuration/v2_depth_duration_MTurk/v2_DepthDuration_HTML.html#75,75,1024,657,1024,768,8-21-2022,6-45-11,1,depth_duration_stimuli/001447_2014-06-19_17-00-32_260595134347_rgbf000082-resize_5/001447_2014-06-19_17-00-32_260595134347_rgbf000082-resize_5-target.png,125,4.13775,1,4767,72,meters,jsons/VE125_randls_8_rotated.json,823303,1494069,30,Man
1,401046,DepthScenes,duration_manipulation_targetAtFixation,jsons/VE125_randls_8_rotated.json,http://54.235.29.9/FacialAge/BNav_EC2/DepthDuration/v2_depth_duration_MTurk/v2_DepthDuration_HTML.html#75,75,1024,657,1024,768,8-21-2022,6-45-11,2,depth_duration_stimuli/000447_2014-06-08_16-15-46_260595134347_rgbf000130-resize_1/000447_2014-06-08_16-15-46_260595134347_rgbf000130-resize_1-target.png,125,4.479,1,3332,124,meters,jsons/VE125_randls_8_rotated.json,823303,1494069,30,Man
2,401046,DepthScenes,duration_manipulation_targetAtFixation,jsons/VE125_randls_8_rotated.json,http://54.235.29.9/FacialAge/BNav_EC2/DepthDuration/v2_depth_duration_MTurk/v2_DepthDuration_HTML.html#75,75,1024,657,1024,768,8-21-2022,6-45-11,3,depth_duration_stimuli/002136_2014-06-25_21-18-03_260595134347_rgbf000109-resize_3/002136_2014-06-25_21-18-03_260595134347_rgbf000109-resize_3-target.png,125,1.9569999999999999,1,3749,125,meters,jsons/VE125_randls_8_rotated.json,823303,1494069,30,Man
3,401046,DepthScenes,duration_manipulation_targetAtFixation,jsons/VE125_randls_8_rotated.json,http://54.235.29.9/FacialAge/BNav_EC2/DepthDuration/v2_depth_duration_MTurk/v2_DepthDuration_HTML.html#75,75,1024,657,1024,768,8-21-2022,6-45-11,4,depth_duration_stimuli/002964_2014-06-08_17-46-11_094959634447_rgbf000091-resize_4/002964_2014-06-08_17-46-11_094959634447_rgbf000091-resize_4-target.png,125,1.6909999999999998,1,2818,119,meters,jsons/VE125_randls_8_rotated.json,823303,1494069,30,Man
4,401046,DepthScenes,duration_manipulation_targetAtFixation,jsons/VE125_randls_8_rotated.json,http://54.235.29.9/FacialAge/BNav_EC2/DepthDuration/v2_depth_duration_MTurk/v2_DepthDuration_HTML.html#75,75,1024,657,1024,768,8-21-2022,6-45-11,5,depth_duration_stimuli/000109_2014-05-14_23-41-52_260595134347_rgbf000035-resize_9/000109_2014-05-14_23-41-52_260595134347_rgbf000035-resize_9-target.png,125,1.3545,1,3354,124,meters,jsons/VE125_randls_8_rotated.json,823303,1494069,30,Man
5,401046,DepthScenes,duration_manipulation_targetAtFixation,jsons/VE125_randls_8_rotated.json,http://54.235.29.9/FacialAge/BNav_EC2/DepthDuration/v2_depth_duration_MTurk/v2_DepthDuration_HTML.html#75,75,1024,657,1024,768,8-21-2022,6-45-11,6,depth_duration_stimuli/000470_2014-06-09_19-42-40_260595134347_rgbf000094-resize_1/000470_2014-06-09_19-42-40_260595134347_rgbf000094-resize_1-target.png,125,1.831,1,5132,124,meters,jsons/VE125_randls_8_rotated.json,823303,1494069,30,Man
6,401046,DepthScenes,duration_manipulation_targetAtFixation,jsons/VE125_randls_8_rotated.json,http://54.235.29.9/FacialAge/BNav_EC2/DepthDuration/v2_depth_duration_MTurk/v2_DepthDuration_HTML.html#75,75,1024,657,1024,768,8-21-2022,6-45-11,7,depth_duration_stimuli/002657_2014-06-13_15-29-54_094959634447_rgbf000150-resize_1/002657_2014-06-13_15-29-54_094959634447_rgbf000150-resize_1-target.png,125,4.919,1,14738,124,meters,jsons/VE125_randls_8_rotated.json,823303,1494069,30,Man
7,401046,DepthScenes,duration_manipulation_targetAtFixation,jsons/VE125_randls_8_rotated.json,http://54.235.29.9/FacialAge/BNav_EC2/DepthDuration/v2_depth_duration_MTurk/v2_DepthDuration_HTML.html#75,75,1024,657,1024,768,8-21-2022,6-45-11,8,depth_duration_stimuli/002375_2014-06-28_20-13-44_260595134347_rgbf000032-resize_1/002375_2014-06-28_20-13-44_260595134347_rgbf000032-resize_1-target.png,125,4.0175,1,2788,123,meters,jsons/VE125_randls_8_rotated.json,823303,1494069,30,Man
8,401046,DepthScenes,duration_manipulation_targetAtFixation,jsons/VE125_randls_8_rotated.json,http://54.235.29.9/FacialAge/BNav_EC2/DepthDuration/v2_depth_duration_MTurk/v2_DepthDuration_HTML.html#75,75,1024,657,1024,768,8-21-2022,6-45-11,9,depth_duration_stimuli/001617_2014-06-20_11-35-32_260595134347_rgbf000066-resize_1/001617_2014-06-20_11-35-32_260595134347_rgbf000066-resize_1-target.png,125,3.7910000000000004,1,3513,131,meters,jsons/VE125_randls_8_rotated.json,823303,1494069,30,Man
9,401046,DepthScenes,duration_manipulation_targetAtFixation,jsons/VE125_randls_8_rotated.json,http://54.235.29.9/FacialAge/BNav_EC2/DepthDuration/v2_depth_duration_MTurk/v2_DepthDuration_HTML.html#75,75,1024,657,1024,768,8-21-2022,6-45-11,10,depth_duration_stimuli/001806_2014-06-26_20-50-20_260595134347_rgbf000091-resize_1/001806_2014-06-26_20-50-20_260595134347_rgbf000091-resize_1-target.png,125,2.7305,0,4088,126,meters,jsons/VE125_randls_8_rotated.json,823303,1494069,30,Man
10,401046,DepthScenes,duration_manipulation_targetAtFixation,jsons/VE125_randls_8_rotated.json,http://54.235.29.9/FacialAge/BNav_EC2/DepthDuration/v2_depth_duration_MTurk/v2_DepthDuration_HTML.html#75,75,1024,657,1024,768,8-21-2022,6-45-11,11,depth_duration_stimuli/002344_2014-06-28_20-06-29_260595134347_rgbf000030-resize_1/002344_2014-06-28_20-06-29_260595134347_rgbf000030-resize_1-target.png,125,1.5795,1,3387,124,meters,jsons/VE125_randls_8_rotated.json,823303,1494069,30,Man
11,401046,DepthScenes,duration_manipulation_targetAtFixation,jsons/VE125_randls_8_rotated.json,http://54.235.29.9/FacialAge/BNav_EC2/DepthDuration/v2_depth_duration_MTurk/v2_DepthDuration_HTML.html#75,75,1024,657,1024,768,8-21-2022,6-45-11,12,depth_duration_stimuli/002725_2014-06-22_11-47-51_094959634447_rgbf000070-resize_1/002725_2014-06-22_11-47-51_094959634447_rgbf000070-resize_1-target.png,125,2.195,1,3016,181,meters,jsons/VE125_randls_8_rotated.json,823303,1494069,30,Man
12,401046,DepthScenes,duration_manipulation_targetAtFixation,jsons/VE125_randls_8_rotated.json,http://54.235.29.9/FacialAge/BNav_EC2/DepthDuration/v2_depth_duration_MTurk/v2_DepthDuration_HTML.html#75,75,1024,657,1024,768,8-21-2022,6-45-11,13,depth_duration_stimuli/002875_2014-06-01_15-19-00_094959634447_rgbf000151-resize_1/002875_2014-06-01_15-19-00_094959634447_rgbf000151-resize_1-target.png,125,1.9675,1,3004,124,meters,jsons/VE125_randls_8_rotated.json,823303,1494069,30,Man
13,401046,DepthScenes,duration_manipulation_targetAtFixation,jsons/VE125_randls_8_rotated.json,http://54.235.29.9/FacialAge/BNav_EC2/DepthDuration/v2_depth_duration_MTurk/v2_DepthDuration_HTML.html#75,75,1024,657,1024,768,8-21-2022,6-45-11,14,depth_duration_stimuli/001011_2014-06-08_23-18-54_260595134347_rgbf000044-resize_4/001011_2014-06-08_23-18-54_260595134347_rgbf000044-resize_4-target.png,125,2.4730000000000003,1,2803,218,meters,jsons/VE125_randls_8_rotated.json,823303,1494069,30,Man
14,401046,DepthScenes,duration_manipulation_targetAtFixation,jsons/VE125_randls_8_rotated.json,http://54.235.29.9/FacialAge/BNav_EC2/DepthDuration/v2_depth_duration_MTurk/v2_DepthDuration_HTML.html#75,75,1024,657,1024,768,8-21-2022,6-45-11,15,depth_duration_stimuli/001815_2014-06-26_20-52-55_260595134347_rgbf000020-resize_0/001815_2014-06-26_20-52-55_260595134347_rgbf000020-resize_0-target.png,125,3.3865,1,3242,123,meters,jsons/VE125_randls_8_rotated.json,823303,1494069,30,Man
15,401046,DepthScenes,duration_manipulation_targetAtFixation,jsons/VE125_randls_8_rotated.json,http://54.235.29.9/FacialAge/BNav_EC2/DepthDuration/v2_depth_duration_MTurk/v2_DepthDuration_HTML.html#75,75,1024,657,1024,768,8-21-2022,6-45-11,16,depth_duration_stimuli/001808_2014-06-26_20-50-58_260595134347_rgbf000029-resize_1/001808_2014-06-26_20-50-58_260595134347_rgbf000029-resize_1-target.png,125,4.249,1,3331,170,meters,jsons/VE125_randls_8_rotated.json,823303,1494069,30,Man
16,401046,DepthScenes,duration_manipulation_targetAtFixation,jsons/VE125_randls_8_rotated.json,http://54.235.29.9/FacialAge/BNav_EC2/DepthDuration/v2_depth_duration_MTurk/v2_DepthDuration_HTML.html#75,75,1024,657,1024,768,8-21-2022,6-45-11,17,depth_duration_stimuli/000549_2014-06-08_22-10-24_260595134347_rgbf000247-resize_3/000549_2014-06-08_22-10-24_260595134347_rgbf000247-resize_3-target.png,125,1.841,1,3674,128,meters,jsons/VE125_randls_8_rotated.json,823303,1494069,30,Man
17,401046,DepthScenes,duration_manipulation_targetAtFixation,jsons/VE125_randls_8_rotated.json,http://54.235.29.9/FacialAge/BNav_EC2/DepthDuration/v2_depth_duration_MTurk/v2_DepthDuration_HTML.html#75,75,1024,657,1024,768,8-21-2022,6-45-11,18,depth_duration_stimuli/001055_2014-06-08_18-45-35_260595134347_rgbf000111-resize_4/001055_2014-06-08_18-45-35_260595134347_rgbf000111-resize_4-target.png,125,2.4290000000000003,1,2438,189,meters,jsons/VE125_randls_8_rotated.json,823303,1494069,30,Man
18,401046,DepthScenes,duration_manipulation_targetAtFixation,jsons/VE125_randls_8_rotated.json,http://54.235.29.9/FacialAge/BNav_EC2/DepthDuration/v2_depth_duration_MTurk/v2_DepthDuration_HTML.html#75,75,1024,657,1024,768,8-21-2022,6-45-11,19,depth_duration_stimuli/001498_2014-06-19_17-45-14_260595134347_rgbf000129-resize_4/001498_2014-06-19_17-45-14_260595134347_rgbf000129-resize-original.jpg,125,1.4075,0,3898,124,meters,jsons/VE125_randls_8_rotated.json,823303,1494069,30,Man
19,401046,DepthScenes,duration_manipulation_targetAtFixation,jsons/VE125_randls_8_rotated.json,http://54.235.29.9/FacialAge/BNav_EC2/DepthDuration/v2_depth_duration_MTurk/v2_DepthDuration_HTML.html#75,75,1024,657,1024,768,8-21-2022,6-45-11,20,depth_duration_stimuli/002340_2014-06-28_20-05-46_260595134347_rgbf000113-resize_0/002340_2014-06-28_20-05-46_260595134347_rgbf000113-resize_0-target.png,125,2.4735,1,3074,124,meters,jsons/VE125_randls_8_rotated.json,823303,1494069,30,Man
20,401046,DepthScenes,duration_manipulation_targetAtFixation,jsons/VE125_randls_8_rotated.json,http://54.235.29.9/FacialAge/BNav_EC2/DepthDuration/v2_depth_duration_MTurk/v2_DepthDuration_HTML.html#75,75,1024,657,1024,768,8-21-2022,6-45-11,21,depth_duration_stimuli/001016_2014-06-09_16-16-10_260595134347_rgbf000112-resize_5/001016_2014-06-09_16-16-10_260595134347_rgbf000112-resize_5-target.png,125,1.6565,1,2734,124,meters,jsons/VE125_randls_8_rotated.json,823303,1494069,30,Man
21,401046,DepthScenes,duration_manipulation_targetAtFixation,jsons/VE125_randls_8_rotated.json,http://54.235.29.9/FacialAge/BNav_EC2/DepthDuration/v2_depth_duration_MTurk/v2_DepthDuration_HTML.html#75,75,1024,657,1024,768,8-21-2022,6-45-11,22,depth_duration_stimuli/002953_2014-06-08_17-32-18_094959634447_rgbf000059-resize_5/002953_2014-06-08_17-32-18_094959634447_rgbf000059-resize_5-target.png,125,1.551,1,3447,127,meters,jsons/VE125_randls_8_rotated.json,823303,1494069,30,Man
22,401046,DepthScenes,duration_manipulation_targetAtFixation,jsons/VE125_randls_8_rotated.json,http://54.235.29.9/FacialAge/BNav_EC2/DepthDuration/v2_depth_duration_MTurk/v2_DepthDuration_HTML.html#75,75,1024,657,1024,768,8-21-2022,6-45-11,23,depth_duration_stimuli/000878_2014-06-08_22-52-45_260595134347_rgbf000045-resize_2/000878_2014-06-08_22-52-45_260595134347_rgbf000045-resize_2-target.png,125,2.092,1,3141,99,meters,jsons/VE125_randls_8_rotated.json,823303,1494069,30,Man
23,401046,DepthScenes,duration_manipulation_targetAtFixation,jsons/VE125_randls_8_rotated.json,http://54.235.29.9/FacialAge/BNav_EC2/DepthDuration/v2_depth_duration_MTurk/v2_DepthDuration_HTML.html#75,75,1024,657,1024,768,8-21-2022,6-45-11,24,depth_duration_stimuli/002750_2014-06-22_19-08-03_094959634447_rgbf000094-resize_4/002750_2014-06-22_19-08-03_094959634447_rgbf000094-resize_4-target.png,125,2.354,1,24643,124,meters,jsons/VE125_randls_8_rotated.json,823303,1494069,30,Man
24,401046,DepthScenes,duration_manipulation_targetAtFixation,jsons/VE125_randls_8_rotated.json,http://54.235.29.9/FacialAge/BNav_EC2/DepthDuration/v2_depth_duration_MTurk/v2_DepthDuration_HTML.html#75,75,1024,657,1024,768,8-21-2022,6-45-11,25,depth_duration_stimuli/002549_2014-06-24_13-41-39_094959634447_rgbf000022-resize_3/002549_2014-06-24_13-41-39_094959634447_rgbf000022-resize_3-target.png,125,1.476,1,3558,125,meters,jsons/VE125_randls_8_rotated.json,823303,1494069,30,Man
25,401046,DepthScenes,duration_manipulation_targetAtFixation,jsons/VE125_randls_8_rotated.json,http://54.235.29.9/FacialAge/BNav_EC2/DepthDuration/v2_depth_duration_MTurk/v2_DepthDuration_HTML.html#75,75,1024,657,1024,768,8-21-2022,6-45-11,26,depth_duration_stimuli/000780_2014-06-08_22-28-29_260595134347_rgbf000126-resize_1/000780_2014-06-08_22-28-29_260595134347_rgbf000126-resize_1-target.png,125,3.3825,1,9293,185,meters,jsons/VE125_randls_8_rotated.json,823303,1494069,30,Man
26,401046,DepthScenes,duration_manipulation_targetAtFixation,jsons/VE125_randls_8_rotated.json,http://54.235.29.9/FacialAge/BNav_EC2/DepthDuration/v2_depth_duration_MTurk/v2_DepthDuration_HTML.html#75,75,1024,657,1024,768,8-21-2022,6-45-11,27,depth_duration_stimuli/002445_2014-06-28_20-32-16_260595134347_rgbf000029-resize_4/002445_2014-06-28_20-32-16_260595134347_rgbf000029-resize_4-target.png,125,2.5315,1,3395,125,meters,jsons/VE125_randls_8_rotated.json,823303,1494069,30,Man
27,401046,DepthScenes,duration_manipulation_targetAtFixation,jsons/VE125_randls_8_rotated.json,http://54.235.29.9/FacialAge/BNav_EC2/DepthDuration/v2_depth_duration_MTurk/v2_DepthDuration_HTML.html#75,75,1024,657,1024,768,8-21-2022,6-45-11,28,depth_duration_stimuli/003228_2014-05-14_13-42-35_094959634447_rgbf000101-resize_1/003228_2014-05-14_13-42-35_094959634447_rgbf000101-resize_1-target.png,125,1.9680000000000002,1,2927,125,meters,jsons/VE125_randls_8_rotated.json,823303,1494069,30,Man
28,401046,DepthScenes,duration_manipulation_targetAtFixation,jsons/VE125_randls_8_rotated.json,http://54.235.29.9/FacialAge/BNav_EC2/DepthDuration/v2_depth_duration_MTurk/v2_DepthDuration_HTML.html#75,75,1024,657,1024,768,8-21-2022,6-45-11,29,depth_duration_stimuli/002600_2014-06-24_14-27-04_094959634447_rgbf000074-resize_2/002600_2014-06-24_14-27-04_094959634447_rgbf000074-resize_2-target.png,125,2.7575,1,2821,125,meters,jsons/VE125_randls_8_rotated.json,823303,1494069,30,Man
29,401046,DepthScenes,duration_manipulation_targetAtFixation,jsons/VE125_randls_8_rotated.json,http://54.235.29.9/FacialAge/BNav_EC2/DepthDuration/v2_depth_duration_MTurk/v2_DepthDuration_HTML.html#75,75,1024,657,1024,768,8-21-2022,6-45-11,30,depth_duration_stimuli/002072_2014-06-24_21-48-06_260595134347_rgbf000115-resize_0/002072_2014-06-24_21-48-06_260595134347_rgbf000115-resize-original.jpg,125,4.702,1,2763,128,meters,jsons/VE125_randls_8_rotated.json,823303,1494069,30,Man
30,401046,DepthScenes,duration_manipulation_targetAtFixation,jsons/VE125_randls_8_rotated.json,http://54.235.29.9/FacialAge/BNav_EC2/DepthDuration/v2_depth_duration_MTurk/v2_DepthDuration_HTML.html#75,75,1024,657,1024,768,8-21-2022,6-45-11,31,depth_duration_stimuli/000709_2014-06-08_13-51-55_260595134347_rgbf000068-resize_3/000709_2014-06-08_13-51-55_260595134347_rgbf000068-resize_3-target.png,125,1.8030000000000002,1,2873,131,meters,jsons/VE125_randls_8_rotated.json,823303,1494069,30,Man
31,401046,DepthScenes,duration_manipulation_targetAtFixation,jsons/VE125_randls_8_rotated.json,http://54.235.29.9/FacialAge/BNav_EC2/DepthDuration/v2_depth_duration_MTurk/v2_DepthDuration_HTML.html#75,75,1024,657,1024,768,8-21-2022,6-45-11,32,depth_duration_stimuli/002057_2014-06-24_21-00-13_260595134347_rgbf000120-resize_1/002057_2014-06-24_21-00-13_260595134347_rgbf000120-resize_1-target.png,125,2.967,1,49147,128,meters,jsons/VE125_randls_8_rotated.json,823303,1494069,30,Man
32,401046,DepthScenes,duration_manipulation_targetAtFixation,jsons/VE125_randls_8_rotated.json,http://54.235.29.9/FacialAge/BNav_EC2/DepthDuration/v2_depth_duration_MTurk/v2_DepthDuration_HTML.html#75,75,1024,657,1024,768,8-21-2022,6-45-11,33,depth_duration_stimuli/000103_2014-05-14_22-01-17_260595134347_rgbf000152-resize_5/000103_2014-05-14_22-01-17_260595134347_rgbf000152-resize_5-target.png,125,1.993,1,2783,120,meters,jsons/VE125_randls_8_rotated.json,823303,1494069,30,Man
33,401046,DepthScenes,duration_manipulation_targetAtFixation,jsons/VE125_randls_8_rotated.json,http://54.235.29.9/FacialAge/BNav_EC2/DepthDuration/v2_depth_duration_MTurk/v2_DepthDuration_HTML.html#75,75,1024,657,1024,768,8-21-2022,6-45-11,34,depth_duration_stimuli/001555_2014-06-20_17-12-10_260595134347_rgbf000065-resize_4/001555_2014-06-20_17-12-10_260595134347_rgbf000065-resize_4-target.png,125,1.633,0,4222,124,meters,jsons/VE125_randls_8_rotated.json,823303,1494069,30,Man
34,401046,DepthScenes,duration_manipulation_targetAtFixation,jsons/VE125_randls_8_rotated.json,http://54.235.29.9/FacialAge/BNav_EC2/DepthDuration/v2_depth_duration_MTurk/v2_DepthDuration_HTML.html#75,75,1024,657,1024,768,8-21-2022,6-45-11,35,depth_duration_stimuli/001094_2014-06-15_17-36-00_260595134347_rgbf000205-resize_0/001094_2014-06-15_17-36-00_260595134347_rgbf000205-resize_0-target.png,125,4.2175,1,2517,139,meters,jsons/VE125_randls_8_rotated.json,823303,1494069,30,Man
35,401046,DepthScenes,duration_manipulation_targetAtFixation,jsons/VE125_randls_8_rotated.json,http://54.235.29.9/FacialAge/BNav_EC2/DepthDuration/v2_depth_duration_MTurk/v2_DepthDuration_HTML.html#75,75,1024,657,1024,768,8-21-2022,6-45-11,36,depth_duration_stimuli/000692_2014-06-08_13-09-42_260595134347_rgbf000199-resize_2/000692_2014-06-08_13-09-42_260595134347_rgbf000199-resize_2-target.png,125,3.661,1,3506,123,meters,jsons/VE125_randls_8_rotated.json,823303,1494069,30,Man
36,401046,DepthScenes,duration_manipulation_targetAtFixation,jsons/VE125_randls_8_rotated.json,http://54.235.29.9/FacialAge/BNav_EC2/DepthDuration/v2_depth_duration_MTurk/v2_DepthDuration_HTML.html#75,75,1024,657,1024,768,8-21-2022,6-45-11,37,depth_duration_stimuli/001052_2014-06-08_18-24-54_260595134347_rgbf000130-resize_1/001052_2014-06-08_18-24-54_260595134347_rgbf000130-resize_1-target.png,125,4.1045,1,2809,124,meters,jsons/VE125_randls_8_rotated.json,823303,1494069,30,Man
37,401046,DepthScenes,duration_manipulation_targetAtFixation,jsons/VE125_randls_8_rotated.json,http://54.235.29.9/FacialAge/BNav_EC2/DepthDuration/v2_depth_duration_MTurk/v2_DepthDuration_HTML.html#75,75,1024,657,1024,768,8-21-2022,6-45-11,38,depth_duration_stimuli/002988_2014-06-15_12-24-20_094959634447_rgbf000150-resize_1/002988_2014-06-15_12-24-20_094959634447_rgbf000150-resize_1-target.png,125,4.7669999999999995,1,47762,125,meters,jsons/VE125_randls_8_rotated.json,823303,1494069,30,Man
38,401046,DepthScenes,duration_manipulation_targetAtFixation,jsons/VE125_randls_8_rotated.json,http://54.235.29.9/FacialAge/BNav_EC2/DepthDuration/v2_depth_duration_MTurk/v2_DepthDuration_HTML.html#75,75,1024,657,1024,768,8-21-2022,6-45-11,39,depth_duration_stimuli/003048_2014-06-15_13-49-43_094959634447_rgbf000150-resize_1/003048_2014-06-15_13-49-43_094959634447_rgbf000150-resize_1-target.png,125,4.0035,1,2964,126,meters,jsons/VE125_randls_8_rotated.json,823303,1494069,30,Man
39,401046,DepthScenes,duration_manipulation_targetAtFixation,jsons/VE125_randls_8_rotated.json,http://54.235.29.9/FacialAge/BNav_EC2/DepthDuration/v2_depth_duration_MTurk/v2_DepthDuration_HTML.html#75,75,1024,657,1024,768,8-21-2022,6-45-11,40,depth_duration_stimuli/002043_2014-06-24_20-29-38_260595134347_rgbf000039-resize_4/002043_2014-06-24_20-29-38_260595134347_rgbf000039-resize_4-target.png,125,2.8435,1,2240,123,meters,jsons/VE125_randls_8_rotated.json,823303,1494069,30,Man
40,401046,DepthScenes,duration_manipulation_targetAtFixation,jsons/VE125_randls_8_rotated.json,http://54.235.29.9/FacialAge/BNav_EC2/DepthDuration/v2_depth_duration_MTurk/v2_DepthDuration_HTML.html#75,75,1024,657,1024,768,8-21-2022,6-45-11,41,depth_duration_stimuli/002467_2014-06-28_20-38-07_260595134347_rgbf000026-resize_2/002467_2014-06-28_20-38-07_260595134347_rgbf000026-resize_2-target.png,125,4.742,1,2953,123,meters,jsons/VE125_randls_8_rotated.json,823303,1494069,30,Man
41,401046,DepthScenes,duration_manipulation_targetAtFixation,jsons/VE125_randls_8_rotated.json,http://54.235.29.9/FacialAge/BNav_EC2/DepthDuration/v2_depth_duration_MTurk/v2_DepthDuration_HTML.html#75,75,1024,657,1024,768,8-21-2022,6-45-11,42,depth_duration_stimuli/002570_2014-06-24_13-59-54_094959634447_rgbf000059-resize_0/002570_2014-06-24_13-59-54_094959634447_rgbf000059-resize_0-target.png,125,4.037,1,2714,124,meters,jsons/VE125_randls_8_rotated.json,823303,1494069,30,Man
42,401046,DepthScenes,duration_manipulation_targetAtFixation,jsons/VE125_randls_8_rotated.json,http://54.235.29.9/FacialAge/BNav_EC2/DepthDuration/v2_depth_duration_MTurk/v2_DepthDuration_HTML.html#75,75,1024,657,1024,768,8-21-2022,6-45-11,43,depth_duration_stimuli/000691_2014-06-08_13-08-50_260595134347_rgbf000132-resize_3/000691_2014-06-08_13-08-50_260595134347_rgbf000132-resize_3-target.png,125,4.1530000000000005,1,2531,125,meters,jsons/VE125_randls_8_rotated.json,823303,1494069,30,Man
43,401046,DepthScenes,duration_manipulation_targetAtFixation,jsons/VE125_randls_8_rotated.json,http://54.235.29.9/FacialAge/BNav_EC2/DepthDuration/v2_depth_duration_MTurk/v2_DepthDuration_HTML.html#75,75,1024,657,1024,768,8-21-2022,6-45-11,44,depth_duration_stimuli/002213_2014-06-28_18-37-58_260595134347_rgbf000055-resize_1/002213_2014-06-28_18-37-58_260595134347_rgbf000055-resize_1-target.png,125,3.62,1,2697,297,meters,jsons/VE125_randls_8_rotated.json,823303,1494069,30,Man
44,401046,DepthScenes,duration_manipulation_targetAtFixation,jsons/VE125_randls_8_rotated.json,http://54.235.29.9/FacialAge/BNav_EC2/DepthDuration/v2_depth_duration_MTurk/v2_DepthDuration_HTML.html#75,75,1024,657,1024,768,8-21-2022,6-45-11,45,depth_duration_stimuli/001571_2014-06-20_17-21-32_260595134347_rgbf000089-resize_1/001571_2014-06-20_17-21-32_260595134347_rgbf000089-resize_1-target.png,125,1.86,1,2680,124,meters,jsons/VE125_randls_8_rotated.json,823303,1494069,30,Man
45,401046,DepthScenes,duration_manipulation_targetAtFixation,jsons/VE125_randls_8_rotated.json,http://54.235.29.9/FacialAge/BNav_EC2/DepthDuration/v2_depth_duration_MTurk/v2_DepthDuration_HTML.html#75,75,1024,657,1024,768,8-21-2022,6-45-11,46,depth_duration_stimuli/002272_2014-06-28_18-53-56_260595134347_rgbf000067-resize_2/002272_2014-06-28_18-53-56_260595134347_rgbf000067-resize_2-target.png,125,1.138,1,2755,117,meters,jsons/VE125_randls_8_rotated.json,823303,1494069,30,Man
46,401046,DepthScenes,duration_manipulation_targetAtFixation,jsons/VE125_randls_8_rotated.json,http://54.235.29.9/FacialAge/BNav_EC2/DepthDuration/v2_depth_duration_MTurk/v2_DepthDuration_HTML.html#75,75,1024,657,1024,768,8-21-2022,6-45-11,47,depth_duration_stimuli/002949_2014-06-26_15-57-42_094959634447_rgbf000079-resize_1/002949_2014-06-26_15-57-42_094959634447_rgbf000079-resize_1-target.png,125,1.8915,1,2755,184,meters,jsons/VE125_randls_8_rotated.json,823303,1494069,30,Man
47,401046,DepthScenes,duration_manipulation_targetAtFixation,jsons/VE125_randls_8_rotated.json,http://54.235.29.9/FacialAge/BNav_EC2/DepthDuration/v2_depth_duration_MTurk/v2_DepthDuration_HTML.html#75,75,1024,657,1024,768,8-21-2022,6-45-11,48,depth_duration_stimuli/000522_2014-06-08_13-35-06_260595134347_rgbf000244-resize_1/000522_2014-06-08_13-35-06_260595134347_rgbf000244-resize_1-target.png,125,2.3715,1,2551,52,meters,jsons/VE125_randls_8_rotated.json,823303,1494069,30,Man
48,401046,DepthScenes,duration_manipulation_targetAtFixation,jsons/VE125_randls_8_rotated.json,http://54.235.29.9/FacialAge/BNav_EC2/DepthDuration/v2_depth_duration_MTurk/v2_DepthDuration_HTML.html#75,75,1024,657,1024,768,8-21-2022,6-45-11,49,depth_duration_stimuli/001170_2014-06-17_15-43-44_260595134347_rgbf000096-resize_6/001170_2014-06-17_15-43-44_260595134347_rgbf000096-resize-original.jpg,125,1.1909999999999998,0,5003,125,meters,jsons/VE125_randls_8_rotated.json,823303,1494069,30,Man
49,401046,DepthScenes,duration_manipulation_targetAtFixation,jsons/VE125_randls_8_rotated.json,http://54.235.29.9/FacialAge/BNav_EC2/DepthDuration/v2_depth_duration_MTurk/v2_DepthDuration_HTML.html#75,75,1024,657,1024,768,8-21-2022,6-45-11,50,depth_duration_stimuli/002660_2014-06-13_15-44-18_094959634447_rgbf001878-resize_2/002660_2014-06-13_15-44-18_094959634447_rgbf001878-resize_2-target.png,125,3.576,0,8224,125,meters,jsons/VE125_randls_8_rotated.json,823303,1494069,30,Man
50,401046,DepthScenes,duration_manipulation_targetAtFixation,jsons/VE125_randls_8_rotated.json,http://54.235.29.9/FacialAge/BNav_EC2/DepthDuration/v2_depth_duration_MTurk/v2_DepthDuration_HTML.html#75,75,1024,657,1024,768,8-21-2022,6-45-11,51,depth_duration_stimuli/002153_2014-06-25_21-27-18_260595134347_rgbf000038-resize_5/002153_2014-06-25_21-27-18_260595134347_rgbf000038-resize_5-target.png,125,2.505,1,4050,124,meters,jsons/VE125_randls_8_rotated.json,823303,1494069,30,Man
51,401046,DepthScenes,duration_manipulation_targetAtFixation,jsons/VE125_randls_8_rotated.json,http://54.235.29.9/FacialAge/BNav_EC2/DepthDuration/v2_depth_duration_MTurk/v2_DepthDuration_HTML.html#75,75,1024,657,1024,768,8-21-2022,6-45-11,52,depth_duration_stimuli/000635_2014-06-08_16-38-42_260595134347_rgbf000106-resize_1/000635_2014-06-08_16-38-42_260595134347_rgbf000106-resize_1-target.png,125,2.074,1,4165,124,meters,jsons/VE125_randls_8_rotated.json,823303,1494069,30,Man
52,401046,DepthScenes,duration_manipulation_targetAtFixation,jsons/VE125_randls_8_rotated.json,http://54.235.29.9/FacialAge/BNav_EC2/DepthDuration/v2_depth_duration_MTurk/v2_DepthDuration_HTML.html#75,75,1024,657,1024,768,8-21-2022,6-45-11,53,depth_duration_stimuli/002279_2014-06-28_18-55-32_260595134347_rgbf000040-resize_5/002279_2014-06-28_18-55-32_260595134347_rgbf000040-resize_5-target.png,125,1.5043333333333,0,4535,125,meters,jsons/VE125_randls_8_rotated.json,823303,1494069,30,Man
53,401046,DepthScenes,duration_manipulation_targetAtFixation,jsons/VE125_randls_8_rotated.json,http://54.235.29.9/FacialAge/BNav_EC2/DepthDuration/v2_depth_duration_MTurk/v2_DepthDuration_HTML.html#75,75,1024,657,1024,768,8-21-2022,6-45-11,54,depth_duration_stimuli/003423_2014-05-21_10-23-26_094959634447_rgbf002665-resize_2/003423_2014-05-21_10-23-26_094959634447_rgbf002665-resize_2-target.png,125,3.2575,1,2738,125,meters,jsons/VE125_randls_8_rotated.json,823303,1494069,30,Man
54,401046,DepthScenes,duration_manipulation_targetAtFixation,jsons/VE125_randls_8_rotated.json,http://54.235.29.9/FacialAge/BNav_EC2/DepthDuration/v2_depth_duration_MTurk/v2_DepthDuration_HTML.html#75,75,1024,657,1024,768,8-21-2022,6-45-11,55,depth_duration_stimuli/002905_2014-06-03_18-04-43_094959634447_rgbf000151-resize_2/002905_2014-06-03_18-04-43_094959634447_rgbf000151-resize_2-target.png,125,2.0295,1,2988,124,meters,jsons/VE125_randls_8_rotated.json,823303,1494069,30,Man
55,401046,DepthScenes,duration_manipulation_targetAtFixation,jsons/VE125_randls_8_rotated.json,http://54.235.29.9/FacialAge/BNav_EC2/DepthDuration/v2_depth_duration_MTurk/v2_DepthDuration_HTML.html#75,75,1024,657,1024,768,8-21-2022,6-45-11,56,depth_duration_stimuli/000734_2014-06-08_17-39-11_260595134347_rgbf000128-resize_2/000734_2014-06-08_17-39-11_260595134347_rgbf000128-resize_2-target.png,125,4.098,1,2623,125,meters,jsons/VE125_randls_8_rotated.json,823303,1494069,30,Man
56,401046,DepthScenes,duration_manipulation_targetAtFixation,jsons/VE125_randls_8_rotated.json,http://54.235.29.9/FacialAge/BNav_EC2/DepthDuration/v2_depth_duration_MTurk/v2_DepthDuration_HTML.html#75,75,1024,657,1024,768,8-21-2022,6-45-11,57,depth_duration_stimuli/000739_2014-06-08_18-45-58_260595134347_rgbf000068-resize_1/000739_2014-06-08_18-45-58_260595134347_rgbf000068-resize_1-target.png,125,3.534,1,2854,272,meters,jsons/VE125_randls_8_rotated.json,823303,1494069,30,Man
57,401046,DepthScenes,duration_manipulation_targetAtFixation,jsons/VE125_randls_8_rotated.json,http://54.235.29.9/FacialAge/BNav_EC2/DepthDuration/v2_depth_duration_MTurk/v2_DepthDuration_HTML.html#75,75,1024,657,1024,768,8-21-2022,6-45-11,58,depth_duration_stimuli/003083_2014-06-15_15-21-03_094959634447_rgbf000063-resize_1/003083_2014-06-15_15-21-03_094959634447_rgbf000063-resize_1-target.png,125,4.1405,1,2763,125,meters,jsons/VE125_randls_8_rotated.json,823303,1494069,30,Man
58,401046,DepthScenes,duration_manipulation_targetAtFixation,jsons/VE125_randls_8_rotated.json,http://54.235.29.9/FacialAge/BNav_EC2/DepthDuration/v2_depth_duration_MTurk/v2_DepthDuration_HTML.html#75,75,1024,657,1024,768,8-21-2022,6-45-11,59,depth_duration_stimuli/000486_2014-06-09_20-47-20_260595134347_rgbf000143-resize_2/000486_2014-06-09_20-47-20_260595134347_rgbf000143-resize_2-target.png,125,4.8325,1,2432,122,meters,jsons/VE125_randls_8_rotated.json,823303,1494069,30,Man
59,401046,DepthScenes,duration_manipulation_targetAtFixation,jsons/VE125_randls_8_rotated.json,http://54.235.29.9/FacialAge/BNav_EC2/DepthDuration/v2_depth_duration_MTurk/v2_DepthDuration_HTML.html#75,75,1024,657,1024,768,8-21-2022,6-45-11,60,depth_duration_stimuli/002545_2014-06-24_13-38-53_094959634447_rgbf000080-resize_4/002545_2014-06-24_13-38-53_094959634447_rgbf000080-resize_4-target.png,125,1.9205,1,2843,124,meters,jsons/VE125_randls_8_rotated.json,823303,1494069,30,Man
60,401046,DepthScenes,duration_manipulation_targetAtFixation,jsons/VE125_randls_8_rotated.json,http://54.235.29.9/FacialAge/BNav_EC2/DepthDuration/v2_depth_duration_MTurk/v2_DepthDuration_HTML.html#75,75,1024,657,1024,768,8-21-2022,6-45-11,61,depth_duration_stimuli/001092_2014-06-15_17-34-58_260595134347_rgbf000171-resize_3/001092_2014-06-15_17-34-58_260595134347_rgbf000171-resize_3-target.png,125,2.6935,1,2506,125,meters,jsons/VE125_randls_8_rotated.json,823303,1494069,30,Man
61,401046,DepthScenes,duration_manipulation_targetAtFixation,jsons/VE125_randls_8_rotated.json,http://54.235.29.9/FacialAge/BNav_EC2/DepthDuration/v2_depth_duration_MTurk/v2_DepthDuration_HTML.html#75,75,1024,657,1024,768,8-21-2022,6-45-11,62,depth_duration_stimuli/002103_2014-06-25_20-00-40_260595134347_rgbf000049-resize_0/002103_2014-06-25_20-00-40_260595134347_rgbf000049-resize_0-target.png,125,4.105,1,3634,371,meters,jsons/VE125_randls_8_rotated.json,823303,1494069,30,Man
62,401046,DepthScenes,duration_manipulation_targetAtFixation,jsons/VE125_randls_8_rotated.json,http://54.235.29.9/FacialAge/BNav_EC2/DepthDuration/v2_depth_duration_MTurk/v2_DepthDuration_HTML.html#75,75,1024,657,1024,768,8-21-2022,6-45-11,63,depth_duration_stimuli/002039_2014-06-24_20-22-38_260595134347_rgbf000084-resize_1/002039_2014-06-24_20-22-38_260595134347_rgbf000084-resize_1-target.png,125,4.408,1,2203,123,meters,jsons/VE125_randls_8_rotated.json,823303,1494069,30,Man
63,401046,DepthScenes,duration_manipulation_targetAtFixation,jsons/VE125_randls_8_rotated.json,http://54.235.29.9/FacialAge/BNav_EC2/DepthDuration/v2_depth_duration_MTurk/v2_DepthDuration_HTML.html#75,75,1024,657,1024,768,8-21-2022,6-45-11,64,depth_duration_stimuli/001136_2014-06-17_15-19-41_260595134347_rgbf000076-resize_3/001136_2014-06-17_15-19-41_260595134347_rgbf000076-resize_3-target.png,125,1.8655,1,2377,124,meters,jsons/VE125_randls_8_rotated.json,823303,1494069,30,Man
64,401046,DepthScenes,duration_manipulation_targetAtFixation,jsons/VE125_randls_8_rotated.json,http://54.235.29.9/FacialAge/BNav_EC2/DepthDuration/v2_depth_duration_MTurk/v2_DepthDuration_HTML.html#75,75,1024,657,1024,768,8-21-2022,6-45-11,65,depth_duration_stimuli/001164_2014-06-17_15-35-46_260595134347_rgbf000085-resize_3/001164_2014-06-17_15-35-46_260595134347_rgbf000085-resize_3-target.png,125,2.354,1,2306,134,meters,jsons/VE125_randls_8_rotated.json,823303,1494069,30,Man
65,401046,DepthScenes,duration_manipulation_targetAtFixation,jsons/VE125_randls_8_rotated.json,http://54.235.29.9/FacialAge/BNav_EC2/DepthDuration/v2_depth_duration_MTurk/v2_DepthDuration_HTML.html#75,75,1024,657,1024,768,8-21-2022,6-45-11,66,depth_duration_stimuli/001540_2014-06-20_17-01-05_260595134347_rgbf000086-resize_2/001540_2014-06-20_17-01-05_260595134347_rgbf000086-resize-original.jpg,125,1.459,1,2824,124,meters,jsons/VE125_randls_8_rotated.json,823303,1494069,30,Man
66,401046,DepthScenes,duration_manipulation_targetAtFixation,jsons/VE125_randls_8_rotated.json,http://54.235.29.9/FacialAge/BNav_EC2/DepthDuration/v2_depth_duration_MTurk/v2_DepthDuration_HTML.html#75,75,1024,657,1024,768,8-21-2022,6-45-11,67,depth_duration_stimuli/000665_2014-06-09_20-42-35_260595134347_rgbf000110-resize_1/000665_2014-06-09_20-42-35_260595134347_rgbf000110-resize_1-target.png,125,3.057,1,2371,124,meters,jsons/VE125_randls_8_rotated.json,823303,1494069,30,Man
67,401046,DepthScenes,duration_manipulation_targetAtFixation,jsons/VE125_randls_8_rotated.json,http://54.235.29.9/FacialAge/BNav_EC2/DepthDuration/v2_depth_duration_MTurk/v2_DepthDuration_HTML.html#75,75,1024,657,1024,768,8-21-2022,6-45-11,68,depth_duration_stimuli/001150_2014-06-17_15-27-34_260595134347_rgbf000108-resize_2/001150_2014-06-17_15-27-34_260595134347_rgbf000108-resize_2-target.png,125,4.0325,1,2664,125,meters,jsons/VE125_randls_8_rotated.json,823303,1494069,30,Man
68,401046,DepthScenes,duration_manipulation_targetAtFixation,jsons/VE125_randls_8_rotated.json,http://54.235.29.9/FacialAge/BNav_EC2/DepthDuration/v2_depth_duration_MTurk/v2_DepthDuration_HTML.html#75,75,1024,657,1024,768,8-21-2022,6-45-11,69,depth_duration_stimuli/002425_2014-06-28_20-27-29_260595134347_rgbf000031-resize_8/002425_2014-06-28_20-27-29_260595134347_rgbf000031-resize_8-target.png,125,3.8960000000000004,1,2466,134,meters,jsons/VE125_randls_8_rotated.json,823303,1494069,30,Man
69,401046,DepthScenes,duration_manipulation_targetAtFixation,jsons/VE125_randls_8_rotated.json,http://54.235.29.9/FacialAge/BNav_EC2/DepthDuration/v2_depth_duration_MTurk/v2_DepthDuration_HTML.html#75,75,1024,657,1024,768,8-21-2022,6-45-11,70,depth_duration_stimuli/000642_2014-06-08_16-59-25_260595134347_rgbf000098-resize_2/000642_2014-06-08_16-59-25_260595134347_rgbf000098-resize_2-target.png,125,2.8815,1,2277,96,meters,jsons/VE125_randls_8_rotated.json,823303,1494069,30,Man
70,401046,DepthScenes,duration_manipulation_targetAtFixation,jsons/VE125_randls_8_rotated.json,http://54.235.29.9/FacialAge/BNav_EC2/DepthDuration/v2_depth_duration_MTurk/v2_DepthDuration_HTML.html#75,75,1024,657,1024,768,8-21-2022,6-45-11,71,depth_duration_stimuli/002323_2014-06-28_20-01-54_260595134347_rgbf000051-resize_4/002323_2014-06-28_20-01-54_260595134347_rgbf000051-resize_4-target.png,125,3.7310000000000003,1,2517,117,meters,jsons/VE125_randls_8_rotated.json,823303,1494069,30,Man
71,401046,DepthScenes,duration_manipulation_targetAtFixation,jsons/VE125_randls_8_rotated.json,http://54.235.29.9/FacialAge/BNav_EC2/DepthDuration/v2_depth_duration_MTurk/v2_DepthDuration_HTML.html#75,75,1024,657,1024,768,8-21-2022,6-45-11,72,depth_duration_stimuli/000917_2014-06-09_22-45-29_260595134347_rgbf000149-resize_3/000917_2014-06-09_22-45-29_260595134347_rgbf000149-resize_3-target.png,125,4.1865,1,2433,125,meters,jsons/VE125_randls_8_rotated.json,823303,1494069,30,Man
72,401046,DepthScenes,duration_manipulation_targetAtFixation,jsons/VE125_randls_8_rotated.json,http://54.235.29.9/FacialAge/BNav_EC2/DepthDuration/v2_depth_duration_MTurk/v2_DepthDuration_HTML.html#75,75,1024,657,1024,768,8-21-2022,6-45-11,73,depth_duration_stimuli/001516_2014-06-20_16-25-09_260595134347_rgbf000076-resize_2/001516_2014-06-20_16-25-09_260595134347_rgbf000076-resize_2-target.png,125,1.7445,1,2784,586,meters,jsons/VE125_randls_8_rotated.json,823303,1494069,30,Man
73,401046,DepthScenes,duration_manipulation_targetAtFixation,jsons/VE125_randls_8_rotated.json,http://54.235.29.9/FacialAge/BNav_EC2/DepthDuration/v2_depth_duration_MTurk/v2_DepthDuration_HTML.html#75,75,1024,657,1024,768,8-21-2022,6-45-11,74,depth_duration_stimuli/002118_2014-06-25_20-32-08_260595134347_rgbf000078-resize_1/002118_2014-06-25_20-32-08_260595134347_rgbf000078-resize_1-target.png,125,2.6460000000000004,1,2499,125,meters,jsons/VE125_randls_8_rotated.json,823303,1494069,30,Man
74,401046,DepthScenes,duration_manipulation_targetAtFixation,jsons/VE125_randls_8_rotated.json,http://54.235.29.9/FacialAge/BNav_EC2/DepthDuration/v2_depth_duration_MTurk/v2_DepthDuration_HTML.html#75,75,1024,657,1024,768,8-21-2022,6-45-11,75,depth_duration_stimuli/002637_2014-06-24_14-51-13_094959634447_rgbf000066-resize_4/002637_2014-06-24_14-51-13_094959634447_rgbf000066-resize_4-target.png,125,1.9955,1,2601,126,meters,jsons/VE125_randls_8_rotated.json,823303,1494069,30,Man
75,401046,DepthScenes,duration_manipulation_targetAtFixation,jsons/VE125_randls_8_rotated.json,http://54.235.29.9/FacialAge/BNav_EC2/DepthDuration/v2_depth_duration_MTurk/v2_DepthDuration_HTML.html#75,75,1024,657,1024,768,8-21-2022,6-45-11,76,depth_duration_stimuli/003534_2014-05-22_15-06-10_094959634447_rgbf000102-resize_4/003534_2014-05-22_15-06-10_094959634447_rgbf000102-resize_4-target.png,125,1.426,0,4224,125,meters,jsons/VE125_randls_8_rotated.json,823303,1494069,30,Man
76,401046,DepthScenes,duration_manipulation_targetAtFixation,jsons/VE125_randls_8_rotated.json,http://54.235.29.9/FacialAge/BNav_EC2/DepthDuration/v2_depth_duration_MTurk/v2_DepthDuration_HTML.html#75,75,1024,657,1024,768,8-21-2022,6-45-11,77,depth_duration_stimuli/000677_2014-06-08_23-10-32_260595134347_rgbf000158-resize_6/000677_2014-06-08_23-10-32_260595134347_rgbf000158-resize_6-target.png,125,3.556,1,3652,124,meters,jsons/VE125_randls_8_rotated.json,823303,1494069,30,Man
77,401046,DepthScenes,duration_manipulation_targetAtFixation,jsons/VE125_randls_8_rotated.json,http://54.235.29.9/FacialAge/BNav_EC2/DepthDuration/v2_depth_duration_MTurk/v2_DepthDuration_HTML.html#75,75,1024,657,1024,768,8-21-2022,6-45-11,78,depth_duration_stimuli/001029_2014-06-08_13-17-57_260595134347_rgbf000065-resize_1/001029_2014-06-08_13-17-57_260595134347_rgbf000065-resize_1-target.png,125,3.0835,1,2711,123,meters,jsons/VE125_randls_8_rotated.json,823303,1494069,30,Man
78,401046,DepthScenes,duration_manipulation_targetAtFixation,jsons/VE125_randls_8_rotated.json,http://54.235.29.9/FacialAge/BNav_EC2/DepthDuration/v2_depth_duration_MTurk/v2_DepthDuration_HTML.html#75,75,1024,657,1024,768,8-21-2022,6-45-11,79,depth_duration_stimuli/001828_2014-06-26_21-40-03_260595134347_rgbf000024-resize_0/001828_2014-06-26_21-40-03_260595134347_rgbf000024-resize_0-target.png,125,4.8260000000000005,1,2374,163,meters,jsons/VE125_randls_8_rotated.json,823303,1494069,30,Man
79,401046,DepthScenes,duration_manipulation_targetAtFixation,jsons/VE125_randls_8_rotated.json,http://54.235.29.9/FacialAge/BNav_EC2/DepthDuration/v2_depth_duration_MTurk/v2_DepthDuration_HTML.html#75,75,1024,657,1024,768,8-21-2022,6-45-11,80,depth_duration_stimuli/000009_2014-05-26_14-32-05_260595134347_rgbf000034-resize_3/000009_2014-05-26_14-32-05_260595134347_rgbf000034-resize_3-target.png,125,3.8715,1,2389,122,meters,jsons/VE125_randls_8_rotated.json,823303,1494069,30,Man
80,401046,DepthScenes,duration_manipulation_targetAtFixation,jsons/VE125_randls_8_rotated.json,http://54.235.29.9/FacialAge/BNav_EC2/DepthDuration/v2_depth_duration_MTurk/v2_DepthDuration_HTML.html#75,75,1024,657,1024,768,8-21-2022,6-45-11,81,depth_duration_stimuli/000854_2014-06-09_19-43-13_260595134347_rgbf000066-resize_0/000854_2014-06-09_19-43-13_260595134347_rgbf000066-resize_0-target.png,125,3.068,1,2178,108,meters,jsons/VE125_randls_8_rotated.json,823303,1494069,30,Man
81,401046,DepthScenes,duration_manipulation_targetAtFixation,jsons/VE125_randls_8_rotated.json,http://54.235.29.9/FacialAge/BNav_EC2/DepthDuration/v2_depth_duration_MTurk/v2_DepthDuration_HTML.html#75,75,1024,657,1024,768,8-21-2022,6-45-11,82,depth_duration_stimuli/000758_2014-06-08_22-05-08_260595134347_rgbf000085-resize_0/000758_2014-06-08_22-05-08_260595134347_rgbf000085-resize_0-target.png,125,3.3810000000000002,1,3014,123,meters,jsons/VE125_randls_8_rotated.json,823303,1494069,30,Man
82,401046,DepthScenes,duration_manipulation_targetAtFixation,jsons/VE125_randls_8_rotated.json,http://54.235.29.9/FacialAge/BNav_EC2/DepthDuration/v2_depth_duration_MTurk/v2_DepthDuration_HTML.html#75,75,1024,657,1024,768,8-21-2022,6-45-11,83,depth_duration_stimuli/002444_2014-06-28_20-32-08_260595134347_rgbf000027-resize_0/002444_2014-06-28_20-32-08_260595134347_rgbf000027-resize_0-target.png,125,4.388999999999999,1,2682,137,meters,jsons/VE125_randls_8_rotated.json,823303,1494069,30,Man
83,401046,DepthScenes,duration_manipulation_targetAtFixation,jsons/VE125_randls_8_rotated.json,http://54.235.29.9/FacialAge/BNav_EC2/DepthDuration/v2_depth_duration_MTurk/v2_DepthDuration_HTML.html#75,75,1024,657,1024,768,8-21-2022,6-45-11,84,depth_duration_stimuli/000436_2014-06-09_22-25-11_260595134347_rgbf000137-resize_1/000436_2014-06-09_22-25-11_260595134347_rgbf000137-resize_1-target.png,125,4.0705,1,2794,125,meters,jsons/VE125_randls_8_rotated.json,823303,1494069,30,Man
84,401046,DepthScenes,duration_manipulation_targetAtFixation,jsons/VE125_randls_8_rotated.json,http://54.235.29.9/FacialAge/BNav_EC2/DepthDuration/v2_depth_duration_MTurk/v2_DepthDuration_HTML.html#75,75,1024,657,1024,768,8-21-2022,6-45-11,85,depth_duration_stimuli/002995_2014-06-15_12-31-26_094959634447_rgbf000150-resize_1/002995_2014-06-15_12-31-26_094959634447_rgbf000150-resize_1-target.png,125,3.8360000000000003,1,2712,124,meters,jsons/VE125_randls_8_rotated.json,823303,1494069,30,Man
85,401046,DepthScenes,duration_manipulation_targetAtFixation,jsons/VE125_randls_8_rotated.json,http://54.235.29.9/FacialAge/BNav_EC2/DepthDuration/v2_depth_duration_MTurk/v2_DepthDuration_HTML.html#75,75,1024,657,1024,768,8-21-2022,6-45-11,86,depth_duration_stimuli/002748_2014-06-22_19-07-22_094959634447_rgbf000078-resize_1/002748_2014-06-22_19-07-22_094959634447_rgbf000078-resize_1-target.png,125,4.6705,1,3687,134,meters,jsons/VE125_randls_8_rotated.json,823303,1494069,30,Man
86,401046,DepthScenes,duration_manipulation_targetAtFixation,jsons/VE125_randls_8_rotated.json,http://54.235.29.9/FacialAge/BNav_EC2/DepthDuration/v2_depth_duration_MTurk/v2_DepthDuration_HTML.html#75,75,1024,657,1024,768,8-21-2022,6-45-11,87,depth_duration_stimuli/000556_2014-06-09_22-42-56_260595134347_rgbf000214-resize_1/000556_2014-06-09_22-42-56_260595134347_rgbf000214-resize_1-target.png,125,4.8415,1,2975,176,meters,jsons/VE125_randls_8_rotated.json,823303,1494069,30,Man
87,401046,DepthScenes,duration_manipulation_targetAtFixation,jsons/VE125_randls_8_rotated.json,http://54.235.29.9/FacialAge/BNav_EC2/DepthDuration/v2_depth_duration_MTurk/v2_DepthDuration_HTML.html#75,75,1024,657,1024,768,8-21-2022,6-45-11,88,depth_duration_stimuli/001158_2014-06-17_15-32-16_260595134347_rgbf000138-resize_2/001158_2014-06-17_15-32-16_260595134347_rgbf000138-resize_2-target.png,125,4.5315,1,2601,125,meters,jsons/VE125_randls_8_rotated.json,823303,1494069,30,Man
88,401046,DepthScenes,duration_manipulation_targetAtFixation,jsons/VE125_randls_8_rotated.json,http://54.235.29.9/FacialAge/BNav_EC2/DepthDuration/v2_depth_duration_MTurk/v2_DepthDuration_HTML.html#75,75,1024,657,1024,768,8-21-2022,6-45-11,89,depth_duration_stimuli/002199_2014-06-28_18-33-56_260595134347_rgbf000074-resize_0/002199_2014-06-28_18-33-56_260595134347_rgbf000074-resize_0-target.png,125,1.996,1,2658,123,meters,jsons/VE125_randls_8_rotated.json,823303,1494069,30,Man
89,401046,DepthScenes,duration_manipulation_targetAtFixation,jsons/VE125_randls_8_rotated.json,http://54.235.29.9/FacialAge/BNav_EC2/DepthDuration/v2_depth_duration_MTurk/v2_DepthDuration_HTML.html#75,75,1024,657,1024,768,8-21-2022,6-45-11,90,depth_duration_stimuli/001056_2014-06-08_18-46-44_260595134347_rgbf000068-resize_0/001056_2014-06-08_18-46-44_260595134347_rgbf000068-resize_0-target.png,125,2.6625,1,2447,139,meters,jsons/VE125_randls_8_rotated.json,823303,1494069,30,Man
90,401046,DepthScenes,duration_manipulation_targetAtFixation,jsons/VE125_randls_8_rotated.json,http://54.235.29.9/FacialAge/BNav_EC2/DepthDuration/v2_depth_duration_MTurk/v2_DepthDuration_HTML.html#75,75,1024,657,1024,768,8-21-2022,6-45-11,91,depth_duration_stimuli/000502_2014-06-08_23-02-32_260595134347_rgbf000063-resize_4/000502_2014-06-08_23-02-32_260595134347_rgbf000063-resize_4-target.png,125,2.431,1,2752,124,meters,jsons/VE125_randls_8_rotated.json,823303,1494069,30,Man
91,401046,DepthScenes,duration_manipulation_targetAtFixation,jsons/VE125_randls_8_rotated.json,http://54.235.29.9/FacialAge/BNav_EC2/DepthDuration/v2_depth_duration_MTurk/v2_DepthDuration_HTML.html#75,75,1024,657,1024,768,8-21-2022,6-45-11,92,depth_duration_stimuli/001199_2014-06-17_16-03-48_260595134347_rgbf000077-resize_0/001199_2014-06-17_16-03-48_260595134347_rgbf000077-resize_0-target.png,125,3.4375,1,4402,264,meters,jsons/VE125_randls_8_rotated.json,823303,1494069,30,Man
92,401046,DepthScenes,duration_manipulation_targetAtFixation,jsons/VE125_randls_8_rotated.json,http://54.235.29.9/FacialAge/BNav_EC2/DepthDuration/v2_depth_duration_MTurk/v2_DepthDuration_HTML.html#75,75,1024,657,1024,768,8-21-2022,6-45-11,93,depth_duration_stimuli/002805_2014-06-22_19-54-03_094959634447_rgbf000079-resize_1/002805_2014-06-22_19-54-03_094959634447_rgbf000079-resize_1-target.png,125,3.1439999999999997,1,3987,173,meters,jsons/VE125_randls_8_rotated.json,823303,1494069,30,Man
93,401046,DepthScenes,duration_manipulation_targetAtFixation,jsons/VE125_randls_8_rotated.json,http://54.235.29.9/FacialAge/BNav_EC2/DepthDuration/v2_depth_duration_MTurk/v2_DepthDuration_HTML.html#75,75,1024,657,1024,768,8-21-2022,6-45-11,94,depth_duration_stimuli/000906_2014-06-08_13-35-43_260595134347_rgbf000155-resize_1/000906_2014-06-08_13-35-43_260595134347_rgbf000155-resize_1-target.png,125,2.8489999999999998,1,4779,125,meters,jsons/VE125_randls_8_rotated.json,823303,1494069,30,Man
94,401046,DepthScenes,duration_manipulation_targetAtFixation,jsons/VE125_randls_8_rotated.json,http://54.235.29.9/FacialAge/BNav_EC2/DepthDuration/v2_depth_duration_MTurk/v2_DepthDuration_HTML.html#75,75,1024,657,1024,768,8-21-2022,6-45-11,95,depth_duration_stimuli/003587_2014-05-23_16-48-02_094959634447_rgbf002384-resize_2/003587_2014-05-23_16-48-02_094959634447_rgbf002384-resize_2-target.png,125,1.357,1,5058,173,meters,jsons/VE125_randls_8_rotated.json,823303,1494069,30,Man
95,401046,DepthScenes,duration_manipulation_targetAtFixation,jsons/VE125_randls_8_rotated.json,http://54.235.29.9/FacialAge/BNav_EC2/DepthDuration/v2_depth_duration_MTurk/v2_DepthDuration_HTML.html#75,75,1024,657,1024,768,8-21-2022,6-45-11,96,depth_duration_stimuli/001167_2014-06-17_15-38-07_260595134347_rgbf000108-resize_0/001167_2014-06-17_15-38-07_260595134347_rgbf000108-resize_0-target.png,125,1.8505,1,6572,245,meters,jsons/VE125_randls_8_rotated.json,823303,1494069,30,Man
96,401046,DepthScenes,duration_manipulation_targetAtFixation,jsons/VE125_randls_8_rotated.json,http://54.235.29.9/FacialAge/BNav_EC2/DepthDuration/v2_depth_duration_MTurk/v2_DepthDuration_HTML.html#75,75,1024,657,1024,768,8-21-2022,6-45-11,97,depth_duration_stimuli/001100_2014-06-15_17-46-26_260595134347_rgbf000225-resize_2/001100_2014-06-15_17-46-26_260595134347_rgbf000225-resize_2-target.png,125,2.24,1,7184,124,meters,jsons/VE125_randls_8_rotated.json,823303,1494069,30,Man
97,401046,DepthScenes,duration_manipulation_targetAtFixation,jsons/VE125_randls_8_rotated.json,http://54.235.29.9/FacialAge/BNav_EC2/DepthDuration/v2_depth_duration_MTurk/v2_DepthDuration_HTML.html#75,75,1024,657,1024,768,8-21-2022,6-45-11,98,depth_duration_stimuli/002784_2014-06-22_19-26-30_094959634447_rgbf000083-resize_3/002784_2014-06-22_19-26-30_094959634447_rgbf000083-resize_3-target.png,125,1.8046666666667,1,2620,0,meters,jsons/VE125_randls_8_rotated.json,823303,1494069,30,Man
98,401046,DepthScenes,duration_manipulation_targetAtFixation,jsons/VE125_randls_8_rotated.json,http://54.235.29.9/FacialAge/BNav_EC2/DepthDuration/v2_depth_duration_MTurk/v2_DepthDuration_HTML.html#75,75,1024,657,1024,768,8-21-2022,6-45-11,99,depth_duration_stimuli/001222_2014-06-17_16-24-06_260595134347_rgbf000073-resize_0/001222_2014-06-17_16-24-06_260595134347_rgbf000073-resize-original.jpg,125,1.4385,1,6728,128,meters,jsons/VE125_randls_8_rotated.json,823303,1494069,30,Man
99,401046,DepthScenes,duration_manipulation_targetAtFixation,jsons/VE125_randls_8_rotated.json,http://54.235.29.9/FacialAge/BNav_EC2/DepthDuration/v2_depth_duration_MTurk/v2_DepthDuration_HTML.html#75,75,1024,657,1024,768,8-21-2022,6-45-11,100,depth_duration_stimuli/000927_2014-06-09_16-32-30_260595134347_rgbf000123-resize_3/000927_2014-06-09_16-32-30_260595134347_rgbf000123-resize_3-target.png,125,2.6785,1,2736,125,meters,jsons/VE125_randls_8_rotated.json,823303,1494069,30,Man
100,401046,DepthScenes,duration_manipulation_targetAtFixation,jsons/VE125_randls_8_rotated.json,http://54.235.29.9/FacialAge/BNav_EC2/DepthDuration/v2_depth_duration_MTurk/v2_DepthDuration_HTML.html#75,75,1024,657,1024,768,8-21-2022,6-45-11,101,depth_duration_stimuli/001110_2014-06-15_17-25-28_260595134347_rgbf000150-resize_1/001110_2014-06-15_17-25-28_260595134347_rgbf000150-resize_1-target.png,125,1.7115,1,2636,126,meters,jsons/VE125_randls_8_rotated.json,823303,1494069,30,Man
101,401046,DepthScenes,duration_manipulation_targetAtFixation,jsons/VE125_randls_8_rotated.json,http://54.235.29.9/FacialAge/BNav_EC2/DepthDuration/v2_depth_duration_MTurk/v2_DepthDuration_HTML.html#75,75,1024,657,1024,768,8-21-2022,6-45-11,102,depth_duration_stimuli/003079_2014-06-15_15-18-20_094959634447_rgbf000152-resize_8/003079_2014-06-15_15-18-20_094959634447_rgbf000152-resize_8-target.png,125,2.8775,1,2648,96,meters,jsons/VE125_randls_8_rotated.json,823303,1494069,30,Man
102,401046,DepthScenes,duration_manipulation_targetAtFixation,jsons/VE125_randls_8_rotated.json,http://54.235.29.9/FacialAge/BNav_EC2/DepthDuration/v2_depth_duration_MTurk/v2_DepthDuration_HTML.html#75,75,1024,657,1024,768,8-21-2022,6-45-11,103,depth_duration_stimuli/000506_2014-06-08_23-21-00_260595134347_rgbf000070-resize_7/000506_2014-06-08_23-21-00_260595134347_rgbf000070-resize_7-target.png,125,4.0585,1,2731,125,meters,jsons/VE125_randls_8_rotated.json,823303,1494069,30,Man
103,401046,DepthScenes,duration_manipulation_targetAtFixation,jsons/VE125_randls_8_rotated.json,http://54.235.29.9/FacialAge/BNav_EC2/DepthDuration/v2_depth_duration_MTurk/v2_DepthDuration_HTML.html#75,75,1024,657,1024,768,8-21-2022,6-45-11,104,depth_duration_stimuli/001450_2014-06-19_17-02-03_260595134347_rgbf000203-resize_4/001450_2014-06-19_17-02-03_260595134347_rgbf000203-resize_4-target.png,125,4.0106666666667,1,2183,127,meters,jsons/VE125_randls_8_rotated.json,823303,1494069,30,Man
104,401046,DepthScenes,duration_manipulation_targetAtFixation,jsons/VE125_randls_8_rotated.json,http://54.235.29.9/FacialAge/BNav_EC2/DepthDuration/v2_depth_duration_MTurk/v2_DepthDuration_HTML.html#75,75,1024,657,1024,768,8-21-2022,6-45-11,105,depth_duration_stimuli/001449_2014-06-19_17-01-27_260595134347_rgbf000116-resize_2/001449_2014-06-19_17-01-27_260595134347_rgbf000116-resize_2-target.png,125,3.452,1,2088,124,meters,jsons/VE125_randls_8_rotated.json,823303,1494069,30,Man
105,401046,DepthScenes,duration_manipulation_targetAtFixation,jsons/VE125_randls_8_rotated.json,http://54.235.29.9/FacialAge/BNav_EC2/DepthDuration/v2_depth_duration_MTurk/v2_DepthDuration_HTML.html#75,75,1024,657,1024,768,8-21-2022,6-45-11,106,depth_duration_stimuli/002639_2014-06-24_14-51-37_094959634447_rgbf000074-resize_4/002639_2014-06-24_14-51-37_094959634447_rgbf000074-resize_4-target.png,125,4.0375,1,2879,125,meters,jsons/VE125_randls_8_rotated.json,823303,1494069,30,Man
106,401046,DepthScenes,duration_manipulation_targetAtFixation,jsons/VE125_randls_8_rotated.json,http://54.235.29.9/FacialAge/BNav_EC2/DepthDuration/v2_depth_duration_MTurk/v2_DepthDuration_HTML.html#75,75,1024,657,1024,768,8-21-2022,6-45-11,107,depth_duration_stimuli/003292_2014-05-14_21-53-49_094959634447_rgbf000100-resize_2/003292_2014-05-14_21-53-49_094959634447_rgbf000100-resize_2-target.png,125,3.4815,1,2686,86,meters,jsons/VE125_randls_8_rotated.json,823303,1494069,30,Man
107,401046,DepthScenes,duration_manipulation_targetAtFixation,jsons/VE125_randls_8_rotated.json,http://54.235.29.9/FacialAge/BNav_EC2/DepthDuration/v2_depth_duration_MTurk/v2_DepthDuration_HTML.html#75,75,1024,657,1024,768,8-21-2022,6-45-11,108,depth_duration_stimuli/000866_2014-06-09_20-45-42_260595134347_rgbf000139-resize_1/000866_2014-06-09_20-45-42_260595134347_rgbf000139-resize_1-target.png,125,3.2155,1,2489,0,meters,jsons/VE125_randls_8_rotated.json,823303,1494069,30,Man
108,401046,DepthScenes,duration_manipulation_targetAtFixation,jsons/VE125_randls_8_rotated.json,http://54.235.29.9/FacialAge/BNav_EC2/DepthDuration/v2_depth_duration_MTurk/v2_DepthDuration_HTML.html#75,75,1024,657,1024,768,8-21-2022,6-45-11,109,depth_duration_stimuli/002989_2014-06-15_12-25-03_094959634447_rgbf000150-resize_3/002989_2014-06-15_12-25-03_094959634447_rgbf000150-resize_3-target.png,125,4.1975,1,2755,66,meters,jsons/VE125_randls_8_rotated.json,823303,1494069,30,Man
109,401046,DepthScenes,duration_manipulation_targetAtFixation,jsons/VE125_randls_8_rotated.json,http://54.235.29.9/FacialAge/BNav_EC2/DepthDuration/v2_depth_duration_MTurk/v2_DepthDuration_HTML.html#75,75,1024,657,1024,768,8-21-2022,6-45-11,110,depth_duration_stimuli/001584_2014-06-20_11-07-43_260595134347_rgbf000002-resize_1/001584_2014-06-20_11-07-43_260595134347_rgbf000002-resize_1-target.png,125,3.53,1,2344,126,meters,jsons/VE125_randls_8_rotated.json,823303,1494069,30,Man
110,401046,DepthScenes,duration_manipulation_targetAtFixation,jsons/VE125_randls_8_rotated.json,http://54.235.29.9/FacialAge/BNav_EC2/DepthDuration/v2_depth_duration_MTurk/v2_DepthDuration_HTML.html#75,75,1024,657,1024,768,8-21-2022,6-45-11,111,depth_duration_stimuli/003621_2014-05-23_18-06-08_094959634447_rgbf000101-resize_1/003621_2014-05-23_18-06-08_094959634447_rgbf000101-resize_1-target.png,125,3.9835,1,2411,123,meters,jsons/VE125_randls_8_rotated.json,823303,1494069,30,Man
111,401046,DepthScenes,duration_manipulation_targetAtFixation,jsons/VE125_randls_8_rotated.json,http://54.235.29.9/FacialAge/BNav_EC2/DepthDuration/v2_depth_duration_MTurk/v2_DepthDuration_HTML.html#75,75,1024,657,1024,768,8-21-2022,6-45-11,112,depth_duration_stimuli/002678_2014-06-13_16-15-32_094959634447_rgbf000151-resize_6/002678_2014-06-13_16-15-32_094959634447_rgbf000151-resize_6-target.png,125,2.1830000000000003,1,2642,162,meters,jsons/VE125_randls_8_rotated.json,823303,1494069,30,Man
112,401046,DepthScenes,duration_manipulation_targetAtFixation,jsons/VE125_randls_8_rotated.json,http://54.235.29.9/FacialAge/BNav_EC2/DepthDuration/v2_depth_duration_MTurk/v2_DepthDuration_HTML.html#75,75,1024,657,1024,768,8-21-2022,6-45-11,113,depth_duration_stimuli/000368_2014-06-09_15-53-01_260595134347_rgbf000155-resize_2/000368_2014-06-09_15-53-01_260595134347_rgbf000155-resize_2-target.png,125,2.4859999999999998,1,2338,126,meters,jsons/VE125_randls_8_rotated.json,823303,1494069,30,Man
113,401046,DepthScenes,duration_manipulation_targetAtFixation,jsons/VE125_randls_8_rotated.json,http://54.235.29.9/FacialAge/BNav_EC2/DepthDuration/v2_depth_duration_MTurk/v2_DepthDuration_HTML.html#75,75,1024,657,1024,768,8-21-2022,6-45-11,114,depth_duration_stimuli/002568_2014-06-24_13-59-21_094959634447_rgbf000062-resize_4/002568_2014-06-24_13-59-21_094959634447_rgbf000062-resize_4-target.png,125,3.015,1,2155,125,meters,jsons/VE125_randls_8_rotated.json,823303,1494069,30,Man
114,401046,DepthScenes,duration_manipulation_targetAtFixation,jsons/VE125_randls_8_rotated.json,http://54.235.29.9/FacialAge/BNav_EC2/DepthDuration/v2_depth_duration_MTurk/v2_DepthDuration_HTML.html#75,75,1024,657,1024,768,8-21-2022,6-45-11,115,depth_duration_stimuli/003492_2014-05-21_15-50-55_094959634447_rgbf000828-resize_1/003492_2014-05-21_15-50-55_094959634447_rgbf000828-resize_1-target.png,125,4.06875,1,2262,161,meters,jsons/VE125_randls_8_rotated.json,823303,1494069,30,Man
115,401046,DepthScenes,duration_manipulation_targetAtFixation,jsons/VE125_randls_8_rotated.json,http://54.235.29.9/FacialAge/BNav_EC2/DepthDuration/v2_depth_duration_MTurk/v2_DepthDuration_HTML.html#75,75,1024,657,1024,768,8-21-2022,6-45-11,116,depth_duration_stimuli/003338_2014-05-20_11-01-23_094959634447_rgbf000051-resize_6/003338_2014-05-20_11-01-23_094959634447_rgbf000051-resize_6-target.png,125,1.693,1,119628,126,meters,jsons/VE125_randls_8_rotated.json,823303,1494069,30,Man
116,401046,DepthScenes,duration_manipulation_targetAtFixation,jsons/VE125_randls_8_rotated.json,http://54.235.29.9/FacialAge/BNav_EC2/DepthDuration/v2_depth_duration_MTurk/v2_DepthDuration_HTML.html#75,75,1024,657,1024,768,8-21-2022,6-45-11,117,depth_duration_stimuli/002509_2014-06-24_13-19-22_094959634447_rgbf000077-resize_0/002509_2014-06-24_13-19-22_094959634447_rgbf000077-resize_0-target.png,125,1.3065,1,3137,124,meters,jsons/VE125_randls_8_rotated.json,823303,1494069,30,Man
117,401046,DepthScenes,duration_manipulation_targetAtFixation,jsons/VE125_randls_8_rotated.json,http://54.235.29.9/FacialAge/BNav_EC2/DepthDuration/v2_depth_duration_MTurk/v2_DepthDuration_HTML.html#75,75,1024,657,1024,768,8-21-2022,6-45-11,118,depth_duration_stimuli/000749_2014-06-08_21-55-06_260595134347_rgbf000070-resize_2/000749_2014-06-08_21-55-06_260595134347_rgbf000070-resize_2-target.png,125,2.331,1,3042,124,meters,jsons/VE125_randls_8_rotated.json,823303,1494069,30,Man
118,401046,DepthScenes,duration_manipulation_targetAtFixation,jsons/VE125_randls_8_rotated.json,http://54.235.29.9/FacialAge/BNav_EC2/DepthDuration/v2_depth_duration_MTurk/v2_DepthDuration_HTML.html#75,75,1024,657,1024,768,8-21-2022,6-45-11,119,depth_duration_stimuli/002788_2014-06-22_19-36-03_094959634447_rgbf000088-resize_2/002788_2014-06-22_19-36-03_094959634447_rgbf000088-resize_2-target.png,125,1.6465,1,1738,3,meters,jsons/VE125_randls_8_rotated.json,823303,1494069,30,Man
119,401046,DepthScenes,duration_manipulation_targetAtFixation,jsons/VE125_randls_8_rotated.json,http://54.235.29.9/FacialAge/BNav_EC2/DepthDuration/v2_depth_duration_MTurk/v2_DepthDuration_HTML.html#75,75,1024,657,1024,768,8-21-2022,6-45-11,120,depth_duration_stimuli/000787_2014-06-08_22-33-53_260595134347_rgbf000175-resize_1/000787_2014-06-08_22-33-53_260595134347_rgbf000175-resize-original.jpg,125,4.784,0,3403,124,meters,jsons/VE125_randls_8_rotated.json,823303,1494069,30,Man
120,401046,DepthScenes,duration_manipulation_targetAtFixation,jsons/VE125_randls_8_rotated.json,http://54.235.29.9/FacialAge/BNav_EC2/DepthDuration/v2_depth_duration_MTurk/v2_DepthDuration_HTML.html#75,75,1024,657,1024,768,8-21-2022,6-45-11,121,depth_duration_stimuli/000409_2014-06-04_19-23-33_260595134347_rgbf000067-resize_0/000409_2014-06-04_19-23-33_260595134347_rgbf000067-resize_0-target.png,125,3.7335,1,2868,109,meters,jsons/VE125_randls_8_rotated.json,823303,1494069,30,Man
121,401046,DepthScenes,duration_manipulation_targetAtFixation,jsons/VE125_randls_8_rotated.json,http://54.235.29.9/FacialAge/BNav_EC2/DepthDuration/v2_depth_duration_MTurk/v2_DepthDuration_HTML.html#75,75,1024,657,1024,768,8-21-2022,6-45-11,122,depth_duration_stimuli/002663_2014-06-13_15-50-26_094959634447_rgbf000075-resize_1/002663_2014-06-13_15-50-26_094959634447_rgbf000075-resize_1-target.png,125,4.7495,1,2386,125,meters,jsons/VE125_randls_8_rotated.json,823303,1494069,30,Man
122,401046,DepthScenes,duration_manipulation_targetAtFixation,jsons/VE125_randls_8_rotated.json,http://54.235.29.9/FacialAge/BNav_EC2/DepthDuration/v2_depth_duration_MTurk/v2_DepthDuration_HTML.html#75,75,1024,657,1024,768,8-21-2022,6-45-11,123,depth_duration_stimuli/002414_2014-06-28_20-24-58_260595134347_rgbf000067-resize_4/002414_2014-06-28_20-24-58_260595134347_rgbf000067-resize_4-target.png,125,4.363,1,2090,3,meters,jsons/VE125_randls_8_rotated.json,823303,1494069,30,Man
123,401046,DepthScenes,duration_manipulation_targetAtFixation,jsons/VE125_randls_8_rotated.json,http://54.235.29.9/FacialAge/BNav_EC2/DepthDuration/v2_depth_duration_MTurk/v2_DepthDuration_HTML.html#75,75,1024,657,1024,768,8-21-2022,6-45-11,124,depth_duration_stimuli/000773_2014-06-08_22-24-54_260595134347_rgbf000093-resize_1/000773_2014-06-08_22-24-54_260595134347_rgbf000093-resize_1-target.png,125,4.973,1,2652,125,meters,jsons/VE125_randls_8_rotated.json,823303,1494069,30,Man
124,401046,DepthScenes,duration_manipulation_targetAtFixation,jsons/VE125_randls_8_rotated.json,http://54.235.29.9/FacialAge/BNav_EC2/DepthDuration/v2_depth_duration_MTurk/v2_DepthDuration_HTML.html#75,75,1024,657,1024,768,8-21-2022,6-45-11,125,depth_duration_stimuli/000742_2014-06-08_18-48-09_260595134347_rgbf000164-resize_4/000742_2014-06-08_18-48-09_260595134347_rgbf000164-resize_4-target.png,125,4.632,1,2351,124,meters,jsons/VE125_randls_8_rotated.json,823303,1494069,30,Man
125,401046,DepthScenes,duration_manipulation_targetAtFixation,jsons/VE125_randls_8_rotated.json,http://54.235.29.9/FacialAge/BNav_EC2/DepthDuration/v2_depth_duration_MTurk/v2_DepthDuration_HTML.html#75,75,1024,657,1024,768,8-21-2022,6-45-11,126,depth_duration_stimuli/001066_2014-06-08_22-03-20_260595134347_rgbf000066-resize_4/001066_2014-06-08_22-03-20_260595134347_rgbf000066-resize_4-target.png,125,4.2330000000000005,1,2499,126,meters,jsons/VE125_randls_8_rotated.json,823303,1494069,30,Man
126,401046,DepthScenes,duration_manipulation_targetAtFixation,jsons/VE125_randls_8_rotated.json,http://54.235.29.9/FacialAge/BNav_EC2/DepthDuration/v2_depth_duration_MTurk/v2_DepthDuration_HTML.html#75,75,1024,657,1024,768,8-21-2022,6-45-11,127,depth_duration_stimuli/000457_2014-06-08_16-52-43_260595134347_rgbf000199-resize_1/000457_2014-06-08_16-52-43_260595134347_rgbf000199-resize_1-target.png,125,3.6489999999999996,1,2449,125,meters,jsons/VE125_randls_8_rotated.json,823303,1494069,30,Man
127,401046,DepthScenes,duration_manipulation_targetAtFixation,jsons/VE125_randls_8_rotated.json,http://54.235.29.9/FacialAge/BNav_EC2/DepthDuration/v2_depth_duration_MTurk/v2_DepthDuration_HTML.html#75,75,1024,657,1024,768,8-21-2022,6-45-11,128,depth_duration_stimuli/000929_2014-06-09_16-33-19_260595134347_rgbf000139-resize_0/000929_2014-06-09_16-33-19_260595134347_rgbf000139-resize_0-target.png,125,2.8680000000000003,1,2364,124,meters,jsons/VE125_randls_8_rotated.json,823303,1494069,30,Man
128,401046,DepthScenes,duration_manipulation_targetAtFixation,jsons/VE125_randls_8_rotated.json,http://54.235.29.9/FacialAge/BNav_EC2/DepthDuration/v2_depth_duration_MTurk/v2_DepthDuration_HTML.html#75,75,1024,657,1024,768,8-21-2022,6-45-11,129,depth_duration_stimuli/003081_2014-06-15_15-19-16_094959634447_rgbf000150-resize_1/003081_2014-06-15_15-19-16_094959634447_rgbf000150-resize_1-target.png,125,3.9125,1,2061,6,meters,jsons/VE125_randls_8_rotated.json,823303,1494069,30,Man
129,401046,DepthScenes,duration_manipulation_targetAtFixation,jsons/VE125_randls_8_rotated.json,http://54.235.29.9/FacialAge/BNav_EC2/DepthDuration/v2_depth_duration_MTurk/v2_DepthDuration_HTML.html#75,75,1024,657,1024,768,8-21-2022,6-45-11,130,depth_duration_stimuli/001417_2014-06-19_16-25-36_260595134347_rgbf000115-resize_5/001417_2014-06-19_16-25-36_260595134347_rgbf000115-resize_5-target.png,125,4.6255,1,2206,121,meters,jsons/VE125_randls_8_rotated.json,823303,1494069,30,Man
130,401046,DepthScenes,duration_manipulation_targetAtFixation,jsons/VE125_randls_8_rotated.json,http://54.235.29.9/FacialAge/BNav_EC2/DepthDuration/v2_depth_duration_MTurk/v2_DepthDuration_HTML.html#75,75,1024,657,1024,768,8-21-2022,6-45-11,131,depth_duration_stimuli/003129_2014-05-12_10-48-10_094959634447_rgbf000100-resize_0/003129_2014-05-12_10-48-10_094959634447_rgbf000100-resize_0-target.png,125,4.9305,1,2128,124,meters,jsons/VE125_randls_8_rotated.json,823303,1494069,30,Man
131,401046,DepthScenes,duration_manipulation_targetAtFixation,jsons/VE125_randls_8_rotated.json,http://54.235.29.9/FacialAge/BNav_EC2/DepthDuration/v2_depth_duration_MTurk/v2_DepthDuration_HTML.html#75,75,1024,657,1024,768,8-21-2022,6-45-11,132,depth_duration_stimuli/000414_2014-06-04_19-49-13_260595134347_rgbf000044-resize_0/000414_2014-06-04_19-49-13_260595134347_rgbf000044-resize_0-target.png,125,4.329,1,2080,127,meters,jsons/VE125_randls_8_rotated.json,823303,1494069,30,Man
132,401046,DepthScenes,duration_manipulation_targetAtFixation,jsons/VE125_randls_8_rotated.json,http://54.235.29.9/FacialAge/BNav_EC2/DepthDuration/v2_depth_duration_MTurk/v2_DepthDuration_HTML.html#75,75,1024,657,1024,768,8-21-2022,6-45-11,133,depth_duration_stimuli/001392_2014-06-19_16-07-59_260595134347_rgbf000046-resize_1/001392_2014-06-19_16-07-59_260595134347_rgbf000046-resize_1-target.png,125,4.135,1,2386,133,meters,jsons/VE125_randls_8_rotated.json,823303,1494069,30,Man
133,401046,DepthScenes,duration_manipulation_targetAtFixation,jsons/VE125_randls_8_rotated.json,http://54.235.29.9/FacialAge/BNav_EC2/DepthDuration/v2_depth_duration_MTurk/v2_DepthDuration_HTML.html#75,75,1024,657,1024,768,8-21-2022,6-45-11,134,depth_duration_stimuli/001570_2014-06-20_17-21-09_260595134347_rgbf000135-resize_4/001570_2014-06-20_17-21-09_260595134347_rgbf000135-resize_4-target.png,125,4.467,1,2438,119,meters,jsons/VE125_randls_8_rotated.json,823303,1494069,30,Man
134,401046,DepthScenes,duration_manipulation_targetAtFixation,jsons/VE125_randls_8_rotated.json,http://54.235.29.9/FacialAge/BNav_EC2/DepthDuration/v2_depth_duration_MTurk/v2_DepthDuration_HTML.html#75,75,1024,657,1024,768,8-21-2022,6-45-11,135,depth_duration_stimuli/000375_2014-06-08_11-17-29_260595134347_rgbf000133-resize_2/000375_2014-06-08_11-17-29_260595134347_rgbf000133-resize-original.jpg,125,4.718,1,2355,125,meters,jsons/VE125_randls_8_rotated.json,823303,1494069,30,Man
135,401046,DepthScenes,duration_manipulation_targetAtFixation,jsons/VE125_randls_8_rotated.json,http://54.235.29.9/FacialAge/BNav_EC2/DepthDuration/v2_depth_duration_MTurk/v2_DepthDuration_HTML.html#75,75,1024,657,1024,768,8-21-2022,6-45-11,136,depth_duration_stimuli/002209_2014-06-28_18-36-10_260595134347_rgbf000051-resize_1/002209_2014-06-28_18-36-10_260595134347_rgbf000051-resize_1-target.png,125,2.057,1,1921,124,meters,jsons/VE125_randls_8_rotated.json,823303,1494069,30,Man
136,401046,DepthScenes,duration_manipulation_targetAtFixation,jsons/VE125_randls_8_rotated.json,http://54.235.29.9/FacialAge/BNav_EC2/DepthDuration/v2_depth_duration_MTurk/v2_DepthDuration_HTML.html#75,75,1024,657,1024,768,8-21-2022,6-45-11,137,depth_duration_stimuli/002763_2014-06-22_19-13-10_094959634447_rgbf000075-resize_4/002763_2014-06-22_19-13-10_094959634447_rgbf000075-resize_4-target.png,125,1.68375,1,2310,2,meters,jsons/VE125_randls_8_rotated.json,823303,1494069,30,Man
137,401046,DepthScenes,duration_manipulation_targetAtFixation,jsons/VE125_randls_8_rotated.json,http://54.235.29.9/FacialAge/BNav_EC2/DepthDuration/v2_depth_duration_MTurk/v2_DepthDuration_HTML.html#75,75,1024,657,1024,768,8-21-2022,6-45-11,138,depth_duration_stimuli/003495_2014-05-21_16-01-51_094959634447_rgbf000100-resize_3/003495_2014-05-21_16-01-51_094959634447_rgbf000100-resize_3-target.png,125,1.6255,1,1748,2,meters,jsons/VE125_randls_8_rotated.json,823303,1494069,30,Man
138,401046,DepthScenes,duration_manipulation_targetAtFixation,jsons/VE125_randls_8_rotated.json,http://54.235.29.9/FacialAge/BNav_EC2/DepthDuration/v2_depth_duration_MTurk/v2_DepthDuration_HTML.html#75,75,1024,657,1024,768,8-21-2022,6-45-11,139,depth_duration_stimuli/001244_2014-06-17_16-47-45_260595134347_rgbf000030-resize_4/001244_2014-06-17_16-47-45_260595134347_rgbf000030-resize_4-target.png,125,2.0425,1,2566,125,meters,jsons/VE125_randls_8_rotated.json,823303,1494069,30,Man
139,401046,DepthScenes,duration_manipulation_targetAtFixation,jsons/VE125_randls_8_rotated.json,http://54.235.29.9/FacialAge/BNav_EC2/DepthDuration/v2_depth_duration_MTurk/v2_DepthDuration_HTML.html#75,75,1024,657,1024,768,8-21-2022,6-45-11,140,depth_duration_stimuli/000191_2014-05-12_17-07-38_260595134347_rgbf000199-resize_0/000191_2014-05-12_17-07-38_260595134347_rgbf000199-resize_0-target.png,125,3.7995,1,2167,223,meters,jsons/VE125_randls_8_rotated.json,823303,1494069,30,Man
140,401046,DepthScenes,duration_manipulation_targetAtFixation,jsons/VE125_randls_8_rotated.json,http://54.235.29.9/FacialAge/BNav_EC2/DepthDuration/v2_depth_duration_MTurk/v2_DepthDuration_HTML.html#75,75,1024,657,1024,768,8-21-2022,6-45-11,141,depth_duration_stimuli/000493_2014-06-09_21-01-18_260595134347_rgbf000196-resize_3/000493_2014-06-09_21-01-18_260595134347_rgbf000196-resize_3-target.png,125,3.44,1,1867,62,meters,jsons/VE125_randls_8_rotated.json,823303,1494069,30,Man
141,401046,DepthScenes,duration_manipulation_targetAtFixation,jsons/VE125_randls_8_rotated.json,http://54.235.29.9/FacialAge/BNav_EC2/DepthDuration/v2_depth_duration_MTurk/v2_DepthDuration_HTML.html#75,75,1024,657,1024,768,8-21-2022,6-45-11,142,depth_duration_stimuli/000137_2014-05-20_17-04-49_260595134347_rgbf000120-resize_1/000137_2014-05-20_17-04-49_260595134347_rgbf000120-resize_1-target.png,125,3.786,1,2049,131,meters,jsons/VE125_randls_8_rotated.json,823303,1494069,30,Man
142,401046,DepthScenes,duration_manipulation_targetAtFixation,jsons/VE125_randls_8_rotated.json,http://54.235.29.9/FacialAge/BNav_EC2/DepthDuration/v2_depth_duration_MTurk/v2_DepthDuration_HTML.html#75,75,1024,657,1024,768,8-21-2022,6-45-11,143,depth_duration_stimuli/000736_2014-06-08_18-24-15_260595134347_rgbf000206-resize_3/000736_2014-06-08_18-24-15_260595134347_rgbf000206-resize_3-target.png,125,3.515,1,1954,142,meters,jsons/VE125_randls_8_rotated.json,823303,1494069,30,Man
143,401046,DepthScenes,duration_manipulation_targetAtFixation,jsons/VE125_randls_8_rotated.json,http://54.235.29.9/FacialAge/BNav_EC2/DepthDuration/v2_depth_duration_MTurk/v2_DepthDuration_HTML.html#75,75,1024,657,1024,768,8-21-2022,6-45-11,144,depth_duration_stimuli/001032_2014-06-08_13-23-17_260595134347_rgbf000021-resize_3/001032_2014-06-08_13-23-17_260595134347_rgbf000021-resize_3-target.png,125,3.2725,1,3316,189,meters,jsons/VE125_randls_8_rotated.json,823303,1494069,30,Man
144,401046,DepthScenes,duration_manipulation_targetAtFixation,jsons/VE125_randls_8_rotated.json,http://54.235.29.9/FacialAge/BNav_EC2/DepthDuration/v2_depth_duration_MTurk/v2_DepthDuration_HTML.html#75,75,1024,657,1024,768,8-21-2022,6-45-11,145,depth_duration_stimuli/001059_2014-06-08_21-53-27_260595134347_rgbf000061-resize_4/001059_2014-06-08_21-53-27_260595134347_rgbf000061-resize_4-target.png,125,2.4185,1,2301,192,meters,jsons/VE125_randls_8_rotated.json,823303,1494069,30,Man
145,401046,DepthScenes,duration_manipulation_targetAtFixation,jsons/VE125_randls_8_rotated.json,http://54.235.29.9/FacialAge/BNav_EC2/DepthDuration/v2_depth_duration_MTurk/v2_DepthDuration_HTML.html#75,75,1024,657,1024,768,8-21-2022,6-45-11,146,depth_duration_stimuli/001132_2014-06-17_14-48-54_260595134347_rgbf000100-resize_2/001132_2014-06-17_14-48-54_260595134347_rgbf000100-resize_2-target.png,125,3.753,1,2058,123,meters,jsons/VE125_randls_8_rotated.json,823303,1494069,30,Man
146,401046,DepthScenes,duration_manipulation_targetAtFixation,jsons/VE125_randls_8_rotated.json,http://54.235.29.9/FacialAge/BNav_EC2/DepthDuration/v2_depth_duration_MTurk/v2_DepthDuration_HTML.html#75,75,1024,657,1024,768,8-21-2022,6-45-11,147,depth_duration_stimuli/001133_2014-06-17_14-49-16_260595134347_rgbf000100-resize_0/001133_2014-06-17_14-49-16_260595134347_rgbf000100-resize_0-target.png,125,4.2115,1,1944,62,meters,jsons/VE125_randls_8_rotated.json,823303,1494069,30,Man
147,401046,DepthScenes,duration_manipulation_targetAtFixation,jsons/VE125_randls_8_rotated.json,http://54.235.29.9/FacialAge/BNav_EC2/DepthDuration/v2_depth_duration_MTurk/v2_DepthDuration_HTML.html#75,75,1024,657,1024,768,8-21-2022,6-45-11,148,depth_duration_stimuli/002758_2014-06-22_19-11-20_094959634447_rgbf000128-resize_1/002758_2014-06-22_19-11-20_094959634447_rgbf000128-resize_1-target.png,125,2.555,1,2435,125,meters,jsons/VE125_randls_8_rotated.json,823303,1494069,30,Man
148,401046,DepthScenes,duration_manipulation_targetAtFixation,jsons/VE125_randls_8_rotated.json,http://54.235.29.9/FacialAge/BNav_EC2/DepthDuration/v2_depth_duration_MTurk/v2_DepthDuration_HTML.html#75,75,1024,657,1024,768,8-21-2022,6-45-11,149,depth_duration_stimuli/002630_2014-06-24_14-47-50_094959634447_rgbf000055-resize_1/002630_2014-06-24_14-47-50_094959634447_rgbf000055-resize_1-target.png,125,3.0095,1,2594,111,meters,jsons/VE125_randls_8_rotated.json,823303,1494069,30,Man
149,401046,DepthScenes,duration_manipulation_targetAtFixation,jsons/VE125_randls_8_rotated.json,http://54.235.29.9/FacialAge/BNav_EC2/DepthDuration/v2_depth_duration_MTurk/v2_DepthDuration_HTML.html#75,75,1024,657,1024,768,8-21-2022,6-45-11,150,depth_duration_stimuli/001650_2014-06-20_12-09-00_260595134347_rgbf000087-resize_3/001650_2014-06-20_12-09-00_260595134347_rgbf000087-resize_3-target.png,125,1.9505,1,2208,92,meters,jsons/VE125_randls_8_rotated.json,823303,1494069,30,Man
150,401046,DepthScenes,duration_manipulation_targetAtFixation,jsons/VE125_randls_8_rotated.json,http://54.235.29.9/FacialAge/BNav_EC2/DepthDuration/v2_depth_duration_MTurk/v2_DepthDuration_HTML.html#75,75,1024,657,1024,768,8-21-2022,6-45-11,151,depth_duration_stimuli/000682_2014-06-08_23-14-58_260595134347_rgbf000041-resize_5/000682_2014-06-08_23-14-58_260595134347_rgbf000041-resize_5-target.png,125,2.7239999999999998,1,2291,125,meters,jsons/VE125_randls_8_rotated.json,823303,1494069,30,Man
151,401046,DepthScenes,duration_manipulation_targetAtFixation,jsons/VE125_randls_8_rotated.json,http://54.235.29.9/FacialAge/BNav_EC2/DepthDuration/v2_depth_duration_MTurk/v2_DepthDuration_HTML.html#75,75,1024,657,1024,768,8-21-2022,6-45-11,152,depth_duration_stimuli/000569_2014-06-09_22-51-47_260595134347_rgbf000141-resize_3/000569_2014-06-09_22-51-47_260595134347_rgbf000141-resize-original.jpg,125,4.512,1,2920,125,meters,jsons/VE125_randls_8_rotated.json,823303,1494069,30,Man
152,401046,DepthScenes,duration_manipulation_targetAtFixation,jsons/VE125_randls_8_rotated.json,http://54.235.29.9/FacialAge/BNav_EC2/DepthDuration/v2_depth_duration_MTurk/v2_DepthDuration_HTML.html#75,75,1024,657,1024,768,8-21-2022,6-45-11,153,depth_duration_stimuli/003010_2014-06-15_12-54-35_094959634447_rgbf000112-resize_0/003010_2014-06-15_12-54-35_094959634447_rgbf000112-resize_0-target.png,125,3.1185,1,2256,125,meters,jsons/VE125_randls_8_rotated.json,823303,1494069,30,Man
153,401046,DepthScenes,duration_manipulation_targetAtFixation,jsons/VE125_randls_8_rotated.json,http://54.235.29.9/FacialAge/BNav_EC2/DepthDuration/v2_depth_duration_MTurk/v2_DepthDuration_HTML.html#75,75,1024,657,1024,768,8-21-2022,6-45-11,154,depth_duration_stimuli/001810_2014-06-26_20-51-35_260595134347_rgbf000040-resize_3/001810_2014-06-26_20-51-35_260595134347_rgbf000040-resize_3-target.png,125,2.2525,1,2091,121,meters,jsons/VE125_randls_8_rotated.json,823303,1494069,30,Man
154,401046,DepthScenes,duration_manipulation_targetAtFixation,jsons/VE125_randls_8_rotated.json,http://54.235.29.9/FacialAge/BNav_EC2/DepthDuration/v2_depth_duration_MTurk/v2_DepthDuration_HTML.html#75,75,1024,657,1024,768,8-21-2022,6-45-11,155,depth_duration_stimuli/000483_2014-06-09_20-41-45_260595134347_rgbf000116-resize_4/000483_2014-06-09_20-41-45_260595134347_rgbf000116-resize_4-target.png,125,1.337,1,2596,126,meters,jsons/VE125_randls_8_rotated.json,823303,1494069,30,Man
155,401046,DepthScenes,duration_manipulation_targetAtFixation,jsons/VE125_randls_8_rotated.json,http://54.235.29.9/FacialAge/BNav_EC2/DepthDuration/v2_depth_duration_MTurk/v2_DepthDuration_HTML.html#75,75,1024,657,1024,768,8-21-2022,6-45-11,156,depth_duration_stimuli/000469_2014-06-09_19-42-10_260595134347_rgbf000081-resize_1/000469_2014-06-09_19-42-10_260595134347_rgbf000081-resize_1-target.png,125,1.652,1,2377,123,meters,jsons/VE125_randls_8_rotated.json,823303,1494069,30,Man
156,401046,DepthScenes,duration_manipulation_targetAtFixation,jsons/VE125_randls_8_rotated.json,http://54.235.29.9/FacialAge/BNav_EC2/DepthDuration/v2_depth_duration_MTurk/v2_DepthDuration_HTML.html#75,75,1024,657,1024,768,8-21-2022,6-45-11,157,depth_duration_stimuli/000943_2014-06-09_19-31-07_260595134347_rgbf000128-resize_1/000943_2014-06-09_19-31-07_260595134347_rgbf000128-resize_1-target.png,125,1.9765,1,1863,120,meters,jsons/VE125_randls_8_rotated.json,823303,1494069,30,Man
157,401046,DepthScenes,duration_manipulation_targetAtFixation,jsons/VE125_randls_8_rotated.json,http://54.235.29.9/FacialAge/BNav_EC2/DepthDuration/v2_depth_duration_MTurk/v2_DepthDuration_HTML.html#75,75,1024,657,1024,768,8-21-2022,6-45-11,158,depth_duration_stimuli/003070_2014-06-15_14-58-27_094959634447_rgbf000150-resize_3/003070_2014-06-15_14-58-27_094959634447_rgbf000150-resize_3-target.png,125,2.9415,1,1939,125,meters,jsons/VE125_randls_8_rotated.json,823303,1494069,30,Man
158,401046,DepthScenes,duration_manipulation_targetAtFixation,jsons/VE125_randls_8_rotated.json,http://54.235.29.9/FacialAge/BNav_EC2/DepthDuration/v2_depth_duration_MTurk/v2_DepthDuration_HTML.html#75,75,1024,657,1024,768,8-21-2022,6-45-11,159,depth_duration_stimuli/001214_2014-06-17_16-13-55_260595134347_rgbf000111-resize_0/001214_2014-06-17_16-13-55_260595134347_rgbf000111-resize_0-target.png,125,2.6505,1,2013,0,meters,jsons/VE125_randls_8_rotated.json,823303,1494069,30,Man
159,401046,DepthScenes,duration_manipulation_targetAtFixation,jsons/VE125_randls_8_rotated.json,http://54.235.29.9/FacialAge/BNav_EC2/DepthDuration/v2_depth_duration_MTurk/v2_DepthDuration_HTML.html#75,75,1024,657,1024,768,8-21-2022,6-45-11,160,depth_duration_stimuli/000810_2014-06-08_17-20-01_260595134347_rgbf000105-resize_0/000810_2014-06-08_17-20-01_260595134347_rgbf000105-resize_0-target.png,125,1.4865,1,1735,0,meters,jsons/VE125_randls_8_rotated.json,823303,1494069,30,Man
160,401046,DepthScenes,duration_manipulation_targetAtFixation,jsons/VE125_randls_8_rotated.json,http://54.235.29.9/FacialAge/BNav_EC2/DepthDuration/v2_depth_duration_MTurk/v2_DepthDuration_HTML.html#75,75,1024,657,1024,768,8-21-2022,6-45-11,161,depth_duration_stimuli/003490_2014-05-21_15-50-11_094959634447_rgbf000101-resize_3/003490_2014-05-21_15-50-11_094959634447_rgbf000101-resize_3-target.png,125,3.6445,1,1803,126,meters,jsons/VE125_randls_8_rotated.json,823303,1494069,30,Man
161,401046,DepthScenes,duration_manipulation_targetAtFixation,jsons/VE125_randls_8_rotated.json,http://54.235.29.9/FacialAge/BNav_EC2/DepthDuration/v2_depth_duration_MTurk/v2_DepthDuration_HTML.html#75,75,1024,657,1024,768,8-21-2022,6-45-11,162,depth_duration_stimuli/001175_2014-06-17_15-45-55_260595134347_rgbf000129-resize_4/001175_2014-06-17_15-45-55_260595134347_rgbf000129-resize_4-target.png,125,4.255,1,1954,124,meters,jsons/VE125_randls_8_rotated.json,823303,1494069,30,Man
162,401046,DepthScenes,duration_manipulation_targetAtFixation,jsons/VE125_randls_8_rotated.json,http://54.235.29.9/FacialAge/BNav_EC2/DepthDuration/v2_depth_duration_MTurk/v2_DepthDuration_HTML.html#75,75,1024,657,1024,768,8-21-2022,6-45-11,163,depth_duration_stimuli/001235_2014-06-17_16-37-36_260595134347_rgbf000084-resize_4/001235_2014-06-17_16-37-36_260595134347_rgbf000084-resize_4-target.png,125,3.6605,1,2591,130,meters,jsons/VE125_randls_8_rotated.json,823303,1494069,30,Man
163,401046,DepthScenes,duration_manipulation_targetAtFixation,jsons/VE125_randls_8_rotated.json,http://54.235.29.9/FacialAge/BNav_EC2/DepthDuration/v2_depth_duration_MTurk/v2_DepthDuration_HTML.html#75,75,1024,657,1024,768,8-21-2022,6-45-11,164,depth_duration_stimuli/000788_2014-06-08_22-34-36_260595134347_rgbf000131-resize_1/000788_2014-06-08_22-34-36_260595134347_rgbf000131-resize_1-target.png,125,3.359,0,16928,122,meters,jsons/VE125_randls_8_rotated.json,823303,1494069,30,Man
