,subjID,experimentName,versionName,sequenceName,url,selected_row,windowWidth,windowHeight,screenWidth,screenHeight,startDate,startTime,trial,stimulus,duration,actual_depth,depth_estimate,trial_RT,log_sceneDuration,unitSelection,seq_filepath,experimentTime,totalTime,age,gender
0,401821,DepthScenes,duration_manipulation_targetAtFixation,jsons/v1_VE250_randls_61.json,http://54.235.29.9/FacialAge/BNav_EC2/DepthDuration/v2_depth_duration_MTurk/v2_DepthDuration_HTML.html#381,381,1364,625,1364,768,9-3-2022,11-38-28,1,depth_duration_stimuli/000447_2014-06-08_16-15-46_260595134347_rgbf000130-resize_1/000447_2014-06-08_16-15-46_260595134347_rgbf000130-resize_1-target.png,250,4.479,3.0,5303,249,meters,jsons/v1_VE250_randls_61.json,853034,1199018,30,Man
1,401821,DepthScenes,duration_manipulation_targetAtFixation,jsons/v1_VE250_randls_61.json,http://54.235.29.9/FacialAge/BNav_EC2/DepthDuration/v2_depth_duration_MTurk/v2_DepthDuration_HTML.html#381,381,1364,625,1364,768,9-3-2022,11-38-28,2,depth_duration_stimuli/001447_2014-06-19_17-00-32_260595134347_rgbf000082-resize_5/001447_2014-06-19_17-00-32_260595134347_rgbf000082-resize_5-target.png,250,4.13775,0.0,3227,249,meters,jsons/v1_VE250_randls_61.json,853034,1199018,30,Man
2,401821,DepthScenes,duration_manipulation_targetAtFixation,jsons/v1_VE250_randls_61.json,http://54.235.29.9/FacialAge/BNav_EC2/DepthDuration/v2_depth_duration_MTurk/v2_DepthDuration_HTML.html#381,381,1364,625,1364,768,9-3-2022,11-38-28,3,depth_duration_stimuli/001244_2014-06-17_16-47-45_260595134347_rgbf000030-resize_4/001244_2014-06-17_16-47-45_260595134347_rgbf000030-resize_4-target.png,250,2.0425,2.0,4953,245,meters,jsons/v1_VE250_randls_61.json,853034,1199018,30,Man
3,401821,DepthScenes,duration_manipulation_targetAtFixation,jsons/v1_VE250_randls_61.json,http://54.235.29.9/FacialAge/BNav_EC2/DepthDuration/v2_depth_duration_MTurk/v2_DepthDuration_HTML.html#381,381,1364,625,1364,768,9-3-2022,11-38-28,4,depth_duration_stimuli/003495_2014-05-21_16-01-51_094959634447_rgbf000100-resize_3/003495_2014-05-21_16-01-51_094959634447_rgbf000100-resize_3-target.png,250,1.6255,0.0,3070,244,meters,jsons/v1_VE250_randls_61.json,853034,1199018,30,Man
4,401821,DepthScenes,duration_manipulation_targetAtFixation,jsons/v1_VE250_randls_61.json,http://54.235.29.9/FacialAge/BNav_EC2/DepthDuration/v2_depth_duration_MTurk/v2_DepthDuration_HTML.html#381,381,1364,625,1364,768,9-3-2022,11-38-28,5,depth_duration_stimuli/001066_2014-06-08_22-03-20_260595134347_rgbf000066-resize_4/001066_2014-06-08_22-03-20_260595134347_rgbf000066-resize_4-target.png,250,4.2330000000000005,4.0,6763,250,meters,jsons/v1_VE250_randls_61.json,853034,1199018,30,Man
5,401821,DepthScenes,duration_manipulation_targetAtFixation,jsons/v1_VE250_randls_61.json,http://54.235.29.9/FacialAge/BNav_EC2/DepthDuration/v2_depth_duration_MTurk/v2_DepthDuration_HTML.html#381,381,1364,625,1364,768,9-3-2022,11-38-28,6,depth_duration_stimuli/000742_2014-06-08_18-48-09_260595134347_rgbf000164-resize_4/000742_2014-06-08_18-48-09_260595134347_rgbf000164-resize_4-target.png,250,4.632,2.0,8319,248,meters,jsons/v1_VE250_randls_61.json,853034,1199018,30,Man
6,401821,DepthScenes,duration_manipulation_targetAtFixation,jsons/v1_VE250_randls_61.json,http://54.235.29.9/FacialAge/BNav_EC2/DepthDuration/v2_depth_duration_MTurk/v2_DepthDuration_HTML.html#381,381,1364,625,1364,768,9-3-2022,11-38-28,7,depth_duration_stimuli/002905_2014-06-03_18-04-43_094959634447_rgbf000151-resize_2/002905_2014-06-03_18-04-43_094959634447_rgbf000151-resize_2-target.png,250,2.0295,1.0,3318,250,meters,jsons/v1_VE250_randls_61.json,853034,1199018,30,Man
7,401821,DepthScenes,duration_manipulation_targetAtFixation,jsons/v1_VE250_randls_61.json,http://54.235.29.9/FacialAge/BNav_EC2/DepthDuration/v2_depth_duration_MTurk/v2_DepthDuration_HTML.html#381,381,1364,625,1364,768,9-3-2022,11-38-28,8,depth_duration_stimuli/003423_2014-05-21_10-23-26_094959634447_rgbf002665-resize_2/003423_2014-05-21_10-23-26_094959634447_rgbf002665-resize_2-target.png,250,3.2575,0.0,3286,250,meters,jsons/v1_VE250_randls_61.json,853034,1199018,30,Man
8,401821,DepthScenes,duration_manipulation_targetAtFixation,jsons/v1_VE250_randls_61.json,http://54.235.29.9/FacialAge/BNav_EC2/DepthDuration/v2_depth_duration_MTurk/v2_DepthDuration_HTML.html#381,381,1364,625,1364,768,9-3-2022,11-38-28,9,depth_duration_stimuli/000692_2014-06-08_13-09-42_260595134347_rgbf000199-resize_2/000692_2014-06-08_13-09-42_260595134347_rgbf000199-resize_2-target.png,250,3.661,3.0,4603,250,meters,jsons/v1_VE250_randls_61.json,853034,1199018,30,Man
9,401821,DepthScenes,duration_manipulation_targetAtFixation,jsons/v1_VE250_randls_61.json,http://54.235.29.9/FacialAge/BNav_EC2/DepthDuration/v2_depth_duration_MTurk/v2_DepthDuration_HTML.html#381,381,1364,625,1364,768,9-3-2022,11-38-28,10,depth_duration_stimuli/001094_2014-06-15_17-36-00_260595134347_rgbf000205-resize_0/001094_2014-06-15_17-36-00_260595134347_rgbf000205-resize_0-target.png,250,4.2175,0.0,3756,249,meters,jsons/v1_VE250_randls_61.json,853034,1199018,30,Man
10,401821,DepthScenes,duration_manipulation_targetAtFixation,jsons/v1_VE250_randls_61.json,http://54.235.29.9/FacialAge/BNav_EC2/DepthDuration/v2_depth_duration_MTurk/v2_DepthDuration_HTML.html#381,381,1364,625,1364,768,9-3-2022,11-38-28,11,depth_duration_stimuli/002600_2014-06-24_14-27-04_094959634447_rgbf000074-resize_2/002600_2014-06-24_14-27-04_094959634447_rgbf000074-resize_2-target.png,250,2.7575,2.0,4995,249,meters,jsons/v1_VE250_randls_61.json,853034,1199018,30,Man
11,401821,DepthScenes,duration_manipulation_targetAtFixation,jsons/v1_VE250_randls_61.json,http://54.235.29.9/FacialAge/BNav_EC2/DepthDuration/v2_depth_duration_MTurk/v2_DepthDuration_HTML.html#381,381,1364,625,1364,768,9-3-2022,11-38-28,12,depth_duration_stimuli/003228_2014-05-14_13-42-35_094959634447_rgbf000101-resize_1/003228_2014-05-14_13-42-35_094959634447_rgbf000101-resize_1-target.png,250,1.9680000000000002,2.0,3966,244,meters,jsons/v1_VE250_randls_61.json,853034,1199018,30,Man
12,401821,DepthScenes,duration_manipulation_targetAtFixation,jsons/v1_VE250_randls_61.json,http://54.235.29.9/FacialAge/BNav_EC2/DepthDuration/v2_depth_duration_MTurk/v2_DepthDuration_HTML.html#381,381,1364,625,1364,768,9-3-2022,11-38-28,13,depth_duration_stimuli/000569_2014-06-09_22-51-47_260595134347_rgbf000141-resize_3/000569_2014-06-09_22-51-47_260595134347_rgbf000141-resize-original.jpg,250,4.512,1.0,3011,250,meters,jsons/v1_VE250_randls_61.json,853034,1199018,30,Man
13,401821,DepthScenes,duration_manipulation_targetAtFixation,jsons/v1_VE250_randls_61.json,http://54.235.29.9/FacialAge/BNav_EC2/DepthDuration/v2_depth_duration_MTurk/v2_DepthDuration_HTML.html#381,381,1364,625,1364,768,9-3-2022,11-38-28,14,depth_duration_stimuli/001449_2014-06-19_17-01-27_260595134347_rgbf000116-resize_2/001449_2014-06-19_17-01-27_260595134347_rgbf000116-resize_2-target.png,250,3.452,2.0,2801,247,meters,jsons/v1_VE250_randls_61.json,853034,1199018,30,Man
14,401821,DepthScenes,duration_manipulation_targetAtFixation,jsons/v1_VE250_randls_61.json,http://54.235.29.9/FacialAge/BNav_EC2/DepthDuration/v2_depth_duration_MTurk/v2_DepthDuration_HTML.html#381,381,1364,625,1364,768,9-3-2022,11-38-28,15,depth_duration_stimuli/001450_2014-06-19_17-02-03_260595134347_rgbf000203-resize_4/001450_2014-06-19_17-02-03_260595134347_rgbf000203-resize_4-target.png,250,4.0106666666667,0.0,2826,250,meters,jsons/v1_VE250_randls_61.json,853034,1199018,30,Man
15,401821,DepthScenes,duration_manipulation_targetAtFixation,jsons/v1_VE250_randls_61.json,http://54.235.29.9/FacialAge/BNav_EC2/DepthDuration/v2_depth_duration_MTurk/v2_DepthDuration_HTML.html#381,381,1364,625,1364,768,9-3-2022,11-38-28,16,depth_duration_stimuli/002725_2014-06-22_11-47-51_094959634447_rgbf000070-resize_1/002725_2014-06-22_11-47-51_094959634447_rgbf000070-resize_1-target.png,250,2.195,2.0,4362,250,meters,jsons/v1_VE250_randls_61.json,853034,1199018,30,Man
16,401821,DepthScenes,duration_manipulation_targetAtFixation,jsons/v1_VE250_randls_61.json,http://54.235.29.9/FacialAge/BNav_EC2/DepthDuration/v2_depth_duration_MTurk/v2_DepthDuration_HTML.html#381,381,1364,625,1364,768,9-3-2022,11-38-28,17,depth_duration_stimuli/002344_2014-06-28_20-06-29_260595134347_rgbf000030-resize_1/002344_2014-06-28_20-06-29_260595134347_rgbf000030-resize_1-target.png,250,1.5795,1.0,6524,251,meters,jsons/v1_VE250_randls_61.json,853034,1199018,30,Man
17,401821,DepthScenes,duration_manipulation_targetAtFixation,jsons/v1_VE250_randls_61.json,http://54.235.29.9/FacialAge/BNav_EC2/DepthDuration/v2_depth_duration_MTurk/v2_DepthDuration_HTML.html#381,381,1364,625,1364,768,9-3-2022,11-38-28,18,depth_duration_stimuli/002213_2014-06-28_18-37-58_260595134347_rgbf000055-resize_1/002213_2014-06-28_18-37-58_260595134347_rgbf000055-resize_1-target.png,250,3.62,2.0,3708,250,meters,jsons/v1_VE250_randls_61.json,853034,1199018,30,Man
18,401821,DepthScenes,duration_manipulation_targetAtFixation,jsons/v1_VE250_randls_61.json,http://54.235.29.9/FacialAge/BNav_EC2/DepthDuration/v2_depth_duration_MTurk/v2_DepthDuration_HTML.html#381,381,1364,625,1364,768,9-3-2022,11-38-28,19,depth_duration_stimuli/000691_2014-06-08_13-08-50_260595134347_rgbf000132-resize_3/000691_2014-06-08_13-08-50_260595134347_rgbf000132-resize_3-target.png,250,4.1530000000000005,0.0,2714,250,meters,jsons/v1_VE250_randls_61.json,853034,1199018,30,Man
19,401821,DepthScenes,duration_manipulation_targetAtFixation,jsons/v1_VE250_randls_61.json,http://54.235.29.9/FacialAge/BNav_EC2/DepthDuration/v2_depth_duration_MTurk/v2_DepthDuration_HTML.html#381,381,1364,625,1364,768,9-3-2022,11-38-28,20,depth_duration_stimuli/000436_2014-06-09_22-25-11_260595134347_rgbf000137-resize_1/000436_2014-06-09_22-25-11_260595134347_rgbf000137-resize_1-target.png,250,4.0705,3.0,3340,248,meters,jsons/v1_VE250_randls_61.json,853034,1199018,30,Man
20,401821,DepthScenes,duration_manipulation_targetAtFixation,jsons/v1_VE250_randls_61.json,http://54.235.29.9/FacialAge/BNav_EC2/DepthDuration/v2_depth_duration_MTurk/v2_DepthDuration_HTML.html#381,381,1364,625,1364,768,9-3-2022,11-38-28,21,depth_duration_stimuli/002444_2014-06-28_20-32-08_260595134347_rgbf000027-resize_0/002444_2014-06-28_20-32-08_260595134347_rgbf000027-resize_0-target.png,250,4.388999999999999,3.0,2777,250,meters,jsons/v1_VE250_randls_61.json,853034,1199018,30,Man
21,401821,DepthScenes,duration_manipulation_targetAtFixation,jsons/v1_VE250_randls_61.json,http://54.235.29.9/FacialAge/BNav_EC2/DepthDuration/v2_depth_duration_MTurk/v2_DepthDuration_HTML.html#381,381,1364,625,1364,768,9-3-2022,11-38-28,22,depth_duration_stimuli/000758_2014-06-08_22-05-08_260595134347_rgbf000085-resize_0/000758_2014-06-08_22-05-08_260595134347_rgbf000085-resize_0-target.png,250,3.3810000000000002,3.0,11294,270,meters,jsons/v1_VE250_randls_61.json,853034,1199018,30,Man
22,401821,DepthScenes,duration_manipulation_targetAtFixation,jsons/v1_VE250_randls_61.json,http://54.235.29.9/FacialAge/BNav_EC2/DepthDuration/v2_depth_duration_MTurk/v2_DepthDuration_HTML.html#381,381,1364,625,1364,768,9-3-2022,11-38-28,23,depth_duration_stimuli/000854_2014-06-09_19-43-13_260595134347_rgbf000066-resize_0/000854_2014-06-09_19-43-13_260595134347_rgbf000066-resize_0-target.png,250,3.068,0.0,2834,249,meters,jsons/v1_VE250_randls_61.json,853034,1199018,30,Man
23,401821,DepthScenes,duration_manipulation_targetAtFixation,jsons/v1_VE250_randls_61.json,http://54.235.29.9/FacialAge/BNav_EC2/DepthDuration/v2_depth_duration_MTurk/v2_DepthDuration_HTML.html#381,381,1364,625,1364,768,9-3-2022,11-38-28,24,depth_duration_stimuli/001570_2014-06-20_17-21-09_260595134347_rgbf000135-resize_4/001570_2014-06-20_17-21-09_260595134347_rgbf000135-resize_4-target.png,250,4.467,2.0,4349,251,meters,jsons/v1_VE250_randls_61.json,853034,1199018,30,Man
24,401821,DepthScenes,duration_manipulation_targetAtFixation,jsons/v1_VE250_randls_61.json,http://54.235.29.9/FacialAge/BNav_EC2/DepthDuration/v2_depth_duration_MTurk/v2_DepthDuration_HTML.html#381,381,1364,625,1364,768,9-3-2022,11-38-28,25,depth_duration_stimuli/001392_2014-06-19_16-07-59_260595134347_rgbf000046-resize_1/001392_2014-06-19_16-07-59_260595134347_rgbf000046-resize_1-target.png,250,4.135,0.0,3995,250,meters,jsons/v1_VE250_randls_61.json,853034,1199018,30,Man
25,401821,DepthScenes,duration_manipulation_targetAtFixation,jsons/v1_VE250_randls_61.json,http://54.235.29.9/FacialAge/BNav_EC2/DepthDuration/v2_depth_duration_MTurk/v2_DepthDuration_HTML.html#381,381,1364,625,1364,768,9-3-2022,11-38-28,26,depth_duration_stimuli/000682_2014-06-08_23-14-58_260595134347_rgbf000041-resize_5/000682_2014-06-08_23-14-58_260595134347_rgbf000041-resize_5-target.png,250,2.7239999999999998,2.0,4103,245,meters,jsons/v1_VE250_randls_61.json,853034,1199018,30,Man
26,401821,DepthScenes,duration_manipulation_targetAtFixation,jsons/v1_VE250_randls_61.json,http://54.235.29.9/FacialAge/BNav_EC2/DepthDuration/v2_depth_duration_MTurk/v2_DepthDuration_HTML.html#381,381,1364,625,1364,768,9-3-2022,11-38-28,27,depth_duration_stimuli/001650_2014-06-20_12-09-00_260595134347_rgbf000087-resize_3/001650_2014-06-20_12-09-00_260595134347_rgbf000087-resize_3-target.png,250,1.9505,0.0,3627,250,meters,jsons/v1_VE250_randls_61.json,853034,1199018,30,Man
27,401821,DepthScenes,duration_manipulation_targetAtFixation,jsons/v1_VE250_randls_61.json,http://54.235.29.9/FacialAge/BNav_EC2/DepthDuration/v2_depth_duration_MTurk/v2_DepthDuration_HTML.html#381,381,1364,625,1364,768,9-3-2022,11-38-28,28,depth_duration_stimuli/001175_2014-06-17_15-45-55_260595134347_rgbf000129-resize_4/001175_2014-06-17_15-45-55_260595134347_rgbf000129-resize_4-target.png,250,4.255,0.0,7130,249,meters,jsons/v1_VE250_randls_61.json,853034,1199018,30,Man
28,401821,DepthScenes,duration_manipulation_targetAtFixation,jsons/v1_VE250_randls_61.json,http://54.235.29.9/FacialAge/BNav_EC2/DepthDuration/v2_depth_duration_MTurk/v2_DepthDuration_HTML.html#381,381,1364,625,1364,768,9-3-2022,11-38-28,29,depth_duration_stimuli/003490_2014-05-21_15-50-11_094959634447_rgbf000101-resize_3/003490_2014-05-21_15-50-11_094959634447_rgbf000101-resize_3-target.png,250,3.6445,0.0,3508,250,meters,jsons/v1_VE250_randls_61.json,853034,1199018,30,Man
29,401821,DepthScenes,duration_manipulation_targetAtFixation,jsons/v1_VE250_randls_61.json,http://54.235.29.9/FacialAge/BNav_EC2/DepthDuration/v2_depth_duration_MTurk/v2_DepthDuration_HTML.html#381,381,1364,625,1364,768,9-3-2022,11-38-28,30,depth_duration_stimuli/000375_2014-06-08_11-17-29_260595134347_rgbf000133-resize_2/000375_2014-06-08_11-17-29_260595134347_rgbf000133-resize-original.jpg,250,4.718,0.0,9958,251,meters,jsons/v1_VE250_randls_61.json,853034,1199018,30,Man
30,401821,DepthScenes,duration_manipulation_targetAtFixation,jsons/v1_VE250_randls_61.json,http://54.235.29.9/FacialAge/BNav_EC2/DepthDuration/v2_depth_duration_MTurk/v2_DepthDuration_HTML.html#381,381,1364,625,1364,768,9-3-2022,11-38-28,31,depth_duration_stimuli/001011_2014-06-08_23-18-54_260595134347_rgbf000044-resize_4/001011_2014-06-08_23-18-54_260595134347_rgbf000044-resize_4-target.png,250,2.4730000000000003,2.0,6267,248,meters,jsons/v1_VE250_randls_61.json,853034,1199018,30,Man
31,401821,DepthScenes,duration_manipulation_targetAtFixation,jsons/v1_VE250_randls_61.json,http://54.235.29.9/FacialAge/BNav_EC2/DepthDuration/v2_depth_duration_MTurk/v2_DepthDuration_HTML.html#381,381,1364,625,1364,768,9-3-2022,11-38-28,32,depth_duration_stimuli/002875_2014-06-01_15-19-00_094959634447_rgbf000151-resize_1/002875_2014-06-01_15-19-00_094959634447_rgbf000151-resize_1-target.png,250,1.9675,0.0,2522,250,meters,jsons/v1_VE250_randls_61.json,853034,1199018,30,Man
32,401821,DepthScenes,duration_manipulation_targetAtFixation,jsons/v1_VE250_randls_61.json,http://54.235.29.9/FacialAge/BNav_EC2/DepthDuration/v2_depth_duration_MTurk/v2_DepthDuration_HTML.html#381,381,1364,625,1364,768,9-3-2022,11-38-28,33,depth_duration_stimuli/002988_2014-06-15_12-24-20_094959634447_rgbf000150-resize_1/002988_2014-06-15_12-24-20_094959634447_rgbf000150-resize_1-target.png,250,4.7669999999999995,3.0,3523,249,meters,jsons/v1_VE250_randls_61.json,853034,1199018,30,Man
33,401821,DepthScenes,duration_manipulation_targetAtFixation,jsons/v1_VE250_randls_61.json,http://54.235.29.9/FacialAge/BNav_EC2/DepthDuration/v2_depth_duration_MTurk/v2_DepthDuration_HTML.html#381,381,1364,625,1364,768,9-3-2022,11-38-28,34,depth_duration_stimuli/001052_2014-06-08_18-24-54_260595134347_rgbf000130-resize_1/001052_2014-06-08_18-24-54_260595134347_rgbf000130-resize_1-target.png,250,4.1045,3.0,9146,257,meters,jsons/v1_VE250_randls_61.json,853034,1199018,30,Man
34,401821,DepthScenes,duration_manipulation_targetAtFixation,jsons/v1_VE250_randls_61.json,http://54.235.29.9/FacialAge/BNav_EC2/DepthDuration/v2_depth_duration_MTurk/v2_DepthDuration_HTML.html#381,381,1364,625,1364,768,9-3-2022,11-38-28,35,depth_duration_stimuli/002549_2014-06-24_13-41-39_094959634447_rgbf000022-resize_3/002549_2014-06-24_13-41-39_094959634447_rgbf000022-resize_3-target.png,250,1.476,2.0,4773,250,meters,jsons/v1_VE250_randls_61.json,853034,1199018,30,Man
35,401821,DepthScenes,duration_manipulation_targetAtFixation,jsons/v1_VE250_randls_61.json,http://54.235.29.9/FacialAge/BNav_EC2/DepthDuration/v2_depth_duration_MTurk/v2_DepthDuration_HTML.html#381,381,1364,625,1364,768,9-3-2022,11-38-28,36,depth_duration_stimuli/002750_2014-06-22_19-08-03_094959634447_rgbf000094-resize_4/002750_2014-06-22_19-08-03_094959634447_rgbf000094-resize_4-target.png,250,2.354,0.0,5251,251,meters,jsons/v1_VE250_randls_61.json,853034,1199018,30,Man
36,401821,DepthScenes,duration_manipulation_targetAtFixation,jsons/v1_VE250_randls_61.json,http://54.235.29.9/FacialAge/BNav_EC2/DepthDuration/v2_depth_duration_MTurk/v2_DepthDuration_HTML.html#381,381,1364,625,1364,768,9-3-2022,11-38-28,37,depth_duration_stimuli/002118_2014-06-25_20-32-08_260595134347_rgbf000078-resize_1/002118_2014-06-25_20-32-08_260595134347_rgbf000078-resize_1-target.png,250,2.6460000000000004,2.0,4044,249,meters,jsons/v1_VE250_randls_61.json,853034,1199018,30,Man
37,401821,DepthScenes,duration_manipulation_targetAtFixation,jsons/v1_VE250_randls_61.json,http://54.235.29.9/FacialAge/BNav_EC2/DepthDuration/v2_depth_duration_MTurk/v2_DepthDuration_HTML.html#381,381,1364,625,1364,768,9-3-2022,11-38-28,38,depth_duration_stimuli/001516_2014-06-20_16-25-09_260595134347_rgbf000076-resize_2/001516_2014-06-20_16-25-09_260595134347_rgbf000076-resize_2-target.png,250,1.7445,2.0,2951,250,meters,jsons/v1_VE250_randls_61.json,853034,1199018,30,Man
38,401821,DepthScenes,duration_manipulation_targetAtFixation,jsons/v1_VE250_randls_61.json,http://54.235.29.9/FacialAge/BNav_EC2/DepthDuration/v2_depth_duration_MTurk/v2_DepthDuration_HTML.html#381,381,1364,625,1364,768,9-3-2022,11-38-28,39,depth_duration_stimuli/002788_2014-06-22_19-36-03_094959634447_rgbf000088-resize_2/002788_2014-06-22_19-36-03_094959634447_rgbf000088-resize_2-target.png,250,1.6465,3.0,5274,250,meters,jsons/v1_VE250_randls_61.json,853034,1199018,30,Man
39,401821,DepthScenes,duration_manipulation_targetAtFixation,jsons/v1_VE250_randls_61.json,http://54.235.29.9/FacialAge/BNav_EC2/DepthDuration/v2_depth_duration_MTurk/v2_DepthDuration_HTML.html#381,381,1364,625,1364,768,9-3-2022,11-38-28,40,depth_duration_stimuli/000749_2014-06-08_21-55-06_260595134347_rgbf000070-resize_2/000749_2014-06-08_21-55-06_260595134347_rgbf000070-resize_2-target.png,250,2.331,0.0,2507,248,meters,jsons/v1_VE250_randls_61.json,853034,1199018,30,Man
40,401821,DepthScenes,duration_manipulation_targetAtFixation,jsons/v1_VE250_randls_61.json,http://54.235.29.9/FacialAge/BNav_EC2/DepthDuration/v2_depth_duration_MTurk/v2_DepthDuration_HTML.html#381,381,1364,625,1364,768,9-3-2022,11-38-28,41,depth_duration_stimuli/002445_2014-06-28_20-32-16_260595134347_rgbf000029-resize_4/002445_2014-06-28_20-32-16_260595134347_rgbf000029-resize_4-target.png,250,2.5315,2.0,2972,251,meters,jsons/v1_VE250_randls_61.json,853034,1199018,30,Man
41,401821,DepthScenes,duration_manipulation_targetAtFixation,jsons/v1_VE250_randls_61.json,http://54.235.29.9/FacialAge/BNav_EC2/DepthDuration/v2_depth_duration_MTurk/v2_DepthDuration_HTML.html#381,381,1364,625,1364,768,9-3-2022,11-38-28,42,depth_duration_stimuli/000780_2014-06-08_22-28-29_260595134347_rgbf000126-resize_1/000780_2014-06-08_22-28-29_260595134347_rgbf000126-resize_1-target.png,250,3.3825,0.0,3067,250,meters,jsons/v1_VE250_randls_61.json,853034,1199018,30,Man
42,401821,DepthScenes,duration_manipulation_targetAtFixation,jsons/v1_VE250_randls_61.json,http://54.235.29.9/FacialAge/BNav_EC2/DepthDuration/v2_depth_duration_MTurk/v2_DepthDuration_HTML.html#381,381,1364,625,1364,768,9-3-2022,11-38-28,43,depth_duration_stimuli/001055_2014-06-08_18-45-35_260595134347_rgbf000111-resize_4/001055_2014-06-08_18-45-35_260595134347_rgbf000111-resize_4-target.png,250,2.4290000000000003,0.0,4225,249,meters,jsons/v1_VE250_randls_61.json,853034,1199018,30,Man
43,401821,DepthScenes,duration_manipulation_targetAtFixation,jsons/v1_VE250_randls_61.json,http://54.235.29.9/FacialAge/BNav_EC2/DepthDuration/v2_depth_duration_MTurk/v2_DepthDuration_HTML.html#381,381,1364,625,1364,768,9-3-2022,11-38-28,44,depth_duration_stimuli/000549_2014-06-08_22-10-24_260595134347_rgbf000247-resize_3/000549_2014-06-08_22-10-24_260595134347_rgbf000247-resize_3-target.png,250,1.841,1.0,3198,249,meters,jsons/v1_VE250_randls_61.json,853034,1199018,30,Man
44,401821,DepthScenes,duration_manipulation_targetAtFixation,jsons/v1_VE250_randls_61.json,http://54.235.29.9/FacialAge/BNav_EC2/DepthDuration/v2_depth_duration_MTurk/v2_DepthDuration_HTML.html#381,381,1364,625,1364,768,9-3-2022,11-38-28,45,depth_duration_stimuli/000787_2014-06-08_22-33-53_260595134347_rgbf000175-resize_1/000787_2014-06-08_22-33-53_260595134347_rgbf000175-resize-original.jpg,250,4.784,3.0,3961,250,meters,jsons/v1_VE250_randls_61.json,853034,1199018,30,Man
45,401821,DepthScenes,duration_manipulation_targetAtFixation,jsons/v1_VE250_randls_61.json,http://54.235.29.9/FacialAge/BNav_EC2/DepthDuration/v2_depth_duration_MTurk/v2_DepthDuration_HTML.html#381,381,1364,625,1364,768,9-3-2022,11-38-28,46,depth_duration_stimuli/002570_2014-06-24_13-59-54_094959634447_rgbf000059-resize_0/002570_2014-06-24_13-59-54_094959634447_rgbf000059-resize_0-target.png,250,4.037,2.0,4650,249,meters,jsons/v1_VE250_randls_61.json,853034,1199018,30,Man
46,401821,DepthScenes,duration_manipulation_targetAtFixation,jsons/v1_VE250_randls_61.json,http://54.235.29.9/FacialAge/BNav_EC2/DepthDuration/v2_depth_duration_MTurk/v2_DepthDuration_HTML.html#381,381,1364,625,1364,768,9-3-2022,11-38-28,47,depth_duration_stimuli/002467_2014-06-28_20-38-07_260595134347_rgbf000026-resize_2/002467_2014-06-28_20-38-07_260595134347_rgbf000026-resize_2-target.png,250,4.742,0.0,2668,244,meters,jsons/v1_VE250_randls_61.json,853034,1199018,30,Man
47,401821,DepthScenes,duration_manipulation_targetAtFixation,jsons/v1_VE250_randls_61.json,http://54.235.29.9/FacialAge/BNav_EC2/DepthDuration/v2_depth_duration_MTurk/v2_DepthDuration_HTML.html#381,381,1364,625,1364,768,9-3-2022,11-38-28,48,depth_duration_stimuli/003534_2014-05-22_15-06-10_094959634447_rgbf000102-resize_4/003534_2014-05-22_15-06-10_094959634447_rgbf000102-resize_4-target.png,250,1.426,1.0,2820,248,meters,jsons/v1_VE250_randls_61.json,853034,1199018,30,Man
48,401821,DepthScenes,duration_manipulation_targetAtFixation,jsons/v1_VE250_randls_61.json,http://54.235.29.9/FacialAge/BNav_EC2/DepthDuration/v2_depth_duration_MTurk/v2_DepthDuration_HTML.html#381,381,1364,625,1364,768,9-3-2022,11-38-28,49,depth_duration_stimuli/002637_2014-06-24_14-51-13_094959634447_rgbf000066-resize_4/002637_2014-06-24_14-51-13_094959634447_rgbf000066-resize_4-target.png,250,1.9955,0.0,2275,250,meters,jsons/v1_VE250_randls_61.json,853034,1199018,30,Man
49,401821,DepthScenes,duration_manipulation_targetAtFixation,jsons/v1_VE250_randls_61.json,http://54.235.29.9/FacialAge/BNav_EC2/DepthDuration/v2_depth_duration_MTurk/v2_DepthDuration_HTML.html#381,381,1364,625,1364,768,9-3-2022,11-38-28,50,depth_duration_stimuli/000486_2014-06-09_20-47-20_260595134347_rgbf000143-resize_2/000486_2014-06-09_20-47-20_260595134347_rgbf000143-resize_2-target.png,250,4.8325,2.0,4603,249,meters,jsons/v1_VE250_randls_61.json,853034,1199018,30,Man
50,401821,DepthScenes,duration_manipulation_targetAtFixation,jsons/v1_VE250_randls_61.json,http://54.235.29.9/FacialAge/BNav_EC2/DepthDuration/v2_depth_duration_MTurk/v2_DepthDuration_HTML.html#381,381,1364,625,1364,768,9-3-2022,11-38-28,51,depth_duration_stimuli/003083_2014-06-15_15-21-03_094959634447_rgbf000063-resize_1/003083_2014-06-15_15-21-03_094959634447_rgbf000063-resize_1-target.png,250,4.1405,2.0,2290,249,meters,jsons/v1_VE250_randls_61.json,853034,1199018,30,Man
51,401821,DepthScenes,duration_manipulation_targetAtFixation,jsons/v1_VE250_randls_61.json,http://54.235.29.9/FacialAge/BNav_EC2/DepthDuration/v2_depth_duration_MTurk/v2_DepthDuration_HTML.html#381,381,1364,625,1364,768,9-3-2022,11-38-28,52,depth_duration_stimuli/000773_2014-06-08_22-24-54_260595134347_rgbf000093-resize_1/000773_2014-06-08_22-24-54_260595134347_rgbf000093-resize_1-target.png,250,4.973,3.0,3377,249,meters,jsons/v1_VE250_randls_61.json,853034,1199018,30,Man
52,401821,DepthScenes,duration_manipulation_targetAtFixation,jsons/v1_VE250_randls_61.json,http://54.235.29.9/FacialAge/BNav_EC2/DepthDuration/v2_depth_duration_MTurk/v2_DepthDuration_HTML.html#381,381,1364,625,1364,768,9-3-2022,11-38-28,53,depth_duration_stimuli/002414_2014-06-28_20-24-58_260595134347_rgbf000067-resize_4/002414_2014-06-28_20-24-58_260595134347_rgbf000067-resize_4-target.png,250,4.363,0.0,5208,251,meters,jsons/v1_VE250_randls_61.json,853034,1199018,30,Man
53,401821,DepthScenes,duration_manipulation_targetAtFixation,jsons/v1_VE250_randls_61.json,http://54.235.29.9/FacialAge/BNav_EC2/DepthDuration/v2_depth_duration_MTurk/v2_DepthDuration_HTML.html#381,381,1364,625,1364,768,9-3-2022,11-38-28,54,depth_duration_stimuli/000506_2014-06-08_23-21-00_260595134347_rgbf000070-resize_7/000506_2014-06-08_23-21-00_260595134347_rgbf000070-resize_7-target.png,250,4.0585,2.0,10824,249,meters,jsons/v1_VE250_randls_61.json,853034,1199018,30,Man
54,401821,DepthScenes,duration_manipulation_targetAtFixation,jsons/v1_VE250_randls_61.json,http://54.235.29.9/FacialAge/BNav_EC2/DepthDuration/v2_depth_duration_MTurk/v2_DepthDuration_HTML.html#381,381,1364,625,1364,768,9-3-2022,11-38-28,55,depth_duration_stimuli/003079_2014-06-15_15-18-20_094959634447_rgbf000152-resize_8/003079_2014-06-15_15-18-20_094959634447_rgbf000152-resize_8-target.png,250,2.8775,0.0,2538,250,meters,jsons/v1_VE250_randls_61.json,853034,1199018,30,Man
55,401821,DepthScenes,duration_manipulation_targetAtFixation,jsons/v1_VE250_randls_61.json,http://54.235.29.9/FacialAge/BNav_EC2/DepthDuration/v2_depth_duration_MTurk/v2_DepthDuration_HTML.html#381,381,1364,625,1364,768,9-3-2022,11-38-28,56,depth_duration_stimuli/000642_2014-06-08_16-59-25_260595134347_rgbf000098-resize_2/000642_2014-06-08_16-59-25_260595134347_rgbf000098-resize_2-target.png,250,2.8815,2.0,2390,247,meters,jsons/v1_VE250_randls_61.json,853034,1199018,30,Man
56,401821,DepthScenes,duration_manipulation_targetAtFixation,jsons/v1_VE250_randls_61.json,http://54.235.29.9/FacialAge/BNav_EC2/DepthDuration/v2_depth_duration_MTurk/v2_DepthDuration_HTML.html#381,381,1364,625,1364,768,9-3-2022,11-38-28,57,depth_duration_stimuli/002425_2014-06-28_20-27-29_260595134347_rgbf000031-resize_8/002425_2014-06-28_20-27-29_260595134347_rgbf000031-resize_8-target.png,250,3.8960000000000004,0.0,2442,247,meters,jsons/v1_VE250_randls_61.json,853034,1199018,30,Man
57,401821,DepthScenes,duration_manipulation_targetAtFixation,jsons/v1_VE250_randls_61.json,http://54.235.29.9/FacialAge/BNav_EC2/DepthDuration/v2_depth_duration_MTurk/v2_DepthDuration_HTML.html#381,381,1364,625,1364,768,9-3-2022,11-38-28,58,depth_duration_stimuli/001110_2014-06-15_17-25-28_260595134347_rgbf000150-resize_1/001110_2014-06-15_17-25-28_260595134347_rgbf000150-resize_1-target.png,250,1.7115,2.0,2449,249,meters,jsons/v1_VE250_randls_61.json,853034,1199018,30,Man
58,401821,DepthScenes,duration_manipulation_targetAtFixation,jsons/v1_VE250_randls_61.json,http://54.235.29.9/FacialAge/BNav_EC2/DepthDuration/v2_depth_duration_MTurk/v2_DepthDuration_HTML.html#381,381,1364,625,1364,768,9-3-2022,11-38-28,59,depth_duration_stimuli/000927_2014-06-09_16-32-30_260595134347_rgbf000123-resize_3/000927_2014-06-09_16-32-30_260595134347_rgbf000123-resize_3-target.png,250,2.6785,2.0,3054,250,meters,jsons/v1_VE250_randls_61.json,853034,1199018,30,Man
59,401821,DepthScenes,duration_manipulation_targetAtFixation,jsons/v1_VE250_randls_61.json,http://54.235.29.9/FacialAge/BNav_EC2/DepthDuration/v2_depth_duration_MTurk/v2_DepthDuration_HTML.html#381,381,1364,625,1364,768,9-3-2022,11-38-28,60,depth_duration_stimuli/001056_2014-06-08_18-46-44_260595134347_rgbf000068-resize_0/001056_2014-06-08_18-46-44_260595134347_rgbf000068-resize_0-target.png,250,2.6625,3.0,2920,250,meters,jsons/v1_VE250_randls_61.json,853034,1199018,30,Man
60,401821,DepthScenes,duration_manipulation_targetAtFixation,jsons/v1_VE250_randls_61.json,http://54.235.29.9/FacialAge/BNav_EC2/DepthDuration/v2_depth_duration_MTurk/v2_DepthDuration_HTML.html#381,381,1364,625,1364,768,9-3-2022,11-38-28,61,depth_duration_stimuli/002199_2014-06-28_18-33-56_260595134347_rgbf000074-resize_0/002199_2014-06-28_18-33-56_260595134347_rgbf000074-resize_0-target.png,250,1.996,2.0,2350,243,meters,jsons/v1_VE250_randls_61.json,853034,1199018,30,Man
61,401821,DepthScenes,duration_manipulation_targetAtFixation,jsons/v1_VE250_randls_61.json,http://54.235.29.9/FacialAge/BNav_EC2/DepthDuration/v2_depth_duration_MTurk/v2_DepthDuration_HTML.html#381,381,1364,625,1364,768,9-3-2022,11-38-28,62,depth_duration_stimuli/002057_2014-06-24_21-00-13_260595134347_rgbf000120-resize_1/002057_2014-06-24_21-00-13_260595134347_rgbf000120-resize_1-target.png,250,2.967,0.0,7115,249,meters,jsons/v1_VE250_randls_61.json,853034,1199018,30,Man
62,401821,DepthScenes,duration_manipulation_targetAtFixation,jsons/v1_VE250_randls_61.json,http://54.235.29.9/FacialAge/BNav_EC2/DepthDuration/v2_depth_duration_MTurk/v2_DepthDuration_HTML.html#381,381,1364,625,1364,768,9-3-2022,11-38-28,63,depth_duration_stimuli/000709_2014-06-08_13-51-55_260595134347_rgbf000068-resize_3/000709_2014-06-08_13-51-55_260595134347_rgbf000068-resize_3-target.png,250,1.8030000000000002,0.0,2537,249,meters,jsons/v1_VE250_randls_61.json,853034,1199018,30,Man
63,401821,DepthScenes,duration_manipulation_targetAtFixation,jsons/v1_VE250_randls_61.json,http://54.235.29.9/FacialAge/BNav_EC2/DepthDuration/v2_depth_duration_MTurk/v2_DepthDuration_HTML.html#381,381,1364,625,1364,768,9-3-2022,11-38-28,64,depth_duration_stimuli/002784_2014-06-22_19-26-30_094959634447_rgbf000083-resize_3/002784_2014-06-22_19-26-30_094959634447_rgbf000083-resize_3-target.png,250,1.8046666666667,3.0,6963,250,meters,jsons/v1_VE250_randls_61.json,853034,1199018,30,Man
64,401821,DepthScenes,duration_manipulation_targetAtFixation,jsons/v1_VE250_randls_61.json,http://54.235.29.9/FacialAge/BNav_EC2/DepthDuration/v2_depth_duration_MTurk/v2_DepthDuration_HTML.html#381,381,1364,625,1364,768,9-3-2022,11-38-28,65,depth_duration_stimuli/001100_2014-06-15_17-46-26_260595134347_rgbf000225-resize_2/001100_2014-06-15_17-46-26_260595134347_rgbf000225-resize_2-target.png,250,2.24,0.0,4670,248,meters,jsons/v1_VE250_randls_61.json,853034,1199018,30,Man
65,401821,DepthScenes,duration_manipulation_targetAtFixation,jsons/v1_VE250_randls_61.json,http://54.235.29.9/FacialAge/BNav_EC2/DepthDuration/v2_depth_duration_MTurk/v2_DepthDuration_HTML.html#381,381,1364,625,1364,768,9-3-2022,11-38-28,66,depth_duration_stimuli/001222_2014-06-17_16-24-06_260595134347_rgbf000073-resize_0/001222_2014-06-17_16-24-06_260595134347_rgbf000073-resize-original.jpg,250,1.4385,0.0,6013,250,meters,jsons/v1_VE250_randls_61.json,853034,1199018,30,Man
66,401821,DepthScenes,duration_manipulation_targetAtFixation,jsons/v1_VE250_randls_61.json,http://54.235.29.9/FacialAge/BNav_EC2/DepthDuration/v2_depth_duration_MTurk/v2_DepthDuration_HTML.html#381,381,1364,625,1364,768,9-3-2022,11-38-28,67,depth_duration_stimuli/002630_2014-06-24_14-47-50_094959634447_rgbf000055-resize_1/002630_2014-06-24_14-47-50_094959634447_rgbf000055-resize_1-target.png,250,3.0095,0.0,5245,249,meters,jsons/v1_VE250_randls_61.json,853034,1199018,30,Man
67,401821,DepthScenes,duration_manipulation_targetAtFixation,jsons/v1_VE250_randls_61.json,http://54.235.29.9/FacialAge/BNav_EC2/DepthDuration/v2_depth_duration_MTurk/v2_DepthDuration_HTML.html#381,381,1364,625,1364,768,9-3-2022,11-38-28,68,depth_duration_stimuli/002758_2014-06-22_19-11-20_094959634447_rgbf000128-resize_1/002758_2014-06-22_19-11-20_094959634447_rgbf000128-resize_1-target.png,250,2.555,0.0,2555,250,meters,jsons/v1_VE250_randls_61.json,853034,1199018,30,Man
68,401821,DepthScenes,duration_manipulation_targetAtFixation,jsons/v1_VE250_randls_61.json,http://54.235.29.9/FacialAge/BNav_EC2/DepthDuration/v2_depth_duration_MTurk/v2_DepthDuration_HTML.html#381,381,1364,625,1364,768,9-3-2022,11-38-28,69,depth_duration_stimuli/002375_2014-06-28_20-13-44_260595134347_rgbf000032-resize_1/002375_2014-06-28_20-13-44_260595134347_rgbf000032-resize_1-target.png,250,4.0175,23.0,4725,250,meters,jsons/v1_VE250_randls_61.json,853034,1199018,30,Man
69,401821,DepthScenes,duration_manipulation_targetAtFixation,jsons/v1_VE250_randls_61.json,http://54.235.29.9/FacialAge/BNav_EC2/DepthDuration/v2_depth_duration_MTurk/v2_DepthDuration_HTML.html#381,381,1364,625,1364,768,9-3-2022,11-38-28,70,depth_duration_stimuli/002657_2014-06-13_15-29-54_094959634447_rgbf000150-resize_1/002657_2014-06-13_15-29-54_094959634447_rgbf000150-resize_1-target.png,250,4.919,0.0,7961,252,meters,jsons/v1_VE250_randls_61.json,853034,1199018,30,Man
70,401821,DepthScenes,duration_manipulation_targetAtFixation,jsons/v1_VE250_randls_61.json,http://54.235.29.9/FacialAge/BNav_EC2/DepthDuration/v2_depth_duration_MTurk/v2_DepthDuration_HTML.html#381,381,1364,625,1364,768,9-3-2022,11-38-28,71,depth_duration_stimuli/003492_2014-05-21_15-50-55_094959634447_rgbf000828-resize_1/003492_2014-05-21_15-50-55_094959634447_rgbf000828-resize_1-target.png,250,4.06875,3.0,5707,249,meters,jsons/v1_VE250_randls_61.json,853034,1199018,30,Man
71,401821,DepthScenes,duration_manipulation_targetAtFixation,jsons/v1_VE250_randls_61.json,http://54.235.29.9/FacialAge/BNav_EC2/DepthDuration/v2_depth_duration_MTurk/v2_DepthDuration_HTML.html#381,381,1364,625,1364,768,9-3-2022,11-38-28,72,depth_duration_stimuli/002568_2014-06-24_13-59-21_094959634447_rgbf000062-resize_4/002568_2014-06-24_13-59-21_094959634447_rgbf000062-resize_4-target.png,250,3.015,2.0,2531,250,meters,jsons/v1_VE250_randls_61.json,853034,1199018,30,Man
72,401821,DepthScenes,duration_manipulation_targetAtFixation,jsons/v1_VE250_randls_61.json,http://54.235.29.9/FacialAge/BNav_EC2/DepthDuration/v2_depth_duration_MTurk/v2_DepthDuration_HTML.html#381,381,1364,625,1364,768,9-3-2022,11-38-28,73,depth_duration_stimuli/002763_2014-06-22_19-13-10_094959634447_rgbf000075-resize_4/002763_2014-06-22_19-13-10_094959634447_rgbf000075-resize_4-target.png,250,1.68375,3.0,3460,230,meters,jsons/v1_VE250_randls_61.json,853034,1199018,30,Man
73,401821,DepthScenes,duration_manipulation_targetAtFixation,jsons/v1_VE250_randls_61.json,http://54.235.29.9/FacialAge/BNav_EC2/DepthDuration/v2_depth_duration_MTurk/v2_DepthDuration_HTML.html#381,381,1364,625,1364,768,9-3-2022,11-38-28,74,depth_duration_stimuli/002209_2014-06-28_18-36-10_260595134347_rgbf000051-resize_1/002209_2014-06-28_18-36-10_260595134347_rgbf000051-resize_1-target.png,250,2.057,0.0,3549,251,meters,jsons/v1_VE250_randls_61.json,853034,1199018,30,Man
74,401821,DepthScenes,duration_manipulation_targetAtFixation,jsons/v1_VE250_randls_61.json,http://54.235.29.9/FacialAge/BNav_EC2/DepthDuration/v2_depth_duration_MTurk/v2_DepthDuration_HTML.html#381,381,1364,625,1364,768,9-3-2022,11-38-28,75,depth_duration_stimuli/001808_2014-06-26_20-50-58_260595134347_rgbf000029-resize_1/001808_2014-06-26_20-50-58_260595134347_rgbf000029-resize_1-target.png,250,4.249,0.0,6157,249,meters,jsons/v1_VE250_randls_61.json,853034,1199018,30,Man
75,401821,DepthScenes,duration_manipulation_targetAtFixation,jsons/v1_VE250_randls_61.json,http://54.235.29.9/FacialAge/BNav_EC2/DepthDuration/v2_depth_duration_MTurk/v2_DepthDuration_HTML.html#381,381,1364,625,1364,768,9-3-2022,11-38-28,76,depth_duration_stimuli/001815_2014-06-26_20-52-55_260595134347_rgbf000020-resize_0/001815_2014-06-26_20-52-55_260595134347_rgbf000020-resize_0-target.png,250,3.3865,4.0,3754,250,meters,jsons/v1_VE250_randls_61.json,853034,1199018,30,Man
76,401821,DepthScenes,duration_manipulation_targetAtFixation,jsons/v1_VE250_randls_61.json,http://54.235.29.9/FacialAge/BNav_EC2/DepthDuration/v2_depth_duration_MTurk/v2_DepthDuration_HTML.html#381,381,1364,625,1364,768,9-3-2022,11-38-28,77,depth_duration_stimuli/000788_2014-06-08_22-34-36_260595134347_rgbf000131-resize_1/000788_2014-06-08_22-34-36_260595134347_rgbf000131-resize_1-target.png,250,3.359,4.0,7013,250,meters,jsons/v1_VE250_randls_61.json,853034,1199018,30,Man
77,401821,DepthScenes,duration_manipulation_targetAtFixation,jsons/v1_VE250_randls_61.json,http://54.235.29.9/FacialAge/BNav_EC2/DepthDuration/v2_depth_duration_MTurk/v2_DepthDuration_HTML.html#381,381,1364,625,1364,768,9-3-2022,11-38-28,78,depth_duration_stimuli/001235_2014-06-17_16-37-36_260595134347_rgbf000084-resize_4/001235_2014-06-17_16-37-36_260595134347_rgbf000084-resize_4-target.png,250,3.6605,0.0,2436,249,meters,jsons/v1_VE250_randls_61.json,853034,1199018,30,Man
78,401821,DepthScenes,duration_manipulation_targetAtFixation,jsons/v1_VE250_randls_61.json,http://54.235.29.9/FacialAge/BNav_EC2/DepthDuration/v2_depth_duration_MTurk/v2_DepthDuration_HTML.html#381,381,1364,625,1364,768,9-3-2022,11-38-28,79,depth_duration_stimuli/000470_2014-06-09_19-42-40_260595134347_rgbf000094-resize_1/000470_2014-06-09_19-42-40_260595134347_rgbf000094-resize_1-target.png,250,1.831,0.0,2357,248,meters,jsons/v1_VE250_randls_61.json,853034,1199018,30,Man
79,401821,DepthScenes,duration_manipulation_targetAtFixation,jsons/v1_VE250_randls_61.json,http://54.235.29.9/FacialAge/BNav_EC2/DepthDuration/v2_depth_duration_MTurk/v2_DepthDuration_HTML.html#381,381,1364,625,1364,768,9-3-2022,11-38-28,80,depth_duration_stimuli/000109_2014-05-14_23-41-52_260595134347_rgbf000035-resize_9/000109_2014-05-14_23-41-52_260595134347_rgbf000035-resize_9-target.png,250,1.3545,0.0,2944,249,meters,jsons/v1_VE250_randls_61.json,853034,1199018,30,Man
80,401821,DepthScenes,duration_manipulation_targetAtFixation,jsons/v1_VE250_randls_61.json,http://54.235.29.9/FacialAge/BNav_EC2/DepthDuration/v2_depth_duration_MTurk/v2_DepthDuration_HTML.html#381,381,1364,625,1364,768,9-3-2022,11-38-28,81,depth_duration_stimuli/001150_2014-06-17_15-27-34_260595134347_rgbf000108-resize_2/001150_2014-06-17_15-27-34_260595134347_rgbf000108-resize_2-target.png,250,4.0325,3.0,2075,251,meters,jsons/v1_VE250_randls_61.json,853034,1199018,30,Man
81,401821,DepthScenes,duration_manipulation_targetAtFixation,jsons/v1_VE250_randls_61.json,http://54.235.29.9/FacialAge/BNav_EC2/DepthDuration/v2_depth_duration_MTurk/v2_DepthDuration_HTML.html#381,381,1364,625,1364,768,9-3-2022,11-38-28,82,depth_duration_stimuli/000665_2014-06-09_20-42-35_260595134347_rgbf000110-resize_1/000665_2014-06-09_20-42-35_260595134347_rgbf000110-resize_1-target.png,250,3.057,3.0,5096,245,meters,jsons/v1_VE250_randls_61.json,853034,1199018,30,Man
82,401821,DepthScenes,duration_manipulation_targetAtFixation,jsons/v1_VE250_randls_61.json,http://54.235.29.9/FacialAge/BNav_EC2/DepthDuration/v2_depth_duration_MTurk/v2_DepthDuration_HTML.html#381,381,1364,625,1364,768,9-3-2022,11-38-28,83,depth_duration_stimuli/000522_2014-06-08_13-35-06_260595134347_rgbf000244-resize_1/000522_2014-06-08_13-35-06_260595134347_rgbf000244-resize_1-target.png,250,2.3715,0.0,6686,250,meters,jsons/v1_VE250_randls_61.json,853034,1199018,30,Man
83,401821,DepthScenes,duration_manipulation_targetAtFixation,jsons/v1_VE250_randls_61.json,http://54.235.29.9/FacialAge/BNav_EC2/DepthDuration/v2_depth_duration_MTurk/v2_DepthDuration_HTML.html#381,381,1364,625,1364,768,9-3-2022,11-38-28,84,depth_duration_stimuli/002949_2014-06-26_15-57-42_094959634447_rgbf000079-resize_1/002949_2014-06-26_15-57-42_094959634447_rgbf000079-resize_1-target.png,250,1.8915,0.0,2521,249,meters,jsons/v1_VE250_randls_61.json,853034,1199018,30,Man
84,401821,DepthScenes,duration_manipulation_targetAtFixation,jsons/v1_VE250_randls_61.json,http://54.235.29.9/FacialAge/BNav_EC2/DepthDuration/v2_depth_duration_MTurk/v2_DepthDuration_HTML.html#381,381,1364,625,1364,768,9-3-2022,11-38-28,85,depth_duration_stimuli/000929_2014-06-09_16-33-19_260595134347_rgbf000139-resize_0/000929_2014-06-09_16-33-19_260595134347_rgbf000139-resize_0-target.png,250,2.8680000000000003,0.0,9500,248,meters,jsons/v1_VE250_randls_61.json,853034,1199018,30,Man
85,401821,DepthScenes,duration_manipulation_targetAtFixation,jsons/v1_VE250_randls_61.json,http://54.235.29.9/FacialAge/BNav_EC2/DepthDuration/v2_depth_duration_MTurk/v2_DepthDuration_HTML.html#381,381,1364,625,1364,768,9-3-2022,11-38-28,86,depth_duration_stimuli/000457_2014-06-08_16-52-43_260595134347_rgbf000199-resize_1/000457_2014-06-08_16-52-43_260595134347_rgbf000199-resize_1-target.png,250,3.6489999999999996,0.0,9051,250,meters,jsons/v1_VE250_randls_61.json,853034,1199018,30,Man
86,401821,DepthScenes,duration_manipulation_targetAtFixation,jsons/v1_VE250_randls_61.json,http://54.235.29.9/FacialAge/BNav_EC2/DepthDuration/v2_depth_duration_MTurk/v2_DepthDuration_HTML.html#381,381,1364,625,1364,768,9-3-2022,11-38-28,87,depth_duration_stimuli/001555_2014-06-20_17-12-10_260595134347_rgbf000065-resize_4/001555_2014-06-20_17-12-10_260595134347_rgbf000065-resize_4-target.png,250,1.633,2.0,4269,250,meters,jsons/v1_VE250_randls_61.json,853034,1199018,30,Man
87,401821,DepthScenes,duration_manipulation_targetAtFixation,jsons/v1_VE250_randls_61.json,http://54.235.29.9/FacialAge/BNav_EC2/DepthDuration/v2_depth_duration_MTurk/v2_DepthDuration_HTML.html#381,381,1364,625,1364,768,9-3-2022,11-38-28,88,depth_duration_stimuli/000103_2014-05-14_22-01-17_260595134347_rgbf000152-resize_5/000103_2014-05-14_22-01-17_260595134347_rgbf000152-resize_5-target.png,250,1.993,2.0,4269,250,meters,jsons/v1_VE250_randls_61.json,853034,1199018,30,Man
88,401821,DepthScenes,duration_manipulation_targetAtFixation,jsons/v1_VE250_randls_61.json,http://54.235.29.9/FacialAge/BNav_EC2/DepthDuration/v2_depth_duration_MTurk/v2_DepthDuration_HTML.html#381,381,1364,625,1364,768,9-3-2022,11-38-28,89,depth_duration_stimuli/002989_2014-06-15_12-25-03_094959634447_rgbf000150-resize_3/002989_2014-06-15_12-25-03_094959634447_rgbf000150-resize_3-target.png,250,4.1975,2.0,3451,252,meters,jsons/v1_VE250_randls_61.json,853034,1199018,30,Man
89,401821,DepthScenes,duration_manipulation_targetAtFixation,jsons/v1_VE250_randls_61.json,http://54.235.29.9/FacialAge/BNav_EC2/DepthDuration/v2_depth_duration_MTurk/v2_DepthDuration_HTML.html#381,381,1364,625,1364,768,9-3-2022,11-38-28,90,depth_duration_stimuli/000866_2014-06-09_20-45-42_260595134347_rgbf000139-resize_1/000866_2014-06-09_20-45-42_260595134347_rgbf000139-resize_1-target.png,250,3.2155,0.0,9965,249,meters,jsons/v1_VE250_randls_61.json,853034,1199018,30,Man
90,401821,DepthScenes,duration_manipulation_targetAtFixation,jsons/v1_VE250_randls_61.json,http://54.235.29.9/FacialAge/BNav_EC2/DepthDuration/v2_depth_duration_MTurk/v2_DepthDuration_HTML.html#381,381,1364,625,1364,768,9-3-2022,11-38-28,91,depth_duration_stimuli/001806_2014-06-26_20-50-20_260595134347_rgbf000091-resize_1/001806_2014-06-26_20-50-20_260595134347_rgbf000091-resize_1-target.png,250,2.7305,2.0,3366,250,meters,jsons/v1_VE250_randls_61.json,853034,1199018,30,Man
91,401821,DepthScenes,duration_manipulation_targetAtFixation,jsons/v1_VE250_randls_61.json,http://54.235.29.9/FacialAge/BNav_EC2/DepthDuration/v2_depth_duration_MTurk/v2_DepthDuration_HTML.html#381,381,1364,625,1364,768,9-3-2022,11-38-28,92,depth_duration_stimuli/001617_2014-06-20_11-35-32_260595134347_rgbf000066-resize_1/001617_2014-06-20_11-35-32_260595134347_rgbf000066-resize_1-target.png,250,3.7910000000000004,3.0,3247,253,meters,jsons/v1_VE250_randls_61.json,853034,1199018,30,Man
92,401821,DepthScenes,duration_manipulation_targetAtFixation,jsons/v1_VE250_randls_61.json,http://54.235.29.9/FacialAge/BNav_EC2/DepthDuration/v2_depth_duration_MTurk/v2_DepthDuration_HTML.html#381,381,1364,625,1364,768,9-3-2022,11-38-28,93,depth_duration_stimuli/000736_2014-06-08_18-24-15_260595134347_rgbf000206-resize_3/000736_2014-06-08_18-24-15_260595134347_rgbf000206-resize_3-target.png,250,3.515,2.0,3016,220,meters,jsons/v1_VE250_randls_61.json,853034,1199018,30,Man
93,401821,DepthScenes,duration_manipulation_targetAtFixation,jsons/v1_VE250_randls_61.json,http://54.235.29.9/FacialAge/BNav_EC2/DepthDuration/v2_depth_duration_MTurk/v2_DepthDuration_HTML.html#381,381,1364,625,1364,768,9-3-2022,11-38-28,94,depth_duration_stimuli/000137_2014-05-20_17-04-49_260595134347_rgbf000120-resize_1/000137_2014-05-20_17-04-49_260595134347_rgbf000120-resize_1-target.png,250,3.786,0.0,3258,249,meters,jsons/v1_VE250_randls_61.json,853034,1199018,30,Man
94,401821,DepthScenes,duration_manipulation_targetAtFixation,jsons/v1_VE250_randls_61.json,http://54.235.29.9/FacialAge/BNav_EC2/DepthDuration/v2_depth_duration_MTurk/v2_DepthDuration_HTML.html#381,381,1364,625,1364,768,9-3-2022,11-38-28,95,depth_duration_stimuli/002509_2014-06-24_13-19-22_094959634447_rgbf000077-resize_0/002509_2014-06-24_13-19-22_094959634447_rgbf000077-resize_0-target.png,250,1.3065,3.0,6061,246,meters,jsons/v1_VE250_randls_61.json,853034,1199018,30,Man
95,401821,DepthScenes,duration_manipulation_targetAtFixation,jsons/v1_VE250_randls_61.json,http://54.235.29.9/FacialAge/BNav_EC2/DepthDuration/v2_depth_duration_MTurk/v2_DepthDuration_HTML.html#381,381,1364,625,1364,768,9-3-2022,11-38-28,96,depth_duration_stimuli/003338_2014-05-20_11-01-23_094959634447_rgbf000051-resize_6/003338_2014-05-20_11-01-23_094959634447_rgbf000051-resize_6-target.png,250,1.693,0.0,2476,250,meters,jsons/v1_VE250_randls_61.json,853034,1199018,30,Man
96,401821,DepthScenes,duration_manipulation_targetAtFixation,jsons/v1_VE250_randls_61.json,http://54.235.29.9/FacialAge/BNav_EC2/DepthDuration/v2_depth_duration_MTurk/v2_DepthDuration_HTML.html#381,381,1364,625,1364,768,9-3-2022,11-38-28,97,depth_duration_stimuli/001417_2014-06-19_16-25-36_260595134347_rgbf000115-resize_5/001417_2014-06-19_16-25-36_260595134347_rgbf000115-resize_5-target.png,250,4.6255,3.0,3599,246,meters,jsons/v1_VE250_randls_61.json,853034,1199018,30,Man
97,401821,DepthScenes,duration_manipulation_targetAtFixation,jsons/v1_VE250_randls_61.json,http://54.235.29.9/FacialAge/BNav_EC2/DepthDuration/v2_depth_duration_MTurk/v2_DepthDuration_HTML.html#381,381,1364,625,1364,768,9-3-2022,11-38-28,98,depth_duration_stimuli/003081_2014-06-15_15-19-16_094959634447_rgbf000150-resize_1/003081_2014-06-15_15-19-16_094959634447_rgbf000150-resize_1-target.png,250,3.9125,0.0,2181,250,meters,jsons/v1_VE250_randls_61.json,853034,1199018,30,Man
98,401821,DepthScenes,duration_manipulation_targetAtFixation,jsons/v1_VE250_randls_61.json,http://54.235.29.9/FacialAge/BNav_EC2/DepthDuration/v2_depth_duration_MTurk/v2_DepthDuration_HTML.html#381,381,1364,625,1364,768,9-3-2022,11-38-28,99,depth_duration_stimuli/001540_2014-06-20_17-01-05_260595134347_rgbf000086-resize_2/001540_2014-06-20_17-01-05_260595134347_rgbf000086-resize-original.jpg,250,1.459,2.0,3705,249,meters,jsons/v1_VE250_randls_61.json,853034,1199018,30,Man
99,401821,DepthScenes,duration_manipulation_targetAtFixation,jsons/v1_VE250_randls_61.json,http://54.235.29.9/FacialAge/BNav_EC2/DepthDuration/v2_depth_duration_MTurk/v2_DepthDuration_HTML.html#381,381,1364,625,1364,768,9-3-2022,11-38-28,100,depth_duration_stimuli/002663_2014-06-13_15-50-26_094959634447_rgbf000075-resize_1/002663_2014-06-13_15-50-26_094959634447_rgbf000075-resize_1-target.png,250,4.7495,0.0,6243,250,meters,jsons/v1_VE250_randls_61.json,853034,1199018,30,Man
100,401821,DepthScenes,duration_manipulation_targetAtFixation,jsons/v1_VE250_randls_61.json,http://54.235.29.9/FacialAge/BNav_EC2/DepthDuration/v2_depth_duration_MTurk/v2_DepthDuration_HTML.html#381,381,1364,625,1364,768,9-3-2022,11-38-28,101,depth_duration_stimuli/000409_2014-06-04_19-23-33_260595134347_rgbf000067-resize_0/000409_2014-06-04_19-23-33_260595134347_rgbf000067-resize_0-target.png,250,3.7335,2.0,10069,244,meters,jsons/v1_VE250_randls_61.json,853034,1199018,30,Man
101,401821,DepthScenes,duration_manipulation_targetAtFixation,jsons/v1_VE250_randls_61.json,http://54.235.29.9/FacialAge/BNav_EC2/DepthDuration/v2_depth_duration_MTurk/v2_DepthDuration_HTML.html#381,381,1364,625,1364,768,9-3-2022,11-38-28,102,depth_duration_stimuli/002043_2014-06-24_20-29-38_260595134347_rgbf000039-resize_4/002043_2014-06-24_20-29-38_260595134347_rgbf000039-resize_4-target.png,250,2.8435,3.0,3195,250,meters,jsons/v1_VE250_randls_61.json,853034,1199018,30,Man
102,401821,DepthScenes,duration_manipulation_targetAtFixation,jsons/v1_VE250_randls_61.json,http://54.235.29.9/FacialAge/BNav_EC2/DepthDuration/v2_depth_duration_MTurk/v2_DepthDuration_HTML.html#381,381,1364,625,1364,768,9-3-2022,11-38-28,103,depth_duration_stimuli/003048_2014-06-15_13-49-43_094959634447_rgbf000150-resize_1/003048_2014-06-15_13-49-43_094959634447_rgbf000150-resize_1-target.png,250,4.0035,0.0,3909,250,meters,jsons/v1_VE250_randls_61.json,853034,1199018,30,Man
103,401821,DepthScenes,duration_manipulation_targetAtFixation,jsons/v1_VE250_randls_61.json,http://54.235.29.9/FacialAge/BNav_EC2/DepthDuration/v2_depth_duration_MTurk/v2_DepthDuration_HTML.html#381,381,1364,625,1364,768,9-3-2022,11-38-28,104,depth_duration_stimuli/000414_2014-06-04_19-49-13_260595134347_rgbf000044-resize_0/000414_2014-06-04_19-49-13_260595134347_rgbf000044-resize_0-target.png,250,4.329,2.0,9058,256,meters,jsons/v1_VE250_randls_61.json,853034,1199018,30,Man
104,401821,DepthScenes,duration_manipulation_targetAtFixation,jsons/v1_VE250_randls_61.json,http://54.235.29.9/FacialAge/BNav_EC2/DepthDuration/v2_depth_duration_MTurk/v2_DepthDuration_HTML.html#381,381,1364,625,1364,768,9-3-2022,11-38-28,105,depth_duration_stimuli/003129_2014-05-12_10-48-10_094959634447_rgbf000100-resize_0/003129_2014-05-12_10-48-10_094959634447_rgbf000100-resize_0-target.png,250,4.9305,2.0,4083,241,meters,jsons/v1_VE250_randls_61.json,853034,1199018,30,Man
105,401821,DepthScenes,duration_manipulation_targetAtFixation,jsons/v1_VE250_randls_61.json,http://54.235.29.9/FacialAge/BNav_EC2/DepthDuration/v2_depth_duration_MTurk/v2_DepthDuration_HTML.html#381,381,1364,625,1364,768,9-3-2022,11-38-28,106,depth_duration_stimuli/002748_2014-06-22_19-07-22_094959634447_rgbf000078-resize_1/002748_2014-06-22_19-07-22_094959634447_rgbf000078-resize_1-target.png,250,4.6705,3.0,3115,248,meters,jsons/v1_VE250_randls_61.json,853034,1199018,30,Man
106,401821,DepthScenes,duration_manipulation_targetAtFixation,jsons/v1_VE250_randls_61.json,http://54.235.29.9/FacialAge/BNav_EC2/DepthDuration/v2_depth_duration_MTurk/v2_DepthDuration_HTML.html#381,381,1364,625,1364,768,9-3-2022,11-38-28,107,depth_duration_stimuli/002995_2014-06-15_12-31-26_094959634447_rgbf000150-resize_1/002995_2014-06-15_12-31-26_094959634447_rgbf000150-resize_1-target.png,250,3.8360000000000003,0.0,2772,249,meters,jsons/v1_VE250_randls_61.json,853034,1199018,30,Man
107,401821,DepthScenes,duration_manipulation_targetAtFixation,jsons/v1_VE250_randls_61.json,http://54.235.29.9/FacialAge/BNav_EC2/DepthDuration/v2_depth_duration_MTurk/v2_DepthDuration_HTML.html#381,381,1364,625,1364,768,9-3-2022,11-38-28,108,depth_duration_stimuli/000917_2014-06-09_22-45-29_260595134347_rgbf000149-resize_3/000917_2014-06-09_22-45-29_260595134347_rgbf000149-resize_3-target.png,250,4.1865,0.0,8442,247,meters,jsons/v1_VE250_randls_61.json,853034,1199018,30,Man
108,401821,DepthScenes,duration_manipulation_targetAtFixation,jsons/v1_VE250_randls_61.json,http://54.235.29.9/FacialAge/BNav_EC2/DepthDuration/v2_depth_duration_MTurk/v2_DepthDuration_HTML.html#381,381,1364,625,1364,768,9-3-2022,11-38-28,109,depth_duration_stimuli/002323_2014-06-28_20-01-54_260595134347_rgbf000051-resize_4/002323_2014-06-28_20-01-54_260595134347_rgbf000051-resize_4-target.png,250,3.7310000000000003,0.0,3256,253,meters,jsons/v1_VE250_randls_61.json,853034,1199018,30,Man
109,401821,DepthScenes,duration_manipulation_targetAtFixation,jsons/v1_VE250_randls_61.json,http://54.235.29.9/FacialAge/BNav_EC2/DepthDuration/v2_depth_duration_MTurk/v2_DepthDuration_HTML.html#381,381,1364,625,1364,768,9-3-2022,11-38-28,110,depth_duration_stimuli/000368_2014-06-09_15-53-01_260595134347_rgbf000155-resize_2/000368_2014-06-09_15-53-01_260595134347_rgbf000155-resize_2-target.png,250,2.4859999999999998,2.0,3121,251,meters,jsons/v1_VE250_randls_61.json,853034,1199018,30,Man
110,401821,DepthScenes,duration_manipulation_targetAtFixation,jsons/v1_VE250_randls_61.json,http://54.235.29.9/FacialAge/BNav_EC2/DepthDuration/v2_depth_duration_MTurk/v2_DepthDuration_HTML.html#381,381,1364,625,1364,768,9-3-2022,11-38-28,111,depth_duration_stimuli/002678_2014-06-13_16-15-32_094959634447_rgbf000151-resize_6/002678_2014-06-13_16-15-32_094959634447_rgbf000151-resize_6-target.png,250,2.1830000000000003,0.0,3296,251,meters,jsons/v1_VE250_randls_61.json,853034,1199018,30,Man
111,401821,DepthScenes,duration_manipulation_targetAtFixation,jsons/v1_VE250_randls_61.json,http://54.235.29.9/FacialAge/BNav_EC2/DepthDuration/v2_depth_duration_MTurk/v2_DepthDuration_HTML.html#381,381,1364,625,1364,768,9-3-2022,11-38-28,112,depth_duration_stimuli/003621_2014-05-23_18-06-08_094959634447_rgbf000101-resize_1/003621_2014-05-23_18-06-08_094959634447_rgbf000101-resize_1-target.png,250,3.9835,3.0,3803,248,meters,jsons/v1_VE250_randls_61.json,853034,1199018,30,Man
112,401821,DepthScenes,duration_manipulation_targetAtFixation,jsons/v1_VE250_randls_61.json,http://54.235.29.9/FacialAge/BNav_EC2/DepthDuration/v2_depth_duration_MTurk/v2_DepthDuration_HTML.html#381,381,1364,625,1364,768,9-3-2022,11-38-28,113,depth_duration_stimuli/001584_2014-06-20_11-07-43_260595134347_rgbf000002-resize_1/001584_2014-06-20_11-07-43_260595134347_rgbf000002-resize_1-target.png,250,3.53,0.0,3257,249,meters,jsons/v1_VE250_randls_61.json,853034,1199018,30,Man
113,401821,DepthScenes,duration_manipulation_targetAtFixation,jsons/v1_VE250_randls_61.json,http://54.235.29.9/FacialAge/BNav_EC2/DepthDuration/v2_depth_duration_MTurk/v2_DepthDuration_HTML.html#381,381,1364,625,1364,768,9-3-2022,11-38-28,114,depth_duration_stimuli/000878_2014-06-08_22-52-45_260595134347_rgbf000045-resize_2/000878_2014-06-08_22-52-45_260595134347_rgbf000045-resize_2-target.png,250,2.092,3.0,2924,246,meters,jsons/v1_VE250_randls_61.json,853034,1199018,30,Man
114,401821,DepthScenes,duration_manipulation_targetAtFixation,jsons/v1_VE250_randls_61.json,http://54.235.29.9/FacialAge/BNav_EC2/DepthDuration/v2_depth_duration_MTurk/v2_DepthDuration_HTML.html#381,381,1364,625,1364,768,9-3-2022,11-38-28,115,depth_duration_stimuli/002953_2014-06-08_17-32-18_094959634447_rgbf000059-resize_5/002953_2014-06-08_17-32-18_094959634447_rgbf000059-resize_5-target.png,250,1.551,2.0,13028,250,meters,jsons/v1_VE250_randls_61.json,853034,1199018,30,Man
115,401821,DepthScenes,duration_manipulation_targetAtFixation,jsons/v1_VE250_randls_61.json,http://54.235.29.9/FacialAge/BNav_EC2/DepthDuration/v2_depth_duration_MTurk/v2_DepthDuration_HTML.html#381,381,1364,625,1364,768,9-3-2022,11-38-28,116,depth_duration_stimuli/001170_2014-06-17_15-43-44_260595134347_rgbf000096-resize_6/001170_2014-06-17_15-43-44_260595134347_rgbf000096-resize-original.jpg,250,1.1909999999999998,2.0,2626,251,meters,jsons/v1_VE250_randls_61.json,853034,1199018,30,Man
116,401821,DepthScenes,duration_manipulation_targetAtFixation,jsons/v1_VE250_randls_61.json,http://54.235.29.9/FacialAge/BNav_EC2/DepthDuration/v2_depth_duration_MTurk/v2_DepthDuration_HTML.html#381,381,1364,625,1364,768,9-3-2022,11-38-28,117,depth_duration_stimuli/001164_2014-06-17_15-35-46_260595134347_rgbf000085-resize_3/001164_2014-06-17_15-35-46_260595134347_rgbf000085-resize_3-target.png,250,2.354,3.0,3509,250,meters,jsons/v1_VE250_randls_61.json,853034,1199018,30,Man
117,401821,DepthScenes,duration_manipulation_targetAtFixation,jsons/v1_VE250_randls_61.json,http://54.235.29.9/FacialAge/BNav_EC2/DepthDuration/v2_depth_duration_MTurk/v2_DepthDuration_HTML.html#381,381,1364,625,1364,768,9-3-2022,11-38-28,118,depth_duration_stimuli/001136_2014-06-17_15-19-41_260595134347_rgbf000076-resize_3/001136_2014-06-17_15-19-41_260595134347_rgbf000076-resize_3-target.png,250,1.8655,0.0,3163,248,meters,jsons/v1_VE250_randls_61.json,853034,1199018,30,Man
118,401821,DepthScenes,duration_manipulation_targetAtFixation,jsons/v1_VE250_randls_61.json,http://54.235.29.9/FacialAge/BNav_EC2/DepthDuration/v2_depth_duration_MTurk/v2_DepthDuration_HTML.html#381,381,1364,625,1364,768,9-3-2022,11-38-28,119,depth_duration_stimuli/000009_2014-05-26_14-32-05_260595134347_rgbf000034-resize_3/000009_2014-05-26_14-32-05_260595134347_rgbf000034-resize_3-target.png,250,3.8715,2.0,10161,249,meters,jsons/v1_VE250_randls_61.json,853034,1199018,30,Man
119,401821,DepthScenes,duration_manipulation_targetAtFixation,jsons/v1_VE250_randls_61.json,http://54.235.29.9/FacialAge/BNav_EC2/DepthDuration/v2_depth_duration_MTurk/v2_DepthDuration_HTML.html#381,381,1364,625,1364,768,9-3-2022,11-38-28,120,depth_duration_stimuli/001828_2014-06-26_21-40-03_260595134347_rgbf000024-resize_0/001828_2014-06-26_21-40-03_260595134347_rgbf000024-resize_0-target.png,250,4.8260000000000005,0.0,6124,250,meters,jsons/v1_VE250_randls_61.json,853034,1199018,30,Man
120,401821,DepthScenes,duration_manipulation_targetAtFixation,jsons/v1_VE250_randls_61.json,http://54.235.29.9/FacialAge/BNav_EC2/DepthDuration/v2_depth_duration_MTurk/v2_DepthDuration_HTML.html#381,381,1364,625,1364,768,9-3-2022,11-38-28,121,depth_duration_stimuli/001133_2014-06-17_14-49-16_260595134347_rgbf000100-resize_0/001133_2014-06-17_14-49-16_260595134347_rgbf000100-resize_0-target.png,250,4.2115,3.0,3261,250,meters,jsons/v1_VE250_randls_61.json,853034,1199018,30,Man
121,401821,DepthScenes,duration_manipulation_targetAtFixation,jsons/v1_VE250_randls_61.json,http://54.235.29.9/FacialAge/BNav_EC2/DepthDuration/v2_depth_duration_MTurk/v2_DepthDuration_HTML.html#381,381,1364,625,1364,768,9-3-2022,11-38-28,122,depth_duration_stimuli/001132_2014-06-17_14-48-54_260595134347_rgbf000100-resize_2/001132_2014-06-17_14-48-54_260595134347_rgbf000100-resize_2-target.png,250,3.753,0.0,2683,248,meters,jsons/v1_VE250_randls_61.json,853034,1199018,30,Man
122,401821,DepthScenes,duration_manipulation_targetAtFixation,jsons/v1_VE250_randls_61.json,http://54.235.29.9/FacialAge/BNav_EC2/DepthDuration/v2_depth_duration_MTurk/v2_DepthDuration_HTML.html#381,381,1364,625,1364,768,9-3-2022,11-38-28,123,depth_duration_stimuli/003292_2014-05-14_21-53-49_094959634447_rgbf000100-resize_2/003292_2014-05-14_21-53-49_094959634447_rgbf000100-resize_2-target.png,250,3.4815,2.0,4519,248,meters,jsons/v1_VE250_randls_61.json,853034,1199018,30,Man
123,401821,DepthScenes,duration_manipulation_targetAtFixation,jsons/v1_VE250_randls_61.json,http://54.235.29.9/FacialAge/BNav_EC2/DepthDuration/v2_depth_duration_MTurk/v2_DepthDuration_HTML.html#381,381,1364,625,1364,768,9-3-2022,11-38-28,124,depth_duration_stimuli/002639_2014-06-24_14-51-37_094959634447_rgbf000074-resize_4/002639_2014-06-24_14-51-37_094959634447_rgbf000074-resize_4-target.png,250,4.0375,0.0,3107,250,meters,jsons/v1_VE250_randls_61.json,853034,1199018,30,Man
124,401821,DepthScenes,duration_manipulation_targetAtFixation,jsons/v1_VE250_randls_61.json,http://54.235.29.9/FacialAge/BNav_EC2/DepthDuration/v2_depth_duration_MTurk/v2_DepthDuration_HTML.html#381,381,1364,625,1364,768,9-3-2022,11-38-28,125,depth_duration_stimuli/001167_2014-06-17_15-38-07_260595134347_rgbf000108-resize_0/001167_2014-06-17_15-38-07_260595134347_rgbf000108-resize_0-target.png,250,1.8505,3.0,6861,249,meters,jsons/v1_VE250_randls_61.json,853034,1199018,30,Man
125,401821,DepthScenes,duration_manipulation_targetAtFixation,jsons/v1_VE250_randls_61.json,http://54.235.29.9/FacialAge/BNav_EC2/DepthDuration/v2_depth_duration_MTurk/v2_DepthDuration_HTML.html#381,381,1364,625,1364,768,9-3-2022,11-38-28,126,depth_duration_stimuli/003587_2014-05-23_16-48-02_094959634447_rgbf002384-resize_2/003587_2014-05-23_16-48-02_094959634447_rgbf002384-resize_2-target.png,250,1.357,0.0,3211,248,meters,jsons/v1_VE250_randls_61.json,853034,1199018,30,Man
126,401821,DepthScenes,duration_manipulation_targetAtFixation,jsons/v1_VE250_randls_61.json,http://54.235.29.9/FacialAge/BNav_EC2/DepthDuration/v2_depth_duration_MTurk/v2_DepthDuration_HTML.html#381,381,1364,625,1364,768,9-3-2022,11-38-28,127,depth_duration_stimuli/001158_2014-06-17_15-32-16_260595134347_rgbf000138-resize_2/001158_2014-06-17_15-32-16_260595134347_rgbf000138-resize_2-target.png,250,4.5315,3.0,3268,251,meters,jsons/v1_VE250_randls_61.json,853034,1199018,30,Man
127,401821,DepthScenes,duration_manipulation_targetAtFixation,jsons/v1_VE250_randls_61.json,http://54.235.29.9/FacialAge/BNav_EC2/DepthDuration/v2_depth_duration_MTurk/v2_DepthDuration_HTML.html#381,381,1364,625,1364,768,9-3-2022,11-38-28,128,depth_duration_stimuli/000556_2014-06-09_22-42-56_260595134347_rgbf000214-resize_1/000556_2014-06-09_22-42-56_260595134347_rgbf000214-resize_1-target.png,250,4.8415,2.0,8541,250,meters,jsons/v1_VE250_randls_61.json,853034,1199018,30,Man
128,401821,DepthScenes,duration_manipulation_targetAtFixation,jsons/v1_VE250_randls_61.json,http://54.235.29.9/FacialAge/BNav_EC2/DepthDuration/v2_depth_duration_MTurk/v2_DepthDuration_HTML.html#381,381,1364,625,1364,768,9-3-2022,11-38-28,129,depth_duration_stimuli/000469_2014-06-09_19-42-10_260595134347_rgbf000081-resize_1/000469_2014-06-09_19-42-10_260595134347_rgbf000081-resize_1-target.png,250,1.652,2.0,3638,251,meters,jsons/v1_VE250_randls_61.json,853034,1199018,30,Man
129,401821,DepthScenes,duration_manipulation_targetAtFixation,jsons/v1_VE250_randls_61.json,http://54.235.29.9/FacialAge/BNav_EC2/DepthDuration/v2_depth_duration_MTurk/v2_DepthDuration_HTML.html#381,381,1364,625,1364,768,9-3-2022,11-38-28,130,depth_duration_stimuli/000483_2014-06-09_20-41-45_260595134347_rgbf000116-resize_4/000483_2014-06-09_20-41-45_260595134347_rgbf000116-resize_4-target.png,250,1.337,2.0,2830,250,meters,jsons/v1_VE250_randls_61.json,853034,1199018,30,Man
130,401821,DepthScenes,duration_manipulation_targetAtFixation,jsons/v1_VE250_randls_61.json,http://54.235.29.9/FacialAge/BNav_EC2/DepthDuration/v2_depth_duration_MTurk/v2_DepthDuration_HTML.html#381,381,1364,625,1364,768,9-3-2022,11-38-28,131,depth_duration_stimuli/002272_2014-06-28_18-53-56_260595134347_rgbf000067-resize_2/002272_2014-06-28_18-53-56_260595134347_rgbf000067-resize_2-target.png,250,1.138,3.0,3965,250,meters,jsons/v1_VE250_randls_61.json,853034,1199018,30,Man
131,401821,DepthScenes,duration_manipulation_targetAtFixation,jsons/v1_VE250_randls_61.json,http://54.235.29.9/FacialAge/BNav_EC2/DepthDuration/v2_depth_duration_MTurk/v2_DepthDuration_HTML.html#381,381,1364,625,1364,768,9-3-2022,11-38-28,132,depth_duration_stimuli/001571_2014-06-20_17-21-32_260595134347_rgbf000089-resize_1/001571_2014-06-20_17-21-32_260595134347_rgbf000089-resize_1-target.png,250,1.86,0.0,2962,249,meters,jsons/v1_VE250_randls_61.json,853034,1199018,30,Man
132,401821,DepthScenes,duration_manipulation_targetAtFixation,jsons/v1_VE250_randls_61.json,http://54.235.29.9/FacialAge/BNav_EC2/DepthDuration/v2_depth_duration_MTurk/v2_DepthDuration_HTML.html#381,381,1364,625,1364,768,9-3-2022,11-38-28,133,depth_duration_stimuli/000906_2014-06-08_13-35-43_260595134347_rgbf000155-resize_1/000906_2014-06-08_13-35-43_260595134347_rgbf000155-resize_1-target.png,250,2.8489999999999998,3.0,2937,249,meters,jsons/v1_VE250_randls_61.json,853034,1199018,30,Man
133,401821,DepthScenes,duration_manipulation_targetAtFixation,jsons/v1_VE250_randls_61.json,http://54.235.29.9/FacialAge/BNav_EC2/DepthDuration/v2_depth_duration_MTurk/v2_DepthDuration_HTML.html#381,381,1364,625,1364,768,9-3-2022,11-38-28,134,depth_duration_stimuli/002805_2014-06-22_19-54-03_094959634447_rgbf000079-resize_1/002805_2014-06-22_19-54-03_094959634447_rgbf000079-resize_1-target.png,250,3.1439999999999997,0.0,3588,252,meters,jsons/v1_VE250_randls_61.json,853034,1199018,30,Man
134,401821,DepthScenes,duration_manipulation_targetAtFixation,jsons/v1_VE250_randls_61.json,http://54.235.29.9/FacialAge/BNav_EC2/DepthDuration/v2_depth_duration_MTurk/v2_DepthDuration_HTML.html#381,381,1364,625,1364,768,9-3-2022,11-38-28,135,depth_duration_stimuli/002072_2014-06-24_21-48-06_260595134347_rgbf000115-resize_0/002072_2014-06-24_21-48-06_260595134347_rgbf000115-resize-original.jpg,250,4.702,0.0,18119,250,meters,jsons/v1_VE250_randls_61.json,853034,1199018,30,Man
135,401821,DepthScenes,duration_manipulation_targetAtFixation,jsons/v1_VE250_randls_61.json,http://54.235.29.9/FacialAge/BNav_EC2/DepthDuration/v2_depth_duration_MTurk/v2_DepthDuration_HTML.html#381,381,1364,625,1364,768,9-3-2022,11-38-28,136,depth_duration_stimuli/001016_2014-06-09_16-16-10_260595134347_rgbf000112-resize_5/001016_2014-06-09_16-16-10_260595134347_rgbf000112-resize_5-target.png,250,1.6565,3.0,4183,249,meters,jsons/v1_VE250_randls_61.json,853034,1199018,30,Man
136,401821,DepthScenes,duration_manipulation_targetAtFixation,jsons/v1_VE250_randls_61.json,http://54.235.29.9/FacialAge/BNav_EC2/DepthDuration/v2_depth_duration_MTurk/v2_DepthDuration_HTML.html#381,381,1364,625,1364,768,9-3-2022,11-38-28,137,depth_duration_stimuli/002340_2014-06-28_20-05-46_260595134347_rgbf000113-resize_0/002340_2014-06-28_20-05-46_260595134347_rgbf000113-resize_0-target.png,250,2.4735,0.0,3063,249,meters,jsons/v1_VE250_randls_61.json,853034,1199018,30,Man
137,401821,DepthScenes,duration_manipulation_targetAtFixation,jsons/v1_VE250_randls_61.json,http://54.235.29.9/FacialAge/BNav_EC2/DepthDuration/v2_depth_duration_MTurk/v2_DepthDuration_HTML.html#381,381,1364,625,1364,768,9-3-2022,11-38-28,138,depth_duration_stimuli/000810_2014-06-08_17-20-01_260595134347_rgbf000105-resize_0/000810_2014-06-08_17-20-01_260595134347_rgbf000105-resize_0-target.png,250,1.4865,2.0,9630,251,meters,jsons/v1_VE250_randls_61.json,853034,1199018,30,Man
138,401821,DepthScenes,duration_manipulation_targetAtFixation,jsons/v1_VE250_randls_61.json,http://54.235.29.9/FacialAge/BNav_EC2/DepthDuration/v2_depth_duration_MTurk/v2_DepthDuration_HTML.html#381,381,1364,625,1364,768,9-3-2022,11-38-28,139,depth_duration_stimuli/001214_2014-06-17_16-13-55_260595134347_rgbf000111-resize_0/001214_2014-06-17_16-13-55_260595134347_rgbf000111-resize_0-target.png,250,2.6505,0.0,4770,249,meters,jsons/v1_VE250_randls_61.json,853034,1199018,30,Man
139,401821,DepthScenes,duration_manipulation_targetAtFixation,jsons/v1_VE250_randls_61.json,http://54.235.29.9/FacialAge/BNav_EC2/DepthDuration/v2_depth_duration_MTurk/v2_DepthDuration_HTML.html#381,381,1364,625,1364,768,9-3-2022,11-38-28,140,depth_duration_stimuli/001810_2014-06-26_20-51-35_260595134347_rgbf000040-resize_3/001810_2014-06-26_20-51-35_260595134347_rgbf000040-resize_3-target.png,250,2.2525,3.0,5484,249,meters,jsons/v1_VE250_randls_61.json,853034,1199018,30,Man
140,401821,DepthScenes,duration_manipulation_targetAtFixation,jsons/v1_VE250_randls_61.json,http://54.235.29.9/FacialAge/BNav_EC2/DepthDuration/v2_depth_duration_MTurk/v2_DepthDuration_HTML.html#381,381,1364,625,1364,768,9-3-2022,11-38-28,141,depth_duration_stimuli/003010_2014-06-15_12-54-35_094959634447_rgbf000112-resize_0/003010_2014-06-15_12-54-35_094959634447_rgbf000112-resize_0-target.png,250,3.1185,0.0,5730,250,meters,jsons/v1_VE250_randls_61.json,853034,1199018,30,Man
141,401821,DepthScenes,duration_manipulation_targetAtFixation,jsons/v1_VE250_randls_61.json,http://54.235.29.9/FacialAge/BNav_EC2/DepthDuration/v2_depth_duration_MTurk/v2_DepthDuration_HTML.html#381,381,1364,625,1364,768,9-3-2022,11-38-28,142,depth_duration_stimuli/001059_2014-06-08_21-53-27_260595134347_rgbf000061-resize_4/001059_2014-06-08_21-53-27_260595134347_rgbf000061-resize_4-target.png,250,2.4185,0.0,11459,250,meters,jsons/v1_VE250_randls_61.json,853034,1199018,30,Man
142,401821,DepthScenes,duration_manipulation_targetAtFixation,jsons/v1_VE250_randls_61.json,http://54.235.29.9/FacialAge/BNav_EC2/DepthDuration/v2_depth_duration_MTurk/v2_DepthDuration_HTML.html#381,381,1364,625,1364,768,9-3-2022,11-38-28,143,depth_duration_stimuli/001032_2014-06-08_13-23-17_260595134347_rgbf000021-resize_3/001032_2014-06-08_13-23-17_260595134347_rgbf000021-resize_3-target.png,250,3.2725,0.0,5963,248,meters,jsons/v1_VE250_randls_61.json,853034,1199018,30,Man
143,401821,DepthScenes,duration_manipulation_targetAtFixation,jsons/v1_VE250_randls_61.json,http://54.235.29.9/FacialAge/BNav_EC2/DepthDuration/v2_depth_duration_MTurk/v2_DepthDuration_HTML.html#381,381,1364,625,1364,768,9-3-2022,11-38-28,144,depth_duration_stimuli/003070_2014-06-15_14-58-27_094959634447_rgbf000150-resize_3/003070_2014-06-15_14-58-27_094959634447_rgbf000150-resize_3-target.png,250,2.9415,2.0,5114,251,meters,jsons/v1_VE250_randls_61.json,853034,1199018,30,Man
144,401821,DepthScenes,duration_manipulation_targetAtFixation,jsons/v1_VE250_randls_61.json,http://54.235.29.9/FacialAge/BNav_EC2/DepthDuration/v2_depth_duration_MTurk/v2_DepthDuration_HTML.html#381,381,1364,625,1364,768,9-3-2022,11-38-28,145,depth_duration_stimuli/000943_2014-06-09_19-31-07_260595134347_rgbf000128-resize_1/000943_2014-06-09_19-31-07_260595134347_rgbf000128-resize_1-target.png,250,1.9765,2.0,4089,250,meters,jsons/v1_VE250_randls_61.json,853034,1199018,30,Man
145,401821,DepthScenes,duration_manipulation_targetAtFixation,jsons/v1_VE250_randls_61.json,http://54.235.29.9/FacialAge/BNav_EC2/DepthDuration/v2_depth_duration_MTurk/v2_DepthDuration_HTML.html#381,381,1364,625,1364,768,9-3-2022,11-38-28,146,depth_duration_stimuli/001498_2014-06-19_17-45-14_260595134347_rgbf000129-resize_4/001498_2014-06-19_17-45-14_260595134347_rgbf000129-resize-original.jpg,250,1.4075,0.0,3643,249,meters,jsons/v1_VE250_randls_61.json,853034,1199018,30,Man
146,401821,DepthScenes,duration_manipulation_targetAtFixation,jsons/v1_VE250_randls_61.json,http://54.235.29.9/FacialAge/BNav_EC2/DepthDuration/v2_depth_duration_MTurk/v2_DepthDuration_HTML.html#381,381,1364,625,1364,768,9-3-2022,11-38-28,147,depth_duration_stimuli/002964_2014-06-08_17-46-11_094959634447_rgbf000091-resize_4/002964_2014-06-08_17-46-11_094959634447_rgbf000091-resize_4-target.png,250,1.6909999999999998,2.0,4047,249,meters,jsons/v1_VE250_randls_61.json,853034,1199018,30,Man
147,401821,DepthScenes,duration_manipulation_targetAtFixation,jsons/v1_VE250_randls_61.json,http://54.235.29.9/FacialAge/BNav_EC2/DepthDuration/v2_depth_duration_MTurk/v2_DepthDuration_HTML.html#381,381,1364,625,1364,768,9-3-2022,11-38-28,148,depth_duration_stimuli/002136_2014-06-25_21-18-03_260595134347_rgbf000109-resize_3/002136_2014-06-25_21-18-03_260595134347_rgbf000109-resize_3-target.png,250,1.9569999999999999,0.0,4488,251,meters,jsons/v1_VE250_randls_61.json,853034,1199018,30,Man
148,401821,DepthScenes,duration_manipulation_targetAtFixation,jsons/v1_VE250_randls_61.json,http://54.235.29.9/FacialAge/BNav_EC2/DepthDuration/v2_depth_duration_MTurk/v2_DepthDuration_HTML.html#381,381,1364,625,1364,768,9-3-2022,11-38-28,149,depth_duration_stimuli/002039_2014-06-24_20-22-38_260595134347_rgbf000084-resize_1/002039_2014-06-24_20-22-38_260595134347_rgbf000084-resize_1-target.png,250,4.408,2.0,3617,249,meters,jsons/v1_VE250_randls_61.json,853034,1199018,30,Man
149,401821,DepthScenes,duration_manipulation_targetAtFixation,jsons/v1_VE250_randls_61.json,http://54.235.29.9/FacialAge/BNav_EC2/DepthDuration/v2_depth_duration_MTurk/v2_DepthDuration_HTML.html#381,381,1364,625,1364,768,9-3-2022,11-38-28,150,depth_duration_stimuli/002103_2014-06-25_20-00-40_260595134347_rgbf000049-resize_0/002103_2014-06-25_20-00-40_260595134347_rgbf000049-resize_0-target.png,250,4.105,0.0,7739,249,meters,jsons/v1_VE250_randls_61.json,853034,1199018,30,Man
150,401821,DepthScenes,duration_manipulation_targetAtFixation,jsons/v1_VE250_randls_61.json,http://54.235.29.9/FacialAge/BNav_EC2/DepthDuration/v2_depth_duration_MTurk/v2_DepthDuration_HTML.html#381,381,1364,625,1364,768,9-3-2022,11-38-28,151,depth_duration_stimuli/001029_2014-06-08_13-17-57_260595134347_rgbf000065-resize_1/001029_2014-06-08_13-17-57_260595134347_rgbf000065-resize_1-target.png,250,3.0835,0.0,3477,251,meters,jsons/v1_VE250_randls_61.json,853034,1199018,30,Man
151,401821,DepthScenes,duration_manipulation_targetAtFixation,jsons/v1_VE250_randls_61.json,http://54.235.29.9/FacialAge/BNav_EC2/DepthDuration/v2_depth_duration_MTurk/v2_DepthDuration_HTML.html#381,381,1364,625,1364,768,9-3-2022,11-38-28,152,depth_duration_stimuli/000677_2014-06-08_23-10-32_260595134347_rgbf000158-resize_6/000677_2014-06-08_23-10-32_260595134347_rgbf000158-resize_6-target.png,250,3.556,0.0,3930,251,meters,jsons/v1_VE250_randls_61.json,853034,1199018,30,Man
152,401821,DepthScenes,duration_manipulation_targetAtFixation,jsons/v1_VE250_randls_61.json,http://54.235.29.9/FacialAge/BNav_EC2/DepthDuration/v2_depth_duration_MTurk/v2_DepthDuration_HTML.html#381,381,1364,625,1364,768,9-3-2022,11-38-28,153,depth_duration_stimuli/001199_2014-06-17_16-03-48_260595134347_rgbf000077-resize_0/001199_2014-06-17_16-03-48_260595134347_rgbf000077-resize_0-target.png,250,3.4375,2.0,3394,250,meters,jsons/v1_VE250_randls_61.json,853034,1199018,30,Man
153,401821,DepthScenes,duration_manipulation_targetAtFixation,jsons/v1_VE250_randls_61.json,http://54.235.29.9/FacialAge/BNav_EC2/DepthDuration/v2_depth_duration_MTurk/v2_DepthDuration_HTML.html#381,381,1364,625,1364,768,9-3-2022,11-38-28,154,depth_duration_stimuli/000502_2014-06-08_23-02-32_260595134347_rgbf000063-resize_4/000502_2014-06-08_23-02-32_260595134347_rgbf000063-resize_4-target.png,250,2.431,0.0,2829,257,meters,jsons/v1_VE250_randls_61.json,853034,1199018,30,Man
154,401821,DepthScenes,duration_manipulation_targetAtFixation,jsons/v1_VE250_randls_61.json,http://54.235.29.9/FacialAge/BNav_EC2/DepthDuration/v2_depth_duration_MTurk/v2_DepthDuration_HTML.html#381,381,1364,625,1364,768,9-3-2022,11-38-28,155,depth_duration_stimuli/001092_2014-06-15_17-34-58_260595134347_rgbf000171-resize_3/001092_2014-06-15_17-34-58_260595134347_rgbf000171-resize_3-target.png,250,2.6935,2.0,5289,248,meters,jsons/v1_VE250_randls_61.json,853034,1199018,30,Man
155,401821,DepthScenes,duration_manipulation_targetAtFixation,jsons/v1_VE250_randls_61.json,http://54.235.29.9/FacialAge/BNav_EC2/DepthDuration/v2_depth_duration_MTurk/v2_DepthDuration_HTML.html#381,381,1364,625,1364,768,9-3-2022,11-38-28,156,depth_duration_stimuli/002545_2014-06-24_13-38-53_094959634447_rgbf000080-resize_4/002545_2014-06-24_13-38-53_094959634447_rgbf000080-resize_4-target.png,250,1.9205,0.0,3784,247,meters,jsons/v1_VE250_randls_61.json,853034,1199018,30,Man
156,401821,DepthScenes,duration_manipulation_targetAtFixation,jsons/v1_VE250_randls_61.json,http://54.235.29.9/FacialAge/BNav_EC2/DepthDuration/v2_depth_duration_MTurk/v2_DepthDuration_HTML.html#381,381,1364,625,1364,768,9-3-2022,11-38-28,157,depth_duration_stimuli/002279_2014-06-28_18-55-32_260595134347_rgbf000040-resize_5/002279_2014-06-28_18-55-32_260595134347_rgbf000040-resize_5-target.png,250,1.5043333333333,0.0,23513,250,meters,jsons/v1_VE250_randls_61.json,853034,1199018,30,Man
157,401821,DepthScenes,duration_manipulation_targetAtFixation,jsons/v1_VE250_randls_61.json,http://54.235.29.9/FacialAge/BNav_EC2/DepthDuration/v2_depth_duration_MTurk/v2_DepthDuration_HTML.html#381,381,1364,625,1364,768,9-3-2022,11-38-28,158,depth_duration_stimuli/000635_2014-06-08_16-38-42_260595134347_rgbf000106-resize_1/000635_2014-06-08_16-38-42_260595134347_rgbf000106-resize_1-target.png,250,2.074,0.0,2653,250,meters,jsons/v1_VE250_randls_61.json,853034,1199018,30,Man
158,401821,DepthScenes,duration_manipulation_targetAtFixation,jsons/v1_VE250_randls_61.json,http://54.235.29.9/FacialAge/BNav_EC2/DepthDuration/v2_depth_duration_MTurk/v2_DepthDuration_HTML.html#381,381,1364,625,1364,768,9-3-2022,11-38-28,159,depth_duration_stimuli/002153_2014-06-25_21-27-18_260595134347_rgbf000038-resize_5/002153_2014-06-25_21-27-18_260595134347_rgbf000038-resize_5-target.png,250,2.505,2.0,3019,250,meters,jsons/v1_VE250_randls_61.json,853034,1199018,30,Man
159,401821,DepthScenes,duration_manipulation_targetAtFixation,jsons/v1_VE250_randls_61.json,http://54.235.29.9/FacialAge/BNav_EC2/DepthDuration/v2_depth_duration_MTurk/v2_DepthDuration_HTML.html#381,381,1364,625,1364,768,9-3-2022,11-38-28,160,depth_duration_stimuli/002660_2014-06-13_15-44-18_094959634447_rgbf001878-resize_2/002660_2014-06-13_15-44-18_094959634447_rgbf001878-resize_2-target.png,250,3.576,0.0,2185,249,meters,jsons/v1_VE250_randls_61.json,853034,1199018,30,Man
160,401821,DepthScenes,duration_manipulation_targetAtFixation,jsons/v1_VE250_randls_61.json,http://54.235.29.9/FacialAge/BNav_EC2/DepthDuration/v2_depth_duration_MTurk/v2_DepthDuration_HTML.html#381,381,1364,625,1364,768,9-3-2022,11-38-28,161,depth_duration_stimuli/000493_2014-06-09_21-01-18_260595134347_rgbf000196-resize_3/000493_2014-06-09_21-01-18_260595134347_rgbf000196-resize_3-target.png,250,3.44,3.0,2784,250,meters,jsons/v1_VE250_randls_61.json,853034,1199018,30,Man
161,401821,DepthScenes,duration_manipulation_targetAtFixation,jsons/v1_VE250_randls_61.json,http://54.235.29.9/FacialAge/BNav_EC2/DepthDuration/v2_depth_duration_MTurk/v2_DepthDuration_HTML.html#381,381,1364,625,1364,768,9-3-2022,11-38-28,162,depth_duration_stimuli/000191_2014-05-12_17-07-38_260595134347_rgbf000199-resize_0/000191_2014-05-12_17-07-38_260595134347_rgbf000199-resize_0-target.png,250,3.7995,0.0,3618,247,meters,jsons/v1_VE250_randls_61.json,853034,1199018,30,Man
162,401821,DepthScenes,duration_manipulation_targetAtFixation,jsons/v1_VE250_randls_61.json,http://54.235.29.9/FacialAge/BNav_EC2/DepthDuration/v2_depth_duration_MTurk/v2_DepthDuration_HTML.html#381,381,1364,625,1364,768,9-3-2022,11-38-28,163,depth_duration_stimuli/000739_2014-06-08_18-45-58_260595134347_rgbf000068-resize_1/000739_2014-06-08_18-45-58_260595134347_rgbf000068-resize_1-target.png,250,3.534,0.0,7731,249,meters,jsons/v1_VE250_randls_61.json,853034,1199018,30,Man
163,401821,DepthScenes,duration_manipulation_targetAtFixation,jsons/v1_VE250_randls_61.json,http://54.235.29.9/FacialAge/BNav_EC2/DepthDuration/v2_depth_duration_MTurk/v2_DepthDuration_HTML.html#381,381,1364,625,1364,768,9-3-2022,11-38-28,164,depth_duration_stimuli/000734_2014-06-08_17-39-11_260595134347_rgbf000128-resize_2/000734_2014-06-08_17-39-11_260595134347_rgbf000128-resize_2-target.png,250,4.098,0.0,2449,249,meters,jsons/v1_VE250_randls_61.json,853034,1199018,30,Man
