,subjID,experimentName,versionName,sequenceName,url,selected_row,windowWidth,windowHeight,screenWidth,screenHeight,startDate,startTime,trial,stimulus,duration,actual_depth,depth_estimate,trial_RT,log_sceneDuration,unitSelection,seq_filepath,experimentTime,totalTime,age,gender
0,402334,DepthScenes,duration_manipulation_targetAtFixation,jsons/v1_VE250_randls_72_rotated.json,http://54.235.29.9/FacialAge/BNav_EC2/DepthDuration/v2_depth_duration_MTurk/v2_DepthDuration_HTML.html#110,110,1440,789,1440,900,8-20-2022,11-31-37,1,depth_duration_stimuli/002639_2014-06-24_14-51-37_094959634447_rgbf000074-resize_4/002639_2014-06-24_14-51-37_094959634447_rgbf000074-resize_4-target.png,250,4.0375,9,3092,249,meters,jsons/v1_VE250_randls_72_rotated.json,396247,472027,40,Man
1,402334,DepthScenes,duration_manipulation_targetAtFixation,jsons/v1_VE250_randls_72_rotated.json,http://54.235.29.9/FacialAge/BNav_EC2/DepthDuration/v2_depth_duration_MTurk/v2_DepthDuration_HTML.html#110,110,1440,789,1440,900,8-20-2022,11-31-37,2,depth_duration_stimuli/003292_2014-05-14_21-53-49_094959634447_rgbf000100-resize_2/003292_2014-05-14_21-53-49_094959634447_rgbf000100-resize_2-target.png,250,3.4815,8,1929,249,meters,jsons/v1_VE250_randls_72_rotated.json,396247,472027,40,Man
2,402334,DepthScenes,duration_manipulation_targetAtFixation,jsons/v1_VE250_randls_72_rotated.json,http://54.235.29.9/FacialAge/BNav_EC2/DepthDuration/v2_depth_duration_MTurk/v2_DepthDuration_HTML.html#110,110,1440,789,1440,900,8-20-2022,11-31-37,3,depth_duration_stimuli/000854_2014-06-09_19-43-13_260595134347_rgbf000066-resize_0/000854_2014-06-09_19-43-13_260595134347_rgbf000066-resize_0-target.png,250,3.068,7,1714,249,meters,jsons/v1_VE250_randls_72_rotated.json,396247,472027,40,Man
3,402334,DepthScenes,duration_manipulation_targetAtFixation,jsons/v1_VE250_randls_72_rotated.json,http://54.235.29.9/FacialAge/BNav_EC2/DepthDuration/v2_depth_duration_MTurk/v2_DepthDuration_HTML.html#110,110,1440,789,1440,900,8-20-2022,11-31-37,4,depth_duration_stimuli/000758_2014-06-08_22-05-08_260595134347_rgbf000085-resize_0/000758_2014-06-08_22-05-08_260595134347_rgbf000085-resize_0-target.png,250,3.3810000000000002,6,1715,249,meters,jsons/v1_VE250_randls_72_rotated.json,396247,472027,40,Man
4,402334,DepthScenes,duration_manipulation_targetAtFixation,jsons/v1_VE250_randls_72_rotated.json,http://54.235.29.9/FacialAge/BNav_EC2/DepthDuration/v2_depth_duration_MTurk/v2_DepthDuration_HTML.html#110,110,1440,789,1440,900,8-20-2022,11-31-37,5,depth_duration_stimuli/003010_2014-06-15_12-54-35_094959634447_rgbf000112-resize_0/003010_2014-06-15_12-54-35_094959634447_rgbf000112-resize_0-target.png,250,3.1185,5,1761,250,meters,jsons/v1_VE250_randls_72_rotated.json,396247,472027,40,Man
5,402334,DepthScenes,duration_manipulation_targetAtFixation,jsons/v1_VE250_randls_72_rotated.json,http://54.235.29.9/FacialAge/BNav_EC2/DepthDuration/v2_depth_duration_MTurk/v2_DepthDuration_HTML.html#110,110,1440,789,1440,900,8-20-2022,11-31-37,6,depth_duration_stimuli/001810_2014-06-26_20-51-35_260595134347_rgbf000040-resize_3/001810_2014-06-26_20-51-35_260595134347_rgbf000040-resize_3-target.png,250,2.2525,4,1755,249,meters,jsons/v1_VE250_randls_72_rotated.json,396247,472027,40,Man
6,402334,DepthScenes,duration_manipulation_targetAtFixation,jsons/v1_VE250_randls_72_rotated.json,http://54.235.29.9/FacialAge/BNav_EC2/DepthDuration/v2_depth_duration_MTurk/v2_DepthDuration_HTML.html#110,110,1440,789,1440,900,8-20-2022,11-31-37,7,depth_duration_stimuli/002678_2014-06-13_16-15-32_094959634447_rgbf000151-resize_6/002678_2014-06-13_16-15-32_094959634447_rgbf000151-resize_6-target.png,250,2.1830000000000003,3,2075,249,meters,jsons/v1_VE250_randls_72_rotated.json,396247,472027,40,Man
7,402334,DepthScenes,duration_manipulation_targetAtFixation,jsons/v1_VE250_randls_72_rotated.json,http://54.235.29.9/FacialAge/BNav_EC2/DepthDuration/v2_depth_duration_MTurk/v2_DepthDuration_HTML.html#110,110,1440,789,1440,900,8-20-2022,11-31-37,8,depth_duration_stimuli/000368_2014-06-09_15-53-01_260595134347_rgbf000155-resize_2/000368_2014-06-09_15-53-01_260595134347_rgbf000155-resize_2-target.png,250,2.4859999999999998,2,1745,249,meters,jsons/v1_VE250_randls_72_rotated.json,396247,472027,40,Man
8,402334,DepthScenes,duration_manipulation_targetAtFixation,jsons/v1_VE250_randls_72_rotated.json,http://54.235.29.9/FacialAge/BNav_EC2/DepthDuration/v2_depth_duration_MTurk/v2_DepthDuration_HTML.html#110,110,1440,789,1440,900,8-20-2022,11-31-37,9,depth_duration_stimuli/002209_2014-06-28_18-36-10_260595134347_rgbf000051-resize_1/002209_2014-06-28_18-36-10_260595134347_rgbf000051-resize_1-target.png,250,2.057,1,1714,250,meters,jsons/v1_VE250_randls_72_rotated.json,396247,472027,40,Man
9,402334,DepthScenes,duration_manipulation_targetAtFixation,jsons/v1_VE250_randls_72_rotated.json,http://54.235.29.9/FacialAge/BNav_EC2/DepthDuration/v2_depth_duration_MTurk/v2_DepthDuration_HTML.html#110,110,1440,789,1440,900,8-20-2022,11-31-37,10,depth_duration_stimuli/002763_2014-06-22_19-13-10_094959634447_rgbf000075-resize_4/002763_2014-06-22_19-13-10_094959634447_rgbf000075-resize_4-target.png,250,1.68375,9,1899,249,meters,jsons/v1_VE250_randls_72_rotated.json,396247,472027,40,Man
10,402334,DepthScenes,duration_manipulation_targetAtFixation,jsons/v1_VE250_randls_72_rotated.json,http://54.235.29.9/FacialAge/BNav_EC2/DepthDuration/v2_depth_duration_MTurk/v2_DepthDuration_HTML.html#110,110,1440,789,1440,900,8-20-2022,11-31-37,11,depth_duration_stimuli/001447_2014-06-19_17-00-32_260595134347_rgbf000082-resize_5/001447_2014-06-19_17-00-32_260595134347_rgbf000082-resize_5-target.png,250,4.13775,8,1857,249,meters,jsons/v1_VE250_randls_72_rotated.json,396247,472027,40,Man
11,402334,DepthScenes,duration_manipulation_targetAtFixation,jsons/v1_VE250_randls_72_rotated.json,http://54.235.29.9/FacialAge/BNav_EC2/DepthDuration/v2_depth_duration_MTurk/v2_DepthDuration_HTML.html#110,110,1440,789,1440,900,8-20-2022,11-31-37,12,depth_duration_stimuli/000447_2014-06-08_16-15-46_260595134347_rgbf000130-resize_1/000447_2014-06-08_16-15-46_260595134347_rgbf000130-resize_1-target.png,250,4.479,7,1682,250,meters,jsons/v1_VE250_randls_72_rotated.json,396247,472027,40,Man
12,402334,DepthScenes,duration_manipulation_targetAtFixation,jsons/v1_VE250_randls_72_rotated.json,http://54.235.29.9/FacialAge/BNav_EC2/DepthDuration/v2_depth_duration_MTurk/v2_DepthDuration_HTML.html#110,110,1440,789,1440,900,8-20-2022,11-31-37,13,depth_duration_stimuli/002444_2014-06-28_20-32-08_260595134347_rgbf000027-resize_0/002444_2014-06-28_20-32-08_260595134347_rgbf000027-resize_0-target.png,250,4.388999999999999,6,1835,248,meters,jsons/v1_VE250_randls_72_rotated.json,396247,472027,40,Man
13,402334,DepthScenes,duration_manipulation_targetAtFixation,jsons/v1_VE250_randls_72_rotated.json,http://54.235.29.9/FacialAge/BNav_EC2/DepthDuration/v2_depth_duration_MTurk/v2_DepthDuration_HTML.html#110,110,1440,789,1440,900,8-20-2022,11-31-37,14,depth_duration_stimuli/000436_2014-06-09_22-25-11_260595134347_rgbf000137-resize_1/000436_2014-06-09_22-25-11_260595134347_rgbf000137-resize_1-target.png,250,4.0705,5,1742,247,meters,jsons/v1_VE250_randls_72_rotated.json,396247,472027,40,Man
14,402334,DepthScenes,duration_manipulation_targetAtFixation,jsons/v1_VE250_randls_72_rotated.json,http://54.235.29.9/FacialAge/BNav_EC2/DepthDuration/v2_depth_duration_MTurk/v2_DepthDuration_HTML.html#110,110,1440,789,1440,900,8-20-2022,11-31-37,15,depth_duration_stimuli/000742_2014-06-08_18-48-09_260595134347_rgbf000164-resize_4/000742_2014-06-08_18-48-09_260595134347_rgbf000164-resize_4-target.png,250,4.632,4,1834,250,meters,jsons/v1_VE250_randls_72_rotated.json,396247,472027,40,Man
15,402334,DepthScenes,duration_manipulation_targetAtFixation,jsons/v1_VE250_randls_72_rotated.json,http://54.235.29.9/FacialAge/BNav_EC2/DepthDuration/v2_depth_duration_MTurk/v2_DepthDuration_HTML.html#110,110,1440,789,1440,900,8-20-2022,11-31-37,16,depth_duration_stimuli/001066_2014-06-08_22-03-20_260595134347_rgbf000066-resize_4/001066_2014-06-08_22-03-20_260595134347_rgbf000066-resize_4-target.png,250,4.2330000000000005,3,1930,250,meters,jsons/v1_VE250_randls_72_rotated.json,396247,472027,40,Man
16,402334,DepthScenes,duration_manipulation_targetAtFixation,jsons/v1_VE250_randls_72_rotated.json,http://54.235.29.9/FacialAge/BNav_EC2/DepthDuration/v2_depth_duration_MTurk/v2_DepthDuration_HTML.html#110,110,1440,789,1440,900,8-20-2022,11-31-37,17,depth_duration_stimuli/002467_2014-06-28_20-38-07_260595134347_rgbf000026-resize_2/002467_2014-06-28_20-38-07_260595134347_rgbf000026-resize_2-target.png,250,4.742,2,1818,248,meters,jsons/v1_VE250_randls_72_rotated.json,396247,472027,40,Man
17,402334,DepthScenes,duration_manipulation_targetAtFixation,jsons/v1_VE250_randls_72_rotated.json,http://54.235.29.9/FacialAge/BNav_EC2/DepthDuration/v2_depth_duration_MTurk/v2_DepthDuration_HTML.html#110,110,1440,789,1440,900,8-20-2022,11-31-37,18,depth_duration_stimuli/002570_2014-06-24_13-59-54_094959634447_rgbf000059-resize_0/002570_2014-06-24_13-59-54_094959634447_rgbf000059-resize_0-target.png,250,4.037,1,1850,248,meters,jsons/v1_VE250_randls_72_rotated.json,396247,472027,40,Man
18,402334,DepthScenes,duration_manipulation_targetAtFixation,jsons/v1_VE250_randls_72_rotated.json,http://54.235.29.9/FacialAge/BNav_EC2/DepthDuration/v2_depth_duration_MTurk/v2_DepthDuration_HTML.html#110,110,1440,789,1440,900,8-20-2022,11-31-37,19,depth_duration_stimuli/001498_2014-06-19_17-45-14_260595134347_rgbf000129-resize_4/001498_2014-06-19_17-45-14_260595134347_rgbf000129-resize-original.jpg,250,1.4075,9,1755,249,meters,jsons/v1_VE250_randls_72_rotated.json,396247,472027,40,Man
19,402334,DepthScenes,duration_manipulation_targetAtFixation,jsons/v1_VE250_randls_72_rotated.json,http://54.235.29.9/FacialAge/BNav_EC2/DepthDuration/v2_depth_duration_MTurk/v2_DepthDuration_HTML.html#110,110,1440,789,1440,900,8-20-2022,11-31-37,20,depth_duration_stimuli/001214_2014-06-17_16-13-55_260595134347_rgbf000111-resize_0/001214_2014-06-17_16-13-55_260595134347_rgbf000111-resize_0-target.png,250,2.6505,8,1801,250,meters,jsons/v1_VE250_randls_72_rotated.json,396247,472027,40,Man
20,402334,DepthScenes,duration_manipulation_targetAtFixation,jsons/v1_VE250_randls_72_rotated.json,http://54.235.29.9/FacialAge/BNav_EC2/DepthDuration/v2_depth_duration_MTurk/v2_DepthDuration_HTML.html#110,110,1440,789,1440,900,8-20-2022,11-31-37,21,depth_duration_stimuli/000810_2014-06-08_17-20-01_260595134347_rgbf000105-resize_0/000810_2014-06-08_17-20-01_260595134347_rgbf000105-resize_0-target.png,250,1.4865,7,1865,248,meters,jsons/v1_VE250_randls_72_rotated.json,396247,472027,40,Man
21,402334,DepthScenes,duration_manipulation_targetAtFixation,jsons/v1_VE250_randls_72_rotated.json,http://54.235.29.9/FacialAge/BNav_EC2/DepthDuration/v2_depth_duration_MTurk/v2_DepthDuration_HTML.html#110,110,1440,789,1440,900,8-20-2022,11-31-37,22,depth_duration_stimuli/002657_2014-06-13_15-29-54_094959634447_rgbf000150-resize_1/002657_2014-06-13_15-29-54_094959634447_rgbf000150-resize_1-target.png,250,4.919,6,1826,249,meters,jsons/v1_VE250_randls_72_rotated.json,396247,472027,40,Man
22,402334,DepthScenes,duration_manipulation_targetAtFixation,jsons/v1_VE250_randls_72_rotated.json,http://54.235.29.9/FacialAge/BNav_EC2/DepthDuration/v2_depth_duration_MTurk/v2_DepthDuration_HTML.html#110,110,1440,789,1440,900,8-20-2022,11-31-37,23,depth_duration_stimuli/002375_2014-06-28_20-13-44_260595134347_rgbf000032-resize_1/002375_2014-06-28_20-13-44_260595134347_rgbf000032-resize_1-target.png,250,4.0175,54,1796,250,meters,jsons/v1_VE250_randls_72_rotated.json,396247,472027,40,Man
23,402334,DepthScenes,duration_manipulation_targetAtFixation,jsons/v1_VE250_randls_72_rotated.json,http://54.235.29.9/FacialAge/BNav_EC2/DepthDuration/v2_depth_duration_MTurk/v2_DepthDuration_HTML.html#110,110,1440,789,1440,900,8-20-2022,11-31-37,24,depth_duration_stimuli/003081_2014-06-15_15-19-16_094959634447_rgbf000150-resize_1/003081_2014-06-15_15-19-16_094959634447_rgbf000150-resize_1-target.png,250,3.9125,4,1770,250,meters,jsons/v1_VE250_randls_72_rotated.json,396247,472027,40,Man
24,402334,DepthScenes,duration_manipulation_targetAtFixation,jsons/v1_VE250_randls_72_rotated.json,http://54.235.29.9/FacialAge/BNav_EC2/DepthDuration/v2_depth_duration_MTurk/v2_DepthDuration_HTML.html#110,110,1440,789,1440,900,8-20-2022,11-31-37,25,depth_duration_stimuli/001417_2014-06-19_16-25-36_260595134347_rgbf000115-resize_5/001417_2014-06-19_16-25-36_260595134347_rgbf000115-resize_5-target.png,250,4.6255,3,2098,249,meters,jsons/v1_VE250_randls_72_rotated.json,396247,472027,40,Man
25,402334,DepthScenes,duration_manipulation_targetAtFixation,jsons/v1_VE250_randls_72_rotated.json,http://54.235.29.9/FacialAge/BNav_EC2/DepthDuration/v2_depth_duration_MTurk/v2_DepthDuration_HTML.html#110,110,1440,789,1440,900,8-20-2022,11-31-37,26,depth_duration_stimuli/000483_2014-06-09_20-41-45_260595134347_rgbf000116-resize_4/000483_2014-06-09_20-41-45_260595134347_rgbf000116-resize_4-target.png,250,1.337,2,1723,249,meters,jsons/v1_VE250_randls_72_rotated.json,396247,472027,40,Man
26,402334,DepthScenes,duration_manipulation_targetAtFixation,jsons/v1_VE250_randls_72_rotated.json,http://54.235.29.9/FacialAge/BNav_EC2/DepthDuration/v2_depth_duration_MTurk/v2_DepthDuration_HTML.html#110,110,1440,789,1440,900,8-20-2022,11-31-37,27,depth_duration_stimuli/000469_2014-06-09_19-42-10_260595134347_rgbf000081-resize_1/000469_2014-06-09_19-42-10_260595134347_rgbf000081-resize_1-target.png,250,1.652,1,2051,248,meters,jsons/v1_VE250_randls_72_rotated.json,396247,472027,40,Man
27,402334,DepthScenes,duration_manipulation_targetAtFixation,jsons/v1_VE250_randls_72_rotated.json,http://54.235.29.9/FacialAge/BNav_EC2/DepthDuration/v2_depth_duration_MTurk/v2_DepthDuration_HTML.html#110,110,1440,789,1440,900,8-20-2022,11-31-37,28,depth_duration_stimuli/001132_2014-06-17_14-48-54_260595134347_rgbf000100-resize_2/001132_2014-06-17_14-48-54_260595134347_rgbf000100-resize_2-target.png,250,3.753,9,2154,249,meters,jsons/v1_VE250_randls_72_rotated.json,396247,472027,40,Man
28,402334,DepthScenes,duration_manipulation_targetAtFixation,jsons/v1_VE250_randls_72_rotated.json,http://54.235.29.9/FacialAge/BNav_EC2/DepthDuration/v2_depth_duration_MTurk/v2_DepthDuration_HTML.html#110,110,1440,789,1440,900,8-20-2022,11-31-37,29,depth_duration_stimuli/001133_2014-06-17_14-49-16_260595134347_rgbf000100-resize_0/001133_2014-06-17_14-49-16_260595134347_rgbf000100-resize_0-target.png,250,4.2115,8,1793,250,meters,jsons/v1_VE250_randls_72_rotated.json,396247,472027,40,Man
29,402334,DepthScenes,duration_manipulation_targetAtFixation,jsons/v1_VE250_randls_72_rotated.json,http://54.235.29.9/FacialAge/BNav_EC2/DepthDuration/v2_depth_duration_MTurk/v2_DepthDuration_HTML.html#110,110,1440,789,1440,900,8-20-2022,11-31-37,30,depth_duration_stimuli/002072_2014-06-24_21-48-06_260595134347_rgbf000115-resize_0/002072_2014-06-24_21-48-06_260595134347_rgbf000115-resize-original.jpg,250,4.702,7,2706,249,meters,jsons/v1_VE250_randls_72_rotated.json,396247,472027,40,Man
30,402334,DepthScenes,duration_manipulation_targetAtFixation,jsons/v1_VE250_randls_72_rotated.json,http://54.235.29.9/FacialAge/BNav_EC2/DepthDuration/v2_depth_duration_MTurk/v2_DepthDuration_HTML.html#110,110,1440,789,1440,900,8-20-2022,11-31-37,31,depth_duration_stimuli/000866_2014-06-09_20-45-42_260595134347_rgbf000139-resize_1/000866_2014-06-09_20-45-42_260595134347_rgbf000139-resize_1-target.png,250,3.2155,6,1946,250,meters,jsons/v1_VE250_randls_72_rotated.json,396247,472027,40,Man
31,402334,DepthScenes,duration_manipulation_targetAtFixation,jsons/v1_VE250_randls_72_rotated.json,http://54.235.29.9/FacialAge/BNav_EC2/DepthDuration/v2_depth_duration_MTurk/v2_DepthDuration_HTML.html#110,110,1440,789,1440,900,8-20-2022,11-31-37,32,depth_duration_stimuli/002989_2014-06-15_12-25-03_094959634447_rgbf000150-resize_3/002989_2014-06-15_12-25-03_094959634447_rgbf000150-resize_3-target.png,250,4.1975,5,1978,248,meters,jsons/v1_VE250_randls_72_rotated.json,396247,472027,40,Man
32,402334,DepthScenes,duration_manipulation_targetAtFixation,jsons/v1_VE250_randls_72_rotated.json,http://54.235.29.9/FacialAge/BNav_EC2/DepthDuration/v2_depth_duration_MTurk/v2_DepthDuration_HTML.html#110,110,1440,789,1440,900,8-20-2022,11-31-37,33,depth_duration_stimuli/000709_2014-06-08_13-51-55_260595134347_rgbf000068-resize_3/000709_2014-06-08_13-51-55_260595134347_rgbf000068-resize_3-target.png,250,1.8030000000000002,4,1866,249,meters,jsons/v1_VE250_randls_72_rotated.json,396247,472027,40,Man
33,402334,DepthScenes,duration_manipulation_targetAtFixation,jsons/v1_VE250_randls_72_rotated.json,http://54.235.29.9/FacialAge/BNav_EC2/DepthDuration/v2_depth_duration_MTurk/v2_DepthDuration_HTML.html#110,110,1440,789,1440,900,8-20-2022,11-31-37,34,depth_duration_stimuli/002057_2014-06-24_21-00-13_260595134347_rgbf000120-resize_1/002057_2014-06-24_21-00-13_260595134347_rgbf000120-resize_1-target.png,250,2.967,3,1907,250,meters,jsons/v1_VE250_randls_72_rotated.json,396247,472027,40,Man
34,402334,DepthScenes,duration_manipulation_targetAtFixation,jsons/v1_VE250_randls_72_rotated.json,http://54.235.29.9/FacialAge/BNav_EC2/DepthDuration/v2_depth_duration_MTurk/v2_DepthDuration_HTML.html#110,110,1440,789,1440,900,8-20-2022,11-31-37,35,depth_duration_stimuli/002323_2014-06-28_20-01-54_260595134347_rgbf000051-resize_4/002323_2014-06-28_20-01-54_260595134347_rgbf000051-resize_4-target.png,250,3.7310000000000003,2,1882,250,meters,jsons/v1_VE250_randls_72_rotated.json,396247,472027,40,Man
35,402334,DepthScenes,duration_manipulation_targetAtFixation,jsons/v1_VE250_randls_72_rotated.json,http://54.235.29.9/FacialAge/BNav_EC2/DepthDuration/v2_depth_duration_MTurk/v2_DepthDuration_HTML.html#110,110,1440,789,1440,900,8-20-2022,11-31-37,36,depth_duration_stimuli/000917_2014-06-09_22-45-29_260595134347_rgbf000149-resize_3/000917_2014-06-09_22-45-29_260595134347_rgbf000149-resize_3-target.png,250,4.1865,1,2042,250,meters,jsons/v1_VE250_randls_72_rotated.json,396247,472027,40,Man
36,402334,DepthScenes,duration_manipulation_targetAtFixation,jsons/v1_VE250_randls_72_rotated.json,http://54.235.29.9/FacialAge/BNav_EC2/DepthDuration/v2_depth_duration_MTurk/v2_DepthDuration_HTML.html#110,110,1440,789,1440,900,8-20-2022,11-31-37,37,depth_duration_stimuli/000549_2014-06-08_22-10-24_260595134347_rgbf000247-resize_3/000549_2014-06-08_22-10-24_260595134347_rgbf000247-resize_3-target.png,250,1.841,9,1924,249,meters,jsons/v1_VE250_randls_72_rotated.json,396247,472027,40,Man
37,402334,DepthScenes,duration_manipulation_targetAtFixation,jsons/v1_VE250_randls_72_rotated.json,http://54.235.29.9/FacialAge/BNav_EC2/DepthDuration/v2_depth_duration_MTurk/v2_DepthDuration_HTML.html#110,110,1440,789,1440,900,8-20-2022,11-31-37,38,depth_duration_stimuli/001055_2014-06-08_18-45-35_260595134347_rgbf000111-resize_4/001055_2014-06-08_18-45-35_260595134347_rgbf000111-resize_4-target.png,250,2.4290000000000003,8,2306,250,meters,jsons/v1_VE250_randls_72_rotated.json,396247,472027,40,Man
38,402334,DepthScenes,duration_manipulation_targetAtFixation,jsons/v1_VE250_randls_72_rotated.json,http://54.235.29.9/FacialAge/BNav_EC2/DepthDuration/v2_depth_duration_MTurk/v2_DepthDuration_HTML.html#110,110,1440,789,1440,900,8-20-2022,11-31-37,39,depth_duration_stimuli/002414_2014-06-28_20-24-58_260595134347_rgbf000067-resize_4/002414_2014-06-28_20-24-58_260595134347_rgbf000067-resize_4-target.png,250,4.363,7,1843,249,meters,jsons/v1_VE250_randls_72_rotated.json,396247,472027,40,Man
39,402334,DepthScenes,duration_manipulation_targetAtFixation,jsons/v1_VE250_randls_72_rotated.json,http://54.235.29.9/FacialAge/BNav_EC2/DepthDuration/v2_depth_duration_MTurk/v2_DepthDuration_HTML.html#110,110,1440,789,1440,900,8-20-2022,11-31-37,40,depth_duration_stimuli/000773_2014-06-08_22-24-54_260595134347_rgbf000093-resize_1/000773_2014-06-08_22-24-54_260595134347_rgbf000093-resize_1-target.png,250,4.973,6,1857,249,meters,jsons/v1_VE250_randls_72_rotated.json,396247,472027,40,Man
40,402334,DepthScenes,duration_manipulation_targetAtFixation,jsons/v1_VE250_randls_72_rotated.json,http://54.235.29.9/FacialAge/BNav_EC2/DepthDuration/v2_depth_duration_MTurk/v2_DepthDuration_HTML.html#110,110,1440,789,1440,900,8-20-2022,11-31-37,41,depth_duration_stimuli/002875_2014-06-01_15-19-00_094959634447_rgbf000151-resize_1/002875_2014-06-01_15-19-00_094959634447_rgbf000151-resize_1-target.png,250,1.9675,5,1961,250,meters,jsons/v1_VE250_randls_72_rotated.json,396247,472027,40,Man
41,402334,DepthScenes,duration_manipulation_targetAtFixation,jsons/v1_VE250_randls_72_rotated.json,http://54.235.29.9/FacialAge/BNav_EC2/DepthDuration/v2_depth_duration_MTurk/v2_DepthDuration_HTML.html#110,110,1440,789,1440,900,8-20-2022,11-31-37,42,depth_duration_stimuli/001011_2014-06-08_23-18-54_260595134347_rgbf000044-resize_4/001011_2014-06-08_23-18-54_260595134347_rgbf000044-resize_4-target.png,250,2.4730000000000003,4,1938,249,meters,jsons/v1_VE250_randls_72_rotated.json,396247,472027,40,Man
42,402334,DepthScenes,duration_manipulation_targetAtFixation,jsons/v1_VE250_randls_72_rotated.json,http://54.235.29.9/FacialAge/BNav_EC2/DepthDuration/v2_depth_duration_MTurk/v2_DepthDuration_HTML.html#110,110,1440,789,1440,900,8-20-2022,11-31-37,43,depth_duration_stimuli/001571_2014-06-20_17-21-32_260595134347_rgbf000089-resize_1/001571_2014-06-20_17-21-32_260595134347_rgbf000089-resize_1-target.png,250,1.86,3,2172,250,meters,jsons/v1_VE250_randls_72_rotated.json,396247,472027,40,Man
43,402334,DepthScenes,duration_manipulation_targetAtFixation,jsons/v1_VE250_randls_72_rotated.json,http://54.235.29.9/FacialAge/BNav_EC2/DepthDuration/v2_depth_duration_MTurk/v2_DepthDuration_HTML.html#110,110,1440,789,1440,900,8-20-2022,11-31-37,44,depth_duration_stimuli/002272_2014-06-28_18-53-56_260595134347_rgbf000067-resize_2/002272_2014-06-28_18-53-56_260595134347_rgbf000067-resize_2-target.png,250,1.138,2,1843,250,meters,jsons/v1_VE250_randls_72_rotated.json,396247,472027,40,Man
44,402334,DepthScenes,duration_manipulation_targetAtFixation,jsons/v1_VE250_randls_72_rotated.json,http://54.235.29.9/FacialAge/BNav_EC2/DepthDuration/v2_depth_duration_MTurk/v2_DepthDuration_HTML.html#110,110,1440,789,1440,900,8-20-2022,11-31-37,45,depth_duration_stimuli/000635_2014-06-08_16-38-42_260595134347_rgbf000106-resize_1/000635_2014-06-08_16-38-42_260595134347_rgbf000106-resize_1-target.png,250,2.074,1,1919,250,meters,jsons/v1_VE250_randls_72_rotated.json,396247,472027,40,Man
45,402334,DepthScenes,duration_manipulation_targetAtFixation,jsons/v1_VE250_randls_72_rotated.json,http://54.235.29.9/FacialAge/BNav_EC2/DepthDuration/v2_depth_duration_MTurk/v2_DepthDuration_HTML.html#110,110,1440,789,1440,900,8-20-2022,11-31-37,46,depth_duration_stimuli/002279_2014-06-28_18-55-32_260595134347_rgbf000040-resize_5/002279_2014-06-28_18-55-32_260595134347_rgbf000040-resize_5-target.png,250,1.5043333333333,9,1754,249,meters,jsons/v1_VE250_randls_72_rotated.json,396247,472027,40,Man
46,402334,DepthScenes,duration_manipulation_targetAtFixation,jsons/v1_VE250_randls_72_rotated.json,http://54.235.29.9/FacialAge/BNav_EC2/DepthDuration/v2_depth_duration_MTurk/v2_DepthDuration_HTML.html#110,110,1440,789,1440,900,8-20-2022,11-31-37,47,depth_duration_stimuli/002637_2014-06-24_14-51-13_094959634447_rgbf000066-resize_4/002637_2014-06-24_14-51-13_094959634447_rgbf000066-resize_4-target.png,250,1.9955,8,1793,249,meters,jsons/v1_VE250_randls_72_rotated.json,396247,472027,40,Man
47,402334,DepthScenes,duration_manipulation_targetAtFixation,jsons/v1_VE250_randls_72_rotated.json,http://54.235.29.9/FacialAge/BNav_EC2/DepthDuration/v2_depth_duration_MTurk/v2_DepthDuration_HTML.html#110,110,1440,789,1440,900,8-20-2022,11-31-37,48,depth_duration_stimuli/003534_2014-05-22_15-06-10_094959634447_rgbf000102-resize_4/003534_2014-05-22_15-06-10_094959634447_rgbf000102-resize_4-target.png,250,1.426,79,2091,249,meters,jsons/v1_VE250_randls_72_rotated.json,396247,472027,40,Man
48,402334,DepthScenes,duration_manipulation_targetAtFixation,jsons/v1_VE250_randls_72_rotated.json,http://54.235.29.9/FacialAge/BNav_EC2/DepthDuration/v2_depth_duration_MTurk/v2_DepthDuration_HTML.html#110,110,1440,789,1440,900,8-20-2022,11-31-37,49,depth_duration_stimuli/001170_2014-06-17_15-43-44_260595134347_rgbf000096-resize_6/001170_2014-06-17_15-43-44_260595134347_rgbf000096-resize-original.jpg,250,1.1909999999999998,6,3138,250,meters,jsons/v1_VE250_randls_72_rotated.json,396247,472027,40,Man
49,402334,DepthScenes,duration_manipulation_targetAtFixation,jsons/v1_VE250_randls_72_rotated.json,http://54.235.29.9/FacialAge/BNav_EC2/DepthDuration/v2_depth_duration_MTurk/v2_DepthDuration_HTML.html#110,110,1440,789,1440,900,8-20-2022,11-31-37,50,depth_duration_stimuli/003495_2014-05-21_16-01-51_094959634447_rgbf000100-resize_3/003495_2014-05-21_16-01-51_094959634447_rgbf000100-resize_3-target.png,250,1.6255,5,1850,249,meters,jsons/v1_VE250_randls_72_rotated.json,396247,472027,40,Man
50,402334,DepthScenes,duration_manipulation_targetAtFixation,jsons/v1_VE250_randls_72_rotated.json,http://54.235.29.9/FacialAge/BNav_EC2/DepthDuration/v2_depth_duration_MTurk/v2_DepthDuration_HTML.html#110,110,1440,789,1440,900,8-20-2022,11-31-37,51,depth_duration_stimuli/001244_2014-06-17_16-47-45_260595134347_rgbf000030-resize_4/001244_2014-06-17_16-47-45_260595134347_rgbf000030-resize_4-target.png,250,2.0425,4,1844,248,meters,jsons/v1_VE250_randls_72_rotated.json,396247,472027,40,Man
51,402334,DepthScenes,duration_manipulation_targetAtFixation,jsons/v1_VE250_randls_72_rotated.json,http://54.235.29.9/FacialAge/BNav_EC2/DepthDuration/v2_depth_duration_MTurk/v2_DepthDuration_HTML.html#110,110,1440,789,1440,900,8-20-2022,11-31-37,52,depth_duration_stimuli/002805_2014-06-22_19-54-03_094959634447_rgbf000079-resize_1/002805_2014-06-22_19-54-03_094959634447_rgbf000079-resize_1-target.png,250,3.1439999999999997,3,2111,249,meters,jsons/v1_VE250_randls_72_rotated.json,396247,472027,40,Man
52,402334,DepthScenes,duration_manipulation_targetAtFixation,jsons/v1_VE250_randls_72_rotated.json,http://54.235.29.9/FacialAge/BNav_EC2/DepthDuration/v2_depth_duration_MTurk/v2_DepthDuration_HTML.html#110,110,1440,789,1440,900,8-20-2022,11-31-37,53,depth_duration_stimuli/000906_2014-06-08_13-35-43_260595134347_rgbf000155-resize_1/000906_2014-06-08_13-35-43_260595134347_rgbf000155-resize_1-target.png,250,2.8489999999999998,2,2026,250,meters,jsons/v1_VE250_randls_72_rotated.json,396247,472027,40,Man
53,402334,DepthScenes,duration_manipulation_targetAtFixation,jsons/v1_VE250_randls_72_rotated.json,http://54.235.29.9/FacialAge/BNav_EC2/DepthDuration/v2_depth_duration_MTurk/v2_DepthDuration_HTML.html#110,110,1440,789,1440,900,8-20-2022,11-31-37,54,depth_duration_stimuli/003338_2014-05-20_11-01-23_094959634447_rgbf000051-resize_6/003338_2014-05-20_11-01-23_094959634447_rgbf000051-resize_6-target.png,250,1.693,1,1810,250,meters,jsons/v1_VE250_randls_72_rotated.json,396247,472027,40,Man
54,402334,DepthScenes,duration_manipulation_targetAtFixation,jsons/v1_VE250_randls_72_rotated.json,http://54.235.29.9/FacialAge/BNav_EC2/DepthDuration/v2_depth_duration_MTurk/v2_DepthDuration_HTML.html#110,110,1440,789,1440,900,8-20-2022,11-31-37,55,depth_duration_stimuli/002509_2014-06-24_13-19-22_094959634447_rgbf000077-resize_0/002509_2014-06-24_13-19-22_094959634447_rgbf000077-resize_0-target.png,250,1.3065,9,1874,249,meters,jsons/v1_VE250_randls_72_rotated.json,396247,472027,40,Man
55,402334,DepthScenes,duration_manipulation_targetAtFixation,jsons/v1_VE250_randls_72_rotated.json,http://54.235.29.9/FacialAge/BNav_EC2/DepthDuration/v2_depth_duration_MTurk/v2_DepthDuration_HTML.html#110,110,1440,789,1440,900,8-20-2022,11-31-37,56,depth_duration_stimuli/001094_2014-06-15_17-36-00_260595134347_rgbf000205-resize_0/001094_2014-06-15_17-36-00_260595134347_rgbf000205-resize_0-target.png,250,4.2175,8,1778,249,meters,jsons/v1_VE250_randls_72_rotated.json,396247,472027,40,Man
56,402334,DepthScenes,duration_manipulation_targetAtFixation,jsons/v1_VE250_randls_72_rotated.json,http://54.235.29.9/FacialAge/BNav_EC2/DepthDuration/v2_depth_duration_MTurk/v2_DepthDuration_HTML.html#110,110,1440,789,1440,900,8-20-2022,11-31-37,57,depth_duration_stimuli/000692_2014-06-08_13-09-42_260595134347_rgbf000199-resize_2/000692_2014-06-08_13-09-42_260595134347_rgbf000199-resize_2-target.png,250,3.661,7,1802,249,meters,jsons/v1_VE250_randls_72_rotated.json,396247,472027,40,Man
57,402334,DepthScenes,duration_manipulation_targetAtFixation,jsons/v1_VE250_randls_72_rotated.json,http://54.235.29.9/FacialAge/BNav_EC2/DepthDuration/v2_depth_duration_MTurk/v2_DepthDuration_HTML.html#110,110,1440,789,1440,900,8-20-2022,11-31-37,58,depth_duration_stimuli/000749_2014-06-08_21-55-06_260595134347_rgbf000070-resize_2/000749_2014-06-08_21-55-06_260595134347_rgbf000070-resize_2-target.png,250,2.331,6,1988,249,meters,jsons/v1_VE250_randls_72_rotated.json,396247,472027,40,Man
58,402334,DepthScenes,duration_manipulation_targetAtFixation,jsons/v1_VE250_randls_72_rotated.json,http://54.235.29.9/FacialAge/BNav_EC2/DepthDuration/v2_depth_duration_MTurk/v2_DepthDuration_HTML.html#110,110,1440,789,1440,900,8-20-2022,11-31-37,59,depth_duration_stimuli/002788_2014-06-22_19-36-03_094959634447_rgbf000088-resize_2/002788_2014-06-22_19-36-03_094959634447_rgbf000088-resize_2-target.png,250,1.6465,5,1800,250,meters,jsons/v1_VE250_randls_72_rotated.json,396247,472027,40,Man
59,402334,DepthScenes,duration_manipulation_targetAtFixation,jsons/v1_VE250_randls_72_rotated.json,http://54.235.29.9/FacialAge/BNav_EC2/DepthDuration/v2_depth_duration_MTurk/v2_DepthDuration_HTML.html#110,110,1440,789,1440,900,8-20-2022,11-31-37,60,depth_duration_stimuli/002103_2014-06-25_20-00-40_260595134347_rgbf000049-resize_0/002103_2014-06-25_20-00-40_260595134347_rgbf000049-resize_0-target.png,250,4.105,4,2042,250,meters,jsons/v1_VE250_randls_72_rotated.json,396247,472027,40,Man
60,402334,DepthScenes,duration_manipulation_targetAtFixation,jsons/v1_VE250_randls_72_rotated.json,http://54.235.29.9/FacialAge/BNav_EC2/DepthDuration/v2_depth_duration_MTurk/v2_DepthDuration_HTML.html#110,110,1440,789,1440,900,8-20-2022,11-31-37,61,depth_duration_stimuli/002039_2014-06-24_20-22-38_260595134347_rgbf000084-resize_1/002039_2014-06-24_20-22-38_260595134347_rgbf000084-resize_1-target.png,250,4.408,3,1938,249,meters,jsons/v1_VE250_randls_72_rotated.json,396247,472027,40,Man
61,402334,DepthScenes,duration_manipulation_targetAtFixation,jsons/v1_VE250_randls_72_rotated.json,http://54.235.29.9/FacialAge/BNav_EC2/DepthDuration/v2_depth_duration_MTurk/v2_DepthDuration_HTML.html#110,110,1440,789,1440,900,8-20-2022,11-31-37,62,depth_duration_stimuli/000780_2014-06-08_22-28-29_260595134347_rgbf000126-resize_1/000780_2014-06-08_22-28-29_260595134347_rgbf000126-resize_1-target.png,250,3.3825,2,2123,248,meters,jsons/v1_VE250_randls_72_rotated.json,396247,472027,40,Man
62,402334,DepthScenes,duration_manipulation_targetAtFixation,jsons/v1_VE250_randls_72_rotated.json,http://54.235.29.9/FacialAge/BNav_EC2/DepthDuration/v2_depth_duration_MTurk/v2_DepthDuration_HTML.html#110,110,1440,789,1440,900,8-20-2022,11-31-37,63,depth_duration_stimuli/002445_2014-06-28_20-32-16_260595134347_rgbf000029-resize_4/002445_2014-06-28_20-32-16_260595134347_rgbf000029-resize_4-target.png,250,2.5315,1,2218,249,meters,jsons/v1_VE250_randls_72_rotated.json,396247,472027,40,Man
63,402334,DepthScenes,duration_manipulation_targetAtFixation,jsons/v1_VE250_randls_72_rotated.json,http://54.235.29.9/FacialAge/BNav_EC2/DepthDuration/v2_depth_duration_MTurk/v2_DepthDuration_HTML.html#110,110,1440,789,1440,900,8-20-2022,11-31-37,64,depth_duration_stimuli/003228_2014-05-14_13-42-35_094959634447_rgbf000101-resize_1/003228_2014-05-14_13-42-35_094959634447_rgbf000101-resize_1-target.png,250,1.9680000000000002,9,7113,249,meters,jsons/v1_VE250_randls_72_rotated.json,396247,472027,40,Man
64,402334,DepthScenes,duration_manipulation_targetAtFixation,jsons/v1_VE250_randls_72_rotated.json,http://54.235.29.9/FacialAge/BNav_EC2/DepthDuration/v2_depth_duration_MTurk/v2_DepthDuration_HTML.html#110,110,1440,789,1440,900,8-20-2022,11-31-37,65,depth_duration_stimuli/002600_2014-06-24_14-27-04_094959634447_rgbf000074-resize_2/002600_2014-06-24_14-27-04_094959634447_rgbf000074-resize_2-target.png,250,2.7575,8,1929,250,meters,jsons/v1_VE250_randls_72_rotated.json,396247,472027,40,Man
65,402334,DepthScenes,duration_manipulation_targetAtFixation,jsons/v1_VE250_randls_72_rotated.json,http://54.235.29.9/FacialAge/BNav_EC2/DepthDuration/v2_depth_duration_MTurk/v2_DepthDuration_HTML.html#110,110,1440,789,1440,900,8-20-2022,11-31-37,66,depth_duration_stimuli/001540_2014-06-20_17-01-05_260595134347_rgbf000086-resize_2/001540_2014-06-20_17-01-05_260595134347_rgbf000086-resize-original.jpg,250,1.459,7,1707,250,meters,jsons/v1_VE250_randls_72_rotated.json,396247,472027,40,Man
66,402334,DepthScenes,duration_manipulation_targetAtFixation,jsons/v1_VE250_randls_72_rotated.json,http://54.235.29.9/FacialAge/BNav_EC2/DepthDuration/v2_depth_duration_MTurk/v2_DepthDuration_HTML.html#110,110,1440,789,1440,900,8-20-2022,11-31-37,67,depth_duration_stimuli/003048_2014-06-15_13-49-43_094959634447_rgbf000150-resize_1/003048_2014-06-15_13-49-43_094959634447_rgbf000150-resize_1-target.png,250,4.0035,6,1626,249,meters,jsons/v1_VE250_randls_72_rotated.json,396247,472027,40,Man
67,402334,DepthScenes,duration_manipulation_targetAtFixation,jsons/v1_VE250_randls_72_rotated.json,http://54.235.29.9/FacialAge/BNav_EC2/DepthDuration/v2_depth_duration_MTurk/v2_DepthDuration_HTML.html#110,110,1440,789,1440,900,8-20-2022,11-31-37,68,depth_duration_stimuli/002043_2014-06-24_20-29-38_260595134347_rgbf000039-resize_4/002043_2014-06-24_20-29-38_260595134347_rgbf000039-resize_4-target.png,250,2.8435,5,1802,249,meters,jsons/v1_VE250_randls_72_rotated.json,396247,472027,40,Man
68,402334,DepthScenes,duration_manipulation_targetAtFixation,jsons/v1_VE250_randls_72_rotated.json,http://54.235.29.9/FacialAge/BNav_EC2/DepthDuration/v2_depth_duration_MTurk/v2_DepthDuration_HTML.html#110,110,1440,789,1440,900,8-20-2022,11-31-37,69,depth_duration_stimuli/000137_2014-05-20_17-04-49_260595134347_rgbf000120-resize_1/000137_2014-05-20_17-04-49_260595134347_rgbf000120-resize_1-target.png,250,3.786,4,1851,250,meters,jsons/v1_VE250_randls_72_rotated.json,396247,472027,40,Man
69,402334,DepthScenes,duration_manipulation_targetAtFixation,jsons/v1_VE250_randls_72_rotated.json,http://54.235.29.9/FacialAge/BNav_EC2/DepthDuration/v2_depth_duration_MTurk/v2_DepthDuration_HTML.html#110,110,1440,789,1440,900,8-20-2022,11-31-37,70,depth_duration_stimuli/000736_2014-06-08_18-24-15_260595134347_rgbf000206-resize_3/000736_2014-06-08_18-24-15_260595134347_rgbf000206-resize_3-target.png,250,3.515,3,1770,249,meters,jsons/v1_VE250_randls_72_rotated.json,396247,472027,40,Man
70,402334,DepthScenes,duration_manipulation_targetAtFixation,jsons/v1_VE250_randls_72_rotated.json,http://54.235.29.9/FacialAge/BNav_EC2/DepthDuration/v2_depth_duration_MTurk/v2_DepthDuration_HTML.html#110,110,1440,789,1440,900,8-20-2022,11-31-37,71,depth_duration_stimuli/003423_2014-05-21_10-23-26_094959634447_rgbf002665-resize_2/003423_2014-05-21_10-23-26_094959634447_rgbf002665-resize_2-target.png,250,3.2575,2,2059,249,meters,jsons/v1_VE250_randls_72_rotated.json,396247,472027,40,Man
71,402334,DepthScenes,duration_manipulation_targetAtFixation,jsons/v1_VE250_randls_72_rotated.json,http://54.235.29.9/FacialAge/BNav_EC2/DepthDuration/v2_depth_duration_MTurk/v2_DepthDuration_HTML.html#110,110,1440,789,1440,900,8-20-2022,11-31-37,72,depth_duration_stimuli/002905_2014-06-03_18-04-43_094959634447_rgbf000151-resize_2/002905_2014-06-03_18-04-43_094959634447_rgbf000151-resize_2-target.png,250,2.0295,1,1738,250,meters,jsons/v1_VE250_randls_72_rotated.json,396247,472027,40,Man
72,402334,DepthScenes,duration_manipulation_targetAtFixation,jsons/v1_VE250_randls_72_rotated.json,http://54.235.29.9/FacialAge/BNav_EC2/DepthDuration/v2_depth_duration_MTurk/v2_DepthDuration_HTML.html#110,110,1440,789,1440,900,8-20-2022,11-31-37,73,depth_duration_stimuli/002660_2014-06-13_15-44-18_094959634447_rgbf001878-resize_2/002660_2014-06-13_15-44-18_094959634447_rgbf001878-resize_2-target.png,250,3.576,9,1746,250,meters,jsons/v1_VE250_randls_72_rotated.json,396247,472027,40,Man
73,402334,DepthScenes,duration_manipulation_targetAtFixation,jsons/v1_VE250_randls_72_rotated.json,http://54.235.29.9/FacialAge/BNav_EC2/DepthDuration/v2_depth_duration_MTurk/v2_DepthDuration_HTML.html#110,110,1440,789,1440,900,8-20-2022,11-31-37,74,depth_duration_stimuli/002153_2014-06-25_21-27-18_260595134347_rgbf000038-resize_5/002153_2014-06-25_21-27-18_260595134347_rgbf000038-resize_5-target.png,250,2.505,8,1858,250,meters,jsons/v1_VE250_randls_72_rotated.json,396247,472027,40,Man
74,402334,DepthScenes,duration_manipulation_targetAtFixation,jsons/v1_VE250_randls_72_rotated.json,http://54.235.29.9/FacialAge/BNav_EC2/DepthDuration/v2_depth_duration_MTurk/v2_DepthDuration_HTML.html#110,110,1440,789,1440,900,8-20-2022,11-31-37,75,depth_duration_stimuli/000556_2014-06-09_22-42-56_260595134347_rgbf000214-resize_1/000556_2014-06-09_22-42-56_260595134347_rgbf000214-resize_1-target.png,250,4.8415,7,2203,250,meters,jsons/v1_VE250_randls_72_rotated.json,396247,472027,40,Man
75,402334,DepthScenes,duration_manipulation_targetAtFixation,jsons/v1_VE250_randls_72_rotated.json,http://54.235.29.9/FacialAge/BNav_EC2/DepthDuration/v2_depth_duration_MTurk/v2_DepthDuration_HTML.html#110,110,1440,789,1440,900,8-20-2022,11-31-37,76,depth_duration_stimuli/001158_2014-06-17_15-32-16_260595134347_rgbf000138-resize_2/001158_2014-06-17_15-32-16_260595134347_rgbf000138-resize_2-target.png,250,4.5315,6,2035,249,meters,jsons/v1_VE250_randls_72_rotated.json,396247,472027,40,Man
76,402334,DepthScenes,duration_manipulation_targetAtFixation,jsons/v1_VE250_randls_72_rotated.json,http://54.235.29.9/FacialAge/BNav_EC2/DepthDuration/v2_depth_duration_MTurk/v2_DepthDuration_HTML.html#110,110,1440,789,1440,900,8-20-2022,11-31-37,77,depth_duration_stimuli/003079_2014-06-15_15-18-20_094959634447_rgbf000152-resize_8/003079_2014-06-15_15-18-20_094959634447_rgbf000152-resize_8-target.png,250,2.8775,5,1794,249,meters,jsons/v1_VE250_randls_72_rotated.json,396247,472027,40,Man
77,402334,DepthScenes,duration_manipulation_targetAtFixation,jsons/v1_VE250_randls_72_rotated.json,http://54.235.29.9/FacialAge/BNav_EC2/DepthDuration/v2_depth_duration_MTurk/v2_DepthDuration_HTML.html#110,110,1440,789,1440,900,8-20-2022,11-31-37,78,depth_duration_stimuli/000506_2014-06-08_23-21-00_260595134347_rgbf000070-resize_7/000506_2014-06-08_23-21-00_260595134347_rgbf000070-resize_7-target.png,250,4.0585,4,1866,249,meters,jsons/v1_VE250_randls_72_rotated.json,396247,472027,40,Man
78,402334,DepthScenes,duration_manipulation_targetAtFixation,jsons/v1_VE250_randls_72_rotated.json,http://54.235.29.9/FacialAge/BNav_EC2/DepthDuration/v2_depth_duration_MTurk/v2_DepthDuration_HTML.html#110,110,1440,789,1440,900,8-20-2022,11-31-37,79,depth_duration_stimuli/000943_2014-06-09_19-31-07_260595134347_rgbf000128-resize_1/000943_2014-06-09_19-31-07_260595134347_rgbf000128-resize_1-target.png,250,1.9765,3,1746,248,meters,jsons/v1_VE250_randls_72_rotated.json,396247,472027,40,Man
79,402334,DepthScenes,duration_manipulation_targetAtFixation,jsons/v1_VE250_randls_72_rotated.json,http://54.235.29.9/FacialAge/BNav_EC2/DepthDuration/v2_depth_duration_MTurk/v2_DepthDuration_HTML.html#110,110,1440,789,1440,900,8-20-2022,11-31-37,80,depth_duration_stimuli/003070_2014-06-15_14-58-27_094959634447_rgbf000150-resize_3/003070_2014-06-15_14-58-27_094959634447_rgbf000150-resize_3-target.png,250,2.9415,2,1763,249,meters,jsons/v1_VE250_randls_72_rotated.json,396247,472027,40,Man
80,402334,DepthScenes,duration_manipulation_targetAtFixation,jsons/v1_VE250_randls_72_rotated.json,http://54.235.29.9/FacialAge/BNav_EC2/DepthDuration/v2_depth_duration_MTurk/v2_DepthDuration_HTML.html#110,110,1440,789,1440,900,8-20-2022,11-31-37,81,depth_duration_stimuli/000677_2014-06-08_23-10-32_260595134347_rgbf000158-resize_6/000677_2014-06-08_23-10-32_260595134347_rgbf000158-resize_6-target.png,250,3.556,1,1969,249,meters,jsons/v1_VE250_randls_72_rotated.json,396247,472027,40,Man
81,402334,DepthScenes,duration_manipulation_targetAtFixation,jsons/v1_VE250_randls_72_rotated.json,http://54.235.29.9/FacialAge/BNav_EC2/DepthDuration/v2_depth_duration_MTurk/v2_DepthDuration_HTML.html#110,110,1440,789,1440,900,8-20-2022,11-31-37,82,depth_duration_stimuli/001029_2014-06-08_13-17-57_260595134347_rgbf000065-resize_1/001029_2014-06-08_13-17-57_260595134347_rgbf000065-resize_1-target.png,250,3.0835,9,4778,249,meters,jsons/v1_VE250_randls_72_rotated.json,396247,472027,40,Man
82,402334,DepthScenes,duration_manipulation_targetAtFixation,jsons/v1_VE250_randls_72_rotated.json,http://54.235.29.9/FacialAge/BNav_EC2/DepthDuration/v2_depth_duration_MTurk/v2_DepthDuration_HTML.html#110,110,1440,789,1440,900,8-20-2022,11-31-37,83,depth_duration_stimuli/000103_2014-05-14_22-01-17_260595134347_rgbf000152-resize_5/000103_2014-05-14_22-01-17_260595134347_rgbf000152-resize_5-target.png,250,1.993,8,1818,249,meters,jsons/v1_VE250_randls_72_rotated.json,396247,472027,40,Man
83,402334,DepthScenes,duration_manipulation_targetAtFixation,jsons/v1_VE250_randls_72_rotated.json,http://54.235.29.9/FacialAge/BNav_EC2/DepthDuration/v2_depth_duration_MTurk/v2_DepthDuration_HTML.html#110,110,1440,789,1440,900,8-20-2022,11-31-37,84,depth_duration_stimuli/001555_2014-06-20_17-12-10_260595134347_rgbf000065-resize_4/001555_2014-06-20_17-12-10_260595134347_rgbf000065-resize_4-target.png,250,1.633,7,1769,250,meters,jsons/v1_VE250_randls_72_rotated.json,396247,472027,40,Man
84,402334,DepthScenes,duration_manipulation_targetAtFixation,jsons/v1_VE250_randls_72_rotated.json,http://54.235.29.9/FacialAge/BNav_EC2/DepthDuration/v2_depth_duration_MTurk/v2_DepthDuration_HTML.html#110,110,1440,789,1440,900,8-20-2022,11-31-37,85,depth_duration_stimuli/001516_2014-06-20_16-25-09_260595134347_rgbf000076-resize_2/001516_2014-06-20_16-25-09_260595134347_rgbf000076-resize_2-target.png,250,1.7445,6,1635,250,meters,jsons/v1_VE250_randls_72_rotated.json,396247,472027,40,Man
85,402334,DepthScenes,duration_manipulation_targetAtFixation,jsons/v1_VE250_randls_72_rotated.json,http://54.235.29.9/FacialAge/BNav_EC2/DepthDuration/v2_depth_duration_MTurk/v2_DepthDuration_HTML.html#110,110,1440,789,1440,900,8-20-2022,11-31-37,86,depth_duration_stimuli/002118_2014-06-25_20-32-08_260595134347_rgbf000078-resize_1/002118_2014-06-25_20-32-08_260595134347_rgbf000078-resize_1-target.png,250,2.6460000000000004,5,1715,249,meters,jsons/v1_VE250_randls_72_rotated.json,396247,472027,40,Man
86,402334,DepthScenes,duration_manipulation_targetAtFixation,jsons/v1_VE250_randls_72_rotated.json,http://54.235.29.9/FacialAge/BNav_EC2/DepthDuration/v2_depth_duration_MTurk/v2_DepthDuration_HTML.html#110,110,1440,789,1440,900,8-20-2022,11-31-37,87,depth_duration_stimuli/002758_2014-06-22_19-11-20_094959634447_rgbf000128-resize_1/002758_2014-06-22_19-11-20_094959634447_rgbf000128-resize_1-target.png,250,2.555,4,1738,250,meters,jsons/v1_VE250_randls_72_rotated.json,396247,472027,40,Man
87,402334,DepthScenes,duration_manipulation_targetAtFixation,jsons/v1_VE250_randls_72_rotated.json,http://54.235.29.9/FacialAge/BNav_EC2/DepthDuration/v2_depth_duration_MTurk/v2_DepthDuration_HTML.html#110,110,1440,789,1440,900,8-20-2022,11-31-37,88,depth_duration_stimuli/002630_2014-06-24_14-47-50_094959634447_rgbf000055-resize_1/002630_2014-06-24_14-47-50_094959634447_rgbf000055-resize_1-target.png,250,3.0095,3,1722,250,meters,jsons/v1_VE250_randls_72_rotated.json,396247,472027,40,Man
88,402334,DepthScenes,duration_manipulation_targetAtFixation,jsons/v1_VE250_randls_72_rotated.json,http://54.235.29.9/FacialAge/BNav_EC2/DepthDuration/v2_depth_duration_MTurk/v2_DepthDuration_HTML.html#110,110,1440,789,1440,900,8-20-2022,11-31-37,89,depth_duration_stimuli/002425_2014-06-28_20-27-29_260595134347_rgbf000031-resize_8/002425_2014-06-28_20-27-29_260595134347_rgbf000031-resize_8-target.png,250,3.8960000000000004,2,2059,249,meters,jsons/v1_VE250_randls_72_rotated.json,396247,472027,40,Man
89,402334,DepthScenes,duration_manipulation_targetAtFixation,jsons/v1_VE250_randls_72_rotated.json,http://54.235.29.9/FacialAge/BNav_EC2/DepthDuration/v2_depth_duration_MTurk/v2_DepthDuration_HTML.html#110,110,1440,789,1440,900,8-20-2022,11-31-37,90,depth_duration_stimuli/000642_2014-06-08_16-59-25_260595134347_rgbf000098-resize_2/000642_2014-06-08_16-59-25_260595134347_rgbf000098-resize_2-target.png,250,2.8815,1,1843,249,meters,jsons/v1_VE250_randls_72_rotated.json,396247,472027,40,Man
90,402334,DepthScenes,duration_manipulation_targetAtFixation,jsons/v1_VE250_randls_72_rotated.json,http://54.235.29.9/FacialAge/BNav_EC2/DepthDuration/v2_depth_duration_MTurk/v2_DepthDuration_HTML.html#110,110,1440,789,1440,900,8-20-2022,11-31-37,91,depth_duration_stimuli/001828_2014-06-26_21-40-03_260595134347_rgbf000024-resize_0/001828_2014-06-26_21-40-03_260595134347_rgbf000024-resize_0-target.png,250,4.8260000000000005,9,1793,249,meters,jsons/v1_VE250_randls_72_rotated.json,396247,472027,40,Man
91,402334,DepthScenes,duration_manipulation_targetAtFixation,jsons/v1_VE250_randls_72_rotated.json,http://54.235.29.9/FacialAge/BNav_EC2/DepthDuration/v2_depth_duration_MTurk/v2_DepthDuration_HTML.html#110,110,1440,789,1440,900,8-20-2022,11-31-37,92,depth_duration_stimuli/000009_2014-05-26_14-32-05_260595134347_rgbf000034-resize_3/000009_2014-05-26_14-32-05_260595134347_rgbf000034-resize_3-target.png,250,3.8715,8,1874,250,meters,jsons/v1_VE250_randls_72_rotated.json,396247,472027,40,Man
92,402334,DepthScenes,duration_manipulation_targetAtFixation,jsons/v1_VE250_randls_72_rotated.json,http://54.235.29.9/FacialAge/BNav_EC2/DepthDuration/v2_depth_duration_MTurk/v2_DepthDuration_HTML.html#110,110,1440,789,1440,900,8-20-2022,11-31-37,93,depth_duration_stimuli/001032_2014-06-08_13-23-17_260595134347_rgbf000021-resize_3/001032_2014-06-08_13-23-17_260595134347_rgbf000021-resize_3-target.png,250,3.2725,7,1667,248,meters,jsons/v1_VE250_randls_72_rotated.json,396247,472027,40,Man
93,402334,DepthScenes,duration_manipulation_targetAtFixation,jsons/v1_VE250_randls_72_rotated.json,http://54.235.29.9/FacialAge/BNav_EC2/DepthDuration/v2_depth_duration_MTurk/v2_DepthDuration_HTML.html#110,110,1440,789,1440,900,8-20-2022,11-31-37,94,depth_duration_stimuli/001059_2014-06-08_21-53-27_260595134347_rgbf000061-resize_4/001059_2014-06-08_21-53-27_260595134347_rgbf000061-resize_4-target.png,250,2.4185,6,2100,249,meters,jsons/v1_VE250_randls_72_rotated.json,396247,472027,40,Man
94,402334,DepthScenes,duration_manipulation_targetAtFixation,jsons/v1_VE250_randls_72_rotated.json,http://54.235.29.9/FacialAge/BNav_EC2/DepthDuration/v2_depth_duration_MTurk/v2_DepthDuration_HTML.html#110,110,1440,789,1440,900,8-20-2022,11-31-37,95,depth_duration_stimuli/001584_2014-06-20_11-07-43_260595134347_rgbf000002-resize_1/001584_2014-06-20_11-07-43_260595134347_rgbf000002-resize_1-target.png,250,3.53,5,2120,250,meters,jsons/v1_VE250_randls_72_rotated.json,396247,472027,40,Man
95,402334,DepthScenes,duration_manipulation_targetAtFixation,jsons/v1_VE250_randls_72_rotated.json,http://54.235.29.9/FacialAge/BNav_EC2/DepthDuration/v2_depth_duration_MTurk/v2_DepthDuration_HTML.html#110,110,1440,789,1440,900,8-20-2022,11-31-37,96,depth_duration_stimuli/003621_2014-05-23_18-06-08_094959634447_rgbf000101-resize_1/003621_2014-05-23_18-06-08_094959634447_rgbf000101-resize_1-target.png,250,3.9835,4,1754,248,meters,jsons/v1_VE250_randls_72_rotated.json,396247,472027,40,Man
96,402334,DepthScenes,duration_manipulation_targetAtFixation,jsons/v1_VE250_randls_72_rotated.json,http://54.235.29.9/FacialAge/BNav_EC2/DepthDuration/v2_depth_duration_MTurk/v2_DepthDuration_HTML.html#110,110,1440,789,1440,900,8-20-2022,11-31-37,97,depth_duration_stimuli/002344_2014-06-28_20-06-29_260595134347_rgbf000030-resize_1/002344_2014-06-28_20-06-29_260595134347_rgbf000030-resize_1-target.png,250,1.5795,3,1931,250,meters,jsons/v1_VE250_randls_72_rotated.json,396247,472027,40,Man
97,402334,DepthScenes,duration_manipulation_targetAtFixation,jsons/v1_VE250_randls_72_rotated.json,http://54.235.29.9/FacialAge/BNav_EC2/DepthDuration/v2_depth_duration_MTurk/v2_DepthDuration_HTML.html#110,110,1440,789,1440,900,8-20-2022,11-31-37,98,depth_duration_stimuli/002725_2014-06-22_11-47-51_094959634447_rgbf000070-resize_1/002725_2014-06-22_11-47-51_094959634447_rgbf000070-resize_1-target.png,250,2.195,2,1834,249,meters,jsons/v1_VE250_randls_72_rotated.json,396247,472027,40,Man
98,402334,DepthScenes,duration_manipulation_targetAtFixation,jsons/v1_VE250_randls_72_rotated.json,http://54.235.29.9/FacialAge/BNav_EC2/DepthDuration/v2_depth_duration_MTurk/v2_DepthDuration_HTML.html#110,110,1440,789,1440,900,8-20-2022,11-31-37,99,depth_duration_stimuli/001222_2014-06-17_16-24-06_260595134347_rgbf000073-resize_0/001222_2014-06-17_16-24-06_260595134347_rgbf000073-resize-original.jpg,250,1.4385,1,1779,248,meters,jsons/v1_VE250_randls_72_rotated.json,396247,472027,40,Man
99,402334,DepthScenes,duration_manipulation_targetAtFixation,jsons/v1_VE250_randls_72_rotated.json,http://54.235.29.9/FacialAge/BNav_EC2/DepthDuration/v2_depth_duration_MTurk/v2_DepthDuration_HTML.html#110,110,1440,789,1440,900,8-20-2022,11-31-37,100,depth_duration_stimuli/002995_2014-06-15_12-31-26_094959634447_rgbf000150-resize_1/002995_2014-06-15_12-31-26_094959634447_rgbf000150-resize_1-target.png,250,3.8360000000000003,9,1771,248,meters,jsons/v1_VE250_randls_72_rotated.json,396247,472027,40,Man
100,402334,DepthScenes,duration_manipulation_targetAtFixation,jsons/v1_VE250_randls_72_rotated.json,http://54.235.29.9/FacialAge/BNav_EC2/DepthDuration/v2_depth_duration_MTurk/v2_DepthDuration_HTML.html#110,110,1440,789,1440,900,8-20-2022,11-31-37,101,depth_duration_stimuli/002748_2014-06-22_19-07-22_094959634447_rgbf000078-resize_1/002748_2014-06-22_19-07-22_094959634447_rgbf000078-resize_1-target.png,250,4.6705,8,1785,250,meters,jsons/v1_VE250_randls_72_rotated.json,396247,472027,40,Man
101,402334,DepthScenes,duration_manipulation_targetAtFixation,jsons/v1_VE250_randls_72_rotated.json,http://54.235.29.9/FacialAge/BNav_EC2/DepthDuration/v2_depth_duration_MTurk/v2_DepthDuration_HTML.html#110,110,1440,789,1440,900,8-20-2022,11-31-37,102,depth_duration_stimuli/001052_2014-06-08_18-24-54_260595134347_rgbf000130-resize_1/001052_2014-06-08_18-24-54_260595134347_rgbf000130-resize_1-target.png,250,4.1045,7,1690,249,meters,jsons/v1_VE250_randls_72_rotated.json,396247,472027,40,Man
102,402334,DepthScenes,duration_manipulation_targetAtFixation,jsons/v1_VE250_randls_72_rotated.json,http://54.235.29.9/FacialAge/BNav_EC2/DepthDuration/v2_depth_duration_MTurk/v2_DepthDuration_HTML.html#110,110,1440,789,1440,900,8-20-2022,11-31-37,103,depth_duration_stimuli/002988_2014-06-15_12-24-20_094959634447_rgbf000150-resize_1/002988_2014-06-15_12-24-20_094959634447_rgbf000150-resize_1-target.png,250,4.7669999999999995,6,1498,250,meters,jsons/v1_VE250_randls_72_rotated.json,396247,472027,40,Man
103,402334,DepthScenes,duration_manipulation_targetAtFixation,jsons/v1_VE250_randls_72_rotated.json,http://54.235.29.9/FacialAge/BNav_EC2/DepthDuration/v2_depth_duration_MTurk/v2_DepthDuration_HTML.html#110,110,1440,789,1440,900,8-20-2022,11-31-37,104,depth_duration_stimuli/001392_2014-06-19_16-07-59_260595134347_rgbf000046-resize_1/001392_2014-06-19_16-07-59_260595134347_rgbf000046-resize_1-target.png,250,4.135,5,1706,250,meters,jsons/v1_VE250_randls_72_rotated.json,396247,472027,40,Man
104,402334,DepthScenes,duration_manipulation_targetAtFixation,jsons/v1_VE250_randls_72_rotated.json,http://54.235.29.9/FacialAge/BNav_EC2/DepthDuration/v2_depth_duration_MTurk/v2_DepthDuration_HTML.html#110,110,1440,789,1440,900,8-20-2022,11-31-37,105,depth_duration_stimuli/001570_2014-06-20_17-21-09_260595134347_rgbf000135-resize_4/001570_2014-06-20_17-21-09_260595134347_rgbf000135-resize_4-target.png,250,4.467,4,1530,248,meters,jsons/v1_VE250_randls_72_rotated.json,396247,472027,40,Man
105,402334,DepthScenes,duration_manipulation_targetAtFixation,jsons/v1_VE250_randls_72_rotated.json,http://54.235.29.9/FacialAge/BNav_EC2/DepthDuration/v2_depth_duration_MTurk/v2_DepthDuration_HTML.html#110,110,1440,789,1440,900,8-20-2022,11-31-37,106,depth_duration_stimuli/001650_2014-06-20_12-09-00_260595134347_rgbf000087-resize_3/001650_2014-06-20_12-09-00_260595134347_rgbf000087-resize_3-target.png,250,1.9505,3,1394,250,meters,jsons/v1_VE250_randls_72_rotated.json,396247,472027,40,Man
106,402334,DepthScenes,duration_manipulation_targetAtFixation,jsons/v1_VE250_randls_72_rotated.json,http://54.235.29.9/FacialAge/BNav_EC2/DepthDuration/v2_depth_duration_MTurk/v2_DepthDuration_HTML.html#110,110,1440,789,1440,900,8-20-2022,11-31-37,107,depth_duration_stimuli/000682_2014-06-08_23-14-58_260595134347_rgbf000041-resize_5/000682_2014-06-08_23-14-58_260595134347_rgbf000041-resize_5-target.png,250,2.7239999999999998,2,1305,249,meters,jsons/v1_VE250_randls_72_rotated.json,396247,472027,40,Man
107,402334,DepthScenes,duration_manipulation_targetAtFixation,jsons/v1_VE250_randls_72_rotated.json,http://54.235.29.9/FacialAge/BNav_EC2/DepthDuration/v2_depth_duration_MTurk/v2_DepthDuration_HTML.html#110,110,1440,789,1440,900,8-20-2022,11-31-37,108,depth_duration_stimuli/002136_2014-06-25_21-18-03_260595134347_rgbf000109-resize_3/002136_2014-06-25_21-18-03_260595134347_rgbf000109-resize_3-target.png,250,1.9569999999999999,1,1539,249,meters,jsons/v1_VE250_randls_72_rotated.json,396247,472027,40,Man
108,402334,DepthScenes,duration_manipulation_targetAtFixation,jsons/v1_VE250_randls_72_rotated.json,http://54.235.29.9/FacialAge/BNav_EC2/DepthDuration/v2_depth_duration_MTurk/v2_DepthDuration_HTML.html#110,110,1440,789,1440,900,8-20-2022,11-31-37,109,depth_duration_stimuli/002964_2014-06-08_17-46-11_094959634447_rgbf000091-resize_4/002964_2014-06-08_17-46-11_094959634447_rgbf000091-resize_4-target.png,250,1.6909999999999998,3,1867,249,meters,jsons/v1_VE250_randls_72_rotated.json,396247,472027,40,Man
109,402334,DepthScenes,duration_manipulation_targetAtFixation,jsons/v1_VE250_randls_72_rotated.json,http://54.235.29.9/FacialAge/BNav_EC2/DepthDuration/v2_depth_duration_MTurk/v2_DepthDuration_HTML.html#110,110,1440,789,1440,900,8-20-2022,11-31-37,110,depth_duration_stimuli/002750_2014-06-22_19-08-03_094959634447_rgbf000094-resize_4/002750_2014-06-22_19-08-03_094959634447_rgbf000094-resize_4-target.png,250,2.354,9,1770,251,meters,jsons/v1_VE250_randls_72_rotated.json,396247,472027,40,Man
110,402334,DepthScenes,duration_manipulation_targetAtFixation,jsons/v1_VE250_randls_72_rotated.json,http://54.235.29.9/FacialAge/BNav_EC2/DepthDuration/v2_depth_duration_MTurk/v2_DepthDuration_HTML.html#110,110,1440,789,1440,900,8-20-2022,11-31-37,111,depth_duration_stimuli/002549_2014-06-24_13-41-39_094959634447_rgbf000022-resize_3/002549_2014-06-24_13-41-39_094959634447_rgbf000022-resize_3-target.png,250,1.476,8,1497,250,meters,jsons/v1_VE250_randls_72_rotated.json,396247,472027,40,Man
111,402334,DepthScenes,duration_manipulation_targetAtFixation,jsons/v1_VE250_randls_72_rotated.json,http://54.235.29.9/FacialAge/BNav_EC2/DepthDuration/v2_depth_duration_MTurk/v2_DepthDuration_HTML.html#110,110,1440,789,1440,900,8-20-2022,11-31-37,112,depth_duration_stimuli/000191_2014-05-12_17-07-38_260595134347_rgbf000199-resize_0/000191_2014-05-12_17-07-38_260595134347_rgbf000199-resize_0-target.png,250,3.7995,7,1675,249,meters,jsons/v1_VE250_randls_72_rotated.json,396247,472027,40,Man
112,402334,DepthScenes,duration_manipulation_targetAtFixation,jsons/v1_VE250_randls_72_rotated.json,http://54.235.29.9/FacialAge/BNav_EC2/DepthDuration/v2_depth_duration_MTurk/v2_DepthDuration_HTML.html#110,110,1440,789,1440,900,8-20-2022,11-31-37,113,depth_duration_stimuli/000493_2014-06-09_21-01-18_260595134347_rgbf000196-resize_3/000493_2014-06-09_21-01-18_260595134347_rgbf000196-resize_3-target.png,250,3.44,6,1762,250,meters,jsons/v1_VE250_randls_72_rotated.json,396247,472027,40,Man
113,402334,DepthScenes,duration_manipulation_targetAtFixation,jsons/v1_VE250_randls_72_rotated.json,http://54.235.29.9/FacialAge/BNav_EC2/DepthDuration/v2_depth_duration_MTurk/v2_DepthDuration_HTML.html#110,110,1440,789,1440,900,8-20-2022,11-31-37,114,depth_duration_stimuli/002953_2014-06-08_17-32-18_094959634447_rgbf000059-resize_5/002953_2014-06-08_17-32-18_094959634447_rgbf000059-resize_5-target.png,250,1.551,5,1843,250,meters,jsons/v1_VE250_randls_72_rotated.json,396247,472027,40,Man
114,402334,DepthScenes,duration_manipulation_targetAtFixation,jsons/v1_VE250_randls_72_rotated.json,http://54.235.29.9/FacialAge/BNav_EC2/DepthDuration/v2_depth_duration_MTurk/v2_DepthDuration_HTML.html#110,110,1440,789,1440,900,8-20-2022,11-31-37,115,depth_duration_stimuli/000878_2014-06-08_22-52-45_260595134347_rgbf000045-resize_2/000878_2014-06-08_22-52-45_260595134347_rgbf000045-resize_2-target.png,250,2.092,4,1393,249,meters,jsons/v1_VE250_randls_72_rotated.json,396247,472027,40,Man
115,402334,DepthScenes,duration_manipulation_targetAtFixation,jsons/v1_VE250_randls_72_rotated.json,http://54.235.29.9/FacialAge/BNav_EC2/DepthDuration/v2_depth_duration_MTurk/v2_DepthDuration_HTML.html#110,110,1440,789,1440,900,8-20-2022,11-31-37,116,depth_duration_stimuli/002199_2014-06-28_18-33-56_260595134347_rgbf000074-resize_0/002199_2014-06-28_18-33-56_260595134347_rgbf000074-resize_0-target.png,250,1.996,3,1753,250,meters,jsons/v1_VE250_randls_72_rotated.json,396247,472027,40,Man
116,402334,DepthScenes,duration_manipulation_targetAtFixation,jsons/v1_VE250_randls_72_rotated.json,http://54.235.29.9/FacialAge/BNav_EC2/DepthDuration/v2_depth_duration_MTurk/v2_DepthDuration_HTML.html#110,110,1440,789,1440,900,8-20-2022,11-31-37,117,depth_duration_stimuli/001056_2014-06-08_18-46-44_260595134347_rgbf000068-resize_0/001056_2014-06-08_18-46-44_260595134347_rgbf000068-resize_0-target.png,250,2.6625,2,1595,250,meters,jsons/v1_VE250_randls_72_rotated.json,396247,472027,40,Man
117,402334,DepthScenes,duration_manipulation_targetAtFixation,jsons/v1_VE250_randls_72_rotated.json,http://54.235.29.9/FacialAge/BNav_EC2/DepthDuration/v2_depth_duration_MTurk/v2_DepthDuration_HTML.html#110,110,1440,789,1440,900,8-20-2022,11-31-37,118,depth_duration_stimuli/001235_2014-06-17_16-37-36_260595134347_rgbf000084-resize_4/001235_2014-06-17_16-37-36_260595134347_rgbf000084-resize_4-target.png,250,3.6605,1,1618,250,meters,jsons/v1_VE250_randls_72_rotated.json,396247,472027,40,Man
118,402334,DepthScenes,duration_manipulation_targetAtFixation,jsons/v1_VE250_randls_72_rotated.json,http://54.235.29.9/FacialAge/BNav_EC2/DepthDuration/v2_depth_duration_MTurk/v2_DepthDuration_HTML.html#110,110,1440,789,1440,900,8-20-2022,11-31-37,119,depth_duration_stimuli/000788_2014-06-08_22-34-36_260595134347_rgbf000131-resize_1/000788_2014-06-08_22-34-36_260595134347_rgbf000131-resize_1-target.png,250,3.359,9,1466,250,meters,jsons/v1_VE250_randls_72_rotated.json,396247,472027,40,Man
119,402334,DepthScenes,duration_manipulation_targetAtFixation,jsons/v1_VE250_randls_72_rotated.json,http://54.235.29.9/FacialAge/BNav_EC2/DepthDuration/v2_depth_duration_MTurk/v2_DepthDuration_HTML.html#110,110,1440,789,1440,900,8-20-2022,11-31-37,120,depth_duration_stimuli/000787_2014-06-08_22-33-53_260595134347_rgbf000175-resize_1/000787_2014-06-08_22-33-53_260595134347_rgbf000175-resize-original.jpg,250,4.784,0,1995,249,meters,jsons/v1_VE250_randls_72_rotated.json,396247,472027,40,Man
120,402334,DepthScenes,duration_manipulation_targetAtFixation,jsons/v1_VE250_randls_72_rotated.json,http://54.235.29.9/FacialAge/BNav_EC2/DepthDuration/v2_depth_duration_MTurk/v2_DepthDuration_HTML.html#110,110,1440,789,1440,900,8-20-2022,11-31-37,121,depth_duration_stimuli/000691_2014-06-08_13-08-50_260595134347_rgbf000132-resize_3/000691_2014-06-08_13-08-50_260595134347_rgbf000132-resize_3-target.png,250,4.1530000000000005,8,1706,250,meters,jsons/v1_VE250_randls_72_rotated.json,396247,472027,40,Man
121,402334,DepthScenes,duration_manipulation_targetAtFixation,jsons/v1_VE250_randls_72_rotated.json,http://54.235.29.9/FacialAge/BNav_EC2/DepthDuration/v2_depth_duration_MTurk/v2_DepthDuration_HTML.html#110,110,1440,789,1440,900,8-20-2022,11-31-37,122,depth_duration_stimuli/002213_2014-06-28_18-37-58_260595134347_rgbf000055-resize_1/002213_2014-06-28_18-37-58_260595134347_rgbf000055-resize_1-target.png,250,3.62,7,2318,252,meters,jsons/v1_VE250_randls_72_rotated.json,396247,472027,40,Man
122,402334,DepthScenes,duration_manipulation_targetAtFixation,jsons/v1_VE250_randls_72_rotated.json,http://54.235.29.9/FacialAge/BNav_EC2/DepthDuration/v2_depth_duration_MTurk/v2_DepthDuration_HTML.html#110,110,1440,789,1440,900,8-20-2022,11-31-37,123,depth_duration_stimuli/003587_2014-05-23_16-48-02_094959634447_rgbf002384-resize_2/003587_2014-05-23_16-48-02_094959634447_rgbf002384-resize_2-target.png,250,1.357,6,1841,250,meters,jsons/v1_VE250_randls_72_rotated.json,396247,472027,40,Man
123,402334,DepthScenes,duration_manipulation_targetAtFixation,jsons/v1_VE250_randls_72_rotated.json,http://54.235.29.9/FacialAge/BNav_EC2/DepthDuration/v2_depth_duration_MTurk/v2_DepthDuration_HTML.html#110,110,1440,789,1440,900,8-20-2022,11-31-37,124,depth_duration_stimuli/001167_2014-06-17_15-38-07_260595134347_rgbf000108-resize_0/001167_2014-06-17_15-38-07_260595134347_rgbf000108-resize_0-target.png,250,1.8505,5,1778,250,meters,jsons/v1_VE250_randls_72_rotated.json,396247,472027,40,Man
124,402334,DepthScenes,duration_manipulation_targetAtFixation,jsons/v1_VE250_randls_72_rotated.json,http://54.235.29.9/FacialAge/BNav_EC2/DepthDuration/v2_depth_duration_MTurk/v2_DepthDuration_HTML.html#110,110,1440,789,1440,900,8-20-2022,11-31-37,125,depth_duration_stimuli/000734_2014-06-08_17-39-11_260595134347_rgbf000128-resize_2/000734_2014-06-08_17-39-11_260595134347_rgbf000128-resize_2-target.png,250,4.098,4,2282,248,meters,jsons/v1_VE250_randls_72_rotated.json,396247,472027,40,Man
125,402334,DepthScenes,duration_manipulation_targetAtFixation,jsons/v1_VE250_randls_72_rotated.json,http://54.235.29.9/FacialAge/BNav_EC2/DepthDuration/v2_depth_duration_MTurk/v2_DepthDuration_HTML.html#110,110,1440,789,1440,900,8-20-2022,11-31-37,126,depth_duration_stimuli/000739_2014-06-08_18-45-58_260595134347_rgbf000068-resize_1/000739_2014-06-08_18-45-58_260595134347_rgbf000068-resize_1-target.png,250,3.534,3,2595,249,meters,jsons/v1_VE250_randls_72_rotated.json,396247,472027,40,Man
126,402334,DepthScenes,duration_manipulation_targetAtFixation,jsons/v1_VE250_randls_72_rotated.json,http://54.235.29.9/FacialAge/BNav_EC2/DepthDuration/v2_depth_duration_MTurk/v2_DepthDuration_HTML.html#110,110,1440,789,1440,900,8-20-2022,11-31-37,127,depth_duration_stimuli/002545_2014-06-24_13-38-53_094959634447_rgbf000080-resize_4/002545_2014-06-24_13-38-53_094959634447_rgbf000080-resize_4-target.png,250,1.9205,2,1908,249,meters,jsons/v1_VE250_randls_72_rotated.json,396247,472027,40,Man
127,402334,DepthScenes,duration_manipulation_targetAtFixation,jsons/v1_VE250_randls_72_rotated.json,http://54.235.29.9/FacialAge/BNav_EC2/DepthDuration/v2_depth_duration_MTurk/v2_DepthDuration_HTML.html#110,110,1440,789,1440,900,8-20-2022,11-31-37,128,depth_duration_stimuli/001092_2014-06-15_17-34-58_260595134347_rgbf000171-resize_3/001092_2014-06-15_17-34-58_260595134347_rgbf000171-resize_3-target.png,250,2.6935,1,1857,250,meters,jsons/v1_VE250_randls_72_rotated.json,396247,472027,40,Man
128,402334,DepthScenes,duration_manipulation_targetAtFixation,jsons/v1_VE250_randls_72_rotated.json,http://54.235.29.9/FacialAge/BNav_EC2/DepthDuration/v2_depth_duration_MTurk/v2_DepthDuration_HTML.html#110,110,1440,789,1440,900,8-20-2022,11-31-37,129,depth_duration_stimuli/003083_2014-06-15_15-21-03_094959634447_rgbf000063-resize_1/003083_2014-06-15_15-21-03_094959634447_rgbf000063-resize_1-target.png,250,4.1405,9,1929,249,meters,jsons/v1_VE250_randls_72_rotated.json,396247,472027,40,Man
129,402334,DepthScenes,duration_manipulation_targetAtFixation,jsons/v1_VE250_randls_72_rotated.json,http://54.235.29.9/FacialAge/BNav_EC2/DepthDuration/v2_depth_duration_MTurk/v2_DepthDuration_HTML.html#110,110,1440,789,1440,900,8-20-2022,11-31-37,130,depth_duration_stimuli/000486_2014-06-09_20-47-20_260595134347_rgbf000143-resize_2/000486_2014-06-09_20-47-20_260595134347_rgbf000143-resize_2-target.png,250,4.8325,8,1906,249,meters,jsons/v1_VE250_randls_72_rotated.json,396247,472027,40,Man
130,402334,DepthScenes,duration_manipulation_targetAtFixation,jsons/v1_VE250_randls_72_rotated.json,http://54.235.29.9/FacialAge/BNav_EC2/DepthDuration/v2_depth_duration_MTurk/v2_DepthDuration_HTML.html#110,110,1440,789,1440,900,8-20-2022,11-31-37,131,depth_duration_stimuli/001815_2014-06-26_20-52-55_260595134347_rgbf000020-resize_0/001815_2014-06-26_20-52-55_260595134347_rgbf000020-resize_0-target.png,250,3.3865,7,3824,249,meters,jsons/v1_VE250_randls_72_rotated.json,396247,472027,40,Man
131,402334,DepthScenes,duration_manipulation_targetAtFixation,jsons/v1_VE250_randls_72_rotated.json,http://54.235.29.9/FacialAge/BNav_EC2/DepthDuration/v2_depth_duration_MTurk/v2_DepthDuration_HTML.html#110,110,1440,789,1440,900,8-20-2022,11-31-37,132,depth_duration_stimuli/001808_2014-06-26_20-50-58_260595134347_rgbf000029-resize_1/001808_2014-06-26_20-50-58_260595134347_rgbf000029-resize_1-target.png,250,4.249,6,2141,251,meters,jsons/v1_VE250_randls_72_rotated.json,396247,472027,40,Man
132,402334,DepthScenes,duration_manipulation_targetAtFixation,jsons/v1_VE250_randls_72_rotated.json,http://54.235.29.9/FacialAge/BNav_EC2/DepthDuration/v2_depth_duration_MTurk/v2_DepthDuration_HTML.html#110,110,1440,789,1440,900,8-20-2022,11-31-37,133,depth_duration_stimuli/001136_2014-06-17_15-19-41_260595134347_rgbf000076-resize_3/001136_2014-06-17_15-19-41_260595134347_rgbf000076-resize_3-target.png,250,1.8655,5,1834,249,meters,jsons/v1_VE250_randls_72_rotated.json,396247,472027,40,Man
133,402334,DepthScenes,duration_manipulation_targetAtFixation,jsons/v1_VE250_randls_72_rotated.json,http://54.235.29.9/FacialAge/BNav_EC2/DepthDuration/v2_depth_duration_MTurk/v2_DepthDuration_HTML.html#110,110,1440,789,1440,900,8-20-2022,11-31-37,134,depth_duration_stimuli/001164_2014-06-17_15-35-46_260595134347_rgbf000085-resize_3/001164_2014-06-17_15-35-46_260595134347_rgbf000085-resize_3-target.png,250,2.354,4,1850,249,meters,jsons/v1_VE250_randls_72_rotated.json,396247,472027,40,Man
134,402334,DepthScenes,duration_manipulation_targetAtFixation,jsons/v1_VE250_randls_72_rotated.json,http://54.235.29.9/FacialAge/BNav_EC2/DepthDuration/v2_depth_duration_MTurk/v2_DepthDuration_HTML.html#110,110,1440,789,1440,900,8-20-2022,11-31-37,135,depth_duration_stimuli/000375_2014-06-08_11-17-29_260595134347_rgbf000133-resize_2/000375_2014-06-08_11-17-29_260595134347_rgbf000133-resize-original.jpg,250,4.718,0,1937,249,meters,jsons/v1_VE250_randls_72_rotated.json,396247,472027,40,Man
135,402334,DepthScenes,duration_manipulation_targetAtFixation,jsons/v1_VE250_randls_72_rotated.json,http://54.235.29.9/FacialAge/BNav_EC2/DepthDuration/v2_depth_duration_MTurk/v2_DepthDuration_HTML.html#110,110,1440,789,1440,900,8-20-2022,11-31-37,136,depth_duration_stimuli/003129_2014-05-12_10-48-10_094959634447_rgbf000100-resize_0/003129_2014-05-12_10-48-10_094959634447_rgbf000100-resize_0-target.png,250,4.9305,3,1810,250,meters,jsons/v1_VE250_randls_72_rotated.json,396247,472027,40,Man
136,402334,DepthScenes,duration_manipulation_targetAtFixation,jsons/v1_VE250_randls_72_rotated.json,http://54.235.29.9/FacialAge/BNav_EC2/DepthDuration/v2_depth_duration_MTurk/v2_DepthDuration_HTML.html#110,110,1440,789,1440,900,8-20-2022,11-31-37,137,depth_duration_stimuli/000414_2014-06-04_19-49-13_260595134347_rgbf000044-resize_0/000414_2014-06-04_19-49-13_260595134347_rgbf000044-resize_0-target.png,250,4.329,2,1795,250,meters,jsons/v1_VE250_randls_72_rotated.json,396247,472027,40,Man
137,402334,DepthScenes,duration_manipulation_targetAtFixation,jsons/v1_VE250_randls_72_rotated.json,http://54.235.29.9/FacialAge/BNav_EC2/DepthDuration/v2_depth_duration_MTurk/v2_DepthDuration_HTML.html#110,110,1440,789,1440,900,8-20-2022,11-31-37,138,depth_duration_stimuli/001617_2014-06-20_11-35-32_260595134347_rgbf000066-resize_1/001617_2014-06-20_11-35-32_260595134347_rgbf000066-resize_1-target.png,250,3.7910000000000004,1,1666,249,meters,jsons/v1_VE250_randls_72_rotated.json,396247,472027,40,Man
138,402334,DepthScenes,duration_manipulation_targetAtFixation,jsons/v1_VE250_randls_72_rotated.json,http://54.235.29.9/FacialAge/BNav_EC2/DepthDuration/v2_depth_duration_MTurk/v2_DepthDuration_HTML.html#110,110,1440,789,1440,900,8-20-2022,11-31-37,139,depth_duration_stimuli/001806_2014-06-26_20-50-20_260595134347_rgbf000091-resize_1/001806_2014-06-26_20-50-20_260595134347_rgbf000091-resize_1-target.png,250,2.7305,9,1826,250,meters,jsons/v1_VE250_randls_72_rotated.json,396247,472027,40,Man
139,402334,DepthScenes,duration_manipulation_targetAtFixation,jsons/v1_VE250_randls_72_rotated.json,http://54.235.29.9/FacialAge/BNav_EC2/DepthDuration/v2_depth_duration_MTurk/v2_DepthDuration_HTML.html#110,110,1440,789,1440,900,8-20-2022,11-31-37,140,depth_duration_stimuli/002949_2014-06-26_15-57-42_094959634447_rgbf000079-resize_1/002949_2014-06-26_15-57-42_094959634447_rgbf000079-resize_1-target.png,250,1.8915,0,2216,250,meters,jsons/v1_VE250_randls_72_rotated.json,396247,472027,40,Man
140,402334,DepthScenes,duration_manipulation_targetAtFixation,jsons/v1_VE250_randls_72_rotated.json,http://54.235.29.9/FacialAge/BNav_EC2/DepthDuration/v2_depth_duration_MTurk/v2_DepthDuration_HTML.html#110,110,1440,789,1440,900,8-20-2022,11-31-37,141,depth_duration_stimuli/000522_2014-06-08_13-35-06_260595134347_rgbf000244-resize_1/000522_2014-06-08_13-35-06_260595134347_rgbf000244-resize_1-target.png,250,2.3715,8,1795,250,meters,jsons/v1_VE250_randls_72_rotated.json,396247,472027,40,Man
141,402334,DepthScenes,duration_manipulation_targetAtFixation,jsons/v1_VE250_randls_72_rotated.json,http://54.235.29.9/FacialAge/BNav_EC2/DepthDuration/v2_depth_duration_MTurk/v2_DepthDuration_HTML.html#110,110,1440,789,1440,900,8-20-2022,11-31-37,142,depth_duration_stimuli/000409_2014-06-04_19-23-33_260595134347_rgbf000067-resize_0/000409_2014-06-04_19-23-33_260595134347_rgbf000067-resize_0-target.png,250,3.7335,7,1835,249,meters,jsons/v1_VE250_randls_72_rotated.json,396247,472027,40,Man
142,402334,DepthScenes,duration_manipulation_targetAtFixation,jsons/v1_VE250_randls_72_rotated.json,http://54.235.29.9/FacialAge/BNav_EC2/DepthDuration/v2_depth_duration_MTurk/v2_DepthDuration_HTML.html#110,110,1440,789,1440,900,8-20-2022,11-31-37,143,depth_duration_stimuli/002663_2014-06-13_15-50-26_094959634447_rgbf000075-resize_1/002663_2014-06-13_15-50-26_094959634447_rgbf000075-resize_1-target.png,250,4.7495,6,1873,250,meters,jsons/v1_VE250_randls_72_rotated.json,396247,472027,40,Man
143,402334,DepthScenes,duration_manipulation_targetAtFixation,jsons/v1_VE250_randls_72_rotated.json,http://54.235.29.9/FacialAge/BNav_EC2/DepthDuration/v2_depth_duration_MTurk/v2_DepthDuration_HTML.html#110,110,1440,789,1440,900,8-20-2022,11-31-37,144,depth_duration_stimuli/000927_2014-06-09_16-32-30_260595134347_rgbf000123-resize_3/000927_2014-06-09_16-32-30_260595134347_rgbf000123-resize_3-target.png,250,2.6785,5,1650,250,meters,jsons/v1_VE250_randls_72_rotated.json,396247,472027,40,Man
144,402334,DepthScenes,duration_manipulation_targetAtFixation,jsons/v1_VE250_randls_72_rotated.json,http://54.235.29.9/FacialAge/BNav_EC2/DepthDuration/v2_depth_duration_MTurk/v2_DepthDuration_HTML.html#110,110,1440,789,1440,900,8-20-2022,11-31-37,145,depth_duration_stimuli/001110_2014-06-15_17-25-28_260595134347_rgbf000150-resize_1/001110_2014-06-15_17-25-28_260595134347_rgbf000150-resize_1-target.png,250,1.7115,4,1825,250,meters,jsons/v1_VE250_randls_72_rotated.json,396247,472027,40,Man
145,402334,DepthScenes,duration_manipulation_targetAtFixation,jsons/v1_VE250_randls_72_rotated.json,http://54.235.29.9/FacialAge/BNav_EC2/DepthDuration/v2_depth_duration_MTurk/v2_DepthDuration_HTML.html#110,110,1440,789,1440,900,8-20-2022,11-31-37,146,depth_duration_stimuli/003490_2014-05-21_15-50-11_094959634447_rgbf000101-resize_3/003490_2014-05-21_15-50-11_094959634447_rgbf000101-resize_3-target.png,250,3.6445,3,1762,250,meters,jsons/v1_VE250_randls_72_rotated.json,396247,472027,40,Man
146,402334,DepthScenes,duration_manipulation_targetAtFixation,jsons/v1_VE250_randls_72_rotated.json,http://54.235.29.9/FacialAge/BNav_EC2/DepthDuration/v2_depth_duration_MTurk/v2_DepthDuration_HTML.html#110,110,1440,789,1440,900,8-20-2022,11-31-37,147,depth_duration_stimuli/001175_2014-06-17_15-45-55_260595134347_rgbf000129-resize_4/001175_2014-06-17_15-45-55_260595134347_rgbf000129-resize_4-target.png,250,4.255,2,1618,250,meters,jsons/v1_VE250_randls_72_rotated.json,396247,472027,40,Man
147,402334,DepthScenes,duration_manipulation_targetAtFixation,jsons/v1_VE250_randls_72_rotated.json,http://54.235.29.9/FacialAge/BNav_EC2/DepthDuration/v2_depth_duration_MTurk/v2_DepthDuration_HTML.html#110,110,1440,789,1440,900,8-20-2022,11-31-37,148,depth_duration_stimuli/001100_2014-06-15_17-46-26_260595134347_rgbf000225-resize_2/001100_2014-06-15_17-46-26_260595134347_rgbf000225-resize_2-target.png,250,2.24,1,1708,250,meters,jsons/v1_VE250_randls_72_rotated.json,396247,472027,40,Man
148,402334,DepthScenes,duration_manipulation_targetAtFixation,jsons/v1_VE250_randls_72_rotated.json,http://54.235.29.9/FacialAge/BNav_EC2/DepthDuration/v2_depth_duration_MTurk/v2_DepthDuration_HTML.html#110,110,1440,789,1440,900,8-20-2022,11-31-37,149,depth_duration_stimuli/002784_2014-06-22_19-26-30_094959634447_rgbf000083-resize_3/002784_2014-06-22_19-26-30_094959634447_rgbf000083-resize_3-target.png,250,1.8046666666667,9,1609,249,meters,jsons/v1_VE250_randls_72_rotated.json,396247,472027,40,Man
149,402334,DepthScenes,duration_manipulation_targetAtFixation,jsons/v1_VE250_randls_72_rotated.json,http://54.235.29.9/FacialAge/BNav_EC2/DepthDuration/v2_depth_duration_MTurk/v2_DepthDuration_HTML.html#110,110,1440,789,1440,900,8-20-2022,11-31-37,150,depth_duration_stimuli/002568_2014-06-24_13-59-21_094959634447_rgbf000062-resize_4/002568_2014-06-24_13-59-21_094959634447_rgbf000062-resize_4-target.png,250,3.015,8,1666,249,meters,jsons/v1_VE250_randls_72_rotated.json,396247,472027,40,Man
150,402334,DepthScenes,duration_manipulation_targetAtFixation,jsons/v1_VE250_randls_72_rotated.json,http://54.235.29.9/FacialAge/BNav_EC2/DepthDuration/v2_depth_duration_MTurk/v2_DepthDuration_HTML.html#110,110,1440,789,1440,900,8-20-2022,11-31-37,151,depth_duration_stimuli/003492_2014-05-21_15-50-55_094959634447_rgbf000828-resize_1/003492_2014-05-21_15-50-55_094959634447_rgbf000828-resize_1-target.png,250,4.06875,7,1553,246,meters,jsons/v1_VE250_randls_72_rotated.json,396247,472027,40,Man
151,402334,DepthScenes,duration_manipulation_targetAtFixation,jsons/v1_VE250_randls_72_rotated.json,http://54.235.29.9/FacialAge/BNav_EC2/DepthDuration/v2_depth_duration_MTurk/v2_DepthDuration_HTML.html#110,110,1440,789,1440,900,8-20-2022,11-31-37,152,depth_duration_stimuli/000569_2014-06-09_22-51-47_260595134347_rgbf000141-resize_3/000569_2014-06-09_22-51-47_260595134347_rgbf000141-resize-original.jpg,250,4.512,0,1826,249,meters,jsons/v1_VE250_randls_72_rotated.json,396247,472027,40,Man
152,402334,DepthScenes,duration_manipulation_targetAtFixation,jsons/v1_VE250_randls_72_rotated.json,http://54.235.29.9/FacialAge/BNav_EC2/DepthDuration/v2_depth_duration_MTurk/v2_DepthDuration_HTML.html#110,110,1440,789,1440,900,8-20-2022,11-31-37,153,depth_duration_stimuli/002340_2014-06-28_20-05-46_260595134347_rgbf000113-resize_0/002340_2014-06-28_20-05-46_260595134347_rgbf000113-resize_0-target.png,250,2.4735,6,1922,249,meters,jsons/v1_VE250_randls_72_rotated.json,396247,472027,40,Man
153,402334,DepthScenes,duration_manipulation_targetAtFixation,jsons/v1_VE250_randls_72_rotated.json,http://54.235.29.9/FacialAge/BNav_EC2/DepthDuration/v2_depth_duration_MTurk/v2_DepthDuration_HTML.html#110,110,1440,789,1440,900,8-20-2022,11-31-37,154,depth_duration_stimuli/001016_2014-06-09_16-16-10_260595134347_rgbf000112-resize_5/001016_2014-06-09_16-16-10_260595134347_rgbf000112-resize_5-target.png,250,1.6565,5,1779,248,meters,jsons/v1_VE250_randls_72_rotated.json,396247,472027,40,Man
154,402334,DepthScenes,duration_manipulation_targetAtFixation,jsons/v1_VE250_randls_72_rotated.json,http://54.235.29.9/FacialAge/BNav_EC2/DepthDuration/v2_depth_duration_MTurk/v2_DepthDuration_HTML.html#110,110,1440,789,1440,900,8-20-2022,11-31-37,155,depth_duration_stimuli/000665_2014-06-09_20-42-35_260595134347_rgbf000110-resize_1/000665_2014-06-09_20-42-35_260595134347_rgbf000110-resize_1-target.png,250,3.057,4,1811,249,meters,jsons/v1_VE250_randls_72_rotated.json,396247,472027,40,Man
155,402334,DepthScenes,duration_manipulation_targetAtFixation,jsons/v1_VE250_randls_72_rotated.json,http://54.235.29.9/FacialAge/BNav_EC2/DepthDuration/v2_depth_duration_MTurk/v2_DepthDuration_HTML.html#110,110,1440,789,1440,900,8-20-2022,11-31-37,156,depth_duration_stimuli/001150_2014-06-17_15-27-34_260595134347_rgbf000108-resize_2/001150_2014-06-17_15-27-34_260595134347_rgbf000108-resize_2-target.png,250,4.0325,3,1675,250,meters,jsons/v1_VE250_randls_72_rotated.json,396247,472027,40,Man
156,402334,DepthScenes,duration_manipulation_targetAtFixation,jsons/v1_VE250_randls_72_rotated.json,http://54.235.29.9/FacialAge/BNav_EC2/DepthDuration/v2_depth_duration_MTurk/v2_DepthDuration_HTML.html#110,110,1440,789,1440,900,8-20-2022,11-31-37,157,depth_duration_stimuli/000109_2014-05-14_23-41-52_260595134347_rgbf000035-resize_9/000109_2014-05-14_23-41-52_260595134347_rgbf000035-resize_9-target.png,250,1.3545,2,1713,249,meters,jsons/v1_VE250_randls_72_rotated.json,396247,472027,40,Man
157,402334,DepthScenes,duration_manipulation_targetAtFixation,jsons/v1_VE250_randls_72_rotated.json,http://54.235.29.9/FacialAge/BNav_EC2/DepthDuration/v2_depth_duration_MTurk/v2_DepthDuration_HTML.html#110,110,1440,789,1440,900,8-20-2022,11-31-37,158,depth_duration_stimuli/000470_2014-06-09_19-42-40_260595134347_rgbf000094-resize_1/000470_2014-06-09_19-42-40_260595134347_rgbf000094-resize_1-target.png,250,1.831,1,1585,249,meters,jsons/v1_VE250_randls_72_rotated.json,396247,472027,40,Man
158,402334,DepthScenes,duration_manipulation_targetAtFixation,jsons/v1_VE250_randls_72_rotated.json,http://54.235.29.9/FacialAge/BNav_EC2/DepthDuration/v2_depth_duration_MTurk/v2_DepthDuration_HTML.html#110,110,1440,789,1440,900,8-20-2022,11-31-37,159,depth_duration_stimuli/000457_2014-06-08_16-52-43_260595134347_rgbf000199-resize_1/000457_2014-06-08_16-52-43_260595134347_rgbf000199-resize_1-target.png,250,3.6489999999999996,9,1723,250,meters,jsons/v1_VE250_randls_72_rotated.json,396247,472027,40,Man
159,402334,DepthScenes,duration_manipulation_targetAtFixation,jsons/v1_VE250_randls_72_rotated.json,http://54.235.29.9/FacialAge/BNav_EC2/DepthDuration/v2_depth_duration_MTurk/v2_DepthDuration_HTML.html#110,110,1440,789,1440,900,8-20-2022,11-31-37,160,depth_duration_stimuli/000929_2014-06-09_16-33-19_260595134347_rgbf000139-resize_0/000929_2014-06-09_16-33-19_260595134347_rgbf000139-resize_0-target.png,250,2.8680000000000003,8,1875,249,meters,jsons/v1_VE250_randls_72_rotated.json,396247,472027,40,Man
160,402334,DepthScenes,duration_manipulation_targetAtFixation,jsons/v1_VE250_randls_72_rotated.json,http://54.235.29.9/FacialAge/BNav_EC2/DepthDuration/v2_depth_duration_MTurk/v2_DepthDuration_HTML.html#110,110,1440,789,1440,900,8-20-2022,11-31-37,161,depth_duration_stimuli/000502_2014-06-08_23-02-32_260595134347_rgbf000063-resize_4/000502_2014-06-08_23-02-32_260595134347_rgbf000063-resize_4-target.png,250,2.431,7,1546,249,meters,jsons/v1_VE250_randls_72_rotated.json,396247,472027,40,Man
161,402334,DepthScenes,duration_manipulation_targetAtFixation,jsons/v1_VE250_randls_72_rotated.json,http://54.235.29.9/FacialAge/BNav_EC2/DepthDuration/v2_depth_duration_MTurk/v2_DepthDuration_HTML.html#110,110,1440,789,1440,900,8-20-2022,11-31-37,162,depth_duration_stimuli/001199_2014-06-17_16-03-48_260595134347_rgbf000077-resize_0/001199_2014-06-17_16-03-48_260595134347_rgbf000077-resize_0-target.png,250,3.4375,6,1666,249,meters,jsons/v1_VE250_randls_72_rotated.json,396247,472027,40,Man
162,402334,DepthScenes,duration_manipulation_targetAtFixation,jsons/v1_VE250_randls_72_rotated.json,http://54.235.29.9/FacialAge/BNav_EC2/DepthDuration/v2_depth_duration_MTurk/v2_DepthDuration_HTML.html#110,110,1440,789,1440,900,8-20-2022,11-31-37,163,depth_duration_stimuli/001450_2014-06-19_17-02-03_260595134347_rgbf000203-resize_4/001450_2014-06-19_17-02-03_260595134347_rgbf000203-resize_4-target.png,250,4.0106666666667,5,1587,249,meters,jsons/v1_VE250_randls_72_rotated.json,396247,472027,40,Man
163,402334,DepthScenes,duration_manipulation_targetAtFixation,jsons/v1_VE250_randls_72_rotated.json,http://54.235.29.9/FacialAge/BNav_EC2/DepthDuration/v2_depth_duration_MTurk/v2_DepthDuration_HTML.html#110,110,1440,789,1440,900,8-20-2022,11-31-37,164,depth_duration_stimuli/001449_2014-06-19_17-01-27_260595134347_rgbf000116-resize_2/001449_2014-06-19_17-01-27_260595134347_rgbf000116-resize_2-target.png,250,3.452,4,1714,250,meters,jsons/v1_VE250_randls_72_rotated.json,396247,472027,40,Man
