,subjID,experimentName,versionName,sequenceName,url,selected_row,windowWidth,windowHeight,screenWidth,screenHeight,startDate,startTime,trial,stimulus,duration,actual_depth,depth_estimate,trial_RT,log_sceneDuration,unitSelection,seq_filepath,experimentTime,totalTime,age,gender
0,402343,DepthScenes,duration_manipulation_targetAtFixation,jsons/VE125_randls_59.json,http://54.235.29.9/FacialAge/BNav_EC2/DepthDuration/v2_depth_duration_MTurk/v2_DepthDuration_HTML.html#68,68,1366,657,1366,768,8-30-2022,8-7-54,1,depth_duration_stimuli/000736_2014-06-08_18-24-15_260595134347_rgbf000206-resize_3/000736_2014-06-08_18-24-15_260595134347_rgbf000206-resize_3-target.png,125,3.515,10,3336,122,meters,jsons/VE125_randls_59.json,618959,707083,30,Man
1,402343,DepthScenes,duration_manipulation_targetAtFixation,jsons/VE125_randls_59.json,http://54.235.29.9/FacialAge/BNav_EC2/DepthDuration/v2_depth_duration_MTurk/v2_DepthDuration_HTML.html#68,68,1366,657,1366,768,8-30-2022,8-7-54,2,depth_duration_stimuli/000137_2014-05-20_17-04-49_260595134347_rgbf000120-resize_1/000137_2014-05-20_17-04-49_260595134347_rgbf000120-resize_1-target.png,125,3.786,10,2995,129,meters,jsons/VE125_randls_59.json,618959,707083,30,Man
2,402343,DepthScenes,duration_manipulation_targetAtFixation,jsons/VE125_randls_59.json,http://54.235.29.9/FacialAge/BNav_EC2/DepthDuration/v2_depth_duration_MTurk/v2_DepthDuration_HTML.html#68,68,1366,657,1366,768,8-30-2022,8-7-54,3,depth_duration_stimuli/003534_2014-05-22_15-06-10_094959634447_rgbf000102-resize_4/003534_2014-05-22_15-06-10_094959634447_rgbf000102-resize_4-target.png,125,1.426,5,2892,120,meters,jsons/VE125_randls_59.json,618959,707083,30,Man
3,402343,DepthScenes,duration_manipulation_targetAtFixation,jsons/VE125_randls_59.json,http://54.235.29.9/FacialAge/BNav_EC2/DepthDuration/v2_depth_duration_MTurk/v2_DepthDuration_HTML.html#68,68,1366,657,1366,768,8-30-2022,8-7-54,4,depth_duration_stimuli/002637_2014-06-24_14-51-13_094959634447_rgbf000066-resize_4/002637_2014-06-24_14-51-13_094959634447_rgbf000066-resize_4-target.png,125,1.9955,10,2698,122,meters,jsons/VE125_randls_59.json,618959,707083,30,Man
4,402343,DepthScenes,duration_manipulation_targetAtFixation,jsons/VE125_randls_59.json,http://54.235.29.9/FacialAge/BNav_EC2/DepthDuration/v2_depth_duration_MTurk/v2_DepthDuration_HTML.html#68,68,1366,657,1366,768,8-30-2022,8-7-54,5,depth_duration_stimuli/000878_2014-06-08_22-52-45_260595134347_rgbf000045-resize_2/000878_2014-06-08_22-52-45_260595134347_rgbf000045-resize_2-target.png,125,2.092,10,2933,118,meters,jsons/VE125_randls_59.json,618959,707083,30,Man
5,402343,DepthScenes,duration_manipulation_targetAtFixation,jsons/VE125_randls_59.json,http://54.235.29.9/FacialAge/BNav_EC2/DepthDuration/v2_depth_duration_MTurk/v2_DepthDuration_HTML.html#68,68,1366,657,1366,768,8-30-2022,8-7-54,6,depth_duration_stimuli/002953_2014-06-08_17-32-18_094959634447_rgbf000059-resize_5/002953_2014-06-08_17-32-18_094959634447_rgbf000059-resize_5-target.png,125,1.551,10,2661,129,meters,jsons/VE125_randls_59.json,618959,707083,30,Man
6,402343,DepthScenes,duration_manipulation_targetAtFixation,jsons/VE125_randls_59.json,http://54.235.29.9/FacialAge/BNav_EC2/DepthDuration/v2_depth_duration_MTurk/v2_DepthDuration_HTML.html#68,68,1366,657,1366,768,8-30-2022,8-7-54,7,depth_duration_stimuli/000436_2014-06-09_22-25-11_260595134347_rgbf000137-resize_1/000436_2014-06-09_22-25-11_260595134347_rgbf000137-resize_1-target.png,125,4.0705,10,3038,121,meters,jsons/VE125_randls_59.json,618959,707083,30,Man
7,402343,DepthScenes,duration_manipulation_targetAtFixation,jsons/VE125_randls_59.json,http://54.235.29.9/FacialAge/BNav_EC2/DepthDuration/v2_depth_duration_MTurk/v2_DepthDuration_HTML.html#68,68,1366,657,1366,768,8-30-2022,8-7-54,8,depth_duration_stimuli/002444_2014-06-28_20-32-08_260595134347_rgbf000027-resize_0/002444_2014-06-28_20-32-08_260595134347_rgbf000027-resize_0-target.png,125,4.388999999999999,10,2690,122,meters,jsons/VE125_randls_59.json,618959,707083,30,Man
8,402343,DepthScenes,duration_manipulation_targetAtFixation,jsons/VE125_randls_59.json,http://54.235.29.9/FacialAge/BNav_EC2/DepthDuration/v2_depth_duration_MTurk/v2_DepthDuration_HTML.html#68,68,1366,657,1366,768,8-30-2022,8-7-54,9,depth_duration_stimuli/001066_2014-06-08_22-03-20_260595134347_rgbf000066-resize_4/001066_2014-06-08_22-03-20_260595134347_rgbf000066-resize_4-target.png,125,4.2330000000000005,10,3135,125,meters,jsons/VE125_randls_59.json,618959,707083,30,Man
9,402343,DepthScenes,duration_manipulation_targetAtFixation,jsons/VE125_randls_59.json,http://54.235.29.9/FacialAge/BNav_EC2/DepthDuration/v2_depth_duration_MTurk/v2_DepthDuration_HTML.html#68,68,1366,657,1366,768,8-30-2022,8-7-54,10,depth_duration_stimuli/000742_2014-06-08_18-48-09_260595134347_rgbf000164-resize_4/000742_2014-06-08_18-48-09_260595134347_rgbf000164-resize_4-target.png,125,4.632,10,3361,115,meters,jsons/VE125_randls_59.json,618959,707083,30,Man
10,402343,DepthScenes,duration_manipulation_targetAtFixation,jsons/VE125_randls_59.json,http://54.235.29.9/FacialAge/BNav_EC2/DepthDuration/v2_depth_duration_MTurk/v2_DepthDuration_HTML.html#68,68,1366,657,1366,768,8-30-2022,8-7-54,11,depth_duration_stimuli/001808_2014-06-26_20-50-58_260595134347_rgbf000029-resize_1/001808_2014-06-26_20-50-58_260595134347_rgbf000029-resize_1-target.png,125,4.249,10,3966,126,meters,jsons/VE125_randls_59.json,618959,707083,30,Man
11,402343,DepthScenes,duration_manipulation_targetAtFixation,jsons/VE125_randls_59.json,http://54.235.29.9/FacialAge/BNav_EC2/DepthDuration/v2_depth_duration_MTurk/v2_DepthDuration_HTML.html#68,68,1366,657,1366,768,8-30-2022,8-7-54,12,depth_duration_stimuli/001815_2014-06-26_20-52-55_260595134347_rgbf000020-resize_0/001815_2014-06-26_20-52-55_260595134347_rgbf000020-resize_0-target.png,125,3.3865,10,3040,127,meters,jsons/VE125_randls_59.json,618959,707083,30,Man
12,402343,DepthScenes,duration_manipulation_targetAtFixation,jsons/VE125_randls_59.json,http://54.235.29.9/FacialAge/BNav_EC2/DepthDuration/v2_depth_duration_MTurk/v2_DepthDuration_HTML.html#68,68,1366,657,1366,768,8-30-2022,8-7-54,13,depth_duration_stimuli/000569_2014-06-09_22-51-47_260595134347_rgbf000141-resize_3/000569_2014-06-09_22-51-47_260595134347_rgbf000141-resize-original.jpg,125,4.512,5,3114,132,meters,jsons/VE125_randls_59.json,618959,707083,30,Man
13,402343,DepthScenes,duration_manipulation_targetAtFixation,jsons/VE125_randls_59.json,http://54.235.29.9/FacialAge/BNav_EC2/DepthDuration/v2_depth_duration_MTurk/v2_DepthDuration_HTML.html#68,68,1366,657,1366,768,8-30-2022,8-7-54,14,depth_duration_stimuli/001016_2014-06-09_16-16-10_260595134347_rgbf000112-resize_5/001016_2014-06-09_16-16-10_260595134347_rgbf000112-resize_5-target.png,125,1.6565,10,2787,132,meters,jsons/VE125_randls_59.json,618959,707083,30,Man
14,402343,DepthScenes,duration_manipulation_targetAtFixation,jsons/VE125_randls_59.json,http://54.235.29.9/FacialAge/BNav_EC2/DepthDuration/v2_depth_duration_MTurk/v2_DepthDuration_HTML.html#68,68,1366,657,1366,768,8-30-2022,8-7-54,15,depth_duration_stimuli/002340_2014-06-28_20-05-46_260595134347_rgbf000113-resize_0/002340_2014-06-28_20-05-46_260595134347_rgbf000113-resize_0-target.png,125,2.4735,10,3058,122,meters,jsons/VE125_randls_59.json,618959,707083,30,Man
15,402343,DepthScenes,duration_manipulation_targetAtFixation,jsons/VE125_randls_59.json,http://54.235.29.9/FacialAge/BNav_EC2/DepthDuration/v2_depth_duration_MTurk/v2_DepthDuration_HTML.html#68,68,1366,657,1366,768,8-30-2022,8-7-54,16,depth_duration_stimuli/002748_2014-06-22_19-07-22_094959634447_rgbf000078-resize_1/002748_2014-06-22_19-07-22_094959634447_rgbf000078-resize_1-target.png,125,4.6705,10,4105,125,meters,jsons/VE125_randls_59.json,618959,707083,30,Man
16,402343,DepthScenes,duration_manipulation_targetAtFixation,jsons/VE125_randls_59.json,http://54.235.29.9/FacialAge/BNav_EC2/DepthDuration/v2_depth_duration_MTurk/v2_DepthDuration_HTML.html#68,68,1366,657,1366,768,8-30-2022,8-7-54,17,depth_duration_stimuli/002995_2014-06-15_12-31-26_094959634447_rgbf000150-resize_1/002995_2014-06-15_12-31-26_094959634447_rgbf000150-resize_1-target.png,125,3.8360000000000003,10,3457,122,meters,jsons/VE125_randls_59.json,618959,707083,30,Man
17,402343,DepthScenes,duration_manipulation_targetAtFixation,jsons/VE125_randls_59.json,http://54.235.29.9/FacialAge/BNav_EC2/DepthDuration/v2_depth_duration_MTurk/v2_DepthDuration_HTML.html#68,68,1366,657,1366,768,8-30-2022,8-7-54,18,depth_duration_stimuli/000682_2014-06-08_23-14-58_260595134347_rgbf000041-resize_5/000682_2014-06-08_23-14-58_260595134347_rgbf000041-resize_5-target.png,125,2.7239999999999998,10,4882,123,meters,jsons/VE125_randls_59.json,618959,707083,30,Man
18,402343,DepthScenes,duration_manipulation_targetAtFixation,jsons/VE125_randls_59.json,http://54.235.29.9/FacialAge/BNav_EC2/DepthDuration/v2_depth_duration_MTurk/v2_DepthDuration_HTML.html#68,68,1366,657,1366,768,8-30-2022,8-7-54,19,depth_duration_stimuli/001650_2014-06-20_12-09-00_260595134347_rgbf000087-resize_3/001650_2014-06-20_12-09-00_260595134347_rgbf000087-resize_3-target.png,125,1.9505,5,2904,124,meters,jsons/VE125_randls_59.json,618959,707083,30,Man
19,402343,DepthScenes,duration_manipulation_targetAtFixation,jsons/VE125_randls_59.json,http://54.235.29.9/FacialAge/BNav_EC2/DepthDuration/v2_depth_duration_MTurk/v2_DepthDuration_HTML.html#68,68,1366,657,1366,768,8-30-2022,8-7-54,20,depth_duration_stimuli/001167_2014-06-17_15-38-07_260595134347_rgbf000108-resize_0/001167_2014-06-17_15-38-07_260595134347_rgbf000108-resize_0-target.png,125,1.8505,5,3247,130,meters,jsons/VE125_randls_59.json,618959,707083,30,Man
20,402343,DepthScenes,duration_manipulation_targetAtFixation,jsons/VE125_randls_59.json,http://54.235.29.9/FacialAge/BNav_EC2/DepthDuration/v2_depth_duration_MTurk/v2_DepthDuration_HTML.html#68,68,1366,657,1366,768,8-30-2022,8-7-54,21,depth_duration_stimuli/003587_2014-05-23_16-48-02_094959634447_rgbf002384-resize_2/003587_2014-05-23_16-48-02_094959634447_rgbf002384-resize_2-target.png,125,1.357,5,2969,124,meters,jsons/VE125_randls_59.json,618959,707083,30,Man
21,402343,DepthScenes,duration_manipulation_targetAtFixation,jsons/VE125_randls_59.json,http://54.235.29.9/FacialAge/BNav_EC2/DepthDuration/v2_depth_duration_MTurk/v2_DepthDuration_HTML.html#68,68,1366,657,1366,768,8-30-2022,8-7-54,22,depth_duration_stimuli/002375_2014-06-28_20-13-44_260595134347_rgbf000032-resize_1/002375_2014-06-28_20-13-44_260595134347_rgbf000032-resize_1-target.png,125,4.0175,5,3331,110,meters,jsons/VE125_randls_59.json,618959,707083,30,Man
22,402343,DepthScenes,duration_manipulation_targetAtFixation,jsons/VE125_randls_59.json,http://54.235.29.9/FacialAge/BNav_EC2/DepthDuration/v2_depth_duration_MTurk/v2_DepthDuration_HTML.html#68,68,1366,657,1366,768,8-30-2022,8-7-54,23,depth_duration_stimuli/002657_2014-06-13_15-29-54_094959634447_rgbf000150-resize_1/002657_2014-06-13_15-29-54_094959634447_rgbf000150-resize_1-target.png,125,4.919,5,2966,124,meters,jsons/VE125_randls_59.json,618959,707083,30,Man
23,402343,DepthScenes,duration_manipulation_targetAtFixation,jsons/VE125_randls_59.json,http://54.235.29.9/FacialAge/BNav_EC2/DepthDuration/v2_depth_duration_MTurk/v2_DepthDuration_HTML.html#68,68,1366,657,1366,768,8-30-2022,8-7-54,24,depth_duration_stimuli/001199_2014-06-17_16-03-48_260595134347_rgbf000077-resize_0/001199_2014-06-17_16-03-48_260595134347_rgbf000077-resize_0-target.png,125,3.4375,10,4791,115,meters,jsons/VE125_randls_59.json,618959,707083,30,Man
24,402343,DepthScenes,duration_manipulation_targetAtFixation,jsons/VE125_randls_59.json,http://54.235.29.9/FacialAge/BNav_EC2/DepthDuration/v2_depth_duration_MTurk/v2_DepthDuration_HTML.html#68,68,1366,657,1366,768,8-30-2022,8-7-54,25,depth_duration_stimuli/000502_2014-06-08_23-02-32_260595134347_rgbf000063-resize_4/000502_2014-06-08_23-02-32_260595134347_rgbf000063-resize_4-target.png,125,2.431,10,4265,117,meters,jsons/VE125_randls_59.json,618959,707083,30,Man
25,402343,DepthScenes,duration_manipulation_targetAtFixation,jsons/VE125_randls_59.json,http://54.235.29.9/FacialAge/BNav_EC2/DepthDuration/v2_depth_duration_MTurk/v2_DepthDuration_HTML.html#68,68,1366,657,1366,768,8-30-2022,8-7-54,26,depth_duration_stimuli/001164_2014-06-17_15-35-46_260595134347_rgbf000085-resize_3/001164_2014-06-17_15-35-46_260595134347_rgbf000085-resize_3-target.png,125,2.354,10,3149,126,meters,jsons/VE125_randls_59.json,618959,707083,30,Man
26,402343,DepthScenes,duration_manipulation_targetAtFixation,jsons/VE125_randls_59.json,http://54.235.29.9/FacialAge/BNav_EC2/DepthDuration/v2_depth_duration_MTurk/v2_DepthDuration_HTML.html#68,68,1366,657,1366,768,8-30-2022,8-7-54,27,depth_duration_stimuli/001136_2014-06-17_15-19-41_260595134347_rgbf000076-resize_3/001136_2014-06-17_15-19-41_260595134347_rgbf000076-resize_3-target.png,125,1.8655,10,3217,126,meters,jsons/VE125_randls_59.json,618959,707083,30,Man
27,402343,DepthScenes,duration_manipulation_targetAtFixation,jsons/VE125_randls_59.json,http://54.235.29.9/FacialAge/BNav_EC2/DepthDuration/v2_depth_duration_MTurk/v2_DepthDuration_HTML.html#68,68,1366,657,1366,768,8-30-2022,8-7-54,28,depth_duration_stimuli/002213_2014-06-28_18-37-58_260595134347_rgbf000055-resize_1/002213_2014-06-28_18-37-58_260595134347_rgbf000055-resize_1-target.png,125,3.62,10,4445,111,meters,jsons/VE125_randls_59.json,618959,707083,30,Man
28,402343,DepthScenes,duration_manipulation_targetAtFixation,jsons/VE125_randls_59.json,http://54.235.29.9/FacialAge/BNav_EC2/DepthDuration/v2_depth_duration_MTurk/v2_DepthDuration_HTML.html#68,68,1366,657,1366,768,8-30-2022,8-7-54,29,depth_duration_stimuli/000691_2014-06-08_13-08-50_260595134347_rgbf000132-resize_3/000691_2014-06-08_13-08-50_260595134347_rgbf000132-resize_3-target.png,125,4.1530000000000005,10,2817,124,meters,jsons/VE125_randls_59.json,618959,707083,30,Man
29,402343,DepthScenes,duration_manipulation_targetAtFixation,jsons/VE125_randls_59.json,http://54.235.29.9/FacialAge/BNav_EC2/DepthDuration/v2_depth_duration_MTurk/v2_DepthDuration_HTML.html#68,68,1366,657,1366,768,8-30-2022,8-7-54,30,depth_duration_stimuli/000375_2014-06-08_11-17-29_260595134347_rgbf000133-resize_2/000375_2014-06-08_11-17-29_260595134347_rgbf000133-resize-original.jpg,125,4.718,10,3560,121,meters,jsons/VE125_randls_59.json,618959,707083,30,Man
30,402343,DepthScenes,duration_manipulation_targetAtFixation,jsons/VE125_randls_59.json,http://54.235.29.9/FacialAge/BNav_EC2/DepthDuration/v2_depth_duration_MTurk/v2_DepthDuration_HTML.html#68,68,1366,657,1366,768,8-30-2022,8-7-54,31,depth_duration_stimuli/001110_2014-06-15_17-25-28_260595134347_rgbf000150-resize_1/001110_2014-06-15_17-25-28_260595134347_rgbf000150-resize_1-target.png,125,1.7115,10,2796,125,meters,jsons/VE125_randls_59.json,618959,707083,30,Man
31,402343,DepthScenes,duration_manipulation_targetAtFixation,jsons/VE125_randls_59.json,http://54.235.29.9/FacialAge/BNav_EC2/DepthDuration/v2_depth_duration_MTurk/v2_DepthDuration_HTML.html#68,68,1366,657,1366,768,8-30-2022,8-7-54,32,depth_duration_stimuli/000927_2014-06-09_16-32-30_260595134347_rgbf000123-resize_3/000927_2014-06-09_16-32-30_260595134347_rgbf000123-resize_3-target.png,125,2.6785,10,2921,133,meters,jsons/VE125_randls_59.json,618959,707083,30,Man
32,402343,DepthScenes,duration_manipulation_targetAtFixation,jsons/VE125_randls_59.json,http://54.235.29.9/FacialAge/BNav_EC2/DepthDuration/v2_depth_duration_MTurk/v2_DepthDuration_HTML.html#68,68,1366,657,1366,768,8-30-2022,8-7-54,33,depth_duration_stimuli/003070_2014-06-15_14-58-27_094959634447_rgbf000150-resize_3/003070_2014-06-15_14-58-27_094959634447_rgbf000150-resize_3-target.png,125,2.9415,10,3441,129,meters,jsons/VE125_randls_59.json,618959,707083,30,Man
33,402343,DepthScenes,duration_manipulation_targetAtFixation,jsons/VE125_randls_59.json,http://54.235.29.9/FacialAge/BNav_EC2/DepthDuration/v2_depth_duration_MTurk/v2_DepthDuration_HTML.html#68,68,1366,657,1366,768,8-30-2022,8-7-54,34,depth_duration_stimuli/000943_2014-06-09_19-31-07_260595134347_rgbf000128-resize_1/000943_2014-06-09_19-31-07_260595134347_rgbf000128-resize_1-target.png,125,1.9765,10,5129,126,meters,jsons/VE125_randls_59.json,618959,707083,30,Man
34,402343,DepthScenes,duration_manipulation_targetAtFixation,jsons/VE125_randls_59.json,http://54.235.29.9/FacialAge/BNav_EC2/DepthDuration/v2_depth_duration_MTurk/v2_DepthDuration_HTML.html#68,68,1366,657,1366,768,8-30-2022,8-7-54,35,depth_duration_stimuli/001449_2014-06-19_17-01-27_260595134347_rgbf000116-resize_2/001449_2014-06-19_17-01-27_260595134347_rgbf000116-resize_2-target.png,125,3.452,10,3360,125,meters,jsons/VE125_randls_59.json,618959,707083,30,Man
35,402343,DepthScenes,duration_manipulation_targetAtFixation,jsons/VE125_randls_59.json,http://54.235.29.9/FacialAge/BNav_EC2/DepthDuration/v2_depth_duration_MTurk/v2_DepthDuration_HTML.html#68,68,1366,657,1366,768,8-30-2022,8-7-54,36,depth_duration_stimuli/001450_2014-06-19_17-02-03_260595134347_rgbf000203-resize_4/001450_2014-06-19_17-02-03_260595134347_rgbf000203-resize_4-target.png,125,4.0106666666667,10,2934,122,meters,jsons/VE125_randls_59.json,618959,707083,30,Man
36,402343,DepthScenes,duration_manipulation_targetAtFixation,jsons/VE125_randls_59.json,http://54.235.29.9/FacialAge/BNav_EC2/DepthDuration/v2_depth_duration_MTurk/v2_DepthDuration_HTML.html#68,68,1366,657,1366,768,8-30-2022,8-7-54,37,depth_duration_stimuli/001150_2014-06-17_15-27-34_260595134347_rgbf000108-resize_2/001150_2014-06-17_15-27-34_260595134347_rgbf000108-resize_2-target.png,125,4.0325,10,2967,130,meters,jsons/VE125_randls_59.json,618959,707083,30,Man
37,402343,DepthScenes,duration_manipulation_targetAtFixation,jsons/VE125_randls_59.json,http://54.235.29.9/FacialAge/BNav_EC2/DepthDuration/v2_depth_duration_MTurk/v2_DepthDuration_HTML.html#68,68,1366,657,1366,768,8-30-2022,8-7-54,38,depth_duration_stimuli/000665_2014-06-09_20-42-35_260595134347_rgbf000110-resize_1/000665_2014-06-09_20-42-35_260595134347_rgbf000110-resize_1-target.png,125,3.057,5,2428,120,meters,jsons/VE125_randls_59.json,618959,707083,30,Man
38,402343,DepthScenes,duration_manipulation_targetAtFixation,jsons/VE125_randls_59.json,http://54.235.29.9/FacialAge/BNav_EC2/DepthDuration/v2_depth_duration_MTurk/v2_DepthDuration_HTML.html#68,68,1366,657,1366,768,8-30-2022,8-7-54,39,depth_duration_stimuli/002905_2014-06-03_18-04-43_094959634447_rgbf000151-resize_2/002905_2014-06-03_18-04-43_094959634447_rgbf000151-resize_2-target.png,125,2.0295,5,3097,114,meters,jsons/VE125_randls_59.json,618959,707083,30,Man
39,402343,DepthScenes,duration_manipulation_targetAtFixation,jsons/VE125_randls_59.json,http://54.235.29.9/FacialAge/BNav_EC2/DepthDuration/v2_depth_duration_MTurk/v2_DepthDuration_HTML.html#68,68,1366,657,1366,768,8-30-2022,8-7-54,40,depth_duration_stimuli/003423_2014-05-21_10-23-26_094959634447_rgbf002665-resize_2/003423_2014-05-21_10-23-26_094959634447_rgbf002665-resize_2-target.png,125,3.2575,5,3243,131,meters,jsons/VE125_randls_59.json,618959,707083,30,Man
40,402343,DepthScenes,duration_manipulation_targetAtFixation,jsons/VE125_randls_59.json,http://54.235.29.9/FacialAge/BNav_EC2/DepthDuration/v2_depth_duration_MTurk/v2_DepthDuration_HTML.html#68,68,1366,657,1366,768,8-30-2022,8-7-54,41,depth_duration_stimuli/002057_2014-06-24_21-00-13_260595134347_rgbf000120-resize_1/002057_2014-06-24_21-00-13_260595134347_rgbf000120-resize_1-target.png,125,2.967,10,2900,122,meters,jsons/VE125_randls_59.json,618959,707083,30,Man
41,402343,DepthScenes,duration_manipulation_targetAtFixation,jsons/VE125_randls_59.json,http://54.235.29.9/FacialAge/BNav_EC2/DepthDuration/v2_depth_duration_MTurk/v2_DepthDuration_HTML.html#68,68,1366,657,1366,768,8-30-2022,8-7-54,42,depth_duration_stimuli/000709_2014-06-08_13-51-55_260595134347_rgbf000068-resize_3/000709_2014-06-08_13-51-55_260595134347_rgbf000068-resize_3-target.png,125,1.8030000000000002,10,2890,126,meters,jsons/VE125_randls_59.json,618959,707083,30,Man
42,402343,DepthScenes,duration_manipulation_targetAtFixation,jsons/VE125_randls_59.json,http://54.235.29.9/FacialAge/BNav_EC2/DepthDuration/v2_depth_duration_MTurk/v2_DepthDuration_HTML.html#68,68,1366,657,1366,768,8-30-2022,8-7-54,43,depth_duration_stimuli/000469_2014-06-09_19-42-10_260595134347_rgbf000081-resize_1/000469_2014-06-09_19-42-10_260595134347_rgbf000081-resize_1-target.png,125,1.652,10,3212,126,meters,jsons/VE125_randls_59.json,618959,707083,30,Man
43,402343,DepthScenes,duration_manipulation_targetAtFixation,jsons/VE125_randls_59.json,http://54.235.29.9/FacialAge/BNav_EC2/DepthDuration/v2_depth_duration_MTurk/v2_DepthDuration_HTML.html#68,68,1366,657,1366,768,8-30-2022,8-7-54,44,depth_duration_stimuli/000483_2014-06-09_20-41-45_260595134347_rgbf000116-resize_4/000483_2014-06-09_20-41-45_260595134347_rgbf000116-resize_4-target.png,125,1.337,5,2535,121,meters,jsons/VE125_randls_59.json,618959,707083,30,Man
44,402343,DepthScenes,duration_manipulation_targetAtFixation,jsons/VE125_randls_59.json,http://54.235.29.9/FacialAge/BNav_EC2/DepthDuration/v2_depth_duration_MTurk/v2_DepthDuration_HTML.html#68,68,1366,657,1366,768,8-30-2022,8-7-54,45,depth_duration_stimuli/000787_2014-06-08_22-33-53_260595134347_rgbf000175-resize_1/000787_2014-06-08_22-33-53_260595134347_rgbf000175-resize-original.jpg,125,4.784,5,2670,118,meters,jsons/VE125_randls_59.json,618959,707083,30,Man
45,402343,DepthScenes,duration_manipulation_targetAtFixation,jsons/VE125_randls_59.json,http://54.235.29.9/FacialAge/BNav_EC2/DepthDuration/v2_depth_duration_MTurk/v2_DepthDuration_HTML.html#68,68,1366,657,1366,768,8-30-2022,8-7-54,46,depth_duration_stimuli/002989_2014-06-15_12-25-03_094959634447_rgbf000150-resize_3/002989_2014-06-15_12-25-03_094959634447_rgbf000150-resize_3-target.png,125,4.1975,10,3994,136,meters,jsons/VE125_randls_59.json,618959,707083,30,Man
46,402343,DepthScenes,duration_manipulation_targetAtFixation,jsons/VE125_randls_59.json,http://54.235.29.9/FacialAge/BNav_EC2/DepthDuration/v2_depth_duration_MTurk/v2_DepthDuration_HTML.html#68,68,1366,657,1366,768,8-30-2022,8-7-54,47,depth_duration_stimuli/000866_2014-06-09_20-45-42_260595134347_rgbf000139-resize_1/000866_2014-06-09_20-45-42_260595134347_rgbf000139-resize_1-target.png,125,3.2155,10,4554,128,meters,jsons/VE125_randls_59.json,618959,707083,30,Man
47,402343,DepthScenes,duration_manipulation_targetAtFixation,jsons/VE125_randls_59.json,http://54.235.29.9/FacialAge/BNav_EC2/DepthDuration/v2_depth_duration_MTurk/v2_DepthDuration_HTML.html#68,68,1366,657,1366,768,8-30-2022,8-7-54,48,depth_duration_stimuli/000906_2014-06-08_13-35-43_260595134347_rgbf000155-resize_1/000906_2014-06-08_13-35-43_260595134347_rgbf000155-resize_1-target.png,125,2.8489999999999998,10,3558,121,meters,jsons/VE125_randls_59.json,618959,707083,30,Man
48,402343,DepthScenes,duration_manipulation_targetAtFixation,jsons/VE125_randls_59.json,http://54.235.29.9/FacialAge/BNav_EC2/DepthDuration/v2_depth_duration_MTurk/v2_DepthDuration_HTML.html#68,68,1366,657,1366,768,8-30-2022,8-7-54,49,depth_duration_stimuli/002805_2014-06-22_19-54-03_094959634447_rgbf000079-resize_1/002805_2014-06-22_19-54-03_094959634447_rgbf000079-resize_1-target.png,125,3.1439999999999997,10,3874,122,meters,jsons/VE125_randls_59.json,618959,707083,30,Man
49,402343,DepthScenes,duration_manipulation_targetAtFixation,jsons/VE125_randls_59.json,http://54.235.29.9/FacialAge/BNav_EC2/DepthDuration/v2_depth_duration_MTurk/v2_DepthDuration_HTML.html#68,68,1366,657,1366,768,8-30-2022,8-7-54,50,depth_duration_stimuli/000506_2014-06-08_23-21-00_260595134347_rgbf000070-resize_7/000506_2014-06-08_23-21-00_260595134347_rgbf000070-resize_7-target.png,125,4.0585,10,3246,121,meters,jsons/VE125_randls_59.json,618959,707083,30,Man
50,402343,DepthScenes,duration_manipulation_targetAtFixation,jsons/VE125_randls_59.json,http://54.235.29.9/FacialAge/BNav_EC2/DepthDuration/v2_depth_duration_MTurk/v2_DepthDuration_HTML.html#68,68,1366,657,1366,768,8-30-2022,8-7-54,51,depth_duration_stimuli/003079_2014-06-15_15-18-20_094959634447_rgbf000152-resize_8/003079_2014-06-15_15-18-20_094959634447_rgbf000152-resize_8-target.png,125,2.8775,10,4713,129,meters,jsons/VE125_randls_59.json,618959,707083,30,Man
51,402343,DepthScenes,duration_manipulation_targetAtFixation,jsons/VE125_randls_59.json,http://54.235.29.9/FacialAge/BNav_EC2/DepthDuration/v2_depth_duration_MTurk/v2_DepthDuration_HTML.html#68,68,1366,657,1366,768,8-30-2022,8-7-54,52,depth_duration_stimuli/002509_2014-06-24_13-19-22_094959634447_rgbf000077-resize_0/002509_2014-06-24_13-19-22_094959634447_rgbf000077-resize_0-target.png,125,1.3065,10,3605,118,meters,jsons/VE125_randls_59.json,618959,707083,30,Man
52,402343,DepthScenes,duration_manipulation_targetAtFixation,jsons/VE125_randls_59.json,http://54.235.29.9/FacialAge/BNav_EC2/DepthDuration/v2_depth_duration_MTurk/v2_DepthDuration_HTML.html#68,68,1366,657,1366,768,8-30-2022,8-7-54,53,depth_duration_stimuli/003338_2014-05-20_11-01-23_094959634447_rgbf000051-resize_6/003338_2014-05-20_11-01-23_094959634447_rgbf000051-resize_6-target.png,125,1.693,10,2722,130,meters,jsons/VE125_randls_59.json,618959,707083,30,Man
53,402343,DepthScenes,duration_manipulation_targetAtFixation,jsons/VE125_randls_59.json,http://54.235.29.9/FacialAge/BNav_EC2/DepthDuration/v2_depth_duration_MTurk/v2_DepthDuration_HTML.html#68,68,1366,657,1366,768,8-30-2022,8-7-54,54,depth_duration_stimuli/001158_2014-06-17_15-32-16_260595134347_rgbf000138-resize_2/001158_2014-06-17_15-32-16_260595134347_rgbf000138-resize_2-target.png,125,4.5315,10,3024,122,meters,jsons/VE125_randls_59.json,618959,707083,30,Man
54,402343,DepthScenes,duration_manipulation_targetAtFixation,jsons/VE125_randls_59.json,http://54.235.29.9/FacialAge/BNav_EC2/DepthDuration/v2_depth_duration_MTurk/v2_DepthDuration_HTML.html#68,68,1366,657,1366,768,8-30-2022,8-7-54,55,depth_duration_stimuli/000556_2014-06-09_22-42-56_260595134347_rgbf000214-resize_1/000556_2014-06-09_22-42-56_260595134347_rgbf000214-resize_1-target.png,125,4.8415,10,2832,113,meters,jsons/VE125_randls_59.json,618959,707083,30,Man
55,402343,DepthScenes,duration_manipulation_targetAtFixation,jsons/VE125_randls_59.json,http://54.235.29.9/FacialAge/BNav_EC2/DepthDuration/v2_depth_duration_MTurk/v2_DepthDuration_HTML.html#68,68,1366,657,1366,768,8-30-2022,8-7-54,56,depth_duration_stimuli/000788_2014-06-08_22-34-36_260595134347_rgbf000131-resize_1/000788_2014-06-08_22-34-36_260595134347_rgbf000131-resize_1-target.png,125,3.359,10,3313,124,meters,jsons/VE125_randls_59.json,618959,707083,30,Man
56,402343,DepthScenes,duration_manipulation_targetAtFixation,jsons/VE125_randls_59.json,http://54.235.29.9/FacialAge/BNav_EC2/DepthDuration/v2_depth_duration_MTurk/v2_DepthDuration_HTML.html#68,68,1366,657,1366,768,8-30-2022,8-7-54,57,depth_duration_stimuli/001235_2014-06-17_16-37-36_260595134347_rgbf000084-resize_4/001235_2014-06-17_16-37-36_260595134347_rgbf000084-resize_4-target.png,125,3.6605,10,3695,124,meters,jsons/VE125_randls_59.json,618959,707083,30,Man
57,402343,DepthScenes,duration_manipulation_targetAtFixation,jsons/VE125_randls_59.json,http://54.235.29.9/FacialAge/BNav_EC2/DepthDuration/v2_depth_duration_MTurk/v2_DepthDuration_HTML.html#68,68,1366,657,1366,768,8-30-2022,8-7-54,58,depth_duration_stimuli/002153_2014-06-25_21-27-18_260595134347_rgbf000038-resize_5/002153_2014-06-25_21-27-18_260595134347_rgbf000038-resize_5-target.png,125,2.505,10,3910,126,meters,jsons/VE125_randls_59.json,618959,707083,30,Man
58,402343,DepthScenes,duration_manipulation_targetAtFixation,jsons/VE125_randls_59.json,http://54.235.29.9/FacialAge/BNav_EC2/DepthDuration/v2_depth_duration_MTurk/v2_DepthDuration_HTML.html#68,68,1366,657,1366,768,8-30-2022,8-7-54,59,depth_duration_stimuli/002660_2014-06-13_15-44-18_094959634447_rgbf001878-resize_2/002660_2014-06-13_15-44-18_094959634447_rgbf001878-resize_2-target.png,125,3.576,10,2761,127,meters,jsons/VE125_randls_59.json,618959,707083,30,Man
59,402343,DepthScenes,duration_manipulation_targetAtFixation,jsons/VE125_randls_59.json,http://54.235.29.9/FacialAge/BNav_EC2/DepthDuration/v2_depth_duration_MTurk/v2_DepthDuration_HTML.html#68,68,1366,657,1366,768,8-30-2022,8-7-54,60,depth_duration_stimuli/000810_2014-06-08_17-20-01_260595134347_rgbf000105-resize_0/000810_2014-06-08_17-20-01_260595134347_rgbf000105-resize_0-target.png,125,1.4865,10,2969,121,meters,jsons/VE125_randls_59.json,618959,707083,30,Man
60,402343,DepthScenes,duration_manipulation_targetAtFixation,jsons/VE125_randls_59.json,http://54.235.29.9/FacialAge/BNav_EC2/DepthDuration/v2_depth_duration_MTurk/v2_DepthDuration_HTML.html#68,68,1366,657,1366,768,8-30-2022,8-7-54,61,depth_duration_stimuli/001214_2014-06-17_16-13-55_260595134347_rgbf000111-resize_0/001214_2014-06-17_16-13-55_260595134347_rgbf000111-resize_0-target.png,125,2.6505,5,2857,114,meters,jsons/VE125_randls_59.json,618959,707083,30,Man
61,402343,DepthScenes,duration_manipulation_targetAtFixation,jsons/VE125_randls_59.json,http://54.235.29.9/FacialAge/BNav_EC2/DepthDuration/v2_depth_duration_MTurk/v2_DepthDuration_HTML.html#68,68,1366,657,1366,768,8-30-2022,8-7-54,62,depth_duration_stimuli/002039_2014-06-24_20-22-38_260595134347_rgbf000084-resize_1/002039_2014-06-24_20-22-38_260595134347_rgbf000084-resize_1-target.png,125,4.408,10,2987,123,meters,jsons/VE125_randls_59.json,618959,707083,30,Man
62,402343,DepthScenes,duration_manipulation_targetAtFixation,jsons/VE125_randls_59.json,http://54.235.29.9/FacialAge/BNav_EC2/DepthDuration/v2_depth_duration_MTurk/v2_DepthDuration_HTML.html#68,68,1366,657,1366,768,8-30-2022,8-7-54,63,depth_duration_stimuli/002103_2014-06-25_20-00-40_260595134347_rgbf000049-resize_0/002103_2014-06-25_20-00-40_260595134347_rgbf000049-resize_0-target.png,125,4.105,10,3137,128,meters,jsons/VE125_randls_59.json,618959,707083,30,Man
63,402343,DepthScenes,duration_manipulation_targetAtFixation,jsons/VE125_randls_59.json,http://54.235.29.9/FacialAge/BNav_EC2/DepthDuration/v2_depth_duration_MTurk/v2_DepthDuration_HTML.html#68,68,1366,657,1366,768,8-30-2022,8-7-54,64,depth_duration_stimuli/003292_2014-05-14_21-53-49_094959634447_rgbf000100-resize_2/003292_2014-05-14_21-53-49_094959634447_rgbf000100-resize_2-target.png,125,3.4815,10,2893,125,meters,jsons/VE125_randls_59.json,618959,707083,30,Man
64,402343,DepthScenes,duration_manipulation_targetAtFixation,jsons/VE125_randls_59.json,http://54.235.29.9/FacialAge/BNav_EC2/DepthDuration/v2_depth_duration_MTurk/v2_DepthDuration_HTML.html#68,68,1366,657,1366,768,8-30-2022,8-7-54,65,depth_duration_stimuli/002639_2014-06-24_14-51-37_094959634447_rgbf000074-resize_4/002639_2014-06-24_14-51-37_094959634447_rgbf000074-resize_4-target.png,125,4.0375,10,2907,115,meters,jsons/VE125_randls_59.json,618959,707083,30,Man
65,402343,DepthScenes,duration_manipulation_targetAtFixation,jsons/VE125_randls_59.json,http://54.235.29.9/FacialAge/BNav_EC2/DepthDuration/v2_depth_duration_MTurk/v2_DepthDuration_HTML.html#68,68,1366,657,1366,768,8-30-2022,8-7-54,66,depth_duration_stimuli/001222_2014-06-17_16-24-06_260595134347_rgbf000073-resize_0/001222_2014-06-17_16-24-06_260595134347_rgbf000073-resize-original.jpg,125,1.4385,10,3124,125,meters,jsons/VE125_randls_59.json,618959,707083,30,Man
66,402343,DepthScenes,duration_manipulation_targetAtFixation,jsons/VE125_randls_59.json,http://54.235.29.9/FacialAge/BNav_EC2/DepthDuration/v2_depth_duration_MTurk/v2_DepthDuration_HTML.html#68,68,1366,657,1366,768,8-30-2022,8-7-54,67,depth_duration_stimuli/003621_2014-05-23_18-06-08_094959634447_rgbf000101-resize_1/003621_2014-05-23_18-06-08_094959634447_rgbf000101-resize_1-target.png,125,3.9835,10,2948,120,meters,jsons/VE125_randls_59.json,618959,707083,30,Man
67,402343,DepthScenes,duration_manipulation_targetAtFixation,jsons/VE125_randls_59.json,http://54.235.29.9/FacialAge/BNav_EC2/DepthDuration/v2_depth_duration_MTurk/v2_DepthDuration_HTML.html#68,68,1366,657,1366,768,8-30-2022,8-7-54,68,depth_duration_stimuli/001584_2014-06-20_11-07-43_260595134347_rgbf000002-resize_1/001584_2014-06-20_11-07-43_260595134347_rgbf000002-resize_1-target.png,125,3.53,10,2903,123,meters,jsons/VE125_randls_59.json,618959,707083,30,Man
68,402343,DepthScenes,duration_manipulation_targetAtFixation,jsons/VE125_randls_59.json,http://54.235.29.9/FacialAge/BNav_EC2/DepthDuration/v2_depth_duration_MTurk/v2_DepthDuration_HTML.html#68,68,1366,657,1366,768,8-30-2022,8-7-54,69,depth_duration_stimuli/000773_2014-06-08_22-24-54_260595134347_rgbf000093-resize_1/000773_2014-06-08_22-24-54_260595134347_rgbf000093-resize_1-target.png,125,4.973,10,4284,124,meters,jsons/VE125_randls_59.json,618959,707083,30,Man
69,402343,DepthScenes,duration_manipulation_targetAtFixation,jsons/VE125_randls_59.json,http://54.235.29.9/FacialAge/BNav_EC2/DepthDuration/v2_depth_duration_MTurk/v2_DepthDuration_HTML.html#68,68,1366,657,1366,768,8-30-2022,8-7-54,70,depth_duration_stimuli/002414_2014-06-28_20-24-58_260595134347_rgbf000067-resize_4/002414_2014-06-28_20-24-58_260595134347_rgbf000067-resize_4-target.png,125,4.363,10,3026,128,meters,jsons/VE125_randls_59.json,618959,707083,30,Man
70,402343,DepthScenes,duration_manipulation_targetAtFixation,jsons/VE125_randls_59.json,http://54.235.29.9/FacialAge/BNav_EC2/DepthDuration/v2_depth_duration_MTurk/v2_DepthDuration_HTML.html#68,68,1366,657,1366,768,8-30-2022,8-7-54,71,depth_duration_stimuli/001806_2014-06-26_20-50-20_260595134347_rgbf000091-resize_1/001806_2014-06-26_20-50-20_260595134347_rgbf000091-resize_1-target.png,125,2.7305,5,2816,132,meters,jsons/VE125_randls_59.json,618959,707083,30,Man
71,402343,DepthScenes,duration_manipulation_targetAtFixation,jsons/VE125_randls_59.json,http://54.235.29.9/FacialAge/BNav_EC2/DepthDuration/v2_depth_duration_MTurk/v2_DepthDuration_HTML.html#68,68,1366,657,1366,768,8-30-2022,8-7-54,72,depth_duration_stimuli/001617_2014-06-20_11-35-32_260595134347_rgbf000066-resize_1/001617_2014-06-20_11-35-32_260595134347_rgbf000066-resize_1-target.png,125,3.7910000000000004,10,3509,121,meters,jsons/VE125_randls_59.json,618959,707083,30,Man
72,402343,DepthScenes,duration_manipulation_targetAtFixation,jsons/VE125_randls_59.json,http://54.235.29.9/FacialAge/BNav_EC2/DepthDuration/v2_depth_duration_MTurk/v2_DepthDuration_HTML.html#68,68,1366,657,1366,768,8-30-2022,8-7-54,73,depth_duration_stimuli/001056_2014-06-08_18-46-44_260595134347_rgbf000068-resize_0/001056_2014-06-08_18-46-44_260595134347_rgbf000068-resize_0-target.png,125,2.6625,10,4519,124,meters,jsons/VE125_randls_59.json,618959,707083,30,Man
73,402343,DepthScenes,duration_manipulation_targetAtFixation,jsons/VE125_randls_59.json,http://54.235.29.9/FacialAge/BNav_EC2/DepthDuration/v2_depth_duration_MTurk/v2_DepthDuration_HTML.html#68,68,1366,657,1366,768,8-30-2022,8-7-54,74,depth_duration_stimuli/002199_2014-06-28_18-33-56_260595134347_rgbf000074-resize_0/002199_2014-06-28_18-33-56_260595134347_rgbf000074-resize_0-target.png,125,1.996,10,3020,118,meters,jsons/VE125_randls_59.json,618959,707083,30,Man
74,402343,DepthScenes,duration_manipulation_targetAtFixation,jsons/VE125_randls_59.json,http://54.235.29.9/FacialAge/BNav_EC2/DepthDuration/v2_depth_duration_MTurk/v2_DepthDuration_HTML.html#68,68,1366,657,1366,768,8-30-2022,8-7-54,75,depth_duration_stimuli/001555_2014-06-20_17-12-10_260595134347_rgbf000065-resize_4/001555_2014-06-20_17-12-10_260595134347_rgbf000065-resize_4-target.png,125,1.633,5,2479,126,meters,jsons/VE125_randls_59.json,618959,707083,30,Man
75,402343,DepthScenes,duration_manipulation_targetAtFixation,jsons/VE125_randls_59.json,http://54.235.29.9/FacialAge/BNav_EC2/DepthDuration/v2_depth_duration_MTurk/v2_DepthDuration_HTML.html#68,68,1366,657,1366,768,8-30-2022,8-7-54,76,depth_duration_stimuli/000103_2014-05-14_22-01-17_260595134347_rgbf000152-resize_5/000103_2014-05-14_22-01-17_260595134347_rgbf000152-resize_5-target.png,125,1.993,10,2802,116,meters,jsons/VE125_randls_59.json,618959,707083,30,Man
76,402343,DepthScenes,duration_manipulation_targetAtFixation,jsons/VE125_randls_59.json,http://54.235.29.9/FacialAge/BNav_EC2/DepthDuration/v2_depth_duration_MTurk/v2_DepthDuration_HTML.html#68,68,1366,657,1366,768,8-30-2022,8-7-54,77,depth_duration_stimuli/000758_2014-06-08_22-05-08_260595134347_rgbf000085-resize_0/000758_2014-06-08_22-05-08_260595134347_rgbf000085-resize_0-target.png,125,3.3810000000000002,10,3215,120,meters,jsons/VE125_randls_59.json,618959,707083,30,Man
77,402343,DepthScenes,duration_manipulation_targetAtFixation,jsons/VE125_randls_59.json,http://54.235.29.9/FacialAge/BNav_EC2/DepthDuration/v2_depth_duration_MTurk/v2_DepthDuration_HTML.html#68,68,1366,657,1366,768,8-30-2022,8-7-54,78,depth_duration_stimuli/000854_2014-06-09_19-43-13_260595134347_rgbf000066-resize_0/000854_2014-06-09_19-43-13_260595134347_rgbf000066-resize_0-target.png,125,3.068,5,2783,129,meters,jsons/VE125_randls_59.json,618959,707083,30,Man
78,402343,DepthScenes,duration_manipulation_targetAtFixation,jsons/VE125_randls_59.json,http://54.235.29.9/FacialAge/BNav_EC2/DepthDuration/v2_depth_duration_MTurk/v2_DepthDuration_HTML.html#68,68,1366,657,1366,768,8-30-2022,8-7-54,79,depth_duration_stimuli/000692_2014-06-08_13-09-42_260595134347_rgbf000199-resize_2/000692_2014-06-08_13-09-42_260595134347_rgbf000199-resize_2-target.png,125,3.661,10,3045,122,meters,jsons/VE125_randls_59.json,618959,707083,30,Man
79,402343,DepthScenes,duration_manipulation_targetAtFixation,jsons/VE125_randls_59.json,http://54.235.29.9/FacialAge/BNav_EC2/DepthDuration/v2_depth_duration_MTurk/v2_DepthDuration_HTML.html#68,68,1366,657,1366,768,8-30-2022,8-7-54,80,depth_duration_stimuli/001094_2014-06-15_17-36-00_260595134347_rgbf000205-resize_0/001094_2014-06-15_17-36-00_260595134347_rgbf000205-resize_0-target.png,125,4.2175,10,2985,118,meters,jsons/VE125_randls_59.json,618959,707083,30,Man
80,402343,DepthScenes,duration_manipulation_targetAtFixation,jsons/VE125_randls_59.json,http://54.235.29.9/FacialAge/BNav_EC2/DepthDuration/v2_depth_duration_MTurk/v2_DepthDuration_HTML.html#68,68,1366,657,1366,768,8-30-2022,8-7-54,81,depth_duration_stimuli/002043_2014-06-24_20-29-38_260595134347_rgbf000039-resize_4/002043_2014-06-24_20-29-38_260595134347_rgbf000039-resize_4-target.png,125,2.8435,10,2994,125,meters,jsons/VE125_randls_59.json,618959,707083,30,Man
81,402343,DepthScenes,duration_manipulation_targetAtFixation,jsons/VE125_randls_59.json,http://54.235.29.9/FacialAge/BNav_EC2/DepthDuration/v2_depth_duration_MTurk/v2_DepthDuration_HTML.html#68,68,1366,657,1366,768,8-30-2022,8-7-54,82,depth_duration_stimuli/003048_2014-06-15_13-49-43_094959634447_rgbf000150-resize_1/003048_2014-06-15_13-49-43_094959634447_rgbf000150-resize_1-target.png,125,4.0035,10,4187,118,meters,jsons/VE125_randls_59.json,618959,707083,30,Man
82,402343,DepthScenes,duration_manipulation_targetAtFixation,jsons/VE125_randls_59.json,http://54.235.29.9/FacialAge/BNav_EC2/DepthDuration/v2_depth_duration_MTurk/v2_DepthDuration_HTML.html#68,68,1366,657,1366,768,8-30-2022,8-7-54,83,depth_duration_stimuli/002964_2014-06-08_17-46-11_094959634447_rgbf000091-resize_4/002964_2014-06-08_17-46-11_094959634447_rgbf000091-resize_4-target.png,125,1.6909999999999998,10,3359,123,meters,jsons/VE125_randls_59.json,618959,707083,30,Man
83,402343,DepthScenes,duration_manipulation_targetAtFixation,jsons/VE125_randls_59.json,http://54.235.29.9/FacialAge/BNav_EC2/DepthDuration/v2_depth_duration_MTurk/v2_DepthDuration_HTML.html#68,68,1366,657,1366,768,8-30-2022,8-7-54,84,depth_duration_stimuli/002136_2014-06-25_21-18-03_260595134347_rgbf000109-resize_3/002136_2014-06-25_21-18-03_260595134347_rgbf000109-resize_3-target.png,125,1.9569999999999999,10,3074,122,meters,jsons/VE125_randls_59.json,618959,707083,30,Man
84,402343,DepthScenes,duration_manipulation_targetAtFixation,jsons/VE125_randls_59.json,http://54.235.29.9/FacialAge/BNav_EC2/DepthDuration/v2_depth_duration_MTurk/v2_DepthDuration_HTML.html#68,68,1366,657,1366,768,8-30-2022,8-7-54,85,depth_duration_stimuli/000447_2014-06-08_16-15-46_260595134347_rgbf000130-resize_1/000447_2014-06-08_16-15-46_260595134347_rgbf000130-resize_1-target.png,125,4.479,10,2994,122,meters,jsons/VE125_randls_59.json,618959,707083,30,Man
85,402343,DepthScenes,duration_manipulation_targetAtFixation,jsons/VE125_randls_59.json,http://54.235.29.9/FacialAge/BNav_EC2/DepthDuration/v2_depth_duration_MTurk/v2_DepthDuration_HTML.html#68,68,1366,657,1366,768,8-30-2022,8-7-54,86,depth_duration_stimuli/001447_2014-06-19_17-00-32_260595134347_rgbf000082-resize_5/001447_2014-06-19_17-00-32_260595134347_rgbf000082-resize_5-target.png,125,4.13775,10,2793,124,meters,jsons/VE125_randls_59.json,618959,707083,30,Man
86,402343,DepthScenes,duration_manipulation_targetAtFixation,jsons/VE125_randls_59.json,http://54.235.29.9/FacialAge/BNav_EC2/DepthDuration/v2_depth_duration_MTurk/v2_DepthDuration_HTML.html#68,68,1366,657,1366,768,8-30-2022,8-7-54,87,depth_duration_stimuli/001059_2014-06-08_21-53-27_260595134347_rgbf000061-resize_4/001059_2014-06-08_21-53-27_260595134347_rgbf000061-resize_4-target.png,125,2.4185,10,3474,124,meters,jsons/VE125_randls_59.json,618959,707083,30,Man
87,402343,DepthScenes,duration_manipulation_targetAtFixation,jsons/VE125_randls_59.json,http://54.235.29.9/FacialAge/BNav_EC2/DepthDuration/v2_depth_duration_MTurk/v2_DepthDuration_HTML.html#68,68,1366,657,1366,768,8-30-2022,8-7-54,88,depth_duration_stimuli/001032_2014-06-08_13-23-17_260595134347_rgbf000021-resize_3/001032_2014-06-08_13-23-17_260595134347_rgbf000021-resize_3-target.png,125,3.2725,5,3051,123,meters,jsons/VE125_randls_59.json,618959,707083,30,Man
88,402343,DepthScenes,duration_manipulation_targetAtFixation,jsons/VE125_randls_59.json,http://54.235.29.9/FacialAge/BNav_EC2/DepthDuration/v2_depth_duration_MTurk/v2_DepthDuration_HTML.html#68,68,1366,657,1366,768,8-30-2022,8-7-54,89,depth_duration_stimuli/001092_2014-06-15_17-34-58_260595134347_rgbf000171-resize_3/001092_2014-06-15_17-34-58_260595134347_rgbf000171-resize_3-target.png,125,2.6935,5,3022,124,meters,jsons/VE125_randls_59.json,618959,707083,30,Man
89,402343,DepthScenes,duration_manipulation_targetAtFixation,jsons/VE125_randls_59.json,http://54.235.29.9/FacialAge/BNav_EC2/DepthDuration/v2_depth_duration_MTurk/v2_DepthDuration_HTML.html#68,68,1366,657,1366,768,8-30-2022,8-7-54,90,depth_duration_stimuli/002545_2014-06-24_13-38-53_094959634447_rgbf000080-resize_4/002545_2014-06-24_13-38-53_094959634447_rgbf000080-resize_4-target.png,125,1.9205,10,3444,122,meters,jsons/VE125_randls_59.json,618959,707083,30,Man
90,402343,DepthScenes,duration_manipulation_targetAtFixation,jsons/VE125_randls_59.json,http://54.235.29.9/FacialAge/BNav_EC2/DepthDuration/v2_depth_duration_MTurk/v2_DepthDuration_HTML.html#68,68,1366,657,1366,768,8-30-2022,8-7-54,91,depth_duration_stimuli/002763_2014-06-22_19-13-10_094959634447_rgbf000075-resize_4/002763_2014-06-22_19-13-10_094959634447_rgbf000075-resize_4-target.png,125,1.68375,10,2865,120,meters,jsons/VE125_randls_59.json,618959,707083,30,Man
91,402343,DepthScenes,duration_manipulation_targetAtFixation,jsons/VE125_randls_59.json,http://54.235.29.9/FacialAge/BNav_EC2/DepthDuration/v2_depth_duration_MTurk/v2_DepthDuration_HTML.html#68,68,1366,657,1366,768,8-30-2022,8-7-54,92,depth_duration_stimuli/002209_2014-06-28_18-36-10_260595134347_rgbf000051-resize_1/002209_2014-06-28_18-36-10_260595134347_rgbf000051-resize_1-target.png,125,2.057,10,3046,117,meters,jsons/VE125_randls_59.json,618959,707083,30,Man
92,402343,DepthScenes,duration_manipulation_targetAtFixation,jsons/VE125_randls_59.json,http://54.235.29.9/FacialAge/BNav_EC2/DepthDuration/v2_depth_duration_MTurk/v2_DepthDuration_HTML.html#68,68,1366,657,1366,768,8-30-2022,8-7-54,93,depth_duration_stimuli/000414_2014-06-04_19-49-13_260595134347_rgbf000044-resize_0/000414_2014-06-04_19-49-13_260595134347_rgbf000044-resize_0-target.png,125,4.329,10,2686,125,meters,jsons/VE125_randls_59.json,618959,707083,30,Man
93,402343,DepthScenes,duration_manipulation_targetAtFixation,jsons/VE125_randls_59.json,http://54.235.29.9/FacialAge/BNav_EC2/DepthDuration/v2_depth_duration_MTurk/v2_DepthDuration_HTML.html#68,68,1366,657,1366,768,8-30-2022,8-7-54,94,depth_duration_stimuli/003129_2014-05-12_10-48-10_094959634447_rgbf000100-resize_0/003129_2014-05-12_10-48-10_094959634447_rgbf000100-resize_0-target.png,125,4.9305,10,4570,122,meters,jsons/VE125_randls_59.json,618959,707083,30,Man
94,402343,DepthScenes,duration_manipulation_targetAtFixation,jsons/VE125_randls_59.json,http://54.235.29.9/FacialAge/BNav_EC2/DepthDuration/v2_depth_duration_MTurk/v2_DepthDuration_HTML.html#68,68,1366,657,1366,768,8-30-2022,8-7-54,95,depth_duration_stimuli/000929_2014-06-09_16-33-19_260595134347_rgbf000139-resize_0/000929_2014-06-09_16-33-19_260595134347_rgbf000139-resize_0-target.png,125,2.8680000000000003,10,9217,128,meters,jsons/VE125_randls_59.json,618959,707083,30,Man
95,402343,DepthScenes,duration_manipulation_targetAtFixation,jsons/VE125_randls_59.json,http://54.235.29.9/FacialAge/BNav_EC2/DepthDuration/v2_depth_duration_MTurk/v2_DepthDuration_HTML.html#68,68,1366,657,1366,768,8-30-2022,8-7-54,96,depth_duration_stimuli/000457_2014-06-08_16-52-43_260595134347_rgbf000199-resize_1/000457_2014-06-08_16-52-43_260595134347_rgbf000199-resize_1-target.png,125,3.6489999999999996,10,2744,121,meters,jsons/VE125_randls_59.json,618959,707083,30,Man
96,402343,DepthScenes,duration_manipulation_targetAtFixation,jsons/VE125_randls_59.json,http://54.235.29.9/FacialAge/BNav_EC2/DepthDuration/v2_depth_duration_MTurk/v2_DepthDuration_HTML.html#68,68,1366,657,1366,768,8-30-2022,8-7-54,97,depth_duration_stimuli/001133_2014-06-17_14-49-16_260595134347_rgbf000100-resize_0/001133_2014-06-17_14-49-16_260595134347_rgbf000100-resize_0-target.png,125,4.2115,10,3362,122,meters,jsons/VE125_randls_59.json,618959,707083,30,Man
97,402343,DepthScenes,duration_manipulation_targetAtFixation,jsons/VE125_randls_59.json,http://54.235.29.9/FacialAge/BNav_EC2/DepthDuration/v2_depth_duration_MTurk/v2_DepthDuration_HTML.html#68,68,1366,657,1366,768,8-30-2022,8-7-54,98,depth_duration_stimuli/001132_2014-06-17_14-48-54_260595134347_rgbf000100-resize_2/001132_2014-06-17_14-48-54_260595134347_rgbf000100-resize_2-target.png,125,3.753,10,3050,125,meters,jsons/VE125_randls_59.json,618959,707083,30,Man
98,402343,DepthScenes,duration_manipulation_targetAtFixation,jsons/VE125_randls_59.json,http://54.235.29.9/FacialAge/BNav_EC2/DepthDuration/v2_depth_duration_MTurk/v2_DepthDuration_HTML.html#68,68,1366,657,1366,768,8-30-2022,8-7-54,99,depth_duration_stimuli/001540_2014-06-20_17-01-05_260595134347_rgbf000086-resize_2/001540_2014-06-20_17-01-05_260595134347_rgbf000086-resize-original.jpg,125,1.459,10,3261,124,meters,jsons/VE125_randls_59.json,618959,707083,30,Man
99,402343,DepthScenes,duration_manipulation_targetAtFixation,jsons/VE125_randls_59.json,http://54.235.29.9/FacialAge/BNav_EC2/DepthDuration/v2_depth_duration_MTurk/v2_DepthDuration_HTML.html#68,68,1366,657,1366,768,8-30-2022,8-7-54,100,depth_duration_stimuli/002570_2014-06-24_13-59-54_094959634447_rgbf000059-resize_0/002570_2014-06-24_13-59-54_094959634447_rgbf000059-resize_0-target.png,125,4.037,10,4471,116,meters,jsons/VE125_randls_59.json,618959,707083,30,Man
100,402343,DepthScenes,duration_manipulation_targetAtFixation,jsons/VE125_randls_59.json,http://54.235.29.9/FacialAge/BNav_EC2/DepthDuration/v2_depth_duration_MTurk/v2_DepthDuration_HTML.html#68,68,1366,657,1366,768,8-30-2022,8-7-54,101,depth_duration_stimuli/002467_2014-06-28_20-38-07_260595134347_rgbf000026-resize_2/002467_2014-06-28_20-38-07_260595134347_rgbf000026-resize_2-target.png,125,4.742,10,3210,125,meters,jsons/VE125_randls_59.json,618959,707083,30,Man
101,402343,DepthScenes,duration_manipulation_targetAtFixation,jsons/VE125_randls_59.json,http://54.235.29.9/FacialAge/BNav_EC2/DepthDuration/v2_depth_duration_MTurk/v2_DepthDuration_HTML.html#68,68,1366,657,1366,768,8-30-2022,8-7-54,102,depth_duration_stimuli/001011_2014-06-08_23-18-54_260595134347_rgbf000044-resize_4/001011_2014-06-08_23-18-54_260595134347_rgbf000044-resize_4-target.png,125,2.4730000000000003,10,4467,115,meters,jsons/VE125_randls_59.json,618959,707083,30,Man
102,402343,DepthScenes,duration_manipulation_targetAtFixation,jsons/VE125_randls_59.json,http://54.235.29.9/FacialAge/BNav_EC2/DepthDuration/v2_depth_duration_MTurk/v2_DepthDuration_HTML.html#68,68,1366,657,1366,768,8-30-2022,8-7-54,103,depth_duration_stimuli/002875_2014-06-01_15-19-00_094959634447_rgbf000151-resize_1/002875_2014-06-01_15-19-00_094959634447_rgbf000151-resize_1-target.png,125,1.9675,10,3006,118,meters,jsons/VE125_randls_59.json,618959,707083,30,Man
103,402343,DepthScenes,duration_manipulation_targetAtFixation,jsons/VE125_randls_59.json,http://54.235.29.9/FacialAge/BNav_EC2/DepthDuration/v2_depth_duration_MTurk/v2_DepthDuration_HTML.html#68,68,1366,657,1366,768,8-30-2022,8-7-54,104,depth_duration_stimuli/002279_2014-06-28_18-55-32_260595134347_rgbf000040-resize_5/002279_2014-06-28_18-55-32_260595134347_rgbf000040-resize_5-target.png,125,1.5043333333333,10,3337,121,meters,jsons/VE125_randls_59.json,618959,707083,30,Man
104,402343,DepthScenes,duration_manipulation_targetAtFixation,jsons/VE125_randls_59.json,http://54.235.29.9/FacialAge/BNav_EC2/DepthDuration/v2_depth_duration_MTurk/v2_DepthDuration_HTML.html#68,68,1366,657,1366,768,8-30-2022,8-7-54,105,depth_duration_stimuli/000635_2014-06-08_16-38-42_260595134347_rgbf000106-resize_1/000635_2014-06-08_16-38-42_260595134347_rgbf000106-resize_1-target.png,125,2.074,10,3708,124,meters,jsons/VE125_randls_59.json,618959,707083,30,Man
105,402343,DepthScenes,duration_manipulation_targetAtFixation,jsons/VE125_randls_59.json,http://54.235.29.9/FacialAge/BNav_EC2/DepthDuration/v2_depth_duration_MTurk/v2_DepthDuration_HTML.html#68,68,1366,657,1366,768,8-30-2022,8-7-54,106,depth_duration_stimuli/002630_2014-06-24_14-47-50_094959634447_rgbf000055-resize_1/002630_2014-06-24_14-47-50_094959634447_rgbf000055-resize_1-target.png,125,3.0095,10,3255,120,meters,jsons/VE125_randls_59.json,618959,707083,30,Man
106,402343,DepthScenes,duration_manipulation_targetAtFixation,jsons/VE125_randls_59.json,http://54.235.29.9/FacialAge/BNav_EC2/DepthDuration/v2_depth_duration_MTurk/v2_DepthDuration_HTML.html#68,68,1366,657,1366,768,8-30-2022,8-7-54,107,depth_duration_stimuli/002758_2014-06-22_19-11-20_094959634447_rgbf000128-resize_1/002758_2014-06-22_19-11-20_094959634447_rgbf000128-resize_1-target.png,125,2.555,5,2865,132,meters,jsons/VE125_randls_59.json,618959,707083,30,Man
107,402343,DepthScenes,duration_manipulation_targetAtFixation,jsons/VE125_randls_59.json,http://54.235.29.9/FacialAge/BNav_EC2/DepthDuration/v2_depth_duration_MTurk/v2_DepthDuration_HTML.html#68,68,1366,657,1366,768,8-30-2022,8-7-54,108,depth_duration_stimuli/000642_2014-06-08_16-59-25_260595134347_rgbf000098-resize_2/000642_2014-06-08_16-59-25_260595134347_rgbf000098-resize_2-target.png,125,2.8815,5,2663,132,meters,jsons/VE125_randls_59.json,618959,707083,30,Man
108,402343,DepthScenes,duration_manipulation_targetAtFixation,jsons/VE125_randls_59.json,http://54.235.29.9/FacialAge/BNav_EC2/DepthDuration/v2_depth_duration_MTurk/v2_DepthDuration_HTML.html#68,68,1366,657,1366,768,8-30-2022,8-7-54,109,depth_duration_stimuli/002425_2014-06-28_20-27-29_260595134347_rgbf000031-resize_8/002425_2014-06-28_20-27-29_260595134347_rgbf000031-resize_8-target.png,125,3.8960000000000004,10,2898,122,meters,jsons/VE125_randls_59.json,618959,707083,30,Man
109,402343,DepthScenes,duration_manipulation_targetAtFixation,jsons/VE125_randls_59.json,http://54.235.29.9/FacialAge/BNav_EC2/DepthDuration/v2_depth_duration_MTurk/v2_DepthDuration_HTML.html#68,68,1366,657,1366,768,8-30-2022,8-7-54,110,depth_duration_stimuli/002118_2014-06-25_20-32-08_260595134347_rgbf000078-resize_1/002118_2014-06-25_20-32-08_260595134347_rgbf000078-resize_1-target.png,125,2.6460000000000004,5,2722,123,meters,jsons/VE125_randls_59.json,618959,707083,30,Man
110,402343,DepthScenes,duration_manipulation_targetAtFixation,jsons/VE125_randls_59.json,http://54.235.29.9/FacialAge/BNav_EC2/DepthDuration/v2_depth_duration_MTurk/v2_DepthDuration_HTML.html#68,68,1366,657,1366,768,8-30-2022,8-7-54,111,depth_duration_stimuli/001516_2014-06-20_16-25-09_260595134347_rgbf000076-resize_2/001516_2014-06-20_16-25-09_260595134347_rgbf000076-resize_2-target.png,125,1.7445,10,2901,118,meters,jsons/VE125_randls_59.json,618959,707083,30,Man
111,402343,DepthScenes,duration_manipulation_targetAtFixation,jsons/VE125_randls_59.json,http://54.235.29.9/FacialAge/BNav_EC2/DepthDuration/v2_depth_duration_MTurk/v2_DepthDuration_HTML.html#68,68,1366,657,1366,768,8-30-2022,8-7-54,112,depth_duration_stimuli/003492_2014-05-21_15-50-55_094959634447_rgbf000828-resize_1/003492_2014-05-21_15-50-55_094959634447_rgbf000828-resize_1-target.png,125,4.06875,10,3115,127,meters,jsons/VE125_randls_59.json,618959,707083,30,Man
112,402343,DepthScenes,duration_manipulation_targetAtFixation,jsons/VE125_randls_59.json,http://54.235.29.9/FacialAge/BNav_EC2/DepthDuration/v2_depth_duration_MTurk/v2_DepthDuration_HTML.html#68,68,1366,657,1366,768,8-30-2022,8-7-54,113,depth_duration_stimuli/002568_2014-06-24_13-59-21_094959634447_rgbf000062-resize_4/002568_2014-06-24_13-59-21_094959634447_rgbf000062-resize_4-target.png,125,3.015,10,2723,128,meters,jsons/VE125_randls_59.json,618959,707083,30,Man
113,402343,DepthScenes,duration_manipulation_targetAtFixation,jsons/VE125_randls_59.json,http://54.235.29.9/FacialAge/BNav_EC2/DepthDuration/v2_depth_duration_MTurk/v2_DepthDuration_HTML.html#68,68,1366,657,1366,768,8-30-2022,8-7-54,114,depth_duration_stimuli/001175_2014-06-17_15-45-55_260595134347_rgbf000129-resize_4/001175_2014-06-17_15-45-55_260595134347_rgbf000129-resize_4-target.png,125,4.255,10,2670,114,meters,jsons/VE125_randls_59.json,618959,707083,30,Man
114,402343,DepthScenes,duration_manipulation_targetAtFixation,jsons/VE125_randls_59.json,http://54.235.29.9/FacialAge/BNav_EC2/DepthDuration/v2_depth_duration_MTurk/v2_DepthDuration_HTML.html#68,68,1366,657,1366,768,8-30-2022,8-7-54,115,depth_duration_stimuli/003490_2014-05-21_15-50-11_094959634447_rgbf000101-resize_3/003490_2014-05-21_15-50-11_094959634447_rgbf000101-resize_3-target.png,125,3.6445,10,3616,117,meters,jsons/VE125_randls_59.json,618959,707083,30,Man
115,402343,DepthScenes,duration_manipulation_targetAtFixation,jsons/VE125_randls_59.json,http://54.235.29.9/FacialAge/BNav_EC2/DepthDuration/v2_depth_duration_MTurk/v2_DepthDuration_HTML.html#68,68,1366,657,1366,768,8-30-2022,8-7-54,116,depth_duration_stimuli/001170_2014-06-17_15-43-44_260595134347_rgbf000096-resize_6/001170_2014-06-17_15-43-44_260595134347_rgbf000096-resize-original.jpg,125,1.1909999999999998,5,3789,128,meters,jsons/VE125_randls_59.json,618959,707083,30,Man
116,402343,DepthScenes,duration_manipulation_targetAtFixation,jsons/VE125_randls_59.json,http://54.235.29.9/FacialAge/BNav_EC2/DepthDuration/v2_depth_duration_MTurk/v2_DepthDuration_HTML.html#68,68,1366,657,1366,768,8-30-2022,8-7-54,117,depth_duration_stimuli/000470_2014-06-09_19-42-40_260595134347_rgbf000094-resize_1/000470_2014-06-09_19-42-40_260595134347_rgbf000094-resize_1-target.png,125,1.831,5,2870,122,meters,jsons/VE125_randls_59.json,618959,707083,30,Man
117,402343,DepthScenes,duration_manipulation_targetAtFixation,jsons/VE125_randls_59.json,http://54.235.29.9/FacialAge/BNav_EC2/DepthDuration/v2_depth_duration_MTurk/v2_DepthDuration_HTML.html#68,68,1366,657,1366,768,8-30-2022,8-7-54,118,depth_duration_stimuli/000109_2014-05-14_23-41-52_260595134347_rgbf000035-resize_9/000109_2014-05-14_23-41-52_260595134347_rgbf000035-resize_9-target.png,125,1.3545,5,3527,118,meters,jsons/VE125_randls_59.json,618959,707083,30,Man
118,402343,DepthScenes,duration_manipulation_targetAtFixation,jsons/VE125_randls_59.json,http://54.235.29.9/FacialAge/BNav_EC2/DepthDuration/v2_depth_duration_MTurk/v2_DepthDuration_HTML.html#68,68,1366,657,1366,768,8-30-2022,8-7-54,119,depth_duration_stimuli/001029_2014-06-08_13-17-57_260595134347_rgbf000065-resize_1/001029_2014-06-08_13-17-57_260595134347_rgbf000065-resize_1-target.png,125,3.0835,10,3376,125,meters,jsons/VE125_randls_59.json,618959,707083,30,Man
119,402343,DepthScenes,duration_manipulation_targetAtFixation,jsons/VE125_randls_59.json,http://54.235.29.9/FacialAge/BNav_EC2/DepthDuration/v2_depth_duration_MTurk/v2_DepthDuration_HTML.html#68,68,1366,657,1366,768,8-30-2022,8-7-54,120,depth_duration_stimuli/000677_2014-06-08_23-10-32_260595134347_rgbf000158-resize_6/000677_2014-06-08_23-10-32_260595134347_rgbf000158-resize_6-target.png,125,3.556,10,3333,115,meters,jsons/VE125_randls_59.json,618959,707083,30,Man
120,402343,DepthScenes,duration_manipulation_targetAtFixation,jsons/VE125_randls_59.json,http://54.235.29.9/FacialAge/BNav_EC2/DepthDuration/v2_depth_duration_MTurk/v2_DepthDuration_HTML.html#68,68,1366,657,1366,768,8-30-2022,8-7-54,121,depth_duration_stimuli/000522_2014-06-08_13-35-06_260595134347_rgbf000244-resize_1/000522_2014-06-08_13-35-06_260595134347_rgbf000244-resize_1-target.png,125,2.3715,10,3052,117,meters,jsons/VE125_randls_59.json,618959,707083,30,Man
121,402343,DepthScenes,duration_manipulation_targetAtFixation,jsons/VE125_randls_59.json,http://54.235.29.9/FacialAge/BNav_EC2/DepthDuration/v2_depth_duration_MTurk/v2_DepthDuration_HTML.html#68,68,1366,657,1366,768,8-30-2022,8-7-54,122,depth_duration_stimuli/002949_2014-06-26_15-57-42_094959634447_rgbf000079-resize_1/002949_2014-06-26_15-57-42_094959634447_rgbf000079-resize_1-target.png,125,1.8915,5,2524,114,meters,jsons/VE125_randls_59.json,618959,707083,30,Man
122,402343,DepthScenes,duration_manipulation_targetAtFixation,jsons/VE125_randls_59.json,http://54.235.29.9/FacialAge/BNav_EC2/DepthDuration/v2_depth_duration_MTurk/v2_DepthDuration_HTML.html#68,68,1366,657,1366,768,8-30-2022,8-7-54,123,depth_duration_stimuli/000917_2014-06-09_22-45-29_260595134347_rgbf000149-resize_3/000917_2014-06-09_22-45-29_260595134347_rgbf000149-resize_3-target.png,125,4.1865,10,3191,125,meters,jsons/VE125_randls_59.json,618959,707083,30,Man
123,402343,DepthScenes,duration_manipulation_targetAtFixation,jsons/VE125_randls_59.json,http://54.235.29.9/FacialAge/BNav_EC2/DepthDuration/v2_depth_duration_MTurk/v2_DepthDuration_HTML.html#68,68,1366,657,1366,768,8-30-2022,8-7-54,124,depth_duration_stimuli/002323_2014-06-28_20-01-54_260595134347_rgbf000051-resize_4/002323_2014-06-28_20-01-54_260595134347_rgbf000051-resize_4-target.png,125,3.7310000000000003,10,3486,131,meters,jsons/VE125_randls_59.json,618959,707083,30,Man
124,402343,DepthScenes,duration_manipulation_targetAtFixation,jsons/VE125_randls_59.json,http://54.235.29.9/FacialAge/BNav_EC2/DepthDuration/v2_depth_duration_MTurk/v2_DepthDuration_HTML.html#68,68,1366,657,1366,768,8-30-2022,8-7-54,125,depth_duration_stimuli/000486_2014-06-09_20-47-20_260595134347_rgbf000143-resize_2/000486_2014-06-09_20-47-20_260595134347_rgbf000143-resize_2-target.png,125,4.8325,10,3180,119,meters,jsons/VE125_randls_59.json,618959,707083,30,Man
125,402343,DepthScenes,duration_manipulation_targetAtFixation,jsons/VE125_randls_59.json,http://54.235.29.9/FacialAge/BNav_EC2/DepthDuration/v2_depth_duration_MTurk/v2_DepthDuration_HTML.html#68,68,1366,657,1366,768,8-30-2022,8-7-54,126,depth_duration_stimuli/003083_2014-06-15_15-21-03_094959634447_rgbf000063-resize_1/003083_2014-06-15_15-21-03_094959634447_rgbf000063-resize_1-target.png,125,4.1405,10,3183,116,meters,jsons/VE125_randls_59.json,618959,707083,30,Man
126,402343,DepthScenes,duration_manipulation_targetAtFixation,jsons/VE125_randls_59.json,http://54.235.29.9/FacialAge/BNav_EC2/DepthDuration/v2_depth_duration_MTurk/v2_DepthDuration_HTML.html#68,68,1366,657,1366,768,8-30-2022,8-7-54,127,depth_duration_stimuli/001810_2014-06-26_20-51-35_260595134347_rgbf000040-resize_3/001810_2014-06-26_20-51-35_260595134347_rgbf000040-resize_3-target.png,125,2.2525,10,3464,131,meters,jsons/VE125_randls_59.json,618959,707083,30,Man
127,402343,DepthScenes,duration_manipulation_targetAtFixation,jsons/VE125_randls_59.json,http://54.235.29.9/FacialAge/BNav_EC2/DepthDuration/v2_depth_duration_MTurk/v2_DepthDuration_HTML.html#68,68,1366,657,1366,768,8-30-2022,8-7-54,128,depth_duration_stimuli/003010_2014-06-15_12-54-35_094959634447_rgbf000112-resize_0/003010_2014-06-15_12-54-35_094959634447_rgbf000112-resize_0-target.png,125,3.1185,15,2942,130,meters,jsons/VE125_randls_59.json,618959,707083,30,Man
128,402343,DepthScenes,duration_manipulation_targetAtFixation,jsons/VE125_randls_59.json,http://54.235.29.9/FacialAge/BNav_EC2/DepthDuration/v2_depth_duration_MTurk/v2_DepthDuration_HTML.html#68,68,1366,657,1366,768,8-30-2022,8-7-54,129,depth_duration_stimuli/002549_2014-06-24_13-41-39_094959634447_rgbf000022-resize_3/002549_2014-06-24_13-41-39_094959634447_rgbf000022-resize_3-target.png,125,1.476,10,3177,115,meters,jsons/VE125_randls_59.json,618959,707083,30,Man
129,402343,DepthScenes,duration_manipulation_targetAtFixation,jsons/VE125_randls_59.json,http://54.235.29.9/FacialAge/BNav_EC2/DepthDuration/v2_depth_duration_MTurk/v2_DepthDuration_HTML.html#68,68,1366,657,1366,768,8-30-2022,8-7-54,130,depth_duration_stimuli/002750_2014-06-22_19-08-03_094959634447_rgbf000094-resize_4/002750_2014-06-22_19-08-03_094959634447_rgbf000094-resize_4-target.png,125,2.354,10,3647,125,meters,jsons/VE125_randls_59.json,618959,707083,30,Man
130,402343,DepthScenes,duration_manipulation_targetAtFixation,jsons/VE125_randls_59.json,http://54.235.29.9/FacialAge/BNav_EC2/DepthDuration/v2_depth_duration_MTurk/v2_DepthDuration_HTML.html#68,68,1366,657,1366,768,8-30-2022,8-7-54,131,depth_duration_stimuli/002784_2014-06-22_19-26-30_094959634447_rgbf000083-resize_3/002784_2014-06-22_19-26-30_094959634447_rgbf000083-resize_3-target.png,125,1.8046666666667,5,2698,130,meters,jsons/VE125_randls_59.json,618959,707083,30,Man
131,402343,DepthScenes,duration_manipulation_targetAtFixation,jsons/VE125_randls_59.json,http://54.235.29.9/FacialAge/BNav_EC2/DepthDuration/v2_depth_duration_MTurk/v2_DepthDuration_HTML.html#68,68,1366,657,1366,768,8-30-2022,8-7-54,132,depth_duration_stimuli/001100_2014-06-15_17-46-26_260595134347_rgbf000225-resize_2/001100_2014-06-15_17-46-26_260595134347_rgbf000225-resize_2-target.png,125,2.24,10,4097,129,meters,jsons/VE125_randls_59.json,618959,707083,30,Man
132,402343,DepthScenes,duration_manipulation_targetAtFixation,jsons/VE125_randls_59.json,http://54.235.29.9/FacialAge/BNav_EC2/DepthDuration/v2_depth_duration_MTurk/v2_DepthDuration_HTML.html#68,68,1366,657,1366,768,8-30-2022,8-7-54,133,depth_duration_stimuli/002725_2014-06-22_11-47-51_094959634447_rgbf000070-resize_1/002725_2014-06-22_11-47-51_094959634447_rgbf000070-resize_1-target.png,125,2.195,10,3102,130,meters,jsons/VE125_randls_59.json,618959,707083,30,Man
133,402343,DepthScenes,duration_manipulation_targetAtFixation,jsons/VE125_randls_59.json,http://54.235.29.9/FacialAge/BNav_EC2/DepthDuration/v2_depth_duration_MTurk/v2_DepthDuration_HTML.html#68,68,1366,657,1366,768,8-30-2022,8-7-54,134,depth_duration_stimuli/002344_2014-06-28_20-06-29_260595134347_rgbf000030-resize_1/002344_2014-06-28_20-06-29_260595134347_rgbf000030-resize_1-target.png,125,1.5795,5,2937,129,meters,jsons/VE125_randls_59.json,618959,707083,30,Man
134,402343,DepthScenes,duration_manipulation_targetAtFixation,jsons/VE125_randls_59.json,http://54.235.29.9/FacialAge/BNav_EC2/DepthDuration/v2_depth_duration_MTurk/v2_DepthDuration_HTML.html#68,68,1366,657,1366,768,8-30-2022,8-7-54,135,depth_duration_stimuli/002072_2014-06-24_21-48-06_260595134347_rgbf000115-resize_0/002072_2014-06-24_21-48-06_260595134347_rgbf000115-resize-original.jpg,125,4.702,5,2591,115,meters,jsons/VE125_randls_59.json,618959,707083,30,Man
135,402343,DepthScenes,duration_manipulation_targetAtFixation,jsons/VE125_randls_59.json,http://54.235.29.9/FacialAge/BNav_EC2/DepthDuration/v2_depth_duration_MTurk/v2_DepthDuration_HTML.html#68,68,1366,657,1366,768,8-30-2022,8-7-54,136,depth_duration_stimuli/001570_2014-06-20_17-21-09_260595134347_rgbf000135-resize_4/001570_2014-06-20_17-21-09_260595134347_rgbf000135-resize_4-target.png,125,4.467,10,3002,123,meters,jsons/VE125_randls_59.json,618959,707083,30,Man
136,402343,DepthScenes,duration_manipulation_targetAtFixation,jsons/VE125_randls_59.json,http://54.235.29.9/FacialAge/BNav_EC2/DepthDuration/v2_depth_duration_MTurk/v2_DepthDuration_HTML.html#68,68,1366,657,1366,768,8-30-2022,8-7-54,137,depth_duration_stimuli/001392_2014-06-19_16-07-59_260595134347_rgbf000046-resize_1/001392_2014-06-19_16-07-59_260595134347_rgbf000046-resize_1-target.png,125,4.135,10,3024,121,meters,jsons/VE125_randls_59.json,618959,707083,30,Man
137,402343,DepthScenes,duration_manipulation_targetAtFixation,jsons/VE125_randls_59.json,http://54.235.29.9/FacialAge/BNav_EC2/DepthDuration/v2_depth_duration_MTurk/v2_DepthDuration_HTML.html#68,68,1366,657,1366,768,8-30-2022,8-7-54,138,depth_duration_stimuli/002663_2014-06-13_15-50-26_094959634447_rgbf000075-resize_1/002663_2014-06-13_15-50-26_094959634447_rgbf000075-resize_1-target.png,125,4.7495,10,2794,129,meters,jsons/VE125_randls_59.json,618959,707083,30,Man
138,402343,DepthScenes,duration_manipulation_targetAtFixation,jsons/VE125_randls_59.json,http://54.235.29.9/FacialAge/BNav_EC2/DepthDuration/v2_depth_duration_MTurk/v2_DepthDuration_HTML.html#68,68,1366,657,1366,768,8-30-2022,8-7-54,139,depth_duration_stimuli/000409_2014-06-04_19-23-33_260595134347_rgbf000067-resize_0/000409_2014-06-04_19-23-33_260595134347_rgbf000067-resize_0-target.png,125,3.7335,10,3020,120,meters,jsons/VE125_randls_59.json,618959,707083,30,Man
139,402343,DepthScenes,duration_manipulation_targetAtFixation,jsons/VE125_randls_59.json,http://54.235.29.9/FacialAge/BNav_EC2/DepthDuration/v2_depth_duration_MTurk/v2_DepthDuration_HTML.html#68,68,1366,657,1366,768,8-30-2022,8-7-54,140,depth_duration_stimuli/000009_2014-05-26_14-32-05_260595134347_rgbf000034-resize_3/000009_2014-05-26_14-32-05_260595134347_rgbf000034-resize_3-target.png,125,3.8715,10,3266,125,meters,jsons/VE125_randls_59.json,618959,707083,30,Man
140,402343,DepthScenes,duration_manipulation_targetAtFixation,jsons/VE125_randls_59.json,http://54.235.29.9/FacialAge/BNav_EC2/DepthDuration/v2_depth_duration_MTurk/v2_DepthDuration_HTML.html#68,68,1366,657,1366,768,8-30-2022,8-7-54,141,depth_duration_stimuli/001828_2014-06-26_21-40-03_260595134347_rgbf000024-resize_0/001828_2014-06-26_21-40-03_260595134347_rgbf000024-resize_0-target.png,125,4.8260000000000005,10,2888,122,meters,jsons/VE125_randls_59.json,618959,707083,30,Man
141,402343,DepthScenes,duration_manipulation_targetAtFixation,jsons/VE125_randls_59.json,http://54.235.29.9/FacialAge/BNav_EC2/DepthDuration/v2_depth_duration_MTurk/v2_DepthDuration_HTML.html#68,68,1366,657,1366,768,8-30-2022,8-7-54,142,depth_duration_stimuli/002272_2014-06-28_18-53-56_260595134347_rgbf000067-resize_2/002272_2014-06-28_18-53-56_260595134347_rgbf000067-resize_2-target.png,125,1.138,10,2847,123,meters,jsons/VE125_randls_59.json,618959,707083,30,Man
142,402343,DepthScenes,duration_manipulation_targetAtFixation,jsons/VE125_randls_59.json,http://54.235.29.9/FacialAge/BNav_EC2/DepthDuration/v2_depth_duration_MTurk/v2_DepthDuration_HTML.html#68,68,1366,657,1366,768,8-30-2022,8-7-54,143,depth_duration_stimuli/001571_2014-06-20_17-21-32_260595134347_rgbf000089-resize_1/001571_2014-06-20_17-21-32_260595134347_rgbf000089-resize_1-target.png,125,1.86,10,2745,115,meters,jsons/VE125_randls_59.json,618959,707083,30,Man
143,402343,DepthScenes,duration_manipulation_targetAtFixation,jsons/VE125_randls_59.json,http://54.235.29.9/FacialAge/BNav_EC2/DepthDuration/v2_depth_duration_MTurk/v2_DepthDuration_HTML.html#68,68,1366,657,1366,768,8-30-2022,8-7-54,144,depth_duration_stimuli/002600_2014-06-24_14-27-04_094959634447_rgbf000074-resize_2/002600_2014-06-24_14-27-04_094959634447_rgbf000074-resize_2-target.png,125,2.7575,5,2718,132,meters,jsons/VE125_randls_59.json,618959,707083,30,Man
144,402343,DepthScenes,duration_manipulation_targetAtFixation,jsons/VE125_randls_59.json,http://54.235.29.9/FacialAge/BNav_EC2/DepthDuration/v2_depth_duration_MTurk/v2_DepthDuration_HTML.html#68,68,1366,657,1366,768,8-30-2022,8-7-54,145,depth_duration_stimuli/003228_2014-05-14_13-42-35_094959634447_rgbf000101-resize_1/003228_2014-05-14_13-42-35_094959634447_rgbf000101-resize_1-target.png,125,1.9680000000000002,10,3821,125,meters,jsons/VE125_randls_59.json,618959,707083,30,Man
145,402343,DepthScenes,duration_manipulation_targetAtFixation,jsons/VE125_randls_59.json,http://54.235.29.9/FacialAge/BNav_EC2/DepthDuration/v2_depth_duration_MTurk/v2_DepthDuration_HTML.html#68,68,1366,657,1366,768,8-30-2022,8-7-54,146,depth_duration_stimuli/001498_2014-06-19_17-45-14_260595134347_rgbf000129-resize_4/001498_2014-06-19_17-45-14_260595134347_rgbf000129-resize-original.jpg,125,1.4075,5,4826,137,meters,jsons/VE125_randls_59.json,618959,707083,30,Man
146,402343,DepthScenes,duration_manipulation_targetAtFixation,jsons/VE125_randls_59.json,http://54.235.29.9/FacialAge/BNav_EC2/DepthDuration/v2_depth_duration_MTurk/v2_DepthDuration_HTML.html#68,68,1366,657,1366,768,8-30-2022,8-7-54,147,depth_duration_stimuli/002445_2014-06-28_20-32-16_260595134347_rgbf000029-resize_4/002445_2014-06-28_20-32-16_260595134347_rgbf000029-resize_4-target.png,125,2.5315,10,3330,131,meters,jsons/VE125_randls_59.json,618959,707083,30,Man
147,402343,DepthScenes,duration_manipulation_targetAtFixation,jsons/VE125_randls_59.json,http://54.235.29.9/FacialAge/BNav_EC2/DepthDuration/v2_depth_duration_MTurk/v2_DepthDuration_HTML.html#68,68,1366,657,1366,768,8-30-2022,8-7-54,148,depth_duration_stimuli/000780_2014-06-08_22-28-29_260595134347_rgbf000126-resize_1/000780_2014-06-08_22-28-29_260595134347_rgbf000126-resize_1-target.png,125,3.3825,10,2887,120,meters,jsons/VE125_randls_59.json,618959,707083,30,Man
148,402343,DepthScenes,duration_manipulation_targetAtFixation,jsons/VE125_randls_59.json,http://54.235.29.9/FacialAge/BNav_EC2/DepthDuration/v2_depth_duration_MTurk/v2_DepthDuration_HTML.html#68,68,1366,657,1366,768,8-30-2022,8-7-54,149,depth_duration_stimuli/001417_2014-06-19_16-25-36_260595134347_rgbf000115-resize_5/001417_2014-06-19_16-25-36_260595134347_rgbf000115-resize_5-target.png,125,4.6255,10,2755,115,meters,jsons/VE125_randls_59.json,618959,707083,30,Man
149,402343,DepthScenes,duration_manipulation_targetAtFixation,jsons/VE125_randls_59.json,http://54.235.29.9/FacialAge/BNav_EC2/DepthDuration/v2_depth_duration_MTurk/v2_DepthDuration_HTML.html#68,68,1366,657,1366,768,8-30-2022,8-7-54,150,depth_duration_stimuli/003081_2014-06-15_15-19-16_094959634447_rgbf000150-resize_1/003081_2014-06-15_15-19-16_094959634447_rgbf000150-resize_1-target.png,125,3.9125,10,4775,115,meters,jsons/VE125_randls_59.json,618959,707083,30,Man
150,402343,DepthScenes,duration_manipulation_targetAtFixation,jsons/VE125_randls_59.json,http://54.235.29.9/FacialAge/BNav_EC2/DepthDuration/v2_depth_duration_MTurk/v2_DepthDuration_HTML.html#68,68,1366,657,1366,768,8-30-2022,8-7-54,151,depth_duration_stimuli/001244_2014-06-17_16-47-45_260595134347_rgbf000030-resize_4/001244_2014-06-17_16-47-45_260595134347_rgbf000030-resize_4-target.png,125,2.0425,10,2958,114,meters,jsons/VE125_randls_59.json,618959,707083,30,Man
151,402343,DepthScenes,duration_manipulation_targetAtFixation,jsons/VE125_randls_59.json,http://54.235.29.9/FacialAge/BNav_EC2/DepthDuration/v2_depth_duration_MTurk/v2_DepthDuration_HTML.html#68,68,1366,657,1366,768,8-30-2022,8-7-54,152,depth_duration_stimuli/003495_2014-05-21_16-01-51_094959634447_rgbf000100-resize_3/003495_2014-05-21_16-01-51_094959634447_rgbf000100-resize_3-target.png,125,1.6255,5,2873,115,meters,jsons/VE125_randls_59.json,618959,707083,30,Man
152,402343,DepthScenes,duration_manipulation_targetAtFixation,jsons/VE125_randls_59.json,http://54.235.29.9/FacialAge/BNav_EC2/DepthDuration/v2_depth_duration_MTurk/v2_DepthDuration_HTML.html#68,68,1366,657,1366,768,8-30-2022,8-7-54,153,depth_duration_stimuli/000368_2014-06-09_15-53-01_260595134347_rgbf000155-resize_2/000368_2014-06-09_15-53-01_260595134347_rgbf000155-resize_2-target.png,125,2.4859999999999998,5,3553,116,meters,jsons/VE125_randls_59.json,618959,707083,30,Man
153,402343,DepthScenes,duration_manipulation_targetAtFixation,jsons/VE125_randls_59.json,http://54.235.29.9/FacialAge/BNav_EC2/DepthDuration/v2_depth_duration_MTurk/v2_DepthDuration_HTML.html#68,68,1366,657,1366,768,8-30-2022,8-7-54,154,depth_duration_stimuli/002678_2014-06-13_16-15-32_094959634447_rgbf000151-resize_6/002678_2014-06-13_16-15-32_094959634447_rgbf000151-resize_6-target.png,125,2.1830000000000003,10,2724,123,meters,jsons/VE125_randls_59.json,618959,707083,30,Man
154,402343,DepthScenes,duration_manipulation_targetAtFixation,jsons/VE125_randls_59.json,http://54.235.29.9/FacialAge/BNav_EC2/DepthDuration/v2_depth_duration_MTurk/v2_DepthDuration_HTML.html#68,68,1366,657,1366,768,8-30-2022,8-7-54,155,depth_duration_stimuli/000493_2014-06-09_21-01-18_260595134347_rgbf000196-resize_3/000493_2014-06-09_21-01-18_260595134347_rgbf000196-resize_3-target.png,125,3.44,10,2699,132,meters,jsons/VE125_randls_59.json,618959,707083,30,Man
155,402343,DepthScenes,duration_manipulation_targetAtFixation,jsons/VE125_randls_59.json,http://54.235.29.9/FacialAge/BNav_EC2/DepthDuration/v2_depth_duration_MTurk/v2_DepthDuration_HTML.html#68,68,1366,657,1366,768,8-30-2022,8-7-54,156,depth_duration_stimuli/000191_2014-05-12_17-07-38_260595134347_rgbf000199-resize_0/000191_2014-05-12_17-07-38_260595134347_rgbf000199-resize_0-target.png,125,3.7995,10,2801,122,meters,jsons/VE125_randls_59.json,618959,707083,30,Man
156,402343,DepthScenes,duration_manipulation_targetAtFixation,jsons/VE125_randls_59.json,http://54.235.29.9/FacialAge/BNav_EC2/DepthDuration/v2_depth_duration_MTurk/v2_DepthDuration_HTML.html#68,68,1366,657,1366,768,8-30-2022,8-7-54,157,depth_duration_stimuli/002988_2014-06-15_12-24-20_094959634447_rgbf000150-resize_1/002988_2014-06-15_12-24-20_094959634447_rgbf000150-resize_1-target.png,125,4.7669999999999995,10,3783,129,meters,jsons/VE125_randls_59.json,618959,707083,30,Man
157,402343,DepthScenes,duration_manipulation_targetAtFixation,jsons/VE125_randls_59.json,http://54.235.29.9/FacialAge/BNav_EC2/DepthDuration/v2_depth_duration_MTurk/v2_DepthDuration_HTML.html#68,68,1366,657,1366,768,8-30-2022,8-7-54,158,depth_duration_stimuli/001052_2014-06-08_18-24-54_260595134347_rgbf000130-resize_1/001052_2014-06-08_18-24-54_260595134347_rgbf000130-resize_1-target.png,125,4.1045,10,2874,123,meters,jsons/VE125_randls_59.json,618959,707083,30,Man
158,402343,DepthScenes,duration_manipulation_targetAtFixation,jsons/VE125_randls_59.json,http://54.235.29.9/FacialAge/BNav_EC2/DepthDuration/v2_depth_duration_MTurk/v2_DepthDuration_HTML.html#68,68,1366,657,1366,768,8-30-2022,8-7-54,159,depth_duration_stimuli/002788_2014-06-22_19-36-03_094959634447_rgbf000088-resize_2/002788_2014-06-22_19-36-03_094959634447_rgbf000088-resize_2-target.png,125,1.6465,10,2636,119,meters,jsons/VE125_randls_59.json,618959,707083,30,Man
159,402343,DepthScenes,duration_manipulation_targetAtFixation,jsons/VE125_randls_59.json,http://54.235.29.9/FacialAge/BNav_EC2/DepthDuration/v2_depth_duration_MTurk/v2_DepthDuration_HTML.html#68,68,1366,657,1366,768,8-30-2022,8-7-54,160,depth_duration_stimuli/000749_2014-06-08_21-55-06_260595134347_rgbf000070-resize_2/000749_2014-06-08_21-55-06_260595134347_rgbf000070-resize_2-target.png,125,2.331,10,2723,134,meters,jsons/VE125_randls_59.json,618959,707083,30,Man
160,402343,DepthScenes,duration_manipulation_targetAtFixation,jsons/VE125_randls_59.json,http://54.235.29.9/FacialAge/BNav_EC2/DepthDuration/v2_depth_duration_MTurk/v2_DepthDuration_HTML.html#68,68,1366,657,1366,768,8-30-2022,8-7-54,161,depth_duration_stimuli/000739_2014-06-08_18-45-58_260595134347_rgbf000068-resize_1/000739_2014-06-08_18-45-58_260595134347_rgbf000068-resize_1-target.png,125,3.534,10,2604,116,meters,jsons/VE125_randls_59.json,618959,707083,30,Man
161,402343,DepthScenes,duration_manipulation_targetAtFixation,jsons/VE125_randls_59.json,http://54.235.29.9/FacialAge/BNav_EC2/DepthDuration/v2_depth_duration_MTurk/v2_DepthDuration_HTML.html#68,68,1366,657,1366,768,8-30-2022,8-7-54,162,depth_duration_stimuli/000734_2014-06-08_17-39-11_260595134347_rgbf000128-resize_2/000734_2014-06-08_17-39-11_260595134347_rgbf000128-resize_2-target.png,125,4.098,10,3447,125,meters,jsons/VE125_randls_59.json,618959,707083,30,Man
162,402343,DepthScenes,duration_manipulation_targetAtFixation,jsons/VE125_randls_59.json,http://54.235.29.9/FacialAge/BNav_EC2/DepthDuration/v2_depth_duration_MTurk/v2_DepthDuration_HTML.html#68,68,1366,657,1366,768,8-30-2022,8-7-54,163,depth_duration_stimuli/001055_2014-06-08_18-45-35_260595134347_rgbf000111-resize_4/001055_2014-06-08_18-45-35_260595134347_rgbf000111-resize_4-target.png,125,2.4290000000000003,10,2953,128,meters,jsons/VE125_randls_59.json,618959,707083,30,Man
163,402343,DepthScenes,duration_manipulation_targetAtFixation,jsons/VE125_randls_59.json,http://54.235.29.9/FacialAge/BNav_EC2/DepthDuration/v2_depth_duration_MTurk/v2_DepthDuration_HTML.html#68,68,1366,657,1366,768,8-30-2022,8-7-54,164,depth_duration_stimuli/000549_2014-06-08_22-10-24_260595134347_rgbf000247-resize_3/000549_2014-06-08_22-10-24_260595134347_rgbf000247-resize_3-target.png,125,1.841,10,4267,124,meters,jsons/VE125_randls_59.json,618959,707083,30,Man
