,subjID,experimentName,versionName,sequenceName,url,selected_row,windowWidth,windowHeight,screenWidth,screenHeight,startDate,startTime,trial,stimulus,duration,actual_depth,depth_estimate,trial_RT,log_sceneDuration,unitSelection,seq_filepath,experimentTime,totalTime,age,gender
0,402854,DepthScenes,duration_manipulation_targetAtFixation,jsons/VE125_randls_53_rotated.json,http://54.235.29.9/FacialAge/BNav_EC2/DepthDuration/v2_depth_duration_MTurk/v2_DepthDuration_HTML.html#154,154,1920,969,1920,1080,9-18-2022,12-14-4,1,depth_duration_stimuli/000635_2014-06-08_16-38-42_260595134347_rgbf000106-resize_1/000635_2014-06-08_16-38-42_260595134347_rgbf000106-resize_1-target.png,125,2.074,0.0,2674,124,feet,jsons/VE125_randls_53_rotated.json,926392,1031429,35,Man
1,402854,DepthScenes,duration_manipulation_targetAtFixation,jsons/VE125_randls_53_rotated.json,http://54.235.29.9/FacialAge/BNav_EC2/DepthDuration/v2_depth_duration_MTurk/v2_DepthDuration_HTML.html#154,154,1920,969,1920,1080,9-18-2022,12-14-4,2,depth_duration_stimuli/002279_2014-06-28_18-55-32_260595134347_rgbf000040-resize_5/002279_2014-06-28_18-55-32_260595134347_rgbf000040-resize_5-target.png,125,1.5043333333333,3.9,4176,123,feet,jsons/VE125_randls_53_rotated.json,926392,1031429,35,Man
2,402854,DepthScenes,duration_manipulation_targetAtFixation,jsons/VE125_randls_53_rotated.json,http://54.235.29.9/FacialAge/BNav_EC2/DepthDuration/v2_depth_duration_MTurk/v2_DepthDuration_HTML.html#154,154,1920,969,1920,1080,9-18-2022,12-14-4,3,depth_duration_stimuli/000677_2014-06-08_23-10-32_260595134347_rgbf000158-resize_6/000677_2014-06-08_23-10-32_260595134347_rgbf000158-resize_6-target.png,125,3.556,4.0,8162,124,feet,jsons/VE125_randls_53_rotated.json,926392,1031429,35,Man
3,402854,DepthScenes,duration_manipulation_targetAtFixation,jsons/VE125_randls_53_rotated.json,http://54.235.29.9/FacialAge/BNav_EC2/DepthDuration/v2_depth_duration_MTurk/v2_DepthDuration_HTML.html#154,154,1920,969,1920,1080,9-18-2022,12-14-4,4,depth_duration_stimuli/001029_2014-06-08_13-17-57_260595134347_rgbf000065-resize_1/001029_2014-06-08_13-17-57_260595134347_rgbf000065-resize_1-target.png,125,3.0835,4.2,3939,131,feet,jsons/VE125_randls_53_rotated.json,926392,1031429,35,Man
4,402854,DepthScenes,duration_manipulation_targetAtFixation,jsons/VE125_randls_53_rotated.json,http://54.235.29.9/FacialAge/BNav_EC2/DepthDuration/v2_depth_duration_MTurk/v2_DepthDuration_HTML.html#154,154,1920,969,1920,1080,9-18-2022,12-14-4,5,depth_duration_stimuli/003081_2014-06-15_15-19-16_094959634447_rgbf000150-resize_1/003081_2014-06-15_15-19-16_094959634447_rgbf000150-resize_1-target.png,125,3.9125,7.5,9878,119,feet,jsons/VE125_randls_53_rotated.json,926392,1031429,35,Man
5,402854,DepthScenes,duration_manipulation_targetAtFixation,jsons/VE125_randls_53_rotated.json,http://54.235.29.9/FacialAge/BNav_EC2/DepthDuration/v2_depth_duration_MTurk/v2_DepthDuration_HTML.html#154,154,1920,969,1920,1080,9-18-2022,12-14-4,6,depth_duration_stimuli/001417_2014-06-19_16-25-36_260595134347_rgbf000115-resize_5/001417_2014-06-19_16-25-36_260595134347_rgbf000115-resize_5-target.png,125,4.6255,7.0,4554,133,feet,jsons/VE125_randls_53_rotated.json,926392,1031429,35,Man
6,402854,DepthScenes,duration_manipulation_targetAtFixation,jsons/VE125_randls_53_rotated.json,http://54.235.29.9/FacialAge/BNav_EC2/DepthDuration/v2_depth_duration_MTurk/v2_DepthDuration_HTML.html#154,154,1920,969,1920,1080,9-18-2022,12-14-4,7,depth_duration_stimuli/000549_2014-06-08_22-10-24_260595134347_rgbf000247-resize_3/000549_2014-06-08_22-10-24_260595134347_rgbf000247-resize_3-target.png,125,1.841,2.0,3611,117,feet,jsons/VE125_randls_53_rotated.json,926392,1031429,35,Man
7,402854,DepthScenes,duration_manipulation_targetAtFixation,jsons/VE125_randls_53_rotated.json,http://54.235.29.9/FacialAge/BNav_EC2/DepthDuration/v2_depth_duration_MTurk/v2_DepthDuration_HTML.html#154,154,1920,969,1920,1080,9-18-2022,12-14-4,8,depth_duration_stimuli/001055_2014-06-08_18-45-35_260595134347_rgbf000111-resize_4/001055_2014-06-08_18-45-35_260595134347_rgbf000111-resize_4-target.png,125,2.4290000000000003,5.5,3875,125,feet,jsons/VE125_randls_53_rotated.json,926392,1031429,35,Man
8,402854,DepthScenes,duration_manipulation_targetAtFixation,jsons/VE125_randls_53_rotated.json,http://54.235.29.9/FacialAge/BNav_EC2/DepthDuration/v2_depth_duration_MTurk/v2_DepthDuration_HTML.html#154,154,1920,969,1920,1080,9-18-2022,12-14-4,9,depth_duration_stimuli/001650_2014-06-20_12-09-00_260595134347_rgbf000087-resize_3/001650_2014-06-20_12-09-00_260595134347_rgbf000087-resize_3-target.png,125,1.9505,1.5,8235,129,feet,jsons/VE125_randls_53_rotated.json,926392,1031429,35,Man
9,402854,DepthScenes,duration_manipulation_targetAtFixation,jsons/VE125_randls_53_rotated.json,http://54.235.29.9/FacialAge/BNav_EC2/DepthDuration/v2_depth_duration_MTurk/v2_DepthDuration_HTML.html#154,154,1920,969,1920,1080,9-18-2022,12-14-4,10,depth_duration_stimuli/000682_2014-06-08_23-14-58_260595134347_rgbf000041-resize_5/000682_2014-06-08_23-14-58_260595134347_rgbf000041-resize_5-target.png,125,2.7239999999999998,2.0,3613,123,feet,jsons/VE125_randls_53_rotated.json,926392,1031429,35,Man
10,402854,DepthScenes,duration_manipulation_targetAtFixation,jsons/VE125_randls_53_rotated.json,http://54.235.29.9/FacialAge/BNav_EC2/DepthDuration/v2_depth_duration_MTurk/v2_DepthDuration_HTML.html#154,154,1920,969,1920,1080,9-18-2022,12-14-4,11,depth_duration_stimuli/003490_2014-05-21_15-50-11_094959634447_rgbf000101-resize_3/003490_2014-05-21_15-50-11_094959634447_rgbf000101-resize_3-target.png,125,3.6445,4.6,4017,122,feet,jsons/VE125_randls_53_rotated.json,926392,1031429,35,Man
11,402854,DepthScenes,duration_manipulation_targetAtFixation,jsons/VE125_randls_53_rotated.json,http://54.235.29.9/FacialAge/BNav_EC2/DepthDuration/v2_depth_duration_MTurk/v2_DepthDuration_HTML.html#154,154,1920,969,1920,1080,9-18-2022,12-14-4,12,depth_duration_stimuli/001175_2014-06-17_15-45-55_260595134347_rgbf000129-resize_4/001175_2014-06-17_15-45-55_260595134347_rgbf000129-resize_4-target.png,125,4.255,6.0,3526,123,feet,jsons/VE125_randls_53_rotated.json,926392,1031429,35,Man
12,402854,DepthScenes,duration_manipulation_targetAtFixation,jsons/VE125_randls_53_rotated.json,http://54.235.29.9/FacialAge/BNav_EC2/DepthDuration/v2_depth_duration_MTurk/v2_DepthDuration_HTML.html#154,154,1920,969,1920,1080,9-18-2022,12-14-4,13,depth_duration_stimuli/001828_2014-06-26_21-40-03_260595134347_rgbf000024-resize_0/001828_2014-06-26_21-40-03_260595134347_rgbf000024-resize_0-target.png,125,4.8260000000000005,5.0,3188,125,feet,jsons/VE125_randls_53_rotated.json,926392,1031429,35,Man
13,402854,DepthScenes,duration_manipulation_targetAtFixation,jsons/VE125_randls_53_rotated.json,http://54.235.29.9/FacialAge/BNav_EC2/DepthDuration/v2_depth_duration_MTurk/v2_DepthDuration_HTML.html#154,154,1920,969,1920,1080,9-18-2022,12-14-4,14,depth_duration_stimuli/000009_2014-05-26_14-32-05_260595134347_rgbf000034-resize_3/000009_2014-05-26_14-32-05_260595134347_rgbf000034-resize_3-target.png,125,3.8715,7.0,4474,125,feet,jsons/VE125_randls_53_rotated.json,926392,1031429,35,Man
14,402854,DepthScenes,duration_manipulation_targetAtFixation,jsons/VE125_randls_53_rotated.json,http://54.235.29.9/FacialAge/BNav_EC2/DepthDuration/v2_depth_duration_MTurk/v2_DepthDuration_HTML.html#154,154,1920,969,1920,1080,9-18-2022,12-14-4,15,depth_duration_stimuli/002949_2014-06-26_15-57-42_094959634447_rgbf000079-resize_1/002949_2014-06-26_15-57-42_094959634447_rgbf000079-resize_1-target.png,125,1.8915,3.0,2714,129,feet,jsons/VE125_randls_53_rotated.json,926392,1031429,35,Man
15,402854,DepthScenes,duration_manipulation_targetAtFixation,jsons/VE125_randls_53_rotated.json,http://54.235.29.9/FacialAge/BNav_EC2/DepthDuration/v2_depth_duration_MTurk/v2_DepthDuration_HTML.html#154,154,1920,969,1920,1080,9-18-2022,12-14-4,16,depth_duration_stimuli/000522_2014-06-08_13-35-06_260595134347_rgbf000244-resize_1/000522_2014-06-08_13-35-06_260595134347_rgbf000244-resize_1-target.png,125,2.3715,1.8,3521,122,feet,jsons/VE125_randls_53_rotated.json,926392,1031429,35,Man
16,402854,DepthScenes,duration_manipulation_targetAtFixation,jsons/VE125_randls_53_rotated.json,http://54.235.29.9/FacialAge/BNav_EC2/DepthDuration/v2_depth_duration_MTurk/v2_DepthDuration_HTML.html#154,154,1920,969,1920,1080,9-18-2022,12-14-4,17,depth_duration_stimuli/003129_2014-05-12_10-48-10_094959634447_rgbf000100-resize_0/003129_2014-05-12_10-48-10_094959634447_rgbf000100-resize_0-target.png,125,4.9305,4.0,2121,125,feet,jsons/VE125_randls_53_rotated.json,926392,1031429,35,Man
17,402854,DepthScenes,duration_manipulation_targetAtFixation,jsons/VE125_randls_53_rotated.json,http://54.235.29.9/FacialAge/BNav_EC2/DepthDuration/v2_depth_duration_MTurk/v2_DepthDuration_HTML.html#154,154,1920,969,1920,1080,9-18-2022,12-14-4,18,depth_duration_stimuli/000414_2014-06-04_19-49-13_260595134347_rgbf000044-resize_0/000414_2014-06-04_19-49-13_260595134347_rgbf000044-resize_0-target.png,125,4.329,5.0,2171,131,feet,jsons/VE125_randls_53_rotated.json,926392,1031429,35,Man
18,402854,DepthScenes,duration_manipulation_targetAtFixation,jsons/VE125_randls_53_rotated.json,http://54.235.29.9/FacialAge/BNav_EC2/DepthDuration/v2_depth_duration_MTurk/v2_DepthDuration_HTML.html#154,154,1920,969,1920,1080,9-18-2022,12-14-4,19,depth_duration_stimuli/001498_2014-06-19_17-45-14_260595134347_rgbf000129-resize_4/001498_2014-06-19_17-45-14_260595134347_rgbf000129-resize-original.jpg,125,1.4075,0.0,2106,125,feet,jsons/VE125_randls_53_rotated.json,926392,1031429,35,Man
19,402854,DepthScenes,duration_manipulation_targetAtFixation,jsons/VE125_randls_53_rotated.json,http://54.235.29.9/FacialAge/BNav_EC2/DepthDuration/v2_depth_duration_MTurk/v2_DepthDuration_HTML.html#154,154,1920,969,1920,1080,9-18-2022,12-14-4,20,depth_duration_stimuli/002199_2014-06-28_18-33-56_260595134347_rgbf000074-resize_0/002199_2014-06-28_18-33-56_260595134347_rgbf000074-resize_0-target.png,125,1.996,1.8,3135,113,feet,jsons/VE125_randls_53_rotated.json,926392,1031429,35,Man
20,402854,DepthScenes,duration_manipulation_targetAtFixation,jsons/VE125_randls_53_rotated.json,http://54.235.29.9/FacialAge/BNav_EC2/DepthDuration/v2_depth_duration_MTurk/v2_DepthDuration_HTML.html#154,154,1920,969,1920,1080,9-18-2022,12-14-4,21,depth_duration_stimuli/001056_2014-06-08_18-46-44_260595134347_rgbf000068-resize_0/001056_2014-06-08_18-46-44_260595134347_rgbf000068-resize_0-target.png,125,2.6625,4.7,5250,126,feet,jsons/VE125_randls_53_rotated.json,926392,1031429,35,Man
21,402854,DepthScenes,duration_manipulation_targetAtFixation,jsons/VE125_randls_53_rotated.json,http://54.235.29.9/FacialAge/BNav_EC2/DepthDuration/v2_depth_duration_MTurk/v2_DepthDuration_HTML.html#154,154,1920,969,1920,1080,9-18-2022,12-14-4,22,depth_duration_stimuli/000191_2014-05-12_17-07-38_260595134347_rgbf000199-resize_0/000191_2014-05-12_17-07-38_260595134347_rgbf000199-resize_0-target.png,125,3.7995,5.5,3041,138,feet,jsons/VE125_randls_53_rotated.json,926392,1031429,35,Man
22,402854,DepthScenes,duration_manipulation_targetAtFixation,jsons/VE125_randls_53_rotated.json,http://54.235.29.9/FacialAge/BNav_EC2/DepthDuration/v2_depth_duration_MTurk/v2_DepthDuration_HTML.html#154,154,1920,969,1920,1080,9-18-2022,12-14-4,23,depth_duration_stimuli/000493_2014-06-09_21-01-18_260595134347_rgbf000196-resize_3/000493_2014-06-09_21-01-18_260595134347_rgbf000196-resize_3-target.png,125,3.44,4.8,3696,124,feet,jsons/VE125_randls_53_rotated.json,926392,1031429,35,Man
23,402854,DepthScenes,duration_manipulation_targetAtFixation,jsons/VE125_randls_53_rotated.json,http://54.235.29.9/FacialAge/BNav_EC2/DepthDuration/v2_depth_duration_MTurk/v2_DepthDuration_HTML.html#154,154,1920,969,1920,1080,9-18-2022,12-14-4,24,depth_duration_stimuli/002323_2014-06-28_20-01-54_260595134347_rgbf000051-resize_4/002323_2014-06-28_20-01-54_260595134347_rgbf000051-resize_4-target.png,125,3.7310000000000003,6.6,5003,125,feet,jsons/VE125_randls_53_rotated.json,926392,1031429,35,Man
24,402854,DepthScenes,duration_manipulation_targetAtFixation,jsons/VE125_randls_53_rotated.json,http://54.235.29.9/FacialAge/BNav_EC2/DepthDuration/v2_depth_duration_MTurk/v2_DepthDuration_HTML.html#154,154,1920,969,1920,1080,9-18-2022,12-14-4,25,depth_duration_stimuli/000917_2014-06-09_22-45-29_260595134347_rgbf000149-resize_3/000917_2014-06-09_22-45-29_260595134347_rgbf000149-resize_3-target.png,125,4.1865,6.5,3687,112,feet,jsons/VE125_randls_53_rotated.json,926392,1031429,35,Man
25,402854,DepthScenes,duration_manipulation_targetAtFixation,jsons/VE125_randls_53_rotated.json,http://54.235.29.9/FacialAge/BNav_EC2/DepthDuration/v2_depth_duration_MTurk/v2_DepthDuration_HTML.html#154,154,1920,969,1920,1080,9-18-2022,12-14-4,26,depth_duration_stimuli/002425_2014-06-28_20-27-29_260595134347_rgbf000031-resize_8/002425_2014-06-28_20-27-29_260595134347_rgbf000031-resize_8-target.png,125,3.8960000000000004,7.0,5139,124,feet,jsons/VE125_randls_53_rotated.json,926392,1031429,35,Man
26,402854,DepthScenes,duration_manipulation_targetAtFixation,jsons/VE125_randls_53_rotated.json,http://54.235.29.9/FacialAge/BNav_EC2/DepthDuration/v2_depth_duration_MTurk/v2_DepthDuration_HTML.html#154,154,1920,969,1920,1080,9-18-2022,12-14-4,27,depth_duration_stimuli/000642_2014-06-08_16-59-25_260595134347_rgbf000098-resize_2/000642_2014-06-08_16-59-25_260595134347_rgbf000098-resize_2-target.png,125,2.8815,5.8,4274,124,feet,jsons/VE125_randls_53_rotated.json,926392,1031429,35,Man
27,402854,DepthScenes,duration_manipulation_targetAtFixation,jsons/VE125_randls_53_rotated.json,http://54.235.29.9/FacialAge/BNav_EC2/DepthDuration/v2_depth_duration_MTurk/v2_DepthDuration_HTML.html#154,154,1920,969,1920,1080,9-18-2022,12-14-4,28,depth_duration_stimuli/003587_2014-05-23_16-48-02_094959634447_rgbf002384-resize_2/003587_2014-05-23_16-48-02_094959634447_rgbf002384-resize_2-target.png,125,1.357,2.0,5098,125,feet,jsons/VE125_randls_53_rotated.json,926392,1031429,35,Man
28,402854,DepthScenes,duration_manipulation_targetAtFixation,jsons/VE125_randls_53_rotated.json,http://54.235.29.9/FacialAge/BNav_EC2/DepthDuration/v2_depth_duration_MTurk/v2_DepthDuration_HTML.html#154,154,1920,969,1920,1080,9-18-2022,12-14-4,29,depth_duration_stimuli/001167_2014-06-17_15-38-07_260595134347_rgbf000108-resize_0/001167_2014-06-17_15-38-07_260595134347_rgbf000108-resize_0-target.png,125,1.8505,1.6,3981,122,feet,jsons/VE125_randls_53_rotated.json,926392,1031429,35,Man
29,402854,DepthScenes,duration_manipulation_targetAtFixation,jsons/VE125_randls_53_rotated.json,http://54.235.29.9/FacialAge/BNav_EC2/DepthDuration/v2_depth_duration_MTurk/v2_DepthDuration_HTML.html#154,154,1920,969,1920,1080,9-18-2022,12-14-4,30,depth_duration_stimuli/002072_2014-06-24_21-48-06_260595134347_rgbf000115-resize_0/002072_2014-06-24_21-48-06_260595134347_rgbf000115-resize-original.jpg,125,4.702,0.0,3169,124,feet,jsons/VE125_randls_53_rotated.json,926392,1031429,35,Man
30,402854,DepthScenes,duration_manipulation_targetAtFixation,jsons/VE125_randls_53_rotated.json,http://54.235.29.9/FacialAge/BNav_EC2/DepthDuration/v2_depth_duration_MTurk/v2_DepthDuration_HTML.html#154,154,1920,969,1920,1080,9-18-2022,12-14-4,31,depth_duration_stimuli/002545_2014-06-24_13-38-53_094959634447_rgbf000080-resize_4/002545_2014-06-24_13-38-53_094959634447_rgbf000080-resize_4-target.png,125,1.9205,4.0,13460,125,feet,jsons/VE125_randls_53_rotated.json,926392,1031429,35,Man
31,402854,DepthScenes,duration_manipulation_targetAtFixation,jsons/VE125_randls_53_rotated.json,http://54.235.29.9/FacialAge/BNav_EC2/DepthDuration/v2_depth_duration_MTurk/v2_DepthDuration_HTML.html#154,154,1920,969,1920,1080,9-18-2022,12-14-4,32,depth_duration_stimuli/001092_2014-06-15_17-34-58_260595134347_rgbf000171-resize_3/001092_2014-06-15_17-34-58_260595134347_rgbf000171-resize_3-target.png,125,2.6935,4.5,3771,139,feet,jsons/VE125_randls_53_rotated.json,926392,1031429,35,Man
32,402854,DepthScenes,duration_manipulation_targetAtFixation,jsons/VE125_randls_53_rotated.json,http://54.235.29.9/FacialAge/BNav_EC2/DepthDuration/v2_depth_duration_MTurk/v2_DepthDuration_HTML.html#154,154,1920,969,1920,1080,9-18-2022,12-14-4,33,depth_duration_stimuli/001214_2014-06-17_16-13-55_260595134347_rgbf000111-resize_0/001214_2014-06-17_16-13-55_260595134347_rgbf000111-resize_0-target.png,125,2.6505,5.0,4337,122,feet,jsons/VE125_randls_53_rotated.json,926392,1031429,35,Man
33,402854,DepthScenes,duration_manipulation_targetAtFixation,jsons/VE125_randls_53_rotated.json,http://54.235.29.9/FacialAge/BNav_EC2/DepthDuration/v2_depth_duration_MTurk/v2_DepthDuration_HTML.html#154,154,1920,969,1920,1080,9-18-2022,12-14-4,34,depth_duration_stimuli/000810_2014-06-08_17-20-01_260595134347_rgbf000105-resize_0/000810_2014-06-08_17-20-01_260595134347_rgbf000105-resize_0-target.png,125,1.4865,4.8,3326,125,feet,jsons/VE125_randls_53_rotated.json,926392,1031429,35,Man
34,402854,DepthScenes,duration_manipulation_targetAtFixation,jsons/VE125_randls_53_rotated.json,http://54.235.29.9/FacialAge/BNav_EC2/DepthDuration/v2_depth_duration_MTurk/v2_DepthDuration_HTML.html#154,154,1920,969,1920,1080,9-18-2022,12-14-4,35,depth_duration_stimuli/001052_2014-06-08_18-24-54_260595134347_rgbf000130-resize_1/001052_2014-06-08_18-24-54_260595134347_rgbf000130-resize_1-target.png,125,4.1045,7.0,3548,124,feet,jsons/VE125_randls_53_rotated.json,926392,1031429,35,Man
35,402854,DepthScenes,duration_manipulation_targetAtFixation,jsons/VE125_randls_53_rotated.json,http://54.235.29.9/FacialAge/BNav_EC2/DepthDuration/v2_depth_duration_MTurk/v2_DepthDuration_HTML.html#154,154,1920,969,1920,1080,9-18-2022,12-14-4,36,depth_duration_stimuli/002988_2014-06-15_12-24-20_094959634447_rgbf000150-resize_1/002988_2014-06-15_12-24-20_094959634447_rgbf000150-resize_1-target.png,125,4.7669999999999995,7.0,3207,112,feet,jsons/VE125_randls_53_rotated.json,926392,1031429,35,Man
36,402854,DepthScenes,duration_manipulation_targetAtFixation,jsons/VE125_randls_53_rotated.json,http://54.235.29.9/FacialAge/BNav_EC2/DepthDuration/v2_depth_duration_MTurk/v2_DepthDuration_HTML.html#154,154,1920,969,1920,1080,9-18-2022,12-14-4,37,depth_duration_stimuli/002637_2014-06-24_14-51-13_094959634447_rgbf000066-resize_4/002637_2014-06-24_14-51-13_094959634447_rgbf000066-resize_4-target.png,125,1.9955,6.5,4167,120,feet,jsons/VE125_randls_53_rotated.json,926392,1031429,35,Man
37,402854,DepthScenes,duration_manipulation_targetAtFixation,jsons/VE125_randls_53_rotated.json,http://54.235.29.9/FacialAge/BNav_EC2/DepthDuration/v2_depth_duration_MTurk/v2_DepthDuration_HTML.html#154,154,1920,969,1920,1080,9-18-2022,12-14-4,38,depth_duration_stimuli/003534_2014-05-22_15-06-10_094959634447_rgbf000102-resize_4/003534_2014-05-22_15-06-10_094959634447_rgbf000102-resize_4-target.png,125,1.426,1.7,8069,114,feet,jsons/VE125_randls_53_rotated.json,926392,1031429,35,Man
38,402854,DepthScenes,duration_manipulation_targetAtFixation,jsons/VE125_randls_53_rotated.json,http://54.235.29.9/FacialAge/BNav_EC2/DepthDuration/v2_depth_duration_MTurk/v2_DepthDuration_HTML.html#154,154,1920,969,1920,1080,9-18-2022,12-14-4,39,depth_duration_stimuli/000665_2014-06-09_20-42-35_260595134347_rgbf000110-resize_1/000665_2014-06-09_20-42-35_260595134347_rgbf000110-resize_1-target.png,125,3.057,4.3,8802,128,feet,jsons/VE125_randls_53_rotated.json,926392,1031429,35,Man
39,402854,DepthScenes,duration_manipulation_targetAtFixation,jsons/VE125_randls_53_rotated.json,http://54.235.29.9/FacialAge/BNav_EC2/DepthDuration/v2_depth_duration_MTurk/v2_DepthDuration_HTML.html#154,154,1920,969,1920,1080,9-18-2022,12-14-4,40,depth_duration_stimuli/001150_2014-06-17_15-27-34_260595134347_rgbf000108-resize_2/001150_2014-06-17_15-27-34_260595134347_rgbf000108-resize_2-target.png,125,4.0325,5.3,4202,124,feet,jsons/VE125_randls_53_rotated.json,926392,1031429,35,Man
40,402854,DepthScenes,duration_manipulation_targetAtFixation,jsons/VE125_randls_53_rotated.json,http://54.235.29.9/FacialAge/BNav_EC2/DepthDuration/v2_depth_duration_MTurk/v2_DepthDuration_HTML.html#154,154,1920,969,1920,1080,9-18-2022,12-14-4,41,depth_duration_stimuli/001617_2014-06-20_11-35-32_260595134347_rgbf000066-resize_1/001617_2014-06-20_11-35-32_260595134347_rgbf000066-resize_1-target.png,125,3.7910000000000004,6.0,3328,124,feet,jsons/VE125_randls_53_rotated.json,926392,1031429,35,Man
41,402854,DepthScenes,duration_manipulation_targetAtFixation,jsons/VE125_randls_53_rotated.json,http://54.235.29.9/FacialAge/BNav_EC2/DepthDuration/v2_depth_duration_MTurk/v2_DepthDuration_HTML.html#154,154,1920,969,1920,1080,9-18-2022,12-14-4,42,depth_duration_stimuli/001806_2014-06-26_20-50-20_260595134347_rgbf000091-resize_1/001806_2014-06-26_20-50-20_260595134347_rgbf000091-resize_1-target.png,125,2.7305,5.1,4116,128,feet,jsons/VE125_randls_53_rotated.json,926392,1031429,35,Man
42,402854,DepthScenes,duration_manipulation_targetAtFixation,jsons/VE125_randls_53_rotated.json,http://54.235.29.9/FacialAge/BNav_EC2/DepthDuration/v2_depth_duration_MTurk/v2_DepthDuration_HTML.html#154,154,1920,969,1920,1080,9-18-2022,12-14-4,43,depth_duration_stimuli/003083_2014-06-15_15-21-03_094959634447_rgbf000063-resize_1/003083_2014-06-15_15-21-03_094959634447_rgbf000063-resize_1-target.png,125,4.1405,6.6,4422,125,feet,jsons/VE125_randls_53_rotated.json,926392,1031429,35,Man
43,402854,DepthScenes,duration_manipulation_targetAtFixation,jsons/VE125_randls_53_rotated.json,http://54.235.29.9/FacialAge/BNav_EC2/DepthDuration/v2_depth_duration_MTurk/v2_DepthDuration_HTML.html#154,154,1920,969,1920,1080,9-18-2022,12-14-4,44,depth_duration_stimuli/000486_2014-06-09_20-47-20_260595134347_rgbf000143-resize_2/000486_2014-06-09_20-47-20_260595134347_rgbf000143-resize_2-target.png,125,4.8325,7.0,2904,125,feet,jsons/VE125_randls_53_rotated.json,926392,1031429,35,Man
44,402854,DepthScenes,duration_manipulation_targetAtFixation,jsons/VE125_randls_53_rotated.json,http://54.235.29.9/FacialAge/BNav_EC2/DepthDuration/v2_depth_duration_MTurk/v2_DepthDuration_HTML.html#154,154,1920,969,1920,1080,9-18-2022,12-14-4,45,depth_duration_stimuli/001815_2014-06-26_20-52-55_260595134347_rgbf000020-resize_0/001815_2014-06-26_20-52-55_260595134347_rgbf000020-resize_0-target.png,125,3.3865,7.0,2214,117,feet,jsons/VE125_randls_53_rotated.json,926392,1031429,35,Man
45,402854,DepthScenes,duration_manipulation_targetAtFixation,jsons/VE125_randls_53_rotated.json,http://54.235.29.9/FacialAge/BNav_EC2/DepthDuration/v2_depth_duration_MTurk/v2_DepthDuration_HTML.html#154,154,1920,969,1920,1080,9-18-2022,12-14-4,46,depth_duration_stimuli/001808_2014-06-26_20-50-58_260595134347_rgbf000029-resize_1/001808_2014-06-26_20-50-58_260595134347_rgbf000029-resize_1-target.png,125,4.249,7.3,2842,126,feet,jsons/VE125_randls_53_rotated.json,926392,1031429,35,Man
46,402854,DepthScenes,duration_manipulation_targetAtFixation,jsons/VE125_randls_53_rotated.json,http://54.235.29.9/FacialAge/BNav_EC2/DepthDuration/v2_depth_duration_MTurk/v2_DepthDuration_HTML.html#154,154,1920,969,1920,1080,9-18-2022,12-14-4,47,depth_duration_stimuli/002758_2014-06-22_19-11-20_094959634447_rgbf000128-resize_1/002758_2014-06-22_19-11-20_094959634447_rgbf000128-resize_1-target.png,125,2.555,4.3,4292,124,feet,jsons/VE125_randls_53_rotated.json,926392,1031429,35,Man
47,402854,DepthScenes,duration_manipulation_targetAtFixation,jsons/VE125_randls_53_rotated.json,http://54.235.29.9/FacialAge/BNav_EC2/DepthDuration/v2_depth_duration_MTurk/v2_DepthDuration_HTML.html#154,154,1920,969,1920,1080,9-18-2022,12-14-4,48,depth_duration_stimuli/002630_2014-06-24_14-47-50_094959634447_rgbf000055-resize_1/002630_2014-06-24_14-47-50_094959634447_rgbf000055-resize_1-target.png,125,3.0095,5.0,3035,139,feet,jsons/VE125_randls_53_rotated.json,926392,1031429,35,Man
48,402854,DepthScenes,duration_manipulation_targetAtFixation,jsons/VE125_randls_53_rotated.json,http://54.235.29.9/FacialAge/BNav_EC2/DepthDuration/v2_depth_duration_MTurk/v2_DepthDuration_HTML.html#154,154,1920,969,1920,1080,9-18-2022,12-14-4,49,depth_duration_stimuli/001170_2014-06-17_15-43-44_260595134347_rgbf000096-resize_6/001170_2014-06-17_15-43-44_260595134347_rgbf000096-resize-original.jpg,125,1.1909999999999998,0.0,2315,136,feet,jsons/VE125_randls_53_rotated.json,926392,1031429,35,Man
49,402854,DepthScenes,duration_manipulation_targetAtFixation,jsons/VE125_randls_53_rotated.json,http://54.235.29.9/FacialAge/BNav_EC2/DepthDuration/v2_depth_duration_MTurk/v2_DepthDuration_HTML.html#154,154,1920,969,1920,1080,9-18-2022,12-14-4,50,depth_duration_stimuli/002444_2014-06-28_20-32-08_260595134347_rgbf000027-resize_0/002444_2014-06-28_20-32-08_260595134347_rgbf000027-resize_0-target.png,125,4.388999999999999,6.8,4547,124,feet,jsons/VE125_randls_53_rotated.json,926392,1031429,35,Man
50,402854,DepthScenes,duration_manipulation_targetAtFixation,jsons/VE125_randls_53_rotated.json,http://54.235.29.9/FacialAge/BNav_EC2/DepthDuration/v2_depth_duration_MTurk/v2_DepthDuration_HTML.html#154,154,1920,969,1920,1080,9-18-2022,12-14-4,51,depth_duration_stimuli/000436_2014-06-09_22-25-11_260595134347_rgbf000137-resize_1/000436_2014-06-09_22-25-11_260595134347_rgbf000137-resize_1-target.png,125,4.0705,6.3,4525,124,feet,jsons/VE125_randls_53_rotated.json,926392,1031429,35,Man
51,402854,DepthScenes,duration_manipulation_targetAtFixation,jsons/VE125_randls_53_rotated.json,http://54.235.29.9/FacialAge/BNav_EC2/DepthDuration/v2_depth_duration_MTurk/v2_DepthDuration_HTML.html#154,154,1920,969,1920,1080,9-18-2022,12-14-4,52,depth_duration_stimuli/002209_2014-06-28_18-36-10_260595134347_rgbf000051-resize_1/002209_2014-06-28_18-36-10_260595134347_rgbf000051-resize_1-target.png,125,2.057,5.7,2779,125,feet,jsons/VE125_randls_53_rotated.json,926392,1031429,35,Man
52,402854,DepthScenes,duration_manipulation_targetAtFixation,jsons/VE125_randls_53_rotated.json,http://54.235.29.9/FacialAge/BNav_EC2/DepthDuration/v2_depth_duration_MTurk/v2_DepthDuration_HTML.html#154,154,1920,969,1920,1080,9-18-2022,12-14-4,53,depth_duration_stimuli/002763_2014-06-22_19-13-10_094959634447_rgbf000075-resize_4/002763_2014-06-22_19-13-10_094959634447_rgbf000075-resize_4-target.png,125,1.68375,5.0,3695,124,feet,jsons/VE125_randls_53_rotated.json,926392,1031429,35,Man
53,402854,DepthScenes,duration_manipulation_targetAtFixation,jsons/VE125_randls_53_rotated.json,http://54.235.29.9/FacialAge/BNav_EC2/DepthDuration/v2_depth_duration_MTurk/v2_DepthDuration_HTML.html#154,154,1920,969,1920,1080,9-18-2022,12-14-4,54,depth_duration_stimuli/000103_2014-05-14_22-01-17_260595134347_rgbf000152-resize_5/000103_2014-05-14_22-01-17_260595134347_rgbf000152-resize_5-target.png,125,1.993,6.0,3177,122,feet,jsons/VE125_randls_53_rotated.json,926392,1031429,35,Man
54,402854,DepthScenes,duration_manipulation_targetAtFixation,jsons/VE125_randls_53_rotated.json,http://54.235.29.9/FacialAge/BNav_EC2/DepthDuration/v2_depth_duration_MTurk/v2_DepthDuration_HTML.html#154,154,1920,969,1920,1080,9-18-2022,12-14-4,55,depth_duration_stimuli/001555_2014-06-20_17-12-10_260595134347_rgbf000065-resize_4/001555_2014-06-20_17-12-10_260595134347_rgbf000065-resize_4-target.png,125,1.633,4.7,5022,125,feet,jsons/VE125_randls_53_rotated.json,926392,1031429,35,Man
55,402854,DepthScenes,duration_manipulation_targetAtFixation,jsons/VE125_randls_53_rotated.json,http://54.235.29.9/FacialAge/BNav_EC2/DepthDuration/v2_depth_duration_MTurk/v2_DepthDuration_HTML.html#154,154,1920,969,1920,1080,9-18-2022,12-14-4,56,depth_duration_stimuli/002678_2014-06-13_16-15-32_094959634447_rgbf000151-resize_6/002678_2014-06-13_16-15-32_094959634447_rgbf000151-resize_6-target.png,125,2.1830000000000003,6.3,3299,125,feet,jsons/VE125_randls_53_rotated.json,926392,1031429,35,Man
56,402854,DepthScenes,duration_manipulation_targetAtFixation,jsons/VE125_randls_53_rotated.json,http://54.235.29.9/FacialAge/BNav_EC2/DepthDuration/v2_depth_duration_MTurk/v2_DepthDuration_HTML.html#154,154,1920,969,1920,1080,9-18-2022,12-14-4,57,depth_duration_stimuli/000368_2014-06-09_15-53-01_260595134347_rgbf000155-resize_2/000368_2014-06-09_15-53-01_260595134347_rgbf000155-resize_2-target.png,125,2.4859999999999998,4.7,4739,125,feet,jsons/VE125_randls_53_rotated.json,926392,1031429,35,Man
57,402854,DepthScenes,duration_manipulation_targetAtFixation,jsons/VE125_randls_53_rotated.json,http://54.235.29.9/FacialAge/BNav_EC2/DepthDuration/v2_depth_duration_MTurk/v2_DepthDuration_HTML.html#154,154,1920,969,1920,1080,9-18-2022,12-14-4,58,depth_duration_stimuli/001447_2014-06-19_17-00-32_260595134347_rgbf000082-resize_5/001447_2014-06-19_17-00-32_260595134347_rgbf000082-resize_5-target.png,125,4.13775,6.3,4211,133,feet,jsons/VE125_randls_53_rotated.json,926392,1031429,35,Man
58,402854,DepthScenes,duration_manipulation_targetAtFixation,jsons/VE125_randls_53_rotated.json,http://54.235.29.9/FacialAge/BNav_EC2/DepthDuration/v2_depth_duration_MTurk/v2_DepthDuration_HTML.html#154,154,1920,969,1920,1080,9-18-2022,12-14-4,59,depth_duration_stimuli/000447_2014-06-08_16-15-46_260595134347_rgbf000130-resize_1/000447_2014-06-08_16-15-46_260595134347_rgbf000130-resize_1-target.png,125,4.479,6.8,7071,125,feet,jsons/VE125_randls_53_rotated.json,926392,1031429,35,Man
59,402854,DepthScenes,duration_manipulation_targetAtFixation,jsons/VE125_randls_53_rotated.json,http://54.235.29.9/FacialAge/BNav_EC2/DepthDuration/v2_depth_duration_MTurk/v2_DepthDuration_HTML.html#154,154,1920,969,1920,1080,9-18-2022,12-14-4,60,depth_duration_stimuli/003079_2014-06-15_15-18-20_094959634447_rgbf000152-resize_8/003079_2014-06-15_15-18-20_094959634447_rgbf000152-resize_8-target.png,125,2.8775,7.3,3368,127,feet,jsons/VE125_randls_53_rotated.json,926392,1031429,35,Man
60,402854,DepthScenes,duration_manipulation_targetAtFixation,jsons/VE125_randls_53_rotated.json,http://54.235.29.9/FacialAge/BNav_EC2/DepthDuration/v2_depth_duration_MTurk/v2_DepthDuration_HTML.html#154,154,1920,969,1920,1080,9-18-2022,12-14-4,61,depth_duration_stimuli/000506_2014-06-08_23-21-00_260595134347_rgbf000070-resize_7/000506_2014-06-08_23-21-00_260595134347_rgbf000070-resize_7-target.png,125,4.0585,6.5,3425,126,feet,jsons/VE125_randls_53_rotated.json,926392,1031429,35,Man
61,402854,DepthScenes,duration_manipulation_targetAtFixation,jsons/VE125_randls_53_rotated.json,http://54.235.29.9/FacialAge/BNav_EC2/DepthDuration/v2_depth_duration_MTurk/v2_DepthDuration_HTML.html#154,154,1920,969,1920,1080,9-18-2022,12-14-4,62,depth_duration_stimuli/002340_2014-06-28_20-05-46_260595134347_rgbf000113-resize_0/002340_2014-06-28_20-05-46_260595134347_rgbf000113-resize_0-target.png,125,2.4735,7.5,2964,125,feet,jsons/VE125_randls_53_rotated.json,926392,1031429,35,Man
62,402854,DepthScenes,duration_manipulation_targetAtFixation,jsons/VE125_randls_53_rotated.json,http://54.235.29.9/FacialAge/BNav_EC2/DepthDuration/v2_depth_duration_MTurk/v2_DepthDuration_HTML.html#154,154,1920,969,1920,1080,9-18-2022,12-14-4,63,depth_duration_stimuli/001016_2014-06-09_16-16-10_260595134347_rgbf000112-resize_5/001016_2014-06-09_16-16-10_260595134347_rgbf000112-resize_5-target.png,125,1.6565,5.2,3768,124,feet,jsons/VE125_randls_53_rotated.json,926392,1031429,35,Man
63,402854,DepthScenes,duration_manipulation_targetAtFixation,jsons/VE125_randls_53_rotated.json,http://54.235.29.9/FacialAge/BNav_EC2/DepthDuration/v2_depth_duration_MTurk/v2_DepthDuration_HTML.html#154,154,1920,969,1920,1080,9-18-2022,12-14-4,64,depth_duration_stimuli/000734_2014-06-08_17-39-11_260595134347_rgbf000128-resize_2/000734_2014-06-08_17-39-11_260595134347_rgbf000128-resize_2-target.png,125,4.098,6.0,2256,126,feet,jsons/VE125_randls_53_rotated.json,926392,1031429,35,Man
64,402854,DepthScenes,duration_manipulation_targetAtFixation,jsons/VE125_randls_53_rotated.json,http://54.235.29.9/FacialAge/BNav_EC2/DepthDuration/v2_depth_duration_MTurk/v2_DepthDuration_HTML.html#154,154,1920,969,1920,1080,9-18-2022,12-14-4,65,depth_duration_stimuli/000739_2014-06-08_18-45-58_260595134347_rgbf000068-resize_1/000739_2014-06-08_18-45-58_260595134347_rgbf000068-resize_1-target.png,125,3.534,6.6,4290,125,feet,jsons/VE125_randls_53_rotated.json,926392,1031429,35,Man
65,402854,DepthScenes,duration_manipulation_targetAtFixation,jsons/VE125_randls_53_rotated.json,http://54.235.29.9/FacialAge/BNav_EC2/DepthDuration/v2_depth_duration_MTurk/v2_DepthDuration_HTML.html#154,154,1920,969,1920,1080,9-18-2022,12-14-4,66,depth_duration_stimuli/001540_2014-06-20_17-01-05_260595134347_rgbf000086-resize_2/001540_2014-06-20_17-01-05_260595134347_rgbf000086-resize-original.jpg,125,1.459,0.0,1995,125,feet,jsons/VE125_randls_53_rotated.json,926392,1031429,35,Man
66,402854,DepthScenes,duration_manipulation_targetAtFixation,jsons/VE125_randls_53_rotated.json,http://54.235.29.9/FacialAge/BNav_EC2/DepthDuration/v2_depth_duration_MTurk/v2_DepthDuration_HTML.html#154,154,1920,969,1920,1080,9-18-2022,12-14-4,67,depth_duration_stimuli/000502_2014-06-08_23-02-32_260595134347_rgbf000063-resize_4/000502_2014-06-08_23-02-32_260595134347_rgbf000063-resize_4-target.png,125,2.431,3.8,5347,125,feet,jsons/VE125_randls_53_rotated.json,926392,1031429,35,Man
67,402854,DepthScenes,duration_manipulation_targetAtFixation,jsons/VE125_randls_53_rotated.json,http://54.235.29.9/FacialAge/BNav_EC2/DepthDuration/v2_depth_duration_MTurk/v2_DepthDuration_HTML.html#154,154,1920,969,1920,1080,9-18-2022,12-14-4,68,depth_duration_stimuli/001199_2014-06-17_16-03-48_260595134347_rgbf000077-resize_0/001199_2014-06-17_16-03-48_260595134347_rgbf000077-resize_0-target.png,125,3.4375,4.2,3236,134,feet,jsons/VE125_randls_53_rotated.json,926392,1031429,35,Man
68,402854,DepthScenes,duration_manipulation_targetAtFixation,jsons/VE125_randls_53_rotated.json,http://54.235.29.9/FacialAge/BNav_EC2/DepthDuration/v2_depth_duration_MTurk/v2_DepthDuration_HTML.html#154,154,1920,969,1920,1080,9-18-2022,12-14-4,69,depth_duration_stimuli/000749_2014-06-08_21-55-06_260595134347_rgbf000070-resize_2/000749_2014-06-08_21-55-06_260595134347_rgbf000070-resize_2-target.png,125,2.331,4.5,2866,124,feet,jsons/VE125_randls_53_rotated.json,926392,1031429,35,Man
69,402854,DepthScenes,duration_manipulation_targetAtFixation,jsons/VE125_randls_53_rotated.json,http://54.235.29.9/FacialAge/BNav_EC2/DepthDuration/v2_depth_duration_MTurk/v2_DepthDuration_HTML.html#154,154,1920,969,1920,1080,9-18-2022,12-14-4,70,depth_duration_stimuli/002788_2014-06-22_19-36-03_094959634447_rgbf000088-resize_2/002788_2014-06-22_19-36-03_094959634447_rgbf000088-resize_2-target.png,125,1.6465,4.5,3838,126,feet,jsons/VE125_randls_53_rotated.json,926392,1031429,35,Man
70,402854,DepthScenes,duration_manipulation_targetAtFixation,jsons/VE125_randls_53_rotated.json,http://54.235.29.9/FacialAge/BNav_EC2/DepthDuration/v2_depth_duration_MTurk/v2_DepthDuration_HTML.html#154,154,1920,969,1920,1080,9-18-2022,12-14-4,71,depth_duration_stimuli/002995_2014-06-15_12-31-26_094959634447_rgbf000150-resize_1/002995_2014-06-15_12-31-26_094959634447_rgbf000150-resize_1-target.png,125,3.8360000000000003,4.8,2955,125,feet,jsons/VE125_randls_53_rotated.json,926392,1031429,35,Man
71,402854,DepthScenes,duration_manipulation_targetAtFixation,jsons/VE125_randls_53_rotated.json,http://54.235.29.9/FacialAge/BNav_EC2/DepthDuration/v2_depth_duration_MTurk/v2_DepthDuration_HTML.html#154,154,1920,969,1920,1080,9-18-2022,12-14-4,72,depth_duration_stimuli/002748_2014-06-22_19-07-22_094959634447_rgbf000078-resize_1/002748_2014-06-22_19-07-22_094959634447_rgbf000078-resize_1-target.png,125,4.6705,6.0,3763,140,feet,jsons/VE125_randls_53_rotated.json,926392,1031429,35,Man
72,402854,DepthScenes,duration_manipulation_targetAtFixation,jsons/VE125_randls_53_rotated.json,http://54.235.29.9/FacialAge/BNav_EC2/DepthDuration/v2_depth_duration_MTurk/v2_DepthDuration_HTML.html#154,154,1920,969,1920,1080,9-18-2022,12-14-4,73,depth_duration_stimuli/000709_2014-06-08_13-51-55_260595134347_rgbf000068-resize_3/000709_2014-06-08_13-51-55_260595134347_rgbf000068-resize_3-target.png,125,1.8030000000000002,7.0,3187,123,feet,jsons/VE125_randls_53_rotated.json,926392,1031429,35,Man
73,402854,DepthScenes,duration_manipulation_targetAtFixation,jsons/VE125_randls_53_rotated.json,http://54.235.29.9/FacialAge/BNav_EC2/DepthDuration/v2_depth_duration_MTurk/v2_DepthDuration_HTML.html#154,154,1920,969,1920,1080,9-18-2022,12-14-4,74,depth_duration_stimuli/002057_2014-06-24_21-00-13_260595134347_rgbf000120-resize_1/002057_2014-06-24_21-00-13_260595134347_rgbf000120-resize_1-target.png,125,2.967,7.1,3789,124,feet,jsons/VE125_randls_53_rotated.json,926392,1031429,35,Man
74,402854,DepthScenes,duration_manipulation_targetAtFixation,jsons/VE125_randls_53_rotated.json,http://54.235.29.9/FacialAge/BNav_EC2/DepthDuration/v2_depth_duration_MTurk/v2_DepthDuration_HTML.html#154,154,1920,969,1920,1080,9-18-2022,12-14-4,75,depth_duration_stimuli/000742_2014-06-08_18-48-09_260595134347_rgbf000164-resize_4/000742_2014-06-08_18-48-09_260595134347_rgbf000164-resize_4-target.png,125,4.632,6.9,3243,125,feet,jsons/VE125_randls_53_rotated.json,926392,1031429,35,Man
75,402854,DepthScenes,duration_manipulation_targetAtFixation,jsons/VE125_randls_53_rotated.json,http://54.235.29.9/FacialAge/BNav_EC2/DepthDuration/v2_depth_duration_MTurk/v2_DepthDuration_HTML.html#154,154,1920,969,1920,1080,9-18-2022,12-14-4,76,depth_duration_stimuli/001066_2014-06-08_22-03-20_260595134347_rgbf000066-resize_4/001066_2014-06-08_22-03-20_260595134347_rgbf000066-resize_4-target.png,125,4.2330000000000005,7.3,3943,121,feet,jsons/VE125_randls_53_rotated.json,926392,1031429,35,Man
76,402854,DepthScenes,duration_manipulation_targetAtFixation,jsons/VE125_randls_53_rotated.json,http://54.235.29.9/FacialAge/BNav_EC2/DepthDuration/v2_depth_duration_MTurk/v2_DepthDuration_HTML.html#154,154,1920,969,1920,1080,9-18-2022,12-14-4,77,depth_duration_stimuli/001516_2014-06-20_16-25-09_260595134347_rgbf000076-resize_2/001516_2014-06-20_16-25-09_260595134347_rgbf000076-resize_2-target.png,125,1.7445,2.4,4551,113,feet,jsons/VE125_randls_53_rotated.json,926392,1031429,35,Man
77,402854,DepthScenes,duration_manipulation_targetAtFixation,jsons/VE125_randls_53_rotated.json,http://54.235.29.9/FacialAge/BNav_EC2/DepthDuration/v2_depth_duration_MTurk/v2_DepthDuration_HTML.html#154,154,1920,969,1920,1080,9-18-2022,12-14-4,78,depth_duration_stimuli/002118_2014-06-25_20-32-08_260595134347_rgbf000078-resize_1/002118_2014-06-25_20-32-08_260595134347_rgbf000078-resize_1-target.png,125,2.6460000000000004,4.3,3829,124,feet,jsons/VE125_randls_53_rotated.json,926392,1031429,35,Man
78,402854,DepthScenes,duration_manipulation_targetAtFixation,jsons/VE125_randls_53_rotated.json,http://54.235.29.9/FacialAge/BNav_EC2/DepthDuration/v2_depth_duration_MTurk/v2_DepthDuration_HTML.html#154,154,1920,969,1920,1080,9-18-2022,12-14-4,79,depth_duration_stimuli/002657_2014-06-13_15-29-54_094959634447_rgbf000150-resize_1/002657_2014-06-13_15-29-54_094959634447_rgbf000150-resize_1-target.png,125,4.919,6.8,9852,112,feet,jsons/VE125_randls_53_rotated.json,926392,1031429,35,Man
79,402854,DepthScenes,duration_manipulation_targetAtFixation,jsons/VE125_randls_53_rotated.json,http://54.235.29.9/FacialAge/BNav_EC2/DepthDuration/v2_depth_duration_MTurk/v2_DepthDuration_HTML.html#154,154,1920,969,1920,1080,9-18-2022,12-14-4,80,depth_duration_stimuli/002375_2014-06-28_20-13-44_260595134347_rgbf000032-resize_1/002375_2014-06-28_20-13-44_260595134347_rgbf000032-resize_1-target.png,125,4.0175,5.0,13898,124,feet,jsons/VE125_randls_53_rotated.json,926392,1031429,35,Man
80,402854,DepthScenes,duration_manipulation_targetAtFixation,jsons/VE125_randls_53_rotated.json,http://54.235.29.9/FacialAge/BNav_EC2/DepthDuration/v2_depth_duration_MTurk/v2_DepthDuration_HTML.html#154,154,1920,969,1920,1080,9-18-2022,12-14-4,81,depth_duration_stimuli/000109_2014-05-14_23-41-52_260595134347_rgbf000035-resize_9/000109_2014-05-14_23-41-52_260595134347_rgbf000035-resize_9-target.png,125,1.3545,1.8,3282,139,feet,jsons/VE125_randls_53_rotated.json,926392,1031429,35,Man
81,402854,DepthScenes,duration_manipulation_targetAtFixation,jsons/VE125_randls_53_rotated.json,http://54.235.29.9/FacialAge/BNav_EC2/DepthDuration/v2_depth_duration_MTurk/v2_DepthDuration_HTML.html#154,154,1920,969,1920,1080,9-18-2022,12-14-4,82,depth_duration_stimuli/000470_2014-06-09_19-42-40_260595134347_rgbf000094-resize_1/000470_2014-06-09_19-42-40_260595134347_rgbf000094-resize_1-target.png,125,1.831,2.3,5125,112,feet,jsons/VE125_randls_53_rotated.json,926392,1031429,35,Man
82,402854,DepthScenes,duration_manipulation_targetAtFixation,jsons/VE125_randls_53_rotated.json,http://54.235.29.9/FacialAge/BNav_EC2/DepthDuration/v2_depth_duration_MTurk/v2_DepthDuration_HTML.html#154,154,1920,969,1920,1080,9-18-2022,12-14-4,83,depth_duration_stimuli/001571_2014-06-20_17-21-32_260595134347_rgbf000089-resize_1/001571_2014-06-20_17-21-32_260595134347_rgbf000089-resize_1-target.png,125,1.86,3.0,6459,125,feet,jsons/VE125_randls_53_rotated.json,926392,1031429,35,Man
83,402854,DepthScenes,duration_manipulation_targetAtFixation,jsons/VE125_randls_53_rotated.json,http://54.235.29.9/FacialAge/BNav_EC2/DepthDuration/v2_depth_duration_MTurk/v2_DepthDuration_HTML.html#154,154,1920,969,1920,1080,9-18-2022,12-14-4,84,depth_duration_stimuli/002272_2014-06-28_18-53-56_260595134347_rgbf000067-resize_2/002272_2014-06-28_18-53-56_260595134347_rgbf000067-resize_2-target.png,125,1.138,1.7,3155,124,feet,jsons/VE125_randls_53_rotated.json,926392,1031429,35,Man
84,402854,DepthScenes,duration_manipulation_targetAtFixation,jsons/VE125_randls_53_rotated.json,http://54.235.29.9/FacialAge/BNav_EC2/DepthDuration/v2_depth_duration_MTurk/v2_DepthDuration_HTML.html#154,154,1920,969,1920,1080,9-18-2022,12-14-4,85,depth_duration_stimuli/000556_2014-06-09_22-42-56_260595134347_rgbf000214-resize_1/000556_2014-06-09_22-42-56_260595134347_rgbf000214-resize_1-target.png,125,4.8415,7.5,3631,126,feet,jsons/VE125_randls_53_rotated.json,926392,1031429,35,Man
85,402854,DepthScenes,duration_manipulation_targetAtFixation,jsons/VE125_randls_53_rotated.json,http://54.235.29.9/FacialAge/BNav_EC2/DepthDuration/v2_depth_duration_MTurk/v2_DepthDuration_HTML.html#154,154,1920,969,1920,1080,9-18-2022,12-14-4,86,depth_duration_stimuli/001158_2014-06-17_15-32-16_260595134347_rgbf000138-resize_2/001158_2014-06-17_15-32-16_260595134347_rgbf000138-resize_2-target.png,125,4.5315,7.8,4642,128,feet,jsons/VE125_randls_53_rotated.json,926392,1031429,35,Man
86,402854,DepthScenes,duration_manipulation_targetAtFixation,jsons/VE125_randls_53_rotated.json,http://54.235.29.9/FacialAge/BNav_EC2/DepthDuration/v2_depth_duration_MTurk/v2_DepthDuration_HTML.html#154,154,1920,969,1920,1080,9-18-2022,12-14-4,87,depth_duration_stimuli/001100_2014-06-15_17-46-26_260595134347_rgbf000225-resize_2/001100_2014-06-15_17-46-26_260595134347_rgbf000225-resize_2-target.png,125,2.24,4.8,4426,128,feet,jsons/VE125_randls_53_rotated.json,926392,1031429,35,Man
87,402854,DepthScenes,duration_manipulation_targetAtFixation,jsons/VE125_randls_53_rotated.json,http://54.235.29.9/FacialAge/BNav_EC2/DepthDuration/v2_depth_duration_MTurk/v2_DepthDuration_HTML.html#154,154,1920,969,1920,1080,9-18-2022,12-14-4,88,depth_duration_stimuli/002784_2014-06-22_19-26-30_094959634447_rgbf000083-resize_3/002784_2014-06-22_19-26-30_094959634447_rgbf000083-resize_3-target.png,125,1.8046666666667,3.8,2755,124,feet,jsons/VE125_randls_53_rotated.json,926392,1031429,35,Man
88,402854,DepthScenes,duration_manipulation_targetAtFixation,jsons/VE125_randls_53_rotated.json,http://54.235.29.9/FacialAge/BNav_EC2/DepthDuration/v2_depth_duration_MTurk/v2_DepthDuration_HTML.html#154,154,1920,969,1920,1080,9-18-2022,12-14-4,89,depth_duration_stimuli/000854_2014-06-09_19-43-13_260595134347_rgbf000066-resize_0/000854_2014-06-09_19-43-13_260595134347_rgbf000066-resize_0-target.png,125,3.068,3.8,4625,122,feet,jsons/VE125_randls_53_rotated.json,926392,1031429,35,Man
89,402854,DepthScenes,duration_manipulation_targetAtFixation,jsons/VE125_randls_53_rotated.json,http://54.235.29.9/FacialAge/BNav_EC2/DepthDuration/v2_depth_duration_MTurk/v2_DepthDuration_HTML.html#154,154,1920,969,1920,1080,9-18-2022,12-14-4,90,depth_duration_stimuli/000758_2014-06-08_22-05-08_260595134347_rgbf000085-resize_0/000758_2014-06-08_22-05-08_260595134347_rgbf000085-resize_0-target.png,125,3.3810000000000002,4.9,4723,127,feet,jsons/VE125_randls_53_rotated.json,926392,1031429,35,Man
90,402854,DepthScenes,duration_manipulation_targetAtFixation,jsons/VE125_randls_53_rotated.json,http://54.235.29.9/FacialAge/BNav_EC2/DepthDuration/v2_depth_duration_MTurk/v2_DepthDuration_HTML.html#154,154,1920,969,1920,1080,9-18-2022,12-14-4,91,depth_duration_stimuli/001584_2014-06-20_11-07-43_260595134347_rgbf000002-resize_1/001584_2014-06-20_11-07-43_260595134347_rgbf000002-resize_1-target.png,125,3.53,5.0,2364,119,feet,jsons/VE125_randls_53_rotated.json,926392,1031429,35,Man
91,402854,DepthScenes,duration_manipulation_targetAtFixation,jsons/VE125_randls_53_rotated.json,http://54.235.29.9/FacialAge/BNav_EC2/DepthDuration/v2_depth_duration_MTurk/v2_DepthDuration_HTML.html#154,154,1920,969,1920,1080,9-18-2022,12-14-4,92,depth_duration_stimuli/003621_2014-05-23_18-06-08_094959634447_rgbf000101-resize_1/003621_2014-05-23_18-06-08_094959634447_rgbf000101-resize_1-target.png,125,3.9835,5.4,3586,122,feet,jsons/VE125_randls_53_rotated.json,926392,1031429,35,Man
92,402854,DepthScenes,duration_manipulation_targetAtFixation,jsons/VE125_randls_53_rotated.json,http://54.235.29.9/FacialAge/BNav_EC2/DepthDuration/v2_depth_duration_MTurk/v2_DepthDuration_HTML.html#154,154,1920,969,1920,1080,9-18-2022,12-14-4,93,depth_duration_stimuli/002467_2014-06-28_20-38-07_260595134347_rgbf000026-resize_2/002467_2014-06-28_20-38-07_260595134347_rgbf000026-resize_2-target.png,125,4.742,5.6,3555,133,feet,jsons/VE125_randls_53_rotated.json,926392,1031429,35,Man
93,402854,DepthScenes,duration_manipulation_targetAtFixation,jsons/VE125_randls_53_rotated.json,http://54.235.29.9/FacialAge/BNav_EC2/DepthDuration/v2_depth_duration_MTurk/v2_DepthDuration_HTML.html#154,154,1920,969,1920,1080,9-18-2022,12-14-4,94,depth_duration_stimuli/002570_2014-06-24_13-59-54_094959634447_rgbf000059-resize_0/002570_2014-06-24_13-59-54_094959634447_rgbf000059-resize_0-target.png,125,4.037,5.8,2530,124,feet,jsons/VE125_randls_53_rotated.json,926392,1031429,35,Man
94,402854,DepthScenes,duration_manipulation_targetAtFixation,jsons/VE125_randls_53_rotated.json,http://54.235.29.9/FacialAge/BNav_EC2/DepthDuration/v2_depth_duration_MTurk/v2_DepthDuration_HTML.html#154,154,1920,969,1920,1080,9-18-2022,12-14-4,95,depth_duration_stimuli/001450_2014-06-19_17-02-03_260595134347_rgbf000203-resize_4/001450_2014-06-19_17-02-03_260595134347_rgbf000203-resize_4-target.png,125,4.0106666666667,5.0,13539,125,feet,jsons/VE125_randls_53_rotated.json,926392,1031429,35,Man
95,402854,DepthScenes,duration_manipulation_targetAtFixation,jsons/VE125_randls_53_rotated.json,http://54.235.29.9/FacialAge/BNav_EC2/DepthDuration/v2_depth_duration_MTurk/v2_DepthDuration_HTML.html#154,154,1920,969,1920,1080,9-18-2022,12-14-4,96,depth_duration_stimuli/001449_2014-06-19_17-01-27_260595134347_rgbf000116-resize_2/001449_2014-06-19_17-01-27_260595134347_rgbf000116-resize_2-target.png,125,3.452,4.5,2778,124,feet,jsons/VE125_randls_53_rotated.json,926392,1031429,35,Man
96,402854,DepthScenes,duration_manipulation_targetAtFixation,jsons/VE125_randls_53_rotated.json,http://54.235.29.9/FacialAge/BNav_EC2/DepthDuration/v2_depth_duration_MTurk/v2_DepthDuration_HTML.html#154,154,1920,969,1920,1080,9-18-2022,12-14-4,97,depth_duration_stimuli/002136_2014-06-25_21-18-03_260595134347_rgbf000109-resize_3/002136_2014-06-25_21-18-03_260595134347_rgbf000109-resize_3-target.png,125,1.9569999999999999,4.2,5300,112,feet,jsons/VE125_randls_53_rotated.json,926392,1031429,35,Man
97,402854,DepthScenes,duration_manipulation_targetAtFixation,jsons/VE125_randls_53_rotated.json,http://54.235.29.9/FacialAge/BNav_EC2/DepthDuration/v2_depth_duration_MTurk/v2_DepthDuration_HTML.html#154,154,1920,969,1920,1080,9-18-2022,12-14-4,98,depth_duration_stimuli/002964_2014-06-08_17-46-11_094959634447_rgbf000091-resize_4/002964_2014-06-08_17-46-11_094959634447_rgbf000091-resize_4-target.png,125,1.6909999999999998,4.2,3658,124,feet,jsons/VE125_randls_53_rotated.json,926392,1031429,35,Man
98,402854,DepthScenes,duration_manipulation_targetAtFixation,jsons/VE125_randls_53_rotated.json,http://54.235.29.9/FacialAge/BNav_EC2/DepthDuration/v2_depth_duration_MTurk/v2_DepthDuration_HTML.html#154,154,1920,969,1920,1080,9-18-2022,12-14-4,99,depth_duration_stimuli/001222_2014-06-17_16-24-06_260595134347_rgbf000073-resize_0/001222_2014-06-17_16-24-06_260595134347_rgbf000073-resize-original.jpg,125,1.4385,0.0,3146,128,feet,jsons/VE125_randls_53_rotated.json,926392,1031429,35,Man
99,402854,DepthScenes,duration_manipulation_targetAtFixation,jsons/VE125_randls_53_rotated.json,http://54.235.29.9/FacialAge/BNav_EC2/DepthDuration/v2_depth_duration_MTurk/v2_DepthDuration_HTML.html#154,154,1920,969,1920,1080,9-18-2022,12-14-4,100,depth_duration_stimuli/000780_2014-06-08_22-28-29_260595134347_rgbf000126-resize_1/000780_2014-06-08_22-28-29_260595134347_rgbf000126-resize_1-target.png,125,3.3825,6.0,2793,126,feet,jsons/VE125_randls_53_rotated.json,926392,1031429,35,Man
100,402854,DepthScenes,duration_manipulation_targetAtFixation,jsons/VE125_randls_53_rotated.json,http://54.235.29.9/FacialAge/BNav_EC2/DepthDuration/v2_depth_duration_MTurk/v2_DepthDuration_HTML.html#154,154,1920,969,1920,1080,9-18-2022,12-14-4,101,depth_duration_stimuli/002445_2014-06-28_20-32-16_260595134347_rgbf000029-resize_4/002445_2014-06-28_20-32-16_260595134347_rgbf000029-resize_4-target.png,125,2.5315,5.8,3472,128,feet,jsons/VE125_randls_53_rotated.json,926392,1031429,35,Man
101,402854,DepthScenes,duration_manipulation_targetAtFixation,jsons/VE125_randls_53_rotated.json,http://54.235.29.9/FacialAge/BNav_EC2/DepthDuration/v2_depth_duration_MTurk/v2_DepthDuration_HTML.html#154,154,1920,969,1920,1080,9-18-2022,12-14-4,102,depth_duration_stimuli/002344_2014-06-28_20-06-29_260595134347_rgbf000030-resize_1/002344_2014-06-28_20-06-29_260595134347_rgbf000030-resize_1-target.png,125,1.5795,4.0,2712,123,feet,jsons/VE125_randls_53_rotated.json,926392,1031429,35,Man
102,402854,DepthScenes,duration_manipulation_targetAtFixation,jsons/VE125_randls_53_rotated.json,http://54.235.29.9/FacialAge/BNav_EC2/DepthDuration/v2_depth_duration_MTurk/v2_DepthDuration_HTML.html#154,154,1920,969,1920,1080,9-18-2022,12-14-4,103,depth_duration_stimuli/002725_2014-06-22_11-47-51_094959634447_rgbf000070-resize_1/002725_2014-06-22_11-47-51_094959634447_rgbf000070-resize_1-target.png,125,2.195,5.0,2557,124,feet,jsons/VE125_randls_53_rotated.json,926392,1031429,35,Man
103,402854,DepthScenes,duration_manipulation_targetAtFixation,jsons/VE125_randls_53_rotated.json,http://54.235.29.9/FacialAge/BNav_EC2/DepthDuration/v2_depth_duration_MTurk/v2_DepthDuration_HTML.html#154,154,1920,969,1920,1080,9-18-2022,12-14-4,104,depth_duration_stimuli/002414_2014-06-28_20-24-58_260595134347_rgbf000067-resize_4/002414_2014-06-28_20-24-58_260595134347_rgbf000067-resize_4-target.png,125,4.363,7.0,2324,127,feet,jsons/VE125_randls_53_rotated.json,926392,1031429,35,Man
104,402854,DepthScenes,duration_manipulation_targetAtFixation,jsons/VE125_randls_53_rotated.json,http://54.235.29.9/FacialAge/BNav_EC2/DepthDuration/v2_depth_duration_MTurk/v2_DepthDuration_HTML.html#154,154,1920,969,1920,1080,9-18-2022,12-14-4,105,depth_duration_stimuli/000773_2014-06-08_22-24-54_260595134347_rgbf000093-resize_1/000773_2014-06-08_22-24-54_260595134347_rgbf000093-resize_1-target.png,125,4.973,7.2,2691,124,feet,jsons/VE125_randls_53_rotated.json,926392,1031429,35,Man
105,402854,DepthScenes,duration_manipulation_targetAtFixation,jsons/VE125_randls_53_rotated.json,http://54.235.29.9/FacialAge/BNav_EC2/DepthDuration/v2_depth_duration_MTurk/v2_DepthDuration_HTML.html#154,154,1920,969,1920,1080,9-18-2022,12-14-4,106,depth_duration_stimuli/002805_2014-06-22_19-54-03_094959634447_rgbf000079-resize_1/002805_2014-06-22_19-54-03_094959634447_rgbf000079-resize_1-target.png,125,3.1439999999999997,6.6,3835,132,feet,jsons/VE125_randls_53_rotated.json,926392,1031429,35,Man
106,402854,DepthScenes,duration_manipulation_targetAtFixation,jsons/VE125_randls_53_rotated.json,http://54.235.29.9/FacialAge/BNav_EC2/DepthDuration/v2_depth_duration_MTurk/v2_DepthDuration_HTML.html#154,154,1920,969,1920,1080,9-18-2022,12-14-4,107,depth_duration_stimuli/000906_2014-06-08_13-35-43_260595134347_rgbf000155-resize_1/000906_2014-06-08_13-35-43_260595134347_rgbf000155-resize_1-target.png,125,2.8489999999999998,7.0,3201,126,feet,jsons/VE125_randls_53_rotated.json,926392,1031429,35,Man
107,402854,DepthScenes,duration_manipulation_targetAtFixation,jsons/VE125_randls_53_rotated.json,http://54.235.29.9/FacialAge/BNav_EC2/DepthDuration/v2_depth_duration_MTurk/v2_DepthDuration_HTML.html#154,154,1920,969,1920,1080,9-18-2022,12-14-4,108,depth_duration_stimuli/000409_2014-06-04_19-23-33_260595134347_rgbf000067-resize_0/000409_2014-06-04_19-23-33_260595134347_rgbf000067-resize_0-target.png,125,3.7335,6.1,3219,125,feet,jsons/VE125_randls_53_rotated.json,926392,1031429,35,Man
108,402854,DepthScenes,duration_manipulation_targetAtFixation,jsons/VE125_randls_53_rotated.json,http://54.235.29.9/FacialAge/BNav_EC2/DepthDuration/v2_depth_duration_MTurk/v2_DepthDuration_HTML.html#154,154,1920,969,1920,1080,9-18-2022,12-14-4,109,depth_duration_stimuli/002663_2014-06-13_15-50-26_094959634447_rgbf000075-resize_1/002663_2014-06-13_15-50-26_094959634447_rgbf000075-resize_1-target.png,125,4.7495,7.0,2522,124,feet,jsons/VE125_randls_53_rotated.json,926392,1031429,35,Man
109,402854,DepthScenes,duration_manipulation_targetAtFixation,jsons/VE125_randls_53_rotated.json,http://54.235.29.9/FacialAge/BNav_EC2/DepthDuration/v2_depth_duration_MTurk/v2_DepthDuration_HTML.html#154,154,1920,969,1920,1080,9-18-2022,12-14-4,110,depth_duration_stimuli/003423_2014-05-21_10-23-26_094959634447_rgbf002665-resize_2/003423_2014-05-21_10-23-26_094959634447_rgbf002665-resize_2-target.png,125,3.2575,6.0,2626,124,feet,jsons/VE125_randls_53_rotated.json,926392,1031429,35,Man
110,402854,DepthScenes,duration_manipulation_targetAtFixation,jsons/VE125_randls_53_rotated.json,http://54.235.29.9/FacialAge/BNav_EC2/DepthDuration/v2_depth_duration_MTurk/v2_DepthDuration_HTML.html#154,154,1920,969,1920,1080,9-18-2022,12-14-4,111,depth_duration_stimuli/002905_2014-06-03_18-04-43_094959634447_rgbf000151-resize_2/002905_2014-06-03_18-04-43_094959634447_rgbf000151-resize_2-target.png,125,2.0295,6.8,8534,125,feet,jsons/VE125_randls_53_rotated.json,926392,1031429,35,Man
111,402854,DepthScenes,duration_manipulation_targetAtFixation,jsons/VE125_randls_53_rotated.json,http://54.235.29.9/FacialAge/BNav_EC2/DepthDuration/v2_depth_duration_MTurk/v2_DepthDuration_HTML.html#154,154,1920,969,1920,1080,9-18-2022,12-14-4,112,depth_duration_stimuli/002639_2014-06-24_14-51-37_094959634447_rgbf000074-resize_4/002639_2014-06-24_14-51-37_094959634447_rgbf000074-resize_4-target.png,125,4.0375,6.0,2201,125,feet,jsons/VE125_randls_53_rotated.json,926392,1031429,35,Man
112,402854,DepthScenes,duration_manipulation_targetAtFixation,jsons/VE125_randls_53_rotated.json,http://54.235.29.9/FacialAge/BNav_EC2/DepthDuration/v2_depth_duration_MTurk/v2_DepthDuration_HTML.html#154,154,1920,969,1920,1080,9-18-2022,12-14-4,113,depth_duration_stimuli/003292_2014-05-14_21-53-49_094959634447_rgbf000100-resize_2/003292_2014-05-14_21-53-49_094959634447_rgbf000100-resize_2-target.png,125,3.4815,5.5,3851,126,feet,jsons/VE125_randls_53_rotated.json,926392,1031429,35,Man
113,402854,DepthScenes,duration_manipulation_targetAtFixation,jsons/VE125_randls_53_rotated.json,http://54.235.29.9/FacialAge/BNav_EC2/DepthDuration/v2_depth_duration_MTurk/v2_DepthDuration_HTML.html#154,154,1920,969,1920,1080,9-18-2022,12-14-4,114,depth_duration_stimuli/000943_2014-06-09_19-31-07_260595134347_rgbf000128-resize_1/000943_2014-06-09_19-31-07_260595134347_rgbf000128-resize_1-target.png,125,1.9765,5.0,2043,129,feet,jsons/VE125_randls_53_rotated.json,926392,1031429,35,Man
114,402854,DepthScenes,duration_manipulation_targetAtFixation,jsons/VE125_randls_53_rotated.json,http://54.235.29.9/FacialAge/BNav_EC2/DepthDuration/v2_depth_duration_MTurk/v2_DepthDuration_HTML.html#154,154,1920,969,1920,1080,9-18-2022,12-14-4,115,depth_duration_stimuli/003070_2014-06-15_14-58-27_094959634447_rgbf000150-resize_3/003070_2014-06-15_14-58-27_094959634447_rgbf000150-resize_3-target.png,125,2.9415,7.0,3322,114,feet,jsons/VE125_randls_53_rotated.json,926392,1031429,35,Man
115,402854,DepthScenes,duration_manipulation_targetAtFixation,jsons/VE125_randls_53_rotated.json,http://54.235.29.9/FacialAge/BNav_EC2/DepthDuration/v2_depth_duration_MTurk/v2_DepthDuration_HTML.html#154,154,1920,969,1920,1080,9-18-2022,12-14-4,116,depth_duration_stimuli/002750_2014-06-22_19-08-03_094959634447_rgbf000094-resize_4/002750_2014-06-22_19-08-03_094959634447_rgbf000094-resize_4-target.png,125,2.354,5.0,2659,125,feet,jsons/VE125_randls_53_rotated.json,926392,1031429,35,Man
116,402854,DepthScenes,duration_manipulation_targetAtFixation,jsons/VE125_randls_53_rotated.json,http://54.235.29.9/FacialAge/BNav_EC2/DepthDuration/v2_depth_duration_MTurk/v2_DepthDuration_HTML.html#154,154,1920,969,1920,1080,9-18-2022,12-14-4,117,depth_duration_stimuli/002549_2014-06-24_13-41-39_094959634447_rgbf000022-resize_3/002549_2014-06-24_13-41-39_094959634447_rgbf000022-resize_3-target.png,125,1.476,4.5,2722,124,feet,jsons/VE125_randls_53_rotated.json,926392,1031429,35,Man
117,402854,DepthScenes,duration_manipulation_targetAtFixation,jsons/VE125_randls_53_rotated.json,http://54.235.29.9/FacialAge/BNav_EC2/DepthDuration/v2_depth_duration_MTurk/v2_DepthDuration_HTML.html#154,154,1920,969,1920,1080,9-18-2022,12-14-4,118,depth_duration_stimuli/003010_2014-06-15_12-54-35_094959634447_rgbf000112-resize_0/003010_2014-06-15_12-54-35_094959634447_rgbf000112-resize_0-target.png,125,3.1185,6.8,3528,131,feet,jsons/VE125_randls_53_rotated.json,926392,1031429,35,Man
118,402854,DepthScenes,duration_manipulation_targetAtFixation,jsons/VE125_randls_53_rotated.json,http://54.235.29.9/FacialAge/BNav_EC2/DepthDuration/v2_depth_duration_MTurk/v2_DepthDuration_HTML.html#154,154,1920,969,1920,1080,9-18-2022,12-14-4,119,depth_duration_stimuli/001810_2014-06-26_20-51-35_260595134347_rgbf000040-resize_3/001810_2014-06-26_20-51-35_260595134347_rgbf000040-resize_3-target.png,125,2.2525,5.0,3267,140,feet,jsons/VE125_randls_53_rotated.json,926392,1031429,35,Man
119,402854,DepthScenes,duration_manipulation_targetAtFixation,jsons/VE125_randls_53_rotated.json,http://54.235.29.9/FacialAge/BNav_EC2/DepthDuration/v2_depth_duration_MTurk/v2_DepthDuration_HTML.html#154,154,1920,969,1920,1080,9-18-2022,12-14-4,120,depth_duration_stimuli/000787_2014-06-08_22-33-53_260595134347_rgbf000175-resize_1/000787_2014-06-08_22-33-53_260595134347_rgbf000175-resize-original.jpg,125,4.784,0.0,2756,110,feet,jsons/VE125_randls_53_rotated.json,926392,1031429,35,Man
120,402854,DepthScenes,duration_manipulation_targetAtFixation,jsons/VE125_randls_53_rotated.json,http://54.235.29.9/FacialAge/BNav_EC2/DepthDuration/v2_depth_duration_MTurk/v2_DepthDuration_HTML.html#154,154,1920,969,1920,1080,9-18-2022,12-14-4,121,depth_duration_stimuli/001392_2014-06-19_16-07-59_260595134347_rgbf000046-resize_1/001392_2014-06-19_16-07-59_260595134347_rgbf000046-resize_1-target.png,125,4.135,7.0,1984,124,feet,jsons/VE125_randls_53_rotated.json,926392,1031429,35,Man
121,402854,DepthScenes,duration_manipulation_targetAtFixation,jsons/VE125_randls_53_rotated.json,http://54.235.29.9/FacialAge/BNav_EC2/DepthDuration/v2_depth_duration_MTurk/v2_DepthDuration_HTML.html#154,154,1920,969,1920,1080,9-18-2022,12-14-4,122,depth_duration_stimuli/001570_2014-06-20_17-21-09_260595134347_rgbf000135-resize_4/001570_2014-06-20_17-21-09_260595134347_rgbf000135-resize_4-target.png,125,4.467,7.8,2967,123,feet,jsons/VE125_randls_53_rotated.json,926392,1031429,35,Man
122,402854,DepthScenes,duration_manipulation_targetAtFixation,jsons/VE125_randls_53_rotated.json,http://54.235.29.9/FacialAge/BNav_EC2/DepthDuration/v2_depth_duration_MTurk/v2_DepthDuration_HTML.html#154,154,1920,969,1920,1080,9-18-2022,12-14-4,123,depth_duration_stimuli/000483_2014-06-09_20-41-45_260595134347_rgbf000116-resize_4/000483_2014-06-09_20-41-45_260595134347_rgbf000116-resize_4-target.png,125,1.337,4.0,2754,126,feet,jsons/VE125_randls_53_rotated.json,926392,1031429,35,Man
123,402854,DepthScenes,duration_manipulation_targetAtFixation,jsons/VE125_randls_53_rotated.json,http://54.235.29.9/FacialAge/BNav_EC2/DepthDuration/v2_depth_duration_MTurk/v2_DepthDuration_HTML.html#154,154,1920,969,1920,1080,9-18-2022,12-14-4,124,depth_duration_stimuli/000469_2014-06-09_19-42-10_260595134347_rgbf000081-resize_1/000469_2014-06-09_19-42-10_260595134347_rgbf000081-resize_1-target.png,125,1.652,4.5,3451,125,feet,jsons/VE125_randls_53_rotated.json,926392,1031429,35,Man
124,402854,DepthScenes,duration_manipulation_targetAtFixation,jsons/VE125_randls_53_rotated.json,http://54.235.29.9/FacialAge/BNav_EC2/DepthDuration/v2_depth_duration_MTurk/v2_DepthDuration_HTML.html#154,154,1920,969,1920,1080,9-18-2022,12-14-4,125,depth_duration_stimuli/000137_2014-05-20_17-04-49_260595134347_rgbf000120-resize_1/000137_2014-05-20_17-04-49_260595134347_rgbf000120-resize_1-target.png,125,3.786,7.8,4129,126,feet,jsons/VE125_randls_53_rotated.json,926392,1031429,35,Man
125,402854,DepthScenes,duration_manipulation_targetAtFixation,jsons/VE125_randls_53_rotated.json,http://54.235.29.9/FacialAge/BNav_EC2/DepthDuration/v2_depth_duration_MTurk/v2_DepthDuration_HTML.html#154,154,1920,969,1920,1080,9-18-2022,12-14-4,126,depth_duration_stimuli/000736_2014-06-08_18-24-15_260595134347_rgbf000206-resize_3/000736_2014-06-08_18-24-15_260595134347_rgbf000206-resize_3-target.png,125,3.515,6.5,2907,125,feet,jsons/VE125_randls_53_rotated.json,926392,1031429,35,Man
126,402854,DepthScenes,duration_manipulation_targetAtFixation,jsons/VE125_randls_53_rotated.json,http://54.235.29.9/FacialAge/BNav_EC2/DepthDuration/v2_depth_duration_MTurk/v2_DepthDuration_HTML.html#154,154,1920,969,1920,1080,9-18-2022,12-14-4,127,depth_duration_stimuli/002568_2014-06-24_13-59-21_094959634447_rgbf000062-resize_4/002568_2014-06-24_13-59-21_094959634447_rgbf000062-resize_4-target.png,125,3.015,7.2,4108,134,feet,jsons/VE125_randls_53_rotated.json,926392,1031429,35,Man
127,402854,DepthScenes,duration_manipulation_targetAtFixation,jsons/VE125_randls_53_rotated.json,http://54.235.29.9/FacialAge/BNav_EC2/DepthDuration/v2_depth_duration_MTurk/v2_DepthDuration_HTML.html#154,154,1920,969,1920,1080,9-18-2022,12-14-4,128,depth_duration_stimuli/003492_2014-05-21_15-50-55_094959634447_rgbf000828-resize_1/003492_2014-05-21_15-50-55_094959634447_rgbf000828-resize_1-target.png,125,4.06875,8.2,3601,123,feet,jsons/VE125_randls_53_rotated.json,926392,1031429,35,Man
128,402854,DepthScenes,duration_manipulation_targetAtFixation,jsons/VE125_randls_53_rotated.json,http://54.235.29.9/FacialAge/BNav_EC2/DepthDuration/v2_depth_duration_MTurk/v2_DepthDuration_HTML.html#154,154,1920,969,1920,1080,9-18-2022,12-14-4,129,depth_duration_stimuli/001235_2014-06-17_16-37-36_260595134347_rgbf000084-resize_4/001235_2014-06-17_16-37-36_260595134347_rgbf000084-resize_4-target.png,125,3.6605,7.2,3110,119,feet,jsons/VE125_randls_53_rotated.json,926392,1031429,35,Man
129,402854,DepthScenes,duration_manipulation_targetAtFixation,jsons/VE125_randls_53_rotated.json,http://54.235.29.9/FacialAge/BNav_EC2/DepthDuration/v2_depth_duration_MTurk/v2_DepthDuration_HTML.html#154,154,1920,969,1920,1080,9-18-2022,12-14-4,130,depth_duration_stimuli/000788_2014-06-08_22-34-36_260595134347_rgbf000131-resize_1/000788_2014-06-08_22-34-36_260595134347_rgbf000131-resize_1-target.png,125,3.359,7.0,2349,126,feet,jsons/VE125_randls_53_rotated.json,926392,1031429,35,Man
130,402854,DepthScenes,duration_manipulation_targetAtFixation,jsons/VE125_randls_53_rotated.json,http://54.235.29.9/FacialAge/BNav_EC2/DepthDuration/v2_depth_duration_MTurk/v2_DepthDuration_HTML.html#154,154,1920,969,1920,1080,9-18-2022,12-14-4,131,depth_duration_stimuli/000866_2014-06-09_20-45-42_260595134347_rgbf000139-resize_1/000866_2014-06-09_20-45-42_260595134347_rgbf000139-resize_1-target.png,125,3.2155,2.0,3252,124,feet,jsons/VE125_randls_53_rotated.json,926392,1031429,35,Man
131,402854,DepthScenes,duration_manipulation_targetAtFixation,jsons/VE125_randls_53_rotated.json,http://54.235.29.9/FacialAge/BNav_EC2/DepthDuration/v2_depth_duration_MTurk/v2_DepthDuration_HTML.html#154,154,1920,969,1920,1080,9-18-2022,12-14-4,132,depth_duration_stimuli/002989_2014-06-15_12-25-03_094959634447_rgbf000150-resize_3/002989_2014-06-15_12-25-03_094959634447_rgbf000150-resize_3-target.png,125,4.1975,8.8,3532,137,feet,jsons/VE125_randls_53_rotated.json,926392,1031429,35,Man
132,402854,DepthScenes,duration_manipulation_targetAtFixation,jsons/VE125_randls_53_rotated.json,http://54.235.29.9/FacialAge/BNav_EC2/DepthDuration/v2_depth_duration_MTurk/v2_DepthDuration_HTML.html#154,154,1920,969,1920,1080,9-18-2022,12-14-4,133,depth_duration_stimuli/002660_2014-06-13_15-44-18_094959634447_rgbf001878-resize_2/002660_2014-06-13_15-44-18_094959634447_rgbf001878-resize_2-target.png,125,3.576,7.0,2595,128,feet,jsons/VE125_randls_53_rotated.json,926392,1031429,35,Man
133,402854,DepthScenes,duration_manipulation_targetAtFixation,jsons/VE125_randls_53_rotated.json,http://54.235.29.9/FacialAge/BNav_EC2/DepthDuration/v2_depth_duration_MTurk/v2_DepthDuration_HTML.html#154,154,1920,969,1920,1080,9-18-2022,12-14-4,134,depth_duration_stimuli/002153_2014-06-25_21-27-18_260595134347_rgbf000038-resize_5/002153_2014-06-25_21-27-18_260595134347_rgbf000038-resize_5-target.png,125,2.505,5.9,3644,128,feet,jsons/VE125_randls_53_rotated.json,926392,1031429,35,Man
134,402854,DepthScenes,duration_manipulation_targetAtFixation,jsons/VE125_randls_53_rotated.json,http://54.235.29.9/FacialAge/BNav_EC2/DepthDuration/v2_depth_duration_MTurk/v2_DepthDuration_HTML.html#154,154,1920,969,1920,1080,9-18-2022,12-14-4,135,depth_duration_stimuli/000375_2014-06-08_11-17-29_260595134347_rgbf000133-resize_2/000375_2014-06-08_11-17-29_260595134347_rgbf000133-resize-original.jpg,125,4.718,0.0,2676,125,feet,jsons/VE125_randls_53_rotated.json,926392,1031429,35,Man
135,402854,DepthScenes,duration_manipulation_targetAtFixation,jsons/VE125_randls_53_rotated.json,http://54.235.29.9/FacialAge/BNav_EC2/DepthDuration/v2_depth_duration_MTurk/v2_DepthDuration_HTML.html#154,154,1920,969,1920,1080,9-18-2022,12-14-4,136,depth_duration_stimuli/003338_2014-05-20_11-01-23_094959634447_rgbf000051-resize_6/003338_2014-05-20_11-01-23_094959634447_rgbf000051-resize_6-target.png,125,1.693,4.0,3969,127,feet,jsons/VE125_randls_53_rotated.json,926392,1031429,35,Man
136,402854,DepthScenes,duration_manipulation_targetAtFixation,jsons/VE125_randls_53_rotated.json,http://54.235.29.9/FacialAge/BNav_EC2/DepthDuration/v2_depth_duration_MTurk/v2_DepthDuration_HTML.html#154,154,1920,969,1920,1080,9-18-2022,12-14-4,137,depth_duration_stimuli/002509_2014-06-24_13-19-22_094959634447_rgbf000077-resize_0/002509_2014-06-24_13-19-22_094959634447_rgbf000077-resize_0-target.png,125,1.3065,4.0,1722,126,feet,jsons/VE125_randls_53_rotated.json,926392,1031429,35,Man
137,402854,DepthScenes,duration_manipulation_targetAtFixation,jsons/VE125_randls_53_rotated.json,http://54.235.29.9/FacialAge/BNav_EC2/DepthDuration/v2_depth_duration_MTurk/v2_DepthDuration_HTML.html#154,154,1920,969,1920,1080,9-18-2022,12-14-4,138,depth_duration_stimuli/003228_2014-05-14_13-42-35_094959634447_rgbf000101-resize_1/003228_2014-05-14_13-42-35_094959634447_rgbf000101-resize_1-target.png,125,1.9680000000000002,4.0,3899,116,feet,jsons/VE125_randls_53_rotated.json,926392,1031429,35,Man
138,402854,DepthScenes,duration_manipulation_targetAtFixation,jsons/VE125_randls_53_rotated.json,http://54.235.29.9/FacialAge/BNav_EC2/DepthDuration/v2_depth_duration_MTurk/v2_DepthDuration_HTML.html#154,154,1920,969,1920,1080,9-18-2022,12-14-4,139,depth_duration_stimuli/002600_2014-06-24_14-27-04_094959634447_rgbf000074-resize_2/002600_2014-06-24_14-27-04_094959634447_rgbf000074-resize_2-target.png,125,2.7575,6.1,4473,125,feet,jsons/VE125_randls_53_rotated.json,926392,1031429,35,Man
139,402854,DepthScenes,duration_manipulation_targetAtFixation,jsons/VE125_randls_53_rotated.json,http://54.235.29.9/FacialAge/BNav_EC2/DepthDuration/v2_depth_duration_MTurk/v2_DepthDuration_HTML.html#154,154,1920,969,1920,1080,9-18-2022,12-14-4,140,depth_duration_stimuli/001032_2014-06-08_13-23-17_260595134347_rgbf000021-resize_3/001032_2014-06-08_13-23-17_260595134347_rgbf000021-resize_3-target.png,125,3.2725,6.4,3322,124,feet,jsons/VE125_randls_53_rotated.json,926392,1031429,35,Man
140,402854,DepthScenes,duration_manipulation_targetAtFixation,jsons/VE125_randls_53_rotated.json,http://54.235.29.9/FacialAge/BNav_EC2/DepthDuration/v2_depth_duration_MTurk/v2_DepthDuration_HTML.html#154,154,1920,969,1920,1080,9-18-2022,12-14-4,141,depth_duration_stimuli/001059_2014-06-08_21-53-27_260595134347_rgbf000061-resize_4/001059_2014-06-08_21-53-27_260595134347_rgbf000061-resize_4-target.png,125,2.4185,6.4,2945,123,feet,jsons/VE125_randls_53_rotated.json,926392,1031429,35,Man
141,402854,DepthScenes,duration_manipulation_targetAtFixation,jsons/VE125_randls_53_rotated.json,http://54.235.29.9/FacialAge/BNav_EC2/DepthDuration/v2_depth_duration_MTurk/v2_DepthDuration_HTML.html#154,154,1920,969,1920,1080,9-18-2022,12-14-4,142,depth_duration_stimuli/001136_2014-06-17_15-19-41_260595134347_rgbf000076-resize_3/001136_2014-06-17_15-19-41_260595134347_rgbf000076-resize_3-target.png,125,1.8655,6.5,3684,125,feet,jsons/VE125_randls_53_rotated.json,926392,1031429,35,Man
142,402854,DepthScenes,duration_manipulation_targetAtFixation,jsons/VE125_randls_53_rotated.json,http://54.235.29.9/FacialAge/BNav_EC2/DepthDuration/v2_depth_duration_MTurk/v2_DepthDuration_HTML.html#154,154,1920,969,1920,1080,9-18-2022,12-14-4,143,depth_duration_stimuli/001164_2014-06-17_15-35-46_260595134347_rgbf000085-resize_3/001164_2014-06-17_15-35-46_260595134347_rgbf000085-resize_3-target.png,125,2.354,6.6,2283,132,feet,jsons/VE125_randls_53_rotated.json,926392,1031429,35,Man
143,402854,DepthScenes,duration_manipulation_targetAtFixation,jsons/VE125_randls_53_rotated.json,http://54.235.29.9/FacialAge/BNav_EC2/DepthDuration/v2_depth_duration_MTurk/v2_DepthDuration_HTML.html#154,154,1920,969,1920,1080,9-18-2022,12-14-4,144,depth_duration_stimuli/003048_2014-06-15_13-49-43_094959634447_rgbf000150-resize_1/003048_2014-06-15_13-49-43_094959634447_rgbf000150-resize_1-target.png,125,4.0035,8.0,3069,127,feet,jsons/VE125_randls_53_rotated.json,926392,1031429,35,Man
144,402854,DepthScenes,duration_manipulation_targetAtFixation,jsons/VE125_randls_53_rotated.json,http://54.235.29.9/FacialAge/BNav_EC2/DepthDuration/v2_depth_duration_MTurk/v2_DepthDuration_HTML.html#154,154,1920,969,1920,1080,9-18-2022,12-14-4,145,depth_duration_stimuli/002043_2014-06-24_20-29-38_260595134347_rgbf000039-resize_4/002043_2014-06-24_20-29-38_260595134347_rgbf000039-resize_4-target.png,125,2.8435,6.5,3292,124,feet,jsons/VE125_randls_53_rotated.json,926392,1031429,35,Man
145,402854,DepthScenes,duration_manipulation_targetAtFixation,jsons/VE125_randls_53_rotated.json,http://54.235.29.9/FacialAge/BNav_EC2/DepthDuration/v2_depth_duration_MTurk/v2_DepthDuration_HTML.html#154,154,1920,969,1920,1080,9-18-2022,12-14-4,146,depth_duration_stimuli/000927_2014-06-09_16-32-30_260595134347_rgbf000123-resize_3/000927_2014-06-09_16-32-30_260595134347_rgbf000123-resize_3-target.png,125,2.6785,6.6,2376,128,feet,jsons/VE125_randls_53_rotated.json,926392,1031429,35,Man
146,402854,DepthScenes,duration_manipulation_targetAtFixation,jsons/VE125_randls_53_rotated.json,http://54.235.29.9/FacialAge/BNav_EC2/DepthDuration/v2_depth_duration_MTurk/v2_DepthDuration_HTML.html#154,154,1920,969,1920,1080,9-18-2022,12-14-4,147,depth_duration_stimuli/001110_2014-06-15_17-25-28_260595134347_rgbf000150-resize_1/001110_2014-06-15_17-25-28_260595134347_rgbf000150-resize_1-target.png,125,1.7115,6.6,2355,124,feet,jsons/VE125_randls_53_rotated.json,926392,1031429,35,Man
147,402854,DepthScenes,duration_manipulation_targetAtFixation,jsons/VE125_randls_53_rotated.json,http://54.235.29.9/FacialAge/BNav_EC2/DepthDuration/v2_depth_duration_MTurk/v2_DepthDuration_HTML.html#154,154,1920,969,1920,1080,9-18-2022,12-14-4,148,depth_duration_stimuli/002875_2014-06-01_15-19-00_094959634447_rgbf000151-resize_1/002875_2014-06-01_15-19-00_094959634447_rgbf000151-resize_1-target.png,125,1.9675,6.6,2132,128,feet,jsons/VE125_randls_53_rotated.json,926392,1031429,35,Man
148,402854,DepthScenes,duration_manipulation_targetAtFixation,jsons/VE125_randls_53_rotated.json,http://54.235.29.9/FacialAge/BNav_EC2/DepthDuration/v2_depth_duration_MTurk/v2_DepthDuration_HTML.html#154,154,1920,969,1920,1080,9-18-2022,12-14-4,149,depth_duration_stimuli/001011_2014-06-08_23-18-54_260595134347_rgbf000044-resize_4/001011_2014-06-08_23-18-54_260595134347_rgbf000044-resize_4-target.png,125,2.4730000000000003,6.6,2598,123,feet,jsons/VE125_randls_53_rotated.json,926392,1031429,35,Man
149,402854,DepthScenes,duration_manipulation_targetAtFixation,jsons/VE125_randls_53_rotated.json,http://54.235.29.9/FacialAge/BNav_EC2/DepthDuration/v2_depth_duration_MTurk/v2_DepthDuration_HTML.html#154,154,1920,969,1920,1080,9-18-2022,12-14-4,150,depth_duration_stimuli/001132_2014-06-17_14-48-54_260595134347_rgbf000100-resize_2/001132_2014-06-17_14-48-54_260595134347_rgbf000100-resize_2-target.png,125,3.753,8.3,2623,126,feet,jsons/VE125_randls_53_rotated.json,926392,1031429,35,Man
150,402854,DepthScenes,duration_manipulation_targetAtFixation,jsons/VE125_randls_53_rotated.json,http://54.235.29.9/FacialAge/BNav_EC2/DepthDuration/v2_depth_duration_MTurk/v2_DepthDuration_HTML.html#154,154,1920,969,1920,1080,9-18-2022,12-14-4,151,depth_duration_stimuli/001133_2014-06-17_14-49-16_260595134347_rgbf000100-resize_0/001133_2014-06-17_14-49-16_260595134347_rgbf000100-resize_0-target.png,125,4.2115,7.3,5329,124,feet,jsons/VE125_randls_53_rotated.json,926392,1031429,35,Man
151,402854,DepthScenes,duration_manipulation_targetAtFixation,jsons/VE125_randls_53_rotated.json,http://54.235.29.9/FacialAge/BNav_EC2/DepthDuration/v2_depth_duration_MTurk/v2_DepthDuration_HTML.html#154,154,1920,969,1920,1080,9-18-2022,12-14-4,152,depth_duration_stimuli/000569_2014-06-09_22-51-47_260595134347_rgbf000141-resize_3/000569_2014-06-09_22-51-47_260595134347_rgbf000141-resize-original.jpg,125,4.512,0.0,2449,124,feet,jsons/VE125_randls_53_rotated.json,926392,1031429,35,Man
152,402854,DepthScenes,duration_manipulation_targetAtFixation,jsons/VE125_randls_53_rotated.json,http://54.235.29.9/FacialAge/BNav_EC2/DepthDuration/v2_depth_duration_MTurk/v2_DepthDuration_HTML.html#154,154,1920,969,1920,1080,9-18-2022,12-14-4,153,depth_duration_stimuli/000691_2014-06-08_13-08-50_260595134347_rgbf000132-resize_3/000691_2014-06-08_13-08-50_260595134347_rgbf000132-resize_3-target.png,125,4.1530000000000005,5.0,199441,124,feet,jsons/VE125_randls_53_rotated.json,926392,1031429,35,Man
153,402854,DepthScenes,duration_manipulation_targetAtFixation,jsons/VE125_randls_53_rotated.json,http://54.235.29.9/FacialAge/BNav_EC2/DepthDuration/v2_depth_duration_MTurk/v2_DepthDuration_HTML.html#154,154,1920,969,1920,1080,9-18-2022,12-14-4,154,depth_duration_stimuli/002213_2014-06-28_18-37-58_260595134347_rgbf000055-resize_1/002213_2014-06-28_18-37-58_260595134347_rgbf000055-resize_1-target.png,125,3.62,7.5,5681,117,feet,jsons/VE125_randls_53_rotated.json,926392,1031429,35,Man
154,402854,DepthScenes,duration_manipulation_targetAtFixation,jsons/VE125_randls_53_rotated.json,http://54.235.29.9/FacialAge/BNav_EC2/DepthDuration/v2_depth_duration_MTurk/v2_DepthDuration_HTML.html#154,154,1920,969,1920,1080,9-18-2022,12-14-4,155,depth_duration_stimuli/000457_2014-06-08_16-52-43_260595134347_rgbf000199-resize_1/000457_2014-06-08_16-52-43_260595134347_rgbf000199-resize_1-target.png,125,3.6489999999999996,6.5,4740,138,feet,jsons/VE125_randls_53_rotated.json,926392,1031429,35,Man
155,402854,DepthScenes,duration_manipulation_targetAtFixation,jsons/VE125_randls_53_rotated.json,http://54.235.29.9/FacialAge/BNav_EC2/DepthDuration/v2_depth_duration_MTurk/v2_DepthDuration_HTML.html#154,154,1920,969,1920,1080,9-18-2022,12-14-4,156,depth_duration_stimuli/000929_2014-06-09_16-33-19_260595134347_rgbf000139-resize_0/000929_2014-06-09_16-33-19_260595134347_rgbf000139-resize_0-target.png,125,2.8680000000000003,7.0,15198,123,feet,jsons/VE125_randls_53_rotated.json,926392,1031429,35,Man
156,402854,DepthScenes,duration_manipulation_targetAtFixation,jsons/VE125_randls_53_rotated.json,http://54.235.29.9/FacialAge/BNav_EC2/DepthDuration/v2_depth_duration_MTurk/v2_DepthDuration_HTML.html#154,154,1920,969,1920,1080,9-18-2022,12-14-4,157,depth_duration_stimuli/002103_2014-06-25_20-00-40_260595134347_rgbf000049-resize_0/002103_2014-06-25_20-00-40_260595134347_rgbf000049-resize_0-target.png,125,4.105,7.2,4248,128,feet,jsons/VE125_randls_53_rotated.json,926392,1031429,35,Man
157,402854,DepthScenes,duration_manipulation_targetAtFixation,jsons/VE125_randls_53_rotated.json,http://54.235.29.9/FacialAge/BNav_EC2/DepthDuration/v2_depth_duration_MTurk/v2_DepthDuration_HTML.html#154,154,1920,969,1920,1080,9-18-2022,12-14-4,158,depth_duration_stimuli/002039_2014-06-24_20-22-38_260595134347_rgbf000084-resize_1/002039_2014-06-24_20-22-38_260595134347_rgbf000084-resize_1-target.png,125,4.408,8.5,2644,111,feet,jsons/VE125_randls_53_rotated.json,926392,1031429,35,Man
158,402854,DepthScenes,duration_manipulation_targetAtFixation,jsons/VE125_randls_53_rotated.json,http://54.235.29.9/FacialAge/BNav_EC2/DepthDuration/v2_depth_duration_MTurk/v2_DepthDuration_HTML.html#154,154,1920,969,1920,1080,9-18-2022,12-14-4,159,depth_duration_stimuli/001094_2014-06-15_17-36-00_260595134347_rgbf000205-resize_0/001094_2014-06-15_17-36-00_260595134347_rgbf000205-resize_0-target.png,125,4.2175,8.0,1788,125,feet,jsons/VE125_randls_53_rotated.json,926392,1031429,35,Man
159,402854,DepthScenes,duration_manipulation_targetAtFixation,jsons/VE125_randls_53_rotated.json,http://54.235.29.9/FacialAge/BNav_EC2/DepthDuration/v2_depth_duration_MTurk/v2_DepthDuration_HTML.html#154,154,1920,969,1920,1080,9-18-2022,12-14-4,160,depth_duration_stimuli/000692_2014-06-08_13-09-42_260595134347_rgbf000199-resize_2/000692_2014-06-08_13-09-42_260595134347_rgbf000199-resize_2-target.png,125,3.661,8.8,3675,127,feet,jsons/VE125_randls_53_rotated.json,926392,1031429,35,Man
160,402854,DepthScenes,duration_manipulation_targetAtFixation,jsons/VE125_randls_53_rotated.json,http://54.235.29.9/FacialAge/BNav_EC2/DepthDuration/v2_depth_duration_MTurk/v2_DepthDuration_HTML.html#154,154,1920,969,1920,1080,9-18-2022,12-14-4,161,depth_duration_stimuli/002953_2014-06-08_17-32-18_094959634447_rgbf000059-resize_5/002953_2014-06-08_17-32-18_094959634447_rgbf000059-resize_5-target.png,125,1.551,3.5,2769,123,feet,jsons/VE125_randls_53_rotated.json,926392,1031429,35,Man
161,402854,DepthScenes,duration_manipulation_targetAtFixation,jsons/VE125_randls_53_rotated.json,http://54.235.29.9/FacialAge/BNav_EC2/DepthDuration/v2_depth_duration_MTurk/v2_DepthDuration_HTML.html#154,154,1920,969,1920,1080,9-18-2022,12-14-4,162,depth_duration_stimuli/000878_2014-06-08_22-52-45_260595134347_rgbf000045-resize_2/000878_2014-06-08_22-52-45_260595134347_rgbf000045-resize_2-target.png,125,2.092,4.0,2460,128,feet,jsons/VE125_randls_53_rotated.json,926392,1031429,35,Man
162,402854,DepthScenes,duration_manipulation_targetAtFixation,jsons/VE125_randls_53_rotated.json,http://54.235.29.9/FacialAge/BNav_EC2/DepthDuration/v2_depth_duration_MTurk/v2_DepthDuration_HTML.html#154,154,1920,969,1920,1080,9-18-2022,12-14-4,163,depth_duration_stimuli/003495_2014-05-21_16-01-51_094959634447_rgbf000100-resize_3/003495_2014-05-21_16-01-51_094959634447_rgbf000100-resize_3-target.png,125,1.6255,2.0,2767,121,feet,jsons/VE125_randls_53_rotated.json,926392,1031429,35,Man
163,402854,DepthScenes,duration_manipulation_targetAtFixation,jsons/VE125_randls_53_rotated.json,http://54.235.29.9/FacialAge/BNav_EC2/DepthDuration/v2_depth_duration_MTurk/v2_DepthDuration_HTML.html#154,154,1920,969,1920,1080,9-18-2022,12-14-4,164,depth_duration_stimuli/001244_2014-06-17_16-47-45_260595134347_rgbf000030-resize_4/001244_2014-06-17_16-47-45_260595134347_rgbf000030-resize_4-target.png,125,2.0425,5.0,2579,125,feet,jsons/VE125_randls_53_rotated.json,926392,1031429,35,Man
