,subjID,experimentName,versionName,sequenceName,url,selected_row,windowWidth,windowHeight,screenWidth,screenHeight,startDate,startTime,trial,stimulus,duration,actual_depth,depth_estimate,trial_RT,log_sceneDuration,unitSelection,seq_filepath,experimentTime,totalTime,age,gender
0,404045,DepthScenes,duration_manipulation_targetAtFixation,jsons/v1_VE1000_randls_47.json,http://54.235.29.9/FacialAge/BNav_EC2/DepthDuration/v2_depth_duration_MTurk/v2_DepthDuration_HTML.html#201,201,1364,768,1364,768,8-29-2022,15-37-51,1,depth_duration_stimuli/003070_2014-06-15_14-58-27_094959634447_rgbf000150-resize_3/003070_2014-06-15_14-58-27_094959634447_rgbf000150-resize_3-target.png,1000,2.9415,5,6142,999,meters,jsons/v1_VE1000_randls_47.json,892544,1097239,35,Woman
1,404045,DepthScenes,duration_manipulation_targetAtFixation,jsons/v1_VE1000_randls_47.json,http://54.235.29.9/FacialAge/BNav_EC2/DepthDuration/v2_depth_duration_MTurk/v2_DepthDuration_HTML.html#201,201,1364,768,1364,768,8-29-2022,15-37-51,2,depth_duration_stimuli/000943_2014-06-09_19-31-07_260595134347_rgbf000128-resize_1/000943_2014-06-09_19-31-07_260595134347_rgbf000128-resize_1-target.png,1000,1.9765,3,8876,999,meters,jsons/v1_VE1000_randls_47.json,892544,1097239,35,Woman
2,404045,DepthScenes,duration_manipulation_targetAtFixation,jsons/v1_VE1000_randls_47.json,http://54.235.29.9/FacialAge/BNav_EC2/DepthDuration/v2_depth_duration_MTurk/v2_DepthDuration_HTML.html#201,201,1364,768,1364,768,8-29-2022,15-37-51,3,depth_duration_stimuli/002630_2014-06-24_14-47-50_094959634447_rgbf000055-resize_1/002630_2014-06-24_14-47-50_094959634447_rgbf000055-resize_1-target.png,1000,3.0095,6,5259,985,meters,jsons/v1_VE1000_randls_47.json,892544,1097239,35,Woman
3,404045,DepthScenes,duration_manipulation_targetAtFixation,jsons/v1_VE1000_randls_47.json,http://54.235.29.9/FacialAge/BNav_EC2/DepthDuration/v2_depth_duration_MTurk/v2_DepthDuration_HTML.html#201,201,1364,768,1364,768,8-29-2022,15-37-51,4,depth_duration_stimuli/002758_2014-06-22_19-11-20_094959634447_rgbf000128-resize_1/002758_2014-06-22_19-11-20_094959634447_rgbf000128-resize_1-target.png,1000,2.555,5,4918,1005,meters,jsons/v1_VE1000_randls_47.json,892544,1097239,35,Woman
4,404045,DepthScenes,duration_manipulation_targetAtFixation,jsons/v1_VE1000_randls_47.json,http://54.235.29.9/FacialAge/BNav_EC2/DepthDuration/v2_depth_duration_MTurk/v2_DepthDuration_HTML.html#201,201,1364,768,1364,768,8-29-2022,15-37-51,5,depth_duration_stimuli/000436_2014-06-09_22-25-11_260595134347_rgbf000137-resize_1/000436_2014-06-09_22-25-11_260595134347_rgbf000137-resize_1-target.png,1000,4.0705,5,5540,1003,meters,jsons/v1_VE1000_randls_47.json,892544,1097239,35,Woman
5,404045,DepthScenes,duration_manipulation_targetAtFixation,jsons/v1_VE1000_randls_47.json,http://54.235.29.9/FacialAge/BNav_EC2/DepthDuration/v2_depth_duration_MTurk/v2_DepthDuration_HTML.html#201,201,1364,768,1364,768,8-29-2022,15-37-51,6,depth_duration_stimuli/002444_2014-06-28_20-32-08_260595134347_rgbf000027-resize_0/002444_2014-06-28_20-32-08_260595134347_rgbf000027-resize_0-target.png,1000,4.388999999999999,4,6089,999,meters,jsons/v1_VE1000_randls_47.json,892544,1097239,35,Woman
6,404045,DepthScenes,duration_manipulation_targetAtFixation,jsons/v1_VE1000_randls_47.json,http://54.235.29.9/FacialAge/BNav_EC2/DepthDuration/v2_depth_duration_MTurk/v2_DepthDuration_HTML.html#201,201,1364,768,1364,768,8-29-2022,15-37-51,7,depth_duration_stimuli/000736_2014-06-08_18-24-15_260595134347_rgbf000206-resize_3/000736_2014-06-08_18-24-15_260595134347_rgbf000206-resize_3-target.png,1000,3.515,5,4182,999,meters,jsons/v1_VE1000_randls_47.json,892544,1097239,35,Woman
7,404045,DepthScenes,duration_manipulation_targetAtFixation,jsons/v1_VE1000_randls_47.json,http://54.235.29.9/FacialAge/BNav_EC2/DepthDuration/v2_depth_duration_MTurk/v2_DepthDuration_HTML.html#201,201,1364,768,1364,768,8-29-2022,15-37-51,8,depth_duration_stimuli/000137_2014-05-20_17-04-49_260595134347_rgbf000120-resize_1/000137_2014-05-20_17-04-49_260595134347_rgbf000120-resize_1-target.png,1000,3.786,6,5515,1000,meters,jsons/v1_VE1000_randls_47.json,892544,1097239,35,Woman
8,404045,DepthScenes,duration_manipulation_targetAtFixation,jsons/v1_VE1000_randls_47.json,http://54.235.29.9/FacialAge/BNav_EC2/DepthDuration/v2_depth_duration_MTurk/v2_DepthDuration_HTML.html#201,201,1364,768,1364,768,8-29-2022,15-37-51,9,depth_duration_stimuli/002039_2014-06-24_20-22-38_260595134347_rgbf000084-resize_1/002039_2014-06-24_20-22-38_260595134347_rgbf000084-resize_1-target.png,1000,4.408,4,4872,998,meters,jsons/v1_VE1000_randls_47.json,892544,1097239,35,Woman
9,404045,DepthScenes,duration_manipulation_targetAtFixation,jsons/v1_VE1000_randls_47.json,http://54.235.29.9/FacialAge/BNav_EC2/DepthDuration/v2_depth_duration_MTurk/v2_DepthDuration_HTML.html#201,201,1364,768,1364,768,8-29-2022,15-37-51,10,depth_duration_stimuli/002103_2014-06-25_20-00-40_260595134347_rgbf000049-resize_0/002103_2014-06-25_20-00-40_260595134347_rgbf000049-resize_0-target.png,1000,4.105,3,5175,994,meters,jsons/v1_VE1000_randls_47.json,892544,1097239,35,Woman
10,404045,DepthScenes,duration_manipulation_targetAtFixation,jsons/v1_VE1000_randls_47.json,http://54.235.29.9/FacialAge/BNav_EC2/DepthDuration/v2_depth_duration_MTurk/v2_DepthDuration_HTML.html#201,201,1364,768,1364,768,8-29-2022,15-37-51,11,depth_duration_stimuli/002509_2014-06-24_13-19-22_094959634447_rgbf000077-resize_0/002509_2014-06-24_13-19-22_094959634447_rgbf000077-resize_0-target.png,1000,1.3065,2,5021,1000,meters,jsons/v1_VE1000_randls_47.json,892544,1097239,35,Woman
11,404045,DepthScenes,duration_manipulation_targetAtFixation,jsons/v1_VE1000_randls_47.json,http://54.235.29.9/FacialAge/BNav_EC2/DepthDuration/v2_depth_duration_MTurk/v2_DepthDuration_HTML.html#201,201,1364,768,1364,768,8-29-2022,15-37-51,12,depth_duration_stimuli/003338_2014-05-20_11-01-23_094959634447_rgbf000051-resize_6/003338_2014-05-20_11-01-23_094959634447_rgbf000051-resize_6-target.png,1000,1.693,2,4026,1006,meters,jsons/v1_VE1000_randls_47.json,892544,1097239,35,Woman
12,404045,DepthScenes,duration_manipulation_targetAtFixation,jsons/v1_VE1000_randls_47.json,http://54.235.29.9/FacialAge/BNav_EC2/DepthDuration/v2_depth_duration_MTurk/v2_DepthDuration_HTML.html#201,201,1364,768,1364,768,8-29-2022,15-37-51,13,depth_duration_stimuli/000569_2014-06-09_22-51-47_260595134347_rgbf000141-resize_3/000569_2014-06-09_22-51-47_260595134347_rgbf000141-resize-original.jpg,1000,4.512,0,6292,1008,meters,jsons/v1_VE1000_randls_47.json,892544,1097239,35,Woman
13,404045,DepthScenes,duration_manipulation_targetAtFixation,jsons/v1_VE1000_randls_47.json,http://54.235.29.9/FacialAge/BNav_EC2/DepthDuration/v2_depth_duration_MTurk/v2_DepthDuration_HTML.html#201,201,1364,768,1364,768,8-29-2022,15-37-51,14,depth_duration_stimuli/002272_2014-06-28_18-53-56_260595134347_rgbf000067-resize_2/002272_2014-06-28_18-53-56_260595134347_rgbf000067-resize_2-target.png,1000,1.138,2,4427,999,meters,jsons/v1_VE1000_randls_47.json,892544,1097239,35,Woman
14,404045,DepthScenes,duration_manipulation_targetAtFixation,jsons/v1_VE1000_randls_47.json,http://54.235.29.9/FacialAge/BNav_EC2/DepthDuration/v2_depth_duration_MTurk/v2_DepthDuration_HTML.html#201,201,1364,768,1364,768,8-29-2022,15-37-51,15,depth_duration_stimuli/001571_2014-06-20_17-21-32_260595134347_rgbf000089-resize_1/001571_2014-06-20_17-21-32_260595134347_rgbf000089-resize_1-target.png,1000,1.86,3,4884,992,meters,jsons/v1_VE1000_randls_47.json,892544,1097239,35,Woman
15,404045,DepthScenes,duration_manipulation_targetAtFixation,jsons/v1_VE1000_randls_47.json,http://54.235.29.9/FacialAge/BNav_EC2/DepthDuration/v2_depth_duration_MTurk/v2_DepthDuration_HTML.html#201,201,1364,768,1364,768,8-29-2022,15-37-51,16,depth_duration_stimuli/002118_2014-06-25_20-32-08_260595134347_rgbf000078-resize_1/002118_2014-06-25_20-32-08_260595134347_rgbf000078-resize_1-target.png,1000,2.6460000000000004,4,5567,998,meters,jsons/v1_VE1000_randls_47.json,892544,1097239,35,Woman
16,404045,DepthScenes,duration_manipulation_targetAtFixation,jsons/v1_VE1000_randls_47.json,http://54.235.29.9/FacialAge/BNav_EC2/DepthDuration/v2_depth_duration_MTurk/v2_DepthDuration_HTML.html#201,201,1364,768,1364,768,8-29-2022,15-37-51,17,depth_duration_stimuli/001516_2014-06-20_16-25-09_260595134347_rgbf000076-resize_2/001516_2014-06-20_16-25-09_260595134347_rgbf000076-resize_2-target.png,1000,1.7445,4,3717,972,meters,jsons/v1_VE1000_randls_47.json,892544,1097239,35,Woman
17,404045,DepthScenes,duration_manipulation_targetAtFixation,jsons/v1_VE1000_randls_47.json,http://54.235.29.9/FacialAge/BNav_EC2/DepthDuration/v2_depth_duration_MTurk/v2_DepthDuration_HTML.html#201,201,1364,768,1364,768,8-29-2022,15-37-51,18,depth_duration_stimuli/002549_2014-06-24_13-41-39_094959634447_rgbf000022-resize_3/002549_2014-06-24_13-41-39_094959634447_rgbf000022-resize_3-target.png,1000,1.476,2,4900,999,meters,jsons/v1_VE1000_randls_47.json,892544,1097239,35,Woman
18,404045,DepthScenes,duration_manipulation_targetAtFixation,jsons/v1_VE1000_randls_47.json,http://54.235.29.9/FacialAge/BNav_EC2/DepthDuration/v2_depth_duration_MTurk/v2_DepthDuration_HTML.html#201,201,1364,768,1364,768,8-29-2022,15-37-51,19,depth_duration_stimuli/002750_2014-06-22_19-08-03_094959634447_rgbf000094-resize_4/002750_2014-06-22_19-08-03_094959634447_rgbf000094-resize_4-target.png,1000,2.354,3,4220,999,meters,jsons/v1_VE1000_randls_47.json,892544,1097239,35,Woman
19,404045,DepthScenes,duration_manipulation_targetAtFixation,jsons/v1_VE1000_randls_47.json,http://54.235.29.9/FacialAge/BNav_EC2/DepthDuration/v2_depth_duration_MTurk/v2_DepthDuration_HTML.html#201,201,1364,768,1364,768,8-29-2022,15-37-51,20,depth_duration_stimuli/000682_2014-06-08_23-14-58_260595134347_rgbf000041-resize_5/000682_2014-06-08_23-14-58_260595134347_rgbf000041-resize_5-target.png,1000,2.7239999999999998,3,4838,1000,meters,jsons/v1_VE1000_randls_47.json,892544,1097239,35,Woman
20,404045,DepthScenes,duration_manipulation_targetAtFixation,jsons/v1_VE1000_randls_47.json,http://54.235.29.9/FacialAge/BNav_EC2/DepthDuration/v2_depth_duration_MTurk/v2_DepthDuration_HTML.html#201,201,1364,768,1364,768,8-29-2022,15-37-51,21,depth_duration_stimuli/001650_2014-06-20_12-09-00_260595134347_rgbf000087-resize_3/001650_2014-06-20_12-09-00_260595134347_rgbf000087-resize_3-target.png,1000,1.9505,1,5232,998,meters,jsons/v1_VE1000_randls_47.json,892544,1097239,35,Woman
21,404045,DepthScenes,duration_manipulation_targetAtFixation,jsons/v1_VE1000_randls_47.json,http://54.235.29.9/FacialAge/BNav_EC2/DepthDuration/v2_depth_duration_MTurk/v2_DepthDuration_HTML.html#201,201,1364,768,1364,768,8-29-2022,15-37-51,22,depth_duration_stimuli/001158_2014-06-17_15-32-16_260595134347_rgbf000138-resize_2/001158_2014-06-17_15-32-16_260595134347_rgbf000138-resize_2-target.png,1000,4.5315,4,7026,1000,meters,jsons/v1_VE1000_randls_47.json,892544,1097239,35,Woman
22,404045,DepthScenes,duration_manipulation_targetAtFixation,jsons/v1_VE1000_randls_47.json,http://54.235.29.9/FacialAge/BNav_EC2/DepthDuration/v2_depth_duration_MTurk/v2_DepthDuration_HTML.html#201,201,1364,768,1364,768,8-29-2022,15-37-51,23,depth_duration_stimuli/000556_2014-06-09_22-42-56_260595134347_rgbf000214-resize_1/000556_2014-06-09_22-42-56_260595134347_rgbf000214-resize_1-target.png,1000,4.8415,5,5423,998,meters,jsons/v1_VE1000_randls_47.json,892544,1097239,35,Woman
23,404045,DepthScenes,duration_manipulation_targetAtFixation,jsons/v1_VE1000_randls_47.json,http://54.235.29.9/FacialAge/BNav_EC2/DepthDuration/v2_depth_duration_MTurk/v2_DepthDuration_HTML.html#201,201,1364,768,1364,768,8-29-2022,15-37-51,24,depth_duration_stimuli/002748_2014-06-22_19-07-22_094959634447_rgbf000078-resize_1/002748_2014-06-22_19-07-22_094959634447_rgbf000078-resize_1-target.png,1000,4.6705,6,8259,999,meters,jsons/v1_VE1000_randls_47.json,892544,1097239,35,Woman
24,404045,DepthScenes,duration_manipulation_targetAtFixation,jsons/v1_VE1000_randls_47.json,http://54.235.29.9/FacialAge/BNav_EC2/DepthDuration/v2_depth_duration_MTurk/v2_DepthDuration_HTML.html#201,201,1364,768,1364,768,8-29-2022,15-37-51,25,depth_duration_stimuli/002995_2014-06-15_12-31-26_094959634447_rgbf000150-resize_1/002995_2014-06-15_12-31-26_094959634447_rgbf000150-resize_1-target.png,1000,3.8360000000000003,5,4088,1002,meters,jsons/v1_VE1000_randls_47.json,892544,1097239,35,Woman
25,404045,DepthScenes,duration_manipulation_targetAtFixation,jsons/v1_VE1000_randls_47.json,http://54.235.29.9/FacialAge/BNav_EC2/DepthDuration/v2_depth_duration_MTurk/v2_DepthDuration_HTML.html#201,201,1364,768,1364,768,8-29-2022,15-37-51,26,depth_duration_stimuli/003621_2014-05-23_18-06-08_094959634447_rgbf000101-resize_1/003621_2014-05-23_18-06-08_094959634447_rgbf000101-resize_1-target.png,1000,3.9835,4,5550,1008,meters,jsons/v1_VE1000_randls_47.json,892544,1097239,35,Woman
26,404045,DepthScenes,duration_manipulation_targetAtFixation,jsons/v1_VE1000_randls_47.json,http://54.235.29.9/FacialAge/BNav_EC2/DepthDuration/v2_depth_duration_MTurk/v2_DepthDuration_HTML.html#201,201,1364,768,1364,768,8-29-2022,15-37-51,27,depth_duration_stimuli/001584_2014-06-20_11-07-43_260595134347_rgbf000002-resize_1/001584_2014-06-20_11-07-43_260595134347_rgbf000002-resize_1-target.png,1000,3.53,4,4457,998,meters,jsons/v1_VE1000_randls_47.json,892544,1097239,35,Woman
27,404045,DepthScenes,duration_manipulation_targetAtFixation,jsons/v1_VE1000_randls_47.json,http://54.235.29.9/FacialAge/BNav_EC2/DepthDuration/v2_depth_duration_MTurk/v2_DepthDuration_HTML.html#201,201,1364,768,1364,768,8-29-2022,15-37-51,28,depth_duration_stimuli/000878_2014-06-08_22-52-45_260595134347_rgbf000045-resize_2/000878_2014-06-08_22-52-45_260595134347_rgbf000045-resize_2-target.png,1000,2.092,3,6416,998,meters,jsons/v1_VE1000_randls_47.json,892544,1097239,35,Woman
28,404045,DepthScenes,duration_manipulation_targetAtFixation,jsons/v1_VE1000_randls_47.json,http://54.235.29.9/FacialAge/BNav_EC2/DepthDuration/v2_depth_duration_MTurk/v2_DepthDuration_HTML.html#201,201,1364,768,1364,768,8-29-2022,15-37-51,29,depth_duration_stimuli/002953_2014-06-08_17-32-18_094959634447_rgbf000059-resize_5/002953_2014-06-08_17-32-18_094959634447_rgbf000059-resize_5-target.png,1000,1.551,5,4848,997,meters,jsons/v1_VE1000_randls_47.json,892544,1097239,35,Woman
29,404045,DepthScenes,duration_manipulation_targetAtFixation,jsons/v1_VE1000_randls_47.json,http://54.235.29.9/FacialAge/BNav_EC2/DepthDuration/v2_depth_duration_MTurk/v2_DepthDuration_HTML.html#201,201,1364,768,1364,768,8-29-2022,15-37-51,30,depth_duration_stimuli/000375_2014-06-08_11-17-29_260595134347_rgbf000133-resize_2/000375_2014-06-08_11-17-29_260595134347_rgbf000133-resize-original.jpg,1000,4.718,0,7383,1011,meters,jsons/v1_VE1000_randls_47.json,892544,1097239,35,Woman
30,404045,DepthScenes,duration_manipulation_targetAtFixation,jsons/v1_VE1000_randls_47.json,http://54.235.29.9/FacialAge/BNav_EC2/DepthDuration/v2_depth_duration_MTurk/v2_DepthDuration_HTML.html#201,201,1364,768,1364,768,8-29-2022,15-37-51,31,depth_duration_stimuli/001133_2014-06-17_14-49-16_260595134347_rgbf000100-resize_0/001133_2014-06-17_14-49-16_260595134347_rgbf000100-resize_0-target.png,1000,4.2115,5,5209,999,meters,jsons/v1_VE1000_randls_47.json,892544,1097239,35,Woman
31,404045,DepthScenes,duration_manipulation_targetAtFixation,jsons/v1_VE1000_randls_47.json,http://54.235.29.9/FacialAge/BNav_EC2/DepthDuration/v2_depth_duration_MTurk/v2_DepthDuration_HTML.html#201,201,1364,768,1364,768,8-29-2022,15-37-51,32,depth_duration_stimuli/001132_2014-06-17_14-48-54_260595134347_rgbf000100-resize_2/001132_2014-06-17_14-48-54_260595134347_rgbf000100-resize_2-target.png,1000,3.753,4,4111,1000,meters,jsons/v1_VE1000_randls_47.json,892544,1097239,35,Woman
32,404045,DepthScenes,duration_manipulation_targetAtFixation,jsons/v1_VE1000_randls_47.json,http://54.235.29.9/FacialAge/BNav_EC2/DepthDuration/v2_depth_duration_MTurk/v2_DepthDuration_HTML.html#201,201,1364,768,1364,768,8-29-2022,15-37-51,33,depth_duration_stimuli/001167_2014-06-17_15-38-07_260595134347_rgbf000108-resize_0/001167_2014-06-17_15-38-07_260595134347_rgbf000108-resize_0-target.png,1000,1.8505,3,4790,999,meters,jsons/v1_VE1000_randls_47.json,892544,1097239,35,Woman
33,404045,DepthScenes,duration_manipulation_targetAtFixation,jsons/v1_VE1000_randls_47.json,http://54.235.29.9/FacialAge/BNav_EC2/DepthDuration/v2_depth_duration_MTurk/v2_DepthDuration_HTML.html#201,201,1364,768,1364,768,8-29-2022,15-37-51,34,depth_duration_stimuli/003587_2014-05-23_16-48-02_094959634447_rgbf002384-resize_2/003587_2014-05-23_16-48-02_094959634447_rgbf002384-resize_2-target.png,1000,1.357,3,5332,1014,meters,jsons/v1_VE1000_randls_47.json,892544,1097239,35,Woman
34,404045,DepthScenes,duration_manipulation_targetAtFixation,jsons/v1_VE1000_randls_47.json,http://54.235.29.9/FacialAge/BNav_EC2/DepthDuration/v2_depth_duration_MTurk/v2_DepthDuration_HTML.html#201,201,1364,768,1364,768,8-29-2022,15-37-51,35,depth_duration_stimuli/000917_2014-06-09_22-45-29_260595134347_rgbf000149-resize_3/000917_2014-06-09_22-45-29_260595134347_rgbf000149-resize_3-target.png,1000,4.1865,4,4532,998,meters,jsons/v1_VE1000_randls_47.json,892544,1097239,35,Woman
35,404045,DepthScenes,duration_manipulation_targetAtFixation,jsons/v1_VE1000_randls_47.json,http://54.235.29.9/FacialAge/BNav_EC2/DepthDuration/v2_depth_duration_MTurk/v2_DepthDuration_HTML.html#201,201,1364,768,1364,768,8-29-2022,15-37-51,36,depth_duration_stimuli/002323_2014-06-28_20-01-54_260595134347_rgbf000051-resize_4/002323_2014-06-28_20-01-54_260595134347_rgbf000051-resize_4-target.png,1000,3.7310000000000003,5,5061,1013,meters,jsons/v1_VE1000_randls_47.json,892544,1097239,35,Woman
36,404045,DepthScenes,duration_manipulation_targetAtFixation,jsons/v1_VE1000_randls_47.json,http://54.235.29.9/FacialAge/BNav_EC2/DepthDuration/v2_depth_duration_MTurk/v2_DepthDuration_HTML.html#201,201,1364,768,1364,768,8-29-2022,15-37-51,37,depth_duration_stimuli/002788_2014-06-22_19-36-03_094959634447_rgbf000088-resize_2/002788_2014-06-22_19-36-03_094959634447_rgbf000088-resize_2-target.png,1000,1.6465,5,4431,1000,meters,jsons/v1_VE1000_randls_47.json,892544,1097239,35,Woman
37,404045,DepthScenes,duration_manipulation_targetAtFixation,jsons/v1_VE1000_randls_47.json,http://54.235.29.9/FacialAge/BNav_EC2/DepthDuration/v2_depth_duration_MTurk/v2_DepthDuration_HTML.html#201,201,1364,768,1364,768,8-29-2022,15-37-51,38,depth_duration_stimuli/000749_2014-06-08_21-55-06_260595134347_rgbf000070-resize_2/000749_2014-06-08_21-55-06_260595134347_rgbf000070-resize_2-target.png,1000,2.331,4,4747,1006,meters,jsons/v1_VE1000_randls_47.json,892544,1097239,35,Woman
38,404045,DepthScenes,duration_manipulation_targetAtFixation,jsons/v1_VE1000_randls_47.json,http://54.235.29.9/FacialAge/BNav_EC2/DepthDuration/v2_depth_duration_MTurk/v2_DepthDuration_HTML.html#201,201,1364,768,1364,768,8-29-2022,15-37-51,39,depth_duration_stimuli/000788_2014-06-08_22-34-36_260595134347_rgbf000131-resize_1/000788_2014-06-08_22-34-36_260595134347_rgbf000131-resize_1-target.png,1000,3.359,3,4874,1008,meters,jsons/v1_VE1000_randls_47.json,892544,1097239,35,Woman
39,404045,DepthScenes,duration_manipulation_targetAtFixation,jsons/v1_VE1000_randls_47.json,http://54.235.29.9/FacialAge/BNav_EC2/DepthDuration/v2_depth_duration_MTurk/v2_DepthDuration_HTML.html#201,201,1364,768,1364,768,8-29-2022,15-37-51,40,depth_duration_stimuli/001235_2014-06-17_16-37-36_260595134347_rgbf000084-resize_4/001235_2014-06-17_16-37-36_260595134347_rgbf000084-resize_4-target.png,1000,3.6605,5,7562,999,meters,jsons/v1_VE1000_randls_47.json,892544,1097239,35,Woman
40,404045,DepthScenes,duration_manipulation_targetAtFixation,jsons/v1_VE1000_randls_47.json,http://54.235.29.9/FacialAge/BNav_EC2/DepthDuration/v2_depth_duration_MTurk/v2_DepthDuration_HTML.html#201,201,1364,768,1364,768,8-29-2022,15-37-51,41,depth_duration_stimuli/001110_2014-06-15_17-25-28_260595134347_rgbf000150-resize_1/001110_2014-06-15_17-25-28_260595134347_rgbf000150-resize_1-target.png,1000,1.7115,3,5598,1000,meters,jsons/v1_VE1000_randls_47.json,892544,1097239,35,Woman
41,404045,DepthScenes,duration_manipulation_targetAtFixation,jsons/v1_VE1000_randls_47.json,http://54.235.29.9/FacialAge/BNav_EC2/DepthDuration/v2_depth_duration_MTurk/v2_DepthDuration_HTML.html#201,201,1364,768,1364,768,8-29-2022,15-37-51,42,depth_duration_stimuli/000927_2014-06-09_16-32-30_260595134347_rgbf000123-resize_3/000927_2014-06-09_16-32-30_260595134347_rgbf000123-resize_3-target.png,1000,2.6785,4,7575,985,meters,jsons/v1_VE1000_randls_47.json,892544,1097239,35,Woman
42,404045,DepthScenes,duration_manipulation_targetAtFixation,jsons/v1_VE1000_randls_47.json,http://54.235.29.9/FacialAge/BNav_EC2/DepthDuration/v2_depth_duration_MTurk/v2_DepthDuration_HTML.html#201,201,1364,768,1364,768,8-29-2022,15-37-51,43,depth_duration_stimuli/000739_2014-06-08_18-45-58_260595134347_rgbf000068-resize_1/000739_2014-06-08_18-45-58_260595134347_rgbf000068-resize_1-target.png,1000,3.534,4,4374,998,meters,jsons/v1_VE1000_randls_47.json,892544,1097239,35,Woman
43,404045,DepthScenes,duration_manipulation_targetAtFixation,jsons/v1_VE1000_randls_47.json,http://54.235.29.9/FacialAge/BNav_EC2/DepthDuration/v2_depth_duration_MTurk/v2_DepthDuration_HTML.html#201,201,1364,768,1364,768,8-29-2022,15-37-51,44,depth_duration_stimuli/000734_2014-06-08_17-39-11_260595134347_rgbf000128-resize_2/000734_2014-06-08_17-39-11_260595134347_rgbf000128-resize_2-target.png,1000,4.098,5,4750,1002,meters,jsons/v1_VE1000_randls_47.json,892544,1097239,35,Woman
44,404045,DepthScenes,duration_manipulation_targetAtFixation,jsons/v1_VE1000_randls_47.json,http://54.235.29.9/FacialAge/BNav_EC2/DepthDuration/v2_depth_duration_MTurk/v2_DepthDuration_HTML.html#201,201,1364,768,1364,768,8-29-2022,15-37-51,45,depth_duration_stimuli/000787_2014-06-08_22-33-53_260595134347_rgbf000175-resize_1/000787_2014-06-08_22-33-53_260595134347_rgbf000175-resize-original.jpg,1000,4.784,0,6867,998,meters,jsons/v1_VE1000_randls_47.json,892544,1097239,35,Woman
45,404045,DepthScenes,duration_manipulation_targetAtFixation,jsons/v1_VE1000_randls_47.json,http://54.235.29.9/FacialAge/BNav_EC2/DepthDuration/v2_depth_duration_MTurk/v2_DepthDuration_HTML.html#201,201,1364,768,1364,768,8-29-2022,15-37-51,46,depth_duration_stimuli/002964_2014-06-08_17-46-11_094959634447_rgbf000091-resize_4/002964_2014-06-08_17-46-11_094959634447_rgbf000091-resize_4-target.png,1000,1.6909999999999998,2,5205,998,meters,jsons/v1_VE1000_randls_47.json,892544,1097239,35,Woman
46,404045,DepthScenes,duration_manipulation_targetAtFixation,jsons/v1_VE1000_randls_47.json,http://54.235.29.9/FacialAge/BNav_EC2/DepthDuration/v2_depth_duration_MTurk/v2_DepthDuration_HTML.html#201,201,1364,768,1364,768,8-29-2022,15-37-51,47,depth_duration_stimuli/002136_2014-06-25_21-18-03_260595134347_rgbf000109-resize_3/002136_2014-06-25_21-18-03_260595134347_rgbf000109-resize_3-target.png,1000,1.9569999999999999,3,3898,1000,meters,jsons/v1_VE1000_randls_47.json,892544,1097239,35,Woman
47,404045,DepthScenes,duration_manipulation_targetAtFixation,jsons/v1_VE1000_randls_47.json,http://54.235.29.9/FacialAge/BNav_EC2/DepthDuration/v2_depth_duration_MTurk/v2_DepthDuration_HTML.html#201,201,1364,768,1364,768,8-29-2022,15-37-51,48,depth_duration_stimuli/002279_2014-06-28_18-55-32_260595134347_rgbf000040-resize_5/002279_2014-06-28_18-55-32_260595134347_rgbf000040-resize_5-target.png,1000,1.5043333333333,3,4068,1004,meters,jsons/v1_VE1000_randls_47.json,892544,1097239,35,Woman
48,404045,DepthScenes,duration_manipulation_targetAtFixation,jsons/v1_VE1000_randls_47.json,http://54.235.29.9/FacialAge/BNav_EC2/DepthDuration/v2_depth_duration_MTurk/v2_DepthDuration_HTML.html#201,201,1364,768,1364,768,8-29-2022,15-37-51,49,depth_duration_stimuli/000635_2014-06-08_16-38-42_260595134347_rgbf000106-resize_1/000635_2014-06-08_16-38-42_260595134347_rgbf000106-resize_1-target.png,1000,2.074,3,4313,982,meters,jsons/v1_VE1000_randls_47.json,892544,1097239,35,Woman
49,404045,DepthScenes,duration_manipulation_targetAtFixation,jsons/v1_VE1000_randls_47.json,http://54.235.29.9/FacialAge/BNav_EC2/DepthDuration/v2_depth_duration_MTurk/v2_DepthDuration_HTML.html#201,201,1364,768,1364,768,8-29-2022,15-37-51,50,depth_duration_stimuli/000758_2014-06-08_22-05-08_260595134347_rgbf000085-resize_0/000758_2014-06-08_22-05-08_260595134347_rgbf000085-resize_0-target.png,1000,3.3810000000000002,4,4103,997,meters,jsons/v1_VE1000_randls_47.json,892544,1097239,35,Woman
50,404045,DepthScenes,duration_manipulation_targetAtFixation,jsons/v1_VE1000_randls_47.json,http://54.235.29.9/FacialAge/BNav_EC2/DepthDuration/v2_depth_duration_MTurk/v2_DepthDuration_HTML.html#201,201,1364,768,1364,768,8-29-2022,15-37-51,51,depth_duration_stimuli/000854_2014-06-09_19-43-13_260595134347_rgbf000066-resize_0/000854_2014-06-09_19-43-13_260595134347_rgbf000066-resize_0-target.png,1000,3.068,4,3635,1002,meters,jsons/v1_VE1000_randls_47.json,892544,1097239,35,Woman
51,404045,DepthScenes,duration_manipulation_targetAtFixation,jsons/v1_VE1000_randls_47.json,http://54.235.29.9/FacialAge/BNav_EC2/DepthDuration/v2_depth_duration_MTurk/v2_DepthDuration_HTML.html#201,201,1364,768,1364,768,8-29-2022,15-37-51,52,depth_duration_stimuli/001570_2014-06-20_17-21-09_260595134347_rgbf000135-resize_4/001570_2014-06-20_17-21-09_260595134347_rgbf000135-resize_4-target.png,1000,4.467,5,5124,1000,meters,jsons/v1_VE1000_randls_47.json,892544,1097239,35,Woman
52,404045,DepthScenes,duration_manipulation_targetAtFixation,jsons/v1_VE1000_randls_47.json,http://54.235.29.9/FacialAge/BNav_EC2/DepthDuration/v2_depth_duration_MTurk/v2_DepthDuration_HTML.html#201,201,1364,768,1364,768,8-29-2022,15-37-51,53,depth_duration_stimuli/001392_2014-06-19_16-07-59_260595134347_rgbf000046-resize_1/001392_2014-06-19_16-07-59_260595134347_rgbf000046-resize_1-target.png,1000,4.135,4,4243,1006,meters,jsons/v1_VE1000_randls_47.json,892544,1097239,35,Woman
53,404045,DepthScenes,duration_manipulation_targetAtFixation,jsons/v1_VE1000_randls_47.json,http://54.235.29.9/FacialAge/BNav_EC2/DepthDuration/v2_depth_duration_MTurk/v2_DepthDuration_HTML.html#201,201,1364,768,1364,768,8-29-2022,15-37-51,54,depth_duration_stimuli/001066_2014-06-08_22-03-20_260595134347_rgbf000066-resize_4/001066_2014-06-08_22-03-20_260595134347_rgbf000066-resize_4-target.png,1000,4.2330000000000005,5,6426,1011,meters,jsons/v1_VE1000_randls_47.json,892544,1097239,35,Woman
54,404045,DepthScenes,duration_manipulation_targetAtFixation,jsons/v1_VE1000_randls_47.json,http://54.235.29.9/FacialAge/BNav_EC2/DepthDuration/v2_depth_duration_MTurk/v2_DepthDuration_HTML.html#201,201,1364,768,1364,768,8-29-2022,15-37-51,55,depth_duration_stimuli/000742_2014-06-08_18-48-09_260595134347_rgbf000164-resize_4/000742_2014-06-08_18-48-09_260595134347_rgbf000164-resize_4-target.png,1000,4.632,4,4126,999,meters,jsons/v1_VE1000_randls_47.json,892544,1097239,35,Woman
55,404045,DepthScenes,duration_manipulation_targetAtFixation,jsons/v1_VE1000_randls_47.json,http://54.235.29.9/FacialAge/BNav_EC2/DepthDuration/v2_depth_duration_MTurk/v2_DepthDuration_HTML.html#201,201,1364,768,1364,768,8-29-2022,15-37-51,56,depth_duration_stimuli/002445_2014-06-28_20-32-16_260595134347_rgbf000029-resize_4/002445_2014-06-28_20-32-16_260595134347_rgbf000029-resize_4-target.png,1000,2.5315,2,5834,1003,meters,jsons/v1_VE1000_randls_47.json,892544,1097239,35,Woman
56,404045,DepthScenes,duration_manipulation_targetAtFixation,jsons/v1_VE1000_randls_47.json,http://54.235.29.9/FacialAge/BNav_EC2/DepthDuration/v2_depth_duration_MTurk/v2_DepthDuration_HTML.html#201,201,1364,768,1364,768,8-29-2022,15-37-51,57,depth_duration_stimuli/000780_2014-06-08_22-28-29_260595134347_rgbf000126-resize_1/000780_2014-06-08_22-28-29_260595134347_rgbf000126-resize_1-target.png,1000,3.3825,5,5699,998,meters,jsons/v1_VE1000_randls_47.json,892544,1097239,35,Woman
57,404045,DepthScenes,duration_manipulation_targetAtFixation,jsons/v1_VE1000_randls_47.json,http://54.235.29.9/FacialAge/BNav_EC2/DepthDuration/v2_depth_duration_MTurk/v2_DepthDuration_HTML.html#201,201,1364,768,1364,768,8-29-2022,15-37-51,58,depth_duration_stimuli/000773_2014-06-08_22-24-54_260595134347_rgbf000093-resize_1/000773_2014-06-08_22-24-54_260595134347_rgbf000093-resize_1-target.png,1000,4.973,5,4138,1002,meters,jsons/v1_VE1000_randls_47.json,892544,1097239,35,Woman
58,404045,DepthScenes,duration_manipulation_targetAtFixation,jsons/v1_VE1000_randls_47.json,http://54.235.29.9/FacialAge/BNav_EC2/DepthDuration/v2_depth_duration_MTurk/v2_DepthDuration_HTML.html#201,201,1364,768,1364,768,8-29-2022,15-37-51,59,depth_duration_stimuli/002414_2014-06-28_20-24-58_260595134347_rgbf000067-resize_4/002414_2014-06-28_20-24-58_260595134347_rgbf000067-resize_4-target.png,1000,4.363,4,4273,999,meters,jsons/v1_VE1000_randls_47.json,892544,1097239,35,Woman
59,404045,DepthScenes,duration_manipulation_targetAtFixation,jsons/v1_VE1000_randls_47.json,http://54.235.29.9/FacialAge/BNav_EC2/DepthDuration/v2_depth_duration_MTurk/v2_DepthDuration_HTML.html#201,201,1364,768,1364,768,8-29-2022,15-37-51,60,depth_duration_stimuli/000368_2014-06-09_15-53-01_260595134347_rgbf000155-resize_2/000368_2014-06-09_15-53-01_260595134347_rgbf000155-resize_2-target.png,1000,2.4859999999999998,4,5219,1000,meters,jsons/v1_VE1000_randls_47.json,892544,1097239,35,Woman
60,404045,DepthScenes,duration_manipulation_targetAtFixation,jsons/v1_VE1000_randls_47.json,http://54.235.29.9/FacialAge/BNav_EC2/DepthDuration/v2_depth_duration_MTurk/v2_DepthDuration_HTML.html#201,201,1364,768,1364,768,8-29-2022,15-37-51,61,depth_duration_stimuli/002678_2014-06-13_16-15-32_094959634447_rgbf000151-resize_6/002678_2014-06-13_16-15-32_094959634447_rgbf000151-resize_6-target.png,1000,2.1830000000000003,5,5757,999,meters,jsons/v1_VE1000_randls_47.json,892544,1097239,35,Woman
61,404045,DepthScenes,duration_manipulation_targetAtFixation,jsons/v1_VE1000_randls_47.json,http://54.235.29.9/FacialAge/BNav_EC2/DepthDuration/v2_depth_duration_MTurk/v2_DepthDuration_HTML.html#201,201,1364,768,1364,768,8-29-2022,15-37-51,62,depth_duration_stimuli/002663_2014-06-13_15-50-26_094959634447_rgbf000075-resize_1/002663_2014-06-13_15-50-26_094959634447_rgbf000075-resize_1-target.png,1000,4.7495,6,4830,999,meters,jsons/v1_VE1000_randls_47.json,892544,1097239,35,Woman
62,404045,DepthScenes,duration_manipulation_targetAtFixation,jsons/v1_VE1000_randls_47.json,http://54.235.29.9/FacialAge/BNav_EC2/DepthDuration/v2_depth_duration_MTurk/v2_DepthDuration_HTML.html#201,201,1364,768,1364,768,8-29-2022,15-37-51,63,depth_duration_stimuli/000409_2014-06-04_19-23-33_260595134347_rgbf000067-resize_0/000409_2014-06-04_19-23-33_260595134347_rgbf000067-resize_0-target.png,1000,3.7335,6,3808,1000,meters,jsons/v1_VE1000_randls_47.json,892544,1097239,35,Woman
63,404045,DepthScenes,duration_manipulation_targetAtFixation,jsons/v1_VE1000_randls_47.json,http://54.235.29.9/FacialAge/BNav_EC2/DepthDuration/v2_depth_duration_MTurk/v2_DepthDuration_HTML.html#201,201,1364,768,1364,768,8-29-2022,15-37-51,64,depth_duration_stimuli/003534_2014-05-22_15-06-10_094959634447_rgbf000102-resize_4/003534_2014-05-22_15-06-10_094959634447_rgbf000102-resize_4-target.png,1000,1.426,2,6515,998,meters,jsons/v1_VE1000_randls_47.json,892544,1097239,35,Woman
64,404045,DepthScenes,duration_manipulation_targetAtFixation,jsons/v1_VE1000_randls_47.json,http://54.235.29.9/FacialAge/BNav_EC2/DepthDuration/v2_depth_duration_MTurk/v2_DepthDuration_HTML.html#201,201,1364,768,1364,768,8-29-2022,15-37-51,65,depth_duration_stimuli/002637_2014-06-24_14-51-13_094959634447_rgbf000066-resize_4/002637_2014-06-24_14-51-13_094959634447_rgbf000066-resize_4-target.png,1000,1.9955,3,4380,999,meters,jsons/v1_VE1000_randls_47.json,892544,1097239,35,Woman
65,404045,DepthScenes,duration_manipulation_targetAtFixation,jsons/v1_VE1000_randls_47.json,http://54.235.29.9/FacialAge/BNav_EC2/DepthDuration/v2_depth_duration_MTurk/v2_DepthDuration_HTML.html#201,201,1364,768,1364,768,8-29-2022,15-37-51,66,depth_duration_stimuli/001222_2014-06-17_16-24-06_260595134347_rgbf000073-resize_0/001222_2014-06-17_16-24-06_260595134347_rgbf000073-resize-original.jpg,1000,1.4385,0,5177,999,meters,jsons/v1_VE1000_randls_47.json,892544,1097239,35,Woman
66,404045,DepthScenes,duration_manipulation_targetAtFixation,jsons/v1_VE1000_randls_47.json,http://54.235.29.9/FacialAge/BNav_EC2/DepthDuration/v2_depth_duration_MTurk/v2_DepthDuration_HTML.html#201,201,1364,768,1364,768,8-29-2022,15-37-51,67,depth_duration_stimuli/002057_2014-06-24_21-00-13_260595134347_rgbf000120-resize_1/002057_2014-06-24_21-00-13_260595134347_rgbf000120-resize_1-target.png,1000,2.967,5,7674,1006,meters,jsons/v1_VE1000_randls_47.json,892544,1097239,35,Woman
67,404045,DepthScenes,duration_manipulation_targetAtFixation,jsons/v1_VE1000_randls_47.json,http://54.235.29.9/FacialAge/BNav_EC2/DepthDuration/v2_depth_duration_MTurk/v2_DepthDuration_HTML.html#201,201,1364,768,1364,768,8-29-2022,15-37-51,68,depth_duration_stimuli/000709_2014-06-08_13-51-55_260595134347_rgbf000068-resize_3/000709_2014-06-08_13-51-55_260595134347_rgbf000068-resize_3-target.png,1000,1.8030000000000002,4,4250,999,meters,jsons/v1_VE1000_randls_47.json,892544,1097239,35,Woman
68,404045,DepthScenes,duration_manipulation_targetAtFixation,jsons/v1_VE1000_randls_47.json,http://54.235.29.9/FacialAge/BNav_EC2/DepthDuration/v2_depth_duration_MTurk/v2_DepthDuration_HTML.html#201,201,1364,768,1364,768,8-29-2022,15-37-51,69,depth_duration_stimuli/001555_2014-06-20_17-12-10_260595134347_rgbf000065-resize_4/001555_2014-06-20_17-12-10_260595134347_rgbf000065-resize_4-target.png,1000,1.633,1,4960,990,meters,jsons/v1_VE1000_randls_47.json,892544,1097239,35,Woman
69,404045,DepthScenes,duration_manipulation_targetAtFixation,jsons/v1_VE1000_randls_47.json,http://54.235.29.9/FacialAge/BNav_EC2/DepthDuration/v2_depth_duration_MTurk/v2_DepthDuration_HTML.html#201,201,1364,768,1364,768,8-29-2022,15-37-51,70,depth_duration_stimuli/000103_2014-05-14_22-01-17_260595134347_rgbf000152-resize_5/000103_2014-05-14_22-01-17_260595134347_rgbf000152-resize_5-target.png,1000,1.993,4,4650,999,meters,jsons/v1_VE1000_randls_47.json,892544,1097239,35,Woman
70,404045,DepthScenes,duration_manipulation_targetAtFixation,jsons/v1_VE1000_randls_47.json,http://54.235.29.9/FacialAge/BNav_EC2/DepthDuration/v2_depth_duration_MTurk/v2_DepthDuration_HTML.html#201,201,1364,768,1364,768,8-29-2022,15-37-51,71,depth_duration_stimuli/001164_2014-06-17_15-35-46_260595134347_rgbf000085-resize_3/001164_2014-06-17_15-35-46_260595134347_rgbf000085-resize_3-target.png,1000,2.354,3,4586,1011,meters,jsons/v1_VE1000_randls_47.json,892544,1097239,35,Woman
71,404045,DepthScenes,duration_manipulation_targetAtFixation,jsons/v1_VE1000_randls_47.json,http://54.235.29.9/FacialAge/BNav_EC2/DepthDuration/v2_depth_duration_MTurk/v2_DepthDuration_HTML.html#201,201,1364,768,1364,768,8-29-2022,15-37-51,72,depth_duration_stimuli/001136_2014-06-17_15-19-41_260595134347_rgbf000076-resize_3/001136_2014-06-17_15-19-41_260595134347_rgbf000076-resize_3-target.png,1000,1.8655,4,4513,998,meters,jsons/v1_VE1000_randls_47.json,892544,1097239,35,Woman
72,404045,DepthScenes,duration_manipulation_targetAtFixation,jsons/v1_VE1000_randls_47.json,http://54.235.29.9/FacialAge/BNav_EC2/DepthDuration/v2_depth_duration_MTurk/v2_DepthDuration_HTML.html#201,201,1364,768,1364,768,8-29-2022,15-37-51,73,depth_duration_stimuli/003292_2014-05-14_21-53-49_094959634447_rgbf000100-resize_2/003292_2014-05-14_21-53-49_094959634447_rgbf000100-resize_2-target.png,1000,3.4815,4,4580,999,meters,jsons/v1_VE1000_randls_47.json,892544,1097239,35,Woman
73,404045,DepthScenes,duration_manipulation_targetAtFixation,jsons/v1_VE1000_randls_47.json,http://54.235.29.9/FacialAge/BNav_EC2/DepthDuration/v2_depth_duration_MTurk/v2_DepthDuration_HTML.html#201,201,1364,768,1364,768,8-29-2022,15-37-51,74,depth_duration_stimuli/002639_2014-06-24_14-51-37_094959634447_rgbf000074-resize_4/002639_2014-06-24_14-51-37_094959634447_rgbf000074-resize_4-target.png,1000,4.0375,6,8189,999,meters,jsons/v1_VE1000_randls_47.json,892544,1097239,35,Woman
74,404045,DepthScenes,duration_manipulation_targetAtFixation,jsons/v1_VE1000_randls_47.json,http://54.235.29.9/FacialAge/BNav_EC2/DepthDuration/v2_depth_duration_MTurk/v2_DepthDuration_HTML.html#201,201,1364,768,1364,768,8-29-2022,15-37-51,75,depth_duration_stimuli/002905_2014-06-03_18-04-43_094959634447_rgbf000151-resize_2/002905_2014-06-03_18-04-43_094959634447_rgbf000151-resize_2-target.png,1000,2.0295,3,5155,988,meters,jsons/v1_VE1000_randls_47.json,892544,1097239,35,Woman
75,404045,DepthScenes,duration_manipulation_targetAtFixation,jsons/v1_VE1000_randls_47.json,http://54.235.29.9/FacialAge/BNav_EC2/DepthDuration/v2_depth_duration_MTurk/v2_DepthDuration_HTML.html#201,201,1364,768,1364,768,8-29-2022,15-37-51,76,depth_duration_stimuli/003423_2014-05-21_10-23-26_094959634447_rgbf002665-resize_2/003423_2014-05-21_10-23-26_094959634447_rgbf002665-resize_2-target.png,1000,3.2575,3,9351,1001,meters,jsons/v1_VE1000_randls_47.json,892544,1097239,35,Woman
76,404045,DepthScenes,duration_manipulation_targetAtFixation,jsons/v1_VE1000_randls_47.json,http://54.235.29.9/FacialAge/BNav_EC2/DepthDuration/v2_depth_duration_MTurk/v2_DepthDuration_HTML.html#201,201,1364,768,1364,768,8-29-2022,15-37-51,77,depth_duration_stimuli/000506_2014-06-08_23-21-00_260595134347_rgbf000070-resize_7/000506_2014-06-08_23-21-00_260595134347_rgbf000070-resize_7-target.png,1000,4.0585,4,4339,998,meters,jsons/v1_VE1000_randls_47.json,892544,1097239,35,Woman
77,404045,DepthScenes,duration_manipulation_targetAtFixation,jsons/v1_VE1000_randls_47.json,http://54.235.29.9/FacialAge/BNav_EC2/DepthDuration/v2_depth_duration_MTurk/v2_DepthDuration_HTML.html#201,201,1364,768,1364,768,8-29-2022,15-37-51,78,depth_duration_stimuli/003079_2014-06-15_15-18-20_094959634447_rgbf000152-resize_8/003079_2014-06-15_15-18-20_094959634447_rgbf000152-resize_8-target.png,1000,2.8775,4,4095,998,meters,jsons/v1_VE1000_randls_47.json,892544,1097239,35,Woman
78,404045,DepthScenes,duration_manipulation_targetAtFixation,jsons/v1_VE1000_randls_47.json,http://54.235.29.9/FacialAge/BNav_EC2/DepthDuration/v2_depth_duration_MTurk/v2_DepthDuration_HTML.html#201,201,1364,768,1364,768,8-29-2022,15-37-51,79,depth_duration_stimuli/002153_2014-06-25_21-27-18_260595134347_rgbf000038-resize_5/002153_2014-06-25_21-27-18_260595134347_rgbf000038-resize_5-target.png,1000,2.505,4,4221,998,meters,jsons/v1_VE1000_randls_47.json,892544,1097239,35,Woman
79,404045,DepthScenes,duration_manipulation_targetAtFixation,jsons/v1_VE1000_randls_47.json,http://54.235.29.9/FacialAge/BNav_EC2/DepthDuration/v2_depth_duration_MTurk/v2_DepthDuration_HTML.html#201,201,1364,768,1364,768,8-29-2022,15-37-51,80,depth_duration_stimuli/002660_2014-06-13_15-44-18_094959634447_rgbf001878-resize_2/002660_2014-06-13_15-44-18_094959634447_rgbf001878-resize_2-target.png,1000,3.576,5,4172,999,meters,jsons/v1_VE1000_randls_47.json,892544,1097239,35,Woman
80,404045,DepthScenes,duration_manipulation_targetAtFixation,jsons/v1_VE1000_randls_47.json,http://54.235.29.9/FacialAge/BNav_EC2/DepthDuration/v2_depth_duration_MTurk/v2_DepthDuration_HTML.html#201,201,1364,768,1364,768,8-29-2022,15-37-51,81,depth_duration_stimuli/001059_2014-06-08_21-53-27_260595134347_rgbf000061-resize_4/001059_2014-06-08_21-53-27_260595134347_rgbf000061-resize_4-target.png,1000,2.4185,3,4904,999,meters,jsons/v1_VE1000_randls_47.json,892544,1097239,35,Woman
81,404045,DepthScenes,duration_manipulation_targetAtFixation,jsons/v1_VE1000_randls_47.json,http://54.235.29.9/FacialAge/BNav_EC2/DepthDuration/v2_depth_duration_MTurk/v2_DepthDuration_HTML.html#201,201,1364,768,1364,768,8-29-2022,15-37-51,82,depth_duration_stimuli/001032_2014-06-08_13-23-17_260595134347_rgbf000021-resize_3/001032_2014-06-08_13-23-17_260595134347_rgbf000021-resize_3-target.png,1000,3.2725,3,4011,999,meters,jsons/v1_VE1000_randls_47.json,892544,1097239,35,Woman
82,404045,DepthScenes,duration_manipulation_targetAtFixation,jsons/v1_VE1000_randls_47.json,http://54.235.29.9/FacialAge/BNav_EC2/DepthDuration/v2_depth_duration_MTurk/v2_DepthDuration_HTML.html#201,201,1364,768,1364,768,8-29-2022,15-37-51,83,depth_duration_stimuli/001808_2014-06-26_20-50-58_260595134347_rgbf000029-resize_1/001808_2014-06-26_20-50-58_260595134347_rgbf000029-resize_1-target.png,1000,4.249,4,3812,999,meters,jsons/v1_VE1000_randls_47.json,892544,1097239,35,Woman
83,404045,DepthScenes,duration_manipulation_targetAtFixation,jsons/v1_VE1000_randls_47.json,http://54.235.29.9/FacialAge/BNav_EC2/DepthDuration/v2_depth_duration_MTurk/v2_DepthDuration_HTML.html#201,201,1364,768,1364,768,8-29-2022,15-37-51,84,depth_duration_stimuli/001815_2014-06-26_20-52-55_260595134347_rgbf000020-resize_0/001815_2014-06-26_20-52-55_260595134347_rgbf000020-resize_0-target.png,1000,3.3865,4,4052,999,meters,jsons/v1_VE1000_randls_47.json,892544,1097239,35,Woman
84,404045,DepthScenes,duration_manipulation_targetAtFixation,jsons/v1_VE1000_randls_47.json,http://54.235.29.9/FacialAge/BNav_EC2/DepthDuration/v2_depth_duration_MTurk/v2_DepthDuration_HTML.html#201,201,1364,768,1364,768,8-29-2022,15-37-51,85,depth_duration_stimuli/001092_2014-06-15_17-34-58_260595134347_rgbf000171-resize_3/001092_2014-06-15_17-34-58_260595134347_rgbf000171-resize_3-target.png,1000,2.6935,5,4817,997,meters,jsons/v1_VE1000_randls_47.json,892544,1097239,35,Woman
85,404045,DepthScenes,duration_manipulation_targetAtFixation,jsons/v1_VE1000_randls_47.json,http://54.235.29.9/FacialAge/BNav_EC2/DepthDuration/v2_depth_duration_MTurk/v2_DepthDuration_HTML.html#201,201,1364,768,1364,768,8-29-2022,15-37-51,86,depth_duration_stimuli/002545_2014-06-24_13-38-53_094959634447_rgbf000080-resize_4/002545_2014-06-24_13-38-53_094959634447_rgbf000080-resize_4-target.png,1000,1.9205,4,4406,1001,meters,jsons/v1_VE1000_randls_47.json,892544,1097239,35,Woman
86,404045,DepthScenes,duration_manipulation_targetAtFixation,jsons/v1_VE1000_randls_47.json,http://54.235.29.9/FacialAge/BNav_EC2/DepthDuration/v2_depth_duration_MTurk/v2_DepthDuration_HTML.html#201,201,1364,768,1364,768,8-29-2022,15-37-51,87,depth_duration_stimuli/000642_2014-06-08_16-59-25_260595134347_rgbf000098-resize_2/000642_2014-06-08_16-59-25_260595134347_rgbf000098-resize_2-target.png,1000,2.8815,3,4396,1000,meters,jsons/v1_VE1000_randls_47.json,892544,1097239,35,Woman
87,404045,DepthScenes,duration_manipulation_targetAtFixation,jsons/v1_VE1000_randls_47.json,http://54.235.29.9/FacialAge/BNav_EC2/DepthDuration/v2_depth_duration_MTurk/v2_DepthDuration_HTML.html#201,201,1364,768,1364,768,8-29-2022,15-37-51,88,depth_duration_stimuli/002425_2014-06-28_20-27-29_260595134347_rgbf000031-resize_8/002425_2014-06-28_20-27-29_260595134347_rgbf000031-resize_8-target.png,1000,3.8960000000000004,6,4017,999,meters,jsons/v1_VE1000_randls_47.json,892544,1097239,35,Woman
88,404045,DepthScenes,duration_manipulation_targetAtFixation,jsons/v1_VE1000_randls_47.json,http://54.235.29.9/FacialAge/BNav_EC2/DepthDuration/v2_depth_duration_MTurk/v2_DepthDuration_HTML.html#201,201,1364,768,1364,768,8-29-2022,15-37-51,89,depth_duration_stimuli/002988_2014-06-15_12-24-20_094959634447_rgbf000150-resize_1/002988_2014-06-15_12-24-20_094959634447_rgbf000150-resize_1-target.png,1000,4.7669999999999995,6,4394,1001,meters,jsons/v1_VE1000_randls_47.json,892544,1097239,35,Woman
89,404045,DepthScenes,duration_manipulation_targetAtFixation,jsons/v1_VE1000_randls_47.json,http://54.235.29.9/FacialAge/BNav_EC2/DepthDuration/v2_depth_duration_MTurk/v2_DepthDuration_HTML.html#201,201,1364,768,1364,768,8-29-2022,15-37-51,90,depth_duration_stimuli/001052_2014-06-08_18-24-54_260595134347_rgbf000130-resize_1/001052_2014-06-08_18-24-54_260595134347_rgbf000130-resize_1-target.png,1000,4.1045,6,4012,1005,meters,jsons/v1_VE1000_randls_47.json,892544,1097239,35,Woman
90,404045,DepthScenes,duration_manipulation_targetAtFixation,jsons/v1_VE1000_randls_47.json,http://54.235.29.9/FacialAge/BNav_EC2/DepthDuration/v2_depth_duration_MTurk/v2_DepthDuration_HTML.html#201,201,1364,768,1364,768,8-29-2022,15-37-51,91,depth_duration_stimuli/000522_2014-06-08_13-35-06_260595134347_rgbf000244-resize_1/000522_2014-06-08_13-35-06_260595134347_rgbf000244-resize_1-target.png,1000,2.3715,1,5966,1008,meters,jsons/v1_VE1000_randls_47.json,892544,1097239,35,Woman
91,404045,DepthScenes,duration_manipulation_targetAtFixation,jsons/v1_VE1000_randls_47.json,http://54.235.29.9/FacialAge/BNav_EC2/DepthDuration/v2_depth_duration_MTurk/v2_DepthDuration_HTML.html#201,201,1364,768,1364,768,8-29-2022,15-37-51,92,depth_duration_stimuli/002949_2014-06-26_15-57-42_094959634447_rgbf000079-resize_1/002949_2014-06-26_15-57-42_094959634447_rgbf000079-resize_1-target.png,1000,1.8915,2,3824,999,meters,jsons/v1_VE1000_randls_47.json,892544,1097239,35,Woman
92,404045,DepthScenes,duration_manipulation_targetAtFixation,jsons/v1_VE1000_randls_47.json,http://54.235.29.9/FacialAge/BNav_EC2/DepthDuration/v2_depth_duration_MTurk/v2_DepthDuration_HTML.html#201,201,1364,768,1364,768,8-29-2022,15-37-51,93,depth_duration_stimuli/001016_2014-06-09_16-16-10_260595134347_rgbf000112-resize_5/001016_2014-06-09_16-16-10_260595134347_rgbf000112-resize_5-target.png,1000,1.6565,2,3892,1003,meters,jsons/v1_VE1000_randls_47.json,892544,1097239,35,Woman
93,404045,DepthScenes,duration_manipulation_targetAtFixation,jsons/v1_VE1000_randls_47.json,http://54.235.29.9/FacialAge/BNav_EC2/DepthDuration/v2_depth_duration_MTurk/v2_DepthDuration_HTML.html#201,201,1364,768,1364,768,8-29-2022,15-37-51,94,depth_duration_stimuli/002340_2014-06-28_20-05-46_260595134347_rgbf000113-resize_0/002340_2014-06-28_20-05-46_260595134347_rgbf000113-resize_0-target.png,1000,2.4735,4,4458,999,meters,jsons/v1_VE1000_randls_47.json,892544,1097239,35,Woman
94,404045,DepthScenes,duration_manipulation_targetAtFixation,jsons/v1_VE1000_randls_47.json,http://54.235.29.9/FacialAge/BNav_EC2/DepthDuration/v2_depth_duration_MTurk/v2_DepthDuration_HTML.html#201,201,1364,768,1364,768,8-29-2022,15-37-51,95,depth_duration_stimuli/001199_2014-06-17_16-03-48_260595134347_rgbf000077-resize_0/001199_2014-06-17_16-03-48_260595134347_rgbf000077-resize_0-target.png,1000,3.4375,4,4371,1010,meters,jsons/v1_VE1000_randls_47.json,892544,1097239,35,Woman
95,404045,DepthScenes,duration_manipulation_targetAtFixation,jsons/v1_VE1000_randls_47.json,http://54.235.29.9/FacialAge/BNav_EC2/DepthDuration/v2_depth_duration_MTurk/v2_DepthDuration_HTML.html#201,201,1364,768,1364,768,8-29-2022,15-37-51,96,depth_duration_stimuli/000502_2014-06-08_23-02-32_260595134347_rgbf000063-resize_4/000502_2014-06-08_23-02-32_260595134347_rgbf000063-resize_4-target.png,1000,2.431,5,4486,999,meters,jsons/v1_VE1000_randls_47.json,892544,1097239,35,Woman
96,404045,DepthScenes,duration_manipulation_targetAtFixation,jsons/v1_VE1000_randls_47.json,http://54.235.29.9/FacialAge/BNav_EC2/DepthDuration/v2_depth_duration_MTurk/v2_DepthDuration_HTML.html#201,201,1364,768,1364,768,8-29-2022,15-37-51,97,depth_duration_stimuli/000692_2014-06-08_13-09-42_260595134347_rgbf000199-resize_2/000692_2014-06-08_13-09-42_260595134347_rgbf000199-resize_2-target.png,1000,3.661,4,4208,999,meters,jsons/v1_VE1000_randls_47.json,892544,1097239,35,Woman
97,404045,DepthScenes,duration_manipulation_targetAtFixation,jsons/v1_VE1000_randls_47.json,http://54.235.29.9/FacialAge/BNav_EC2/DepthDuration/v2_depth_duration_MTurk/v2_DepthDuration_HTML.html#201,201,1364,768,1364,768,8-29-2022,15-37-51,98,depth_duration_stimuli/001094_2014-06-15_17-36-00_260595134347_rgbf000205-resize_0/001094_2014-06-15_17-36-00_260595134347_rgbf000205-resize_0-target.png,1000,4.2175,3,4175,998,meters,jsons/v1_VE1000_randls_47.json,892544,1097239,35,Woman
98,404045,DepthScenes,duration_manipulation_targetAtFixation,jsons/v1_VE1000_randls_47.json,http://54.235.29.9/FacialAge/BNav_EC2/DepthDuration/v2_depth_duration_MTurk/v2_DepthDuration_HTML.html#201,201,1364,768,1364,768,8-29-2022,15-37-51,99,depth_duration_stimuli/001540_2014-06-20_17-01-05_260595134347_rgbf000086-resize_2/001540_2014-06-20_17-01-05_260595134347_rgbf000086-resize-original.jpg,1000,1.459,0,6043,1011,meters,jsons/v1_VE1000_randls_47.json,892544,1097239,35,Woman
99,404045,DepthScenes,duration_manipulation_targetAtFixation,jsons/v1_VE1000_randls_47.json,http://54.235.29.9/FacialAge/BNav_EC2/DepthDuration/v2_depth_duration_MTurk/v2_DepthDuration_HTML.html#201,201,1364,768,1364,768,8-29-2022,15-37-51,100,depth_duration_stimuli/001806_2014-06-26_20-50-20_260595134347_rgbf000091-resize_1/001806_2014-06-26_20-50-20_260595134347_rgbf000091-resize_1-target.png,1000,2.7305,3,6419,1000,meters,jsons/v1_VE1000_randls_47.json,892544,1097239,35,Woman
100,404045,DepthScenes,duration_manipulation_targetAtFixation,jsons/v1_VE1000_randls_47.json,http://54.235.29.9/FacialAge/BNav_EC2/DepthDuration/v2_depth_duration_MTurk/v2_DepthDuration_HTML.html#201,201,1364,768,1364,768,8-29-2022,15-37-51,101,depth_duration_stimuli/001617_2014-06-20_11-35-32_260595134347_rgbf000066-resize_1/001617_2014-06-20_11-35-32_260595134347_rgbf000066-resize_1-target.png,1000,3.7910000000000004,5,5017,983,meters,jsons/v1_VE1000_randls_47.json,892544,1097239,35,Woman
101,404045,DepthScenes,duration_manipulation_targetAtFixation,jsons/v1_VE1000_randls_47.json,http://54.235.29.9/FacialAge/BNav_EC2/DepthDuration/v2_depth_duration_MTurk/v2_DepthDuration_HTML.html#201,201,1364,768,1364,768,8-29-2022,15-37-51,102,depth_duration_stimuli/000486_2014-06-09_20-47-20_260595134347_rgbf000143-resize_2/000486_2014-06-09_20-47-20_260595134347_rgbf000143-resize_2-target.png,1000,4.8325,5,3510,999,meters,jsons/v1_VE1000_randls_47.json,892544,1097239,35,Woman
102,404045,DepthScenes,duration_manipulation_targetAtFixation,jsons/v1_VE1000_randls_47.json,http://54.235.29.9/FacialAge/BNav_EC2/DepthDuration/v2_depth_duration_MTurk/v2_DepthDuration_HTML.html#201,201,1364,768,1364,768,8-29-2022,15-37-51,103,depth_duration_stimuli/003083_2014-06-15_15-21-03_094959634447_rgbf000063-resize_1/003083_2014-06-15_15-21-03_094959634447_rgbf000063-resize_1-target.png,1000,4.1405,6,5890,999,meters,jsons/v1_VE1000_randls_47.json,892544,1097239,35,Woman
103,404045,DepthScenes,duration_manipulation_targetAtFixation,jsons/v1_VE1000_randls_47.json,http://54.235.29.9/FacialAge/BNav_EC2/DepthDuration/v2_depth_duration_MTurk/v2_DepthDuration_HTML.html#201,201,1364,768,1364,768,8-29-2022,15-37-51,104,depth_duration_stimuli/002213_2014-06-28_18-37-58_260595134347_rgbf000055-resize_1/002213_2014-06-28_18-37-58_260595134347_rgbf000055-resize_1-target.png,1000,3.62,6,3420,1013,meters,jsons/v1_VE1000_randls_47.json,892544,1097239,35,Woman
104,404045,DepthScenes,duration_manipulation_targetAtFixation,jsons/v1_VE1000_randls_47.json,http://54.235.29.9/FacialAge/BNav_EC2/DepthDuration/v2_depth_duration_MTurk/v2_DepthDuration_HTML.html#201,201,1364,768,1364,768,8-29-2022,15-37-51,105,depth_duration_stimuli/000691_2014-06-08_13-08-50_260595134347_rgbf000132-resize_3/000691_2014-06-08_13-08-50_260595134347_rgbf000132-resize_3-target.png,1000,4.1530000000000005,6,3912,1008,meters,jsons/v1_VE1000_randls_47.json,892544,1097239,35,Woman
105,404045,DepthScenes,duration_manipulation_targetAtFixation,jsons/v1_VE1000_randls_47.json,http://54.235.29.9/FacialAge/BNav_EC2/DepthDuration/v2_depth_duration_MTurk/v2_DepthDuration_HTML.html#201,201,1364,768,1364,768,8-29-2022,15-37-51,106,depth_duration_stimuli/001029_2014-06-08_13-17-57_260595134347_rgbf000065-resize_1/001029_2014-06-08_13-17-57_260595134347_rgbf000065-resize_1-target.png,1000,3.0835,5,4324,999,meters,jsons/v1_VE1000_randls_47.json,892544,1097239,35,Woman
106,404045,DepthScenes,duration_manipulation_targetAtFixation,jsons/v1_VE1000_randls_47.json,http://54.235.29.9/FacialAge/BNav_EC2/DepthDuration/v2_depth_duration_MTurk/v2_DepthDuration_HTML.html#201,201,1364,768,1364,768,8-29-2022,15-37-51,107,depth_duration_stimuli/000677_2014-06-08_23-10-32_260595134347_rgbf000158-resize_6/000677_2014-06-08_23-10-32_260595134347_rgbf000158-resize_6-target.png,1000,3.556,5,3602,1010,meters,jsons/v1_VE1000_randls_47.json,892544,1097239,35,Woman
107,404045,DepthScenes,duration_manipulation_targetAtFixation,jsons/v1_VE1000_randls_47.json,http://54.235.29.9/FacialAge/BNav_EC2/DepthDuration/v2_depth_duration_MTurk/v2_DepthDuration_HTML.html#201,201,1364,768,1364,768,8-29-2022,15-37-51,108,depth_duration_stimuli/001449_2014-06-19_17-01-27_260595134347_rgbf000116-resize_2/001449_2014-06-19_17-01-27_260595134347_rgbf000116-resize_2-target.png,1000,3.452,4,3790,999,meters,jsons/v1_VE1000_randls_47.json,892544,1097239,35,Woman
108,404045,DepthScenes,duration_manipulation_targetAtFixation,jsons/v1_VE1000_randls_47.json,http://54.235.29.9/FacialAge/BNav_EC2/DepthDuration/v2_depth_duration_MTurk/v2_DepthDuration_HTML.html#201,201,1364,768,1364,768,8-29-2022,15-37-51,109,depth_duration_stimuli/001450_2014-06-19_17-02-03_260595134347_rgbf000203-resize_4/001450_2014-06-19_17-02-03_260595134347_rgbf000203-resize_4-target.png,1000,4.0106666666667,5,3469,1002,meters,jsons/v1_VE1000_randls_47.json,892544,1097239,35,Woman
109,404045,DepthScenes,duration_manipulation_targetAtFixation,jsons/v1_VE1000_randls_47.json,http://54.235.29.9/FacialAge/BNav_EC2/DepthDuration/v2_depth_duration_MTurk/v2_DepthDuration_HTML.html#201,201,1364,768,1364,768,8-29-2022,15-37-51,110,depth_duration_stimuli/000414_2014-06-04_19-49-13_260595134347_rgbf000044-resize_0/000414_2014-06-04_19-49-13_260595134347_rgbf000044-resize_0-target.png,1000,4.329,5,3980,1002,meters,jsons/v1_VE1000_randls_47.json,892544,1097239,35,Woman
110,404045,DepthScenes,duration_manipulation_targetAtFixation,jsons/v1_VE1000_randls_47.json,http://54.235.29.9/FacialAge/BNav_EC2/DepthDuration/v2_depth_duration_MTurk/v2_DepthDuration_HTML.html#201,201,1364,768,1364,768,8-29-2022,15-37-51,111,depth_duration_stimuli/003129_2014-05-12_10-48-10_094959634447_rgbf000100-resize_0/003129_2014-05-12_10-48-10_094959634447_rgbf000100-resize_0-target.png,1000,4.9305,5,3622,999,meters,jsons/v1_VE1000_randls_47.json,892544,1097239,35,Woman
111,404045,DepthScenes,duration_manipulation_targetAtFixation,jsons/v1_VE1000_randls_47.json,http://54.235.29.9/FacialAge/BNav_EC2/DepthDuration/v2_depth_duration_MTurk/v2_DepthDuration_HTML.html#201,201,1364,768,1364,768,8-29-2022,15-37-51,112,depth_duration_stimuli/002600_2014-06-24_14-27-04_094959634447_rgbf000074-resize_2/002600_2014-06-24_14-27-04_094959634447_rgbf000074-resize_2-target.png,1000,2.7575,5,4807,998,meters,jsons/v1_VE1000_randls_47.json,892544,1097239,35,Woman
112,404045,DepthScenes,duration_manipulation_targetAtFixation,jsons/v1_VE1000_randls_47.json,http://54.235.29.9/FacialAge/BNav_EC2/DepthDuration/v2_depth_duration_MTurk/v2_DepthDuration_HTML.html#201,201,1364,768,1364,768,8-29-2022,15-37-51,113,depth_duration_stimuli/003228_2014-05-14_13-42-35_094959634447_rgbf000101-resize_1/003228_2014-05-14_13-42-35_094959634447_rgbf000101-resize_1-target.png,1000,1.9680000000000002,3,6960,999,meters,jsons/v1_VE1000_randls_47.json,892544,1097239,35,Woman
113,404045,DepthScenes,duration_manipulation_targetAtFixation,jsons/v1_VE1000_randls_47.json,http://54.235.29.9/FacialAge/BNav_EC2/DepthDuration/v2_depth_duration_MTurk/v2_DepthDuration_HTML.html#201,201,1364,768,1364,768,8-29-2022,15-37-51,114,depth_duration_stimuli/002725_2014-06-22_11-47-51_094959634447_rgbf000070-resize_1/002725_2014-06-22_11-47-51_094959634447_rgbf000070-resize_1-target.png,1000,2.195,3,4153,1011,meters,jsons/v1_VE1000_randls_47.json,892544,1097239,35,Woman
114,404045,DepthScenes,duration_manipulation_targetAtFixation,jsons/v1_VE1000_randls_47.json,http://54.235.29.9/FacialAge/BNav_EC2/DepthDuration/v2_depth_duration_MTurk/v2_DepthDuration_HTML.html#201,201,1364,768,1364,768,8-29-2022,15-37-51,115,depth_duration_stimuli/002344_2014-06-28_20-06-29_260595134347_rgbf000030-resize_1/002344_2014-06-28_20-06-29_260595134347_rgbf000030-resize_1-target.png,1000,1.5795,3,3987,970,meters,jsons/v1_VE1000_randls_47.json,892544,1097239,35,Woman
115,404045,DepthScenes,duration_manipulation_targetAtFixation,jsons/v1_VE1000_randls_47.json,http://54.235.29.9/FacialAge/BNav_EC2/DepthDuration/v2_depth_duration_MTurk/v2_DepthDuration_HTML.html#201,201,1364,768,1364,768,8-29-2022,15-37-51,116,depth_duration_stimuli/001170_2014-06-17_15-43-44_260595134347_rgbf000096-resize_6/001170_2014-06-17_15-43-44_260595134347_rgbf000096-resize-original.jpg,1000,1.1909999999999998,0,5111,999,meters,jsons/v1_VE1000_randls_47.json,892544,1097239,35,Woman
116,404045,DepthScenes,duration_manipulation_targetAtFixation,jsons/v1_VE1000_randls_47.json,http://54.235.29.9/FacialAge/BNav_EC2/DepthDuration/v2_depth_duration_MTurk/v2_DepthDuration_HTML.html#201,201,1364,768,1364,768,8-29-2022,15-37-51,117,depth_duration_stimuli/000929_2014-06-09_16-33-19_260595134347_rgbf000139-resize_0/000929_2014-06-09_16-33-19_260595134347_rgbf000139-resize_0-target.png,1000,2.8680000000000003,4,4625,986,meters,jsons/v1_VE1000_randls_47.json,892544,1097239,35,Woman
117,404045,DepthScenes,duration_manipulation_targetAtFixation,jsons/v1_VE1000_randls_47.json,http://54.235.29.9/FacialAge/BNav_EC2/DepthDuration/v2_depth_duration_MTurk/v2_DepthDuration_HTML.html#201,201,1364,768,1364,768,8-29-2022,15-37-51,118,depth_duration_stimuli/000457_2014-06-08_16-52-43_260595134347_rgbf000199-resize_1/000457_2014-06-08_16-52-43_260595134347_rgbf000199-resize_1-target.png,1000,3.6489999999999996,5,3851,999,meters,jsons/v1_VE1000_randls_47.json,892544,1097239,35,Woman
118,404045,DepthScenes,duration_manipulation_targetAtFixation,jsons/v1_VE1000_randls_47.json,http://54.235.29.9/FacialAge/BNav_EC2/DepthDuration/v2_depth_duration_MTurk/v2_DepthDuration_HTML.html#201,201,1364,768,1364,768,8-29-2022,15-37-51,119,depth_duration_stimuli/001011_2014-06-08_23-18-54_260595134347_rgbf000044-resize_4/001011_2014-06-08_23-18-54_260595134347_rgbf000044-resize_4-target.png,1000,2.4730000000000003,5,3724,998,meters,jsons/v1_VE1000_randls_47.json,892544,1097239,35,Woman
119,404045,DepthScenes,duration_manipulation_targetAtFixation,jsons/v1_VE1000_randls_47.json,http://54.235.29.9/FacialAge/BNav_EC2/DepthDuration/v2_depth_duration_MTurk/v2_DepthDuration_HTML.html#201,201,1364,768,1364,768,8-29-2022,15-37-51,120,depth_duration_stimuli/002875_2014-06-01_15-19-00_094959634447_rgbf000151-resize_1/002875_2014-06-01_15-19-00_094959634447_rgbf000151-resize_1-target.png,1000,1.9675,2,7459,1000,meters,jsons/v1_VE1000_randls_47.json,892544,1097239,35,Woman
120,404045,DepthScenes,duration_manipulation_targetAtFixation,jsons/v1_VE1000_randls_47.json,http://54.235.29.9/FacialAge/BNav_EC2/DepthDuration/v2_depth_duration_MTurk/v2_DepthDuration_HTML.html#201,201,1364,768,1364,768,8-29-2022,15-37-51,121,depth_duration_stimuli/000493_2014-06-09_21-01-18_260595134347_rgbf000196-resize_3/000493_2014-06-09_21-01-18_260595134347_rgbf000196-resize_3-target.png,1000,3.44,4,5432,992,meters,jsons/v1_VE1000_randls_47.json,892544,1097239,35,Woman
121,404045,DepthScenes,duration_manipulation_targetAtFixation,jsons/v1_VE1000_randls_47.json,http://54.235.29.9/FacialAge/BNav_EC2/DepthDuration/v2_depth_duration_MTurk/v2_DepthDuration_HTML.html#201,201,1364,768,1364,768,8-29-2022,15-37-51,122,depth_duration_stimuli/000191_2014-05-12_17-07-38_260595134347_rgbf000199-resize_0/000191_2014-05-12_17-07-38_260595134347_rgbf000199-resize_0-target.png,1000,3.7995,4,3961,1001,meters,jsons/v1_VE1000_randls_47.json,892544,1097239,35,Woman
122,404045,DepthScenes,duration_manipulation_targetAtFixation,jsons/v1_VE1000_randls_47.json,http://54.235.29.9/FacialAge/BNav_EC2/DepthDuration/v2_depth_duration_MTurk/v2_DepthDuration_HTML.html#201,201,1364,768,1364,768,8-29-2022,15-37-51,123,depth_duration_stimuli/000447_2014-06-08_16-15-46_260595134347_rgbf000130-resize_1/000447_2014-06-08_16-15-46_260595134347_rgbf000130-resize_1-target.png,1000,4.479,5,5127,997,meters,jsons/v1_VE1000_randls_47.json,892544,1097239,35,Woman
123,404045,DepthScenes,duration_manipulation_targetAtFixation,jsons/v1_VE1000_randls_47.json,http://54.235.29.9/FacialAge/BNav_EC2/DepthDuration/v2_depth_duration_MTurk/v2_DepthDuration_HTML.html#201,201,1364,768,1364,768,8-29-2022,15-37-51,124,depth_duration_stimuli/001447_2014-06-19_17-00-32_260595134347_rgbf000082-resize_5/001447_2014-06-19_17-00-32_260595134347_rgbf000082-resize_5-target.png,1000,4.13775,4,4897,997,meters,jsons/v1_VE1000_randls_47.json,892544,1097239,35,Woman
124,404045,DepthScenes,duration_manipulation_targetAtFixation,jsons/v1_VE1000_randls_47.json,http://54.235.29.9/FacialAge/BNav_EC2/DepthDuration/v2_depth_duration_MTurk/v2_DepthDuration_HTML.html#201,201,1364,768,1364,768,8-29-2022,15-37-51,125,depth_duration_stimuli/001417_2014-06-19_16-25-36_260595134347_rgbf000115-resize_5/001417_2014-06-19_16-25-36_260595134347_rgbf000115-resize_5-target.png,1000,4.6255,4,5298,998,meters,jsons/v1_VE1000_randls_47.json,892544,1097239,35,Woman
125,404045,DepthScenes,duration_manipulation_targetAtFixation,jsons/v1_VE1000_randls_47.json,http://54.235.29.9/FacialAge/BNav_EC2/DepthDuration/v2_depth_duration_MTurk/v2_DepthDuration_HTML.html#201,201,1364,768,1364,768,8-29-2022,15-37-51,126,depth_duration_stimuli/003081_2014-06-15_15-19-16_094959634447_rgbf000150-resize_1/003081_2014-06-15_15-19-16_094959634447_rgbf000150-resize_1-target.png,1000,3.9125,5,4923,999,meters,jsons/v1_VE1000_randls_47.json,892544,1097239,35,Woman
126,404045,DepthScenes,duration_manipulation_targetAtFixation,jsons/v1_VE1000_randls_47.json,http://54.235.29.9/FacialAge/BNav_EC2/DepthDuration/v2_depth_duration_MTurk/v2_DepthDuration_HTML.html#201,201,1364,768,1364,768,8-29-2022,15-37-51,127,depth_duration_stimuli/003492_2014-05-21_15-50-55_094959634447_rgbf000828-resize_1/003492_2014-05-21_15-50-55_094959634447_rgbf000828-resize_1-target.png,1000,4.06875,6,5195,996,meters,jsons/v1_VE1000_randls_47.json,892544,1097239,35,Woman
127,404045,DepthScenes,duration_manipulation_targetAtFixation,jsons/v1_VE1000_randls_47.json,http://54.235.29.9/FacialAge/BNav_EC2/DepthDuration/v2_depth_duration_MTurk/v2_DepthDuration_HTML.html#201,201,1364,768,1364,768,8-29-2022,15-37-51,128,depth_duration_stimuli/002568_2014-06-24_13-59-21_094959634447_rgbf000062-resize_4/002568_2014-06-24_13-59-21_094959634447_rgbf000062-resize_4-target.png,1000,3.015,4,4713,998,meters,jsons/v1_VE1000_randls_47.json,892544,1097239,35,Woman
128,404045,DepthScenes,duration_manipulation_targetAtFixation,jsons/v1_VE1000_randls_47.json,http://54.235.29.9/FacialAge/BNav_EC2/DepthDuration/v2_depth_duration_MTurk/v2_DepthDuration_HTML.html#201,201,1364,768,1364,768,8-29-2022,15-37-51,129,depth_duration_stimuli/000906_2014-06-08_13-35-43_260595134347_rgbf000155-resize_1/000906_2014-06-08_13-35-43_260595134347_rgbf000155-resize_1-target.png,1000,2.8489999999999998,4,4477,999,meters,jsons/v1_VE1000_randls_47.json,892544,1097239,35,Woman
129,404045,DepthScenes,duration_manipulation_targetAtFixation,jsons/v1_VE1000_randls_47.json,http://54.235.29.9/FacialAge/BNav_EC2/DepthDuration/v2_depth_duration_MTurk/v2_DepthDuration_HTML.html#201,201,1364,768,1364,768,8-29-2022,15-37-51,130,depth_duration_stimuli/002805_2014-06-22_19-54-03_094959634447_rgbf000079-resize_1/002805_2014-06-22_19-54-03_094959634447_rgbf000079-resize_1-target.png,1000,3.1439999999999997,4,5816,999,meters,jsons/v1_VE1000_randls_47.json,892544,1097239,35,Woman
130,404045,DepthScenes,duration_manipulation_targetAtFixation,jsons/v1_VE1000_randls_47.json,http://54.235.29.9/FacialAge/BNav_EC2/DepthDuration/v2_depth_duration_MTurk/v2_DepthDuration_HTML.html#201,201,1364,768,1364,768,8-29-2022,15-37-51,131,depth_duration_stimuli/002989_2014-06-15_12-25-03_094959634447_rgbf000150-resize_3/002989_2014-06-15_12-25-03_094959634447_rgbf000150-resize_3-target.png,1000,4.1975,4,4825,999,meters,jsons/v1_VE1000_randls_47.json,892544,1097239,35,Woman
131,404045,DepthScenes,duration_manipulation_targetAtFixation,jsons/v1_VE1000_randls_47.json,http://54.235.29.9/FacialAge/BNav_EC2/DepthDuration/v2_depth_duration_MTurk/v2_DepthDuration_HTML.html#201,201,1364,768,1364,768,8-29-2022,15-37-51,132,depth_duration_stimuli/000866_2014-06-09_20-45-42_260595134347_rgbf000139-resize_1/000866_2014-06-09_20-45-42_260595134347_rgbf000139-resize_1-target.png,1000,3.2155,2,5021,1013,meters,jsons/v1_VE1000_randls_47.json,892544,1097239,35,Woman
132,404045,DepthScenes,duration_manipulation_targetAtFixation,jsons/v1_VE1000_randls_47.json,http://54.235.29.9/FacialAge/BNav_EC2/DepthDuration/v2_depth_duration_MTurk/v2_DepthDuration_HTML.html#201,201,1364,768,1364,768,8-29-2022,15-37-51,133,depth_duration_stimuli/002043_2014-06-24_20-29-38_260595134347_rgbf000039-resize_4/002043_2014-06-24_20-29-38_260595134347_rgbf000039-resize_4-target.png,1000,2.8435,2,4855,999,meters,jsons/v1_VE1000_randls_47.json,892544,1097239,35,Woman
133,404045,DepthScenes,duration_manipulation_targetAtFixation,jsons/v1_VE1000_randls_47.json,http://54.235.29.9/FacialAge/BNav_EC2/DepthDuration/v2_depth_duration_MTurk/v2_DepthDuration_HTML.html#201,201,1364,768,1364,768,8-29-2022,15-37-51,134,depth_duration_stimuli/003048_2014-06-15_13-49-43_094959634447_rgbf000150-resize_1/003048_2014-06-15_13-49-43_094959634447_rgbf000150-resize_1-target.png,1000,4.0035,5,4025,1000,meters,jsons/v1_VE1000_randls_47.json,892544,1097239,35,Woman
134,404045,DepthScenes,duration_manipulation_targetAtFixation,jsons/v1_VE1000_randls_47.json,http://54.235.29.9/FacialAge/BNav_EC2/DepthDuration/v2_depth_duration_MTurk/v2_DepthDuration_HTML.html#201,201,1364,768,1364,768,8-29-2022,15-37-51,135,depth_duration_stimuli/002072_2014-06-24_21-48-06_260595134347_rgbf000115-resize_0/002072_2014-06-24_21-48-06_260595134347_rgbf000115-resize-original.jpg,1000,4.702,0,5181,999,meters,jsons/v1_VE1000_randls_47.json,892544,1097239,35,Woman
135,404045,DepthScenes,duration_manipulation_targetAtFixation,jsons/v1_VE1000_randls_47.json,http://54.235.29.9/FacialAge/BNav_EC2/DepthDuration/v2_depth_duration_MTurk/v2_DepthDuration_HTML.html#201,201,1364,768,1364,768,8-29-2022,15-37-51,136,depth_duration_stimuli/000469_2014-06-09_19-42-10_260595134347_rgbf000081-resize_1/000469_2014-06-09_19-42-10_260595134347_rgbf000081-resize_1-target.png,1000,1.652,2,4880,999,meters,jsons/v1_VE1000_randls_47.json,892544,1097239,35,Woman
136,404045,DepthScenes,duration_manipulation_targetAtFixation,jsons/v1_VE1000_randls_47.json,http://54.235.29.9/FacialAge/BNav_EC2/DepthDuration/v2_depth_duration_MTurk/v2_DepthDuration_HTML.html#201,201,1364,768,1364,768,8-29-2022,15-37-51,137,depth_duration_stimuli/000483_2014-06-09_20-41-45_260595134347_rgbf000116-resize_4/000483_2014-06-09_20-41-45_260595134347_rgbf000116-resize_4-target.png,1000,1.337,2,4105,991,meters,jsons/v1_VE1000_randls_47.json,892544,1097239,35,Woman
137,404045,DepthScenes,duration_manipulation_targetAtFixation,jsons/v1_VE1000_randls_47.json,http://54.235.29.9/FacialAge/BNav_EC2/DepthDuration/v2_depth_duration_MTurk/v2_DepthDuration_HTML.html#201,201,1364,768,1364,768,8-29-2022,15-37-51,138,depth_duration_stimuli/001244_2014-06-17_16-47-45_260595134347_rgbf000030-resize_4/001244_2014-06-17_16-47-45_260595134347_rgbf000030-resize_4-target.png,1000,2.0425,3,3827,998,meters,jsons/v1_VE1000_randls_47.json,892544,1097239,35,Woman
138,404045,DepthScenes,duration_manipulation_targetAtFixation,jsons/v1_VE1000_randls_47.json,http://54.235.29.9/FacialAge/BNav_EC2/DepthDuration/v2_depth_duration_MTurk/v2_DepthDuration_HTML.html#201,201,1364,768,1364,768,8-29-2022,15-37-51,139,depth_duration_stimuli/003495_2014-05-21_16-01-51_094959634447_rgbf000100-resize_3/003495_2014-05-21_16-01-51_094959634447_rgbf000100-resize_3-target.png,1000,1.6255,3,3456,1003,meters,jsons/v1_VE1000_randls_47.json,892544,1097239,35,Woman
139,404045,DepthScenes,duration_manipulation_targetAtFixation,jsons/v1_VE1000_randls_47.json,http://54.235.29.9/FacialAge/BNav_EC2/DepthDuration/v2_depth_duration_MTurk/v2_DepthDuration_HTML.html#201,201,1364,768,1364,768,8-29-2022,15-37-51,140,depth_duration_stimuli/000810_2014-06-08_17-20-01_260595134347_rgbf000105-resize_0/000810_2014-06-08_17-20-01_260595134347_rgbf000105-resize_0-target.png,1000,1.4865,2,6951,998,meters,jsons/v1_VE1000_randls_47.json,892544,1097239,35,Woman
140,404045,DepthScenes,duration_manipulation_targetAtFixation,jsons/v1_VE1000_randls_47.json,http://54.235.29.9/FacialAge/BNav_EC2/DepthDuration/v2_depth_duration_MTurk/v2_DepthDuration_HTML.html#201,201,1364,768,1364,768,8-29-2022,15-37-51,141,depth_duration_stimuli/001214_2014-06-17_16-13-55_260595134347_rgbf000111-resize_0/001214_2014-06-17_16-13-55_260595134347_rgbf000111-resize_0-target.png,1000,2.6505,3,4091,1000,meters,jsons/v1_VE1000_randls_47.json,892544,1097239,35,Woman
141,404045,DepthScenes,duration_manipulation_targetAtFixation,jsons/v1_VE1000_randls_47.json,http://54.235.29.9/FacialAge/BNav_EC2/DepthDuration/v2_depth_duration_MTurk/v2_DepthDuration_HTML.html#201,201,1364,768,1364,768,8-29-2022,15-37-51,142,depth_duration_stimuli/002784_2014-06-22_19-26-30_094959634447_rgbf000083-resize_3/002784_2014-06-22_19-26-30_094959634447_rgbf000083-resize_3-target.png,1000,1.8046666666667,2,4297,1002,meters,jsons/v1_VE1000_randls_47.json,892544,1097239,35,Woman
142,404045,DepthScenes,duration_manipulation_targetAtFixation,jsons/v1_VE1000_randls_47.json,http://54.235.29.9/FacialAge/BNav_EC2/DepthDuration/v2_depth_duration_MTurk/v2_DepthDuration_HTML.html#201,201,1364,768,1364,768,8-29-2022,15-37-51,143,depth_duration_stimuli/001100_2014-06-15_17-46-26_260595134347_rgbf000225-resize_2/001100_2014-06-15_17-46-26_260595134347_rgbf000225-resize_2-target.png,1000,2.24,2,3635,999,meters,jsons/v1_VE1000_randls_47.json,892544,1097239,35,Woman
143,404045,DepthScenes,duration_manipulation_targetAtFixation,jsons/v1_VE1000_randls_47.json,http://54.235.29.9/FacialAge/BNav_EC2/DepthDuration/v2_depth_duration_MTurk/v2_DepthDuration_HTML.html#201,201,1364,768,1364,768,8-29-2022,15-37-51,144,depth_duration_stimuli/002375_2014-06-28_20-13-44_260595134347_rgbf000032-resize_1/002375_2014-06-28_20-13-44_260595134347_rgbf000032-resize_1-target.png,1000,4.0175,3,4436,1005,meters,jsons/v1_VE1000_randls_47.json,892544,1097239,35,Woman
144,404045,DepthScenes,duration_manipulation_targetAtFixation,jsons/v1_VE1000_randls_47.json,http://54.235.29.9/FacialAge/BNav_EC2/DepthDuration/v2_depth_duration_MTurk/v2_DepthDuration_HTML.html#201,201,1364,768,1364,768,8-29-2022,15-37-51,145,depth_duration_stimuli/002657_2014-06-13_15-29-54_094959634447_rgbf000150-resize_1/002657_2014-06-13_15-29-54_094959634447_rgbf000150-resize_1-target.png,1000,4.919,4,5901,998,meters,jsons/v1_VE1000_randls_47.json,892544,1097239,35,Woman
145,404045,DepthScenes,duration_manipulation_targetAtFixation,jsons/v1_VE1000_randls_47.json,http://54.235.29.9/FacialAge/BNav_EC2/DepthDuration/v2_depth_duration_MTurk/v2_DepthDuration_HTML.html#201,201,1364,768,1364,768,8-29-2022,15-37-51,146,depth_duration_stimuli/001498_2014-06-19_17-45-14_260595134347_rgbf000129-resize_4/001498_2014-06-19_17-45-14_260595134347_rgbf000129-resize-original.jpg,1000,1.4075,0,7364,999,meters,jsons/v1_VE1000_randls_47.json,892544,1097239,35,Woman
146,404045,DepthScenes,duration_manipulation_targetAtFixation,jsons/v1_VE1000_randls_47.json,http://54.235.29.9/FacialAge/BNav_EC2/DepthDuration/v2_depth_duration_MTurk/v2_DepthDuration_HTML.html#201,201,1364,768,1364,768,8-29-2022,15-37-51,147,depth_duration_stimuli/002763_2014-06-22_19-13-10_094959634447_rgbf000075-resize_4/002763_2014-06-22_19-13-10_094959634447_rgbf000075-resize_4-target.png,1000,1.68375,3,6349,1014,meters,jsons/v1_VE1000_randls_47.json,892544,1097239,35,Woman
147,404045,DepthScenes,duration_manipulation_targetAtFixation,jsons/v1_VE1000_randls_47.json,http://54.235.29.9/FacialAge/BNav_EC2/DepthDuration/v2_depth_duration_MTurk/v2_DepthDuration_HTML.html#201,201,1364,768,1364,768,8-29-2022,15-37-51,148,depth_duration_stimuli/002209_2014-06-28_18-36-10_260595134347_rgbf000051-resize_1/002209_2014-06-28_18-36-10_260595134347_rgbf000051-resize_1-target.png,1000,2.057,3,3756,999,meters,jsons/v1_VE1000_randls_47.json,892544,1097239,35,Woman
148,404045,DepthScenes,duration_manipulation_targetAtFixation,jsons/v1_VE1000_randls_47.json,http://54.235.29.9/FacialAge/BNav_EC2/DepthDuration/v2_depth_duration_MTurk/v2_DepthDuration_HTML.html#201,201,1364,768,1364,768,8-29-2022,15-37-51,149,depth_duration_stimuli/001810_2014-06-26_20-51-35_260595134347_rgbf000040-resize_3/001810_2014-06-26_20-51-35_260595134347_rgbf000040-resize_3-target.png,1000,2.2525,4,3998,999,meters,jsons/v1_VE1000_randls_47.json,892544,1097239,35,Woman
149,404045,DepthScenes,duration_manipulation_targetAtFixation,jsons/v1_VE1000_randls_47.json,http://54.235.29.9/FacialAge/BNav_EC2/DepthDuration/v2_depth_duration_MTurk/v2_DepthDuration_HTML.html#201,201,1364,768,1364,768,8-29-2022,15-37-51,150,depth_duration_stimuli/003010_2014-06-15_12-54-35_094959634447_rgbf000112-resize_0/003010_2014-06-15_12-54-35_094959634447_rgbf000112-resize_0-target.png,1000,3.1185,5,5059,1000,meters,jsons/v1_VE1000_randls_47.json,892544,1097239,35,Woman
150,404045,DepthScenes,duration_manipulation_targetAtFixation,jsons/v1_VE1000_randls_47.json,http://54.235.29.9/FacialAge/BNav_EC2/DepthDuration/v2_depth_duration_MTurk/v2_DepthDuration_HTML.html#201,201,1364,768,1364,768,8-29-2022,15-37-51,151,depth_duration_stimuli/001175_2014-06-17_15-45-55_260595134347_rgbf000129-resize_4/001175_2014-06-17_15-45-55_260595134347_rgbf000129-resize_4-target.png,1000,4.255,4,3888,999,meters,jsons/v1_VE1000_randls_47.json,892544,1097239,35,Woman
151,404045,DepthScenes,duration_manipulation_targetAtFixation,jsons/v1_VE1000_randls_47.json,http://54.235.29.9/FacialAge/BNav_EC2/DepthDuration/v2_depth_duration_MTurk/v2_DepthDuration_HTML.html#201,201,1364,768,1364,768,8-29-2022,15-37-51,152,depth_duration_stimuli/003490_2014-05-21_15-50-11_094959634447_rgbf000101-resize_3/003490_2014-05-21_15-50-11_094959634447_rgbf000101-resize_3-target.png,1000,3.6445,4,3765,1002,meters,jsons/v1_VE1000_randls_47.json,892544,1097239,35,Woman
152,404045,DepthScenes,duration_manipulation_targetAtFixation,jsons/v1_VE1000_randls_47.json,http://54.235.29.9/FacialAge/BNav_EC2/DepthDuration/v2_depth_duration_MTurk/v2_DepthDuration_HTML.html#201,201,1364,768,1364,768,8-29-2022,15-37-51,153,depth_duration_stimuli/001055_2014-06-08_18-45-35_260595134347_rgbf000111-resize_4/001055_2014-06-08_18-45-35_260595134347_rgbf000111-resize_4-target.png,1000,2.4290000000000003,4,3569,998,meters,jsons/v1_VE1000_randls_47.json,892544,1097239,35,Woman
153,404045,DepthScenes,duration_manipulation_targetAtFixation,jsons/v1_VE1000_randls_47.json,http://54.235.29.9/FacialAge/BNav_EC2/DepthDuration/v2_depth_duration_MTurk/v2_DepthDuration_HTML.html#201,201,1364,768,1364,768,8-29-2022,15-37-51,154,depth_duration_stimuli/000549_2014-06-08_22-10-24_260595134347_rgbf000247-resize_3/000549_2014-06-08_22-10-24_260595134347_rgbf000247-resize_3-target.png,1000,1.841,4,3855,997,meters,jsons/v1_VE1000_randls_47.json,892544,1097239,35,Woman
154,404045,DepthScenes,duration_manipulation_targetAtFixation,jsons/v1_VE1000_randls_47.json,http://54.235.29.9/FacialAge/BNav_EC2/DepthDuration/v2_depth_duration_MTurk/v2_DepthDuration_HTML.html#201,201,1364,768,1364,768,8-29-2022,15-37-51,155,depth_duration_stimuli/000470_2014-06-09_19-42-40_260595134347_rgbf000094-resize_1/000470_2014-06-09_19-42-40_260595134347_rgbf000094-resize_1-target.png,1000,1.831,3,4018,998,meters,jsons/v1_VE1000_randls_47.json,892544,1097239,35,Woman
155,404045,DepthScenes,duration_manipulation_targetAtFixation,jsons/v1_VE1000_randls_47.json,http://54.235.29.9/FacialAge/BNav_EC2/DepthDuration/v2_depth_duration_MTurk/v2_DepthDuration_HTML.html#201,201,1364,768,1364,768,8-29-2022,15-37-51,156,depth_duration_stimuli/000109_2014-05-14_23-41-52_260595134347_rgbf000035-resize_9/000109_2014-05-14_23-41-52_260595134347_rgbf000035-resize_9-target.png,1000,1.3545,3,4107,1000,meters,jsons/v1_VE1000_randls_47.json,892544,1097239,35,Woman
156,404045,DepthScenes,duration_manipulation_targetAtFixation,jsons/v1_VE1000_randls_47.json,http://54.235.29.9/FacialAge/BNav_EC2/DepthDuration/v2_depth_duration_MTurk/v2_DepthDuration_HTML.html#201,201,1364,768,1364,768,8-29-2022,15-37-51,157,depth_duration_stimuli/001056_2014-06-08_18-46-44_260595134347_rgbf000068-resize_0/001056_2014-06-08_18-46-44_260595134347_rgbf000068-resize_0-target.png,1000,2.6625,3,3776,996,meters,jsons/v1_VE1000_randls_47.json,892544,1097239,35,Woman
157,404045,DepthScenes,duration_manipulation_targetAtFixation,jsons/v1_VE1000_randls_47.json,http://54.235.29.9/FacialAge/BNav_EC2/DepthDuration/v2_depth_duration_MTurk/v2_DepthDuration_HTML.html#201,201,1364,768,1364,768,8-29-2022,15-37-51,158,depth_duration_stimuli/002199_2014-06-28_18-33-56_260595134347_rgbf000074-resize_0/002199_2014-06-28_18-33-56_260595134347_rgbf000074-resize_0-target.png,1000,1.996,3,3782,998,meters,jsons/v1_VE1000_randls_47.json,892544,1097239,35,Woman
158,404045,DepthScenes,duration_manipulation_targetAtFixation,jsons/v1_VE1000_randls_47.json,http://54.235.29.9/FacialAge/BNav_EC2/DepthDuration/v2_depth_duration_MTurk/v2_DepthDuration_HTML.html#201,201,1364,768,1364,768,8-29-2022,15-37-51,159,depth_duration_stimuli/002570_2014-06-24_13-59-54_094959634447_rgbf000059-resize_0/002570_2014-06-24_13-59-54_094959634447_rgbf000059-resize_0-target.png,1000,4.037,4,6435,999,meters,jsons/v1_VE1000_randls_47.json,892544,1097239,35,Woman
159,404045,DepthScenes,duration_manipulation_targetAtFixation,jsons/v1_VE1000_randls_47.json,http://54.235.29.9/FacialAge/BNav_EC2/DepthDuration/v2_depth_duration_MTurk/v2_DepthDuration_HTML.html#201,201,1364,768,1364,768,8-29-2022,15-37-51,160,depth_duration_stimuli/002467_2014-06-28_20-38-07_260595134347_rgbf000026-resize_2/002467_2014-06-28_20-38-07_260595134347_rgbf000026-resize_2-target.png,1000,4.742,4,6770,999,meters,jsons/v1_VE1000_randls_47.json,892544,1097239,35,Woman
160,404045,DepthScenes,duration_manipulation_targetAtFixation,jsons/v1_VE1000_randls_47.json,http://54.235.29.9/FacialAge/BNav_EC2/DepthDuration/v2_depth_duration_MTurk/v2_DepthDuration_HTML.html#201,201,1364,768,1364,768,8-29-2022,15-37-51,161,depth_duration_stimuli/001150_2014-06-17_15-27-34_260595134347_rgbf000108-resize_2/001150_2014-06-17_15-27-34_260595134347_rgbf000108-resize_2-target.png,1000,4.0325,4,5641,986,meters,jsons/v1_VE1000_randls_47.json,892544,1097239,35,Woman
161,404045,DepthScenes,duration_manipulation_targetAtFixation,jsons/v1_VE1000_randls_47.json,http://54.235.29.9/FacialAge/BNav_EC2/DepthDuration/v2_depth_duration_MTurk/v2_DepthDuration_HTML.html#201,201,1364,768,1364,768,8-29-2022,15-37-51,162,depth_duration_stimuli/000665_2014-06-09_20-42-35_260595134347_rgbf000110-resize_1/000665_2014-06-09_20-42-35_260595134347_rgbf000110-resize_1-target.png,1000,3.057,4,5261,988,meters,jsons/v1_VE1000_randls_47.json,892544,1097239,35,Woman
162,404045,DepthScenes,duration_manipulation_targetAtFixation,jsons/v1_VE1000_randls_47.json,http://54.235.29.9/FacialAge/BNav_EC2/DepthDuration/v2_depth_duration_MTurk/v2_DepthDuration_HTML.html#201,201,1364,768,1364,768,8-29-2022,15-37-51,163,depth_duration_stimuli/000009_2014-05-26_14-32-05_260595134347_rgbf000034-resize_3/000009_2014-05-26_14-32-05_260595134347_rgbf000034-resize_3-target.png,1000,3.8715,4,5490,1003,meters,jsons/v1_VE1000_randls_47.json,892544,1097239,35,Woman
163,404045,DepthScenes,duration_manipulation_targetAtFixation,jsons/v1_VE1000_randls_47.json,http://54.235.29.9/FacialAge/BNav_EC2/DepthDuration/v2_depth_duration_MTurk/v2_DepthDuration_HTML.html#201,201,1364,768,1364,768,8-29-2022,15-37-51,164,depth_duration_stimuli/001828_2014-06-26_21-40-03_260595134347_rgbf000024-resize_0/001828_2014-06-26_21-40-03_260595134347_rgbf000024-resize_0-target.png,1000,4.8260000000000005,5,5163,1010,meters,jsons/v1_VE1000_randls_47.json,892544,1097239,35,Woman
