,subjID,experimentName,versionName,sequenceName,url,selected_row,windowWidth,windowHeight,screenWidth,screenHeight,startDate,startTime,trial,stimulus,duration,actual_depth,depth_estimate,trial_RT,log_sceneDuration,unitSelection,seq_filepath,experimentTime,totalTime,age,gender
0,408658,DepthScenes,duration_manipulation_targetAtFixation,jsons/v1_VE250_randls_43.json,http://54.235.29.9/FacialAge/BNav_EC2/DepthDuration/v2_depth_duration_MTurk/v2_DepthDuration_HTML.html#47,47,1366,657,1366,768,9-18-2022,12-20-14,1,depth_duration_stimuli/001092_2014-06-15_17-34-58_260595134347_rgbf000171-resize_3/001092_2014-06-15_17-34-58_260595134347_rgbf000171-resize_3-target.png,250,2.6935,1.5,10408,249,feet,jsons/v1_VE250_randls_43.json,1824428,2868381,28,Woman
1,408658,DepthScenes,duration_manipulation_targetAtFixation,jsons/v1_VE250_randls_43.json,http://54.235.29.9/FacialAge/BNav_EC2/DepthDuration/v2_depth_duration_MTurk/v2_DepthDuration_HTML.html#47,47,1366,657,1366,768,9-18-2022,12-20-14,2,depth_duration_stimuli/002545_2014-06-24_13-38-53_094959634447_rgbf000080-resize_4/002545_2014-06-24_13-38-53_094959634447_rgbf000080-resize_4-target.png,250,1.9205,2.0,8559,250,feet,jsons/v1_VE250_randls_43.json,1824428,2868381,28,Woman
2,408658,DepthScenes,duration_manipulation_targetAtFixation,jsons/v1_VE250_randls_43.json,http://54.235.29.9/FacialAge/BNav_EC2/DepthDuration/v2_depth_duration_MTurk/v2_DepthDuration_HTML.html#47,47,1366,657,1366,768,9-18-2022,12-20-14,3,depth_duration_stimuli/000368_2014-06-09_15-53-01_260595134347_rgbf000155-resize_2/000368_2014-06-09_15-53-01_260595134347_rgbf000155-resize_2-target.png,250,2.4859999999999998,1.3,9396,250,feet,jsons/v1_VE250_randls_43.json,1824428,2868381,28,Woman
3,408658,DepthScenes,duration_manipulation_targetAtFixation,jsons/v1_VE250_randls_43.json,http://54.235.29.9/FacialAge/BNav_EC2/DepthDuration/v2_depth_duration_MTurk/v2_DepthDuration_HTML.html#47,47,1366,657,1366,768,9-18-2022,12-20-14,4,depth_duration_stimuli/002678_2014-06-13_16-15-32_094959634447_rgbf000151-resize_6/002678_2014-06-13_16-15-32_094959634447_rgbf000151-resize_6-target.png,250,2.1830000000000003,3.0,10282,250,feet,jsons/v1_VE250_randls_43.json,1824428,2868381,28,Woman
4,408658,DepthScenes,duration_manipulation_targetAtFixation,jsons/v1_VE250_randls_43.json,http://54.235.29.9/FacialAge/BNav_EC2/DepthDuration/v2_depth_duration_MTurk/v2_DepthDuration_HTML.html#47,47,1366,657,1366,768,9-18-2022,12-20-14,5,depth_duration_stimuli/001055_2014-06-08_18-45-35_260595134347_rgbf000111-resize_4/001055_2014-06-08_18-45-35_260595134347_rgbf000111-resize_4-target.png,250,2.4290000000000003,3.0,9167,249,feet,jsons/v1_VE250_randls_43.json,1824428,2868381,28,Woman
5,408658,DepthScenes,duration_manipulation_targetAtFixation,jsons/v1_VE250_randls_43.json,http://54.235.29.9/FacialAge/BNav_EC2/DepthDuration/v2_depth_duration_MTurk/v2_DepthDuration_HTML.html#47,47,1366,657,1366,768,9-18-2022,12-20-14,6,depth_duration_stimuli/000549_2014-06-08_22-10-24_260595134347_rgbf000247-resize_3/000549_2014-06-08_22-10-24_260595134347_rgbf000247-resize_3-target.png,250,1.841,1.0,8856,250,feet,jsons/v1_VE250_randls_43.json,1824428,2868381,28,Woman
6,408658,DepthScenes,duration_manipulation_targetAtFixation,jsons/v1_VE250_randls_43.json,http://54.235.29.9/FacialAge/BNav_EC2/DepthDuration/v2_depth_duration_MTurk/v2_DepthDuration_HTML.html#47,47,1366,657,1366,768,9-18-2022,12-20-14,7,depth_duration_stimuli/000773_2014-06-08_22-24-54_260595134347_rgbf000093-resize_1/000773_2014-06-08_22-24-54_260595134347_rgbf000093-resize_1-target.png,250,4.973,4.0,13894,251,feet,jsons/v1_VE250_randls_43.json,1824428,2868381,28,Woman
7,408658,DepthScenes,duration_manipulation_targetAtFixation,jsons/v1_VE250_randls_43.json,http://54.235.29.9/FacialAge/BNav_EC2/DepthDuration/v2_depth_duration_MTurk/v2_DepthDuration_HTML.html#47,47,1366,657,1366,768,9-18-2022,12-20-14,8,depth_duration_stimuli/002414_2014-06-28_20-24-58_260595134347_rgbf000067-resize_4/002414_2014-06-28_20-24-58_260595134347_rgbf000067-resize_4-target.png,250,4.363,3.0,10140,250,feet,jsons/v1_VE250_randls_43.json,1824428,2868381,28,Woman
8,408658,DepthScenes,duration_manipulation_targetAtFixation,jsons/v1_VE250_randls_43.json,http://54.235.29.9/FacialAge/BNav_EC2/DepthDuration/v2_depth_duration_MTurk/v2_DepthDuration_HTML.html#47,47,1366,657,1366,768,9-18-2022,12-20-14,9,depth_duration_stimuli/003292_2014-05-14_21-53-49_094959634447_rgbf000100-resize_2/003292_2014-05-14_21-53-49_094959634447_rgbf000100-resize_2-target.png,250,3.4815,3.0,10459,250,feet,jsons/v1_VE250_randls_43.json,1824428,2868381,28,Woman
9,408658,DepthScenes,duration_manipulation_targetAtFixation,jsons/v1_VE250_randls_43.json,http://54.235.29.9/FacialAge/BNav_EC2/DepthDuration/v2_depth_duration_MTurk/v2_DepthDuration_HTML.html#47,47,1366,657,1366,768,9-18-2022,12-20-14,10,depth_duration_stimuli/002639_2014-06-24_14-51-37_094959634447_rgbf000074-resize_4/002639_2014-06-24_14-51-37_094959634447_rgbf000074-resize_4-target.png,250,4.0375,4.0,12024,249,feet,jsons/v1_VE250_randls_43.json,1824428,2868381,28,Woman
10,408658,DepthScenes,duration_manipulation_targetAtFixation,jsons/v1_VE250_randls_43.json,http://54.235.29.9/FacialAge/BNav_EC2/DepthDuration/v2_depth_duration_MTurk/v2_DepthDuration_HTML.html#47,47,1366,657,1366,768,9-18-2022,12-20-14,11,depth_duration_stimuli/001167_2014-06-17_15-38-07_260595134347_rgbf000108-resize_0/001167_2014-06-17_15-38-07_260595134347_rgbf000108-resize_0-target.png,250,1.8505,2.0,10294,252,feet,jsons/v1_VE250_randls_43.json,1824428,2868381,28,Woman
11,408658,DepthScenes,duration_manipulation_targetAtFixation,jsons/v1_VE250_randls_43.json,http://54.235.29.9/FacialAge/BNav_EC2/DepthDuration/v2_depth_duration_MTurk/v2_DepthDuration_HTML.html#47,47,1366,657,1366,768,9-18-2022,12-20-14,12,depth_duration_stimuli/003587_2014-05-23_16-48-02_094959634447_rgbf002384-resize_2/003587_2014-05-23_16-48-02_094959634447_rgbf002384-resize_2-target.png,250,1.357,1.5,11365,250,feet,jsons/v1_VE250_randls_43.json,1824428,2868381,28,Woman
12,408658,DepthScenes,duration_manipulation_targetAtFixation,jsons/v1_VE250_randls_43.json,http://54.235.29.9/FacialAge/BNav_EC2/DepthDuration/v2_depth_duration_MTurk/v2_DepthDuration_HTML.html#47,47,1366,657,1366,768,9-18-2022,12-20-14,13,depth_duration_stimuli/000569_2014-06-09_22-51-47_260595134347_rgbf000141-resize_3/000569_2014-06-09_22-51-47_260595134347_rgbf000141-resize-original.jpg,250,4.512,0.0,7983,251,feet,jsons/v1_VE250_randls_43.json,1824428,2868381,28,Woman
13,408658,DepthScenes,duration_manipulation_targetAtFixation,jsons/v1_VE250_randls_43.json,http://54.235.29.9/FacialAge/BNav_EC2/DepthDuration/v2_depth_duration_MTurk/v2_DepthDuration_HTML.html#47,47,1366,657,1366,768,9-18-2022,12-20-14,14,depth_duration_stimuli/002748_2014-06-22_19-07-22_094959634447_rgbf000078-resize_1/002748_2014-06-22_19-07-22_094959634447_rgbf000078-resize_1-target.png,250,4.6705,3.5,13899,250,feet,jsons/v1_VE250_randls_43.json,1824428,2868381,28,Woman
14,408658,DepthScenes,duration_manipulation_targetAtFixation,jsons/v1_VE250_randls_43.json,http://54.235.29.9/FacialAge/BNav_EC2/DepthDuration/v2_depth_duration_MTurk/v2_DepthDuration_HTML.html#47,47,1366,657,1366,768,9-18-2022,12-20-14,15,depth_duration_stimuli/002995_2014-06-15_12-31-26_094959634447_rgbf000150-resize_1/002995_2014-06-15_12-31-26_094959634447_rgbf000150-resize_1-target.png,250,3.8360000000000003,3.0,7641,251,feet,jsons/v1_VE250_randls_43.json,1824428,2868381,28,Woman
15,408658,DepthScenes,duration_manipulation_targetAtFixation,jsons/v1_VE250_randls_43.json,http://54.235.29.9/FacialAge/BNav_EC2/DepthDuration/v2_depth_duration_MTurk/v2_DepthDuration_HTML.html#47,47,1366,657,1366,768,9-18-2022,12-20-14,16,depth_duration_stimuli/000470_2014-06-09_19-42-40_260595134347_rgbf000094-resize_1/000470_2014-06-09_19-42-40_260595134347_rgbf000094-resize_1-target.png,250,1.831,2.0,7388,250,feet,jsons/v1_VE250_randls_43.json,1824428,2868381,28,Woman
16,408658,DepthScenes,duration_manipulation_targetAtFixation,jsons/v1_VE250_randls_43.json,http://54.235.29.9/FacialAge/BNav_EC2/DepthDuration/v2_depth_duration_MTurk/v2_DepthDuration_HTML.html#47,47,1366,657,1366,768,9-18-2022,12-20-14,17,depth_duration_stimuli/000109_2014-05-14_23-41-52_260595134347_rgbf000035-resize_9/000109_2014-05-14_23-41-52_260595134347_rgbf000035-resize_9-target.png,250,1.3545,0.5,9773,249,feet,jsons/v1_VE250_randls_43.json,1824428,2868381,28,Woman
17,408658,DepthScenes,duration_manipulation_targetAtFixation,jsons/v1_VE250_randls_43.json,http://54.235.29.9/FacialAge/BNav_EC2/DepthDuration/v2_depth_duration_MTurk/v2_DepthDuration_HTML.html#47,47,1366,657,1366,768,9-18-2022,12-20-14,18,depth_duration_stimuli/001810_2014-06-26_20-51-35_260595134347_rgbf000040-resize_3/001810_2014-06-26_20-51-35_260595134347_rgbf000040-resize_3-target.png,250,2.2525,3.0,7185,251,feet,jsons/v1_VE250_randls_43.json,1824428,2868381,28,Woman
18,408658,DepthScenes,duration_manipulation_targetAtFixation,jsons/v1_VE250_randls_43.json,http://54.235.29.9/FacialAge/BNav_EC2/DepthDuration/v2_depth_duration_MTurk/v2_DepthDuration_HTML.html#47,47,1366,657,1366,768,9-18-2022,12-20-14,19,depth_duration_stimuli/003010_2014-06-15_12-54-35_094959634447_rgbf000112-resize_0/003010_2014-06-15_12-54-35_094959634447_rgbf000112-resize_0-target.png,250,3.1185,5.0,8781,250,feet,jsons/v1_VE250_randls_43.json,1824428,2868381,28,Woman
19,408658,DepthScenes,duration_manipulation_targetAtFixation,jsons/v1_VE250_randls_43.json,http://54.235.29.9/FacialAge/BNav_EC2/DepthDuration/v2_depth_duration_MTurk/v2_DepthDuration_HTML.html#47,47,1366,657,1366,768,9-18-2022,12-20-14,20,depth_duration_stimuli/001808_2014-06-26_20-50-58_260595134347_rgbf000029-resize_1/001808_2014-06-26_20-50-58_260595134347_rgbf000029-resize_1-target.png,250,4.249,4.0,10130,250,feet,jsons/v1_VE250_randls_43.json,1824428,2868381,28,Woman
20,408658,DepthScenes,duration_manipulation_targetAtFixation,jsons/v1_VE250_randls_43.json,http://54.235.29.9/FacialAge/BNav_EC2/DepthDuration/v2_depth_duration_MTurk/v2_DepthDuration_HTML.html#47,47,1366,657,1366,768,9-18-2022,12-20-14,21,depth_duration_stimuli/001815_2014-06-26_20-52-55_260595134347_rgbf000020-resize_0/001815_2014-06-26_20-52-55_260595134347_rgbf000020-resize_0-target.png,250,3.3865,5.0,6508,250,feet,jsons/v1_VE250_randls_43.json,1824428,2868381,28,Woman
21,408658,DepthScenes,duration_manipulation_targetAtFixation,jsons/v1_VE250_randls_43.json,http://54.235.29.9/FacialAge/BNav_EC2/DepthDuration/v2_depth_duration_MTurk/v2_DepthDuration_HTML.html#47,47,1366,657,1366,768,9-18-2022,12-20-14,22,depth_duration_stimuli/000739_2014-06-08_18-45-58_260595134347_rgbf000068-resize_1/000739_2014-06-08_18-45-58_260595134347_rgbf000068-resize_1-target.png,250,3.534,3.2,10124,250,feet,jsons/v1_VE250_randls_43.json,1824428,2868381,28,Woman
22,408658,DepthScenes,duration_manipulation_targetAtFixation,jsons/v1_VE250_randls_43.json,http://54.235.29.9/FacialAge/BNav_EC2/DepthDuration/v2_depth_duration_MTurk/v2_DepthDuration_HTML.html#47,47,1366,657,1366,768,9-18-2022,12-20-14,23,depth_duration_stimuli/000734_2014-06-08_17-39-11_260595134347_rgbf000128-resize_2/000734_2014-06-08_17-39-11_260595134347_rgbf000128-resize_2-target.png,250,4.098,3.0,8246,250,feet,jsons/v1_VE250_randls_43.json,1824428,2868381,28,Woman
23,408658,DepthScenes,duration_manipulation_targetAtFixation,jsons/v1_VE250_randls_43.json,http://54.235.29.9/FacialAge/BNav_EC2/DepthDuration/v2_depth_duration_MTurk/v2_DepthDuration_HTML.html#47,47,1366,657,1366,768,9-18-2022,12-20-14,24,depth_duration_stimuli/003621_2014-05-23_18-06-08_094959634447_rgbf000101-resize_1/003621_2014-05-23_18-06-08_094959634447_rgbf000101-resize_1-target.png,250,3.9835,3.0,18706,249,feet,jsons/v1_VE250_randls_43.json,1824428,2868381,28,Woman
24,408658,DepthScenes,duration_manipulation_targetAtFixation,jsons/v1_VE250_randls_43.json,http://54.235.29.9/FacialAge/BNav_EC2/DepthDuration/v2_depth_duration_MTurk/v2_DepthDuration_HTML.html#47,47,1366,657,1366,768,9-18-2022,12-20-14,25,depth_duration_stimuli/001584_2014-06-20_11-07-43_260595134347_rgbf000002-resize_1/001584_2014-06-20_11-07-43_260595134347_rgbf000002-resize_1-target.png,250,3.53,3.0,6891,250,feet,jsons/v1_VE250_randls_43.json,1824428,2868381,28,Woman
25,408658,DepthScenes,duration_manipulation_targetAtFixation,jsons/v1_VE250_randls_43.json,http://54.235.29.9/FacialAge/BNav_EC2/DepthDuration/v2_depth_duration_MTurk/v2_DepthDuration_HTML.html#47,47,1366,657,1366,768,9-18-2022,12-20-14,26,depth_duration_stimuli/003070_2014-06-15_14-58-27_094959634447_rgbf000150-resize_3/003070_2014-06-15_14-58-27_094959634447_rgbf000150-resize_3-target.png,250,2.9415,2.0,12950,251,feet,jsons/v1_VE250_randls_43.json,1824428,2868381,28,Woman
26,408658,DepthScenes,duration_manipulation_targetAtFixation,jsons/v1_VE250_randls_43.json,http://54.235.29.9/FacialAge/BNav_EC2/DepthDuration/v2_depth_duration_MTurk/v2_DepthDuration_HTML.html#47,47,1366,657,1366,768,9-18-2022,12-20-14,27,depth_duration_stimuli/000943_2014-06-09_19-31-07_260595134347_rgbf000128-resize_1/000943_2014-06-09_19-31-07_260595134347_rgbf000128-resize_1-target.png,250,1.9765,2.5,16036,250,feet,jsons/v1_VE250_randls_43.json,1824428,2868381,28,Woman
27,408658,DepthScenes,duration_manipulation_targetAtFixation,jsons/v1_VE250_randls_43.json,http://54.235.29.9/FacialAge/BNav_EC2/DepthDuration/v2_depth_duration_MTurk/v2_DepthDuration_HTML.html#47,47,1366,657,1366,768,9-18-2022,12-20-14,28,depth_duration_stimuli/001029_2014-06-08_13-17-57_260595134347_rgbf000065-resize_1/001029_2014-06-08_13-17-57_260595134347_rgbf000065-resize_1-target.png,250,3.0835,2.5,8490,248,feet,jsons/v1_VE250_randls_43.json,1824428,2868381,28,Woman
28,408658,DepthScenes,duration_manipulation_targetAtFixation,jsons/v1_VE250_randls_43.json,http://54.235.29.9/FacialAge/BNav_EC2/DepthDuration/v2_depth_duration_MTurk/v2_DepthDuration_HTML.html#47,47,1366,657,1366,768,9-18-2022,12-20-14,29,depth_duration_stimuli/000677_2014-06-08_23-10-32_260595134347_rgbf000158-resize_6/000677_2014-06-08_23-10-32_260595134347_rgbf000158-resize_6-target.png,250,3.556,2.5,6529,249,feet,jsons/v1_VE250_randls_43.json,1824428,2868381,28,Woman
29,408658,DepthScenes,duration_manipulation_targetAtFixation,jsons/v1_VE250_randls_43.json,http://54.235.29.9/FacialAge/BNav_EC2/DepthDuration/v2_depth_duration_MTurk/v2_DepthDuration_HTML.html#47,47,1366,657,1366,768,9-18-2022,12-20-14,30,depth_duration_stimuli/000375_2014-06-08_11-17-29_260595134347_rgbf000133-resize_2/000375_2014-06-08_11-17-29_260595134347_rgbf000133-resize-original.jpg,250,4.718,0.0,11148,249,feet,jsons/v1_VE250_randls_43.json,1824428,2868381,28,Woman
30,408658,DepthScenes,duration_manipulation_targetAtFixation,jsons/v1_VE250_randls_43.json,http://54.235.29.9/FacialAge/BNav_EC2/DepthDuration/v2_depth_duration_MTurk/v2_DepthDuration_HTML.html#47,47,1366,657,1366,768,9-18-2022,12-20-14,31,depth_duration_stimuli/000878_2014-06-08_22-52-45_260595134347_rgbf000045-resize_2/000878_2014-06-08_22-52-45_260595134347_rgbf000045-resize_2-target.png,250,2.092,4.0,11719,249,feet,jsons/v1_VE250_randls_43.json,1824428,2868381,28,Woman
31,408658,DepthScenes,duration_manipulation_targetAtFixation,jsons/v1_VE250_randls_43.json,http://54.235.29.9/FacialAge/BNav_EC2/DepthDuration/v2_depth_duration_MTurk/v2_DepthDuration_HTML.html#47,47,1366,657,1366,768,9-18-2022,12-20-14,32,depth_duration_stimuli/002953_2014-06-08_17-32-18_094959634447_rgbf000059-resize_5/002953_2014-06-08_17-32-18_094959634447_rgbf000059-resize_5-target.png,250,1.551,3.0,19871,250,feet,jsons/v1_VE250_randls_43.json,1824428,2868381,28,Woman
32,408658,DepthScenes,duration_manipulation_targetAtFixation,jsons/v1_VE250_randls_43.json,http://54.235.29.9/FacialAge/BNav_EC2/DepthDuration/v2_depth_duration_MTurk/v2_DepthDuration_HTML.html#47,47,1366,657,1366,768,9-18-2022,12-20-14,33,depth_duration_stimuli/002663_2014-06-13_15-50-26_094959634447_rgbf000075-resize_1/002663_2014-06-13_15-50-26_094959634447_rgbf000075-resize_1-target.png,250,4.7495,3.5,15662,249,feet,jsons/v1_VE250_randls_43.json,1824428,2868381,28,Woman
33,408658,DepthScenes,duration_manipulation_targetAtFixation,jsons/v1_VE250_randls_43.json,http://54.235.29.9/FacialAge/BNav_EC2/DepthDuration/v2_depth_duration_MTurk/v2_DepthDuration_HTML.html#47,47,1366,657,1366,768,9-18-2022,12-20-14,34,depth_duration_stimuli/000409_2014-06-04_19-23-33_260595134347_rgbf000067-resize_0/000409_2014-06-04_19-23-33_260595134347_rgbf000067-resize_0-target.png,250,3.7335,2.0,8901,250,feet,jsons/v1_VE250_randls_43.json,1824428,2868381,28,Woman
34,408658,DepthScenes,duration_manipulation_targetAtFixation,jsons/v1_VE250_randls_43.json,http://54.235.29.9/FacialAge/BNav_EC2/DepthDuration/v2_depth_duration_MTurk/v2_DepthDuration_HTML.html#47,47,1366,657,1366,768,9-18-2022,12-20-14,35,depth_duration_stimuli/000929_2014-06-09_16-33-19_260595134347_rgbf000139-resize_0/000929_2014-06-09_16-33-19_260595134347_rgbf000139-resize_0-target.png,250,2.8680000000000003,1.5,11767,250,feet,jsons/v1_VE250_randls_43.json,1824428,2868381,28,Woman
35,408658,DepthScenes,duration_manipulation_targetAtFixation,jsons/v1_VE250_randls_43.json,http://54.235.29.9/FacialAge/BNav_EC2/DepthDuration/v2_depth_duration_MTurk/v2_DepthDuration_HTML.html#47,47,1366,657,1366,768,9-18-2022,12-20-14,36,depth_duration_stimuli/000457_2014-06-08_16-52-43_260595134347_rgbf000199-resize_1/000457_2014-06-08_16-52-43_260595134347_rgbf000199-resize_1-target.png,250,3.6489999999999996,3.0,12198,249,feet,jsons/v1_VE250_randls_43.json,1824428,2868381,28,Woman
36,408658,DepthScenes,duration_manipulation_targetAtFixation,jsons/v1_VE250_randls_43.json,http://54.235.29.9/FacialAge/BNav_EC2/DepthDuration/v2_depth_duration_MTurk/v2_DepthDuration_HTML.html#47,47,1366,657,1366,768,9-18-2022,12-20-14,37,depth_duration_stimuli/002549_2014-06-24_13-41-39_094959634447_rgbf000022-resize_3/002549_2014-06-24_13-41-39_094959634447_rgbf000022-resize_3-target.png,250,1.476,2.0,8564,250,feet,jsons/v1_VE250_randls_43.json,1824428,2868381,28,Woman
37,408658,DepthScenes,duration_manipulation_targetAtFixation,jsons/v1_VE250_randls_43.json,http://54.235.29.9/FacialAge/BNav_EC2/DepthDuration/v2_depth_duration_MTurk/v2_DepthDuration_HTML.html#47,47,1366,657,1366,768,9-18-2022,12-20-14,38,depth_duration_stimuli/002750_2014-06-22_19-08-03_094959634447_rgbf000094-resize_4/002750_2014-06-22_19-08-03_094959634447_rgbf000094-resize_4-target.png,250,2.354,3.0,12398,250,feet,jsons/v1_VE250_randls_43.json,1824428,2868381,28,Woman
38,408658,DepthScenes,duration_manipulation_targetAtFixation,jsons/v1_VE250_randls_43.json,http://54.235.29.9/FacialAge/BNav_EC2/DepthDuration/v2_depth_duration_MTurk/v2_DepthDuration_HTML.html#47,47,1366,657,1366,768,9-18-2022,12-20-14,39,depth_duration_stimuli/000906_2014-06-08_13-35-43_260595134347_rgbf000155-resize_1/000906_2014-06-08_13-35-43_260595134347_rgbf000155-resize_1-target.png,250,2.8489999999999998,3.5,12493,250,feet,jsons/v1_VE250_randls_43.json,1824428,2868381,28,Woman
39,408658,DepthScenes,duration_manipulation_targetAtFixation,jsons/v1_VE250_randls_43.json,http://54.235.29.9/FacialAge/BNav_EC2/DepthDuration/v2_depth_duration_MTurk/v2_DepthDuration_HTML.html#47,47,1366,657,1366,768,9-18-2022,12-20-14,40,depth_duration_stimuli/002805_2014-06-22_19-54-03_094959634447_rgbf000079-resize_1/002805_2014-06-22_19-54-03_094959634447_rgbf000079-resize_1-target.png,250,3.1439999999999997,3.0,8818,251,feet,jsons/v1_VE250_randls_43.json,1824428,2868381,28,Woman
40,408658,DepthScenes,duration_manipulation_targetAtFixation,jsons/v1_VE250_randls_43.json,http://54.235.29.9/FacialAge/BNav_EC2/DepthDuration/v2_depth_duration_MTurk/v2_DepthDuration_HTML.html#47,47,1366,657,1366,768,9-18-2022,12-20-14,41,depth_duration_stimuli/000642_2014-06-08_16-59-25_260595134347_rgbf000098-resize_2/000642_2014-06-08_16-59-25_260595134347_rgbf000098-resize_2-target.png,250,2.8815,2.5,14900,250,feet,jsons/v1_VE250_randls_43.json,1824428,2868381,28,Woman
41,408658,DepthScenes,duration_manipulation_targetAtFixation,jsons/v1_VE250_randls_43.json,http://54.235.29.9/FacialAge/BNav_EC2/DepthDuration/v2_depth_duration_MTurk/v2_DepthDuration_HTML.html#47,47,1366,657,1366,768,9-18-2022,12-20-14,42,depth_duration_stimuli/002425_2014-06-28_20-27-29_260595134347_rgbf000031-resize_8/002425_2014-06-28_20-27-29_260595134347_rgbf000031-resize_8-target.png,250,3.8960000000000004,3.0,13309,251,feet,jsons/v1_VE250_randls_43.json,1824428,2868381,28,Woman
42,408658,DepthScenes,duration_manipulation_targetAtFixation,jsons/v1_VE250_randls_43.json,http://54.235.29.9/FacialAge/BNav_EC2/DepthDuration/v2_depth_duration_MTurk/v2_DepthDuration_HTML.html#47,47,1366,657,1366,768,9-18-2022,12-20-14,43,depth_duration_stimuli/002445_2014-06-28_20-32-16_260595134347_rgbf000029-resize_4/002445_2014-06-28_20-32-16_260595134347_rgbf000029-resize_4-target.png,250,2.5315,1.5,25777,248,feet,jsons/v1_VE250_randls_43.json,1824428,2868381,28,Woman
43,408658,DepthScenes,duration_manipulation_targetAtFixation,jsons/v1_VE250_randls_43.json,http://54.235.29.9/FacialAge/BNav_EC2/DepthDuration/v2_depth_duration_MTurk/v2_DepthDuration_HTML.html#47,47,1366,657,1366,768,9-18-2022,12-20-14,44,depth_duration_stimuli/000780_2014-06-08_22-28-29_260595134347_rgbf000126-resize_1/000780_2014-06-08_22-28-29_260595134347_rgbf000126-resize_1-target.png,250,3.3825,3.0,13982,251,feet,jsons/v1_VE250_randls_43.json,1824428,2868381,28,Woman
44,408658,DepthScenes,duration_manipulation_targetAtFixation,jsons/v1_VE250_randls_43.json,http://54.235.29.9/FacialAge/BNav_EC2/DepthDuration/v2_depth_duration_MTurk/v2_DepthDuration_HTML.html#47,47,1366,657,1366,768,9-18-2022,12-20-14,45,depth_duration_stimuli/000787_2014-06-08_22-33-53_260595134347_rgbf000175-resize_1/000787_2014-06-08_22-33-53_260595134347_rgbf000175-resize-original.jpg,250,4.784,0.0,5971,250,feet,jsons/v1_VE250_randls_43.json,1824428,2868381,28,Woman
45,408658,DepthScenes,duration_manipulation_targetAtFixation,jsons/v1_VE250_randls_43.json,http://54.235.29.9/FacialAge/BNav_EC2/DepthDuration/v2_depth_duration_MTurk/v2_DepthDuration_HTML.html#47,47,1366,657,1366,768,9-18-2022,12-20-14,46,depth_duration_stimuli/002057_2014-06-24_21-00-13_260595134347_rgbf000120-resize_1/002057_2014-06-24_21-00-13_260595134347_rgbf000120-resize_1-target.png,250,2.967,4.0,12444,250,feet,jsons/v1_VE250_randls_43.json,1824428,2868381,28,Woman
46,408658,DepthScenes,duration_manipulation_targetAtFixation,jsons/v1_VE250_randls_43.json,http://54.235.29.9/FacialAge/BNav_EC2/DepthDuration/v2_depth_duration_MTurk/v2_DepthDuration_HTML.html#47,47,1366,657,1366,768,9-18-2022,12-20-14,47,depth_duration_stimuli/000709_2014-06-08_13-51-55_260595134347_rgbf000068-resize_3/000709_2014-06-08_13-51-55_260595134347_rgbf000068-resize_3-target.png,250,1.8030000000000002,4.5,11494,251,feet,jsons/v1_VE250_randls_43.json,1824428,2868381,28,Woman
47,408658,DepthScenes,duration_manipulation_targetAtFixation,jsons/v1_VE250_randls_43.json,http://54.235.29.9/FacialAge/BNav_EC2/DepthDuration/v2_depth_duration_MTurk/v2_DepthDuration_HTML.html#47,47,1366,657,1366,768,9-18-2022,12-20-14,48,depth_duration_stimuli/000447_2014-06-08_16-15-46_260595134347_rgbf000130-resize_1/000447_2014-06-08_16-15-46_260595134347_rgbf000130-resize_1-target.png,250,4.479,3.0,10766,250,feet,jsons/v1_VE250_randls_43.json,1824428,2868381,28,Woman
48,408658,DepthScenes,duration_manipulation_targetAtFixation,jsons/v1_VE250_randls_43.json,http://54.235.29.9/FacialAge/BNav_EC2/DepthDuration/v2_depth_duration_MTurk/v2_DepthDuration_HTML.html#47,47,1366,657,1366,768,9-18-2022,12-20-14,49,depth_duration_stimuli/001447_2014-06-19_17-00-32_260595134347_rgbf000082-resize_5/001447_2014-06-19_17-00-32_260595134347_rgbf000082-resize_5-target.png,250,4.13775,2.5,13181,250,feet,jsons/v1_VE250_randls_43.json,1824428,2868381,28,Woman
49,408658,DepthScenes,duration_manipulation_targetAtFixation,jsons/v1_VE250_randls_43.json,http://54.235.29.9/FacialAge/BNav_EC2/DepthDuration/v2_depth_duration_MTurk/v2_DepthDuration_HTML.html#47,47,1366,657,1366,768,9-18-2022,12-20-14,50,depth_duration_stimuli/002988_2014-06-15_12-24-20_094959634447_rgbf000150-resize_1/002988_2014-06-15_12-24-20_094959634447_rgbf000150-resize_1-target.png,250,4.7669999999999995,5.0,10595,251,feet,jsons/v1_VE250_randls_43.json,1824428,2868381,28,Woman
50,408658,DepthScenes,duration_manipulation_targetAtFixation,jsons/v1_VE250_randls_43.json,http://54.235.29.9/FacialAge/BNav_EC2/DepthDuration/v2_depth_duration_MTurk/v2_DepthDuration_HTML.html#47,47,1366,657,1366,768,9-18-2022,12-20-14,51,depth_duration_stimuli/001052_2014-06-08_18-24-54_260595134347_rgbf000130-resize_1/001052_2014-06-08_18-24-54_260595134347_rgbf000130-resize_1-target.png,250,4.1045,5.0,10603,250,feet,jsons/v1_VE250_randls_43.json,1824428,2868381,28,Woman
51,408658,DepthScenes,duration_manipulation_targetAtFixation,jsons/v1_VE250_randls_43.json,http://54.235.29.9/FacialAge/BNav_EC2/DepthDuration/v2_depth_duration_MTurk/v2_DepthDuration_HTML.html#47,47,1366,657,1366,768,9-18-2022,12-20-14,52,depth_duration_stimuli/002153_2014-06-25_21-27-18_260595134347_rgbf000038-resize_5/002153_2014-06-25_21-27-18_260595134347_rgbf000038-resize_5-target.png,250,2.505,1.5,8703,251,feet,jsons/v1_VE250_randls_43.json,1824428,2868381,28,Woman
52,408658,DepthScenes,duration_manipulation_targetAtFixation,jsons/v1_VE250_randls_43.json,http://54.235.29.9/FacialAge/BNav_EC2/DepthDuration/v2_depth_duration_MTurk/v2_DepthDuration_HTML.html#47,47,1366,657,1366,768,9-18-2022,12-20-14,53,depth_duration_stimuli/002660_2014-06-13_15-44-18_094959634447_rgbf001878-resize_2/002660_2014-06-13_15-44-18_094959634447_rgbf001878-resize_2-target.png,250,3.576,2.5,9677,251,feet,jsons/v1_VE250_randls_43.json,1824428,2868381,28,Woman
53,408658,DepthScenes,duration_manipulation_targetAtFixation,jsons/v1_VE250_randls_43.json,http://54.235.29.9/FacialAge/BNav_EC2/DepthDuration/v2_depth_duration_MTurk/v2_DepthDuration_HTML.html#47,47,1366,657,1366,768,9-18-2022,12-20-14,54,depth_duration_stimuli/001150_2014-06-17_15-27-34_260595134347_rgbf000108-resize_2/001150_2014-06-17_15-27-34_260595134347_rgbf000108-resize_2-target.png,250,4.0325,3.5,11165,250,feet,jsons/v1_VE250_randls_43.json,1824428,2868381,28,Woman
54,408658,DepthScenes,duration_manipulation_targetAtFixation,jsons/v1_VE250_randls_43.json,http://54.235.29.9/FacialAge/BNav_EC2/DepthDuration/v2_depth_duration_MTurk/v2_DepthDuration_HTML.html#47,47,1366,657,1366,768,9-18-2022,12-20-14,55,depth_duration_stimuli/000665_2014-06-09_20-42-35_260595134347_rgbf000110-resize_1/000665_2014-06-09_20-42-35_260595134347_rgbf000110-resize_1-target.png,250,3.057,1.5,8225,251,feet,jsons/v1_VE250_randls_43.json,1824428,2868381,28,Woman
55,408658,DepthScenes,duration_manipulation_targetAtFixation,jsons/v1_VE250_randls_43.json,http://54.235.29.9/FacialAge/BNav_EC2/DepthDuration/v2_depth_duration_MTurk/v2_DepthDuration_HTML.html#47,47,1366,657,1366,768,9-18-2022,12-20-14,56,depth_duration_stimuli/001056_2014-06-08_18-46-44_260595134347_rgbf000068-resize_0/001056_2014-06-08_18-46-44_260595134347_rgbf000068-resize_0-target.png,250,2.6625,2.0,11800,249,feet,jsons/v1_VE250_randls_43.json,1824428,2868381,28,Woman
56,408658,DepthScenes,duration_manipulation_targetAtFixation,jsons/v1_VE250_randls_43.json,http://54.235.29.9/FacialAge/BNav_EC2/DepthDuration/v2_depth_duration_MTurk/v2_DepthDuration_HTML.html#47,47,1366,657,1366,768,9-18-2022,12-20-14,57,depth_duration_stimuli/002199_2014-06-28_18-33-56_260595134347_rgbf000074-resize_0/002199_2014-06-28_18-33-56_260595134347_rgbf000074-resize_0-target.png,250,1.996,2.0,8960,250,feet,jsons/v1_VE250_randls_43.json,1824428,2868381,28,Woman
57,408658,DepthScenes,duration_manipulation_targetAtFixation,jsons/v1_VE250_randls_43.json,http://54.235.29.9/FacialAge/BNav_EC2/DepthDuration/v2_depth_duration_MTurk/v2_DepthDuration_HTML.html#47,47,1366,657,1366,768,9-18-2022,12-20-14,58,depth_duration_stimuli/002784_2014-06-22_19-26-30_094959634447_rgbf000083-resize_3/002784_2014-06-22_19-26-30_094959634447_rgbf000083-resize_3-target.png,250,1.8046666666667,2.0,13080,251,feet,jsons/v1_VE250_randls_43.json,1824428,2868381,28,Woman
58,408658,DepthScenes,duration_manipulation_targetAtFixation,jsons/v1_VE250_randls_43.json,http://54.235.29.9/FacialAge/BNav_EC2/DepthDuration/v2_depth_duration_MTurk/v2_DepthDuration_HTML.html#47,47,1366,657,1366,768,9-18-2022,12-20-14,59,depth_duration_stimuli/001100_2014-06-15_17-46-26_260595134347_rgbf000225-resize_2/001100_2014-06-15_17-46-26_260595134347_rgbf000225-resize_2-target.png,250,2.24,2.5,12986,251,feet,jsons/v1_VE250_randls_43.json,1824428,2868381,28,Woman
59,408658,DepthScenes,duration_manipulation_targetAtFixation,jsons/v1_VE250_randls_43.json,http://54.235.29.9/FacialAge/BNav_EC2/DepthDuration/v2_depth_duration_MTurk/v2_DepthDuration_HTML.html#47,47,1366,657,1366,768,9-18-2022,12-20-14,60,depth_duration_stimuli/002213_2014-06-28_18-37-58_260595134347_rgbf000055-resize_1/002213_2014-06-28_18-37-58_260595134347_rgbf000055-resize_1-target.png,250,3.62,4.0,6260,250,feet,jsons/v1_VE250_randls_43.json,1824428,2868381,28,Woman
60,408658,DepthScenes,duration_manipulation_targetAtFixation,jsons/v1_VE250_randls_43.json,http://54.235.29.9/FacialAge/BNav_EC2/DepthDuration/v2_depth_duration_MTurk/v2_DepthDuration_HTML.html#47,47,1366,657,1366,768,9-18-2022,12-20-14,61,depth_duration_stimuli/000691_2014-06-08_13-08-50_260595134347_rgbf000132-resize_3/000691_2014-06-08_13-08-50_260595134347_rgbf000132-resize_3-target.png,250,4.1530000000000005,2.0,9629,251,feet,jsons/v1_VE250_randls_43.json,1824428,2868381,28,Woman
61,408658,DepthScenes,duration_manipulation_targetAtFixation,jsons/v1_VE250_randls_43.json,http://54.235.29.9/FacialAge/BNav_EC2/DepthDuration/v2_depth_duration_MTurk/v2_DepthDuration_HTML.html#47,47,1366,657,1366,768,9-18-2022,12-20-14,62,depth_duration_stimuli/000414_2014-06-04_19-49-13_260595134347_rgbf000044-resize_0/000414_2014-06-04_19-49-13_260595134347_rgbf000044-resize_0-target.png,250,4.329,4.0,9416,249,feet,jsons/v1_VE250_randls_43.json,1824428,2868381,28,Woman
62,408658,DepthScenes,duration_manipulation_targetAtFixation,jsons/v1_VE250_randls_43.json,http://54.235.29.9/FacialAge/BNav_EC2/DepthDuration/v2_depth_duration_MTurk/v2_DepthDuration_HTML.html#47,47,1366,657,1366,768,9-18-2022,12-20-14,63,depth_duration_stimuli/003129_2014-05-12_10-48-10_094959634447_rgbf000100-resize_0/003129_2014-05-12_10-48-10_094959634447_rgbf000100-resize_0-target.png,250,4.9305,1.0,5678,249,feet,jsons/v1_VE250_randls_43.json,1824428,2868381,28,Woman
63,408658,DepthScenes,duration_manipulation_targetAtFixation,jsons/v1_VE250_randls_43.json,http://54.235.29.9/FacialAge/BNav_EC2/DepthDuration/v2_depth_duration_MTurk/v2_DepthDuration_HTML.html#47,47,1366,657,1366,768,9-18-2022,12-20-14,64,depth_duration_stimuli/002905_2014-06-03_18-04-43_094959634447_rgbf000151-resize_2/002905_2014-06-03_18-04-43_094959634447_rgbf000151-resize_2-target.png,250,2.0295,2.0,11244,251,feet,jsons/v1_VE250_randls_43.json,1824428,2868381,28,Woman
64,408658,DepthScenes,duration_manipulation_targetAtFixation,jsons/v1_VE250_randls_43.json,http://54.235.29.9/FacialAge/BNav_EC2/DepthDuration/v2_depth_duration_MTurk/v2_DepthDuration_HTML.html#47,47,1366,657,1366,768,9-18-2022,12-20-14,65,depth_duration_stimuli/003423_2014-05-21_10-23-26_094959634447_rgbf002665-resize_2/003423_2014-05-21_10-23-26_094959634447_rgbf002665-resize_2-target.png,250,3.2575,0.5,6704,250,feet,jsons/v1_VE250_randls_43.json,1824428,2868381,28,Woman
65,408658,DepthScenes,duration_manipulation_targetAtFixation,jsons/v1_VE250_randls_43.json,http://54.235.29.9/FacialAge/BNav_EC2/DepthDuration/v2_depth_duration_MTurk/v2_DepthDuration_HTML.html#47,47,1366,657,1366,768,9-18-2022,12-20-14,66,depth_duration_stimuli/001222_2014-06-17_16-24-06_260595134347_rgbf000073-resize_0/001222_2014-06-17_16-24-06_260595134347_rgbf000073-resize-original.jpg,250,1.4385,0.0,6116,248,feet,jsons/v1_VE250_randls_43.json,1824428,2868381,28,Woman
66,408658,DepthScenes,duration_manipulation_targetAtFixation,jsons/v1_VE250_randls_43.json,http://54.235.29.9/FacialAge/BNav_EC2/DepthDuration/v2_depth_duration_MTurk/v2_DepthDuration_HTML.html#47,47,1366,657,1366,768,9-18-2022,12-20-14,67,depth_duration_stimuli/002272_2014-06-28_18-53-56_260595134347_rgbf000067-resize_2/002272_2014-06-28_18-53-56_260595134347_rgbf000067-resize_2-target.png,250,1.138,3.5,19927,250,feet,jsons/v1_VE250_randls_43.json,1824428,2868381,28,Woman
67,408658,DepthScenes,duration_manipulation_targetAtFixation,jsons/v1_VE250_randls_43.json,http://54.235.29.9/FacialAge/BNav_EC2/DepthDuration/v2_depth_duration_MTurk/v2_DepthDuration_HTML.html#47,47,1366,657,1366,768,9-18-2022,12-20-14,68,depth_duration_stimuli/001571_2014-06-20_17-21-32_260595134347_rgbf000089-resize_1/001571_2014-06-20_17-21-32_260595134347_rgbf000089-resize_1-target.png,250,1.86,2.0,22660,250,feet,jsons/v1_VE250_randls_43.json,1824428,2868381,28,Woman
68,408658,DepthScenes,duration_manipulation_targetAtFixation,jsons/v1_VE250_randls_43.json,http://54.235.29.9/FacialAge/BNav_EC2/DepthDuration/v2_depth_duration_MTurk/v2_DepthDuration_HTML.html#47,47,1366,657,1366,768,9-18-2022,12-20-14,69,depth_duration_stimuli/002118_2014-06-25_20-32-08_260595134347_rgbf000078-resize_1/002118_2014-06-25_20-32-08_260595134347_rgbf000078-resize_1-target.png,250,2.6460000000000004,1.5,17378,249,feet,jsons/v1_VE250_randls_43.json,1824428,2868381,28,Woman
69,408658,DepthScenes,duration_manipulation_targetAtFixation,jsons/v1_VE250_randls_43.json,http://54.235.29.9/FacialAge/BNav_EC2/DepthDuration/v2_depth_duration_MTurk/v2_DepthDuration_HTML.html#47,47,1366,657,1366,768,9-18-2022,12-20-14,70,depth_duration_stimuli/001516_2014-06-20_16-25-09_260595134347_rgbf000076-resize_2/001516_2014-06-20_16-25-09_260595134347_rgbf000076-resize_2-target.png,250,1.7445,3.0,11241,250,feet,jsons/v1_VE250_randls_43.json,1824428,2868381,28,Woman
70,408658,DepthScenes,duration_manipulation_targetAtFixation,jsons/v1_VE250_randls_43.json,http://54.235.29.9/FacialAge/BNav_EC2/DepthDuration/v2_depth_duration_MTurk/v2_DepthDuration_HTML.html#47,47,1366,657,1366,768,9-18-2022,12-20-14,71,depth_duration_stimuli/002763_2014-06-22_19-13-10_094959634447_rgbf000075-resize_4/002763_2014-06-22_19-13-10_094959634447_rgbf000075-resize_4-target.png,250,1.68375,3.0,16146,250,feet,jsons/v1_VE250_randls_43.json,1824428,2868381,28,Woman
71,408658,DepthScenes,duration_manipulation_targetAtFixation,jsons/v1_VE250_randls_43.json,http://54.235.29.9/FacialAge/BNav_EC2/DepthDuration/v2_depth_duration_MTurk/v2_DepthDuration_HTML.html#47,47,1366,657,1366,768,9-18-2022,12-20-14,72,depth_duration_stimuli/002209_2014-06-28_18-36-10_260595134347_rgbf000051-resize_1/002209_2014-06-28_18-36-10_260595134347_rgbf000051-resize_1-target.png,250,2.057,3.0,14875,249,feet,jsons/v1_VE250_randls_43.json,1824428,2868381,28,Woman
72,408658,DepthScenes,duration_manipulation_targetAtFixation,jsons/v1_VE250_randls_43.json,http://54.235.29.9/FacialAge/BNav_EC2/DepthDuration/v2_depth_duration_MTurk/v2_DepthDuration_HTML.html#47,47,1366,657,1366,768,9-18-2022,12-20-14,73,depth_duration_stimuli/001570_2014-06-20_17-21-09_260595134347_rgbf000135-resize_4/001570_2014-06-20_17-21-09_260595134347_rgbf000135-resize_4-target.png,250,4.467,3.0,10401,251,feet,jsons/v1_VE250_randls_43.json,1824428,2868381,28,Woman
73,408658,DepthScenes,duration_manipulation_targetAtFixation,jsons/v1_VE250_randls_43.json,http://54.235.29.9/FacialAge/BNav_EC2/DepthDuration/v2_depth_duration_MTurk/v2_DepthDuration_HTML.html#47,47,1366,657,1366,768,9-18-2022,12-20-14,74,depth_duration_stimuli/001392_2014-06-19_16-07-59_260595134347_rgbf000046-resize_1/001392_2014-06-19_16-07-59_260595134347_rgbf000046-resize_1-target.png,250,4.135,5.5,8494,250,feet,jsons/v1_VE250_randls_43.json,1824428,2868381,28,Woman
74,408658,DepthScenes,duration_manipulation_targetAtFixation,jsons/v1_VE250_randls_43.json,http://54.235.29.9/FacialAge/BNav_EC2/DepthDuration/v2_depth_duration_MTurk/v2_DepthDuration_HTML.html#47,47,1366,657,1366,768,9-18-2022,12-20-14,75,depth_duration_stimuli/002509_2014-06-24_13-19-22_094959634447_rgbf000077-resize_0/002509_2014-06-24_13-19-22_094959634447_rgbf000077-resize_0-target.png,250,1.3065,3.0,6327,248,feet,jsons/v1_VE250_randls_43.json,1824428,2868381,28,Woman
75,408658,DepthScenes,duration_manipulation_targetAtFixation,jsons/v1_VE250_randls_43.json,http://54.235.29.9/FacialAge/BNav_EC2/DepthDuration/v2_depth_duration_MTurk/v2_DepthDuration_HTML.html#47,47,1366,657,1366,768,9-18-2022,12-20-14,76,depth_duration_stimuli/003338_2014-05-20_11-01-23_094959634447_rgbf000051-resize_6/003338_2014-05-20_11-01-23_094959634447_rgbf000051-resize_6-target.png,250,1.693,2.5,6570,249,feet,jsons/v1_VE250_randls_43.json,1824428,2868381,28,Woman
76,408658,DepthScenes,duration_manipulation_targetAtFixation,jsons/v1_VE250_randls_43.json,http://54.235.29.9/FacialAge/BNav_EC2/DepthDuration/v2_depth_duration_MTurk/v2_DepthDuration_HTML.html#47,47,1366,657,1366,768,9-18-2022,12-20-14,77,depth_duration_stimuli/000682_2014-06-08_23-14-58_260595134347_rgbf000041-resize_5/000682_2014-06-08_23-14-58_260595134347_rgbf000041-resize_5-target.png,250,2.7239999999999998,2.0,6464,249,feet,jsons/v1_VE250_randls_43.json,1824428,2868381,28,Woman
77,408658,DepthScenes,duration_manipulation_targetAtFixation,jsons/v1_VE250_randls_43.json,http://54.235.29.9/FacialAge/BNav_EC2/DepthDuration/v2_depth_duration_MTurk/v2_DepthDuration_HTML.html#47,47,1366,657,1366,768,9-18-2022,12-20-14,78,depth_duration_stimuli/001650_2014-06-20_12-09-00_260595134347_rgbf000087-resize_3/001650_2014-06-20_12-09-00_260595134347_rgbf000087-resize_3-target.png,250,1.9505,2.0,16932,251,feet,jsons/v1_VE250_randls_43.json,1824428,2868381,28,Woman
78,408658,DepthScenes,duration_manipulation_targetAtFixation,jsons/v1_VE250_randls_43.json,http://54.235.29.9/FacialAge/BNav_EC2/DepthDuration/v2_depth_duration_MTurk/v2_DepthDuration_HTML.html#47,47,1366,657,1366,768,9-18-2022,12-20-14,79,depth_duration_stimuli/001066_2014-06-08_22-03-20_260595134347_rgbf000066-resize_4/001066_2014-06-08_22-03-20_260595134347_rgbf000066-resize_4-target.png,250,4.2330000000000005,4.0,7098,249,feet,jsons/v1_VE250_randls_43.json,1824428,2868381,28,Woman
79,408658,DepthScenes,duration_manipulation_targetAtFixation,jsons/v1_VE250_randls_43.json,http://54.235.29.9/FacialAge/BNav_EC2/DepthDuration/v2_depth_duration_MTurk/v2_DepthDuration_HTML.html#47,47,1366,657,1366,768,9-18-2022,12-20-14,80,depth_duration_stimuli/000742_2014-06-08_18-48-09_260595134347_rgbf000164-resize_4/000742_2014-06-08_18-48-09_260595134347_rgbf000164-resize_4-target.png,250,4.632,3.2,15308,250,feet,jsons/v1_VE250_randls_43.json,1824428,2868381,28,Woman
80,408658,DepthScenes,duration_manipulation_targetAtFixation,jsons/v1_VE250_randls_43.json,http://54.235.29.9/FacialAge/BNav_EC2/DepthDuration/v2_depth_duration_MTurk/v2_DepthDuration_HTML.html#47,47,1366,657,1366,768,9-18-2022,12-20-14,81,depth_duration_stimuli/002989_2014-06-15_12-25-03_094959634447_rgbf000150-resize_3/002989_2014-06-15_12-25-03_094959634447_rgbf000150-resize_3-target.png,250,4.1975,5.0,8191,250,feet,jsons/v1_VE250_randls_43.json,1824428,2868381,28,Woman
81,408658,DepthScenes,duration_manipulation_targetAtFixation,jsons/v1_VE250_randls_43.json,http://54.235.29.9/FacialAge/BNav_EC2/DepthDuration/v2_depth_duration_MTurk/v2_DepthDuration_HTML.html#47,47,1366,657,1366,768,9-18-2022,12-20-14,82,depth_duration_stimuli/000866_2014-06-09_20-45-42_260595134347_rgbf000139-resize_1/000866_2014-06-09_20-45-42_260595134347_rgbf000139-resize_1-target.png,250,3.2155,3.3,21345,249,feet,jsons/v1_VE250_randls_43.json,1824428,2868381,28,Woman
82,408658,DepthScenes,duration_manipulation_targetAtFixation,jsons/v1_VE250_randls_43.json,http://54.235.29.9/FacialAge/BNav_EC2/DepthDuration/v2_depth_duration_MTurk/v2_DepthDuration_HTML.html#47,47,1366,657,1366,768,9-18-2022,12-20-14,83,depth_duration_stimuli/001417_2014-06-19_16-25-36_260595134347_rgbf000115-resize_5/001417_2014-06-19_16-25-36_260595134347_rgbf000115-resize_5-target.png,250,4.6255,3.0,21429,251,feet,jsons/v1_VE250_randls_43.json,1824428,2868381,28,Woman
83,408658,DepthScenes,duration_manipulation_targetAtFixation,jsons/v1_VE250_randls_43.json,http://54.235.29.9/FacialAge/BNav_EC2/DepthDuration/v2_depth_duration_MTurk/v2_DepthDuration_HTML.html#47,47,1366,657,1366,768,9-18-2022,12-20-14,84,depth_duration_stimuli/003081_2014-06-15_15-19-16_094959634447_rgbf000150-resize_1/003081_2014-06-15_15-19-16_094959634447_rgbf000150-resize_1-target.png,250,3.9125,2.5,13564,250,feet,jsons/v1_VE250_randls_43.json,1824428,2868381,28,Woman
84,408658,DepthScenes,duration_manipulation_targetAtFixation,jsons/v1_VE250_randls_43.json,http://54.235.29.9/FacialAge/BNav_EC2/DepthDuration/v2_depth_duration_MTurk/v2_DepthDuration_HTML.html#47,47,1366,657,1366,768,9-18-2022,12-20-14,85,depth_duration_stimuli/001175_2014-06-17_15-45-55_260595134347_rgbf000129-resize_4/001175_2014-06-17_15-45-55_260595134347_rgbf000129-resize_4-target.png,250,4.255,3.0,20016,250,feet,jsons/v1_VE250_randls_43.json,1824428,2868381,28,Woman
85,408658,DepthScenes,duration_manipulation_targetAtFixation,jsons/v1_VE250_randls_43.json,http://54.235.29.9/FacialAge/BNav_EC2/DepthDuration/v2_depth_duration_MTurk/v2_DepthDuration_HTML.html#47,47,1366,657,1366,768,9-18-2022,12-20-14,86,depth_duration_stimuli/003490_2014-05-21_15-50-11_094959634447_rgbf000101-resize_3/003490_2014-05-21_15-50-11_094959634447_rgbf000101-resize_3-target.png,250,3.6445,2.0,12461,250,feet,jsons/v1_VE250_randls_43.json,1824428,2868381,28,Woman
86,408658,DepthScenes,duration_manipulation_targetAtFixation,jsons/v1_VE250_randls_43.json,http://54.235.29.9/FacialAge/BNav_EC2/DepthDuration/v2_depth_duration_MTurk/v2_DepthDuration_HTML.html#47,47,1366,657,1366,768,9-18-2022,12-20-14,87,depth_duration_stimuli/000788_2014-06-08_22-34-36_260595134347_rgbf000131-resize_1/000788_2014-06-08_22-34-36_260595134347_rgbf000131-resize_1-target.png,250,3.359,1.5,47443,250,feet,jsons/v1_VE250_randls_43.json,1824428,2868381,28,Woman
87,408658,DepthScenes,duration_manipulation_targetAtFixation,jsons/v1_VE250_randls_43.json,http://54.235.29.9/FacialAge/BNav_EC2/DepthDuration/v2_depth_duration_MTurk/v2_DepthDuration_HTML.html#47,47,1366,657,1366,768,9-18-2022,12-20-14,88,depth_duration_stimuli/001235_2014-06-17_16-37-36_260595134347_rgbf000084-resize_4/001235_2014-06-17_16-37-36_260595134347_rgbf000084-resize_4-target.png,250,3.6605,2.5,8305,249,feet,jsons/v1_VE250_randls_43.json,1824428,2868381,28,Woman
88,408658,DepthScenes,duration_manipulation_targetAtFixation,jsons/v1_VE250_randls_43.json,http://54.235.29.9/FacialAge/BNav_EC2/DepthDuration/v2_depth_duration_MTurk/v2_DepthDuration_HTML.html#47,47,1366,657,1366,768,9-18-2022,12-20-14,89,depth_duration_stimuli/000810_2014-06-08_17-20-01_260595134347_rgbf000105-resize_0/000810_2014-06-08_17-20-01_260595134347_rgbf000105-resize_0-target.png,250,1.4865,2.0,7830,249,feet,jsons/v1_VE250_randls_43.json,1824428,2868381,28,Woman
89,408658,DepthScenes,duration_manipulation_targetAtFixation,jsons/v1_VE250_randls_43.json,http://54.235.29.9/FacialAge/BNav_EC2/DepthDuration/v2_depth_duration_MTurk/v2_DepthDuration_HTML.html#47,47,1366,657,1366,768,9-18-2022,12-20-14,90,depth_duration_stimuli/001214_2014-06-17_16-13-55_260595134347_rgbf000111-resize_0/001214_2014-06-17_16-13-55_260595134347_rgbf000111-resize_0-target.png,250,2.6505,2.0,6182,251,feet,jsons/v1_VE250_randls_43.json,1824428,2868381,28,Woman
90,408658,DepthScenes,duration_manipulation_targetAtFixation,jsons/v1_VE250_randls_43.json,http://54.235.29.9/FacialAge/BNav_EC2/DepthDuration/v2_depth_duration_MTurk/v2_DepthDuration_HTML.html#47,47,1366,657,1366,768,9-18-2022,12-20-14,91,depth_duration_stimuli/002279_2014-06-28_18-55-32_260595134347_rgbf000040-resize_5/002279_2014-06-28_18-55-32_260595134347_rgbf000040-resize_5-target.png,250,1.5043333333333,2.0,6026,251,feet,jsons/v1_VE250_randls_43.json,1824428,2868381,28,Woman
91,408658,DepthScenes,duration_manipulation_targetAtFixation,jsons/v1_VE250_randls_43.json,http://54.235.29.9/FacialAge/BNav_EC2/DepthDuration/v2_depth_duration_MTurk/v2_DepthDuration_HTML.html#47,47,1366,657,1366,768,9-18-2022,12-20-14,92,depth_duration_stimuli/000635_2014-06-08_16-38-42_260595134347_rgbf000106-resize_1/000635_2014-06-08_16-38-42_260595134347_rgbf000106-resize_1-target.png,250,2.074,3.0,7547,251,feet,jsons/v1_VE250_randls_43.json,1824428,2868381,28,Woman
92,408658,DepthScenes,duration_manipulation_targetAtFixation,jsons/v1_VE250_randls_43.json,http://54.235.29.9/FacialAge/BNav_EC2/DepthDuration/v2_depth_duration_MTurk/v2_DepthDuration_HTML.html#47,47,1366,657,1366,768,9-18-2022,12-20-14,93,depth_duration_stimuli/001110_2014-06-15_17-25-28_260595134347_rgbf000150-resize_1/001110_2014-06-15_17-25-28_260595134347_rgbf000150-resize_1-target.png,250,1.7115,2.5,9275,251,feet,jsons/v1_VE250_randls_43.json,1824428,2868381,28,Woman
93,408658,DepthScenes,duration_manipulation_targetAtFixation,jsons/v1_VE250_randls_43.json,http://54.235.29.9/FacialAge/BNav_EC2/DepthDuration/v2_depth_duration_MTurk/v2_DepthDuration_HTML.html#47,47,1366,657,1366,768,9-18-2022,12-20-14,94,depth_duration_stimuli/000927_2014-06-09_16-32-30_260595134347_rgbf000123-resize_3/000927_2014-06-09_16-32-30_260595134347_rgbf000123-resize_3-target.png,250,2.6785,2.5,8307,250,feet,jsons/v1_VE250_randls_43.json,1824428,2868381,28,Woman
94,408658,DepthScenes,duration_manipulation_targetAtFixation,jsons/v1_VE250_randls_43.json,http://54.235.29.9/FacialAge/BNav_EC2/DepthDuration/v2_depth_duration_MTurk/v2_DepthDuration_HTML.html#47,47,1366,657,1366,768,9-18-2022,12-20-14,95,depth_duration_stimuli/002600_2014-06-24_14-27-04_094959634447_rgbf000074-resize_2/002600_2014-06-24_14-27-04_094959634447_rgbf000074-resize_2-target.png,250,2.7575,1.5,7280,250,feet,jsons/v1_VE250_randls_43.json,1824428,2868381,28,Woman
95,408658,DepthScenes,duration_manipulation_targetAtFixation,jsons/v1_VE250_randls_43.json,http://54.235.29.9/FacialAge/BNav_EC2/DepthDuration/v2_depth_duration_MTurk/v2_DepthDuration_HTML.html#47,47,1366,657,1366,768,9-18-2022,12-20-14,96,depth_duration_stimuli/003228_2014-05-14_13-42-35_094959634447_rgbf000101-resize_1/003228_2014-05-14_13-42-35_094959634447_rgbf000101-resize_1-target.png,250,1.9680000000000002,1.5,13208,251,feet,jsons/v1_VE250_randls_43.json,1824428,2868381,28,Woman
96,408658,DepthScenes,duration_manipulation_targetAtFixation,jsons/v1_VE250_randls_43.json,http://54.235.29.9/FacialAge/BNav_EC2/DepthDuration/v2_depth_duration_MTurk/v2_DepthDuration_HTML.html#47,47,1366,657,1366,768,9-18-2022,12-20-14,97,depth_duration_stimuli/000917_2014-06-09_22-45-29_260595134347_rgbf000149-resize_3/000917_2014-06-09_22-45-29_260595134347_rgbf000149-resize_3-target.png,250,4.1865,3.0,7320,250,feet,jsons/v1_VE250_randls_43.json,1824428,2868381,28,Woman
97,408658,DepthScenes,duration_manipulation_targetAtFixation,jsons/v1_VE250_randls_43.json,http://54.235.29.9/FacialAge/BNav_EC2/DepthDuration/v2_depth_duration_MTurk/v2_DepthDuration_HTML.html#47,47,1366,657,1366,768,9-18-2022,12-20-14,98,depth_duration_stimuli/002323_2014-06-28_20-01-54_260595134347_rgbf000051-resize_4/002323_2014-06-28_20-01-54_260595134347_rgbf000051-resize_4-target.png,250,3.7310000000000003,2.5,11981,249,feet,jsons/v1_VE250_randls_43.json,1824428,2868381,28,Woman
98,408658,DepthScenes,duration_manipulation_targetAtFixation,jsons/v1_VE250_randls_43.json,http://54.235.29.9/FacialAge/BNav_EC2/DepthDuration/v2_depth_duration_MTurk/v2_DepthDuration_HTML.html#47,47,1366,657,1366,768,9-18-2022,12-20-14,99,depth_duration_stimuli/001540_2014-06-20_17-01-05_260595134347_rgbf000086-resize_2/001540_2014-06-20_17-01-05_260595134347_rgbf000086-resize-original.jpg,250,1.459,0.0,6443,251,feet,jsons/v1_VE250_randls_43.json,1824428,2868381,28,Woman
99,408658,DepthScenes,duration_manipulation_targetAtFixation,jsons/v1_VE250_randls_43.json,http://54.235.29.9/FacialAge/BNav_EC2/DepthDuration/v2_depth_duration_MTurk/v2_DepthDuration_HTML.html#47,47,1366,657,1366,768,9-18-2022,12-20-14,100,depth_duration_stimuli/001158_2014-06-17_15-32-16_260595134347_rgbf000138-resize_2/001158_2014-06-17_15-32-16_260595134347_rgbf000138-resize_2-target.png,250,4.5315,3.0,7267,250,feet,jsons/v1_VE250_randls_43.json,1824428,2868381,28,Woman
100,408658,DepthScenes,duration_manipulation_targetAtFixation,jsons/v1_VE250_randls_43.json,http://54.235.29.9/FacialAge/BNav_EC2/DepthDuration/v2_depth_duration_MTurk/v2_DepthDuration_HTML.html#47,47,1366,657,1366,768,9-18-2022,12-20-14,101,depth_duration_stimuli/000556_2014-06-09_22-42-56_260595134347_rgbf000214-resize_1/000556_2014-06-09_22-42-56_260595134347_rgbf000214-resize_1-target.png,250,4.8415,2.0,7229,251,feet,jsons/v1_VE250_randls_43.json,1824428,2868381,28,Woman
101,408658,DepthScenes,duration_manipulation_targetAtFixation,jsons/v1_VE250_randls_43.json,http://54.235.29.9/FacialAge/BNav_EC2/DepthDuration/v2_depth_duration_MTurk/v2_DepthDuration_HTML.html#47,47,1366,657,1366,768,9-18-2022,12-20-14,102,depth_duration_stimuli/000436_2014-06-09_22-25-11_260595134347_rgbf000137-resize_1/000436_2014-06-09_22-25-11_260595134347_rgbf000137-resize_1-target.png,250,4.0705,2.5,8280,250,feet,jsons/v1_VE250_randls_43.json,1824428,2868381,28,Woman
102,408658,DepthScenes,duration_manipulation_targetAtFixation,jsons/v1_VE250_randls_43.json,http://54.235.29.9/FacialAge/BNav_EC2/DepthDuration/v2_depth_duration_MTurk/v2_DepthDuration_HTML.html#47,47,1366,657,1366,768,9-18-2022,12-20-14,103,depth_duration_stimuli/002444_2014-06-28_20-32-08_260595134347_rgbf000027-resize_0/002444_2014-06-28_20-32-08_260595134347_rgbf000027-resize_0-target.png,250,4.388999999999999,2.5,19505,251,feet,jsons/v1_VE250_randls_43.json,1824428,2868381,28,Woman
103,408658,DepthScenes,duration_manipulation_targetAtFixation,jsons/v1_VE250_randls_43.json,http://54.235.29.9/FacialAge/BNav_EC2/DepthDuration/v2_depth_duration_MTurk/v2_DepthDuration_HTML.html#47,47,1366,657,1366,768,9-18-2022,12-20-14,104,depth_duration_stimuli/001011_2014-06-08_23-18-54_260595134347_rgbf000044-resize_4/001011_2014-06-08_23-18-54_260595134347_rgbf000044-resize_4-target.png,250,2.4730000000000003,3.5,8561,251,feet,jsons/v1_VE250_randls_43.json,1824428,2868381,28,Woman
104,408658,DepthScenes,duration_manipulation_targetAtFixation,jsons/v1_VE250_randls_43.json,http://54.235.29.9/FacialAge/BNav_EC2/DepthDuration/v2_depth_duration_MTurk/v2_DepthDuration_HTML.html#47,47,1366,657,1366,768,9-18-2022,12-20-14,105,depth_duration_stimuli/002875_2014-06-01_15-19-00_094959634447_rgbf000151-resize_1/002875_2014-06-01_15-19-00_094959634447_rgbf000151-resize_1-target.png,250,1.9675,3.5,14672,250,feet,jsons/v1_VE250_randls_43.json,1824428,2868381,28,Woman
105,408658,DepthScenes,duration_manipulation_targetAtFixation,jsons/v1_VE250_randls_43.json,http://54.235.29.9/FacialAge/BNav_EC2/DepthDuration/v2_depth_duration_MTurk/v2_DepthDuration_HTML.html#47,47,1366,657,1366,768,9-18-2022,12-20-14,106,depth_duration_stimuli/003492_2014-05-21_15-50-55_094959634447_rgbf000828-resize_1/003492_2014-05-21_15-50-55_094959634447_rgbf000828-resize_1-target.png,250,4.06875,3.2,22476,251,feet,jsons/v1_VE250_randls_43.json,1824428,2868381,28,Woman
106,408658,DepthScenes,duration_manipulation_targetAtFixation,jsons/v1_VE250_randls_43.json,http://54.235.29.9/FacialAge/BNav_EC2/DepthDuration/v2_depth_duration_MTurk/v2_DepthDuration_HTML.html#47,47,1366,657,1366,768,9-18-2022,12-20-14,107,depth_duration_stimuli/002568_2014-06-24_13-59-21_094959634447_rgbf000062-resize_4/002568_2014-06-24_13-59-21_094959634447_rgbf000062-resize_4-target.png,250,3.015,2.5,9738,249,feet,jsons/v1_VE250_randls_43.json,1824428,2868381,28,Woman
107,408658,DepthScenes,duration_manipulation_targetAtFixation,jsons/v1_VE250_randls_43.json,http://54.235.29.9/FacialAge/BNav_EC2/DepthDuration/v2_depth_duration_MTurk/v2_DepthDuration_HTML.html#47,47,1366,657,1366,768,9-18-2022,12-20-14,108,depth_duration_stimuli/001164_2014-06-17_15-35-46_260595134347_rgbf000085-resize_3/001164_2014-06-17_15-35-46_260595134347_rgbf000085-resize_3-target.png,250,2.354,3.0,5447,250,feet,jsons/v1_VE250_randls_43.json,1824428,2868381,28,Woman
108,408658,DepthScenes,duration_manipulation_targetAtFixation,jsons/v1_VE250_randls_43.json,http://54.235.29.9/FacialAge/BNav_EC2/DepthDuration/v2_depth_duration_MTurk/v2_DepthDuration_HTML.html#47,47,1366,657,1366,768,9-18-2022,12-20-14,109,depth_duration_stimuli/001136_2014-06-17_15-19-41_260595134347_rgbf000076-resize_3/001136_2014-06-17_15-19-41_260595134347_rgbf000076-resize_3-target.png,250,1.8655,3.0,11431,250,feet,jsons/v1_VE250_randls_43.json,1824428,2868381,28,Woman
109,408658,DepthScenes,duration_manipulation_targetAtFixation,jsons/v1_VE250_randls_43.json,http://54.235.29.9/FacialAge/BNav_EC2/DepthDuration/v2_depth_duration_MTurk/v2_DepthDuration_HTML.html#47,47,1366,657,1366,768,9-18-2022,12-20-14,110,depth_duration_stimuli/000506_2014-06-08_23-21-00_260595134347_rgbf000070-resize_7/000506_2014-06-08_23-21-00_260595134347_rgbf000070-resize_7-target.png,250,4.0585,3.0,6578,250,feet,jsons/v1_VE250_randls_43.json,1824428,2868381,28,Woman
110,408658,DepthScenes,duration_manipulation_targetAtFixation,jsons/v1_VE250_randls_43.json,http://54.235.29.9/FacialAge/BNav_EC2/DepthDuration/v2_depth_duration_MTurk/v2_DepthDuration_HTML.html#47,47,1366,657,1366,768,9-18-2022,12-20-14,111,depth_duration_stimuli/003079_2014-06-15_15-18-20_094959634447_rgbf000152-resize_8/003079_2014-06-15_15-18-20_094959634447_rgbf000152-resize_8-target.png,250,2.8775,5.5,7821,250,feet,jsons/v1_VE250_randls_43.json,1824428,2868381,28,Woman
111,408658,DepthScenes,duration_manipulation_targetAtFixation,jsons/v1_VE250_randls_43.json,http://54.235.29.9/FacialAge/BNav_EC2/DepthDuration/v2_depth_duration_MTurk/v2_DepthDuration_HTML.html#47,47,1366,657,1366,768,9-18-2022,12-20-14,112,depth_duration_stimuli/000493_2014-06-09_21-01-18_260595134347_rgbf000196-resize_3/000493_2014-06-09_21-01-18_260595134347_rgbf000196-resize_3-target.png,250,3.44,2.7,9700,250,feet,jsons/v1_VE250_randls_43.json,1824428,2868381,28,Woman
112,408658,DepthScenes,duration_manipulation_targetAtFixation,jsons/v1_VE250_randls_43.json,http://54.235.29.9/FacialAge/BNav_EC2/DepthDuration/v2_depth_duration_MTurk/v2_DepthDuration_HTML.html#47,47,1366,657,1366,768,9-18-2022,12-20-14,113,depth_duration_stimuli/000191_2014-05-12_17-07-38_260595134347_rgbf000199-resize_0/000191_2014-05-12_17-07-38_260595134347_rgbf000199-resize_0-target.png,250,3.7995,5.0,8373,249,feet,jsons/v1_VE250_randls_43.json,1824428,2868381,28,Woman
113,408658,DepthScenes,duration_manipulation_targetAtFixation,jsons/v1_VE250_randls_43.json,http://54.235.29.9/FacialAge/BNav_EC2/DepthDuration/v2_depth_duration_MTurk/v2_DepthDuration_HTML.html#47,47,1366,657,1366,768,9-18-2022,12-20-14,114,depth_duration_stimuli/000486_2014-06-09_20-47-20_260595134347_rgbf000143-resize_2/000486_2014-06-09_20-47-20_260595134347_rgbf000143-resize_2-target.png,250,4.8325,2.2,10682,250,feet,jsons/v1_VE250_randls_43.json,1824428,2868381,28,Woman
114,408658,DepthScenes,duration_manipulation_targetAtFixation,jsons/v1_VE250_randls_43.json,http://54.235.29.9/FacialAge/BNav_EC2/DepthDuration/v2_depth_duration_MTurk/v2_DepthDuration_HTML.html#47,47,1366,657,1366,768,9-18-2022,12-20-14,115,depth_duration_stimuli/003083_2014-06-15_15-21-03_094959634447_rgbf000063-resize_1/003083_2014-06-15_15-21-03_094959634447_rgbf000063-resize_1-target.png,250,4.1405,6.0,8988,251,feet,jsons/v1_VE250_randls_43.json,1824428,2868381,28,Woman
115,408658,DepthScenes,duration_manipulation_targetAtFixation,jsons/v1_VE250_randls_43.json,http://54.235.29.9/FacialAge/BNav_EC2/DepthDuration/v2_depth_duration_MTurk/v2_DepthDuration_HTML.html#47,47,1366,657,1366,768,9-18-2022,12-20-14,116,depth_duration_stimuli/001170_2014-06-17_15-43-44_260595134347_rgbf000096-resize_6/001170_2014-06-17_15-43-44_260595134347_rgbf000096-resize-original.jpg,250,1.1909999999999998,0.0,7411,251,feet,jsons/v1_VE250_randls_43.json,1824428,2868381,28,Woman
116,408658,DepthScenes,duration_manipulation_targetAtFixation,jsons/v1_VE250_randls_43.json,http://54.235.29.9/FacialAge/BNav_EC2/DepthDuration/v2_depth_duration_MTurk/v2_DepthDuration_HTML.html#47,47,1366,657,1366,768,9-18-2022,12-20-14,117,depth_duration_stimuli/000469_2014-06-09_19-42-10_260595134347_rgbf000081-resize_1/000469_2014-06-09_19-42-10_260595134347_rgbf000081-resize_1-target.png,250,1.652,2.0,6285,250,feet,jsons/v1_VE250_randls_43.json,1824428,2868381,28,Woman
117,408658,DepthScenes,duration_manipulation_targetAtFixation,jsons/v1_VE250_randls_43.json,http://54.235.29.9/FacialAge/BNav_EC2/DepthDuration/v2_depth_duration_MTurk/v2_DepthDuration_HTML.html#47,47,1366,657,1366,768,9-18-2022,12-20-14,118,depth_duration_stimuli/000483_2014-06-09_20-41-45_260595134347_rgbf000116-resize_4/000483_2014-06-09_20-41-45_260595134347_rgbf000116-resize_4-target.png,250,1.337,2.0,5650,251,feet,jsons/v1_VE250_randls_43.json,1824428,2868381,28,Woman
118,408658,DepthScenes,duration_manipulation_targetAtFixation,jsons/v1_VE250_randls_43.json,http://54.235.29.9/FacialAge/BNav_EC2/DepthDuration/v2_depth_duration_MTurk/v2_DepthDuration_HTML.html#47,47,1366,657,1366,768,9-18-2022,12-20-14,119,depth_duration_stimuli/001449_2014-06-19_17-01-27_260595134347_rgbf000116-resize_2/001449_2014-06-19_17-01-27_260595134347_rgbf000116-resize_2-target.png,250,3.452,2.0,8948,250,feet,jsons/v1_VE250_randls_43.json,1824428,2868381,28,Woman
119,408658,DepthScenes,duration_manipulation_targetAtFixation,jsons/v1_VE250_randls_43.json,http://54.235.29.9/FacialAge/BNav_EC2/DepthDuration/v2_depth_duration_MTurk/v2_DepthDuration_HTML.html#47,47,1366,657,1366,768,9-18-2022,12-20-14,120,depth_duration_stimuli/001450_2014-06-19_17-02-03_260595134347_rgbf000203-resize_4/001450_2014-06-19_17-02-03_260595134347_rgbf000203-resize_4-target.png,250,4.0106666666667,3.3,8637,250,feet,jsons/v1_VE250_randls_43.json,1824428,2868381,28,Woman
120,408658,DepthScenes,duration_manipulation_targetAtFixation,jsons/v1_VE250_randls_43.json,http://54.235.29.9/FacialAge/BNav_EC2/DepthDuration/v2_depth_duration_MTurk/v2_DepthDuration_HTML.html#47,47,1366,657,1366,768,9-18-2022,12-20-14,121,depth_duration_stimuli/001244_2014-06-17_16-47-45_260595134347_rgbf000030-resize_4/001244_2014-06-17_16-47-45_260595134347_rgbf000030-resize_4-target.png,250,2.0425,2.5,10281,250,feet,jsons/v1_VE250_randls_43.json,1824428,2868381,28,Woman
121,408658,DepthScenes,duration_manipulation_targetAtFixation,jsons/v1_VE250_randls_43.json,http://54.235.29.9/FacialAge/BNav_EC2/DepthDuration/v2_depth_duration_MTurk/v2_DepthDuration_HTML.html#47,47,1366,657,1366,768,9-18-2022,12-20-14,122,depth_duration_stimuli/003495_2014-05-21_16-01-51_094959634447_rgbf000100-resize_3/003495_2014-05-21_16-01-51_094959634447_rgbf000100-resize_3-target.png,250,1.6255,0.5,11984,250,feet,jsons/v1_VE250_randls_43.json,1824428,2868381,28,Woman
122,408658,DepthScenes,duration_manipulation_targetAtFixation,jsons/v1_VE250_randls_43.json,http://54.235.29.9/FacialAge/BNav_EC2/DepthDuration/v2_depth_duration_MTurk/v2_DepthDuration_HTML.html#47,47,1366,657,1366,768,9-18-2022,12-20-14,123,depth_duration_stimuli/000009_2014-05-26_14-32-05_260595134347_rgbf000034-resize_3/000009_2014-05-26_14-32-05_260595134347_rgbf000034-resize_3-target.png,250,3.8715,6.0,6804,250,feet,jsons/v1_VE250_randls_43.json,1824428,2868381,28,Woman
123,408658,DepthScenes,duration_manipulation_targetAtFixation,jsons/v1_VE250_randls_43.json,http://54.235.29.9/FacialAge/BNav_EC2/DepthDuration/v2_depth_duration_MTurk/v2_DepthDuration_HTML.html#47,47,1366,657,1366,768,9-18-2022,12-20-14,124,depth_duration_stimuli/001828_2014-06-26_21-40-03_260595134347_rgbf000024-resize_0/001828_2014-06-26_21-40-03_260595134347_rgbf000024-resize_0-target.png,250,4.8260000000000005,2.0,6881,251,feet,jsons/v1_VE250_randls_43.json,1824428,2868381,28,Woman
124,408658,DepthScenes,duration_manipulation_targetAtFixation,jsons/v1_VE250_randls_43.json,http://54.235.29.9/FacialAge/BNav_EC2/DepthDuration/v2_depth_duration_MTurk/v2_DepthDuration_HTML.html#47,47,1366,657,1366,768,9-18-2022,12-20-14,125,depth_duration_stimuli/000522_2014-06-08_13-35-06_260595134347_rgbf000244-resize_1/000522_2014-06-08_13-35-06_260595134347_rgbf000244-resize_1-target.png,250,2.3715,3.0,6255,250,feet,jsons/v1_VE250_randls_43.json,1824428,2868381,28,Woman
125,408658,DepthScenes,duration_manipulation_targetAtFixation,jsons/v1_VE250_randls_43.json,http://54.235.29.9/FacialAge/BNav_EC2/DepthDuration/v2_depth_duration_MTurk/v2_DepthDuration_HTML.html#47,47,1366,657,1366,768,9-18-2022,12-20-14,126,depth_duration_stimuli/002949_2014-06-26_15-57-42_094959634447_rgbf000079-resize_1/002949_2014-06-26_15-57-42_094959634447_rgbf000079-resize_1-target.png,250,1.8915,1.5,7665,250,feet,jsons/v1_VE250_randls_43.json,1824428,2868381,28,Woman
126,408658,DepthScenes,duration_manipulation_targetAtFixation,jsons/v1_VE250_randls_43.json,http://54.235.29.9/FacialAge/BNav_EC2/DepthDuration/v2_depth_duration_MTurk/v2_DepthDuration_HTML.html#47,47,1366,657,1366,768,9-18-2022,12-20-14,127,depth_duration_stimuli/002043_2014-06-24_20-29-38_260595134347_rgbf000039-resize_4/002043_2014-06-24_20-29-38_260595134347_rgbf000039-resize_4-target.png,250,2.8435,2.5,7739,250,feet,jsons/v1_VE250_randls_43.json,1824428,2868381,28,Woman
127,408658,DepthScenes,duration_manipulation_targetAtFixation,jsons/v1_VE250_randls_43.json,http://54.235.29.9/FacialAge/BNav_EC2/DepthDuration/v2_depth_duration_MTurk/v2_DepthDuration_HTML.html#47,47,1366,657,1366,768,9-18-2022,12-20-14,128,depth_duration_stimuli/003048_2014-06-15_13-49-43_094959634447_rgbf000150-resize_1/003048_2014-06-15_13-49-43_094959634447_rgbf000150-resize_1-target.png,250,4.0035,5.5,35719,249,feet,jsons/v1_VE250_randls_43.json,1824428,2868381,28,Woman
128,408658,DepthScenes,duration_manipulation_targetAtFixation,jsons/v1_VE250_randls_43.json,http://54.235.29.9/FacialAge/BNav_EC2/DepthDuration/v2_depth_duration_MTurk/v2_DepthDuration_HTML.html#47,47,1366,657,1366,768,9-18-2022,12-20-14,129,depth_duration_stimuli/001133_2014-06-17_14-49-16_260595134347_rgbf000100-resize_0/001133_2014-06-17_14-49-16_260595134347_rgbf000100-resize_0-target.png,250,4.2115,2.2,11631,250,feet,jsons/v1_VE250_randls_43.json,1824428,2868381,28,Woman
129,408658,DepthScenes,duration_manipulation_targetAtFixation,jsons/v1_VE250_randls_43.json,http://54.235.29.9/FacialAge/BNav_EC2/DepthDuration/v2_depth_duration_MTurk/v2_DepthDuration_HTML.html#47,47,1366,657,1366,768,9-18-2022,12-20-14,130,depth_duration_stimuli/001132_2014-06-17_14-48-54_260595134347_rgbf000100-resize_2/001132_2014-06-17_14-48-54_260595134347_rgbf000100-resize_2-target.png,250,3.753,3.0,7475,249,feet,jsons/v1_VE250_randls_43.json,1824428,2868381,28,Woman
130,408658,DepthScenes,duration_manipulation_targetAtFixation,jsons/v1_VE250_randls_43.json,http://54.235.29.9/FacialAge/BNav_EC2/DepthDuration/v2_depth_duration_MTurk/v2_DepthDuration_HTML.html#47,47,1366,657,1366,768,9-18-2022,12-20-14,131,depth_duration_stimuli/002788_2014-06-22_19-36-03_094959634447_rgbf000088-resize_2/002788_2014-06-22_19-36-03_094959634447_rgbf000088-resize_2-target.png,250,1.6465,3.0,11638,251,feet,jsons/v1_VE250_randls_43.json,1824428,2868381,28,Woman
131,408658,DepthScenes,duration_manipulation_targetAtFixation,jsons/v1_VE250_randls_43.json,http://54.235.29.9/FacialAge/BNav_EC2/DepthDuration/v2_depth_duration_MTurk/v2_DepthDuration_HTML.html#47,47,1366,657,1366,768,9-18-2022,12-20-14,132,depth_duration_stimuli/000749_2014-06-08_21-55-06_260595134347_rgbf000070-resize_2/000749_2014-06-08_21-55-06_260595134347_rgbf000070-resize_2-target.png,250,2.331,2.5,8081,250,feet,jsons/v1_VE250_randls_43.json,1824428,2868381,28,Woman
132,408658,DepthScenes,duration_manipulation_targetAtFixation,jsons/v1_VE250_randls_43.json,http://54.235.29.9/FacialAge/BNav_EC2/DepthDuration/v2_depth_duration_MTurk/v2_DepthDuration_HTML.html#47,47,1366,657,1366,768,9-18-2022,12-20-14,133,depth_duration_stimuli/000758_2014-06-08_22-05-08_260595134347_rgbf000085-resize_0/000758_2014-06-08_22-05-08_260595134347_rgbf000085-resize_0-target.png,250,3.3810000000000002,5.0,12055,250,feet,jsons/v1_VE250_randls_43.json,1824428,2868381,28,Woman
133,408658,DepthScenes,duration_manipulation_targetAtFixation,jsons/v1_VE250_randls_43.json,http://54.235.29.9/FacialAge/BNav_EC2/DepthDuration/v2_depth_duration_MTurk/v2_DepthDuration_HTML.html#47,47,1366,657,1366,768,9-18-2022,12-20-14,134,depth_duration_stimuli/000854_2014-06-09_19-43-13_260595134347_rgbf000066-resize_0/000854_2014-06-09_19-43-13_260595134347_rgbf000066-resize_0-target.png,250,3.068,1.5,10908,249,feet,jsons/v1_VE250_randls_43.json,1824428,2868381,28,Woman
134,408658,DepthScenes,duration_manipulation_targetAtFixation,jsons/v1_VE250_randls_43.json,http://54.235.29.9/FacialAge/BNav_EC2/DepthDuration/v2_depth_duration_MTurk/v2_DepthDuration_HTML.html#47,47,1366,657,1366,768,9-18-2022,12-20-14,135,depth_duration_stimuli/002072_2014-06-24_21-48-06_260595134347_rgbf000115-resize_0/002072_2014-06-24_21-48-06_260595134347_rgbf000115-resize-original.jpg,250,4.702,0.0,5441,250,feet,jsons/v1_VE250_randls_43.json,1824428,2868381,28,Woman
135,408658,DepthScenes,duration_manipulation_targetAtFixation,jsons/v1_VE250_randls_43.json,http://54.235.29.9/FacialAge/BNav_EC2/DepthDuration/v2_depth_duration_MTurk/v2_DepthDuration_HTML.html#47,47,1366,657,1366,768,9-18-2022,12-20-14,136,depth_duration_stimuli/002725_2014-06-22_11-47-51_094959634447_rgbf000070-resize_1/002725_2014-06-22_11-47-51_094959634447_rgbf000070-resize_1-target.png,250,2.195,4.0,10016,251,feet,jsons/v1_VE250_randls_43.json,1824428,2868381,28,Woman
136,408658,DepthScenes,duration_manipulation_targetAtFixation,jsons/v1_VE250_randls_43.json,http://54.235.29.9/FacialAge/BNav_EC2/DepthDuration/v2_depth_duration_MTurk/v2_DepthDuration_HTML.html#47,47,1366,657,1366,768,9-18-2022,12-20-14,137,depth_duration_stimuli/002344_2014-06-28_20-06-29_260595134347_rgbf000030-resize_1/002344_2014-06-28_20-06-29_260595134347_rgbf000030-resize_1-target.png,250,1.5795,1.5,12021,249,feet,jsons/v1_VE250_randls_43.json,1824428,2868381,28,Woman
137,408658,DepthScenes,duration_manipulation_targetAtFixation,jsons/v1_VE250_randls_43.json,http://54.235.29.9/FacialAge/BNav_EC2/DepthDuration/v2_depth_duration_MTurk/v2_DepthDuration_HTML.html#47,47,1366,657,1366,768,9-18-2022,12-20-14,138,depth_duration_stimuli/001016_2014-06-09_16-16-10_260595134347_rgbf000112-resize_5/001016_2014-06-09_16-16-10_260595134347_rgbf000112-resize_5-target.png,250,1.6565,3.0,5948,249,feet,jsons/v1_VE250_randls_43.json,1824428,2868381,28,Woman
138,408658,DepthScenes,duration_manipulation_targetAtFixation,jsons/v1_VE250_randls_43.json,http://54.235.29.9/FacialAge/BNav_EC2/DepthDuration/v2_depth_duration_MTurk/v2_DepthDuration_HTML.html#47,47,1366,657,1366,768,9-18-2022,12-20-14,139,depth_duration_stimuli/002340_2014-06-28_20-05-46_260595134347_rgbf000113-resize_0/002340_2014-06-28_20-05-46_260595134347_rgbf000113-resize_0-target.png,250,2.4735,5.0,8676,250,feet,jsons/v1_VE250_randls_43.json,1824428,2868381,28,Woman
139,408658,DepthScenes,duration_manipulation_targetAtFixation,jsons/v1_VE250_randls_43.json,http://54.235.29.9/FacialAge/BNav_EC2/DepthDuration/v2_depth_duration_MTurk/v2_DepthDuration_HTML.html#47,47,1366,657,1366,768,9-18-2022,12-20-14,140,depth_duration_stimuli/002375_2014-06-28_20-13-44_260595134347_rgbf000032-resize_1/002375_2014-06-28_20-13-44_260595134347_rgbf000032-resize_1-target.png,250,4.0175,3.0,6031,249,feet,jsons/v1_VE250_randls_43.json,1824428,2868381,28,Woman
140,408658,DepthScenes,duration_manipulation_targetAtFixation,jsons/v1_VE250_randls_43.json,http://54.235.29.9/FacialAge/BNav_EC2/DepthDuration/v2_depth_duration_MTurk/v2_DepthDuration_HTML.html#47,47,1366,657,1366,768,9-18-2022,12-20-14,141,depth_duration_stimuli/002657_2014-06-13_15-29-54_094959634447_rgbf000150-resize_1/002657_2014-06-13_15-29-54_094959634447_rgbf000150-resize_1-target.png,250,4.919,3.0,13528,250,feet,jsons/v1_VE250_randls_43.json,1824428,2868381,28,Woman
141,408658,DepthScenes,duration_manipulation_targetAtFixation,jsons/v1_VE250_randls_43.json,http://54.235.29.9/FacialAge/BNav_EC2/DepthDuration/v2_depth_duration_MTurk/v2_DepthDuration_HTML.html#47,47,1366,657,1366,768,9-18-2022,12-20-14,142,depth_duration_stimuli/001199_2014-06-17_16-03-48_260595134347_rgbf000077-resize_0/001199_2014-06-17_16-03-48_260595134347_rgbf000077-resize_0-target.png,250,3.4375,3.5,7117,251,feet,jsons/v1_VE250_randls_43.json,1824428,2868381,28,Woman
142,408658,DepthScenes,duration_manipulation_targetAtFixation,jsons/v1_VE250_randls_43.json,http://54.235.29.9/FacialAge/BNav_EC2/DepthDuration/v2_depth_duration_MTurk/v2_DepthDuration_HTML.html#47,47,1366,657,1366,768,9-18-2022,12-20-14,143,depth_duration_stimuli/000502_2014-06-08_23-02-32_260595134347_rgbf000063-resize_4/000502_2014-06-08_23-02-32_260595134347_rgbf000063-resize_4-target.png,250,2.431,2.0,7801,251,feet,jsons/v1_VE250_randls_43.json,1824428,2868381,28,Woman
143,408658,DepthScenes,duration_manipulation_targetAtFixation,jsons/v1_VE250_randls_43.json,http://54.235.29.9/FacialAge/BNav_EC2/DepthDuration/v2_depth_duration_MTurk/v2_DepthDuration_HTML.html#47,47,1366,657,1366,768,9-18-2022,12-20-14,144,depth_duration_stimuli/000692_2014-06-08_13-09-42_260595134347_rgbf000199-resize_2/000692_2014-06-08_13-09-42_260595134347_rgbf000199-resize_2-target.png,250,3.661,3.0,6634,250,feet,jsons/v1_VE250_randls_43.json,1824428,2868381,28,Woman
144,408658,DepthScenes,duration_manipulation_targetAtFixation,jsons/v1_VE250_randls_43.json,http://54.235.29.9/FacialAge/BNav_EC2/DepthDuration/v2_depth_duration_MTurk/v2_DepthDuration_HTML.html#47,47,1366,657,1366,768,9-18-2022,12-20-14,145,depth_duration_stimuli/001094_2014-06-15_17-36-00_260595134347_rgbf000205-resize_0/001094_2014-06-15_17-36-00_260595134347_rgbf000205-resize_0-target.png,250,4.2175,2.0,4799,251,feet,jsons/v1_VE250_randls_43.json,1824428,2868381,28,Woman
145,408658,DepthScenes,duration_manipulation_targetAtFixation,jsons/v1_VE250_randls_43.json,http://54.235.29.9/FacialAge/BNav_EC2/DepthDuration/v2_depth_duration_MTurk/v2_DepthDuration_HTML.html#47,47,1366,657,1366,768,9-18-2022,12-20-14,146,depth_duration_stimuli/001498_2014-06-19_17-45-14_260595134347_rgbf000129-resize_4/001498_2014-06-19_17-45-14_260595134347_rgbf000129-resize-original.jpg,250,1.4075,0.0,5808,251,feet,jsons/v1_VE250_randls_43.json,1824428,2868381,28,Woman
146,408658,DepthScenes,duration_manipulation_targetAtFixation,jsons/v1_VE250_randls_43.json,http://54.235.29.9/FacialAge/BNav_EC2/DepthDuration/v2_depth_duration_MTurk/v2_DepthDuration_HTML.html#47,47,1366,657,1366,768,9-18-2022,12-20-14,147,depth_duration_stimuli/003534_2014-05-22_15-06-10_094959634447_rgbf000102-resize_4/003534_2014-05-22_15-06-10_094959634447_rgbf000102-resize_4-target.png,250,1.426,1.0,12478,251,feet,jsons/v1_VE250_randls_43.json,1824428,2868381,28,Woman
147,408658,DepthScenes,duration_manipulation_targetAtFixation,jsons/v1_VE250_randls_43.json,http://54.235.29.9/FacialAge/BNav_EC2/DepthDuration/v2_depth_duration_MTurk/v2_DepthDuration_HTML.html#47,47,1366,657,1366,768,9-18-2022,12-20-14,148,depth_duration_stimuli/002637_2014-06-24_14-51-13_094959634447_rgbf000066-resize_4/002637_2014-06-24_14-51-13_094959634447_rgbf000066-resize_4-target.png,250,1.9955,3.0,8305,251,feet,jsons/v1_VE250_randls_43.json,1824428,2868381,28,Woman
148,408658,DepthScenes,duration_manipulation_targetAtFixation,jsons/v1_VE250_randls_43.json,http://54.235.29.9/FacialAge/BNav_EC2/DepthDuration/v2_depth_duration_MTurk/v2_DepthDuration_HTML.html#47,47,1366,657,1366,768,9-18-2022,12-20-14,149,depth_duration_stimuli/001806_2014-06-26_20-50-20_260595134347_rgbf000091-resize_1/001806_2014-06-26_20-50-20_260595134347_rgbf000091-resize_1-target.png,250,2.7305,2.5,8106,251,feet,jsons/v1_VE250_randls_43.json,1824428,2868381,28,Woman
149,408658,DepthScenes,duration_manipulation_targetAtFixation,jsons/v1_VE250_randls_43.json,http://54.235.29.9/FacialAge/BNav_EC2/DepthDuration/v2_depth_duration_MTurk/v2_DepthDuration_HTML.html#47,47,1366,657,1366,768,9-18-2022,12-20-14,150,depth_duration_stimuli/001617_2014-06-20_11-35-32_260595134347_rgbf000066-resize_1/001617_2014-06-20_11-35-32_260595134347_rgbf000066-resize_1-target.png,250,3.7910000000000004,4.0,6638,250,feet,jsons/v1_VE250_randls_43.json,1824428,2868381,28,Woman
150,408658,DepthScenes,duration_manipulation_targetAtFixation,jsons/v1_VE250_randls_43.json,http://54.235.29.9/FacialAge/BNav_EC2/DepthDuration/v2_depth_duration_MTurk/v2_DepthDuration_HTML.html#47,47,1366,657,1366,768,9-18-2022,12-20-14,151,depth_duration_stimuli/001059_2014-06-08_21-53-27_260595134347_rgbf000061-resize_4/001059_2014-06-08_21-53-27_260595134347_rgbf000061-resize_4-target.png,250,2.4185,3.5,8980,250,feet,jsons/v1_VE250_randls_43.json,1824428,2868381,28,Woman
151,408658,DepthScenes,duration_manipulation_targetAtFixation,jsons/v1_VE250_randls_43.json,http://54.235.29.9/FacialAge/BNav_EC2/DepthDuration/v2_depth_duration_MTurk/v2_DepthDuration_HTML.html#47,47,1366,657,1366,768,9-18-2022,12-20-14,152,depth_duration_stimuli/001032_2014-06-08_13-23-17_260595134347_rgbf000021-resize_3/001032_2014-06-08_13-23-17_260595134347_rgbf000021-resize_3-target.png,250,3.2725,2.0,8218,250,feet,jsons/v1_VE250_randls_43.json,1824428,2868381,28,Woman
152,408658,DepthScenes,duration_manipulation_targetAtFixation,jsons/v1_VE250_randls_43.json,http://54.235.29.9/FacialAge/BNav_EC2/DepthDuration/v2_depth_duration_MTurk/v2_DepthDuration_HTML.html#47,47,1366,657,1366,768,9-18-2022,12-20-14,153,depth_duration_stimuli/001555_2014-06-20_17-12-10_260595134347_rgbf000065-resize_4/001555_2014-06-20_17-12-10_260595134347_rgbf000065-resize_4-target.png,250,1.633,1.5,6619,251,feet,jsons/v1_VE250_randls_43.json,1824428,2868381,28,Woman
153,408658,DepthScenes,duration_manipulation_targetAtFixation,jsons/v1_VE250_randls_43.json,http://54.235.29.9/FacialAge/BNav_EC2/DepthDuration/v2_depth_duration_MTurk/v2_DepthDuration_HTML.html#47,47,1366,657,1366,768,9-18-2022,12-20-14,154,depth_duration_stimuli/000103_2014-05-14_22-01-17_260595134347_rgbf000152-resize_5/000103_2014-05-14_22-01-17_260595134347_rgbf000152-resize_5-target.png,250,1.993,5.0,4960,249,feet,jsons/v1_VE250_randls_43.json,1824428,2868381,28,Woman
154,408658,DepthScenes,duration_manipulation_targetAtFixation,jsons/v1_VE250_randls_43.json,http://54.235.29.9/FacialAge/BNav_EC2/DepthDuration/v2_depth_duration_MTurk/v2_DepthDuration_HTML.html#47,47,1366,657,1366,768,9-18-2022,12-20-14,155,depth_duration_stimuli/002964_2014-06-08_17-46-11_094959634447_rgbf000091-resize_4/002964_2014-06-08_17-46-11_094959634447_rgbf000091-resize_4-target.png,250,1.6909999999999998,2.2,8916,251,feet,jsons/v1_VE250_randls_43.json,1824428,2868381,28,Woman
155,408658,DepthScenes,duration_manipulation_targetAtFixation,jsons/v1_VE250_randls_43.json,http://54.235.29.9/FacialAge/BNav_EC2/DepthDuration/v2_depth_duration_MTurk/v2_DepthDuration_HTML.html#47,47,1366,657,1366,768,9-18-2022,12-20-14,156,depth_duration_stimuli/002136_2014-06-25_21-18-03_260595134347_rgbf000109-resize_3/002136_2014-06-25_21-18-03_260595134347_rgbf000109-resize_3-target.png,250,1.9569999999999999,3.5,8049,251,feet,jsons/v1_VE250_randls_43.json,1824428,2868381,28,Woman
156,408658,DepthScenes,duration_manipulation_targetAtFixation,jsons/v1_VE250_randls_43.json,http://54.235.29.9/FacialAge/BNav_EC2/DepthDuration/v2_depth_duration_MTurk/v2_DepthDuration_HTML.html#47,47,1366,657,1366,768,9-18-2022,12-20-14,157,depth_duration_stimuli/002630_2014-06-24_14-47-50_094959634447_rgbf000055-resize_1/002630_2014-06-24_14-47-50_094959634447_rgbf000055-resize_1-target.png,250,3.0095,3.0,6497,251,feet,jsons/v1_VE250_randls_43.json,1824428,2868381,28,Woman
157,408658,DepthScenes,duration_manipulation_targetAtFixation,jsons/v1_VE250_randls_43.json,http://54.235.29.9/FacialAge/BNav_EC2/DepthDuration/v2_depth_duration_MTurk/v2_DepthDuration_HTML.html#47,47,1366,657,1366,768,9-18-2022,12-20-14,158,depth_duration_stimuli/002758_2014-06-22_19-11-20_094959634447_rgbf000128-resize_1/002758_2014-06-22_19-11-20_094959634447_rgbf000128-resize_1-target.png,250,2.555,2.0,12032,250,feet,jsons/v1_VE250_randls_43.json,1824428,2868381,28,Woman
158,408658,DepthScenes,duration_manipulation_targetAtFixation,jsons/v1_VE250_randls_43.json,http://54.235.29.9/FacialAge/BNav_EC2/DepthDuration/v2_depth_duration_MTurk/v2_DepthDuration_HTML.html#47,47,1366,657,1366,768,9-18-2022,12-20-14,159,depth_duration_stimuli/002039_2014-06-24_20-22-38_260595134347_rgbf000084-resize_1/002039_2014-06-24_20-22-38_260595134347_rgbf000084-resize_1-target.png,250,4.408,2.5,8305,249,feet,jsons/v1_VE250_randls_43.json,1824428,2868381,28,Woman
159,408658,DepthScenes,duration_manipulation_targetAtFixation,jsons/v1_VE250_randls_43.json,http://54.235.29.9/FacialAge/BNav_EC2/DepthDuration/v2_depth_duration_MTurk/v2_DepthDuration_HTML.html#47,47,1366,657,1366,768,9-18-2022,12-20-14,160,depth_duration_stimuli/002103_2014-06-25_20-00-40_260595134347_rgbf000049-resize_0/002103_2014-06-25_20-00-40_260595134347_rgbf000049-resize_0-target.png,250,4.105,4.0,8509,250,feet,jsons/v1_VE250_randls_43.json,1824428,2868381,28,Woman
160,408658,DepthScenes,duration_manipulation_targetAtFixation,jsons/v1_VE250_randls_43.json,http://54.235.29.9/FacialAge/BNav_EC2/DepthDuration/v2_depth_duration_MTurk/v2_DepthDuration_HTML.html#47,47,1366,657,1366,768,9-18-2022,12-20-14,161,depth_duration_stimuli/000736_2014-06-08_18-24-15_260595134347_rgbf000206-resize_3/000736_2014-06-08_18-24-15_260595134347_rgbf000206-resize_3-target.png,250,3.515,2.0,18185,249,feet,jsons/v1_VE250_randls_43.json,1824428,2868381,28,Woman
161,408658,DepthScenes,duration_manipulation_targetAtFixation,jsons/v1_VE250_randls_43.json,http://54.235.29.9/FacialAge/BNav_EC2/DepthDuration/v2_depth_duration_MTurk/v2_DepthDuration_HTML.html#47,47,1366,657,1366,768,9-18-2022,12-20-14,162,depth_duration_stimuli/000137_2014-05-20_17-04-49_260595134347_rgbf000120-resize_1/000137_2014-05-20_17-04-49_260595134347_rgbf000120-resize_1-target.png,250,3.786,3.5,8371,250,feet,jsons/v1_VE250_randls_43.json,1824428,2868381,28,Woman
162,408658,DepthScenes,duration_manipulation_targetAtFixation,jsons/v1_VE250_randls_43.json,http://54.235.29.9/FacialAge/BNav_EC2/DepthDuration/v2_depth_duration_MTurk/v2_DepthDuration_HTML.html#47,47,1366,657,1366,768,9-18-2022,12-20-14,163,depth_duration_stimuli/002570_2014-06-24_13-59-54_094959634447_rgbf000059-resize_0/002570_2014-06-24_13-59-54_094959634447_rgbf000059-resize_0-target.png,250,4.037,3.3,7221,251,feet,jsons/v1_VE250_randls_43.json,1824428,2868381,28,Woman
163,408658,DepthScenes,duration_manipulation_targetAtFixation,jsons/v1_VE250_randls_43.json,http://54.235.29.9/FacialAge/BNav_EC2/DepthDuration/v2_depth_duration_MTurk/v2_DepthDuration_HTML.html#47,47,1366,657,1366,768,9-18-2022,12-20-14,164,depth_duration_stimuli/002467_2014-06-28_20-38-07_260595134347_rgbf000026-resize_2/002467_2014-06-28_20-38-07_260595134347_rgbf000026-resize_2-target.png,250,4.742,3.5,6908,251,feet,jsons/v1_VE250_randls_43.json,1824428,2868381,28,Woman
